LabVIEW Measurement	
Writer_Version	2
Reader_Version	2
Separator	Tab
Decimal_Separator	.
Multi_Headings	No
X_Columns	One
Time_Pref	Absolute
Operator	admin
Description	Clolumns are: time, Current, Voltage, Power, Battery Temp, and Chamber Temp
Date	2024/08/16
Time	13:06:06.104549407958984375
***End_of_Header***	
	
Channels	6						
Samples	1	1	1	1	1	1	
Date	2024/08/22	2024/08/22	2024/08/22	2024/08/22	2024/08/22	2024/08/22	
Time	18:30:10.8232703208923339844	18:30:10.828273773193359375	18:30:10.8352742195129394531	18:30:10.8075690269470214844	18:30:10.8075690269470214844	18:30:10.8075690269470214844	
X_Dimension	Time	Time	Time	Time	Time	Time	
X0	0.0000000000000000E+0	0.0000000000000000E+0	0.0000000000000000E+0	0.0000000000000000E+0	0.0000000000000000E+0	0.0000000000000000E+0	
Delta_X	1.000000	1.000000	1.000000	1.000000	1.000000	1.000000	
***End_of_Header***							
X_Value	Untitled	Untitled 1	Untitled 2	Untitled 3	Untitled 4	Untitled 5	Comment
0.000000	0.005041	4.108200	0.020690	21.086348	0.000984	20.891029
1.002917	-2.999900	3.953600	-11.860000	21.084876	0.000984	20.885764
2.000919	-2.982300	3.948100	-11.773000	21.086374	0.000982	20.895796
3.001918	-2.997300	3.942600	-11.816000	21.089093	0.000981	20.894723
4.000919	-2.997700	3.940500	-11.812000	21.095829	0.000982	20.890556
5.004206	-3.002300	3.935400	-11.814000	21.086798	0.000981	20.883894
6.004210	-3.014400	3.932700	-11.854000	21.119456	0.000980	20.890481
7.003635	-3.020100	3.928400	-11.863000	21.100645	0.000980	20.876407
8.005636	-3.011600	3.926200	-11.823000	21.076545	0.000977	20.893077
9.002632	-3.017900	3.924100	-11.842000	21.085376	0.000977	20.874885
10.007702	-2.994000	3.924300	-11.748000	21.094833	0.000980	20.866327
11.006701	-2.988500	3.922000	-11.720000	21.088970	0.000977	20.884643
12.005699	-3.002300	3.920300	-11.769000	21.086251	0.000978	20.879079
13.006699	-2.987600	3.920000	-11.710000	21.100372	0.000977	20.876135
14.006567	-2.982600	3.918000	-11.685000	21.107933	0.000976	20.865206
15.006569	-2.995300	3.916300	-11.729000	21.102619	0.000974	20.873640
16.007568	-2.986000	3.915500	-11.691000	21.102794	0.000974	20.876660
17.009570	-3.008100	3.914100	-11.773000	21.107884	0.000974	20.863735
18.008510	-3.006800	3.914300	-11.768000	21.105439	0.000973	20.866031
19.009906	-2.973000	3.913900	-11.635000	21.111427	0.000973	20.869649
20.010909	-2.994500	3.912000	-11.713000	21.116642	0.000972	20.887666
21.011907	-2.989500	3.909600	-11.685000	21.132210	0.000972	20.870049
22.011358	-3.004100	3.907600	-11.738000	21.150049	0.000970	20.885047
23.013831	-3.009000	3.907200	-11.756000	21.146830	0.000969	20.856225
24.012977	-2.978800	3.908700	-11.642000	21.149849	0.000970	20.872520
25.012982	-2.990800	3.906400	-11.683000	21.148477	0.000969	20.873519
26.013980	-3.002000	3.906300	-11.726000	21.155338	0.000970	20.864261
27.014907	-2.981300	3.905900	-11.643000	21.164594	0.000968	20.860244
28.015948	-3.004300	3.905100	-11.731000	21.151272	0.000969	20.873470
29.013954	-3.007200	3.903800	-11.738000	21.185200	0.000968	20.844822
30.013950	-3.020000	3.902500	-11.784000	21.161102	0.000968	20.867182
31.021981	-3.005100	3.902600	-11.727000	21.164919	0.000966	20.873844
32.012572	-3.011600	3.901300	-11.748000	21.189042	0.000964	20.878061
33.016576	-3.011900	3.900200	-11.746000	21.189217	0.000967	20.854056
34.013577	-2.991200	3.901300	-11.669000	21.186847	0.000963	20.870176
35.014794	-3.003500	3.899900	-11.711000	21.195029	0.000965	20.875515
36.014414	-2.993200	3.900400	-11.673000	21.202289	0.000968	20.849588
37.014388	-3.022200	3.898300	-11.781000	21.209149	0.000965	20.872097
38.019388	-2.989200	3.897300	-11.649000	21.220101	0.000963	20.851286
39.015394	-3.001500	3.897900	-11.698000	21.233297	0.000962	20.864486
40.019440	-2.988100	3.898200	-11.648000	21.214862	0.000961	20.855054
41.015197	-3.007900	3.896400	-11.719000	21.241580	0.000960	20.857125
42.016199	-3.007300	3.896000	-11.715000	21.246669	0.000962	20.845621
43.016201	-3.006600	3.896500	-11.714000	21.236916	0.000961	20.852459
44.018198	-2.992400	3.897300	-11.661000	21.255351	0.000958	20.839608
45.016767	-2.981700	3.895200	-11.614000	21.252008	0.000958	20.831049
46.017120	-2.991100	3.895600	-11.651000	21.262710	0.000958	20.844599
47.017122	-2.994500	3.894800	-11.661000	21.267525	0.000958	20.833770
48.018170	-3.000600	3.895500	-11.687000	21.288754	0.000959	20.845998
49.026167	-3.017800	3.894000	-11.750000	21.272491	0.000957	20.850117
50.017387	-3.006600	3.892000	-11.700000	21.262788	0.000956	20.840884
51.020388	-2.998200	3.892600	-11.669000	21.268152	0.000958	20.859999
52.020391	-2.998800	3.892700	-11.672000	21.294419	0.000956	20.855932
53.029427	-3.002600	3.892700	-11.687000	21.287709	0.000955	20.827883
54.019265	-3.004200	3.892800	-11.693000	21.287361	0.000955	20.853139
55.022929	-3.002900	3.892800	-11.689000	21.297863	0.000956	20.843257
56.020930	-2.991900	3.891700	-11.642000	21.301231	0.000957	20.833824
57.021704	-2.981000	3.891600	-11.600000	21.309114	0.000955	20.859254
58.019215	-3.010300	3.891800	-11.714000	21.327649	0.000955	20.828012
59.019316	-2.996000	3.890400	-11.654000	21.324681	0.000956	20.841638
60.024314	-3.031000	3.889700	-11.789000	21.319393	0.000955	20.830658
61.020319	-3.016900	3.889900	-11.734000	21.324782	0.000955	20.845057
62.032318	-2.999300	3.891200	-11.670000	21.335433	0.000954	20.839593
63.020284	-3.000200	3.889900	-11.669000	21.344164	0.000956	20.862077
64.020285	-3.005800	3.888200	-11.686000	21.342494	0.000954	20.849027
65.022286	-3.016700	3.888900	-11.731000	21.336108	0.000954	20.844535
66.023422	-3.006100	3.888700	-11.689000	21.329299	0.000953	20.825396
67.023546	-2.978200	3.890400	-11.585000	21.361727	0.000954	20.838873
68.023849	-3.007900	3.888400	-11.694000	21.377716	0.000955	20.827843
69.024851	-3.016000	3.888300	-11.726000	21.366043	0.000953	20.831337
70.023858	-3.010900	3.887100	-11.703000	21.378489	0.000954	20.826720
71.026853	-2.998900	3.887700	-11.658000	21.370259	0.000952	20.826072
72.023459	-3.006800	3.886200	-11.684000	21.384401	0.000954	20.829316
73.023462	-3.015800	3.887300	-11.723000	21.390563	0.000955	20.825049
74.023467	-2.988400	3.887000	-11.615000	21.383480	0.000952	20.832187
75.023815	-2.996500	3.885300	-11.641000	21.401963	0.000952	20.810377
76.026619	-3.005600	3.886000	-11.679000	21.420646	0.000950	20.833811
77.022107	-2.992400	3.886700	-11.630000	21.416107	0.000952	20.818838
78.025110	-2.993300	3.886100	-11.632000	21.424213	0.000952	20.838802
79.026110	-2.989000	3.885700	-11.614000	21.427904	0.000953	20.817366
80.024070	-2.992100	3.886600	-11.627000	21.441224	0.000950	20.817891
81.039834	-2.997800	3.886400	-11.650000	21.466440	0.000950	20.833638
82.029834	-3.003200	3.885600	-11.669000	21.480233	0.000951	20.835585
83.038835	-3.006500	3.883700	-11.676000	21.478063	0.000949	20.823931
84.040786	-2.999400	3.884100	-11.649000	21.469759	0.000948	20.811829
85.029139	-3.000300	3.883900	-11.652000	21.475719	0.000950	20.790766
86.037126	-2.987000	3.883300	-11.599000	21.505498	0.000949	20.814873
87.031158	-3.011600	3.882900	-11.693000	21.503755	0.000949	20.829723
88.028160	-2.998100	3.883200	-11.642000	21.492257	0.000950	20.796882
89.029270	-3.011800	3.883000	-11.694000	21.509591	0.000949	20.805218
90.027870	-2.995700	3.881700	-11.627000	21.484950	0.000950	20.799054
91.028868	-3.008400	3.882800	-11.680000	21.488692	0.000950	20.812281
92.031633	-2.997000	3.882100	-11.633000	21.525655	0.000950	20.799007
93.029267	-3.021500	3.880000	-11.723000	21.536654	0.000950	20.811435
94.031139	-2.990000	3.882700	-11.609000	21.524408	0.000951	20.788750
95.029214	-2.997800	3.881200	-11.634000	21.538600	0.000949	20.804848
96.029214	-3.006300	3.881700	-11.667000	21.533089	0.000947	20.818774
97.031423	-2.984600	3.881800	-11.585000	21.543191	0.000950	20.802804
98.034360	-3.002900	3.881000	-11.654000	21.567607	0.000949	20.812537
99.028769	-2.998900	3.881000	-11.638000	21.567134	0.000948	20.777450
100.030295	-2.988000	3.880500	-11.594000	21.561050	0.000949	20.796492
101.032914	-2.979500	3.881800	-11.565000	21.575765	0.000949	20.792725
102.029906	-3.001600	3.881700	-11.651000	21.599058	0.000951	20.801809
103.031098	-3.025000	3.879800	-11.735000	21.574693	0.000953	20.802084
104.030102	-3.004500	3.880600	-11.658000	21.593199	0.000950	20.800687
105.033568	-3.026200	3.878700	-11.737000	21.566141	0.000951	20.801587
106.029425	-2.996600	3.880200	-11.626000	21.568385	0.000951	20.785340
107.032473	-2.996400	3.880400	-11.626000	21.586017	0.000953	20.778328
108.039471	-3.004300	3.879800	-11.653000	21.596817	0.000952	20.797670
109.034472	-3.007300	3.878700	-11.663000	21.596417	0.000951	20.798692
110.031471	-3.012700	3.877600	-11.681000	21.598812	0.000951	20.796347
111.032592	-2.987000	3.878800	-11.585000	21.614448	0.000956	20.783545
112.030593	-2.980200	3.878900	-11.559000	21.631654	0.000953	20.796971
113.032595	-3.010600	3.877200	-11.671000	21.630606	0.000953	20.786439
114.036337	-3.002400	3.877600	-11.640000	21.646941	0.000954	20.798044
115.032923	-3.014200	3.877200	-11.685000	21.647863	0.000953	20.789009
116.033978	-3.016500	3.878200	-11.697000	21.674097	0.000956	20.784917
117.032132	-3.005100	3.875700	-11.645000	21.670405	0.000954	20.797818
118.032135	-2.982400	3.877600	-11.563000	21.673123	0.000956	20.784417
119.038056	-2.995400	3.877000	-11.612000	21.693721	0.000953	20.806453
120.033328	-3.005800	3.876600	-11.651000	21.679008	0.000956	20.790780
121.035333	-2.993100	3.875900	-11.599000	21.694742	0.000954	20.798940
122.033131	-2.988700	3.877000	-11.586000	21.708531	0.000955	20.807050
123.034139	-2.987500	3.876500	-11.580000	21.699080	0.000955	20.780522
124.035529	-2.996400	3.875500	-11.611000	21.711098	0.000955	20.784489
125.034369	-3.001100	3.875000	-11.628000	21.694590	0.000957	20.777451
126.034371	-2.990600	3.875800	-11.590000	21.721171	0.000956	20.794096
127.035370	-2.974300	3.876000	-11.528000	21.726782	0.000955	20.792124
128.033367	-2.979700	3.875500	-11.547000	21.737378	0.000956	20.791349
129.034657	-2.980500	3.876200	-11.551000	21.724859	0.000956	20.785933
130.037659	-2.978700	3.876100	-11.545000	21.757100	0.000956	20.783113
131.035662	-2.994000	3.875300	-11.602000	21.767073	0.000956	20.764644
132.041661	-3.000700	3.873500	-11.622000	21.768618	0.000956	20.764768
133.039260	-2.976500	3.874100	-11.530000	21.777020	0.000956	20.760849
134.037465	-3.003900	3.873000	-11.632000	21.785023	0.000956	20.808688
135.039466	-2.987900	3.873500	-11.572000	21.765624	0.000955	20.796860
136.038469	-3.004200	3.873600	-11.637000	21.762056	0.000957	20.783806
137.036594	-2.970700	3.874200	-11.509000	21.778912	0.000955	20.779339
138.036438	-2.976500	3.874400	-11.531000	21.765422	0.000956	20.782906
139.038445	-2.983200	3.873700	-11.555000	21.808209	0.000958	20.778315
140.038445	-3.001900	3.873700	-11.627000	21.807334	0.000958	20.782655
141.040540	-2.998800	3.874000	-11.617000	21.796438	0.000960	20.776017
142.042692	-2.999300	3.873700	-11.617000	21.815610	0.000958	20.787146
143.039663	-2.980700	3.873300	-11.545000	21.798256	0.000957	20.793010
144.040667	-3.022900	3.871200	-11.702000	21.813838	0.000957	20.767828
145.040669	-2.987300	3.873800	-11.571000	21.853505	0.000958	20.799944
146.045916	-2.976500	3.871800	-11.523000	21.834706	0.000957	20.796775
147.041824	-3.001900	3.871300	-11.620000	21.829543	0.000961	20.786392
148.043827	-3.020300	3.872100	-11.694000	21.839241	0.000959	20.785193
149.043826	-2.998200	3.871500	-11.607000	21.863350	0.000959	20.785142
150.054047	-2.991800	3.871100	-11.581000	21.872973	0.000961	20.799041
151.041079	-2.992400	3.870200	-11.580000	21.883942	0.000960	20.801486
152.045083	-2.978200	3.872000	-11.531000	21.876361	0.000961	20.791053
153.042173	-2.979600	3.870400	-11.531000	21.912287	0.000959	20.792874
154.048243	-2.991500	3.870200	-11.576000	21.907000	0.000961	20.779996
155.042274	-2.990600	3.869700	-11.571000	21.915077	0.000959	20.790926
156.043758	-2.985800	3.870500	-11.556000	21.910513	0.000961	20.790624
157.046763	-2.986700	3.870200	-11.557000	21.924025	0.000962	20.784709
158.045800	-3.005300	3.868800	-11.625000	21.904228	0.000962	20.781489
159.045745	-3.005200	3.868500	-11.625000	21.929458	0.000963	20.780190
160.045546	-2.999500	3.868900	-11.604000	21.919184	0.000962	20.791244
161.045487	-2.999100	3.869000	-11.602000	21.933918	0.000962	20.785129
162.046322	-2.998600	3.868600	-11.599000	21.927535	0.000962	20.800076
163.050614	-2.991700	3.868200	-11.572000	21.941669	0.000962	20.803793
164.046944	-2.983700	3.869600	-11.545000	21.942865	0.000963	20.808309
165.046118	-2.988300	3.867400	-11.556000	21.961362	0.000963	20.808807
166.054120	-2.988200	3.869800	-11.562000	21.939996	0.000963	20.807334
167.047120	-2.984100	3.868600	-11.542000	21.950415	0.000964	20.795479
168.051666	-2.992700	3.866900	-11.571000	21.961284	0.000964	20.793082
169.048664	-2.996000	3.866600	-11.583000	21.970756	0.000966	20.821530
170.048670	-2.996300	3.867100	-11.587000	21.962204	0.000965	20.792107
171.048672	-3.006000	3.866700	-11.621000	21.970605	0.000964	20.803361
172.049057	-2.986000	3.868000	-11.549000	21.975066	0.000964	20.802136
173.052849	-2.975300	3.867100	-11.503000	21.962924	0.000968	20.804681
174.049853	-3.013700	3.866300	-11.651000	21.989598	0.000966	20.784915
175.052904	-3.018400	3.864700	-11.663000	21.984836	0.000964	20.808123
176.052029	-2.981000	3.868200	-11.531000	22.006075	0.000964	20.793823
177.050430	-2.997900	3.865100	-11.586000	21.999517	0.000967	20.823294
178.050505	-3.014300	3.865400	-11.650000	22.004428	0.000967	20.813511
179.053507	-3.014100	3.864800	-11.647000	22.019036	0.000967	20.800633
180.051592	-3.008300	3.865400	-11.627000	22.014299	0.000967	20.813909
181.050766	-3.004600	3.864900	-11.612000	22.029480	0.000967	20.787381
182.051331	-2.997100	3.865500	-11.584000	22.017738	0.000967	20.819722
183.051329	-3.005300	3.864000	-11.610000	22.031822	0.000967	20.801105
184.058331	-3.020300	3.862100	-11.663000	22.031148	0.000965	20.793792
185.055328	-3.019800	3.863900	-11.667000	22.038477	0.000967	20.807767
186.056656	-3.002200	3.863900	-11.599000	22.062383	0.000966	20.808940
187.052658	-3.008300	3.863800	-11.622000	22.066720	0.000967	20.791471
188.052676	-3.019300	3.864300	-11.667000	22.088880	0.000966	20.804647
189.055123	-3.000900	3.865000	-11.598000	22.080654	0.000969	20.784083
190.052354	-3.001000	3.864400	-11.596000	22.085814	0.000968	20.795413
191.051540	-2.997200	3.864300	-11.581000	22.093616	0.000967	20.807017
192.053543	-3.001100	3.863200	-11.594000	22.088530	0.000969	20.793391
193.052546	-3.025400	3.861000	-11.680000	22.085239	0.000969	20.816175
194.057093	-2.998900	3.861800	-11.579000	22.096407	0.000971	20.821191
195.056507	-2.999000	3.862000	-11.581000	22.093864	0.000971	20.813430
196.052056	-2.972100	3.863000	-11.479000	22.079680	0.000970	20.814877
197.054058	-3.002600	3.862200	-11.596000	22.107673	0.000971	20.815875
198.056059	-3.005700	3.862700	-11.609000	22.098375	0.000971	20.834066
199.056517	-3.021000	3.861600	-11.665000	22.112708	0.000971	20.822812
200.058151	-3.002300	3.862200	-11.594000	22.117917	0.000972	20.800526
201.069154	-2.995400	3.861500	-11.565000	22.134594	0.000974	20.822437
202.063153	-2.982000	3.862000	-11.514000	22.137833	0.000974	20.805292
203.066151	-3.000000	3.860500	-11.580000	22.142370	0.000975	20.811730
204.056554	-2.984500	3.861800	-11.524000	22.149025	0.000974	20.798005
205.059552	-2.999900	3.859600	-11.576000	22.142045	0.000975	20.837010
206.060551	-2.990700	3.859500	-11.542000	22.171532	0.000975	20.814375
207.059552	-2.990100	3.858900	-11.538000	22.189079	0.000975	20.807287
208.056549	-3.015400	3.859300	-11.636000	22.158969	0.000978	20.833565
209.057063	-2.989200	3.860400	-11.537000	22.189329	0.000977	20.799950
210.059780	-2.988900	3.859800	-11.535000	22.182125	0.000979	20.819290
211.064781	-2.994900	3.858800	-11.556000	22.191023	0.000977	20.822035
212.060779	-2.984700	3.859000	-11.516000	22.206077	0.000978	20.813400
213.063838	-3.020200	3.857600	-11.650000	22.185065	0.000979	20.831716
214.060584	-2.991600	3.858800	-11.541000	22.180603	0.000978	20.818241
215.061588	-3.014700	3.857400	-11.627000	22.207971	0.000979	20.824779
216.063832	-2.990700	3.859800	-11.543000	22.214276	0.000979	20.821135
217.063824	-2.997700	3.857500	-11.562000	22.215347	0.000979	20.826949
218.062600	-3.012600	3.857500	-11.620000	22.212555	0.000980	20.831265
219.062841	-3.012200	3.857300	-11.618000	22.222699	0.000978	20.824353
220.062841	-2.993700	3.857500	-11.546000	22.220630	0.000980	20.822755
221.062845	-3.013100	3.856600	-11.619000	22.224044	0.000979	20.806734
222.065062	-2.993400	3.858100	-11.547000	22.252108	0.000981	20.841470
223.063025	-3.001900	3.857200	-11.577000	22.235309	0.000985	20.835556
224.066026	-3.006600	3.855500	-11.590000	22.251859	0.000983	20.827470
225.069027	-2.992100	3.856100	-11.536000	22.259709	0.000983	20.831064
226.062397	-2.978400	3.856100	-11.483000	22.259360	0.000982	20.837352
227.061207	-3.031400	3.855200	-11.685000	22.270925	0.000983	20.806732
228.062208	-3.005200	3.855800	-11.586000	22.245328	0.000983	20.836578
229.064208	-3.012900	3.854700	-11.612000	22.288345	0.000984	20.831761
230.062206	-3.008400	3.855000	-11.595000	22.286650	0.000983	20.816788
231.064909	-2.997100	3.855000	-11.552000	22.285504	0.000984	20.834132
232.062793	-2.980100	3.854100	-11.484000	22.308881	0.000984	20.851849
233.063797	-3.010300	3.854400	-11.602000	22.304345	0.000984	20.828342
234.062795	-3.004000	3.855300	-11.580000	22.306937	0.000985	20.839946
235.061414	-2.991200	3.856400	-11.533000	22.336469	0.000987	20.824473
236.061882	-2.995600	3.855200	-11.547000	22.304145	0.000984	20.864175
237.063887	-2.994500	3.854100	-11.540000	22.318126	0.000987	20.838822
238.067695	-2.977900	3.856200	-11.482000	22.329690	0.000988	20.843289
239.063468	-2.985600	3.855500	-11.509000	22.318425	0.000988	20.851449
240.064322	-3.008900	3.853000	-11.592000	22.313815	0.000988	20.852522
241.063323	-2.996200	3.853700	-11.545000	22.316257	0.000987	20.839321
242.063323	-2.997200	3.853200	-11.548000	22.297814	0.000986	20.834604
243.066322	-3.017800	3.851900	-11.623000	22.305191	0.000989	20.851947
244.069401	-3.016600	3.854300	-11.625000	22.337814	0.000991	20.844785
245.063706	-2.984500	3.853200	-11.497000	22.319595	0.000989	20.839345
246.064709	-2.986100	3.853600	-11.507000	22.333328	0.000993	20.836500
247.067052	-3.017900	3.851200	-11.621000	22.354610	0.000993	20.841690
248.064047	-3.004600	3.852500	-11.574000	22.364978	0.000992	20.844485
249.071464	-3.012100	3.851200	-11.599000	22.358224	0.000995	20.848153
250.064464	-2.997700	3.851400	-11.544000	22.388278	0.000992	20.836524
251.070467	-2.997400	3.852600	-11.547000	22.355607	0.000994	20.856437
252.066163	-2.996700	3.850900	-11.538000	22.370434	0.000994	20.842837
253.065941	-2.992100	3.851800	-11.523000	22.371257	0.000997	20.864996
254.068057	-3.009700	3.851400	-11.591000	22.397573	0.000996	20.850572
255.067058	-2.998100	3.851300	-11.545000	22.388053	0.000998	20.835349
256.070058	-2.995300	3.850600	-11.531000	22.401485	0.001000	20.849748
257.069060	-3.020900	3.849600	-11.628000	22.406269	0.000998	20.839841
258.070031	-2.986600	3.851300	-11.501000	22.429470	0.001001	20.855487
259.072033	-3.009200	3.849200	-11.582000	22.409907	0.001000	20.845380
260.069370	-3.027300	3.849100	-11.651000	22.430092	0.001001	20.866067
261.068350	-3.008100	3.850200	-11.581000	22.430365	0.001001	20.854962
262.067059	-2.994100	3.850600	-11.527000	22.452345	0.001000	20.845204
263.067958	-2.988900	3.850000	-11.506000	22.478733	0.001000	20.864044
264.068964	-3.011100	3.849200	-11.589000	22.474322	0.001002	20.861998
265.070858	-3.023700	3.847700	-11.633000	22.499565	0.001003	20.856932
266.073856	-2.990100	3.849300	-11.508000	22.487878	0.001001	20.856607
267.067515	-3.003700	3.848300	-11.558000	22.515288	0.001003	20.872203
268.068354	-2.992200	3.849700	-11.517000	22.495502	0.001003	20.860924
269.069357	-3.019300	3.846800	-11.614000	22.514764	0.001002	20.855558
270.071359	-3.011800	3.848600	-11.589000	22.506042	0.001004	20.872427
271.072322	-2.999600	3.847500	-11.540000	22.524107	0.001005	20.874398
272.068631	-3.006900	3.848300	-11.570000	22.554531	0.001007	20.885901
273.069632	-3.013500	3.847500	-11.593000	22.532853	0.001004	20.895009
274.069632	-3.013800	3.847300	-11.594000	22.545685	0.001007	20.868508
275.071630	-3.009300	3.845300	-11.570000	22.549946	0.001005	20.872301
276.076862	-2.987800	3.846900	-11.493000	22.557271	0.001006	20.882956
277.070759	-3.003600	3.845100	-11.547000	22.564971	0.001005	20.867434
278.073761	-3.005200	3.846900	-11.560000	22.552263	0.001008	20.879836
279.072439	-3.007400	3.846400	-11.566000	22.567512	0.001007	20.863816
280.071404	-2.990600	3.845200	-11.499000	22.601921	0.001006	20.882631
281.081467	-2.992300	3.845600	-11.506000	22.592403	0.001008	20.874046
282.072464	-2.991700	3.846800	-11.507000	22.585825	0.001009	20.878838
283.075467	-2.994200	3.845000	-11.511000	22.593375	0.001009	20.895407
284.072300	-2.995300	3.844900	-11.516000	22.614254	0.001010	20.863216
285.074162	-2.996700	3.845000	-11.521000	22.596340	0.001010	20.887471
286.073162	-3.006900	3.844200	-11.557000	22.603017	0.001010	20.888469
287.077201	-3.008300	3.844100	-11.563000	22.611289	0.001010	20.884901
288.076305	-3.020800	3.842600	-11.606000	22.595742	0.001010	20.883553
289.076849	-2.984300	3.844000	-11.471000	22.618789	0.001010	20.872973
290.075671	-2.988600	3.844000	-11.486000	22.610591	0.001012	20.887995
291.076671	-3.003000	3.844000	-11.542000	22.609919	0.001011	20.878787
292.079677	-2.992800	3.844000	-11.504000	22.614927	0.001011	20.883329
293.081672	-3.003000	3.843400	-11.540000	22.591232	0.001013	20.880933
294.082259	-3.012200	3.842500	-11.573000	22.597959	0.001014	20.883878
295.077433	-3.000700	3.843000	-11.531000	22.613258	0.001013	20.875968
296.079158	-2.983300	3.842500	-11.462000	22.605484	0.001014	20.885724
297.080154	-2.995300	3.843600	-11.512000	22.586772	0.001014	20.912025
298.096322	-2.992800	3.841600	-11.496000	22.599604	0.001015	20.901645
299.079472	-2.990100	3.841200	-11.485000	22.603690	0.001016	20.905737
300.079475	-3.020500	3.841700	-11.603000	22.615550	0.001016	20.894857
301.079475	-2.996800	3.841000	-11.509000	22.624819	0.001016	20.883279
302.080205	-3.017700	3.841000	-11.589000	22.608175	0.001017	20.875144
303.089986	-3.006800	3.840900	-11.548000	22.631621	0.001016	20.898626
304.079702	-3.020900	3.840800	-11.601000	22.643854	0.001015	20.877690
305.082703	-3.013600	3.840400	-11.573000	22.643331	0.001017	20.911776
306.079702	-2.992900	3.840500	-11.494000	22.649011	0.001018	20.895182
307.078730	-3.010500	3.838900	-11.556000	22.655066	0.001020	20.893660
308.079474	-2.987500	3.840800	-11.474000	22.670264	0.001020	20.894658
309.079476	-2.997000	3.840800	-11.510000	22.686682	0.001022	20.891189
310.079481	-3.003500	3.840700	-11.535000	22.685885	0.001021	20.886598
311.079512	-2.994200	3.839300	-11.494000	22.708382	0.001020	20.885899
312.079001	-3.005300	3.838600	-11.535000	22.703375	0.001020	20.908856
313.079523	-2.997600	3.839400	-11.508000	22.701954	0.001021	20.906959
314.081522	-2.988600	3.840200	-11.476000	22.723580	0.001023	20.919137
315.080527	-2.997700	3.839000	-11.506000	22.689796	0.001023	20.894782
316.079077	-2.996900	3.838600	-11.503000	22.700534	0.001024	20.914071
317.079852	-2.987500	3.839000	-11.469000	22.695476	0.001024	20.909479
318.079852	-2.994700	3.838600	-11.494000	22.713414	0.001026	20.920808
319.084856	-3.008000	3.838800	-11.546000	22.722832	0.001025	20.898001
320.080656	-3.006300	3.836500	-11.533000	22.702004	0.001025	20.905587
321.082305	-2.984900	3.837200	-11.452000	22.730604	0.001024	20.925225
322.080803	-3.005600	3.836700	-11.531000	22.737356	0.001026	20.886946
323.080746	-2.980800	3.836400	-11.435000	22.756165	0.001028	20.919535
324.083702	-2.994600	3.835600	-11.485000	22.755268	0.001028	20.879285
325.085104	-3.008000	3.835000	-11.535000	22.741666	0.001027	20.915917
326.081378	-2.990300	3.837200	-11.474000	22.743733	0.001029	20.917988
327.082379	-3.013000	3.835600	-11.555000	22.762767	0.001030	20.928044
328.082471	-2.994800	3.837000	-11.490000	22.786533	0.001028	20.930988
329.081115	-3.030400	3.834100	-11.618000	22.807832	0.001030	20.922928
330.090187	-3.007900	3.834100	-11.532000	22.799661	0.001029	20.921855
331.084404	-3.004100	3.834000	-11.517000	22.839619	0.001029	20.908306
332.087403	-3.022800	3.834000	-11.589000	22.843605	0.001029	20.923203
333.085406	-3.002600	3.834300	-11.511000	22.836954	0.001033	20.926022
334.086367	-3.008200	3.833500	-11.531000	22.861167	0.001032	20.927994
335.087655	-3.016300	3.832700	-11.559000	22.862188	0.001031	20.924276
336.087653	-2.979600	3.835200	-11.427000	22.879102	0.001033	20.903290
337.090319	-3.005900	3.832900	-11.520000	22.860469	0.001033	20.919709
338.088610	-2.977500	3.834000	-11.415000	22.886276	0.001033	20.925174
339.093027	-3.003000	3.832100	-11.505000	22.859872	0.001034	20.922429
340.089030	-2.982100	3.833000	-11.429000	22.864729	0.001032	20.933458
341.096069	-3.026900	3.831500	-11.597000	22.860893	0.001035	20.950002
342.091174	-3.008800	3.832900	-11.530000	22.877359	0.001034	20.924775
343.090689	-3.000800	3.832700	-11.500000	22.860046	0.001035	20.927345
344.090993	-3.031300	3.829700	-11.609000	22.865452	0.001035	20.928019
345.092998	-3.013200	3.831300	-11.544000	22.875864	0.001037	20.926123
346.095999	-3.003500	3.831800	-11.508000	22.901322	0.001037	20.922704
347.091196	-3.010400	3.831200	-11.533000	22.928548	0.001038	20.920583
348.095635	-2.999700	3.830600	-11.490000	22.945660	0.001039	20.926348
349.092640	-3.031000	3.830600	-11.610000	22.951090	0.001042	20.942217
350.097635	-3.014900	3.830600	-11.546000	22.952211	0.001040	20.943341
351.094672	-3.040300	3.830500	-11.645000	22.955723	0.001040	20.944014
352.095184	-3.005000	3.830100	-11.507000	22.935373	0.001041	20.925999
353.093954	-3.011700	3.829500	-11.532000	22.945810	0.001040	20.934558
354.095957	-3.007400	3.828500	-11.512000	22.942448	0.001040	20.932611
355.095515	-3.016400	3.828800	-11.547000	22.960457	0.001042	20.927896
356.094216	-2.998700	3.828900	-11.480000	22.948949	0.001041	20.926798
357.096963	-3.013400	3.827900	-11.534000	22.958589	0.001043	20.920809
358.095966	-2.998000	3.829500	-11.480000	22.955973	0.001041	20.920086
359.097742	-3.003700	3.829500	-11.501000	22.950842	0.001043	20.924428
360.107738	-3.023000	3.827600	-11.570000	22.972214	0.001041	20.941096
361.096190	-3.002200	3.827200	-11.489000	22.976747	0.001044	20.951327
362.097190	-3.012500	3.826900	-11.527000	22.997396	0.001043	20.942618
363.098264	-3.039900	3.826700	-11.632000	22.990920	0.001046	20.956991
364.098163	-3.022400	3.826100	-11.563000	22.996176	0.001046	20.943293
365.097163	-3.003000	3.826100	-11.488000	22.984221	0.001044	20.943642
366.098176	-3.012200	3.826100	-11.524000	22.981904	0.001046	20.952700
367.100183	-3.002300	3.825700	-11.486000	23.008306	0.001046	20.944541
368.100176	-3.009100	3.825500	-11.510000	23.000685	0.001048	20.958714
369.099546	-3.023700	3.825000	-11.564000	22.999415	0.001046	20.953175
370.099329	-3.026000	3.826100	-11.576000	23.012591	0.001049	20.930344
371.100330	-3.009300	3.825600	-11.510000	23.001981	0.001049	20.956220
372.101330	-3.020300	3.824800	-11.551000	23.021384	0.001047	20.948634
373.106341	-3.006900	3.825300	-11.502000	23.034834	0.001048	20.955472
374.101712	-2.996700	3.824100	-11.458000	23.013314	0.001050	20.951929
375.104512	-3.011300	3.825100	-11.518000	23.058943	0.001049	20.947861
376.102515	-2.980300	3.825000	-11.399000	23.064697	0.001052	20.956470
377.102520	-3.003200	3.824400	-11.483000	23.065046	0.001051	20.939278
378.106851	-3.012200	3.822100	-11.512000	23.082106	0.001051	20.940725
379.110860	-2.992100	3.824700	-11.442000	23.084073	0.001052	20.929896
380.102854	-3.001000	3.823100	-11.472000	23.099540	0.001052	20.931643
381.102855	-2.999500	3.823900	-11.468000	23.104197	0.001053	20.952429
382.103972	-2.990700	3.823100	-11.432000	23.108282	0.001053	20.959840
383.102646	-3.017700	3.822500	-11.533000	23.110050	0.001052	20.945018
384.105115	-3.012900	3.821000	-11.510000	23.123225	0.001053	20.936410
385.104115	-2.995800	3.822500	-11.450000	23.122603	0.001057	20.946691
386.111122	-2.981500	3.823200	-11.398000	23.110499	0.001055	20.936460
387.105224	-2.985600	3.822600	-11.411000	23.102106	0.001054	20.933267
388.104498	-2.973300	3.823000	-11.366000	23.087388	0.001055	20.936062
389.106501	-2.978700	3.822000	-11.383000	23.098969	0.001055	20.953828
390.106507	-2.984900	3.821900	-11.407000	23.090725	0.001057	20.948413
391.107365	-2.970600	3.821400	-11.351000	23.098994	0.001055	20.943423
392.106691	-2.998000	3.821000	-11.454000	23.114735	0.001056	20.954452
393.107835	-2.996600	3.819800	-11.445000	23.126589	0.001054	20.943574
394.107838	-2.990300	3.819600	-11.421000	23.147559	0.001058	20.940405
395.109848	-2.990500	3.819200	-11.420000	23.120339	0.001058	20.954853
396.110986	-2.982900	3.820300	-11.395000	23.154010	0.001058	20.947342
397.109614	-2.982100	3.820500	-11.392000	23.144173	0.001060	20.933694
398.108130	-2.987000	3.819200	-11.407000	23.174680	0.001059	20.946245
399.108128	-3.004000	3.819000	-11.471000	23.174382	0.001059	20.940731
400.113818	-3.010300	3.818200	-11.493000	23.179113	0.001061	20.942627
401.109941	-2.985800	3.819700	-11.404000	23.181479	0.001063	20.932671
402.111147	-3.001800	3.817800	-11.458000	23.191764	0.001062	20.939184
403.110147	-3.012500	3.816500	-11.496000	23.202573	0.001063	20.930102
404.111257	-2.991600	3.818900	-11.423000	23.203120	0.001064	20.945347
405.119098	-2.987100	3.818900	-11.406000	23.186137	0.001062	20.946345
406.113293	-3.020300	3.816300	-11.526000	23.178815	0.001064	20.951810
407.111294	-2.997200	3.818000	-11.441000	23.187631	0.001064	20.926034
408.113294	-3.008300	3.816800	-11.480000	23.198090	0.001067	20.943152
409.113505	-3.004400	3.817000	-11.466000	23.211313	0.001066	20.930800
410.112170	-2.988300	3.817000	-11.404000	23.220478	0.001067	20.926708
411.114168	-3.003200	3.816600	-11.461000	23.219506	0.001067	20.918149
412.112173	-3.008200	3.815700	-11.478000	23.225134	0.001064	20.925685
413.115407	-2.985900	3.814500	-11.388000	23.228147	0.001067	20.914007
414.114403	-3.001300	3.814800	-11.449000	23.219531	0.001067	20.950887
415.112960	-3.005000	3.815000	-11.463000	23.236688	0.001068	20.932995
416.113960	-2.995800	3.814900	-11.427000	23.256111	0.001067	20.927805
417.113962	-3.002300	3.814300	-11.450000	23.256734	0.001068	20.927007
418.115995	-2.979200	3.814800	-11.364000	23.257854	0.001069	20.929551
419.112722	-3.001200	3.813000	-11.443000	23.255862	0.001069	20.901479
420.112706	-2.988400	3.815500	-11.402000	23.280813	0.001068	20.924111
421.114709	-3.013000	3.813800	-11.490000	23.271176	0.001071	20.922988
422.116708	-3.009300	3.813100	-11.474000	23.265872	0.001070	20.916725
423.121794	-3.015000	3.813500	-11.497000	23.260742	0.001071	20.922963
424.119966	-2.995700	3.814300	-11.425000	23.259372	0.001070	20.903100
425.115966	-3.016600	3.811800	-11.497000	23.301604	0.001072	20.904647
426.116971	-2.985600	3.813400	-11.385000	23.290026	0.001072	20.909164
427.117967	-3.005600	3.813200	-11.460000	23.254441	0.001073	20.900056
428.116434	-3.019200	3.811800	-11.508000	23.266892	0.001073	20.922014
429.117141	-2.996600	3.811400	-11.419000	23.288581	0.001073	20.917199
430.117140	-2.988400	3.811900	-11.390000	23.263929	0.001073	20.911459
431.116146	-2.993000	3.810400	-11.403000	23.293386	0.001073	20.922014
432.118398	-3.003100	3.810000	-11.440000	23.275383	0.001074	20.911085
433.118645	-2.983000	3.811300	-11.369000	23.282405	0.001073	20.908639
434.117643	-2.995800	3.810700	-11.415000	23.290573	0.001074	20.896437
435.118734	-2.992000	3.810700	-11.401000	23.308700	0.001072	20.903699
436.118731	-3.001600	3.809200	-11.432000	23.301952	0.001074	20.914952
437.137352	-2.998200	3.810800	-11.423000	23.302525	0.001075	20.902725
438.134579	-3.010400	3.807900	-11.462000	23.302126	0.001077	20.906593
439.120583	-2.993300	3.810000	-11.402000	23.307903	0.001075	20.908589
440.121584	-3.008600	3.807300	-11.454000	23.328222	0.001075	20.919469
441.126587	-3.010000	3.807000	-11.458000	23.324960	0.001076	20.906718
442.120361	-2.989500	3.808000	-11.384000	23.331110	0.001075	20.924260
443.124912	-3.002900	3.805800	-11.427000	23.326355	0.001077	20.911908
444.122916	-2.989900	3.807100	-11.381000	23.353670	0.001075	20.915577
445.124910	-2.996500	3.806900	-11.406000	23.363455	0.001076	20.904522
446.124925	-2.982300	3.807500	-11.354000	23.358799	0.001077	20.904597
447.125190	-3.014000	3.805700	-11.470000	23.356135	0.001078	20.916151
448.124618	-3.001100	3.806100	-11.422000	23.360766	0.001077	20.890923
449.127623	-3.004400	3.806500	-11.435000	23.366020	0.001077	20.911360
450.125621	-3.001700	3.805000	-11.421000	23.368959	0.001077	20.897711
451.124483	-2.974700	3.807000	-11.323000	23.345678	0.001079	20.908042
452.137930	-2.998700	3.805000	-11.409000	23.353148	0.001078	20.910312
453.126079	-3.006900	3.806700	-11.446000	23.364651	0.001078	20.895291
454.131130	-2.999900	3.804200	-11.412000	23.381284	0.001079	20.899633
455.129326	-2.969000	3.805300	-11.296000	23.389052	0.001077	20.913582
456.131343	-2.994300	3.804200	-11.389000	23.372221	0.001079	20.906670
457.127879	-2.982300	3.803600	-11.342000	23.363681	0.001079	20.894318
458.129879	-2.987800	3.805300	-11.368000	23.379442	0.001080	20.903476
459.131880	-2.996200	3.803000	-11.393000	23.392365	0.001079	20.888929
460.137550	-2.983100	3.803900	-11.345000	23.413803	0.001080	20.901880
461.131667	-2.994500	3.802100	-11.385000	23.422691	0.001081	20.899883
462.129670	-2.982700	3.803700	-11.344000	23.403520	0.001080	20.881618
463.130667	-2.971600	3.802300	-11.296000	23.445473	0.001080	20.884787
464.131736	-2.999700	3.802700	-11.406000	23.430286	0.001080	20.886634
465.133488	-2.983800	3.802800	-11.345000	23.427696	0.001080	20.880720
466.132935	-2.980900	3.802400	-11.333000	23.440669	0.001081	20.873335
467.134939	-3.009900	3.800300	-11.437000	23.407779	0.001081	20.889679
468.131938	-2.997900	3.800700	-11.393000	23.405563	0.001080	20.887459
469.140938	-3.004800	3.800000	-11.417000	23.421598	0.001082	20.887409
470.133935	-3.001400	3.801200	-11.408000	23.412560	0.001082	20.886411
471.132965	-2.995000	3.800800	-11.382000	23.420055	0.001083	20.890130
472.133968	-3.026100	3.798500	-11.493000	23.411889	0.001083	20.880523
473.135005	-2.991400	3.800600	-11.368000	23.380865	0.001082	20.874085
474.134102	-2.982700	3.799700	-11.333000	23.395655	0.001084	20.878477
475.141436	-2.999100	3.797900	-11.389000	23.409226	0.001084	20.881647
476.138431	-3.004500	3.798300	-11.411000	23.416222	0.001085	20.888185
477.142429	-3.010000	3.798100	-11.431000	23.427477	0.001084	20.877181
478.136569	-3.002600	3.797900	-11.403000	23.459420	0.001084	20.864630
479.136753	-2.988800	3.798100	-11.351000	23.469728	0.001083	20.867849
480.136258	-2.997400	3.798100	-11.382000	23.433603	0.001083	20.871468
481.139262	-3.004100	3.798100	-11.408000	23.446774	0.001085	20.855274
482.136274	-2.996000	3.795900	-11.370000	23.411669	0.001085	20.862760
483.138452	-3.003400	3.797200	-11.403000	23.415703	0.001086	20.887665
484.136012	-2.999500	3.796400	-11.386000	23.437065	0.001084	20.875887
485.137497	-2.976500	3.797400	-11.300000	23.432062	0.001083	20.862812
486.140489	-3.007400	3.795500	-11.414000	23.458354	0.001085	20.850285
487.141402	-3.014900	3.796000	-11.443000	23.450114	0.001087	20.859569
488.138643	-3.000700	3.794700	-11.386000	23.466446	0.001086	20.853181
489.143215	-2.999800	3.796900	-11.389000	23.472223	0.001086	20.870824
490.146220	-3.004100	3.793400	-11.395000	23.463335	0.001088	20.868554
491.140216	-3.006700	3.793900	-11.406000	23.482407	0.001086	20.844050
492.145011	-3.000400	3.794200	-11.383000	23.499686	0.001088	20.865636
493.142067	-2.991200	3.793500	-11.346000	23.502176	0.001087	20.856278
494.155035	-2.996200	3.794500	-11.367000	23.485222	0.001088	20.848294
495.147036	-2.978100	3.793700	-11.297000	23.462019	0.001088	20.859175
496.143036	-2.991300	3.792700	-11.344000	23.436426	0.001089	20.850117
497.156038	-3.002800	3.791700	-11.385000	23.448850	0.001089	20.844078
498.148037	-3.018500	3.791300	-11.441000	23.439016	0.001089	20.851765
499.151037	-2.991200	3.792300	-11.342000	23.418426	0.001087	20.845352
500.145035	-3.005900	3.791400	-11.395000	23.435482	0.001090	20.853439
501.145036	-3.018200	3.791100	-11.441000	23.396866	0.001088	20.839390
502.145037	-3.015000	3.791100	-11.429000	23.419474	0.001089	20.850670
503.147895	-3.027000	3.789500	-11.470000	23.455725	0.001089	20.841961
504.152899	-3.000600	3.790900	-11.374000	23.452739	0.001090	20.850347
505.146067	-3.009100	3.789600	-11.403000	23.476267	0.001090	20.833628
506.144789	-2.979600	3.789300	-11.290000	23.517745	0.001091	20.865246
507.148792	-3.014000	3.790000	-11.422000	23.527305	0.001090	20.838795
508.145794	-2.987800	3.790300	-11.323000	23.525016	0.001091	20.871586
509.145823	-3.017500	3.789000	-11.432000	23.546202	0.001092	20.852048
510.146553	-2.993200	3.789200	-11.342000	23.557928	0.001091	20.855741
511.145554	-3.012800	3.788400	-11.413000	23.565298	0.001091	20.835155
512.145554	-3.020500	3.786400	-11.435000	23.578916	0.001091	20.866823
513.149846	-2.996700	3.789300	-11.354000	23.573341	0.001091	20.848907
514.150607	-3.012000	3.787500	-11.406000	23.569608	0.001091	20.838526
515.147934	-3.003000	3.787700	-11.373000	23.602643	0.001092	20.827547
516.149938	-2.985000	3.789100	-11.310000	23.620094	0.001091	20.825127
517.148939	-2.984100	3.786500	-11.299000	23.601574	0.001090	20.854449
518.149936	-2.981100	3.787800	-11.290000	23.618702	0.001093	20.841275
519.153675	-2.993700	3.787100	-11.337000	23.608248	0.001092	20.841700
520.152471	-2.973300	3.785500	-11.255000	23.584151	0.001091	20.834139
521.149474	-3.007100	3.785600	-11.383000	23.589629	0.001091	20.824932
522.150999	-2.982900	3.786800	-11.293000	23.586768	0.001092	20.833443
523.161995	-2.993600	3.785900	-11.332000	23.597945	0.001093	20.827105
524.149230	-2.982600	3.785400	-11.289000	23.618011	0.001092	20.840108
525.153231	-3.000700	3.786700	-11.362000	23.616941	0.001091	20.833346
526.150332	-2.978700	3.786100	-11.277000	23.652813	0.001093	20.819996
527.154424	-2.971900	3.785700	-11.250000	23.642309	0.001091	20.824164
528.151419	-2.993300	3.784000	-11.325000	23.609650	0.001091	20.819873
529.151818	-3.009200	3.784300	-11.386000	23.634668	0.001091	20.809392
530.155902	-2.979000	3.783900	-11.271000	23.621202	0.001090	20.826712
531.152903	-2.966600	3.782900	-11.221000	23.618042	0.001092	20.832553
532.155672	-2.989700	3.782800	-11.309000	23.599224	0.001091	20.836921
533.155311	-3.005100	3.782900	-11.368000	23.591657	0.001093	20.814638
534.154798	-3.008600	3.781200	-11.375000	23.595865	0.001095	20.814589
535.155794	-2.997400	3.782800	-11.338000	23.626684	0.001091	20.817510
536.158799	-3.002800	3.782000	-11.355000	23.611152	0.001093	20.825646
537.159807	-2.987900	3.781700	-11.299000	23.620613	0.001093	20.813794
538.154553	-3.001700	3.781100	-11.349000	23.608043	0.001093	20.820158
539.155559	-3.007000	3.781200	-11.369000	23.591116	0.001094	20.806509
540.156555	-2.993900	3.780800	-11.319000	23.599108	0.001094	20.827797
541.157586	-2.987100	3.781000	-11.292000	23.608993	0.001091	20.803093
542.157438	-2.998900	3.778900	-11.331000	23.629780	0.001093	20.808285
543.160149	-2.987700	3.780200	-11.293000	23.633365	0.001093	20.817095
544.160151	-2.980000	3.779600	-11.261000	23.615095	0.001094	20.771278
545.158158	-2.994300	3.778900	-11.313000	23.623087	0.001096	20.804420
546.160098	-2.984700	3.780500	-11.282000	23.601780	0.001095	20.812458
547.160020	-2.998600	3.778800	-11.331000	23.626749	0.001093	20.797186
548.160034	-3.001300	3.777000	-11.333000	23.625930	0.001095	20.784037
549.161041	-3.013600	3.777000	-11.381000	23.646842	0.001094	20.801208
550.162942	-2.989800	3.778200	-11.295000	23.653016	0.001094	20.796018
551.162064	-3.007900	3.777100	-11.360000	23.644180	0.001096	20.800911
552.161019	-3.012300	3.775800	-11.374000	23.669000	0.001094	20.803033
553.161018	-2.995700	3.776800	-11.313000	23.652672	0.001093	20.799466
554.162020	-3.004600	3.774700	-11.341000	23.662879	0.001095	20.785517
555.161073	-3.012800	3.775500	-11.374000	23.685981	0.001095	20.795402
556.160156	-3.012300	3.774100	-11.368000	23.703406	0.001094	20.805759
557.164170	-2.985300	3.777100	-11.275000	23.693277	0.001095	20.798924
558.161154	-3.000000	3.774600	-11.323000	23.743733	0.001095	20.780283
559.161218	-2.980600	3.775300	-11.252000	23.724942	0.001094	20.778987
560.168363	-2.996600	3.774800	-11.310000	23.698260	0.001094	20.795859
561.161358	-2.995100	3.775600	-11.307000	23.706776	0.001096	20.785904
562.162362	-3.007500	3.773400	-11.346000	23.697020	0.001095	20.783236
563.162011	-3.008600	3.773500	-11.352000	23.722734	0.001093	20.768713
564.161266	-3.010200	3.774200	-11.358000	23.711636	0.001095	20.788880
565.162287	-2.995200	3.772600	-11.298000	23.736852	0.001094	20.787609
566.164287	-3.009500	3.771200	-11.348000	23.728590	0.001096	20.785489
567.163287	-2.985600	3.773400	-11.263000	23.741809	0.001094	20.776457
568.170257	-3.014500	3.771500	-11.368000	23.774540	0.001093	20.771816
569.163080	-3.016300	3.771500	-11.375000	23.781960	0.001095	20.778307
570.165632	-2.995100	3.771500	-11.295000	23.768845	0.001096	20.796452
571.164649	-2.987500	3.772600	-11.270000	23.759338	0.001095	20.763212
572.164984	-3.004200	3.771200	-11.329000	23.724793	0.001094	20.775993
573.166883	-3.017900	3.770900	-11.379000	23.735597	0.001094	20.759797
574.166865	-2.989600	3.771900	-11.276000	23.723477	0.001095	20.781785
575.164867	-2.996000	3.770500	-11.295000	23.694132	0.001095	20.781288
576.166869	-3.002400	3.769400	-11.316000	23.695378	0.001096	20.770210
577.168710	-3.008700	3.769500	-11.340000	23.707229	0.001095	20.774978
578.167720	-3.020600	3.768200	-11.381000	23.713927	0.001095	20.763201
579.169155	-3.004800	3.768800	-11.324000	23.735484	0.001096	20.753520
580.166164	-2.992000	3.769800	-11.278000	23.749524	0.001098	20.770442
581.168178	-2.986900	3.768700	-11.256000	23.734543	0.001094	20.762534
582.181158	-3.008900	3.767200	-11.335000	23.719161	0.001095	20.749008
583.169759	-3.010300	3.767300	-11.339000	23.730713	0.001096	20.758220
584.168291	-2.985500	3.767500	-11.246000	23.763719	0.001094	20.769027
585.168651	-2.999500	3.766200	-11.296000	23.759241	0.001096	20.768804
586.170918	-3.002000	3.765100	-11.302000	23.783161	0.001097	20.764338
587.169524	-2.996400	3.767100	-11.285000	23.774502	0.001095	20.759449
588.170263	-2.994000	3.765100	-11.272000	23.748394	0.001095	20.758878
589.207266	-3.005300	3.765200	-11.314000	23.768009	0.001095	20.772380
590.170267	-3.005400	3.765300	-11.315000	23.799222	0.001096	20.749147
591.170273	-2.998700	3.764600	-11.287000	23.816447	0.001096	20.752667
592.172789	-2.997300	3.765600	-11.285000	23.818166	0.001096	20.745856
593.171802	-2.998300	3.764500	-11.286000	23.831732	0.001094	20.751872
594.171805	-2.979700	3.766000	-11.220000	23.831933	0.001096	20.752548
595.173414	-2.985400	3.764000	-11.236000	23.845200	0.001095	20.744513
596.170306	-2.980800	3.765200	-11.222000	23.868447	0.001095	20.730365
597.175582	-3.006600	3.762900	-11.312000	23.866084	0.001095	20.739850
598.172585	-2.978300	3.763400	-11.208000	23.871611	0.001094	20.762462
599.174593	-2.986300	3.763500	-11.237000	23.900756	0.001095	20.752806
600.174586	-3.018100	3.761400	-11.351000	23.886596	0.001095	20.768479
601.178981	-3.015500	3.761600	-11.342000	23.890805	0.001094	20.759423
602.174916	-3.007600	3.763100	-11.316000	23.913055	0.001096	20.739060
603.175920	-3.019300	3.762800	-11.360000	23.912509	0.001094	20.754634
604.176924	-2.995700	3.762500	-11.269000	23.915199	0.001094	20.737890
605.185060	-3.011600	3.760300	-11.323000	23.903155	0.001097	20.745728
606.182839	-2.991800	3.760700	-11.250000	23.885935	0.001095	20.750272
607.183844	-3.007400	3.760400	-11.308000	23.901890	0.001096	20.759633
608.184843	-3.009100	3.760200	-11.313000	23.881110	0.001095	20.736424
609.182878	-2.987800	3.759900	-11.233000	23.866851	0.001096	20.750102
610.179906	-2.988700	3.759800	-11.235000	23.842288	0.001096	20.757241
611.181494	-3.002000	3.759600	-11.286000	23.842538	0.001093	20.735680
612.183494	-2.981400	3.760300	-11.210000	23.809314	0.001095	20.734609
613.183500	-2.995200	3.759700	-11.260000	23.839282	0.001094	20.753753
614.182489	-3.003600	3.758100	-11.287000	23.838587	0.001094	20.720812
615.184694	-2.993700	3.757300	-11.248000	23.873183	0.001095	20.750287
616.187698	-2.995100	3.757100	-11.252000	23.885528	0.001094	20.740855
617.186698	-3.006800	3.756100	-11.293000	23.900960	0.001095	20.741630
618.185966	-3.047100	3.754900	-11.440000	23.879236	0.001095	20.742132
619.189941	-3.006500	3.755300	-11.290000	23.871895	0.001094	20.745677
620.186361	-2.998200	3.756200	-11.261000	23.880757	0.001093	20.750770
621.185361	-3.008000	3.755500	-11.295000	23.881778	0.001095	20.748475
622.191568	-3.014700	3.755400	-11.320000	23.870307	0.001094	20.732230
623.197160	-3.011600	3.755500	-11.309000	23.850696	0.001094	20.747654
624.195570	-2.982800	3.756200	-11.203000	23.824168	0.001096	20.748555
625.200572	-2.982200	3.756800	-11.202000	23.823025	0.001094	20.727020
626.187572	-3.017200	3.754800	-11.328000	23.838931	0.001095	20.729692
627.188387	-3.015800	3.752800	-11.317000	23.841197	0.001095	20.731491
628.189626	-3.015400	3.753700	-11.318000	23.866658	0.001094	20.734735
629.189219	-2.982500	3.753900	-11.195000	23.880075	0.001097	20.736335
630.188224	-2.999800	3.754100	-11.260000	23.877563	0.001095	20.737610
631.189219	-3.011700	3.753200	-11.303000	23.912407	0.001095	20.738410
632.192712	-3.004000	3.752700	-11.272000	23.951878	0.001094	20.753809
633.193316	-2.983600	3.752700	-11.195000	23.917611	0.001095	20.735094
634.187805	-3.032100	3.751200	-11.374000	23.927144	0.001094	20.750818
635.193833	-3.008700	3.752000	-11.286000	23.940012	0.001095	20.738590
636.191054	-2.975400	3.751100	-11.159000	23.935858	0.001095	20.742012
637.190009	-2.984600	3.750700	-11.193000	23.943076	0.001095	20.740715
638.190130	-2.985000	3.751800	-11.198000	23.952311	0.001096	20.740019
639.190168	-2.976600	3.751000	-11.164000	23.963859	0.001095	20.733107
640.190154	-3.004600	3.751600	-11.270000	23.994594	0.001093	20.734531
641.191734	-3.014600	3.750700	-11.305000	24.002582	0.001095	20.724997
642.189861	-2.998600	3.749400	-11.243000	23.986958	0.001093	20.735407
643.191307	-2.989600	3.749900	-11.209000	24.021350	0.001094	20.745242
644.196307	-3.013200	3.749700	-11.298000	24.010677	0.001093	20.731693
645.192491	-2.995900	3.749500	-11.231000	24.006622	0.001093	20.728100
646.191854	-3.006800	3.747300	-11.265000	23.975193	0.001092	20.729773
647.192704	-3.007300	3.748400	-11.272000	23.989556	0.001094	20.735642
648.193703	-2.989400	3.748500	-11.205000	23.992642	0.001092	20.725460
649.204710	-2.995200	3.747500	-11.224000	24.005086	0.001092	20.729879
650.196704	-2.983400	3.747900	-11.180000	23.986399	0.001091	20.731528
651.194328	-2.991700	3.746400	-11.207000	23.998321	0.001092	20.726413
652.194883	-3.001400	3.747200	-11.245000	23.997252	0.001094	20.740990
653.196886	-3.000900	3.746700	-11.242000	23.982572	0.001092	20.733380
654.197930	-2.998600	3.747200	-11.235000	23.967542	0.001091	20.739171
655.198431	-2.994100	3.746500	-11.216000	23.944999	0.001092	20.732211
656.198354	-3.013100	3.746500	-11.287000	23.972897	0.001092	20.748809
657.195584	-2.989400	3.746900	-11.200000	23.989747	0.001091	20.753378
658.195591	-3.009400	3.744900	-11.269000	23.987510	0.001092	20.725055
659.196626	-3.005700	3.746500	-11.259000	23.973575	0.001092	20.765610
660.199824	-3.003100	3.744200	-11.243000	23.980045	0.001090	20.738433
661.195358	-3.003800	3.743700	-11.244000	23.971660	0.001092	20.746620
662.197360	-3.006000	3.744500	-11.254000	23.969769	0.001093	20.758949
663.197397	-2.988300	3.744300	-11.188000	23.941601	0.001091	20.731649
664.197367	-3.006900	3.743300	-11.255000	23.973059	0.001093	20.732849
665.200441	-3.035700	3.741500	-11.356000	23.977190	0.001094	20.737941
666.197476	-3.012700	3.743600	-11.277000	24.005711	0.001094	20.752318
667.202475	-3.010100	3.741000	-11.260000	23.988539	0.001093	20.750271
668.200479	-2.988900	3.742500	-11.185000	24.003374	0.001093	20.744284
669.200478	-2.996500	3.742800	-11.214000	23.999966	0.001093	20.747980
670.209338	-2.994100	3.742100	-11.203000	23.990983	0.001092	20.751299
671.202417	-3.013900	3.741700	-11.276000	23.982325	0.001093	20.750203
672.199565	-2.994200	3.741100	-11.200000	23.981827	0.001092	20.743540
673.200568	-3.009200	3.739600	-11.251000	23.969709	0.001091	20.725222
674.200571	-3.009100	3.740300	-11.255000	23.974762	0.001091	20.752575
675.200288	-3.009900	3.740900	-11.259000	24.011841	0.001090	20.747560
676.202289	-3.006000	3.740100	-11.241000	24.003031	0.001092	20.756743
677.200288	-3.017300	3.738500	-11.278000	23.996038	0.001092	20.763007
678.204293	-2.995800	3.739200	-11.201000	24.034633	0.001091	20.745761
679.201358	-3.011700	3.738900	-11.258000	24.008556	0.001092	20.760388
680.200096	-3.001700	3.739700	-11.225000	24.026151	0.001090	20.743893
681.204092	-2.979800	3.738000	-11.138000	24.018536	0.001089	20.756171
682.202370	-3.004000	3.738500	-11.230000	24.029037	0.001090	20.734459
683.200102	-2.991400	3.738500	-11.182000	24.022193	0.001091	20.758890
684.202572	-2.979500	3.738700	-11.137000	24.080022	0.001090	20.755246
685.204039	-2.994000	3.737900	-11.190000	24.077658	0.001091	20.741495
686.206041	-3.021000	3.735600	-11.284000	24.099707	0.001091	20.749858
687.209038	-2.984900	3.736700	-11.152000	24.096621	0.001089	20.748659
688.212134	-2.987600	3.735800	-11.160000	24.108341	0.001091	20.763733
689.204760	-2.992100	3.736400	-11.178000	24.116900	0.001090	20.755248
690.206278	-2.979200	3.736100	-11.129000	24.130535	0.001090	20.769873
691.206278	-3.010600	3.734200	-11.239000	24.118518	0.001090	20.753078
692.213274	-2.996900	3.734300	-11.190000	24.137752	0.001089	20.790862
693.206274	-2.990100	3.735300	-11.168000	24.123343	0.001090	20.761711
694.206497	-3.004800	3.734800	-11.221000	24.141083	0.001089	20.786616
695.208530	-2.987200	3.735400	-11.157000	24.153923	0.001089	20.779580
696.208529	-3.013300	3.732900	-11.248000	24.147629	0.001090	20.752877
697.208122	-3.005600	3.734200	-11.223000	24.160591	0.001087	20.777733
698.214050	-2.991200	3.734100	-11.169000	24.138645	0.001089	20.777532
699.210781	-3.014500	3.733400	-11.254000	24.143473	0.001087	20.773840
700.210778	-3.014100	3.732700	-11.248000	24.140734	0.001088	20.763032
701.211834	-2.991700	3.731700	-11.163000	24.115926	0.001087	20.794101
702.211063	-2.990100	3.733500	-11.162000	24.155963	0.001086	20.766452
703.215029	-3.005900	3.731400	-11.214000	24.173901	0.001086	20.761684
704.212035	-3.000100	3.731600	-11.194000	24.175096	0.001086	20.769995
705.215937	-2.988600	3.730700	-11.148000	24.190522	0.001085	20.792581
706.212934	-3.003800	3.731500	-11.208000	24.181987	0.001085	20.781649
707.213467	-3.007500	3.731900	-11.222000	24.181737	0.001084	20.791356
708.214758	-3.003500	3.731200	-11.206000	24.165692	0.001085	20.775262
709.222762	-3.013700	3.731600	-11.244000	24.172507	0.001085	20.780201
710.212768	-2.986100	3.731400	-11.142000	24.182585	0.001085	20.779878
711.211361	-2.995800	3.730900	-11.176000	24.195248	0.001086	20.791157
712.211197	-2.986300	3.729500	-11.136000	24.217990	0.001085	20.790734
713.213182	-3.012200	3.729800	-11.234000	24.210251	0.001084	20.772066
714.215189	-3.004900	3.729200	-11.205000	24.189874	0.001085	20.782922
715.214190	-2.998200	3.730300	-11.184000	24.181417	0.001085	20.789612
716.217907	-3.002000	3.729200	-11.194000	24.178754	0.001083	20.778406
717.214924	-2.974700	3.730100	-11.095000	24.160790	0.001086	20.816338
718.214735	-2.993800	3.728800	-11.161000	24.166514	0.001086	20.782250
719.217846	-3.015400	3.727800	-11.240000	24.191618	0.001084	20.775662
720.214803	-3.003200	3.727400	-11.193000	24.204456	0.001082	20.777159
721.217944	-3.009300	3.727500	-11.215000	24.211175	0.001084	20.778683
722.216942	-2.991700	3.726600	-11.148000	24.193984	0.001084	20.803639
723.216944	-3.006800	3.726700	-11.204000	24.190574	0.001083	20.791684
724.218820	-2.994000	3.725700	-11.154000	24.166390	0.001085	20.807730
725.221106	-2.994000	3.726800	-11.157000	24.164325	0.001084	20.806134
726.217943	-3.008900	3.725500	-11.208000	24.165443	0.001084	20.806306
727.217945	-2.994300	3.725100	-11.154000	24.174848	0.001083	20.799144
728.217099	-2.998500	3.725400	-11.169000	24.184377	0.001082	20.791632
729.216634	-2.993600	3.726500	-11.154000	24.198856	0.001084	20.807104
730.223366	-2.990000	3.724500	-11.136000	24.210026	0.001084	20.805031
731.218365	-2.991900	3.724500	-11.143000	24.237816	0.001083	20.837172
732.223870	-2.997300	3.723200	-11.159000	24.261899	0.001081	20.830035
733.222543	-2.993700	3.724000	-11.148000	24.264236	0.001083	20.792551
734.220121	-3.006300	3.724300	-11.194000	24.288418	0.001082	20.822023
735.220399	-2.979300	3.723600	-11.093000	24.265629	0.001082	20.816708
736.222399	-3.001400	3.722100	-11.170000	24.259109	0.001081	20.811116
737.222399	-2.998400	3.723100	-11.163000	24.257739	0.001082	20.810690
738.221401	-2.994500	3.723800	-11.149000	24.249230	0.001081	20.808319
739.224209	-2.998900	3.722300	-11.162000	24.231090	0.001080	20.808142
740.221762	-3.020500	3.720300	-11.236000	24.234325	0.001083	20.831300
741.223767	-3.008400	3.721800	-11.196000	24.244649	0.001082	20.796137
742.224763	-3.004100	3.721500	-11.179000	24.234970	0.001081	20.802550
743.224953	-2.996500	3.721200	-11.150000	24.235490	0.001081	20.819667
744.227356	-3.019300	3.719600	-11.230000	24.254947	0.001079	20.823062
745.226358	-3.002300	3.720100	-11.168000	24.235464	0.001080	20.812054
746.231362	-2.999100	3.721500	-11.161000	24.238922	0.001079	20.811255
747.229357	-3.009200	3.720000	-11.194000	24.280765	0.001079	20.828097
748.228417	-2.983400	3.720600	-11.098000	24.262805	0.001078	20.815297
749.231418	-3.012300	3.719300	-11.202000	24.274123	0.001080	20.826650
750.229421	-2.992900	3.718600	-11.128000	24.282306	0.001078	20.809254
751.235422	-2.968900	3.719900	-11.042000	24.272131	0.001078	20.832713
752.234599	-2.986200	3.718900	-11.104000	24.309099	0.001078	20.834707
753.232003	-3.003200	3.719200	-11.168000	24.287205	0.001078	20.815117
754.229726	-2.983200	3.718100	-11.091000	24.251703	0.001077	20.828343
755.232778	-3.000800	3.718300	-11.157000	24.227570	0.001076	20.834482
756.230781	-3.016200	3.716900	-11.209000	24.206347	0.001075	20.811298
757.233782	-2.991600	3.717500	-11.120000	24.208536	0.001078	20.822502
758.231234	-2.987500	3.717500	-11.105000	24.210476	0.001079	20.830612
759.234235	-2.986300	3.718200	-11.103000	24.233937	0.001078	20.827592
760.232241	-2.994200	3.716000	-11.124000	24.256800	0.001077	20.833930
761.235867	-3.013400	3.714500	-11.192000	24.288246	0.001076	20.816161
762.233361	-3.006000	3.716800	-11.172000	24.306358	0.001078	20.831959
763.232378	-2.986900	3.716900	-11.100000	24.297401	0.001076	20.829137
764.235384	-2.996400	3.714700	-11.129000	24.308520	0.001076	20.848825
765.234378	-2.983300	3.716200	-11.084000	24.306504	0.001075	20.840639
766.235329	-2.998800	3.715100	-11.139000	24.289813	0.001073	20.844285
767.237312	-3.001500	3.715200	-11.150000	24.281080	0.001074	20.839318
768.236670	-2.997400	3.714500	-11.133000	24.271725	0.001073	20.839417
769.235631	-3.024500	3.713700	-11.232000	24.248836	0.001074	20.830682
770.235654	-3.003500	3.714300	-11.154000	24.282845	0.001074	20.845356
771.235895	-2.974200	3.716200	-11.051000	24.266350	0.001073	20.852043
772.236533	-3.006500	3.713900	-11.165000	24.265531	0.001073	20.850273
773.239547	-3.003600	3.712500	-11.150000	24.245080	0.001072	20.845407
774.237654	-3.009600	3.713400	-11.174000	24.245080	0.001074	20.854415
775.243349	-2.985400	3.712700	-11.083000	24.205820	0.001073	20.840641
776.239174	-2.993100	3.712200	-11.109000	24.203508	0.001073	20.860606
777.238957	-2.997500	3.713300	-11.130000	24.193106	0.001071	20.834053
778.240955	-2.998700	3.713000	-11.134000	24.194601	0.001071	20.866370
779.240955	-3.008500	3.711300	-11.164000	24.222790	0.001071	20.863351
780.241959	-2.994700	3.712100	-11.116000	24.247545	0.001071	20.845508
781.242313	-2.989800	3.710400	-11.093000	24.249287	0.001069	20.851048
782.239318	-3.008700	3.710200	-11.162000	24.253120	0.001070	20.841143
783.240316	-2.994000	3.709800	-11.106000	24.272077	0.001070	20.829339
784.243474	-3.016500	3.709900	-11.190000	24.267177	0.001071	20.857139
785.239686	-2.987400	3.710300	-11.083000	24.267796	0.001071	20.851123
786.240757	-2.996400	3.709600	-11.114000	24.286656	0.001068	20.852497
787.241758	-2.997000	3.709200	-11.115000	24.296931	0.001071	20.873234
788.241762	-3.004900	3.709700	-11.145000	24.301086	0.001067	20.871239
789.243759	-2.983400	3.709500	-11.065000	24.295637	0.001068	20.858661
790.243108	-2.995200	3.709900	-11.111000	24.331884	0.001069	20.872735
791.247303	-3.006200	3.708600	-11.148000	24.311983	0.001066	20.857040
792.243302	-3.011200	3.707900	-11.163000	24.370892	0.001068	20.832685
793.245421	-2.995600	3.708600	-11.109000	24.378230	0.001066	20.864700
794.242649	-3.000500	3.707800	-11.124000	24.374948	0.001069	20.877054
795.243714	-3.012000	3.708000	-11.167000	24.361588	0.001068	20.853222
796.245447	-3.014700	3.707000	-11.173000	24.363331	0.001066	20.848807
797.244441	-2.986200	3.707500	-11.070000	24.376242	0.001068	20.863180
798.244458	-2.992000	3.706400	-11.088000	24.342509	0.001067	20.866325
799.244502	-3.028400	3.705400	-11.220000	24.382088	0.001065	20.859563
800.251322	-3.004200	3.705500	-11.131000	24.383158	0.001066	20.848308
801.247326	-2.982000	3.705600	-11.049000	24.368282	0.001066	20.863256
802.252428	-3.003100	3.705800	-11.128000	24.360794	0.001065	20.870443
803.251428	-3.003500	3.705100	-11.127000	24.374452	0.001066	20.872764
804.249620	-2.997300	3.704300	-11.101000	24.380199	0.001066	20.881374
805.254434	-2.986800	3.704100	-11.062000	24.402490	0.001066	20.873864
806.253955	-3.008500	3.704700	-11.145000	24.421046	0.001066	20.870670
807.250950	-3.005200	3.703600	-11.129000	24.398310	0.001062	20.889585
808.252384	-2.993300	3.704100	-11.087000	24.461444	0.001062	20.864732
809.250106	-3.004500	3.703200	-11.126000	24.444281	0.001062	20.875013
810.257108	-3.010500	3.703000	-11.147000	24.451071	0.001064	20.864756
811.261109	-3.002300	3.704000	-11.119000	24.448486	0.001061	20.865957
812.252112	-2.992200	3.703100	-11.081000	24.439854	0.001062	20.880528
813.253447	-3.012000	3.702600	-11.150000	24.432616	0.001061	20.863311
814.252038	-3.010500	3.700800	-11.140000	24.447168	0.001059	20.888340
815.251559	-3.002000	3.702600	-11.115000	24.476944	0.001062	20.867954
816.254637	-3.017300	3.701200	-11.166000	24.489256	0.001062	20.868927
817.254639	-3.020300	3.701100	-11.178000	24.479133	0.001059	20.893383
818.251071	-3.013400	3.700600	-11.151000	24.482144	0.001060	20.888343
819.251393	-3.002100	3.701600	-11.111000	24.505477	0.001060	20.882829
820.253395	-2.978900	3.701200	-11.024000	24.494657	0.001059	20.891887
821.254805	-2.999100	3.699300	-11.094000	24.518709	0.001060	20.874769
822.256342	-3.028700	3.698900	-11.201000	24.522343	0.001059	20.893586
823.256896	-2.983400	3.699800	-11.037000	24.473715	0.001061	20.876568
824.258283	-2.992300	3.699600	-11.069000	24.459462	0.001060	20.873649
825.256282	-3.009400	3.698900	-11.129000	24.485804	0.001058	20.883955
826.257282	-3.008900	3.698600	-11.127000	24.496800	0.001059	20.871280
827.262810	-3.004300	3.698200	-11.109000	24.467250	0.001060	20.900426
828.260981	-3.005000	3.699100	-11.115000	24.461156	0.001057	20.874874
829.260983	-3.010500	3.697600	-11.131000	24.482152	0.001057	20.896885
830.258983	-2.972600	3.699900	-10.997000	24.479988	0.001057	20.887128
831.261058	-3.000800	3.697400	-11.093000	24.488022	0.001059	20.883335
832.257281	-2.998900	3.697400	-11.087000	24.474120	0.001059	20.876026
833.261647	-2.968300	3.698600	-10.977000	24.455091	0.001057	20.895340
834.259646	-2.980500	3.696800	-11.017000	24.448052	0.001057	20.888278
835.259648	-2.980100	3.697500	-11.017000	24.444869	0.001056	20.878922
836.264219	-2.990800	3.697500	-11.058000	24.480888	0.001055	20.902255
837.259509	-3.005100	3.696000	-11.106000	24.496707	0.001056	20.889677
838.263494	-3.001300	3.697400	-11.096000	24.490712	0.001057	20.910688
839.261493	-2.996200	3.696900	-11.076000	24.507851	0.001056	20.898961
840.263254	-3.002600	3.695700	-11.095000	24.507853	0.001054	20.898962
841.261358	-3.016500	3.695700	-11.148000	24.496610	0.001055	20.892898
842.261880	-3.011600	3.694900	-11.126000	24.519048	0.001055	20.883643
843.263883	-3.004300	3.694800	-11.100000	24.554440	0.001054	20.893548
844.263890	-3.006400	3.695000	-11.107000	24.551557	0.001055	20.895871
845.264889	-2.990500	3.694500	-11.048000	24.541732	0.001054	20.900237
846.265253	-2.989600	3.694100	-11.041000	24.571454	0.001054	20.901610
847.265018	-3.001000	3.693500	-11.083000	24.554790	0.001055	20.910968
848.264018	-3.010800	3.692500	-11.117000	24.584514	0.001054	20.924195
849.264561	-2.990800	3.693400	-11.046000	24.593070	0.001054	20.887264
850.262763	-3.022700	3.692900	-11.162000	24.564842	0.001055	20.915836
851.266226	-3.019800	3.693400	-11.151000	24.547904	0.001054	20.894576
852.263237	-2.987200	3.694700	-11.035000	24.516094	0.001053	20.900118
853.264231	-3.005500	3.692000	-11.095000	24.516840	0.001054	20.923150
854.268268	-3.006100	3.691000	-11.095000	24.504950	0.001052	20.905532
855.263189	-3.000700	3.693400	-11.081000	24.520122	0.001053	20.919805
856.265625	-2.976000	3.692100	-10.987000	24.529177	0.001053	20.922726
857.265629	-2.991100	3.691800	-11.042000	24.543231	0.001053	20.928291
858.266626	-3.011600	3.690200	-11.112000	24.543280	0.001052	20.922177
859.270622	-3.013000	3.690300	-11.118000	24.568774	0.001052	20.942539
860.286370	-2.997300	3.690200	-11.059000	24.582427	0.001054	20.921627
861.268021	-3.005000	3.690200	-11.087000	24.561312	0.001052	20.935527
862.272022	-3.007300	3.689600	-11.094000	24.566086	0.001053	20.900491
863.269027	-2.993900	3.690000	-11.046000	24.569120	0.001053	20.911594
864.273501	-3.037200	3.686700	-11.196000	24.586950	0.001051	20.924268
865.275501	-2.991700	3.689900	-11.037000	24.592872	0.001051	20.914089
866.268501	-3.005000	3.688200	-11.082000	24.617841	0.001051	20.929658
867.269502	-3.006000	3.687900	-11.085000	24.602767	0.001050	20.924491
868.270503	-2.994700	3.689600	-11.048000	24.627164	0.001050	20.921471
869.278836	-3.010600	3.688800	-11.104000	24.632736	0.001049	20.904778
870.281431	-3.018600	3.687700	-11.131000	24.630520	0.001049	20.919623
871.273432	-2.998600	3.687900	-11.057000	24.625147	0.001049	20.936040
872.275432	-3.021600	3.686400	-11.138000	24.599056	0.001048	20.925509
873.274435	-2.985700	3.686800	-11.007000	24.595051	0.001049	20.902052
874.274432	-3.005200	3.686900	-11.078000	24.592113	0.001049	20.920440
875.276916	-2.986100	3.687300	-11.010000	24.613799	0.001049	20.918492
876.280042	-3.010800	3.686700	-11.097000	24.600019	0.001047	20.920786
877.277048	-3.001900	3.684600	-11.059000	24.586812	0.001049	20.907536
878.277066	-2.980100	3.685500	-10.982000	24.545995	0.001047	20.921108
879.277970	-3.014600	3.684500	-11.106000	24.533434	0.001045	20.925574
880.277905	-3.022100	3.684900	-11.135000	24.514529	0.001046	20.929839
881.282907	-3.016800	3.683100	-11.109000	24.510350	0.001044	20.905260
882.280915	-3.021500	3.683100	-11.127000	24.517761	0.001045	20.916014
883.283489	-3.022400	3.684400	-11.135000	24.506714	0.001044	20.914888
884.282555	-2.995800	3.683800	-11.035000	24.511166	0.001044	20.907027
885.286691	-3.018100	3.682800	-11.113000	24.534595	0.001044	20.905879
886.282699	-3.007100	3.682800	-11.073000	24.538525	0.001046	20.912191
887.283698	-2.991900	3.683200	-11.019000	24.545514	0.001046	20.899291
888.281766	-2.992000	3.683600	-11.019000	24.559812	0.001045	20.904627
889.281479	-3.012700	3.682400	-11.092000	24.550111	0.001042	20.919074
890.283480	-2.988600	3.682900	-11.006000	24.518721	0.001044	20.902754
891.283484	-2.989200	3.682700	-11.008000	24.558343	0.001043	20.895568
892.287420	-2.979900	3.683300	-10.976000	24.588685	0.001043	20.893769
893.282310	-2.978800	3.681800	-10.967000	24.584705	0.001044	20.893569
894.283630	-2.980900	3.682200	-10.975000	24.596965	0.001043	20.915351
895.283663	-2.988500	3.681500	-11.000000	24.595772	0.001041	20.925533
896.284665	-2.963400	3.681400	-10.908000	24.601043	0.001043	20.915650
897.291200	-3.013300	3.681100	-11.092000	24.570774	0.001042	20.881015
898.291744	-3.008100	3.680800	-11.071000	24.554183	0.001039	20.904669
899.286735	-2.987800	3.680600	-10.996000	24.575125	0.001040	20.904344
900.285736	-2.990500	3.681400	-11.009000	24.564927	0.001041	20.922085
901.286742	-2.991900	3.681100	-11.012000	24.566667	0.001038	20.901074
902.286530	-3.014300	3.679700	-11.091000	24.572833	0.001038	20.878813
903.288443	-3.010900	3.678400	-11.074000	24.597804	0.001039	20.888695
904.286446	-2.996300	3.679600	-11.024000	24.616482	0.001038	20.895582
905.286446	-2.978800	3.678400	-10.956000	24.624166	0.001037	20.884327
906.286322	-2.988900	3.680400	-10.999000	24.637944	0.001038	20.892936
907.286454	-3.010200	3.677800	-11.070000	24.606804	0.001037	20.878761
908.287942	-3.012900	3.678300	-11.082000	24.625981	0.001038	20.882354
909.289944	-2.990000	3.679200	-10.999000	24.628343	0.001039	20.875717
910.292943	-2.999500	3.678400	-11.033000	24.633191	0.001036	20.882003
911.292892	-3.012600	3.678000	-11.080000	24.645726	0.001036	20.894580
912.293013	-2.996300	3.677500	-11.018000	24.644629	0.001035	20.884946
913.296134	-2.984200	3.677400	-10.973000	24.632743	0.001036	20.899096
914.289115	-3.004000	3.676600	-11.043000	24.602177	0.001037	20.890237
915.291989	-3.012100	3.675600	-11.070000	24.595908	0.001034	20.882051
916.288109	-2.993600	3.676600	-11.005000	24.590536	0.001036	20.879981
917.294110	-2.994900	3.675900	-11.008000	24.614511	0.001033	20.886018
918.290110	-3.001100	3.676300	-11.032000	24.619263	0.001032	20.875140
919.293117	-2.998800	3.674300	-11.018000	24.659104	0.001033	20.882875
920.292127	-3.012000	3.674500	-11.066000	24.651817	0.001032	20.868925
921.290730	-3.007100	3.675500	-11.052000	24.667086	0.001032	20.876660
922.292984	-3.022100	3.673800	-11.101000	24.639779	0.001033	20.899043
923.293988	-2.996200	3.674100	-11.007000	24.662883	0.001031	20.856323
924.297094	-2.971400	3.674700	-10.916000	24.661540	0.001031	20.880104
925.295140	-3.010200	3.673500	-11.057000	24.683499	0.001030	20.874638
926.295879	-3.004300	3.672900	-11.033000	24.661589	0.001029	20.871145
927.299728	-2.982000	3.674400	-10.956000	24.638188	0.001031	20.875638
928.293730	-3.019800	3.671800	-11.086000	24.639430	0.001034	20.868824
929.294687	-3.007500	3.672000	-11.043000	24.635278	0.001032	20.845693
930.296827	-2.987300	3.673800	-10.974000	24.605035	0.001029	20.862762
931.292416	-3.008300	3.671200	-11.043000	24.578299	0.001030	20.868177
932.293426	-3.004200	3.671900	-11.030000	24.605359	0.001030	20.872569
933.293419	-2.995400	3.672200	-10.998000	24.613070	0.001027	20.863237
934.295424	-2.986400	3.671500	-10.964000	24.608644	0.001029	20.861641
935.294415	-2.990900	3.671000	-10.977000	24.591009	0.001028	20.893730
936.292511	-2.979000	3.671100	-10.935000	24.624411	0.001027	20.859444
937.299507	-3.009000	3.669200	-11.039000	24.610633	0.001027	20.875964
938.295514	-2.985500	3.670400	-10.957000	24.642667	0.001028	20.890562
939.295379	-2.980700	3.670200	-10.938000	24.623519	0.001026	20.850014
940.296504	-2.983300	3.670600	-10.949000	24.630381	0.001023	20.875864
941.295482	-3.011300	3.668100	-11.045000	24.613845	0.001028	20.859273
942.298483	-3.011700	3.668400	-11.048000	24.633467	0.001025	20.859048
943.297486	-3.008900	3.669700	-11.041000	24.617152	0.001025	20.853110
944.297486	-3.019700	3.667100	-11.073000	24.637224	0.001025	20.864240
945.298627	-3.004400	3.668800	-11.022000	24.668312	0.001025	20.871726
946.299850	-3.008000	3.668400	-11.034000	24.678486	0.001022	20.849694
947.299850	-3.013500	3.667100	-11.049000	24.673164	0.001025	20.845303
948.298851	-3.010600	3.666700	-11.038000	24.674606	0.001022	20.874724
949.298312	-2.976300	3.670000	-10.922000	24.709100	0.001025	20.840586
950.302059	-3.005900	3.668200	-11.025000	24.712509	0.001022	20.858706
951.303061	-3.001400	3.667400	-11.006000	24.732404	0.001022	20.860652
952.300059	-3.009700	3.667400	-11.036000	24.720768	0.001021	20.857985
953.299062	-3.013200	3.666300	-11.045000	24.716939	0.001022	20.858409
954.298136	-3.018400	3.665800	-11.062000	24.693736	0.001020	20.870687
955.304365	-3.024200	3.666900	-11.087000	24.664714	0.001019	20.850574
956.302369	-3.021400	3.665300	-11.074000	24.656085	0.001020	20.847605
957.301366	-3.012300	3.664000	-11.035000	24.678070	0.001019	20.855916
958.302012	-3.018300	3.664400	-11.059000	24.698861	0.001020	20.852123
959.300586	-3.031600	3.664900	-11.108000	24.667303	0.001019	20.856965
960.301414	-3.011000	3.663800	-11.030000	24.662530	0.001019	20.855494
961.302775	-3.001300	3.665100	-10.999000	24.640891	0.001017	20.857489
962.305250	-3.003000	3.664100	-11.002000	24.640422	0.001016	20.856070
963.313759	-2.993200	3.663200	-10.964000	24.615177	0.001018	20.858714
964.303518	-2.997700	3.664100	-10.982000	24.613439	0.001017	20.861711
965.302451	-3.005500	3.662800	-11.007000	24.618561	0.001017	20.853101
966.316451	-3.013900	3.663200	-11.039000	24.645545	0.001017	20.838452
967.309039	-2.994400	3.662600	-10.966000	24.658008	0.001016	20.852379
968.302488	-3.000200	3.663100	-10.989000	24.674199	0.001015	20.840178
969.304819	-2.992400	3.662500	-10.958000	24.659425	0.001016	20.855698
970.304822	-3.018400	3.661900	-11.051000	24.636098	0.001014	20.821860
971.307829	-3.038200	3.661100	-11.122000	24.652463	0.001013	20.850609
972.305980	-3.032900	3.660500	-11.100000	24.646918	0.001013	20.855950
973.306029	-2.983900	3.662300	-10.927000	24.655052	0.001013	20.840879
974.306032	-2.989000	3.662300	-10.946000	24.676615	0.001014	20.853032
975.305144	-2.979700	3.661300	-10.908000	24.701461	0.001014	20.840034
976.305141	-2.991200	3.660100	-10.947000	24.725334	0.001012	20.840756
977.304724	-2.983700	3.660000	-10.920000	24.741475	0.001012	20.830402
978.321715	-2.994800	3.660600	-10.962000	24.727127	0.001010	20.843977
979.306716	-3.003700	3.659900	-10.992000	24.691068	0.001007	20.842880
980.307716	-3.020200	3.658300	-11.048000	24.672540	0.001011	20.832349
981.308719	-2.985600	3.659500	-10.924000	24.659586	0.001008	20.829307
982.306536	-3.003700	3.659100	-10.989000	24.677616	0.001010	20.830330
983.309569	-3.006700	3.658100	-10.998000	24.681398	0.001011	20.840289
984.310565	-3.004400	3.657900	-10.989000	24.660308	0.001011	20.832403
985.307593	-2.986100	3.658400	-10.923000	24.661851	0.001011	20.821149
986.308157	-3.020500	3.657600	-11.047000	24.660483	0.001011	20.836845
987.309144	-2.982600	3.657100	-10.906000	24.656878	0.001009	20.837021
988.308598	-2.992100	3.657100	-10.941000	24.617333	0.001010	20.831007
989.311596	-3.002600	3.657500	-10.980000	24.644717	0.001009	20.830509
990.311788	-2.999300	3.658000	-10.970000	24.649370	0.001007	20.807677
991.310458	-3.022000	3.657100	-11.050000	24.674364	0.001009	20.828016
992.319465	-3.008600	3.656400	-10.999000	24.686301	0.001008	20.816761
993.310469	-2.997000	3.656100	-10.956000	24.691948	0.001008	20.824798
994.314469	-2.991500	3.657300	-10.939000	24.690157	0.001006	20.810199
995.312811	-3.010200	3.655000	-11.000000	24.692745	0.001006	20.819907
996.313812	-3.006900	3.655700	-10.991000	24.706646	0.001006	20.812046
997.315691	-3.037100	3.652900	-11.093000	24.736314	0.001007	20.815265
998.312998	-3.006800	3.654300	-10.987000	24.729251	0.001007	20.820032
999.313035	-2.994400	3.655300	-10.944000	24.702543	0.001007	20.800343
1000.315348	-2.983000	3.654700	-10.901000	24.721419	0.001005	20.832560
1001.313976	-2.999400	3.653300	-10.957000	24.727113	0.001005	20.831162
1002.313645	-3.027800	3.651400	-11.054000	24.742009	0.001007	20.805807
1003.314654	-3.011100	3.652500	-10.996000	24.731665	0.001005	20.828618
1004.315174	-3.017400	3.653100	-11.022000	24.730844	0.001006	20.799819
1005.316175	-3.034100	3.651900	-11.079000	24.707716	0.001003	20.814543
1006.314681	-2.994400	3.652000	-10.935000	24.696001	0.001005	20.808476
1007.321146	-2.993400	3.653000	-10.933000	24.699832	0.001003	20.824649
1008.320148	-3.002300	3.652300	-10.964000	24.697693	0.001005	20.819657
1009.321677	-2.985100	3.652400	-10.901000	24.701597	0.001004	20.806031
1010.322226	-3.014500	3.650400	-11.002000	24.711418	0.001004	20.820154
1011.320487	-2.989100	3.651300	-10.912000	24.708384	0.001004	20.800040
1012.318035	-3.000600	3.651400	-10.956000	24.685777	0.001003	20.815761
1013.320034	-2.999600	3.650800	-10.951000	24.652998	0.001002	20.831232
1014.321037	-2.996800	3.650100	-10.938000	24.682419	0.001002	20.809072
1015.319034	-2.995200	3.649200	-10.928000	24.685999	0.001000	20.817880
1016.321496	-3.005300	3.650300	-10.969000	24.716013	0.001000	20.806747
1017.323499	-3.002100	3.651100	-10.960000	24.731904	0.000999	20.819375
1018.321502	-2.992400	3.649400	-10.919000	24.715417	0.000998	20.828434
1019.324500	-3.010000	3.649900	-10.985000	24.721209	0.000997	20.794892
1020.322160	-3.014400	3.648700	-10.998000	24.731204	0.001000	20.801129
1021.323811	-3.008000	3.649800	-10.977000	24.739111	0.000999	20.793891
1022.323209	-3.010900	3.648500	-10.985000	24.749529	0.001000	20.797233
1023.324209	-2.994200	3.648900	-10.925000	24.753332	0.000998	20.802946
1024.324117	-2.996000	3.648900	-10.931000	24.764296	0.000998	20.804466
1025.322667	-3.014300	3.647600	-10.993000	24.749225	0.001000	20.802618
1026.323665	-3.019800	3.647300	-11.012000	24.725947	0.000996	20.793009
1027.327665	-2.991000	3.647600	-10.909000	24.693244	0.000997	20.800968
1028.325670	-2.991100	3.647500	-10.908000	24.685185	0.000997	20.822278
1029.326665	-2.990500	3.647500	-10.907000	24.698536	0.000996	20.809124
1030.327227	-2.983900	3.647200	-10.881000	24.677618	0.000997	20.803780
1031.325455	-2.985100	3.646700	-10.885000	24.673664	0.000998	20.827314
1032.327455	-3.006100	3.645800	-10.959000	24.695745	0.000995	20.807272
1033.325460	-3.009400	3.644600	-10.967000	24.680126	0.000994	20.826211
1034.334508	-2.999600	3.645000	-10.932000	24.704770	0.000995	20.814905
1035.326385	-3.026400	3.644600	-11.028000	24.694621	0.000993	20.814678
1036.328276	-3.009200	3.644600	-10.966000	24.709440	0.000993	20.820066
1037.328276	-2.992200	3.644200	-10.903000	24.742164	0.000993	20.804066
1038.332771	-3.003800	3.643700	-10.945000	24.756089	0.000994	20.804764
1039.336729	-2.995400	3.645500	-10.919000	24.770782	0.000993	20.809078
1040.327341	-2.993400	3.644700	-10.909000	24.750737	0.000992	20.803187
1041.328605	-2.977000	3.643200	-10.845000	24.770330	0.000992	20.803409
1042.333609	-3.018100	3.643100	-10.995000	24.777615	0.000991	20.807875
1043.331581	-2.996200	3.644600	-10.919000	24.790095	0.000990	20.816132
1044.330670	-3.012300	3.641900	-10.969000	24.780221	0.000991	20.821870
1045.330704	-3.019100	3.641900	-10.994000	24.760648	0.000991	20.816926
1046.331708	-2.991200	3.642100	-10.893000	24.758235	0.000991	20.817823
1047.333843	-3.012900	3.642600	-10.973000	24.743063	0.000991	20.809236
1048.336781	-3.010600	3.640200	-10.958000	24.736395	0.000988	20.819140
1049.331437	-3.013400	3.642000	-10.973000	24.739229	0.000987	20.802070
1050.333879	-2.979300	3.641100	-10.846000	24.757978	0.000988	20.804764
1051.332773	-2.984900	3.640300	-10.866000	24.745418	0.000987	20.813970
1052.333766	-3.010700	3.640900	-10.959000	24.773118	0.000987	20.801939
1053.332767	-3.004100	3.639200	-10.931000	24.782118	0.000986	20.793428
1054.335554	-2.970900	3.640200	-10.813000	24.808849	0.000988	20.806504
1055.334555	-2.986400	3.638800	-10.865000	24.850574	0.000987	20.807127
1056.334551	-3.010700	3.638400	-10.952000	24.867133	0.000985	20.802409
1057.334543	-3.003700	3.637800	-10.925000	24.875858	0.000986	20.786511
1058.335706	-3.008300	3.637800	-10.941000	24.906564	0.000987	20.824915
1059.338223	-3.013600	3.637800	-10.961000	24.900696	0.000984	20.801482
1060.335227	-3.015900	3.637800	-10.970000	24.905445	0.000984	20.801032
1061.339458	-3.014200	3.638000	-10.965000	24.881599	0.000984	20.806497
1062.339493	-3.018100	3.636800	-10.976000	24.901986	0.000982	20.796139
1063.338926	-3.013900	3.636900	-10.960000	24.941121	0.000982	20.800330
1064.336547	-2.993700	3.636800	-10.886000	24.937092	0.000982	20.800554
1065.336548	-3.031300	3.636900	-11.024000	24.939477	0.000980	20.790146
1066.338659	-3.013800	3.636300	-10.958000	24.946091	0.000981	20.802000
1067.337743	-3.003000	3.636400	-10.919000	24.920456	0.000980	20.805667
1068.336901	-3.005500	3.635800	-10.925000	24.916776	0.000980	20.782059
1069.337677	-3.013300	3.635500	-10.953000	24.935746	0.000979	20.804893
1070.338004	-3.011600	3.634500	-10.944000	24.895964	0.000978	20.782034
1071.341578	-3.012300	3.634600	-10.948000	24.925081	0.000977	20.808413
1072.337817	-2.988800	3.635600	-10.865000	24.936642	0.000978	20.795835
1073.336662	-2.996000	3.634200	-10.887000	24.940247	0.000976	20.807040
1074.338666	-2.997100	3.633800	-10.890000	24.936617	0.000976	20.800077
1075.340749	-3.006000	3.633700	-10.921000	24.931719	0.000975	20.783307
1076.337471	-3.016500	3.632900	-10.957000	24.938657	0.000976	20.793115
1077.338101	-3.005600	3.633000	-10.918000	24.971475	0.000977	20.779115
1078.339102	-3.025300	3.631400	-10.985000	24.942063	0.000976	20.809336
1079.339913	-3.014300	3.631300	-10.944000	24.931148	0.000975	20.792691
1080.342910	-3.020700	3.633000	-10.974000	24.931670	0.000975	20.793689
1081.351752	-2.991500	3.633500	-10.868000	24.903599	0.000974	20.792542
1082.339899	-3.006500	3.631500	-10.917000	24.880624	0.000974	20.801725
1083.340901	-3.030000	3.631500	-11.002000	24.880947	0.000974	20.796360
1084.340904	-2.999700	3.632300	-10.895000	24.882863	0.000974	20.792593
1085.344547	-3.011300	3.632200	-10.937000	24.892659	0.000975	20.810011
1086.343750	-3.014300	3.631300	-10.945000	24.923938	0.000972	20.776445
1087.339287	-2.998900	3.631100	-10.888000	24.930527	0.000970	20.800128
1088.341642	-3.006500	3.629300	-10.910000	24.959368	0.000971	20.793515
1089.342643	-3.011300	3.628300	-10.925000	24.950716	0.000971	20.800004
1090.343067	-3.018700	3.629300	-10.954000	24.967549	0.000972	20.806942
1091.344173	-3.005100	3.628800	-10.903000	24.951710	0.000970	20.788200
1092.343502	-3.026500	3.628100	-10.979000	24.928488	0.000971	20.788125
1093.343503	-3.017400	3.628600	-10.948000	24.932740	0.000970	20.778642
1094.343504	-3.010600	3.629100	-10.925000	24.917225	0.000971	20.775397
1095.358040	-2.994600	3.628000	-10.864000	24.912102	0.000969	20.772153
1096.342259	-3.027900	3.627000	-10.980000	24.928810	0.000968	20.810259
1097.346260	-3.014000	3.626800	-10.930000	24.930005	0.000968	20.787276
1098.343267	-2.982000	3.629000	-10.821000	24.926349	0.000968	20.767012
1099.346262	-3.027500	3.626600	-10.978000	24.951413	0.000969	20.791694
1100.343828	-3.019200	3.625300	-10.945000	24.958126	0.000968	20.786104
1101.358574	-2.997200	3.627200	-10.871000	24.950045	0.000968	20.791744
1102.350573	-2.993000	3.625900	-10.852000	24.956462	0.000967	20.790124
1103.346578	-3.007900	3.625000	-10.903000	24.965710	0.000966	20.752939
1104.350042	-2.985400	3.626400	-10.825000	24.978589	0.000965	20.786729
1105.345143	-2.983100	3.626300	-10.816000	24.995320	0.000967	20.773177
1106.345767	-2.996000	3.625500	-10.861000	24.996762	0.000965	20.797384
1107.346766	-2.991600	3.625600	-10.845000	24.989677	0.000963	20.776521
1108.350790	-2.997100	3.624500	-10.862000	25.016478	0.000965	20.785880
1109.350465	-2.980000	3.625300	-10.803000	25.007802	0.000964	20.788077
1110.348938	-3.008600	3.623400	-10.901000	25.044174	0.000965	20.782387
1111.347551	-2.990900	3.623800	-10.838000	25.018319	0.000963	20.788202
1112.348552	-3.005200	3.624300	-10.891000	25.006510	0.000963	20.787254
1113.365552	-2.992700	3.624400	-10.846000	25.024360	0.000961	20.795688
1114.353520	-3.005800	3.623700	-10.891000	25.048501	0.000961	20.800481
1115.362109	-2.991000	3.625100	-10.840000	25.042932	0.000961	20.779717
1116.349109	-3.006200	3.623300	-10.892000	25.077587	0.000959	20.787952
1117.349955	-3.031900	3.621400	-10.979000	25.081093	0.000959	20.781989
1118.349532	-3.017900	3.620900	-10.926000	25.093673	0.000960	20.791772
1119.349525	-2.991400	3.623000	-10.837000	25.085468	0.000958	20.800131
1120.354631	-2.986400	3.623300	-10.820000	25.092703	0.000958	20.785109
1121.349635	-3.010300	3.622100	-10.902000	25.106575	0.000959	20.783860
1122.380634	-2.977700	3.622300	-10.785000	25.088999	0.000959	20.776174
1123.352475	-3.011500	3.620800	-10.902000	25.069782	0.000958	20.799557
1124.352586	-2.990900	3.620900	-10.828000	25.027618	0.000958	20.794217
1125.351502	-3.003900	3.620700	-10.875000	25.003702	0.000957	20.801979
1126.352510	-3.026900	3.617600	-10.948000	24.981550	0.000957	20.783063
1127.353596	-3.006800	3.618400	-10.879000	25.002957	0.000956	20.783688
1128.354503	-3.010000	3.618100	-10.890000	25.007058	0.000956	20.772157
1129.356897	-3.005100	3.617900	-10.871000	25.017949	0.000954	20.789253
1130.355814	-3.009700	3.618000	-10.889000	25.015562	0.000956	20.786857
1131.357814	-3.009700	3.619100	-10.892000	25.028589	0.000956	20.796140
1132.356301	-3.006100	3.617700	-10.874000	24.996590	0.000954	20.782513
1133.356679	-3.004100	3.616400	-10.863000	24.973421	0.000954	20.793870
1134.363165	-2.981500	3.616800	-10.782000	24.956713	0.000954	20.764297
1135.360164	-2.995200	3.617800	-10.836000	24.964022	0.000952	20.797238
1136.358164	-2.960000	3.618900	-10.711000	24.958825	0.000951	20.786806
1137.359067	-3.004800	3.617600	-10.869000	24.976527	0.000952	20.786082
1138.359934	-2.986100	3.616600	-10.798000	25.011756	0.000951	20.790149
1139.357191	-2.997100	3.616000	-10.836000	25.011409	0.000951	20.775576
1140.361194	-2.994900	3.617700	-10.834000	25.016331	0.000950	20.793793
1141.359292	-3.010000	3.615500	-10.881000	25.003950	0.000947	20.798435
1142.363678	-2.994100	3.615000	-10.823000	24.992213	0.000948	20.783335
1143.358478	-3.000700	3.615800	-10.849000	24.980154	0.000948	20.778343
1144.359139	-3.003600	3.615200	-10.858000	24.981125	0.000947	20.802551
1145.362141	-2.980900	3.614900	-10.774000	24.990522	0.000947	20.775948
1146.361256	-3.000800	3.612600	-10.839000	25.007155	0.000946	20.816824
1147.365254	-2.996400	3.613700	-10.825000	25.028884	0.000945	20.804496
1148.362396	-3.001000	3.613000	-10.842000	25.021973	0.000946	20.794241
1149.360072	-3.007700	3.612600	-10.864000	25.031270	0.000942	20.791245
1150.361073	-2.984800	3.613700	-10.785000	25.048249	0.000943	20.802598
1151.363337	-3.017900	3.612100	-10.899000	25.034004	0.000945	20.823860
1152.359533	-3.000000	3.612700	-10.837000	25.015481	0.000943	20.812854
1153.361682	-3.029100	3.610600	-10.935000	24.999521	0.000942	20.789722
1154.360627	-2.997500	3.610900	-10.824000	25.020157	0.000940	20.783882
1155.360626	-2.970500	3.612900	-10.730000	25.023463	0.000942	20.778667
1156.362662	-3.012400	3.610900	-10.876000	25.047030	0.000941	20.790944
1157.362771	-2.995100	3.611000	-10.815000	25.044147	0.000942	20.800377
1158.373579	-3.005500	3.611500	-10.854000	25.058169	0.000942	20.811607
1159.363579	-3.009300	3.610500	-10.864000	25.083723	0.000941	20.804069
1160.365372	-2.999900	3.608700	-10.825000	25.072934	0.000941	20.788971
1161.365775	-3.016000	3.608800	-10.883000	25.078701	0.000939	20.800924
1162.366752	-2.989000	3.610600	-10.790000	25.068458	0.000940	20.811031
1163.364365	-2.978000	3.610000	-10.750000	25.022415	0.000938	20.799426
1164.365571	-3.015700	3.608400	-10.880000	25.043001	0.000938	20.811555
1165.366648	-2.972900	3.609000	-10.728000	25.054957	0.000938	20.808858
1166.364561	-2.995600	3.608600	-10.809000	25.024676	0.000938	20.786049
1167.374269	-2.996300	3.608300	-10.810000	24.985245	0.000937	20.817591
1168.366271	-3.009500	3.608100	-10.857000	24.996557	0.000935	20.795282
1169.369272	-3.004800	3.607300	-10.839000	24.995363	0.000937	20.823954
1170.368274	-2.985300	3.606900	-10.767000	24.987506	0.000935	20.804214
1171.368004	-2.989500	3.606600	-10.780000	25.002497	0.000935	20.805511
1172.372253	-2.966900	3.607600	-10.702000	25.008562	0.000935	20.795478
1173.368261	-2.997500	3.605200	-10.806000	25.015996	0.000936	20.802940
1174.383156	-3.014700	3.604400	-10.863000	25.013261	0.000932	20.813945
1175.372652	-2.996900	3.606100	-10.806000	25.007320	0.000934	20.804662
1176.367358	-3.013000	3.604900	-10.860000	25.009631	0.000932	20.795128
1177.367452	-3.010300	3.605400	-10.852000	25.004459	0.000934	20.807007
1178.371480	-2.990700	3.603900	-10.776000	25.016244	0.000934	20.816939
1179.370482	-3.005900	3.602900	-10.829000	25.031583	0.000932	20.808154
1180.381040	-2.987000	3.605400	-10.766000	25.035038	0.000931	20.823950
1181.372581	-2.991600	3.604500	-10.782000	25.036032	0.000933	20.788439
1182.369799	-2.989700	3.602800	-10.769000	25.030215	0.000930	20.810101
1183.372797	-2.988800	3.603500	-10.769000	25.021638	0.000931	20.812871
1184.371799	-2.989800	3.602400	-10.770000	25.023079	0.000930	20.824748
1185.375818	-3.007600	3.602200	-10.833000	25.031010	0.000929	20.803786
1186.371932	-3.019300	3.601200	-10.872000	25.032503	0.000929	20.831362
1187.372021	-3.006600	3.602700	-10.831000	25.041129	0.000928	20.802090
1188.372118	-3.002900	3.600500	-10.811000	25.051396	0.000928	20.825197
1189.374122	-3.003700	3.600500	-10.814000	25.092366	0.000927	20.815590
1190.375827	-3.008200	3.599500	-10.827000	25.080483	0.000927	20.824524
1191.375246	-3.004600	3.599800	-10.815000	25.093732	0.000924	20.821229
1192.372221	-2.999600	3.600600	-10.800000	25.081427	0.000926	20.816936
1193.372224	-3.018700	3.599600	-10.865000	25.092987	0.000924	20.817636
1194.376222	-2.980400	3.598900	-10.725000	25.087219	0.000925	20.813268
1195.373440	-3.008900	3.598700	-10.828000	25.096292	0.000923	20.810522
1196.374460	-2.978200	3.599200	-10.719000	25.055472	0.000923	20.809849
1197.373460	-2.998400	3.598700	-10.790000	25.027728	0.000922	20.818035
1198.375573	-2.965800	3.601200	-10.679000	25.029170	0.000922	20.819008
1199.381726	-3.000100	3.598200	-10.794000	25.031930	0.000923	20.832684
1200.373767	-3.017300	3.597700	-10.854000	25.067008	0.000921	20.813368
1201.375666	-2.991100	3.598400	-10.762000	25.083217	0.000920	20.794078
1202.375634	-3.014500	3.595800	-10.838000	25.125453	0.000920	20.831260
1203.378640	-2.992500	3.596700	-10.762000	25.153768	0.000920	20.828392
1204.375484	-3.018800	3.596800	-10.857000	25.140568	0.000921	20.799968
1205.380659	-3.009200	3.596000	-10.819000	25.167191	0.000919	20.839022
1206.374663	-2.986300	3.597600	-10.742000	25.162717	0.000920	20.807505
1207.376660	-2.995200	3.596300	-10.771000	25.189041	0.000919	20.832508
1208.375661	-3.000500	3.593400	-10.781000	25.171939	0.000920	20.836676
1209.376795	-2.977200	3.596900	-10.708000	25.169404	0.000916	20.828916
1210.379439	-3.015500	3.594700	-10.838000	25.177757	0.000917	20.828292
1211.376650	-2.991100	3.595200	-10.752000	25.136641	0.000917	20.818785
1212.382652	-2.986100	3.593700	-10.730000	25.119837	0.000916	20.835106
1213.379692	-2.989800	3.593400	-10.742000	25.126177	0.000916	20.795004
1214.376688	-3.018100	3.592600	-10.841000	25.105893	0.000918	20.831065
1215.379411	-2.996000	3.592000	-10.761000	25.113673	0.000913	20.832237
1216.378780	-3.015600	3.592000	-10.830000	25.133511	0.000916	20.828918
1217.378782	-3.010600	3.590300	-10.808000	25.149918	0.000914	20.844441
1218.380653	-3.009600	3.590500	-10.805000	25.184621	0.000913	20.840873
1219.389670	-3.011300	3.590000	-10.809000	25.172913	0.000913	20.810153
1220.380467	-2.988900	3.591200	-10.732000	25.170329	0.000914	20.838379
1221.380470	-3.000600	3.591500	-10.776000	25.167966	0.000913	20.829843
1222.380468	-3.016200	3.590000	-10.827000	25.190167	0.000912	20.833639
1223.382473	-3.008700	3.590200	-10.801000	25.172095	0.000911	20.841574
1224.382453	-3.017000	3.590200	-10.831000	25.160536	0.000912	20.829022
1225.379614	-2.975900	3.591100	-10.686000	25.118351	0.000912	20.832666
1226.385619	-2.998900	3.591400	-10.767000	25.111540	0.000910	20.835312
1227.381616	-2.997400	3.589200	-10.757000	25.108559	0.000907	20.829000
1228.385619	-2.979900	3.589500	-10.695000	25.116415	0.000907	20.834515
1229.384300	-3.009200	3.588400	-10.797000	25.142171	0.000908	20.847095
1230.383364	-3.006000	3.588700	-10.787000	25.172125	0.000907	20.856302
1231.384368	-3.022800	3.587700	-10.843000	25.168198	0.000908	20.855679
1232.387962	-2.978300	3.589200	-10.689000	25.186021	0.000906	20.854132
1233.384284	-2.978400	3.589300	-10.689000	25.174364	0.000907	20.861869
1234.394265	-2.998600	3.587100	-10.755000	25.217343	0.000907	20.848119
1235.385273	-2.977500	3.587000	-10.679000	25.201509	0.000905	20.840758
1236.385273	-3.018900	3.586100	-10.824000	25.187938	0.000904	20.849892
1237.388421	-3.018900	3.584900	-10.821000	25.180431	0.000906	20.822916
1238.385822	-3.003000	3.584700	-10.764000	25.181699	0.000903	20.837465
1239.397808	-3.010000	3.586000	-10.793000	25.190772	0.000905	20.876918
1240.386809	-3.011200	3.584300	-10.792000	25.202531	0.000901	20.838465
1241.386810	-3.010000	3.584100	-10.787000	25.226444	0.000906	20.827860
1242.388809	-2.992200	3.585800	-10.729000	25.240886	0.000903	20.841411
1243.388103	-3.024100	3.583400	-10.835000	25.257763	0.000903	20.848871
1244.388259	-3.008200	3.583200	-10.778000	25.225424	0.000902	20.869981
1245.389208	-3.013800	3.583400	-10.798000	25.206011	0.000900	20.856656
1246.387208	-3.020500	3.583000	-10.822000	25.186747	0.000900	20.841585
1247.388854	-2.998600	3.582400	-10.741000	25.200046	0.000901	20.854935
1248.392829	-2.995900	3.583800	-10.735000	25.213071	0.000900	20.861848
1249.386751	-2.988500	3.582800	-10.706000	25.184883	0.000899	20.849670
1250.387751	-3.023900	3.582300	-10.831000	25.172132	0.000898	20.856783
1251.387789	-2.974400	3.583900	-10.658000	25.129200	0.000898	20.850194
1252.388787	-2.988700	3.582100	-10.704000	25.167084	0.000899	20.857405
1253.396467	-2.982700	3.581700	-10.682000	25.168278	0.000898	20.843906
1254.390583	-3.003300	3.580300	-10.753000	25.177846	0.000900	20.852089
1255.390584	-2.988200	3.580900	-10.698000	25.188684	0.000899	20.855857
1256.389587	-2.998900	3.580300	-10.736000	25.189779	0.000899	20.851266
1257.389992	-2.993800	3.579000	-10.713000	25.186273	0.000898	20.846325
1258.392993	-3.003000	3.578900	-10.746000	25.201187	0.000897	20.861296
1259.391738	-2.988300	3.578500	-10.692000	25.209339	0.000897	20.866161
1260.388767	-2.976900	3.580100	-10.657000	25.227758	0.000896	20.874695
1261.389768	-2.991900	3.580000	-10.710000	25.221443	0.000894	20.856503
1262.389334	-2.985000	3.579100	-10.682000	25.246796	0.000894	20.879584
1263.388699	-2.991700	3.579000	-10.706000	25.236455	0.000895	20.857824
1264.390110	-2.994700	3.576900	-10.711000	25.209560	0.000894	20.873021
1265.393110	-2.984200	3.577800	-10.675000	25.230488	0.000893	20.871746
1266.389111	-2.994900	3.577200	-10.712000	25.204711	0.000893	20.863885
1267.388109	-2.986900	3.576700	-10.682000	25.180548	0.000893	20.859068
1268.388752	-2.994700	3.576700	-10.710000	25.188975	0.000892	20.874640
1269.389761	-3.005200	3.575800	-10.745000	25.211345	0.000892	20.869597
1270.392761	-3.002700	3.575100	-10.734000	25.233715	0.000891	20.853177
1271.391882	-3.019900	3.575200	-10.795000	25.249972	0.000890	20.863334
1272.402067	-3.018700	3.574500	-10.790000	25.265034	0.000891	20.880825
1273.390949	-3.012800	3.575500	-10.771000	25.297222	0.000890	20.884219
1274.391950	-3.014500	3.574000	-10.771000	25.307164	0.000888	20.881873
1275.392950	-2.993500	3.574300	-10.699000	25.306665	0.000889	20.886588
1276.391717	-3.018500	3.574100	-10.785000	25.326970	0.000890	20.872363
1277.392240	-2.987300	3.574000	-10.676000	25.310516	0.000888	20.876231
1278.391718	-3.008800	3.575300	-10.756000	25.288742	0.000889	20.880447
1279.393718	-3.014900	3.572000	-10.768000	25.285436	0.000889	20.878550
1280.393717	-2.998800	3.574000	-10.716000	25.284715	0.000886	20.863128
1281.394719	-3.028000	3.571300	-10.813000	25.264755	0.000886	20.883864
1282.396070	-3.022200	3.572200	-10.795000	25.261226	0.000887	20.886484
1283.396673	-2.964200	3.573700	-10.590000	25.275838	0.000885	20.885034
1284.397673	-2.996900	3.572200	-10.704000	25.298953	0.000886	20.897809
1285.398677	-3.025000	3.571300	-10.802000	25.289110	0.000887	20.895039
1286.399672	-2.997300	3.571500	-10.703000	25.274047	0.000883	20.887977
1287.399561	-2.980700	3.573100	-10.649000	25.293706	0.000885	20.906291
1288.402028	-2.984200	3.572800	-10.661000	25.282195	0.000884	20.903743
1289.400032	-3.002600	3.571100	-10.722000	25.266959	0.000884	20.893663
1290.400027	-3.007800	3.569800	-10.737000	25.253759	0.000882	20.899376
1291.402172	-3.007000	3.570900	-10.736000	25.232009	0.000881	20.888919
1292.413162	-3.013700	3.569200	-10.755000	25.233898	0.000881	20.886074
1293.404165	-3.000100	3.569000	-10.706000	25.229446	0.000880	20.897725
1294.401198	-3.005600	3.569200	-10.726000	25.250648	0.000880	20.919009
1295.405196	-3.015300	3.568900	-10.759000	25.261262	0.000880	20.904063
1296.403100	-3.001200	3.568500	-10.709000	25.259122	0.000880	20.926569
1297.403175	-3.009900	3.568500	-10.740000	25.262280	0.000878	20.907455
1298.403175	-3.013200	3.567000	-10.747000	25.314349	0.000878	20.901414
1299.403303	-3.005600	3.567500	-10.721000	25.304282	0.000879	20.889884
1300.404163	-3.003200	3.566700	-10.710000	25.322772	0.000878	20.902285
1301.403677	-3.011500	3.566700	-10.740000	25.348694	0.000878	20.898441
1302.408680	-2.981700	3.566000	-10.632000	25.313524	0.000878	20.911016
1303.413681	-2.996800	3.565700	-10.684000	25.318171	0.000877	20.897665
1304.408966	-2.986800	3.566600	-10.651000	25.302586	0.000878	20.924214
1305.407608	-3.016700	3.565300	-10.754000	25.321573	0.000874	20.924312
1306.404968	-2.994500	3.565500	-10.676000	25.291324	0.000875	20.905322
1307.405836	-2.994800	3.564500	-10.674000	25.307876	0.000874	20.917198
1308.408840	-3.029000	3.564100	-10.795000	25.345802	0.000875	20.914976
1309.405848	-3.007400	3.564500	-10.719000	25.349206	0.000872	20.937831
1310.405352	-3.026900	3.564300	-10.787000	25.349329	0.000872	20.923257
1311.409352	-3.007200	3.564100	-10.717000	25.330015	0.000871	20.938477
1312.407352	-3.020000	3.563000	-10.760000	25.327229	0.000871	20.919560
1313.410355	-3.020700	3.562300	-10.760000	25.315945	0.000871	20.925299
1314.409477	-2.997600	3.562500	-10.678000	25.299713	0.000872	20.941716
1315.410476	-3.007000	3.561800	-10.709000	25.290740	0.000869	20.916589
1316.408717	-3.004100	3.561600	-10.698000	25.295759	0.000869	20.945332
1317.409240	-2.989200	3.562400	-10.646000	25.344747	0.000869	20.937621
1318.410346	-3.004000	3.561500	-10.698000	25.338608	0.000868	20.937147
1319.410507	-3.023900	3.561500	-10.768000	25.360230	0.000868	20.932305
1320.409953	-2.987600	3.560900	-10.638000	25.375364	0.000866	20.951767
1321.410166	-3.026000	3.561100	-10.774000	25.382620	0.000869	20.955258
1322.412469	-3.028900	3.558500	-10.777000	25.339249	0.000867	20.950591
1323.412468	-3.014900	3.559600	-10.730000	25.308230	0.000865	20.952637
1324.418815	-3.003100	3.560200	-10.691000	25.303185	0.000865	20.945202
1325.414890	-2.996000	3.559600	-10.662000	25.290607	0.000865	20.942530
1326.414580	-2.996900	3.558600	-10.662000	25.290904	0.000863	20.953733
1327.415583	-2.998100	3.559200	-10.669000	25.277879	0.000864	20.948243
1328.416579	-3.002000	3.558700	-10.682000	25.252277	0.000863	20.935816
1329.419795	-2.984900	3.558700	-10.622000	25.210218	0.000861	20.931049
1330.415598	-3.012100	3.556900	-10.713000	25.165524	0.000861	20.944498
1331.418340	-3.000900	3.557200	-10.674000	25.179817	0.000859	20.970697
1332.417390	-3.005200	3.557600	-10.691000	25.225405	0.000860	20.923537
1333.419394	-2.988000	3.558000	-10.630000	25.231519	0.000859	20.931572
1334.433762	-2.998600	3.555400	-10.660000	25.277926	0.000858	20.935489
1335.430376	-2.994700	3.556900	-10.651000	25.295970	0.000859	20.933692
1336.419374	-2.979100	3.557700	-10.598000	25.308870	0.000857	20.945694
1337.421373	-2.992800	3.555600	-10.640000	25.343816	0.000858	20.931472
1338.421374	-2.985900	3.555700	-10.617000	25.338994	0.000854	20.920941
1339.419376	-2.993300	3.556000	-10.642000	25.381271	0.000856	20.928303
1340.422220	-3.004300	3.554500	-10.678000	25.369913	0.000855	20.945819
1341.420222	-2.986300	3.555500	-10.617000	25.353981	0.000858	20.926032
1342.422223	-3.011100	3.553500	-10.698000	25.332259	0.000854	20.938358
1343.424422	-2.988500	3.554000	-10.621000	25.357187	0.000853	20.937311
1344.422427	-3.015400	3.553000	-10.713000	25.331910	0.000853	20.918571
1345.427890	-3.008400	3.554000	-10.691000	25.302757	0.000853	20.949038
1346.422889	-2.994700	3.553600	-10.641000	25.341183	0.000853	20.934991
1347.426890	-2.994100	3.554100	-10.639000	25.351347	0.000853	20.932395
1348.424640	-2.990100	3.552600	-10.622000	25.339069	0.000851	20.918172
1349.422411	-2.998000	3.551800	-10.646000	25.339767	0.000852	20.937363
1350.422644	-3.006000	3.551100	-10.674000	25.343171	0.000849	20.941254
1351.426643	-2.998000	3.551800	-10.647000	25.341904	0.000849	20.917225
1352.423658	-2.988700	3.550300	-10.610000	25.348690	0.000849	20.904126
1353.423608	-3.012100	3.551000	-10.696000	25.352320	0.000852	20.917252
1354.422878	-2.992400	3.550600	-10.623000	25.378416	0.000848	20.919747
1355.425880	-2.985000	3.551100	-10.598000	25.393426	0.000848	20.937188
1356.426878	-2.998700	3.548700	-10.641000	25.427899	0.000849	20.914434
1357.426920	-2.998400	3.549500	-10.642000	25.422656	0.000848	20.922444
1358.428926	-2.990500	3.549200	-10.613000	25.447234	0.000847	20.913461
1359.427682	-2.987100	3.549900	-10.603000	25.455337	0.000846	20.916381
1360.427831	-3.017800	3.547500	-10.704000	25.437419	0.000847	20.898390
1361.429831	-2.988600	3.550700	-10.611000	25.404267	0.000845	20.894973
1362.427670	-3.001300	3.548200	-10.648000	25.378096	0.000844	20.910418
1363.427084	-3.006900	3.546100	-10.662000	25.369075	0.000844	20.894724
1364.427836	-2.994600	3.547300	-10.622000	25.356623	0.000845	20.906401
1365.428842	-2.997100	3.548300	-10.634000	25.341165	0.000843	20.915061
1366.429839	-3.013700	3.546400	-10.686000	25.321902	0.000844	20.908523
1367.431927	-3.005300	3.546300	-10.656000	25.309028	0.000842	20.888012
1368.429214	-3.010200	3.546300	-10.673000	25.301473	0.000842	20.889435
1369.430205	-2.971300	3.546200	-10.535000	25.312036	0.000842	20.875386
1370.436206	-2.988800	3.545200	-10.595000	25.348847	0.000840	20.889586
1371.432213	-3.004500	3.545200	-10.651000	25.360429	0.000842	20.895051
1372.435877	-3.027700	3.543400	-10.727000	25.369972	0.000839	20.889934
1373.435524	-3.003500	3.543200	-10.641000	25.407650	0.000841	20.915912
1374.437783	-2.997500	3.544500	-10.623000	25.432528	0.000839	20.887790
1375.433249	-3.009300	3.543500	-10.663000	25.430939	0.000841	20.878135
1376.433249	-3.013500	3.544500	-10.680000	25.426143	0.000839	20.892758
1377.433247	-3.010300	3.542900	-10.665000	25.413618	0.000839	20.907680
1378.434967	-3.000200	3.542300	-10.626000	25.426516	0.000837	20.895503
1379.433155	-3.014000	3.544200	-10.681000	25.442076	0.000838	20.897377
1380.433159	-3.013300	3.541500	-10.671000	25.428879	0.000838	20.875118
1381.434160	-3.000800	3.542800	-10.631000	25.399703	0.000836	20.891339
1382.433158	-3.017500	3.540500	-10.682000	25.372464	0.000835	20.874420
1383.437451	-3.017300	3.542500	-10.687000	25.377610	0.000836	20.879113
1384.440126	-2.990100	3.542800	-10.593000	25.367794	0.000836	20.872102
1385.435128	-3.009200	3.540500	-10.653000	25.389292	0.000837	20.882782
1386.435132	-3.001000	3.541300	-10.626000	25.345277	0.000834	20.861821
1387.435641	-3.011200	3.539100	-10.656000	25.359942	0.000834	20.880812
1388.437368	-3.014100	3.539800	-10.667000	25.294101	0.000832	20.869233
1389.436884	-2.996800	3.539600	-10.606000	25.272652	0.000834	20.867138
1390.435886	-3.000800	3.539000	-10.619000	25.265643	0.000833	20.870058
1391.435884	-3.025300	3.538600	-10.705000	25.276754	0.000833	20.869834
1392.435534	-2.996100	3.539400	-10.603000	25.311951	0.000831	20.867715
1393.434554	-3.003100	3.538000	-10.623000	25.310957	0.000831	20.871458
1394.438999	-2.980400	3.538600	-10.545000	25.337430	0.000830	20.867693
1395.436002	-3.021800	3.537600	-10.689000	25.343990	0.000832	20.875702
1396.440001	-2.992300	3.537800	-10.584000	25.358381	0.000829	20.863600
1397.434230	-2.990900	3.536200	-10.576000	25.371828	0.000828	20.869040
1398.435068	-2.996000	3.537600	-10.598000	25.341779	0.000827	20.855465
1399.437070	-3.004700	3.536700	-10.625000	25.349186	0.000828	20.867643
1400.439070	-3.008500	3.535700	-10.636000	25.342028	0.000827	20.878947
1401.439105	-2.984400	3.536500	-10.553000	25.311557	0.000830	20.864474
1402.437835	-3.018400	3.534400	-10.666000	25.289759	0.000827	20.871038
1403.440711	-2.997100	3.534600	-10.593000	25.305245	0.000827	20.863352
1404.437708	-3.013200	3.535500	-10.652000	25.340563	0.000826	20.846184
1405.439705	-3.001800	3.533400	-10.605000	25.347324	0.000826	20.855817
1406.438232	-2.996400	3.534600	-10.590000	25.369369	0.000825	20.853296
1407.439481	-2.996700	3.534200	-10.590000	25.361415	0.000823	20.883240
1408.439435	-3.008300	3.532600	-10.627000	25.337854	0.000825	20.868118
1409.437434	-3.008600	3.533300	-10.629000	25.353214	0.000825	20.852248
1410.439411	-2.979600	3.533800	-10.528000	25.361517	0.000824	20.850628
1411.437749	-2.994000	3.532500	-10.575000	25.378514	0.000824	20.854892
1412.438991	-2.987100	3.534100	-10.554000	25.415819	0.000824	20.864375
1413.438534	-2.997300	3.531600	-10.584000	25.429091	0.000820	20.855417
1414.438536	-2.987300	3.531100	-10.548000	25.456699	0.000821	20.844735
1415.440536	-2.997800	3.531400	-10.585000	25.445667	0.000822	20.841243
1416.440530	-3.004200	3.531500	-10.608000	25.446212	0.000820	20.857437
1417.447595	-3.007000	3.529800	-10.613000	25.429561	0.000820	20.844984
1418.441596	-3.017100	3.530400	-10.650000	25.451803	0.000819	20.862577
1419.441601	-3.003700	3.530500	-10.603000	25.466987	0.000820	20.838471
1420.444144	-2.989000	3.529500	-10.547000	25.475113	0.000819	20.848053
1421.444669	-2.986500	3.529200	-10.539000	25.446459	0.000818	20.865745
1422.441773	-2.987400	3.527900	-10.538000	25.420265	0.000817	20.857461
1423.443771	-3.009200	3.527700	-10.614000	25.419346	0.000816	20.866968
1424.443773	-2.975800	3.529000	-10.501000	25.394170	0.000816	20.831733
1425.444997	-2.979500	3.527500	-10.509000	25.385024	0.000815	20.853842
1426.454939	-2.992600	3.527100	-10.553000	25.366657	0.000815	20.827814
1427.449054	-3.013100	3.526300	-10.624000	25.361562	0.000815	20.836923
1428.445121	-3.013600	3.527700	-10.631000	25.389745	0.000815	20.846729
1429.445124	-3.003400	3.525900	-10.589000	25.384128	0.000814	20.829710
1430.448012	-2.989700	3.528000	-10.547000	25.410571	0.000814	20.849623
1431.444093	-2.958500	3.527900	-10.435000	25.399337	0.000812	20.853516
1432.452826	-3.005300	3.526100	-10.596000	25.356316	0.000811	20.846828
1433.446547	-2.988000	3.525200	-10.532000	25.324702	0.000811	20.837371
1434.448553	-2.993700	3.525500	-10.553000	25.342548	0.000812	20.831107
1435.447913	-3.004000	3.525800	-10.590000	25.351892	0.000813	20.841912
1436.446110	-3.001400	3.525100	-10.579000	25.381268	0.000811	20.830632
1437.449318	-3.014200	3.523400	-10.620000	25.393445	0.000809	20.858505
1438.454437	-3.003700	3.522700	-10.579000	25.398316	0.000807	20.832103
1439.459421	-3.020800	3.521600	-10.637000	25.388301	0.000806	20.839115
1440.447595	-3.054400	3.521800	-10.756000	25.405946	0.000809	20.859677
1441.447673	-3.030400	3.520400	-10.668000	25.382286	0.000808	20.826912
1442.448985	-3.012000	3.522100	-10.607000	25.395208	0.000807	20.840835
1443.451986	-2.994300	3.522500	-10.546000	25.401422	0.000805	20.841385
1444.451016	-2.981600	3.523200	-10.503000	25.400998	0.000804	20.850442
1445.451762	-3.000200	3.521000	-10.564000	25.431692	0.000805	20.833849
1446.450802	-2.999200	3.520100	-10.557000	25.414692	0.000804	20.833847
1447.451805	-2.996800	3.520700	-10.550000	25.395406	0.000805	20.824439
1448.456809	-3.010800	3.521700	-10.602000	25.393866	0.000804	20.836168
1449.453290	-3.012100	3.520000	-10.602000	25.363444	0.000803	20.826485
1450.458902	-2.983300	3.520800	-10.503000	25.310505	0.000802	20.832599
1451.454675	-2.987400	3.520200	-10.516000	25.287589	0.000802	20.830454
1452.454238	-3.001400	3.519200	-10.560000	25.264075	0.000802	20.841933
1453.457337	-3.002000	3.519100	-10.564000	25.271333	0.000800	20.842107
1454.455334	-2.998900	3.519500	-10.553000	25.281946	0.000801	20.837115
1455.454960	-3.024500	3.518900	-10.641000	25.312967	0.000802	20.832226
1456.454803	-2.989500	3.518400	-10.518000	25.309262	0.000798	20.824239
1457.455277	-3.007200	3.515900	-10.572000	25.338938	0.000800	20.826535
1458.456278	-2.989200	3.517700	-10.514000	25.336825	0.000799	20.846698
1459.459573	-3.000800	3.516800	-10.552000	25.344108	0.000799	20.830303
1460.455270	-3.021200	3.515400	-10.618000	25.341597	0.000799	20.832523
1461.456750	-2.980400	3.517300	-10.481000	25.331257	0.000799	20.839211
1462.457754	-3.010500	3.514100	-10.579000	25.357702	0.000800	20.830203
1463.457750	-2.991800	3.514700	-10.514000	25.370328	0.000797	20.813483
1464.464118	-2.961900	3.516300	-10.414000	25.370900	0.000797	20.823065
1465.458734	-3.003900	3.515300	-10.559000	25.345920	0.000797	20.821692
1466.461414	-2.994300	3.515700	-10.526000	25.351661	0.000796	20.829353
1467.459417	-3.007600	3.513700	-10.567000	25.313361	0.000796	20.813656
1468.459418	-2.992300	3.513800	-10.513000	25.294347	0.000796	20.822066
1469.459418	-3.015900	3.513900	-10.596000	25.263873	0.000797	20.828454
1470.465189	-3.005100	3.512600	-10.555000	25.275356	0.000794	20.817698
1471.463587	-3.016200	3.512000	-10.592000	25.277543	0.000796	20.811359
1472.465589	-2.987100	3.512500	-10.491000	25.289075	0.000795	20.818670
1473.461235	-3.009700	3.510600	-10.564000	25.272025	0.000795	20.814827
1474.460042	-3.015300	3.510600	-10.584000	25.262976	0.000793	20.802898
1475.464829	-2.997100	3.511500	-10.523000	25.297104	0.000793	20.817248
1476.468833	-2.987200	3.512100	-10.490000	25.304062	0.000795	20.827079
1477.466832	-3.009400	3.509600	-10.560000	25.302719	0.000793	20.798230
1478.465841	-3.007400	3.509900	-10.555000	25.298245	0.000792	20.817920
1479.463898	-2.980100	3.511300	-10.463000	25.294317	0.000793	20.819192
1480.466346	-2.985600	3.509600	-10.477000	25.300232	0.000792	20.805690
1481.465307	-3.005600	3.510300	-10.549000	25.279030	0.000792	20.806214
1482.465311	-3.007200	3.508300	-10.548000	25.302518	0.000790	20.806089
1483.467680	-2.987500	3.509000	-10.482000	25.324539	0.000790	20.798801
1484.466535	-3.013300	3.507400	-10.568000	25.355257	0.000790	20.808308
1485.466485	-2.982700	3.510000	-10.467000	25.343226	0.000790	20.816142
1486.468480	-2.988700	3.509200	-10.487000	25.343201	0.000789	20.815643
1487.467484	-3.007900	3.505800	-10.544000	25.351923	0.000788	20.807805
1488.467481	-3.017700	3.505400	-10.576000	25.363356	0.000788	20.810275
1489.485004	-2.992300	3.506800	-10.493000	25.344986	0.000786	20.828340
1490.468021	-3.002800	3.505300	-10.524000	25.341978	0.000785	20.808251
1491.470602	-3.020400	3.505800	-10.588000	25.336236	0.000785	20.806278
1492.468601	-3.004200	3.506800	-10.534000	25.364469	0.000784	20.818505
1493.469605	-3.011500	3.504700	-10.553000	25.331488	0.000784	20.815735
1494.467597	-3.036900	3.503300	-10.638000	25.350997	0.000783	20.820625
1495.467124	-3.000500	3.505300	-10.517000	25.362528	0.000782	20.811341
1496.468127	-3.031700	3.505000	-10.624000	25.379627	0.000781	20.810018
1497.472126	-3.021800	3.502500	-10.583000	25.383825	0.000783	20.801906
1498.468126	-2.982800	3.504900	-10.454000	25.399483	0.000780	20.814308
1499.474484	-2.988300	3.503300	-10.468000	25.410517	0.000780	20.815905
1500.480360	-2.990800	3.503400	-10.477000	25.405097	0.000778	20.809515
1501.469358	-3.007400	3.500900	-10.528000	25.437654	0.000779	20.790998
1502.473359	-3.004600	3.503000	-10.524000	25.449011	0.000775	20.808566
1503.471244	-3.034300	3.500100	-10.619000	25.436286	0.000777	20.817125
1504.484910	-2.996700	3.502600	-10.495000	25.496226	0.000777	20.809987
1505.470858	-2.995000	3.501400	-10.485000	25.479352	0.000775	20.817223
1506.470926	-2.993100	3.501000	-10.478000	25.510540	0.000773	20.825309
1507.471830	-2.993000	3.500800	-10.478000	25.489864	0.000774	20.792218
1508.471921	-3.004200	3.500100	-10.514000	25.493318	0.000774	20.800902
1509.480909	-2.992900	3.500300	-10.474000	25.482309	0.000775	20.777045
1510.473016	-2.991200	3.500500	-10.469000	25.467348	0.000772	20.797583
1511.473017	-3.007900	3.498600	-10.523000	25.452513	0.000771	20.805919
1512.479023	-2.993100	3.500900	-10.478000	25.455544	0.000771	20.789522
1513.476542	-2.986900	3.498100	-10.447000	25.448412	0.000771	20.792317
1514.482978	-2.989400	3.498900	-10.459000	25.442597	0.000769	20.801651
1515.474061	-2.983200	3.498800	-10.436000	25.430021	0.000771	20.782859
1516.474068	-3.020600	3.497100	-10.562000	25.417993	0.000773	20.805395
1517.474064	-3.000700	3.496000	-10.489000	25.407357	0.000770	20.795188
1518.479870	-3.015500	3.496200	-10.542000	25.354494	0.000769	20.788575
1519.478023	-2.997600	3.495100	-10.475000	25.344005	0.000768	20.803173
1520.478996	-2.971300	3.497300	-10.390000	25.362473	0.000770	20.780466
1521.478995	-3.022400	3.494100	-10.559000	25.384816	0.000765	20.783460
1522.479327	-2.993300	3.496100	-10.465000	25.390458	0.000766	20.802401
1523.479922	-3.017200	3.493000	-10.538000	25.400524	0.000767	20.798759
1524.482043	-2.993200	3.494900	-10.459000	25.431242	0.000765	20.789300
1525.481047	-2.991600	3.495000	-10.455000	25.447495	0.000766	20.804200
1526.482045	-2.997100	3.495200	-10.475000	25.415113	0.000765	20.795390
1527.482032	-3.013000	3.493200	-10.524000	25.434350	0.000765	20.779619
1528.481145	-2.986500	3.493200	-10.431000	25.415139	0.000764	20.799683
1529.481230	-3.008200	3.492800	-10.505000	25.405670	0.000762	20.801555
1530.482235	-3.019900	3.491600	-10.544000	25.424733	0.000762	20.803628
1531.488240	-3.017600	3.490900	-10.533000	25.439894	0.000762	20.786135
1532.485395	-2.979700	3.492100	-10.404000	25.455302	0.000762	20.766519
1533.489409	-2.984400	3.492000	-10.419000	25.458061	0.000761	20.784464
1534.483214	-3.001300	3.491100	-10.476000	25.409701	0.000761	20.778102
1535.483218	-2.989900	3.491000	-10.436000	25.360392	0.000759	20.775531
1536.483597	-2.962500	3.493000	-10.347000	25.318812	0.000758	20.774084
1537.483599	-2.992600	3.490100	-10.443000	25.325872	0.000758	20.796346
1538.484561	-2.997800	3.490900	-10.464000	25.321796	0.000759	20.765701
1539.483989	-3.024000	3.487900	-10.546000	25.340835	0.000760	20.763481
1540.485027	-3.013200	3.487500	-10.507000	25.365716	0.000760	20.779928
1541.484988	-3.030700	3.488200	-10.570000	25.358359	0.000759	20.800042
1542.486331	-3.011900	3.488100	-10.504000	25.413931	0.000760	20.778556
1543.486609	-2.991900	3.488900	-10.437000	25.445072	0.000758	20.770945
1544.491396	-3.002100	3.489200	-10.474000	25.483667	0.000758	20.794056
1545.491399	-2.990700	3.487000	-10.427000	25.451236	0.000757	20.768601
1546.485397	-3.002700	3.486300	-10.468000	25.424795	0.000757	20.770498
1547.487538	-3.003500	3.485900	-10.467000	25.389403	0.000758	20.766729
1548.486491	-3.011300	3.486200	-10.497000	25.380284	0.000756	20.766106
1549.486742	-3.011000	3.484900	-10.491000	25.392412	0.000757	20.763586
1550.491255	-3.000600	3.486400	-10.460000	25.366713	0.000756	20.771447
1551.488254	-3.013000	3.483900	-10.495000	25.391118	0.000757	20.772719
1552.486838	-2.988200	3.484300	-10.411000	25.414381	0.000755	20.760516
1553.488678	-2.983900	3.484100	-10.395000	25.411548	0.000757	20.749136
1554.485679	-2.988500	3.485200	-10.414000	25.395940	0.000756	20.759067
1555.490919	-3.011200	3.484200	-10.491000	25.406055	0.000753	20.756423
1556.489920	-2.981300	3.483800	-10.385000	25.405334	0.000753	20.759492
1557.486922	-3.014100	3.483000	-10.496000	25.427104	0.000753	20.763334
1558.493124	-3.015300	3.482700	-10.501000	25.432397	0.000754	20.764856
1559.492314	-2.989600	3.483100	-10.412000	25.448625	0.000752	20.765504
1560.487308	-2.984700	3.483100	-10.395000	25.441988	0.000753	20.744615
1561.491312	-3.000300	3.483100	-10.449000	25.419745	0.000753	20.776807
1562.492311	-2.994800	3.482300	-10.428000	25.420864	0.000752	20.759438
1563.490128	-3.008900	3.480600	-10.472000	25.431225	0.000751	20.756566
1564.496583	-2.970400	3.482300	-10.343000	25.487264	0.000751	20.751674
1565.489765	-3.008900	3.480300	-10.471000	25.488927	0.000754	20.751448
1566.489767	-3.006800	3.479700	-10.462000	25.532465	0.000752	20.758660
1567.491889	-3.000600	3.478500	-10.437000	25.538080	0.000752	20.771411
1568.491889	-3.009600	3.479800	-10.471000	25.550628	0.000748	20.755564
1569.490705	-2.986900	3.478700	-10.390000	25.526573	0.000751	20.752742
1570.490919	-3.009100	3.478900	-10.467000	25.521999	0.000750	20.772806
1571.491920	-3.004200	3.478000	-10.447000	25.509621	0.000751	20.763695
1572.492760	-2.988200	3.478200	-10.392000	25.502711	0.000748	20.769558
1573.493264	-2.976000	3.480000	-10.355000	25.499927	0.000749	20.768184
1574.495039	-2.998400	3.476000	-10.421000	25.506361	0.000749	20.778913
1575.493068	-2.991500	3.477900	-10.403000	25.554420	0.000746	20.780709
1576.494073	-2.984700	3.476600	-10.374000	25.541372	0.000748	20.776614
1577.494073	-2.998700	3.476100	-10.423000	25.551533	0.000746	20.752205
1578.496037	-2.973000	3.476100	-10.333000	25.580780	0.000747	20.769723
1579.494798	-3.006300	3.473700	-10.441000	25.591662	0.000748	20.789188
1580.495799	-2.977500	3.476200	-10.350000	25.544224	0.000744	20.782323
1581.497018	-2.997200	3.475100	-10.415000	25.568823	0.000745	20.775259
1582.494143	-3.004200	3.474000	-10.435000	25.551152	0.000745	20.785962
1583.496434	-3.003600	3.473100	-10.430000	25.561563	0.000746	20.791202
1584.494180	-2.974300	3.474600	-10.333000	25.574383	0.000743	20.795068
1585.500185	-3.009300	3.472600	-10.449000	25.545134	0.000745	20.778970
1586.497116	-3.015400	3.471900	-10.468000	25.539640	0.000744	20.785781
1587.496514	-3.012200	3.472500	-10.458000	25.546025	0.000744	20.774649
1588.498180	-3.012000	3.471900	-10.456000	25.560386	0.000743	20.783382
1589.497432	-3.016300	3.470000	-10.466000	25.581929	0.000743	20.796008
1590.496433	-3.004800	3.472600	-10.433000	25.578920	0.000742	20.776390
1591.497435	-3.021400	3.469800	-10.483000	25.553124	0.000741	20.790313
1592.500002	-3.000300	3.470600	-10.412000	25.539405	0.000742	20.801192
1593.498223	-3.015100	3.470900	-10.463000	25.520767	0.000742	20.799069
1594.499238	-3.007900	3.468700	-10.434000	25.483588	0.000739	20.786390
1595.512763	-3.011500	3.469400	-10.446000	25.426577	0.000738	20.794574
1596.501760	-2.996600	3.468600	-10.393000	25.367996	0.000738	20.796443
1597.501876	-3.013900	3.467900	-10.451000	25.339836	0.000740	20.806100
1598.499418	-2.989300	3.469200	-10.369000	25.343661	0.000738	20.801405
1599.498599	-3.007000	3.469100	-10.430000	25.319029	0.000738	20.782363
1600.503606	-2.981500	3.468800	-10.341000	25.302649	0.000738	20.798633
1601.499602	-3.016700	3.466600	-10.456000	25.249008	0.000737	20.804995
1602.501778	-3.014700	3.468000	-10.454000	25.258376	0.000738	20.798754
1603.499450	-3.022800	3.467200	-10.478000	25.259443	0.000739	20.774220
1604.498602	-3.017400	3.466200	-10.457000	25.297645	0.000736	20.790764
1605.501602	-2.996900	3.465700	-10.385000	25.328513	0.000737	20.783826
1606.501600	-3.004100	3.465800	-10.410000	25.366115	0.000735	20.806882
1607.501603	-2.994300	3.466300	-10.378000	25.380828	0.000736	20.796051
1608.499597	-2.990800	3.466300	-10.366000	25.404362	0.000735	20.804509
1609.500003	-3.012400	3.464100	-10.434000	25.408113	0.000735	20.792154
1610.504009	-3.011500	3.465000	-10.434000	25.408235	0.000733	20.800338
1611.502004	-3.033300	3.462700	-10.502000	25.406195	0.000735	20.806350
1612.504544	-2.977200	3.465600	-10.316000	25.436763	0.000732	20.803854
1613.504538	-2.991500	3.463000	-10.358000	25.427740	0.000732	20.822294
1614.500502	-3.013500	3.463000	-10.435000	25.430349	0.000732	20.804525
1615.500498	-2.999300	3.461400	-10.381000	25.435938	0.000732	20.821517
1616.509499	-2.997500	3.462300	-10.377000	25.467821	0.000731	20.808489
1617.504390	-2.995200	3.463400	-10.371000	25.502637	0.000731	20.809786
1618.500528	-3.004700	3.460400	-10.396000	25.499479	0.000732	20.815150
1619.502794	-2.986500	3.460100	-10.332000	25.508846	0.000730	20.798953
1620.501780	-3.007800	3.460300	-10.407000	25.517742	0.000729	20.829222
1621.504782	-2.982800	3.461300	-10.323000	25.478973	0.000730	20.811153
1622.502779	-2.987400	3.459600	-10.334000	25.437819	0.000729	20.838578
1623.503531	-2.984400	3.461400	-10.329000	25.437693	0.000729	20.824228
1624.500077	-2.985500	3.459600	-10.327000	25.430957	0.000728	20.817938
1625.502491	-2.985400	3.459900	-10.328000	25.401556	0.000727	20.828718
1626.502493	-3.007200	3.457400	-10.396000	25.382692	0.000727	20.838699
1627.505599	-3.020200	3.457300	-10.440000	25.386468	0.000726	20.825422
1628.503899	-3.008900	3.458000	-10.404000	25.392432	0.000725	20.820979
1629.519037	-3.028000	3.455200	-10.461000	25.406175	0.000724	20.811071
1630.505442	-3.000100	3.456600	-10.369000	25.440719	0.000725	20.827266
1631.507447	-3.006000	3.457000	-10.390000	25.397425	0.000722	20.830734
1632.509686	-2.991700	3.457000	-10.341000	25.366183	0.000724	20.841563
1633.518465	-2.981600	3.456800	-10.306000	25.392254	0.000724	20.838343
1634.551197	-2.984900	3.456500	-10.316000	25.388799	0.000723	20.822072
1635.506202	-2.986600	3.457000	-10.323000	25.377938	0.000723	20.827762
1636.508199	-2.991200	3.456000	-10.335000	25.380994	0.000720	20.828934
1637.509198	-3.025000	3.454300	-10.448000	25.427842	0.000720	20.837094
1638.506200	-2.977000	3.455300	-10.285000	25.426325	0.000720	20.821821
1639.520200	-2.992100	3.454200	-10.334000	25.442304	0.000720	20.827435
1640.509200	-2.992500	3.454400	-10.336000	25.494541	0.000717	20.830579
1641.508198	-3.004500	3.453900	-10.376000	25.486712	0.000719	20.840261
1642.509671	-2.994200	3.454100	-10.341000	25.539171	0.000716	20.835569
1643.509653	-3.011700	3.452100	-10.396000	25.543892	0.000718	20.813758
1644.508934	-2.996100	3.452100	-10.340000	25.585514	0.000716	20.832325
1645.509939	-3.007700	3.450500	-10.376000	25.573213	0.000715	20.836566
1646.511940	-3.007600	3.450000	-10.376000	25.550874	0.000717	20.833572
1647.510946	-2.991000	3.452200	-10.324000	25.551172	0.000714	20.836716
1648.519849	-2.985200	3.451400	-10.302000	25.530397	0.000716	20.853310
1649.516551	-3.000900	3.450200	-10.353000	25.539939	0.000714	20.845349
1650.513483	-2.979400	3.450600	-10.279000	25.534794	0.000713	20.839709
1651.511480	-3.001700	3.450000	-10.355000	25.543368	0.000714	20.844999
1652.514511	-2.981800	3.450100	-10.287000	25.568042	0.000713	20.850338
1653.512622	-3.019000	3.448800	-10.410000	25.566004	0.000712	20.853033
1654.513728	-2.990900	3.449000	-10.315000	25.560363	0.000710	20.866807
1655.513732	-3.005300	3.448200	-10.361000	25.555915	0.000710	20.840530
1656.513803	-3.036600	3.446600	-10.464000	25.550596	0.000711	20.830448
1657.515947	-3.026700	3.447500	-10.432000	25.531089	0.000711	20.854953
1658.513551	-2.998700	3.446800	-10.335000	25.547489	0.000710	20.856250
1659.516286	-2.995300	3.445900	-10.321000	25.586005	0.000711	20.855576
1660.514120	-2.984800	3.448500	-10.292000	25.561677	0.000707	20.862438
1661.519120	-2.969800	3.447500	-10.236000	25.514637	0.000709	20.856923
1662.518353	-3.006200	3.445800	-10.358000	25.522116	0.000706	20.863011
1663.520607	-3.024300	3.445300	-10.416000	25.516872	0.000706	20.866754
1664.518535	-2.997100	3.446700	-10.329000	25.527110	0.000707	20.848587
1665.516536	-3.009200	3.444200	-10.363000	25.555116	0.000707	20.874339
1666.517536	-3.017000	3.444200	-10.388000	25.551736	0.000706	20.855299
1667.517539	-3.014900	3.443800	-10.381000	25.566670	0.000703	20.835685
1668.527836	-3.011400	3.442500	-10.366000	25.594252	0.000702	20.833040
1669.516505	-3.009900	3.443400	-10.363000	25.561178	0.000702	20.860040
1670.521507	-3.017100	3.444000	-10.390000	25.570745	0.000704	20.838828
1671.517631	-3.012100	3.442300	-10.368000	25.563116	0.000702	20.854874
1672.522943	-3.006600	3.443600	-10.353000	25.551810	0.000702	20.855847
1673.520700	-2.979600	3.443700	-10.260000	25.567315	0.000702	20.843918
1674.517309	-3.020500	3.441500	-10.393000	25.569601	0.000702	20.873240
1675.529309	-3.064500	3.438700	-10.535000	25.587218	0.000703	20.872441
1676.518300	-2.985700	3.440800	-10.272000	25.580484	0.000702	20.847661
1677.518301	-3.018800	3.440600	-10.385000	25.593529	0.000699	20.872615
1678.517574	-2.997100	3.440000	-10.309000	25.552007	0.000700	20.863631
1679.518530	-2.995500	3.441200	-10.305000	25.552976	0.000698	20.854648
1680.518531	-2.989700	3.440000	-10.284000	25.588012	0.000698	20.854273
1681.519534	-2.999600	3.440500	-10.319000	25.581377	0.000699	20.850929
1682.520243	-2.992500	3.439100	-10.291000	25.602722	0.000699	20.860037
1683.517258	-2.999100	3.438300	-10.312000	25.612760	0.000697	20.864902
1684.517415	-3.022600	3.436600	-10.386000	25.633483	0.000698	20.856318
1685.518418	-3.001100	3.438100	-10.317000	25.641111	0.000698	20.859237
1686.520970	-2.997400	3.438500	-10.306000	25.626450	0.000698	20.860160
1687.520091	-3.000700	3.437900	-10.315000	25.628960	0.000698	20.860784
1688.520740	-2.977100	3.437100	-10.232000	25.618747	0.000697	20.876130
1689.522582	-3.002600	3.436300	-10.316000	25.566639	0.000697	20.860783
1690.521587	-2.987100	3.437600	-10.267000	25.557967	0.000697	20.858238
1691.524588	-3.006600	3.435800	-10.329000	25.537987	0.000697	20.868044
1692.527583	-3.014100	3.435100	-10.352000	25.536521	0.000698	20.884114
1693.521217	-3.014200	3.435400	-10.354000	25.534061	0.000695	20.870265
1694.527419	-3.001900	3.434100	-10.308000	25.522083	0.000695	20.882417
1695.522426	-2.982100	3.435700	-10.245000	25.528494	0.000695	20.874631
1696.523427	-3.002200	3.435300	-10.312000	25.528593	0.000693	20.865722
1697.527837	-2.992000	3.435000	-10.276000	25.576552	0.000694	20.865048
1698.522136	-3.011900	3.432200	-10.336000	25.570091	0.000694	20.885585
1699.540536	-3.004300	3.433100	-10.313000	25.609152	0.000692	20.887830
1700.524539	-3.002300	3.433900	-10.309000	25.608257	0.000692	20.874130
1701.527540	-3.010100	3.432600	-10.331000	25.654971	0.000692	20.877898
1702.527945	-3.022300	3.431400	-10.370000	25.665431	0.000692	20.878921
1703.534026	-2.986400	3.433000	-10.250000	25.670971	0.000691	20.859357
1704.527452	-3.040800	3.430300	-10.430000	25.704389	0.000691	20.878696
1705.526457	-3.007100	3.432400	-10.320000	25.684860	0.000691	20.891796
1706.526454	-3.005400	3.431500	-10.311000	25.648783	0.000691	20.878796
1707.528481	-2.991000	3.431000	-10.261000	25.628781	0.000690	20.882888
1708.529042	-2.971900	3.430700	-10.195000	25.626867	0.000690	20.881440
1709.527285	-3.012200	3.429700	-10.329000	25.636284	0.000689	20.874303
1710.528289	-2.971300	3.431300	-10.193000	25.636930	0.000689	20.886331
1711.528832	-3.012400	3.430000	-10.332000	25.650944	0.000685	20.865320
1712.531944	-2.994300	3.429800	-10.270000	25.669504	0.000685	20.900554
1713.530186	-2.973500	3.429600	-10.197000	25.643390	0.000687	20.877647
1714.537219	-3.019400	3.426700	-10.345000	25.668411	0.000683	20.879069
1715.532218	-2.997300	3.428600	-10.276000	25.670150	0.000683	20.894565
1716.529231	-2.999200	3.427200	-10.278000	25.643862	0.000683	20.895189
1717.532045	-2.993000	3.427800	-10.258000	25.639638	0.000684	20.896636
1718.532163	-2.996700	3.426200	-10.266000	25.621102	0.000682	20.905045
1719.531133	-2.997800	3.427700	-10.275000	25.631960	0.000682	20.895089
1720.530135	-3.001500	3.425700	-10.282000	25.635365	0.000682	20.867216
1721.530146	-2.999300	3.426700	-10.277000	25.624879	0.000684	20.897460
1722.538134	-3.002200	3.426200	-10.285000	25.633128	0.000681	20.896262
1723.531131	-2.993100	3.425800	-10.253000	25.644509	0.000682	20.902002
1724.538131	-2.990400	3.425400	-10.243000	25.660634	0.000680	20.881215
1725.532135	-3.001200	3.424400	-10.275000	25.685655	0.000680	20.896387
1726.532140	-2.994300	3.424200	-10.252000	25.678002	0.000680	20.896287
1727.532098	-2.987400	3.424500	-10.229000	25.689555	0.000681	20.901727
1728.532091	-3.006600	3.421800	-10.288000	25.711395	0.000679	20.908964
1729.534255	-3.009200	3.422600	-10.298000	25.671592	0.000681	20.900754
1730.532272	-3.013400	3.420900	-10.308000	25.676089	0.000679	20.903848
1731.532269	-2.991900	3.423500	-10.243000	25.703743	0.000679	20.901752
1732.534590	-3.002700	3.421000	-10.271000	25.699518	0.000677	20.896087
1733.532701	-3.002500	3.422700	-10.275000	25.704934	0.000678	20.900578
1734.534657	-3.013200	3.420300	-10.305000	25.676933	0.000679	20.898533
1735.538659	-2.992400	3.421100	-10.236000	25.660236	0.000678	20.898358
1736.535660	-2.985500	3.421700	-10.214000	25.646445	0.000677	20.893042
1737.537182	-3.004400	3.420500	-10.276000	25.618616	0.000677	20.904920
1738.537911	-3.008000	3.419000	-10.283000	25.613597	0.000676	20.917896
1739.538010	-2.983200	3.419700	-10.201000	25.587754	0.000676	20.898107
1740.546667	-2.978000	3.420700	-10.186000	25.563054	0.000673	20.934463
1741.537668	-2.992800	3.419400	-10.232000	25.586660	0.000676	20.907439
1742.540672	-3.004100	3.418600	-10.268000	25.600948	0.000674	20.901400
1743.540258	-3.004100	3.417700	-10.266000	25.598115	0.000678	20.917994
1744.538013	-2.992500	3.418100	-10.227000	25.609247	0.000674	20.928699
1745.541013	-3.002900	3.417000	-10.260000	25.625920	0.000673	20.899928
1746.540014	-2.987600	3.418000	-10.211000	25.608427	0.000674	20.919815
1747.541011	-2.988500	3.418100	-10.214000	25.581168	0.000674	20.918517
1748.548828	-2.981000	3.416700	-10.183000	25.567575	0.000671	20.930469
1749.540903	-2.992800	3.418300	-10.229000	25.609495	0.000673	20.916620
1750.541904	-3.007200	3.416400	-10.273000	25.614439	0.000672	20.920637
1751.555905	-3.016200	3.415000	-10.299000	25.644952	0.000670	20.890120
1752.542639	-3.010800	3.415100	-10.280000	25.669748	0.000670	20.928771
1753.542985	-2.996600	3.416000	-10.235000	25.685228	0.000670	20.911604
1754.542338	-3.008500	3.414400	-10.271000	25.678916	0.000670	20.925652
1755.543339	-3.003700	3.415300	-10.257000	25.664455	0.000669	20.924878
1756.546340	-3.022100	3.413800	-10.316000	25.646938	0.000667	20.914398
1757.545966	-2.952100	3.415500	-10.081000	25.637521	0.000667	20.917741
1758.547964	-3.000100	3.413800	-10.241000	25.607529	0.000666	20.907535
1759.556533	-2.980500	3.413600	-10.173000	25.605368	0.000668	20.897779
1760.545528	-2.998400	3.413700	-10.235000	25.577363	0.000666	20.922282
1761.547540	-2.993900	3.412700	-10.217000	25.556216	0.000667	20.933286
1762.550846	-2.994200	3.412500	-10.216000	25.535218	0.000665	20.919787
1763.546028	-2.976000	3.412800	-10.155000	25.498017	0.000665	20.926524
1764.546298	-3.030400	3.409900	-10.332000	25.511263	0.000665	20.926074
1765.546376	-3.001200	3.410700	-10.235000	25.504105	0.000664	20.920310
1766.548374	-3.011600	3.411200	-10.273000	25.512902	0.000664	20.943840
1767.551406	-3.029200	3.409100	-10.325000	25.516108	0.000661	20.929043
1768.546372	-2.991500	3.411000	-10.202000	25.540386	0.000664	20.942517
1769.548835	-3.006500	3.409100	-10.248000	25.554848	0.000662	20.926223
1770.548871	-2.984200	3.407600	-10.168000	25.553854	0.000662	20.920010
1771.548837	-3.005400	3.408300	-10.243000	25.562030	0.000662	20.950976
1772.551836	-2.988100	3.409200	-10.186000	25.561706	0.000664	20.911301
1773.547204	-3.000700	3.408600	-10.226000	25.565856	0.000662	20.933958
1774.550363	-2.966700	3.409200	-10.113000	25.560861	0.000660	20.937950
1775.548932	-2.991600	3.407900	-10.194000	25.582107	0.000660	20.929416
1776.549936	-3.008500	3.407000	-10.249000	25.606508	0.000660	20.937800
1777.549302	-2.984400	3.406200	-10.164000	25.620671	0.000659	20.937326
1778.551939	-2.997000	3.406000	-10.208000	25.669222	0.000660	20.967593
1779.548535	-3.018100	3.406000	-10.279000	25.679111	0.000657	20.951923
1780.550539	-2.994700	3.407600	-10.204000	25.702019	0.000658	20.935105
1781.551542	-3.012600	3.405100	-10.257000	25.743536	0.000656	20.938399
1782.559856	-3.011800	3.405200	-10.254000	25.743461	0.000658	20.951598
1783.551847	-3.006600	3.407000	-10.242000	25.764803	0.000657	20.939846
1784.560602	-3.013900	3.405500	-10.263000	25.788256	0.000657	20.931162
1785.551171	-2.987800	3.406000	-10.175000	25.811957	0.000656	20.934107
1786.552175	-3.003600	3.405000	-10.225000	25.781945	0.000656	20.930513
1787.553555	-2.993700	3.404500	-10.191000	25.782243	0.000655	20.945036
1788.555295	-2.987500	3.404100	-10.168000	25.768977	0.000654	20.933133
1789.556410	-3.001400	3.402100	-10.209000	25.757523	0.000653	20.954817
1790.553413	-2.988100	3.403100	-10.168000	25.737896	0.000652	20.947431
1791.553416	-3.003600	3.401600	-10.216000	25.709398	0.000655	20.946782
1792.555551	-2.997700	3.402900	-10.200000	25.671980	0.000651	20.925797
1793.562749	-3.017800	3.401500	-10.264000	25.648996	0.000652	20.950126
1794.561029	-3.014500	3.401400	-10.252000	25.673868	0.000652	20.967517
1795.555035	-3.005300	3.401000	-10.219000	25.657594	0.000651	20.951648
1796.561030	-2.987800	3.400800	-10.160000	25.622509	0.000652	20.958609
1797.557035	-2.993900	3.400500	-10.179000	25.653518	0.000651	20.962252
1798.565920	-2.996800	3.400500	-10.190000	25.666886	0.000651	20.970936
1799.561834	-3.007200	3.399700	-10.223000	25.669073	0.000651	20.967917
1800.556259	-2.990900	3.399900	-10.168000	25.700429	0.000649	20.989924
1801.568263	-3.018800	3.398200	-10.258000	25.735187	0.000649	20.979319
1802.560259	-3.009200	3.398600	-10.226000	25.720181	0.000648	20.967567
1803.557262	-3.004100	3.397500	-10.205000	25.722591	0.000647	20.957187
1804.560745	-2.993000	3.398500	-10.171000	25.726815	0.000648	20.966644
1805.562749	-3.018900	3.397900	-10.256000	25.725920	0.000649	20.953419
1806.559751	-2.999300	3.397100	-10.188000	25.697621	0.000645	20.938273
1807.560747	-3.010600	3.397700	-10.228000	25.723808	0.000648	20.955091
1808.558214	-2.987000	3.396700	-10.146000	25.705621	0.000647	20.961005
1809.561690	-2.998700	3.396400	-10.184000	25.724777	0.000645	20.956064
1810.562698	-3.013300	3.396400	-10.233000	25.735933	0.000646	20.956364
1811.562768	-2.995000	3.396700	-10.172000	25.778591	0.000645	20.992094
1812.564862	-3.030000	3.395100	-10.286000	25.787236	0.000643	20.962851
1813.561463	-2.978100	3.396800	-10.115000	25.808503	0.000643	20.969039
1814.562842	-3.003500	3.394300	-10.194000	25.816502	0.000643	20.970436
1815.566846	-2.997300	3.395200	-10.176000	25.808105	0.000643	20.944461
1816.564897	-3.017900	3.395800	-10.248000	25.803683	0.000643	20.941916
1817.566702	-3.043100	3.393100	-10.324000	25.784503	0.000641	20.952995
1818.565702	-2.998400	3.393800	-10.175000	25.817968	0.000640	20.950574
1819.564786	-3.016400	3.392300	-10.231000	25.789298	0.000640	20.953069
1820.565778	-3.020300	3.391500	-10.241000	25.785323	0.000639	20.930113
1821.568781	-2.981100	3.394700	-10.118000	25.811434	0.000639	20.939745
1822.568779	-2.990600	3.393100	-10.147000	25.859579	0.000637	20.955390
1823.566858	-2.986500	3.392000	-10.129000	25.859629	0.000639	20.937424
1824.566715	-3.017900	3.390800	-10.231000	25.841022	0.000639	20.928217
1825.574718	-2.985900	3.392400	-10.128000	25.808030	0.000638	20.968090
1826.569720	-3.012000	3.391300	-10.214000	25.793596	0.000638	20.972557
1827.570898	-2.986400	3.391700	-10.128000	25.789397	0.000639	20.952221
1828.568995	-2.974100	3.392200	-10.088000	25.816502	0.000636	20.936301
1829.570134	-2.997600	3.391100	-10.164000	25.832501	0.000634	20.951896
1830.570138	-3.009800	3.390600	-10.203000	25.847257	0.000635	20.932109
1831.570169	-2.995900	3.389400	-10.153000	25.852896	0.000634	20.961004
1832.572138	-3.012500	3.388000	-10.205000	25.876248	0.000636	20.945584
1833.574965	-3.007500	3.388600	-10.190000	25.892768	0.000634	20.948428
1834.579889	-2.982600	3.389800	-10.109000	25.892296	0.000634	20.932309
1835.571888	-3.014500	3.389000	-10.215000	25.920565	0.000635	20.932733
1836.579692	-2.999600	3.387500	-10.159000	25.917187	0.000633	20.940244
1837.573689	-3.008200	3.387800	-10.190000	25.916839	0.000631	20.964073
1838.588799	-3.000000	3.389100	-10.166000	25.879651	0.000631	20.936675
1839.574793	-3.013400	3.387400	-10.206000	25.889911	0.000633	20.928965
1840.572793	-3.002800	3.388000	-10.173000	25.898506	0.000633	20.940443
1841.573794	-3.018100	3.387400	-10.222000	25.903748	0.000631	20.939071
1842.578020	-3.011600	3.386100	-10.197000	25.888818	0.000628	20.934505
1843.575939	-3.001100	3.385900	-10.161000	25.914727	0.000631	20.924973
1844.576663	-3.010600	3.385100	-10.189000	25.890606	0.000629	20.934405
1845.576259	-3.002000	3.385900	-10.162000	25.891203	0.000628	20.942115
1846.575257	-2.990800	3.384600	-10.122000	25.888420	0.000629	20.951173
1847.580258	-2.995200	3.386400	-10.142000	25.915199	0.000630	20.938722
1848.574193	-3.015700	3.384000	-10.204000	25.905834	0.000627	20.925996
1849.575106	-3.019900	3.384500	-10.220000	25.913088	0.000629	20.922378
1850.575109	-3.031000	3.383000	-10.253000	25.894606	0.000629	20.922303
1851.575107	-3.006800	3.383500	-10.172000	25.865467	0.000628	20.930487
1852.590908	-2.982800	3.383200	-10.090000	25.884247	0.000628	20.942714
1853.576425	-3.006300	3.383300	-10.170000	25.867206	0.000627	20.939820
1854.579712	-3.011800	3.382400	-10.186000	25.855704	0.000626	20.926844
1855.576753	-3.034900	3.382700	-10.266000	25.866734	0.000626	20.950250
1856.577758	-3.014000	3.380900	-10.189000	25.861219	0.000625	20.935703
1857.584566	-2.987400	3.381600	-10.101000	25.819111	0.000626	20.916639
1858.586849	-3.004200	3.381400	-10.157000	25.829868	0.000624	20.911798
1859.588849	-3.001100	3.380300	-10.142000	25.824775	0.000624	20.931336
1860.580846	-3.011000	3.380600	-10.178000	25.827185	0.000624	20.919060
1861.580848	-3.012900	3.380100	-10.182000	25.838762	0.000623	20.924998
1862.579846	-3.010500	3.380300	-10.176000	25.845096	0.000624	20.928991
1863.581431	-3.008400	3.379600	-10.166000	25.825744	0.000622	20.927095
1864.578347	-2.995600	3.379800	-10.124000	25.809894	0.000623	20.913071
1865.579340	-3.003600	3.379300	-10.149000	25.831706	0.000620	20.912697
1866.587341	-3.008200	3.378500	-10.162000	25.829744	0.000618	20.921156
1867.583372	-2.999600	3.378700	-10.134000	25.810267	0.000621	20.912497
1868.582027	-2.992100	3.378100	-10.107000	25.799510	0.000620	20.929191
1869.580878	-3.000100	3.378900	-10.136000	25.812155	0.000621	20.916764
1870.586882	-3.008300	3.377900	-10.160000	25.816304	0.000619	20.920932
1871.580878	-2.997900	3.377400	-10.124000	25.841172	0.000619	20.918886
1872.580905	-3.005700	3.375300	-10.145000	25.873691	0.000618	20.914569
1873.581938	-2.971700	3.377800	-10.037000	25.869964	0.000619	20.926945
1874.580614	-2.979300	3.376800	-10.059000	25.895378	0.000617	20.918337
1875.582617	-2.989000	3.377200	-10.093000	25.915350	0.000617	20.918961
1876.583614	-2.993500	3.377000	-10.107000	25.923945	0.000617	20.932810
1877.585302	-2.993500	3.377100	-10.108000	25.900396	0.000617	20.911525
1878.582273	-3.003800	3.374800	-10.137000	25.908295	0.000613	20.912349
1879.583224	-3.007000	3.374600	-10.147000	25.899328	0.000616	20.901444
1880.584225	-3.037400	3.373400	-10.246000	25.866934	0.000615	20.917265
1881.600225	-2.985600	3.374800	-10.075000	25.871630	0.000612	20.911076
1882.586221	-2.993600	3.374700	-10.100000	25.860078	0.000614	20.873871
1883.585653	-3.005700	3.374200	-10.141000	25.874412	0.000611	20.909604
1884.598951	-2.993500	3.374000	-10.100000	25.843558	0.000611	20.906111
1885.587958	-2.959100	3.373100	-9.980600	25.840279	0.000609	20.902817
1886.589958	-2.998300	3.371500	-10.107000	25.822467	0.000608	20.920484
1887.591589	-2.997800	3.372000	-10.108000	25.820504	0.000608	20.897178
1888.589368	-2.984200	3.371900	-10.061000	25.790071	0.000607	20.899798
1889.589658	-2.995500	3.371600	-10.099000	25.777102	0.000607	20.909529
1890.588783	-2.982400	3.371500	-10.054000	25.777102	0.000607	20.896254
1891.588643	-3.001100	3.372100	-10.119000	25.775313	0.000607	20.903466
1892.588107	-3.009300	3.370600	-10.142000	25.796207	0.000607	20.896005
1893.598204	-3.010000	3.369500	-10.141000	25.867655	0.000606	20.898076
1894.588262	-2.994200	3.369400	-10.087000	25.849421	0.000604	20.887346
1895.588264	-2.998500	3.370100	-10.105000	25.836577	0.000606	20.897202
1896.589272	-3.003400	3.369600	-10.119000	25.834565	0.000603	20.893759
1897.604661	-3.001700	3.370300	-10.116000	25.829000	0.000604	20.890065
1898.600784	-3.004700	3.368700	-10.121000	25.811808	0.000602	20.892236
1899.589947	-2.995300	3.368800	-10.089000	25.804728	0.000603	20.896503
1900.590951	-3.012700	3.366900	-10.143000	25.800008	0.000602	20.903615
1901.595949	-2.980900	3.368500	-10.040000	25.788033	0.000603	20.900595
1902.593983	-3.016900	3.367300	-10.158000	25.801075	0.000602	20.890464
1903.591304	-3.000400	3.368300	-10.105000	25.810168	0.000600	20.899597
1904.592011	-2.962200	3.368700	-9.978000	25.830241	0.000601	20.890364
1905.597010	-2.987200	3.367300	-10.057000	25.791187	0.000599	20.895230
1906.594011	-2.985700	3.367500	-10.054000	25.782244	0.000601	20.882928
1907.596122	-2.999200	3.367500	-10.099000	25.759362	0.000599	20.892660
1908.595510	-2.977500	3.366100	-10.021000	25.795659	0.000597	20.867007
1909.595653	-2.973300	3.367800	-10.013000	25.819881	0.000597	20.884225
1910.600659	-3.008000	3.365900	-10.124000	25.841246	0.000598	20.863963
1911.602663	-3.030300	3.364200	-10.193000	25.854711	0.000598	20.888866
1912.600635	-3.009700	3.363100	-10.121000	25.818713	0.000596	20.871199
1913.597122	-3.022400	3.364400	-10.168000	25.813571	0.000596	20.885473
1914.598064	-3.017400	3.363800	-10.149000	25.826961	0.000596	20.874742
1915.616066	-2.997500	3.363600	-10.082000	25.805174	0.000595	20.879409
1916.603067	-3.023900	3.363400	-10.168000	25.831309	0.000595	20.861567
1917.602064	-2.995100	3.363400	-10.073000	25.783684	0.000595	20.871573
1918.603439	-2.983100	3.364200	-10.035000	25.743063	0.000593	20.887668
1919.601050	-2.992700	3.362100	-10.061000	25.753373	0.000591	20.860568
1920.602051	-3.007600	3.363000	-10.114000	25.746417	0.000594	20.862115
1921.613058	-3.026900	3.361700	-10.172000	25.739833	0.000592	20.861192
1922.603818	-2.993000	3.362700	-10.064000	25.726789	0.000592	20.878435
1923.603917	-3.000000	3.362500	-10.086000	25.753622	0.000590	20.886420
1924.603703	-2.990200	3.362200	-10.051000	25.761149	0.000589	20.840405
1925.605705	-2.977300	3.362100	-10.008000	25.786888	0.000592	20.860568
1926.606709	-2.991700	3.361300	-10.055000	25.797944	0.000589	20.864087
1927.607808	-2.984000	3.361300	-10.029000	25.820551	0.000591	20.866407
1928.604381	-2.987600	3.361200	-10.041000	25.834314	0.000587	20.866956
1929.609184	-2.950000	3.360500	-9.912900	25.833022	0.000588	20.857124
1930.606185	-3.016400	3.359100	-10.132000	25.789198	0.000588	20.854829
1931.606191	-2.987400	3.360100	-10.036000	25.818862	0.000586	20.866133
1932.609649	-3.011100	3.359600	-10.115000	25.823358	0.000586	20.862589
1933.606355	-3.008500	3.359300	-10.106000	25.804005	0.000587	20.835090
1934.609931	-3.016000	3.358700	-10.129000	25.814937	0.000586	20.849863
1935.608594	-3.037400	3.356700	-10.195000	25.830265	0.000586	20.864311
1936.610594	-3.010300	3.357600	-10.107000	25.866088	0.000586	20.843874
1937.611634	-3.009300	3.357000	-10.100000	25.890929	0.000586	20.849863
1938.610590	-2.963200	3.359100	-9.952300	25.932340	0.000584	20.853531
1939.610934	-2.988100	3.358500	-10.034000	25.955615	0.000585	20.857000
1940.611932	-2.978500	3.356500	-9.996200	25.986987	0.000582	20.843949
1941.611935	-3.008000	3.355700	-10.093000	25.989347	0.000582	20.840630
1942.611931	-2.998200	3.356000	-10.061000	25.996178	0.000582	20.836587
1943.612486	-2.993200	3.355900	-10.045000	25.945754	0.000582	20.848515
1944.610977	-3.010200	3.354600	-10.096000	25.907474	0.000582	20.839457
1945.614974	-3.015400	3.354700	-10.113000	25.907151	0.000582	20.836288
1946.612976	-2.994100	3.355200	-10.045000	25.886185	0.000578	20.848416
1947.614974	-2.987100	3.354400	-10.019000	25.919721	0.000580	20.829001
1948.616778	-2.997400	3.354400	-10.054000	25.905909	0.000578	20.835514
1949.612782	-3.012600	3.352300	-10.098000	25.884620	0.000579	20.842103
1950.616781	-3.008300	3.353400	-10.087000	25.836898	0.000578	20.833992
1951.617789	-3.012500	3.352500	-10.098000	25.826464	0.000578	20.839158
1952.616786	-3.000300	3.353400	-10.060000	25.810515	0.000578	20.829301
1953.617512	-2.990400	3.352000	-10.023000	25.798591	0.000576	20.857625
1954.617942	-2.969100	3.353900	-9.957700	25.802417	0.000577	20.831123
1955.616946	-2.989600	3.351500	-10.019000	25.818267	0.000576	20.832346
1956.617660	-3.039200	3.349000	-10.177000	25.828751	0.000573	20.831972
1957.626904	-3.016000	3.350300	-10.103000	25.825621	0.000574	20.831672
1958.629901	-3.001400	3.350900	-10.056000	25.836229	0.000574	20.834268
1959.620907	-3.033600	3.350400	-10.163000	25.845545	0.000576	20.843152
1960.617910	-2.992200	3.352000	-10.029000	25.879355	0.000576	20.805046
1961.619907	-3.015200	3.350100	-10.100000	25.892596	0.000574	20.807916
1962.617908	-3.007600	3.349200	-10.072000	25.856526	0.000574	20.808191
1963.616906	-3.028200	3.347900	-10.137000	25.854439	0.000571	20.824112
1964.616352	-2.999400	3.348000	-10.041000	25.860774	0.000572	20.813407
1965.617351	-2.988800	3.350400	-10.013000	25.895702	0.000571	20.814355
1966.617391	-2.986200	3.348900	-9.998600	25.928393	0.000571	20.823015
1967.618386	-2.998200	3.349000	-10.040000	25.949433	0.000571	20.810962
1968.619039	-3.024300	3.347700	-10.124000	25.979862	0.000572	20.810239
1969.632485	-3.002100	3.348400	-10.051000	25.978695	0.000570	20.812859
1970.618402	-3.014100	3.346700	-10.087000	26.002292	0.000570	20.820445
1971.618402	-3.022600	3.346400	-10.113000	26.027827	0.000571	20.804375
1972.621994	-2.995800	3.347600	-10.028000	26.049213	0.000570	20.823016
1973.619003	-2.982400	3.346700	-9.979500	26.074299	0.000569	20.802703
1974.618173	-2.996300	3.346600	-10.027000	26.038458	0.000569	20.821694
1975.622181	-3.003500	3.346100	-10.050000	26.055795	0.000567	20.797862
1976.620990	-3.020300	3.345400	-10.103000	26.062452	0.000568	20.808344
1977.625427	-2.990200	3.345700	-10.002000	26.029095	0.000567	20.808019
1978.620651	-2.992600	3.345300	-10.010000	26.059770	0.000565	20.810865
1979.619114	-3.011800	3.344900	-10.074000	26.032722	0.000566	20.805499
1980.620163	-2.973100	3.344400	-9.942200	26.012727	0.000565	20.808644
1981.625171	-3.004900	3.344300	-10.048000	25.987068	0.000564	20.817004
1982.622165	-2.985700	3.343700	-9.981800	25.970078	0.000564	20.803728
1983.633161	-3.014100	3.341800	-10.071000	25.991614	0.000562	20.825364
1984.620887	-2.987800	3.343400	-9.988200	25.999662	0.000563	20.796466
1985.621216	-3.011900	3.342200	-10.066000	26.032996	0.000561	20.809568
1986.624216	-3.009500	3.342700	-10.059000	26.041541	0.000562	20.799661
1987.623217	-3.000100	3.342600	-10.027000	26.065186	0.000560	20.807298
1988.621580	-2.998500	3.341800	-10.019000	26.046782	0.000560	20.826264
1989.620600	-3.022400	3.340900	-10.096000	26.021994	0.000558	20.783815
1990.622603	-3.018700	3.340800	-10.084000	25.997975	0.000559	20.782443
1991.626602	-2.986700	3.341500	-9.979500	25.979247	0.000557	20.783067
1992.621457	-2.997300	3.339600	-10.008000	25.962182	0.000557	20.787260
1993.621448	-2.989500	3.339800	-9.983100	25.991294	0.000556	20.800387
1994.621154	-2.999900	3.338900	-10.015000	25.986079	0.000558	20.777129
1995.622155	-3.003000	3.339400	-10.028000	26.026939	0.000556	20.786413
1996.623157	-2.996900	3.340400	-10.010000	26.033000	0.000556	20.780174
1997.625932	-3.017400	3.338600	-10.072000	26.022916	0.000555	20.783319
1998.621880	-3.006800	3.340800	-10.044000	26.033497	0.000556	20.781148
1999.621227	-2.988500	3.338700	-9.977100	26.026220	0.000556	20.789009
2000.623590	-2.989900	3.337900	-9.978400	26.028307	0.000556	20.791580
2001.624707	-2.987000	3.337300	-9.967100	26.048003	0.000554	20.782447
2002.629779	-3.025200	3.335000	-10.088000	26.052947	0.000555	20.804483
2003.623173	-2.995900	3.336500	-9.994600	26.107415	0.000552	20.775285
2004.642082	-3.027200	3.335700	-10.095000	26.076269	0.000551	20.775285
2005.625082	-3.000300	3.336800	-10.010000	26.040603	0.000553	20.783546
2006.625086	-3.021600	3.336400	-10.079000	26.028905	0.000553	20.775111
2007.628474	-2.970900	3.337200	-9.913300	26.043932	0.000553	20.779778
2008.626085	-3.005200	3.335100	-10.022000	26.043361	0.000552	20.773515
2009.625453	-2.992400	3.336000	-9.981900	26.063033	0.000553	20.785693
2010.625451	-2.998000	3.335500	-9.999200	26.057916	0.000549	20.781027
2011.626454	-2.999700	3.334800	-10.003000	26.070608	0.000548	20.775287
2012.627452	-2.975800	3.335300	-9.923100	26.101158	0.000549	20.782275
2013.628762	-2.998100	3.334500	-9.995700	26.111117	0.000547	20.769996
2014.632499	-2.993100	3.335200	-9.981500	26.098078	0.000547	20.774913
2015.634369	-2.986300	3.334100	-9.955300	26.095471	0.000547	20.758068
2016.629363	-2.992500	3.333000	-9.973100	26.093186	0.000546	20.761462
2017.633362	-2.997200	3.334300	-9.993200	26.088939	0.000545	20.779481
2018.640438	-3.008000	3.332100	-10.021000	26.100736	0.000546	20.782800
2019.628466	-3.016700	3.331800	-10.050000	26.129125	0.000546	20.781452
2020.640463	-2.994800	3.331800	-9.978000	26.120854	0.000544	20.771245
2021.628475	-3.006900	3.331300	-10.016000	26.124903	0.000545	20.776262
2022.628469	-3.018900	3.330600	-10.053000	26.120979	0.000546	20.769474
2023.630107	-2.990100	3.332000	-9.961900	26.114894	0.000543	20.778059
2024.630147	-3.002500	3.329700	-9.996800	26.144548	0.000541	20.759017
2025.631147	-2.996800	3.329800	-9.977700	26.167695	0.000541	20.790337
2026.630149	-3.001100	3.330300	-9.994000	26.170726	0.000541	20.770149
2027.631386	-2.997300	3.329000	-9.976800	26.191190	0.000542	20.772220
2028.630339	-3.002500	3.329600	-9.995800	26.176960	0.000539	20.770249
2029.632797	-2.996800	3.329000	-9.975500	26.174104	0.000540	20.772121
2030.632798	-2.989400	3.328900	-9.951200	26.177854	0.000539	20.780157
2031.631804	-2.998800	3.327800	-9.978400	26.133597	0.000538	20.766980
2032.632797	-2.988600	3.328600	-9.946700	26.187962	0.000538	20.774667
2033.631797	-3.006200	3.328400	-10.005000	26.177432	0.000539	20.762189
2034.631881	-2.976800	3.328000	-9.906000	26.215057	0.000538	20.762065
2035.631530	-3.011100	3.327600	-10.018000	26.182549	0.000536	20.765434
2036.635531	-2.982700	3.327100	-9.922600	26.148177	0.000538	20.756499
2037.633317	-2.985900	3.327100	-9.933300	26.108067	0.000535	20.776889
2038.630365	-3.001700	3.326700	-9.984700	26.096965	0.000538	20.761941
2039.648259	-3.007700	3.325500	-10.001000	26.084447	0.000536	20.778761
2040.645262	-3.012600	3.325500	-10.017000	26.103423	0.000534	20.764636
2041.632258	-3.000700	3.325500	-9.978100	26.125603	0.000535	20.757524
2042.635259	-3.004800	3.325200	-9.990100	26.149196	0.000534	20.771275
2043.635309	-2.996400	3.325300	-9.963700	26.170630	0.000534	20.768156
2044.635303	-3.008900	3.324700	-10.002000	26.177584	0.000533	20.775618
2045.632302	-2.976700	3.326000	-9.900000	26.190002	0.000533	20.795683
2046.634299	-3.012100	3.323700	-10.009000	26.206716	0.000533	20.786400
2047.632299	-2.997700	3.324100	-9.964200	26.222982	0.000531	20.767184
2048.631429	-2.992500	3.322900	-9.943700	26.228818	0.000531	20.755030
2049.634194	-3.008800	3.322000	-9.993400	26.153918	0.000530	20.762742
2050.635723	-3.006400	3.324000	-9.992400	26.116242	0.000529	20.780362
2051.632720	-2.997500	3.322400	-9.957600	26.096348	0.000529	20.748518
2052.634727	-3.015400	3.322000	-10.016000	26.075784	0.000529	20.778590
2053.632967	-3.011700	3.320500	-9.998600	26.027449	0.000528	20.773649
2054.632617	-3.009800	3.322100	-9.997900	26.023103	0.000529	20.763593
2055.635386	-3.016700	3.322000	-10.020000	26.038031	0.000528	20.754883
2056.634387	-3.002000	3.320100	-9.965000	26.093345	0.000526	20.752612
2057.639386	-2.997200	3.320000	-9.948000	26.109365	0.000526	20.754485
2058.633075	-3.006900	3.320000	-9.981800	26.105739	0.000527	20.768386
2059.644884	-2.995200	3.319700	-9.942600	26.116767	0.000525	20.778992
2060.639885	-3.020100	3.316900	-10.016000	26.083412	0.000526	20.764443
2061.635844	-3.011400	3.318600	-9.992800	26.122331	0.000523	20.785057
2062.636934	-3.023500	3.318500	-10.033000	26.124070	0.000524	20.767364
2063.636178	-2.982800	3.319400	-9.900100	26.176349	0.000523	20.773429
2064.639765	-2.972600	3.319800	-9.866800	26.131322	0.000521	20.766591
2065.638765	-3.005100	3.316200	-9.965500	26.139569	0.000523	20.781041
2066.641765	-3.018500	3.317500	-10.013000	26.101246	0.000521	20.760552
2067.641567	-3.007600	3.315600	-9.971400	26.112821	0.000522	20.773130
2068.639030	-3.001400	3.316400	-9.951600	26.052690	0.000519	20.767241
2069.638874	-2.992100	3.318100	-9.926900	26.062104	0.000520	20.772906
2070.639872	-3.012300	3.315600	-9.985700	26.081998	0.000520	20.757333
2071.642883	-3.013600	3.314700	-9.988500	26.054505	0.000519	20.781866
2072.640821	-3.009400	3.314900	-9.975400	26.090990	0.000518	20.763049
2073.638759	-3.003200	3.315300	-9.955100	26.090767	0.000519	20.750971
2074.641706	-2.996600	3.315100	-9.933100	26.104726	0.000517	20.749823
2075.639709	-2.978200	3.314800	-9.871000	26.124024	0.000516	20.756886
2076.639709	-2.957500	3.315500	-9.804100	26.155367	0.000516	20.777949
2077.652716	-3.012100	3.313300	-9.979200	26.160061	0.000515	20.770338
2078.638766	-3.013200	3.312900	-9.982300	26.156733	0.000515	20.753717
2079.638619	-3.018700	3.312800	-9.997300	26.177892	0.000515	20.782092
2080.641746	-3.034200	3.310400	-10.043000	26.219391	0.000516	20.776377
2081.641750	-3.005800	3.312000	-9.954800	26.254854	0.000511	20.747529
2082.651750	-2.998700	3.313200	-9.932700	26.269456	0.000514	20.793972
2083.644011	-2.981600	3.310800	-9.870600	26.265011	0.000513	20.773384
2084.652275	-2.998700	3.310700	-9.926800	26.268066	0.000513	20.788307
2085.642277	-2.996600	3.311300	-9.921000	26.265433	0.000512	20.769066
2086.644276	-3.028500	3.308700	-10.019000	26.264440	0.000510	20.775655
2087.643276	-2.995100	3.310700	-9.914800	26.281973	0.000510	20.778101
2088.644457	-3.010100	3.309900	-9.961900	26.287436	0.000509	20.787385
2089.643886	-3.016100	3.308500	-9.977700	26.304149	0.000507	20.779050
2090.643863	-3.015700	3.309600	-9.979000	26.313585	0.000508	20.769567
2091.646049	-2.996100	3.310700	-9.918100	26.262753	0.000510	20.772063
2092.645365	-3.008500	3.308300	-9.952400	26.235661	0.000506	20.766174
2093.644158	-2.978800	3.310000	-9.858300	26.204619	0.000509	20.780500
2094.644236	-2.985700	3.308100	-9.875500	26.173228	0.000508	20.787362
2095.646240	-3.001400	3.307900	-9.927100	26.122613	0.000506	20.772539
2096.648209	-3.004000	3.308400	-9.937700	26.076616	0.000505	20.780850
2097.649147	-3.031500	3.306300	-10.022000	26.040552	0.000505	20.774011
2098.646146	-3.018700	3.305800	-9.977900	26.039310	0.000505	20.775609
2099.647951	-3.027700	3.305700	-10.008000	26.058932	0.000504	20.760710
2100.649896	-2.995500	3.307000	-9.905500	26.055555	0.000506	20.786241
2101.648894	-2.989700	3.305100	-9.880100	26.048849	0.000503	20.785193
2102.650126	-3.019900	3.304900	-9.978800	26.067750	0.000504	20.765777
2103.655560	-2.999500	3.305700	-9.912600	26.068172	0.000502	20.793228
2104.651578	-3.000000	3.305400	-9.915100	26.065738	0.000502	20.787938
2105.648581	-3.005900	3.304600	-9.932600	26.077858	0.000500	20.774511
2106.648581	-3.027800	3.303600	-10.002000	26.068198	0.000500	20.791831
2107.648621	-3.001200	3.305800	-9.918200	26.058908	0.000498	20.798144
2108.649141	-3.009900	3.304100	-9.944200	26.072841	0.000501	20.792229
2109.652462	-3.023000	3.302100	-9.981300	26.043558	0.000498	20.799317
2110.649575	-3.004100	3.302800	-9.921200	26.037000	0.000497	20.783720
2111.654573	-3.010400	3.302800	-9.940300	26.040503	0.000498	20.801463
2112.650581	-3.005200	3.301700	-9.921200	26.074581	0.000495	20.795400
2113.651158	-3.005600	3.301900	-9.924000	26.117796	0.000496	20.803260
2114.653379	-3.021500	3.300600	-9.972200	26.160613	0.000495	20.819731
2115.649076	-3.011600	3.301500	-9.941000	26.209612	0.000495	20.806380
2116.651073	-2.985800	3.300900	-9.854900	26.248105	0.000495	20.790533
2117.653072	-3.010900	3.301400	-9.939500	26.270107	0.000493	20.780876
2118.651888	-3.010500	3.300400	-9.934700	26.251458	0.000492	20.785368
2119.653873	-3.017800	3.300100	-9.957300	26.220416	0.000492	20.796848
2120.657905	-2.995400	3.299400	-9.881900	26.224315	0.000492	20.798869
2121.653906	-2.998700	3.298800	-9.890200	26.213512	0.000492	20.804609
2122.652911	-2.990800	3.300100	-9.868500	26.214754	0.000489	20.810598
2123.653399	-3.010100	3.299500	-9.931000	26.216070	0.000490	20.795325
2124.655325	-2.983500	3.299300	-9.842000	26.249174	0.000489	20.794453
2125.652553	-3.008500	3.298400	-9.922700	26.273858	0.000488	20.789387
2126.653594	-2.998600	3.297400	-9.886600	26.300776	0.000486	20.807430
2127.654591	-2.999800	3.298500	-9.892900	26.310858	0.000487	20.812346
2128.657734	-3.000000	3.298400	-9.894400	26.327297	0.000485	20.810375
2129.656430	-3.031600	3.296800	-9.994100	26.343115	0.000487	20.797349
2130.655424	-3.011400	3.295500	-9.922800	26.352997	0.000487	20.829091
2131.654427	-2.995500	3.296000	-9.872500	26.388927	0.000486	20.798821
2132.663352	-2.979100	3.295900	-9.817700	26.389871	0.000486	20.799770
2133.657353	-3.008500	3.295600	-9.913700	26.392528	0.000487	20.815242
2134.655900	-3.004400	3.295400	-9.900000	26.421306	0.000487	20.805285
2135.658425	-3.006100	3.294600	-9.902600	26.414851	0.000485	20.789788
2136.660424	-2.991700	3.296200	-9.861100	26.410680	0.000484	20.805511
2137.667036	-2.991500	3.294600	-9.854300	26.401891	0.000483	20.804738
2138.662027	-3.005000	3.292900	-9.894000	26.407701	0.000484	20.788766
2139.664680	-2.992700	3.293300	-9.854600	26.417137	0.000482	20.821958
2140.661152	-3.001400	3.293000	-9.883100	26.410483	0.000484	20.792985
2141.663155	-3.039900	3.292200	-10.007000	26.410458	0.000479	20.808607
2142.663173	-3.011500	3.293100	-9.914300	26.408472	0.000482	20.794283
2143.659511	-2.996200	3.292000	-9.861900	26.431341	0.000478	20.814422
2144.660503	-2.978400	3.292200	-9.804500	26.439187	0.000482	20.813300
2145.663095	-2.995700	3.291300	-9.858900	26.468385	0.000478	20.804715
2146.661096	-3.016900	3.290200	-9.925400	26.479459	0.000477	20.804940
2147.665099	-3.005600	3.289200	-9.884900	26.487081	0.000477	20.830145
2148.665210	-3.007500	3.289000	-9.890500	26.428735	0.000478	20.814648
2149.660801	-3.006200	3.289900	-9.889500	26.414731	0.000477	20.820962
2150.663809	-3.011300	3.289700	-9.903800	26.358169	0.000476	20.822435
2151.670814	-3.018200	3.288300	-9.923100	26.353228	0.000473	20.826952
2152.664808	-3.013900	3.287200	-9.906100	26.353079	0.000474	20.807837
2153.666929	-3.002000	3.288400	-9.870400	26.361348	0.000473	20.806190
2154.669030	-3.011600	3.287500	-9.900100	26.394099	0.000470	20.826304
2155.663726	-2.994300	3.288300	-9.845000	26.423175	0.000472	20.808112
2156.665725	-2.982000	3.288600	-9.805500	26.447036	0.000472	20.826405
2157.666728	-2.991300	3.286800	-9.831100	26.450960	0.000472	20.820391
2158.672724	-3.012700	3.287300	-9.902300	26.409892	0.000471	20.825582
2159.668368	-3.008400	3.287300	-9.888200	26.402916	0.000471	20.819044
2160.665130	-3.007900	3.286000	-9.882500	26.384492	0.000469	20.843674
2161.664967	-3.046700	3.285600	-10.009000	26.338556	0.000468	20.816475
2162.667112	-3.004900	3.284600	-9.869100	26.335874	0.000468	20.833219
2163.666509	-2.986400	3.286200	-9.812900	26.301036	0.000465	20.816700
2164.663203	-3.011600	3.284200	-9.889600	26.282437	0.000467	20.824561
2165.667961	-2.968300	3.286200	-9.753500	26.321152	0.000466	20.830751
2166.665965	-2.996800	3.285200	-9.844100	26.309704	0.000468	20.818298
2167.665967	-3.010000	3.283700	-9.882600	26.322443	0.000465	20.820669
2168.673965	-2.997000	3.284500	-9.842600	26.347324	0.000464	20.823390
2169.664996	-2.998900	3.283600	-9.845700	26.402101	0.000464	20.817751
2170.665460	-2.991400	3.283300	-9.819600	26.447314	0.000464	20.820046
2171.668462	-3.043300	3.280700	-9.983000	26.440908	0.000465	20.819297
2172.668466	-2.989800	3.281900	-9.811400	26.482546	0.000464	20.827957
2173.670034	-3.023100	3.280500	-9.916300	26.498535	0.000462	20.828382
2174.682822	-3.011300	3.281300	-9.879300	26.484930	0.000463	20.828457
2175.671198	-3.025900	3.280600	-9.925500	26.500869	0.000460	20.830253
2176.672192	-3.009000	3.281200	-9.872800	26.504916	0.000462	20.832424
2177.675200	-3.006200	3.280200	-9.859600	26.501812	0.000461	20.841158
2178.672225	-2.993800	3.279600	-9.816800	26.502929	0.000460	20.826635
2179.681271	-3.008600	3.280200	-9.867000	26.455707	0.000460	20.831800
2180.674646	-2.991400	3.279700	-9.809900	26.445577	0.000460	20.843430
2181.674755	-3.004200	3.278800	-9.849600	26.439915	0.000460	20.843428
2182.677055	-2.984900	3.278800	-9.786300	26.440883	0.000458	20.843453
2183.679056	-3.001600	3.278300	-9.838600	26.468418	0.000457	20.845999
2184.675573	-3.006900	3.277700	-9.853900	26.476288	0.000455	20.836366
2185.684385	-2.995300	3.278400	-9.818300	26.529245	0.000456	20.839809
2186.678389	-3.003900	3.275500	-9.838000	26.549678	0.000456	20.822891
2187.676389	-2.988700	3.277000	-9.792800	26.589895	0.000456	20.846248
2188.677510	-2.981600	3.277000	-9.768400	26.596548	0.000454	20.825909
2189.680176	-3.020000	3.276200	-9.891400	26.624947	0.000453	20.841655
2190.678430	-2.996800	3.274400	-9.811000	26.642597	0.000451	20.842329
2191.678432	-3.010400	3.275000	-9.858400	26.617524	0.000453	20.852685
2192.681431	-3.004000	3.274300	-9.834300	26.625667	0.000452	20.857077
2193.682798	-3.014900	3.275200	-9.873800	26.635944	0.000453	20.861244
2194.690827	-3.009400	3.273800	-9.849500	26.646221	0.000451	20.841230
2195.684266	-2.997100	3.273500	-9.809600	26.654834	0.000451	20.833769
2196.680265	-3.003300	3.273800	-9.829600	26.691002	0.000450	20.842153
2197.680266	-3.028100	3.271900	-9.904400	26.692466	0.000450	20.876340
2198.681273	-2.993000	3.272500	-9.792900	26.648826	0.000449	20.846694
2199.684584	-3.006200	3.272600	-9.838000	26.647957	0.000450	20.852933
2200.681828	-2.979700	3.273700	-9.753700	26.698423	0.000449	20.853406
2201.681858	-3.025900	3.270900	-9.895800	26.687872	0.000447	20.858447
2202.684859	-2.973700	3.271900	-9.728500	26.717659	0.000447	20.872270
2203.683858	-2.995000	3.271400	-9.796800	26.704030	0.000447	20.863785
2204.682317	-2.996500	3.270100	-9.797800	26.700803	0.000447	20.866705
2205.689170	-2.990000	3.271000	-9.779200	26.644032	0.000446	20.858944
2206.682103	-3.001500	3.270700	-9.814600	26.608855	0.000444	20.864832
2207.683022	-3.000500	3.268200	-9.805100	26.601481	0.000443	20.856472
2208.687163	-3.001600	3.268300	-9.809400	26.633281	0.000443	20.852404
2209.683856	-3.011300	3.269500	-9.844500	26.631171	0.000442	20.859765
2210.682362	-3.015400	3.268100	-9.853200	26.634000	0.000443	20.879678
2211.685359	-2.990500	3.269400	-9.776300	26.662821	0.000440	20.875935
2212.683360	-2.996300	3.267900	-9.790700	26.695041	0.000442	20.869446
2213.685369	-3.004300	3.267700	-9.816200	26.723610	0.000440	20.885839
2214.695358	-3.020900	3.265100	-9.862300	26.707897	0.000441	20.892801
2215.687417	-2.993200	3.268000	-9.779900	26.684192	0.000439	20.880823
2216.685837	-3.007500	3.265700	-9.820900	26.697819	0.000437	20.872713
2217.689838	-2.995000	3.264800	-9.776700	26.697794	0.000436	20.901135
2218.686874	-3.005900	3.265700	-9.815200	26.664629	0.000436	20.879649
2219.688619	-3.002700	3.265300	-9.803300	26.663438	0.000436	20.905950
2220.690608	-3.001000	3.264100	-9.795000	26.662940	0.000435	20.896916
2221.688355	-3.001700	3.264500	-9.797600	26.664604	0.000433	20.881994
2222.688355	-3.006900	3.264900	-9.816000	26.659366	0.000432	20.875306
2223.692552	-3.020000	3.263400	-9.854300	26.653383	0.000430	20.882567
2224.690279	-3.008000	3.262400	-9.812500	26.672000	0.000430	20.897963
2225.688784	-3.008900	3.261800	-9.813700	26.691089	0.000430	20.884438
2226.693786	-2.970000	3.263200	-9.690000	26.707001	0.000429	20.872935
2227.695790	-3.002900	3.261800	-9.794100	26.699678	0.000430	20.904451
2228.696792	-2.997600	3.261800	-9.776400	26.675550	0.000429	20.874507
2229.693794	-2.994200	3.260800	-9.762400	26.662094	0.000428	20.874730
2230.688718	-2.995400	3.261200	-9.767400	26.707297	0.000426	20.896465
2231.689945	-2.981000	3.260800	-9.719600	26.704368	0.000428	20.887356
2232.693949	-3.003100	3.260300	-9.790300	26.706478	0.000426	20.916502
2233.689898	-2.988000	3.260500	-9.741300	26.708166	0.000425	20.923414
2234.691644	-2.987500	3.260400	-9.738400	26.717474	0.000423	20.909066
2235.695033	-3.013800	3.259700	-9.823400	26.721669	0.000425	20.900956
2236.690706	-2.991200	3.259400	-9.749100	26.747732	0.000424	20.908192
2237.692707	-3.001300	3.256600	-9.772900	26.782606	0.000424	20.902003
2238.695994	-2.992000	3.258300	-9.746900	26.797350	0.000423	20.899758
2239.696301	-2.993600	3.257400	-9.750300	26.789556	0.000423	20.908516
2240.707947	-3.016500	3.258000	-9.827300	26.797970	0.000422	20.913657
2241.698944	-3.000900	3.257100	-9.773400	26.776053	0.000421	20.898260
2242.696948	-3.013500	3.254600	-9.806000	26.792286	0.000421	20.913632
2243.694948	-2.999500	3.256200	-9.765400	26.795736	0.000422	20.909515
2244.698374	-3.013700	3.255400	-9.810000	26.804423	0.000420	20.904499
2245.696743	-3.002500	3.254200	-9.768500	26.830881	0.000421	20.896489
2246.693591	-3.014500	3.255000	-9.811100	26.829789	0.000422	20.918148
2247.696594	-2.990700	3.255200	-9.734000	26.882008	0.000419	20.916600
2248.697876	-3.007600	3.253100	-9.783800	26.892854	0.000419	20.884362
2249.695305	-3.006700	3.252000	-9.776600	26.858356	0.000418	20.916526
2250.696791	-3.020200	3.252200	-9.821400	26.833710	0.000417	20.914978
2251.698543	-3.013900	3.253300	-9.804400	26.841950	0.000418	20.911410
2252.697546	-3.015800	3.251900	-9.806400	26.856146	0.000415	20.917623
2253.698702	-2.975200	3.253000	-9.677300	26.821473	0.000413	20.928752
2254.702055	-2.981500	3.252000	-9.694800	26.845449	0.000413	20.912557
2255.697083	-2.974200	3.252400	-9.672400	26.829837	0.000412	20.928626
2256.705096	-2.977300	3.251800	-9.679900	26.861432	0.000411	20.921041
2257.701097	-2.996000	3.250300	-9.736900	26.865030	0.000410	20.909961
2258.700097	-3.001300	3.249700	-9.752200	26.893198	0.000409	20.926903
2259.701762	-3.010200	3.249800	-9.780400	26.901562	0.000410	20.920615
2260.698903	-2.969400	3.250600	-9.650800	26.930326	0.000409	20.914451
2261.702812	-3.011500	3.248700	-9.781800	26.929184	0.000407	20.915674
2262.700814	-3.014900	3.246900	-9.788200	26.975541	0.000407	20.944269
2263.701829	-3.015800	3.247500	-9.792100	26.965391	0.000407	20.937382
2264.701969	-2.961200	3.249600	-9.621500	26.975094	0.000407	20.913951
2265.706001	-2.991400	3.247300	-9.711600	26.972786	0.000406	20.939602
2266.703492	-3.021500	3.245000	-9.804500	26.993235	0.000406	20.937881
2267.702702	-3.015700	3.246800	-9.790000	26.975366	0.000406	20.927500
2268.711222	-3.005400	3.246100	-9.755300	26.946281	0.000404	20.916745
2269.703220	-2.995500	3.244700	-9.719100	26.883368	0.000404	20.931717
2270.704953	-3.011500	3.246100	-9.774100	26.851377	0.000402	20.922784
2271.705276	-2.985000	3.245500	-9.686600	26.869246	0.000402	20.913726
2272.703233	-3.012600	3.244600	-9.773200	26.861502	0.000400	20.931068
2273.703236	-3.006800	3.242600	-9.748700	26.930944	0.000401	20.919814
2274.704270	-3.021300	3.243400	-9.798500	26.913571	0.000401	20.927474
2275.706479	-3.014700	3.242800	-9.774500	26.912603	0.000400	20.922708
2276.704266	-3.004100	3.242700	-9.740600	26.885824	0.000400	20.926601
2277.703739	-2.996700	3.242900	-9.717000	26.850532	0.000399	20.934736
2278.703742	-3.006900	3.242900	-9.749600	26.861750	0.000399	20.917568
2279.703740	-3.016300	3.241000	-9.774700	26.857530	0.000398	20.931815
2280.704744	-3.001400	3.240700	-9.726300	26.872472	0.000398	20.941148
2281.705117	-3.005200	3.241000	-9.738700	26.903570	0.000399	20.922159
2282.704907	-3.024000	3.239700	-9.796400	26.941739	0.000396	20.906963
2283.704908	-3.008100	3.240600	-9.747000	26.946653	0.000396	20.922808
2284.706070	-3.014300	3.239400	-9.762800	26.905580	0.000397	20.922284
2285.705543	-3.020000	3.239400	-9.782000	26.924342	0.000396	20.908909
2286.704407	-3.019700	3.237100	-9.772000	26.901981	0.000395	20.931940
2287.705873	-3.002200	3.239500	-9.724700	26.896720	0.000394	20.903420
2288.705875	-3.022500	3.237400	-9.783800	26.924144	0.000394	20.905866
2289.706879	-2.971200	3.238300	-9.620600	26.924739	0.000395	20.926376
2290.706875	-3.021100	3.236800	-9.777100	26.926750	0.000393	20.913227
2291.706330	-3.010700	3.236300	-9.741500	26.964000	0.000391	20.926502
2292.705426	-3.034400	3.236000	-9.818800	26.933923	0.000391	20.913327
2293.706427	-3.007700	3.235400	-9.729600	26.879447	0.000392	20.934886
2294.709802	-2.988800	3.234700	-9.666300	26.833607	0.000392	20.914874
2295.710114	-3.004500	3.234400	-9.716400	26.861603	0.000391	20.911256
2296.712973	-3.002100	3.234300	-9.708500	26.845023	0.000388	20.922086
2297.707114	-3.021300	3.233400	-9.767500	26.904688	0.000387	20.901001
2298.707500	-3.004800	3.232800	-9.712800	26.888333	0.000389	20.911581
2299.707563	-3.022700	3.232600	-9.770500	26.868503	0.000387	20.907289
2300.709845	-3.021100	3.232100	-9.762600	26.857459	0.000388	20.910409
2301.706202	-3.015200	3.231300	-9.741200	26.838845	0.000387	20.895961
2302.706221	-2.999000	3.231600	-9.690800	26.839018	0.000386	20.915574
2303.707235	-2.983800	3.232600	-9.644500	26.850435	0.000385	20.893865
2304.707237	-3.007400	3.229900	-9.711800	26.869273	0.000384	20.884832
2305.709382	-2.981700	3.231100	-9.632200	26.864185	0.000383	20.891569
2306.708585	-3.016400	3.228900	-9.738900	26.888358	0.000381	20.895013
2307.707950	-2.997000	3.229500	-9.676500	26.906774	0.000382	20.902624
2308.707952	-3.001200	3.229100	-9.690200	26.907469	0.000383	20.893841
2309.708954	-3.002100	3.228500	-9.691700	26.928763	0.000383	20.882537
2310.710958	-2.995600	3.229100	-9.671800	26.943257	0.000380	20.895688
2311.709857	-3.008100	3.227200	-9.706600	26.974750	0.000382	20.898434
2312.708378	-3.026100	3.225800	-9.761000	26.995446	0.000377	20.903124
2313.709381	-2.976200	3.226800	-9.602100	26.980731	0.000378	20.902077
2314.712382	-3.007000	3.227000	-9.702900	26.964004	0.000380	20.868664
2315.711379	-2.973200	3.228400	-9.597600	26.970805	0.000378	20.892570
2316.711381	-2.997200	3.226500	-9.669900	26.974751	0.000376	20.870461
2317.712443	-3.000800	3.226100	-9.679400	26.998104	0.000376	20.904848
2318.709249	-2.988300	3.225300	-9.636500	27.002322	0.000375	20.899608
2319.710251	-2.990100	3.223400	-9.637900	26.999717	0.000376	20.893669
2320.711462	-2.967700	3.224300	-9.567600	26.993216	0.000373	20.880494
2321.715960	-3.004300	3.223300	-9.682100	27.039224	0.000373	20.882192
2322.711691	-3.000100	3.223100	-9.668100	27.038305	0.000374	20.881742
2323.714271	-2.991400	3.223400	-9.640900	27.036817	0.000372	20.877875
2324.712280	-2.984000	3.222400	-9.614700	27.044386	0.000372	20.874108
2325.713277	-2.992300	3.222600	-9.641400	27.039002	0.000371	20.869167
2326.715804	-2.984300	3.222500	-9.615600	27.034114	0.000371	20.883691
2327.713024	-3.020000	3.219700	-9.722900	26.995873	0.000371	20.872736
2328.713485	-3.012600	3.219000	-9.696200	26.945024	0.000370	20.867596
2329.721490	-2.986900	3.219800	-9.616900	26.930457	0.000370	20.899886
2330.715486	-2.980900	3.219900	-9.597700	26.959319	0.000369	20.857789
2331.716904	-3.012100	3.217700	-9.691200	26.973118	0.000369	20.866449
2332.722093	-3.011000	3.216500	-9.684300	26.975376	0.000367	20.856867
2333.715215	-2.993200	3.219400	-9.635900	27.003518	0.000368	20.852450
2334.716211	-2.993700	3.217900	-9.632100	27.023767	0.000367	20.858589
2335.720211	-3.009700	3.216300	-9.679600	27.068608	0.000366	20.849630
2336.720210	-2.998900	3.217000	-9.646000	27.065258	0.000366	20.874235
2337.717898	-2.978100	3.216500	-9.577800	27.062801	0.000362	20.865127
2338.721266	-2.998000	3.217000	-9.643800	27.032825	0.000364	20.864852
2339.717257	-3.026200	3.215300	-9.729300	27.017365	0.000362	20.864478
2340.718899	-2.981300	3.215900	-9.586400	27.042180	0.000363	20.856717
2341.722159	-2.999400	3.214500	-9.639900	27.027390	0.000362	20.842318
2342.729432	-2.986200	3.213900	-9.596300	27.068632	0.000360	20.866250
2343.718990	-2.963900	3.215200	-9.527500	27.058781	0.000362	20.877204
2344.722994	-2.994100	3.213900	-9.621800	27.026324	0.000362	20.854047
2345.718992	-3.012000	3.212500	-9.675200	27.038507	0.000360	20.856343
2346.719970	-2.997100	3.213000	-9.629100	27.043842	0.000361	20.871190
2347.747516	-3.010300	3.210900	-9.664900	27.062057	0.000362	20.843990
2348.718230	-2.998200	3.211000	-9.626500	27.054340	0.000359	20.858040
2349.719236	-2.998800	3.212500	-9.632500	27.017962	0.000358	20.838526
2350.723231	-2.999600	3.211300	-9.630500	27.008680	0.000357	20.851477
2351.722239	-2.988900	3.210400	-9.594000	27.042752	0.000355	20.850180
2352.734910	-3.000800	3.210000	-9.631300	27.026920	0.000355	20.853224
2353.727969	-3.028100	3.208400	-9.714200	27.070147	0.000357	20.858764
2354.721970	-3.014300	3.208300	-9.669700	27.089205	0.000355	20.844266
2355.721352	-2.997200	3.209000	-9.617400	27.113870	0.000355	20.816442
2356.727467	-3.039900	3.207600	-9.750100	27.096650	0.000355	20.841797
2357.723922	-3.028500	3.206200	-9.708300	27.131810	0.000356	20.854873
2358.725387	-3.011000	3.205100	-9.649400	27.101216	0.000352	20.854924
2359.726985	-3.021300	3.205200	-9.682400	27.079033	0.000353	20.838778
2360.724990	-2.993100	3.204400	-9.589500	27.018411	0.000352	20.836607
2361.724523	-3.004000	3.206400	-9.631000	26.966918	0.000351	20.833190
2362.730690	-2.992100	3.204300	-9.586000	26.944459	0.000351	20.858493
2363.724832	-2.981800	3.205000	-9.556100	26.962502	0.000352	20.845343
2364.725502	-2.976800	3.207600	-9.547200	26.984365	0.000353	20.871121
2365.728505	-3.000700	3.203300	-9.610900	26.990669	0.000351	20.858494
2366.726755	-3.019500	3.204300	-9.673800	27.067819	0.000349	20.838406
2367.725978	-3.022300	3.202000	-9.675800	27.081815	0.000349	20.847740
2368.730336	-3.006500	3.201200	-9.623300	27.100253	0.000349	20.824558
2369.724446	-3.005400	3.200300	-9.615600	27.074496	0.000348	20.837061
2370.726454	-3.011700	3.200400	-9.637100	27.085216	0.000347	20.829350
2371.731443	-2.971800	3.201300	-9.512700	27.090304	0.000346	20.843001
2372.729444	-2.998300	3.198800	-9.590300	27.072513	0.000345	20.836963
2373.729482	-3.004800	3.199000	-9.611700	27.109039	0.000346	20.852834
2374.729618	-2.988000	3.199000	-9.557600	27.123579	0.000346	20.831423
2375.729623	-2.997200	3.201900	-9.594700	27.136335	0.000347	20.842355
2376.728650	-2.991000	3.200000	-9.570200	27.127551	0.000344	20.824512
2377.730554	-2.989200	3.197900	-9.558100	27.169832	0.000343	20.832423
2378.730485	-3.001400	3.196900	-9.594000	27.179236	0.000343	20.824339
2379.728369	-3.011600	3.196000	-9.624200	27.200276	0.000343	20.841233
2380.733599	-2.995600	3.198100	-9.579100	27.132740	0.000339	20.830205
2381.733596	-2.988200	3.198000	-9.555800	27.101600	0.000343	20.825439
2382.733595	-2.994900	3.195600	-9.569100	27.056241	0.000341	20.811590
2383.731462	-2.997900	3.195300	-9.577700	27.041725	0.000340	20.822596
2384.731928	-2.989900	3.195600	-9.552700	27.074878	0.000339	20.825591
2385.731933	-2.984800	3.195000	-9.535400	27.072521	0.000338	20.821799
2386.735929	-2.988800	3.193500	-9.543800	27.109271	0.000338	20.817982
2387.732926	-3.003400	3.192800	-9.587200	27.139196	0.000338	20.829112
2388.734830	-3.017400	3.192300	-9.631200	27.120960	0.000336	20.817883
2389.736001	-3.020400	3.190800	-9.637000	27.144235	0.000338	20.820429
2390.736003	-3.014500	3.190300	-9.614400	27.112004	0.000338	20.822152
2391.734037	-3.004000	3.191800	-9.586700	27.092923	0.000336	20.810074
2392.738565	-2.983600	3.190700	-9.519000	27.079377	0.000335	20.825374
2393.738061	-3.000100	3.191800	-9.574800	27.093893	0.000335	20.823852
2394.734328	-2.992700	3.189500	-9.544700	27.065408	0.000335	20.807532
2395.739327	-2.989000	3.189700	-9.532900	27.006597	0.000334	20.830891
2396.738331	-2.968700	3.190000	-9.469300	26.946890	0.000333	20.810679
2397.738711	-2.966800	3.190800	-9.466000	26.953741	0.000332	20.814723
2398.740404	-2.977700	3.188600	-9.492900	26.944063	0.000331	20.835337
2399.740047	-2.983700	3.187200	-9.507400	26.955381	0.000331	20.811631
2400.739051	-2.985500	3.188100	-9.516600	27.032559	0.000331	20.829025
2401.742052	-2.993000	3.185400	-9.533000	27.061569	0.000331	20.812681
2402.739524	-3.011200	3.185000	-9.589600	27.100652	0.000332	20.824960
2403.738488	-3.024700	3.183700	-9.628600	27.114078	0.000331	20.822342
2404.762579	-3.034700	3.184600	-9.662200	27.151297	0.000328	20.810463
2405.740584	-3.019300	3.184900	-9.615100	27.161645	0.000330	20.818500
2406.739586	-3.004400	3.183400	-9.561700	27.235286	0.000328	20.806273
2407.744699	-3.001800	3.184100	-9.557600	27.220922	0.000330	20.801782
2408.739869	-3.021200	3.181000	-9.609500	27.190505	0.000329	20.806276
2409.749809	-2.988500	3.182400	-9.510400	27.175545	0.000330	20.795497
2410.742985	-2.972900	3.181800	-9.457200	27.138700	0.000327	20.792104
2411.742987	-2.997000	3.181500	-9.533200	27.156045	0.000327	20.805281
2412.742749	-2.987900	3.180200	-9.501000	27.188673	0.000328	20.785942
2413.743598	-3.012200	3.179700	-9.575800	27.215247	0.000327	20.791807
2414.742838	-2.996000	3.179500	-9.524500	27.288711	0.000327	20.790311
2415.741038	-3.013400	3.178800	-9.576600	27.283651	0.000328	20.783799
2416.745042	-2.978000	3.178500	-9.464700	27.298464	0.000326	20.791113
2417.743042	-2.980100	3.176600	-9.465900	27.312184	0.000323	20.776465
2418.742589	-2.991200	3.176500	-9.500400	27.319578	0.000324	20.815671
2419.746165	-3.005900	3.176800	-9.548400	27.335433	0.000321	20.796059
2420.743975	-3.002000	3.176600	-9.533900	27.350243	0.000324	20.789146
2421.741974	-3.001200	3.175100	-9.527200	27.357166	0.000322	20.802749
2422.746278	-2.981900	3.174700	-9.465200	27.399413	0.000324	20.779341
2423.743405	-2.986500	3.175400	-9.482200	27.421666	0.000324	20.775175
2424.741954	-3.026400	3.172600	-9.600800	27.393387	0.000323	20.792245
2425.740616	-3.007200	3.172500	-9.539800	27.359180	0.000323	20.774428
2426.742616	-3.016300	3.172100	-9.567000	27.331520	0.000323	20.776475
2427.742619	-2.995600	3.171900	-9.499900	27.289867	0.000321	20.793371
2428.743693	-3.004600	3.171800	-9.528800	27.280143	0.000321	20.783115
2429.750901	-3.013200	3.168600	-9.546800	27.311156	0.000322	20.790130
2430.742363	-2.992400	3.170600	-9.486200	27.334998	0.000320	20.784716
2431.744364	-2.994900	3.170200	-9.493300	27.334651	0.000320	20.777728
2432.745369	-3.012100	3.167400	-9.539400	27.344676	0.000320	20.787813
2433.747364	-2.999700	3.168600	-9.503600	27.323715	0.000320	20.764356
2434.750235	-2.998200	3.168100	-9.496600	27.275189	0.000319	20.761062
2435.746255	-2.996900	3.168500	-9.494400	27.244773	0.000318	20.771719
2436.747256	-2.999700	3.165100	-9.494000	27.292508	0.000319	20.784648
2437.749258	-3.013300	3.165500	-9.537500	27.295784	0.000318	20.769451
2438.749073	-2.990300	3.166200	-9.466700	27.310373	0.000318	20.770849
2439.748602	-3.002200	3.164200	-9.498700	27.297547	0.000317	20.782130
2440.750219	-3.007300	3.163100	-9.511300	27.251527	0.000317	20.784677
2441.748383	-3.006100	3.162000	-9.504800	27.284773	0.000316	20.779712
2442.748386	-3.004100	3.162900	-9.500200	27.311567	0.000313	20.761619
2443.749809	-3.010800	3.161800	-9.519100	27.344886	0.000313	20.756255
2444.749771	-3.022300	3.160300	-9.550800	27.355875	0.000313	20.773949
2445.749490	-3.030400	3.160500	-9.576000	27.409957	0.000312	20.751066
2446.753523	-2.984800	3.162100	-9.437400	27.409411	0.000314	20.782287
2447.749523	-2.981700	3.159900	-9.420300	27.425884	0.000315	20.775625
2448.750054	-2.998000	3.159300	-9.471100	27.407850	0.000312	20.753214
2449.750800	-2.998800	3.158400	-9.470100	27.410679	0.000312	20.769811
2450.749549	-2.969800	3.158700	-9.380300	27.439008	0.000311	20.747102
2451.750029	-2.996500	3.156100	-9.455400	27.450743	0.000312	20.756537
2452.750028	-3.003400	3.155700	-9.476100	27.429782	0.000311	20.761529
2453.753030	-3.011400	3.155600	-9.502100	27.404059	0.000310	20.761255
2454.753933	-3.009800	3.154900	-9.494600	27.358687	0.000311	20.746431
2455.752291	-3.018000	3.154800	-9.520700	27.347154	0.000311	20.756640
2456.751493	-3.004900	3.153000	-9.472700	27.358566	0.000310	20.756266
2457.752498	-3.006500	3.152600	-9.477300	27.395033	0.000309	20.741742
2458.754636	-2.969800	3.153900	-9.365500	27.370575	0.000310	20.754596
2459.756634	-3.000700	3.153100	-9.460600	27.359586	0.000310	20.744016
2460.753489	-3.008500	3.152800	-9.483600	27.348993	0.000309	20.760861
2461.766557	-2.996500	3.151500	-9.442000	27.354898	0.000309	20.753524
2462.755555	-3.012500	3.149100	-9.486100	27.365788	0.000308	20.727020
2463.756554	-2.994600	3.150500	-9.432800	27.356263	0.000308	20.747312
2464.759645	-2.999500	3.148300	-9.442700	27.325031	0.000309	20.738652
2465.755817	-2.990500	3.148800	-9.415200	27.312478	0.000308	20.736456
2466.759171	-2.991100	3.146400	-9.409900	27.355645	0.000306	20.749534
2467.756649	-2.984100	3.145300	-9.384700	27.352272	0.000306	20.745193
2468.757655	-3.010200	3.144800	-9.464200	27.372217	0.000305	20.744868
2469.757653	-2.994500	3.146000	-9.419800	27.393775	0.000304	20.728148
2470.756495	-3.006700	3.144500	-9.452700	27.430339	0.000306	20.737432
2471.759298	-3.001900	3.144900	-9.440100	27.433068	0.000305	20.737807
2472.759303	-3.037000	3.142300	-9.541100	27.462638	0.000305	20.738158
2473.760303	-3.006900	3.142600	-9.448300	27.439495	0.000305	20.747117
2474.763301	-3.016000	3.142000	-9.474500	27.467500	0.000305	20.740205
2475.761299	-3.038800	3.139800	-9.539800	27.446119	0.000302	20.730547
2476.759786	-2.969800	3.141800	-9.329500	27.492628	0.000304	20.743200
2477.762183	-2.999000	3.138900	-9.412200	27.469263	0.000304	20.742927
2478.759189	-2.982400	3.138400	-9.359200	27.401098	0.000303	20.740257
2479.761723	-2.999400	3.136700	-9.406600	27.396584	0.000304	20.744725
2480.773773	-3.008700	3.137100	-9.437900	27.368231	0.000302	20.739910
2481.759770	-2.990300	3.137200	-9.379300	27.390235	0.000302	20.739760
2482.760046	-3.006500	3.136400	-9.428700	27.407153	0.000303	20.736391
2483.765045	-2.980700	3.135600	-9.344700	27.400754	0.000302	20.731850
2484.764047	-3.009000	3.133600	-9.427500	27.403484	0.000301	20.741709
2485.766833	-3.007200	3.134500	-9.424900	27.424372	0.000303	20.729057
2486.767825	-3.003700	3.131900	-9.406200	27.418791	0.000303	20.728659
2487.764338	-2.993500	3.132700	-9.375400	27.399418	0.000301	20.737618
2488.764341	-2.999200	3.130900	-9.389200	27.391703	0.000302	20.746453
2489.767338	-3.007800	3.130800	-9.415100	27.397807	0.000300	20.718927
2490.765137	-2.977700	3.129200	-9.316700	27.399023	0.000301	20.748601
2491.765919	-3.000900	3.127600	-9.384900	27.401058	0.000300	20.738794
2492.769360	-2.997000	3.127300	-9.370100	27.402323	0.000299	20.728687
2493.767363	-2.992700	3.127600	-9.358800	27.413811	0.000300	20.735028
2494.767361	-2.991700	3.126100	-9.350800	27.410090	0.000300	20.716585
2495.771358	-3.011100	3.126300	-9.412700	27.398307	0.000298	20.733656
2496.779355	-2.993600	3.126200	-9.358200	27.381464	0.000298	20.724772
2497.770752	-3.009200	3.122700	-9.395100	27.380174	0.000298	20.753821
2498.783122	-3.009000	3.123000	-9.396400	27.349613	0.000298	20.723551
2499.769122	-3.036800	3.121700	-9.478800	27.357303	0.000296	20.729865
2500.770124	-2.991600	3.122100	-9.339500	27.344181	0.000297	20.708128
2501.774248	-2.981900	3.119900	-9.302500	27.353807	0.000296	20.722554
2502.771597	-3.009500	3.119600	-9.387700	27.369709	0.000298	20.734284
2503.770925	-3.014000	3.118000	-9.397600	27.336270	0.000295	20.723878
2504.774928	-3.036600	3.117500	-9.465000	27.328134	0.000298	20.716168
2505.770896	-2.996200	3.117200	-9.339000	27.330020	0.000296	20.746990
2506.772826	-3.020500	3.116900	-9.413400	27.322182	0.000295	20.731519
2507.771200	-3.003100	3.115600	-9.354200	27.375791	0.000295	20.738032
2508.769375	-3.003100	3.115500	-9.355700	27.405387	0.000296	20.728924
2509.780376	-3.032300	3.113000	-9.439000	27.438875	0.000296	20.729423
2510.776642	-2.985800	3.113200	-9.293800	27.449566	0.000295	20.736386
2511.771195	-2.990800	3.112200	-9.307200	27.458448	0.000294	20.717346
2512.772058	-2.998100	3.112000	-9.328500	27.511059	0.000294	20.723336
2513.772244	-3.001600	3.110200	-9.334500	27.529514	0.000294	20.741431
2514.772284	-3.016800	3.109300	-9.378000	27.527950	0.000294	20.715200
2515.772810	-2.990400	3.109500	-9.297800	27.519370	0.000294	20.729802
2516.776826	-3.001200	3.109500	-9.330700	27.538766	0.000293	20.730350
2517.771653	-2.982600	3.107600	-9.266500	27.541049	0.000292	20.732648
2518.771980	-3.009800	3.107100	-9.350900	27.548392	0.000296	20.731026
2519.774985	-2.972700	3.105700	-9.231700	27.579221	0.000293	20.725061
2520.773984	-3.012500	3.103400	-9.348200	27.610645	0.000295	20.731550
2521.774987	-3.004100	3.104100	-9.322800	27.640929	0.000293	20.763920
2522.775184	-2.987400	3.103100	-9.269000	27.600479	0.000294	20.735071
2523.773261	-2.989400	3.103200	-9.275000	27.595270	0.000294	20.702802
2524.773297	-2.999200	3.101800	-9.302100	27.614988	0.000295	20.738765
2525.781292	-2.967100	3.101100	-9.200900	27.599363	0.000294	20.740113
2526.773294	-2.980900	3.098800	-9.235300	27.634532	0.000294	20.748948
2527.774054	-2.989700	3.099100	-9.264300	27.646213	0.000295	20.744581
2528.778044	-3.006500	3.096400	-9.308300	27.610501	0.000293	20.748001
2529.774607	-3.000700	3.097000	-9.291300	27.629722	0.000292	20.738892
2530.775608	-3.023200	3.094700	-9.354800	27.639494	0.000292	20.750622
2531.778610	-2.995400	3.093300	-9.264700	27.682348	0.000293	20.754863
2532.778605	-2.983500	3.094000	-9.229900	27.685523	0.000295	20.738617
2533.779768	-2.985400	3.092200	-9.230200	27.725376	0.000293	20.748376
2534.780635	-3.004700	3.092100	-9.290100	27.765302	0.000292	20.738294
2535.780639	-3.006100	3.091700	-9.292000	27.784568	0.000293	20.737294
2536.780643	-3.026900	3.089800	-9.351600	27.797042	0.000291	20.745106
2537.781638	-2.970700	3.090600	-9.180200	27.795059	0.000291	20.731256
2538.780126	-3.022500	3.088600	-9.334600	27.784842	0.000291	20.724766
2539.782825	-2.981700	3.087900	-9.206200	27.813235	0.000291	20.735324
2540.784828	-2.988500	3.087400	-9.225900	27.799249	0.000292	20.730257
2541.782831	-2.988100	3.085500	-9.219200	27.753844	0.000291	20.735298
2542.781826	-3.003100	3.084000	-9.260200	27.687508	0.000291	20.747727
2543.785826	-3.008100	3.083700	-9.275300	27.674884	0.000293	20.735972
2544.781160	-2.982500	3.082600	-9.193000	27.636146	0.000290	20.749150
2545.781535	-2.991700	3.081500	-9.217700	27.602465	0.000290	20.753192
2546.785538	-2.982400	3.081000	-9.188100	27.602142	0.000291	20.724891
2547.783536	-2.989300	3.081600	-9.209400	27.587015	0.000292	20.742387
2548.785310	-3.002400	3.078600	-9.242100	27.545966	0.000291	20.756562
2549.786806	-3.030800	3.077700	-9.326100	27.525157	0.000288	20.734676
2550.784035	-3.012300	3.075900	-9.264400	27.476293	0.000289	20.750474
2551.783039	-2.998500	3.075200	-9.219700	27.476045	0.000290	20.756862
2552.784118	-2.999200	3.073600	-9.217700	27.508762	0.000290	20.759908
2553.782645	-2.987700	3.073700	-9.182500	27.539817	0.000289	20.753220
2554.782981	-2.992500	3.072700	-9.194600	27.615664	0.000291	20.760309
2555.784934	-2.969500	3.073200	-9.124900	27.654600	0.000290	20.770565
2556.783111	-2.999400	3.070200	-9.207500	27.682551	0.000291	20.750326
2557.783111	-2.999100	3.070600	-9.208200	27.706805	0.000290	20.768094
2558.784119	-3.010700	3.068100	-9.236500	27.741499	0.000291	20.758437
2559.782730	-3.026300	3.066000	-9.276900	27.695794	0.000292	20.742315
2560.799439	-3.001500	3.066000	-9.201700	27.636348	0.000289	20.747930
2561.783440	-2.992900	3.065800	-9.174800	27.594186	0.000290	20.757664
2562.783438	-2.988900	3.064300	-9.157100	27.561893	0.000291	20.752672
2563.783444	-2.983800	3.062900	-9.138600	27.550732	0.000288	20.777005
2564.784518	-2.958600	3.063600	-9.061800	27.535305	0.000288	20.750576
2565.783680	-3.005900	3.059500	-9.195900	27.545277	0.000288	20.762032
2566.784606	-2.998200	3.059900	-9.173800	27.568838	0.000288	20.751125
2567.784606	-3.002300	3.058900	-9.182700	27.601031	0.000288	20.772612
2568.785606	-3.016800	3.056600	-9.220800	27.625386	0.000288	20.752073
2569.787116	-3.009200	3.055800	-9.194300	27.648053	0.000288	20.760183
2570.786865	-3.008100	3.054700	-9.187300	27.643143	0.000289	20.748604
2571.784759	-2.996700	3.055200	-9.154500	27.653856	0.000290	20.772660
2572.785758	-3.026100	3.053300	-9.238200	27.694528	0.000290	20.755266
2573.785758	-3.013600	3.052600	-9.198600	27.652093	0.000288	20.775629
2574.788757	-3.026000	3.050700	-9.230000	27.618017	0.000289	20.760780
2575.786998	-3.017600	3.050000	-9.201900	27.549290	0.000290	20.770812
2576.793400	-2.994400	3.049300	-9.129600	27.516895	0.000289	20.758607
2577.789402	-2.995800	3.047600	-9.129000	27.479240	0.000290	20.776672
2578.797402	-3.008700	3.045500	-9.162200	27.504913	0.000289	20.759828
2579.794361	-2.993800	3.045200	-9.116000	27.538844	0.000288	20.763147
2580.788427	-2.996100	3.044400	-9.120400	27.603428	0.000288	20.767912
2581.790192	-3.007500	3.044000	-9.153500	27.645416	0.000286	20.760848
2582.794195	-2.978700	3.042200	-9.059600	27.701537	0.000288	20.749991
2583.792192	-3.001900	3.040400	-9.126200	27.725838	0.000287	20.789145
2584.793124	-2.985900	3.040200	-9.076700	27.750759	0.000288	20.794309
2585.794481	-2.999200	3.039400	-9.115100	27.753956	0.000286	20.796104
2586.797091	-3.018700	3.037400	-9.168600	27.720875	0.000286	20.777512
2587.793090	-3.014400	3.037000	-9.152900	27.650369	0.000287	20.757297
2588.795175	-2.968900	3.036600	-9.014100	27.640001	0.000288	20.770573
2589.795307	-2.975100	3.034000	-9.025200	27.636974	0.000287	20.780330
2590.792568	-2.978800	3.034400	-9.038100	27.660658	0.000287	20.759591
2591.796278	-2.979700	3.033500	-9.038000	27.712364	0.000287	20.782698
2592.794796	-3.002100	3.030000	-9.095400	27.744974	0.000286	20.780901
2593.795805	-3.012900	3.028900	-9.124900	27.767490	0.000286	20.789809
2594.795833	-3.003300	3.028100	-9.093300	27.799230	0.000287	20.787138
2595.798748	-3.021700	3.025900	-9.141900	27.816314	0.000286	20.787736
2596.795507	-3.027400	3.026300	-9.161200	27.796551	0.000285	20.795347
2597.797510	-2.952400	3.026800	-8.934800	27.805875	0.000283	20.776755
2598.801515	-3.014600	3.022700	-9.110900	27.828638	0.000286	20.782120
2599.796509	-2.996000	3.021900	-9.052600	27.829580	0.000285	20.798716
2600.799509	-3.008000	3.020700	-9.085300	27.802078	0.000286	20.780521
2601.798734	-3.029200	3.017900	-9.140500	27.793622	0.000284	20.792874
2602.811191	-3.003700	3.019000	-9.067100	27.797986	0.000284	20.788731
2603.807192	-2.999300	3.017400	-9.049000	27.833470	0.000285	20.809269
2604.802093	-3.011600	3.015500	-9.080700	27.825858	0.000286	20.796867
2605.802449	-3.001700	3.015000	-9.049300	27.878351	0.000285	20.781420
2606.801448	-2.992800	3.013900	-9.019500	27.888839	0.000284	20.798140
2607.806326	-3.017700	3.010200	-9.082300	27.947106	0.000285	20.796093
2608.800991	-3.008900	3.011500	-9.060900	27.979435	0.000286	20.775528
2609.801993	-2.985100	3.010500	-8.985900	27.955634	0.000286	20.774331
2610.807967	-3.010800	3.010600	-9.062900	27.941898	0.000284	20.807920
2611.801877	-2.990700	3.008000	-8.995300	27.960370	0.000285	20.816556
2612.804978	-2.974500	3.006200	-8.941100	27.978220	0.000288	20.799909
2613.804765	-3.004900	3.005100	-9.029200	27.942567	0.000286	20.787731
2614.803767	-2.999500	3.004100	-9.010700	27.904830	0.000285	20.808070
2615.802590	-2.993000	3.002400	-8.985400	27.909242	0.000284	20.806820
2616.807817	-2.997900	3.001700	-8.998500	27.914299	0.000287	20.792944
2617.801883	-2.993800	3.001000	-8.983400	27.920051	0.000285	20.793992
2618.803054	-2.987200	3.000400	-8.962500	27.880253	0.000286	20.812257
2619.811055	-2.983900	2.998900	-8.947500	27.876608	0.000286	20.810485
2620.804057	-2.998500	2.996200	-8.983200	27.884492	0.000287	20.825532
2621.817358	-2.983000	2.996200	-8.936300	27.852976	0.000287	20.810408
2622.806354	-2.981500	2.996000	-8.931300	27.899540	0.000285	20.806065
2623.805143	-2.983900	2.994200	-8.932900	27.924385	0.000287	20.814949
2624.805142	-2.987300	2.993400	-8.940900	27.952151	0.000288	20.812076
2625.808143	-2.988000	2.990100	-8.933200	27.973474	0.000287	20.817891
2626.810146	-3.017600	2.989400	-9.019800	28.011405	0.000287	20.804863
2627.807723	-3.000600	2.987400	-8.963800	28.028386	0.000287	20.820059
2628.808072	-3.004400	2.986500	-8.970900	27.989485	0.000286	20.813145
2629.807006	-3.017100	2.984700	-9.004100	27.960303	0.000286	20.818859
2630.808006	-3.041800	2.982900	-9.071800	27.917234	0.000287	20.845683
2631.809002	-3.005100	2.982200	-8.960500	27.878454	0.000289	20.826567
2632.806081	-2.988200	2.980800	-8.906100	27.862359	0.000285	20.816059
2633.808080	-2.989000	2.979900	-8.906100	27.880607	0.000285	20.827312
2634.808297	-2.992300	2.978900	-8.911500	27.856801	0.000286	20.825164
2635.807371	-2.987200	2.976600	-8.890300	27.779087	0.000288	20.822817
2636.806374	-3.009800	2.974800	-8.952700	27.743526	0.000285	20.820695
2637.808376	-2.987700	2.974400	-8.884600	27.767330	0.000286	20.812407
2638.812058	-3.011300	2.972100	-8.949000	27.727156	0.000287	20.809911
2639.809874	-2.996600	2.970600	-8.901000	27.685937	0.000287	20.816323
2640.812010	-3.003500	2.969300	-8.917700	27.701262	0.000285	20.836010
2641.810820	-2.977900	2.968800	-8.839600	27.742104	0.000283	20.826850
2642.810818	-2.965000	2.968600	-8.800700	27.799212	0.000286	20.835483
2643.813092	-2.982500	2.965900	-8.845100	27.823835	0.000286	20.844616
2644.810246	-3.013100	2.963200	-8.927800	27.875680	0.000286	20.835629
2645.809105	-3.021800	2.961800	-8.948500	27.892242	0.000284	20.839970
2646.811108	-2.990800	2.961200	-8.855600	27.867546	0.000285	20.835503
2647.812112	-2.981600	2.960200	-8.825000	27.879495	0.000286	20.835675
2648.811591	-2.979800	2.958500	-8.815400	27.842348	0.000285	20.829110
2649.815203	-3.001100	2.958000	-8.875700	27.897617	0.000284	20.848225
2650.814496	-3.021100	2.954900	-8.925800	27.915543	0.000286	20.836395
2651.812142	-2.997100	2.953900	-8.852200	27.902424	0.000283	20.842157
2652.815142	-2.988100	2.953300	-8.824400	27.924117	0.000285	20.839810
2653.815714	-2.984000	2.950300	-8.803000	27.888635	0.000287	20.842977
2654.814530	-2.988500	2.950100	-8.815300	27.846655	0.000285	20.859047
2655.817968	-3.004800	2.946800	-8.852700	27.823493	0.000285	20.853755
2656.817853	-3.003200	2.946700	-8.848000	27.868968	0.000286	20.826503
2657.834855	-3.004300	2.946000	-8.850200	27.864999	0.000283	20.847164
2658.818174	-3.012700	2.943200	-8.866400	27.886644	0.000286	20.864207
2659.826148	-3.010300	2.942200	-8.856300	27.918926	0.000286	20.864929
2660.817144	-3.013300	2.940100	-8.858800	27.943942	0.000285	20.865452
2661.817119	-2.990400	2.939300	-8.787800	27.981130	0.000285	20.851201
2662.818088	-3.008800	2.937100	-8.835600	28.017352	0.000285	20.841669
2663.818089	-2.994000	2.935700	-8.788900	28.009019	0.000284	20.857462
2664.821873	-2.989500	2.935900	-8.775700	28.005226	0.000282	20.858859
2665.822089	-3.021700	2.931800	-8.857200	27.938134	0.000284	20.859132
2666.818332	-2.998700	2.931000	-8.788700	27.904760	0.000283	20.876749
2667.819333	-3.002200	2.928900	-8.792000	27.930124	0.000284	20.862923
2668.822334	-3.034600	2.927200	-8.882300	27.954272	0.000284	20.860676
2669.821846	-3.010200	2.927100	-8.810600	27.997833	0.000281	20.876072
2670.822517	-3.004800	2.925400	-8.789400	27.974006	0.000285	20.850668
2671.820238	-3.003100	2.923100	-8.776600	27.992822	0.000283	20.845427
2672.821971	-2.979200	2.922800	-8.706300	27.988483	0.000283	20.867136
2673.823974	-2.990300	2.920400	-8.732800	27.930614	0.000282	20.873848
2674.826856	-3.018000	2.920000	-8.810900	27.909043	0.000281	20.867784
2675.825867	-2.986100	2.917500	-8.711300	27.881546	0.000284	20.851015
2676.824307	-2.977900	2.916000	-8.682400	27.910256	0.000281	20.887970
2677.823710	-2.977600	2.915000	-8.678300	27.938695	0.000283	20.873447
2678.822711	-2.995600	2.911700	-8.720500	27.983670	0.000281	20.864662
2679.822712	-3.001300	2.911100	-8.735700	28.025024	0.000282	20.862192
2680.822721	-3.002700	2.909100	-8.733200	28.057203	0.000281	20.877039
2681.823027	-3.000100	2.907700	-8.722000	28.093199	0.000281	20.890514
2682.823702	-2.987500	2.905700	-8.679500	28.089182	0.000282	20.851386
2683.823725	-3.004100	2.902100	-8.717400	28.112013	0.000280	20.880531
2684.827728	-3.004600	2.901600	-8.717900	28.112310	0.000281	20.902165
2685.824436	-2.987600	2.899900	-8.662500	28.128250	0.000281	20.872695
2686.824611	-2.997700	2.898200	-8.687200	28.163375	0.000280	20.857323
2687.824991	-2.979400	2.897800	-8.632700	28.172894	0.000282	20.892982
2688.823547	-3.020100	2.893500	-8.737500	28.208290	0.000281	20.889263
2689.825552	-2.972300	2.895000	-8.602900	28.227773	0.000281	20.876162
2690.825551	-2.998600	2.891600	-8.669900	28.235010	0.000281	20.865905
2691.826609	-2.989900	2.890500	-8.641200	28.208884	0.000280	20.877533
2692.824329	-3.029100	2.886600	-8.742200	28.173040	0.000283	20.858518
2693.830455	-3.008800	2.886700	-8.684600	28.158067	0.000282	20.904607
2694.825867	-2.993700	2.884000	-8.632800	28.112033	0.000281	20.888612
2695.847838	-2.941800	2.885000	-8.486200	28.133675	0.000281	20.894750
2696.834917	-2.995900	2.881300	-8.630400	28.119321	0.000281	20.892629
2697.829009	-3.031700	2.877000	-8.721500	28.106107	0.000281	20.885491
2698.827439	-2.997400	2.877600	-8.622700	28.118999	0.000281	20.895623
2699.826684	-3.011800	2.875000	-8.658100	28.073806	0.000280	20.885217
2700.826686	-3.033800	2.871900	-8.711100	28.057766	0.000281	20.897519
2701.827387	-2.989400	2.872700	-8.586600	28.082581	0.000282	20.877456
2702.826530	-3.004300	2.869900	-8.620700	28.124576	0.000278	20.897445
2703.826269	-3.001800	2.866400	-8.604000	28.141235	0.000281	20.895248
2704.825867	-2.987100	2.865300	-8.558000	28.122296	0.000281	20.907002
2705.826869	-2.984800	2.865000	-8.550300	28.092597	0.000281	20.880900
2706.826871	-3.016400	2.861000	-8.628400	28.115925	0.000279	20.901537
2707.826736	-2.984000	2.859000	-8.529800	28.131989	0.000280	20.916759
2708.825984	-2.974200	2.858000	-8.498900	28.160546	0.000282	20.899042
2709.831110	-3.002400	2.855500	-8.571600	28.196812	0.000280	20.904258
2710.831111	-3.013300	2.852100	-8.592800	28.208389	0.000278	20.887466
2711.827961	-3.014300	2.851600	-8.594500	28.261111	0.000280	20.872743
2712.828112	-3.017900	2.848200	-8.592600	28.298488	0.000280	20.894253
2713.829361	-3.016400	2.846300	-8.585000	28.350190	0.000279	20.920704
2714.830981	-3.015000	2.843900	-8.573400	28.374801	0.000281	20.899969
2715.827483	-3.007800	2.842700	-8.549100	28.339857	0.000281	20.913619
2716.827485	-3.003000	2.841200	-8.530800	28.367839	0.000279	20.905759
2717.829484	-3.002100	2.839200	-8.522800	28.382313	0.000281	20.911798
2718.829483	-3.006800	2.836800	-8.528800	28.377406	0.000279	20.899746
2719.828881	-3.012700	2.835000	-8.540000	28.374879	0.000279	20.904788
2720.827304	-3.029100	2.830800	-8.574100	28.338893	0.000279	20.896529
2721.832314	-3.029000	2.829200	-8.568000	28.317603	0.000280	20.901645
2722.830307	-3.011500	2.827200	-8.513800	28.308161	0.000280	20.886449
2723.830227	-2.997200	2.825600	-8.467800	28.331880	0.000279	20.921233
2724.831347	-2.984400	2.824200	-8.427900	28.384522	0.000280	20.895058
2725.830081	-3.005200	2.820500	-8.474900	28.384101	0.000280	20.907909
2726.831382	-2.983700	2.820100	-8.413500	28.413395	0.000281	20.892838
2727.835384	-2.991000	2.815500	-8.420100	28.437484	0.000281	20.891966
2728.832383	-2.964300	2.814000	-8.340300	28.457409	0.000279	20.916295
2729.832795	-2.980100	2.813300	-8.380900	28.441401	0.000279	20.898754
2730.838998	-2.978500	2.809500	-8.367000	28.369083	0.000279	20.914124
2731.831612	-2.984600	2.807300	-8.377400	28.305040	0.000278	20.919814
2732.832613	-2.978400	2.804000	-8.350600	28.231649	0.000281	20.910881
2733.832611	-3.011300	2.802000	-8.437000	28.211447	0.000281	20.895285
2734.835567	-2.991700	2.800200	-8.375100	28.243894	0.000279	20.892391
2735.831782	-3.002100	2.796200	-8.393200	28.291756	0.000280	20.919715
2736.834495	-3.003700	2.794300	-8.391200	28.305215	0.000279	20.913826
2737.832255	-2.989700	2.792000	-8.345800	28.303232	0.000280	20.917520
2738.833256	-3.016600	2.789800	-8.414500	28.343210	0.000280	20.905617
2739.835775	-2.991300	2.787200	-8.336400	28.377760	0.000281	20.922860
2740.833987	-2.998600	2.785300	-8.350900	28.326184	0.000280	20.905069
2741.832999	-3.015200	2.781300	-8.385500	28.277283	0.000281	20.924582
2742.833000	-2.961900	2.780200	-8.233300	28.261890	0.000281	20.921413
2743.833002	-3.004600	2.775700	-8.339400	28.275102	0.000280	20.902949
2744.833866	-2.989300	2.773400	-8.289800	28.323856	0.000281	20.939704
2745.835828	-2.981500	2.771400	-8.261600	28.343386	0.000279	20.939929
2746.835872	-3.010300	2.767400	-8.329000	28.383140	0.000281	20.918795
2747.833149	-3.005700	2.764700	-8.308500	28.429708	0.000282	20.944347
2748.834157	-3.002200	2.761300	-8.289300	28.479643	0.000281	20.941527
2749.835273	-3.031700	2.756800	-8.356900	28.469633	0.000281	20.929077
2750.835602	-2.992600	2.754900	-8.242100	28.434121	0.000279	20.898062
2751.844846	-2.988400	2.753100	-8.226000	28.424803	0.000281	20.921867
2752.837254	-3.007200	2.749000	-8.265800	28.447677	0.000280	20.920245
2753.838255	-2.987400	2.747400	-8.206500	28.489360	0.000280	20.931399
2754.838254	-3.000200	2.744000	-8.231800	28.530100	0.000282	20.924064
2755.841457	-3.009900	2.739400	-8.244100	28.547025	0.000280	20.916927
2756.839330	-2.995100	2.737700	-8.198600	28.547149	0.000281	20.939335
2757.842362	-3.004400	2.733100	-8.210600	28.570071	0.000280	20.919749
2758.840364	-3.014900	2.731200	-8.233600	28.578719	0.000279	20.926561
2759.841365	-2.999000	2.727800	-8.179200	28.582138	0.000279	20.937589
2760.841225	-2.965300	2.724200	-8.076000	28.601392	0.000280	20.926162
2761.841255	-2.968200	2.720800	-8.075600	28.578349	0.000281	20.938040
2762.840778	-2.977500	2.717200	-8.088600	28.556866	0.000280	20.929208
2763.842778	-2.977700	2.714000	-8.080800	28.543609	0.000280	20.933400
2764.841783	-2.997600	2.710800	-8.124100	28.529584	0.000281	20.923545
2765.845234	-2.974700	2.707100	-8.051700	28.495389	0.000279	20.935573
2766.844985	-3.011700	2.703200	-8.140600	28.468105	0.000280	20.929435
2767.842678	-2.988500	2.700800	-8.069700	28.444389	0.000280	20.918356
2768.843680	-2.981300	2.694100	-8.030400	28.411354	0.000278	20.923023
2769.843685	-3.010900	2.691100	-8.101800	28.374999	0.000279	20.913443
2770.847475	-2.980700	2.689100	-8.013500	28.410711	0.000281	20.917634
2771.846592	-2.985500	2.684300	-8.013200	28.461714	0.000280	20.910673
2772.847059	-2.996900	2.680400	-8.032000	28.498416	0.000279	20.916812
2773.845073	-3.000300	2.676200	-8.028700	28.553974	0.000281	20.927718
2774.845075	-3.024500	2.671900	-8.079300	28.601227	0.000280	20.917936
2775.849151	-2.979700	2.669700	-7.954200	28.648901	0.000281	20.911899
2776.847824	-3.028100	2.663900	-8.065600	28.649595	0.000279	20.904064
2777.848021	-3.013800	2.660200	-8.016200	28.595654	0.000283	20.909005
2778.851114	-2.999700	2.656600	-7.968100	28.566985	0.000278	20.920908
2779.848123	-3.005000	2.652100	-7.968000	28.525431	0.000281	20.908932
2780.849117	-3.001800	2.648100	-7.948200	28.531848	0.000279	20.909705
2781.853709	-3.003000	2.642500	-7.934500	28.547511	0.000280	20.905090
2782.848897	-3.006700	2.638800	-7.932500	28.630049	0.000282	20.910930
2783.849498	-3.006400	2.634700	-7.919600	28.650343	0.000281	20.903395
2784.850505	-3.017800	2.628700	-7.931200	28.687385	0.000279	20.899453
2785.849496	-3.020100	2.623800	-7.923100	28.716917	0.000281	20.901698
2786.850480	-2.971200	2.621100	-7.787100	28.738944	0.000281	20.888798
2787.850042	-3.000800	2.615400	-7.847600	28.717092	0.000283	20.913253
2788.851244	-3.019800	2.610100	-7.879600	28.725468	0.000280	20.897034
2789.852930	-3.012600	2.605000	-7.846900	28.696976	0.000281	20.906267
2790.853932	-3.003400	2.598600	-7.803100	28.725419	0.000280	20.891296
2791.853929	-2.978500	2.597100	-7.734900	28.738402	0.000283	20.912906
2792.856027	-3.007100	2.590200	-7.787800	28.744400	0.000281	20.897612
2793.854521	-3.004100	2.585300	-7.765500	28.764789	0.000281	20.893020
2794.854089	-2.990100	2.579300	-7.711000	28.776112	0.000280	20.898262
2795.854091	-2.978200	2.574800	-7.666200	28.767119	0.000281	20.909116
2796.855098	-3.007600	2.568100	-7.723200	28.747697	0.000281	20.885287
2797.855670	-3.004100	2.563000	-7.698500	28.675352	0.000280	20.885912
2798.866389	-3.013100	2.557000	-7.703100	28.613608	0.000280	20.890105
2799.856615	-2.974200	2.553800	-7.594100	28.540957	0.000279	20.895171
2800.855616	-2.994600	2.545400	-7.621900	28.518235	0.000279	20.874661
2801.855618	-2.967200	2.541700	-7.540900	28.546064	0.000281	20.901736
2802.860616	-2.986500	2.535500	-7.571600	28.592327	0.000283	20.882423
2803.854616	-3.037100	2.526700	-7.671600	28.617949	0.000281	20.864608
2804.854525	-2.958800	2.523900	-7.467000	28.669585	0.000282	20.882000
2805.857590	-2.993200	2.516600	-7.531600	28.716464	0.000283	20.895552
2806.856590	-2.987200	2.511700	-7.501800	28.769730	0.000281	20.861490
2807.859591	-3.009400	2.505100	-7.538300	28.814994	0.000281	20.864412
2808.861113	-2.982600	2.498500	-7.451100	28.849949	0.000279	20.869277
