LabVIEW Measurement	
Writer_Version	2
Reader_Version	2
Separator	Tab
Decimal_Separator	.
Multi_Headings	No
X_Columns	One
Time_Pref	Absolute
Operator	admin
Description	Clolumns are: time, Current, Voltage, Power, Battery Temp, and Chamber Temp
Date	2024/08/16
Time	13:06:06.104549407958984375
***End_of_Header***	
	
Channels	6						
Samples	1	1	1	1	1	1	
Date	2024/09/02	2024/09/02	2024/09/02	2024/09/02	2024/09/02	2024/09/02	
Time	07:14:43.0486063957214355469	07:14:43.05474090576171875	07:14:43.0611209869384765625	07:14:43.0319461822509765625	07:14:43.0319461822509765625	07:14:43.0319461822509765625	
X_Dimension	Time	Time	Time	Time	Time	Time	
X0	0.0000000000000000E+0	0.0000000000000000E+0	0.0000000000000000E+0	0.0000000000000000E+0	0.0000000000000000E+0	0.0000000000000000E+0	
Delta_X	1.000000	1.000000	1.000000	1.000000	1.000000	1.000000	
***End_of_Header***							
X_Value	Untitled	Untitled 1	Untitled 2	Untitled 3	Untitled 4	Untitled 5	Comment
0.000000	0.023704	4.104400	0.097241	20.967475	0.000938	20.774507
0.997548	-3.010300	3.938100	-11.854000	20.957694	0.000939	20.752870
2.001773	-3.007500	3.929600	-11.817000	20.992776	0.000936	20.770415
2.998246	-2.989700	3.925400	-11.734000	20.982496	0.000935	20.748752
4.001171	-2.990200	3.921500	-11.724000	20.974836	0.000934	20.750100
5.000314	-2.997100	3.917800	-11.741000	20.959740	0.000933	20.781944
6.001402	-2.989200	3.914000	-11.699000	20.981872	0.000932	20.758085
7.002466	-3.006900	3.911800	-11.761000	20.992076	0.000933	20.758808
8.001308	-2.994700	3.909100	-11.705000	20.970143	0.000931	20.752044
9.003854	-2.998000	3.909000	-11.718000	20.983593	0.000931	20.758859
10.001770	-3.009600	3.905700	-11.754000	20.964230	0.000930	20.776951
11.001590	-2.998400	3.905200	-11.708000	20.991577	0.000930	20.751197
12.001101	-3.007800	3.901800	-11.735000	20.987759	0.000928	20.727936
13.002633	-2.989400	3.900500	-11.659000	21.003603	0.000928	20.764174
14.003728	-3.007200	3.899700	-11.725000	20.979325	0.000927	20.773557
15.007354	-3.015300	3.898100	-11.753000	21.001583	0.000926	20.746505
16.003601	-3.001000	3.897300	-11.695000	21.017227	0.000926	20.760730
17.002328	-2.989400	3.896900	-11.648000	21.005100	0.000926	20.770886
18.010703	-3.001600	3.896300	-11.694000	21.012986	0.000925	20.770239
19.005077	-2.985500	3.896100	-11.631000	21.018324	0.000926	20.754241
20.005411	-2.991100	3.892700	-11.643000	21.020695	0.000925	20.754715
21.002874	-3.011900	3.891000	-11.718000	21.018149	0.000923	20.746954
22.003518	-2.991100	3.891500	-11.639000	21.040506	0.000924	20.757461
23.004164	-3.007600	3.890400	-11.700000	21.028680	0.000923	20.755590
24.009632	-3.000500	3.888900	-11.667000	21.048215	0.000921	20.751421
25.005915	-3.007300	3.887500	-11.689000	21.037137	0.000922	20.759307
26.006778	-3.018000	3.888100	-11.733000	21.037961	0.000921	20.737371
27.006298	-3.001800	3.886600	-11.665000	21.070521	0.000919	20.753818
28.007862	-2.997800	3.887500	-11.652000	21.091579	0.000921	20.742164
29.009367	-3.008100	3.886800	-11.691000	21.070846	0.000918	20.755565
30.007567	-3.014700	3.885400	-11.712000	21.055027	0.000919	20.759184
31.011436	-2.977000	3.885000	-11.565000	21.077158	0.000920	20.765198
32.011808	-3.010200	3.883400	-11.688000	21.090681	0.000918	20.776354
33.010025	-3.002600	3.884500	-11.663000	21.105975	0.000918	20.751822
34.012185	-3.009500	3.883300	-11.686000	21.069100	0.000918	20.737223
35.010293	-2.996300	3.881600	-11.630000	21.078656	0.000918	20.737298
36.013857	-2.994500	3.882500	-11.625000	21.072668	0.000916	20.746008
37.010397	-3.002700	3.882800	-11.658000	21.092778	0.000917	20.745734
38.009662	-2.970700	3.883600	-11.535000	21.106599	0.000916	20.759086
39.010667	-2.971300	3.882200	-11.534000	21.118575	0.000915	20.751624
40.010248	-2.984700	3.881700	-11.585000	21.123390	0.000916	20.746009
41.008818	-2.998100	3.881200	-11.634000	21.112838	0.000917	20.765326
42.009952	-2.991000	3.879900	-11.603000	21.136689	0.000915	20.768321
43.009635	-2.994600	3.878400	-11.613000	21.140431	0.000915	20.765426
44.008922	-3.007600	3.878500	-11.664000	21.136240	0.000915	20.763130
45.010758	-3.001400	3.879100	-11.642000	21.148963	0.000913	20.756891
46.009449	-2.994800	3.879800	-11.617000	21.148091	0.000915	20.748906
47.010819	-3.008000	3.878500	-11.665000	21.167325	0.000914	20.749180
48.009279	-2.999800	3.879100	-11.635000	21.158170	0.000913	20.755669
49.009556	-2.984900	3.876700	-11.570000	21.178702	0.000913	20.771467
50.011650	-3.003900	3.876200	-11.642000	21.181396	0.000913	20.750453
51.009637	-2.980600	3.876800	-11.554000	21.187582	0.000911	20.767547
52.011560	-3.007600	3.874800	-11.653000	21.207940	0.000913	20.754721
53.009667	-3.002000	3.876600	-11.637000	21.195840	0.000911	20.740720
54.009326	-2.986500	3.875400	-11.572000	21.242190	0.000912	20.757690
55.014230	-3.004400	3.874200	-11.639000	21.236802	0.000911	20.770318
56.010118	-3.004000	3.874500	-11.638000	21.223606	0.000911	20.749530
57.011889	-3.019300	3.873200	-11.693000	21.245459	0.000911	20.763805
58.010919	-3.017400	3.873800	-11.688000	21.236004	0.000912	20.779952
59.010659	-2.988800	3.874500	-11.579000	21.253042	0.000910	20.772814
60.013186	-2.992200	3.873700	-11.589000	21.264691	0.000910	20.752699
61.012642	-3.020000	3.872200	-11.693000	21.263271	0.000910	20.767873
62.010139	-2.998700	3.873600	-11.615000	21.282653	0.000910	20.767349
63.010250	-3.015300	3.872600	-11.676000	21.297544	0.000911	20.770393
64.010863	-3.036000	3.870500	-11.750000	21.289487	0.000910	20.759487
65.010485	-2.998500	3.871000	-11.606000	21.313734	0.000910	20.778055
66.011403	-2.987000	3.871800	-11.564000	21.296547	0.000912	20.771766
67.010571	-2.991600	3.870800	-11.579000	21.293853	0.000910	20.775235
68.012558	-2.976700	3.870200	-11.518000	21.296796	0.000910	20.762532
69.010537	-2.989700	3.871500	-11.574000	21.323212	0.000911	20.772839
70.010501	-3.003600	3.869600	-11.622000	21.324459	0.000909	20.775035
71.014038	-2.995200	3.869500	-11.589000	21.351648	0.000909	20.773313
72.012325	-3.001100	3.868600	-11.610000	21.337480	0.000911	20.755345
73.014911	-3.010000	3.868800	-11.644000	21.334013	0.000911	20.749031
74.011998	-2.977900	3.870900	-11.525000	21.343841	0.000910	20.763132
75.011854	-2.997900	3.867400	-11.593000	21.349603	0.000909	20.771267
76.015134	-2.992000	3.867800	-11.571000	21.365891	0.000908	20.760536
77.012929	-2.989000	3.868100	-11.561000	21.377415	0.000910	20.765428
78.012324	-2.989600	3.866900	-11.559000	21.366116	0.000910	20.777357
79.014001	-2.986000	3.867400	-11.548000	21.365192	0.000910	20.772639
80.015191	-2.987000	3.866200	-11.548000	21.387068	0.000909	20.773189
81.016396	-3.029600	3.866400	-11.712000	21.397344	0.000908	20.766401
82.017385	-2.984200	3.867700	-11.542000	21.418047	0.000909	20.765303
83.014417	-2.990500	3.867400	-11.564000	21.432438	0.000908	20.781125
84.017351	-2.986900	3.867700	-11.552000	21.425879	0.000911	20.789262
85.014014	-3.003700	3.866800	-11.614000	21.444286	0.000910	20.765004
86.014526	-2.995200	3.864700	-11.575000	21.446231	0.000910	20.770743
87.014887	-2.997700	3.865000	-11.585000	21.445109	0.000911	20.792855
88.013976	-3.003900	3.865200	-11.609000	21.437552	0.000908	20.791931
89.014514	-3.002000	3.865300	-11.602000	21.463242	0.000911	20.767375
90.016990	-3.002600	3.864600	-11.602000	21.468629	0.000908	20.772292
91.015454	-2.998800	3.863100	-11.583000	21.479203	0.000909	20.774338
92.015777	-3.013200	3.862500	-11.638000	21.464014	0.000909	20.781425
93.017971	-2.979100	3.864400	-11.511000	21.489404	0.000910	20.777432
94.016148	-2.988100	3.863000	-11.542000	21.495989	0.000908	20.778331
95.016623	-2.978300	3.864900	-11.510000	21.500279	0.000908	20.773140
96.016079	-3.000200	3.864000	-11.592000	21.509656	0.000910	20.767824
97.018266	-2.985000	3.864100	-11.533000	21.519708	0.000911	20.766977
98.019915	-2.987100	3.863300	-11.538000	21.510130	0.000909	20.779204
99.020875	-2.985900	3.862600	-11.533000	21.515641	0.000910	20.782822
100.020563	-2.983100	3.862400	-11.520000	21.527064	0.000907	20.788088
101.018229	-3.002200	3.861900	-11.593000	21.539608	0.000908	20.786890
102.019907	-2.993200	3.861200	-11.556000	21.540357	0.000908	20.791906
103.022402	-3.001700	3.862300	-11.593000	21.542127	0.000909	20.781824
104.021701	-3.015500	3.861600	-11.643000	21.557988	0.000909	20.808601
105.021355	-2.979000	3.861000	-11.501000	21.541877	0.000909	20.792954
106.022688	-2.981500	3.861100	-11.511000	21.575519	0.000911	20.789634
107.021223	-2.998000	3.861100	-11.574000	21.552250	0.000909	20.770616
108.023418	-3.014800	3.860200	-11.637000	21.588561	0.000909	20.795573
109.023691	-2.996600	3.860100	-11.567000	21.581378	0.000907	20.769418
110.023834	-3.012200	3.859100	-11.623000	21.589483	0.000908	20.790331
111.026575	-3.012400	3.859100	-11.623000	21.598036	0.000909	20.795097
112.025357	-2.988400	3.860500	-11.535000	21.619606	0.000909	20.784439
113.025484	-2.996600	3.858900	-11.563000	21.631975	0.000910	20.804404
114.028992	-2.995500	3.859100	-11.558000	21.612873	0.000910	20.777227
115.030972	-3.007200	3.859700	-11.605000	21.616663	0.000911	20.783865
116.028974	-3.025300	3.858900	-11.674000	21.622448	0.000908	20.787283
117.026974	-2.997900	3.858900	-11.568000	21.627709	0.000910	20.803928
118.027684	-3.014800	3.858300	-11.631000	21.637359	0.000909	20.792722
119.028317	-3.019900	3.858300	-11.650000	21.679129	0.000909	20.791375
120.031687	-2.989000	3.857400	-11.529000	21.642446	0.000911	20.794494
121.028840	-3.001000	3.857900	-11.576000	21.674864	0.000911	20.789477
122.027258	-2.996500	3.857500	-11.558000	21.672022	0.000911	20.796117
123.027379	-2.986300	3.856600	-11.516000	21.703839	0.000913	20.794767
124.029323	-2.996700	3.857200	-11.557000	21.701943	0.000910	20.789077
125.038868	-2.997600	3.857500	-11.562000	21.711243	0.000911	20.791272
126.030978	-3.006400	3.856300	-11.593000	21.698177	0.000913	20.819921
127.032229	-3.017300	3.856300	-11.633000	21.702117	0.000914	20.803475
128.031449	-3.008000	3.855500	-11.595000	21.724210	0.000914	20.794292
129.033526	-2.986600	3.855300	-11.513000	21.711367	0.000913	20.796612
130.036696	-3.012800	3.854500	-11.612000	21.708150	0.000913	20.793866
131.032459	-2.991700	3.855500	-11.533000	21.729246	0.000914	20.804074
132.035822	-2.999300	3.855500	-11.563000	21.736228	0.000912	20.812483
133.032110	-2.993200	3.856700	-11.542000	21.728746	0.000913	20.806893
134.033806	-2.994000	3.854100	-11.538000	21.737848	0.000916	20.801303
135.033994	-2.999400	3.854800	-11.562000	21.736675	0.000913	20.793965
136.036320	-3.020600	3.853400	-11.638000	21.755451	0.000914	20.803748
137.032877	-3.007200	3.853200	-11.584000	21.741787	0.000916	20.814254
138.035763	-2.998500	3.853300	-11.553000	21.744505	0.000914	20.807017
139.033106	-2.996300	3.854000	-11.546000	21.748769	0.000914	20.799430
140.034430	-3.002100	3.853100	-11.565000	21.784250	0.000914	20.791320
141.036748	-2.986400	3.854900	-11.511000	21.782453	0.000915	20.812755
142.033935	-3.041800	3.852000	-11.715000	21.808211	0.000915	20.818146
143.038890	-3.024400	3.852500	-11.650000	21.798612	0.000915	20.793365
144.035134	-3.000200	3.852400	-11.558000	21.794823	0.000918	20.801901
145.038887	-3.007000	3.852400	-11.583000	21.815990	0.000916	20.803173
146.036911	-3.035700	3.850600	-11.687000	21.802675	0.000915	20.812606
147.042337	-3.016900	3.851000	-11.617000	21.803922	0.000916	20.805318
148.035862	-2.997600	3.853000	-11.548000	21.822025	0.000916	20.806842
149.034886	-3.007600	3.851900	-11.584000	21.832621	0.000918	20.808438
150.036763	-2.978500	3.852900	-11.475000	21.839976	0.000919	20.818171
151.035602	-2.991500	3.850800	-11.519000	21.843117	0.000919	20.817522
152.039472	-3.006300	3.852600	-11.581000	21.874333	0.000919	20.823162
153.039493	-2.989600	3.852000	-11.515000	21.875580	0.000918	20.808763
154.040846	-2.991500	3.851200	-11.520000	21.905199	0.000921	20.815651
155.035271	-3.000600	3.850100	-11.552000	21.891886	0.000920	20.816076
156.037385	-3.001400	3.851500	-11.558000	21.894405	0.000921	20.818597
157.039080	-2.993900	3.849900	-11.524000	21.920134	0.000920	20.807367
158.037430	-2.996900	3.850600	-11.539000	21.919784	0.000921	20.808913
159.036638	-3.008300	3.849300	-11.579000	21.939131	0.000920	20.814055
160.036194	-3.044100	3.848100	-11.714000	21.922926	0.000923	20.808265
161.037058	-3.003300	3.850400	-11.562000	21.950698	0.000924	20.818995
162.036844	-3.003700	3.850200	-11.564000	21.974582	0.000923	20.827730
163.038279	-2.992400	3.849900	-11.519000	21.951647	0.000923	20.823264
164.037246	-3.007100	3.849100	-11.572000	21.967303	0.000923	20.818547
165.037924	-2.990600	3.849700	-11.512000	21.970967	0.000922	20.813207
166.038677	-3.019900	3.847300	-11.617000	21.984504	0.000921	20.829127
167.037134	-2.993900	3.847300	-11.516000	21.978172	0.000924	20.838910
168.037773	-2.993800	3.849300	-11.523000	21.974807	0.000923	20.845024
169.037547	-2.994600	3.848500	-11.524000	21.994377	0.000925	20.845648
170.039037	-2.999300	3.847000	-11.537000	22.001607	0.000924	20.841506
171.036687	-2.993200	3.848500	-11.518000	22.016265	0.000925	20.851438
172.038167	-2.991900	3.848000	-11.511000	22.042266	0.000927	20.823888
173.042368	-3.002100	3.845900	-11.544000	22.046478	0.000926	20.831898
174.040344	-3.000300	3.845400	-11.537000	22.044434	0.000927	20.853084
175.039979	-2.982500	3.847300	-11.474000	22.049669	0.000927	20.836989
176.040481	-2.987200	3.846800	-11.490000	22.057820	0.000927	20.833295
177.041376	-2.988900	3.844500	-11.490000	22.055153	0.000930	20.826358
178.044025	-2.975500	3.846400	-11.443000	22.027806	0.000928	20.839283
179.041634	-3.002700	3.845800	-11.547000	22.034911	0.000927	20.822689
180.041851	-3.015700	3.845400	-11.595000	22.048671	0.000931	20.836464
181.039829	-2.973400	3.845800	-11.434000	22.069336	0.000930	20.832021
182.042727	-3.008700	3.845000	-11.568000	22.093092	0.000929	20.817872
183.042953	-3.016300	3.843800	-11.593000	22.087831	0.000930	20.854804
184.049655	-3.004800	3.845400	-11.552000	22.095309	0.000932	20.832893
185.041790	-2.993300	3.844600	-11.507000	22.084441	0.000931	20.848565
186.043989	-3.027900	3.843800	-11.637000	22.107997	0.000932	20.842751
187.046646	-2.998500	3.844100	-11.526000	22.116248	0.000933	20.839631
188.041954	-3.017200	3.842800	-11.594000	22.115175	0.000932	20.856101
189.045967	-2.991900	3.843300	-11.498000	22.111960	0.000933	20.834390
190.043055	-2.997400	3.842200	-11.516000	22.115923	0.000933	20.852107
191.045922	-3.016400	3.841900	-11.588000	22.136289	0.000933	20.860643
192.044122	-3.019700	3.841500	-11.600000	22.159071	0.000936	20.847890
193.059871	-2.988600	3.842300	-11.481000	22.159343	0.000935	20.835836
194.047428	-2.996700	3.843300	-11.515000	22.172829	0.000937	20.856923
195.045696	-3.029200	3.840500	-11.632000	22.172903	0.000934	20.858419
196.048798	-2.983800	3.843500	-11.466000	22.176119	0.000935	20.845993
197.047833	-2.983200	3.843400	-11.465000	22.196782	0.000936	20.844871
198.046997	-3.013800	3.841800	-11.577000	22.195236	0.000937	20.841900
199.049273	-3.007200	3.841600	-11.551000	22.197255	0.000937	20.849611
200.050263	-3.023800	3.841600	-11.614000	22.214379	0.000938	20.868177
201.047311	-2.993900	3.841500	-11.500000	22.206029	0.000937	20.851758
202.047761	-3.010200	3.840200	-11.559000	22.228561	0.000938	20.837333
203.046865	-2.989300	3.842400	-11.484000	22.222056	0.000938	20.841252
204.048787	-2.993200	3.839800	-11.491000	22.233272	0.000939	20.869550
205.050992	-3.007200	3.841100	-11.549000	22.245285	0.000940	20.855501
206.049089	-3.029200	3.839500	-11.630000	22.253385	0.000940	20.835637
207.050973	-2.991700	3.841800	-11.493000	22.267841	0.000942	20.868127
208.048633	-3.024300	3.839100	-11.609000	22.277412	0.000942	20.844521
209.048851	-2.992700	3.840400	-11.492000	22.287978	0.000941	20.870747
210.053197	-3.007800	3.839400	-11.547000	22.297923	0.000942	20.866006
211.049398	-3.013500	3.838300	-11.565000	22.293461	0.000942	20.859168
212.050524	-2.998700	3.839000	-11.509000	22.291742	0.000943	20.863136
213.053473	-2.986900	3.839000	-11.466000	22.304652	0.000944	20.848563
214.051131	-2.980700	3.838800	-11.442000	22.292240	0.000945	20.851308
215.051793	-3.013000	3.837100	-11.560000	22.336552	0.000944	20.874814
216.055837	-2.982300	3.838600	-11.447000	22.315293	0.000944	20.852106
217.053059	-3.003900	3.837200	-11.525000	22.328551	0.000945	20.886242
218.052957	-2.999700	3.837100	-11.509000	22.344301	0.000948	20.874987
219.052474	-2.995900	3.838600	-11.498000	22.359479	0.000947	20.856047
220.055250	-3.005200	3.836900	-11.530000	22.357510	0.000944	20.876360
221.053344	-2.989900	3.837300	-11.472000	22.383826	0.000947	20.861936
222.053123	-2.996900	3.837500	-11.499000	22.374107	0.000947	20.880651
223.053197	-2.998700	3.835800	-11.501000	22.336425	0.000948	20.868049
224.052750	-2.991800	3.835900	-11.475000	22.381531	0.000945	20.884292
225.051445	-3.006700	3.835600	-11.531000	22.372361	0.000950	20.870368
226.055228	-2.991000	3.837100	-11.475000	22.383275	0.000947	20.876082
227.053185	-2.996100	3.834500	-11.488000	22.405106	0.000949	20.878503
228.062062	-2.989700	3.836200	-11.468000	22.399473	0.000949	20.879974
229.055570	-2.985600	3.836500	-11.454000	22.383424	0.000952	20.867222
230.053186	-3.012000	3.834900	-11.548000	22.389404	0.000952	20.888857
231.058282	-3.005300	3.834000	-11.521000	22.406426	0.000951	20.885040
232.052742	-2.980700	3.833500	-11.426000	22.386240	0.000952	20.890429
233.053582	-3.013700	3.833700	-11.552000	22.392519	0.000954	20.881071
234.052446	-2.994500	3.835500	-11.484000	22.390126	0.000955	20.890053
235.054883	-2.977400	3.834200	-11.414000	22.383796	0.000951	20.879923
236.052649	-2.981300	3.835000	-11.433000	22.417638	0.000954	20.894844
237.056134	-3.006600	3.832900	-11.522000	22.388007	0.000954	20.896940
238.052933	-2.988700	3.835700	-11.462000	22.415420	0.000956	20.891201
239.053573	-2.979700	3.834800	-11.425000	22.431069	0.000955	20.892173
240.053970	-2.987000	3.833000	-11.447000	22.425138	0.000957	20.876278
241.053985	-3.000800	3.831700	-11.498000	22.471438	0.000957	20.902729
242.056342	-3.008400	3.832700	-11.530000	22.456586	0.000958	20.894968
243.054945	-2.994500	3.832900	-11.476000	22.460573	0.000957	20.903701
244.056459	-2.983500	3.831800	-11.431000	22.455191	0.000958	20.880769
245.053504	-2.995900	3.832000	-11.479000	22.459003	0.000960	20.879845
246.053674	-3.003600	3.832300	-11.511000	22.495559	0.000959	20.889902
247.055841	-2.994700	3.831800	-11.474000	22.505003	0.000960	20.893196
248.054960	-3.007300	3.832100	-11.524000	22.499845	0.000959	20.915055
249.055562	-2.997900	3.831300	-11.485000	22.521299	0.000961	20.893869
250.055454	-2.992100	3.831400	-11.462000	22.531789	0.000962	20.909115
251.055884	-3.013900	3.829300	-11.540000	22.533658	0.000960	20.891074
252.056331	-3.011400	3.829700	-11.530000	22.527803	0.000961	20.894219
253.054935	-3.022200	3.829200	-11.571000	22.547812	0.000960	20.879646
254.058697	-3.002600	3.829900	-11.498000	22.549855	0.000962	20.877899
255.059088	-2.993100	3.829700	-11.461000	22.553543	0.000963	20.892023
256.058584	-3.005500	3.828700	-11.507000	22.537198	0.000963	20.892248
257.057073	-3.014000	3.828500	-11.539000	22.544348	0.000964	20.903676
258.061317	-2.994800	3.828800	-11.465000	22.554864	0.000964	20.909465
259.062699	-2.985100	3.829400	-11.430000	22.538843	0.000965	20.906696
260.061079	-2.994800	3.827700	-11.462000	22.561617	0.000966	20.895842
261.059915	-2.987400	3.829100	-11.437000	22.563387	0.000966	20.884813
262.059990	-3.015100	3.827600	-11.539000	22.570139	0.000965	20.904851
263.061048	-3.011000	3.827200	-11.523000	22.558528	0.000966	20.894170
264.061312	-2.977300	3.828300	-11.397000	22.573802	0.000967	20.917053
265.060653	-3.005500	3.827500	-11.502000	22.577565	0.000966	20.920347
266.060942	-3.004400	3.826700	-11.495000	22.600836	0.000967	20.908095
267.061646	-3.023200	3.826400	-11.568000	22.600961	0.000969	20.928606
268.063023	-3.000300	3.826800	-11.481000	22.604674	0.000968	20.922843
269.066247	-2.986700	3.827600	-11.431000	22.618004	0.000970	20.917702
270.063584	-2.982700	3.825900	-11.410000	22.637612	0.000971	20.904626
271.064325	-2.998700	3.827300	-11.476000	22.670450	0.000970	20.901008
272.063656	-3.015500	3.824400	-11.531000	22.650344	0.000971	20.917852
273.065329	-2.993500	3.823900	-11.445000	22.675284	0.000970	20.919598
274.065510	-3.023500	3.825000	-11.564000	22.668383	0.000972	20.925961
275.064969	-3.009700	3.825500	-11.512000	22.687541	0.000972	20.925711
276.064136	-3.017300	3.823200	-11.535000	22.647055	0.000972	20.928781
277.063965	-3.017000	3.826100	-11.542000	22.642322	0.000974	20.920247
278.069513	-3.025400	3.823700	-11.566000	22.658740	0.000974	20.924364
279.065942	-2.995000	3.825000	-11.455000	22.671248	0.000974	20.913186
280.064680	-2.994700	3.823600	-11.450000	22.660160	0.000972	20.909667
281.064259	-3.026000	3.822100	-11.565000	22.674661	0.000974	20.918501
282.064515	-3.008600	3.823000	-11.500000	22.679295	0.000975	20.928357
283.065713	-3.005100	3.823700	-11.490000	22.674710	0.000974	20.904801
284.066803	-3.010700	3.822500	-11.506000	22.684876	0.000975	20.919723
285.065734	-3.007000	3.821500	-11.491000	22.685374	0.000978	20.929704
286.067977	-3.004300	3.822200	-11.482000	22.707448	0.000976	20.938063
287.068470	-3.026200	3.822200	-11.566000	22.698504	0.000977	20.909667
288.067361	-2.980800	3.822900	-11.394000	22.713353	0.000978	20.922169
289.068191	-3.007400	3.821600	-11.491000	22.718261	0.000979	20.910965
290.070919	-3.008200	3.823200	-11.498000	22.743249	0.000979	20.911339
291.069971	-2.996900	3.822000	-11.454000	22.755331	0.000979	20.924389
292.071581	-2.986900	3.821100	-11.413000	22.781513	0.000980	20.917901
293.070167	-2.966400	3.822300	-11.337000	22.780593	0.000978	20.925512
294.069798	-2.991300	3.819700	-11.424000	22.800995	0.000980	20.901856
295.069152	-2.979900	3.822200	-11.389000	22.807895	0.000981	20.913983
296.073451	-3.006600	3.819600	-11.482000	22.834400	0.000980	20.912087
297.071313	-3.008400	3.819400	-11.489000	22.835597	0.000982	20.891950
298.072438	-2.996600	3.819900	-11.445000	22.848326	0.000981	20.903753
299.073190	-3.011500	3.820200	-11.503000	22.878069	0.000983	20.923116
300.072833	-2.990100	3.819400	-11.418000	22.866735	0.000983	20.916029
301.075763	-3.001100	3.819000	-11.461000	22.852735	0.000984	20.918125
302.075062	-3.011200	3.818100	-11.495000	22.830339	0.000984	20.898062
303.075448	-2.976100	3.819900	-11.368000	22.844763	0.000983	20.912511
304.074153	-2.998900	3.819200	-11.451000	22.856919	0.000985	20.902404
305.074290	-2.999700	3.818400	-11.453000	22.831958	0.000985	20.923863
306.078705	-3.001700	3.819200	-11.463000	22.853556	0.000984	20.888604
307.075885	-2.993400	3.818400	-11.429000	22.843789	0.000984	20.868391
308.074402	-3.002000	3.817800	-11.459000	22.847203	0.000985	20.903102
309.074939	-2.982300	3.818800	-11.386000	22.851487	0.000987	20.882265
310.074367	-2.996700	3.817000	-11.438000	22.855497	0.000987	20.895290
311.075213	-3.000600	3.817700	-11.454000	22.860155	0.000986	20.912283
312.076377	-2.997800	3.817000	-11.441000	22.870342	0.000988	20.884559
313.076944	-3.006300	3.816800	-11.473000	22.897968	0.000989	20.893742
314.076816	-3.004700	3.816100	-11.466000	22.871887	0.000990	20.893692
315.075186	-2.996000	3.815900	-11.432000	22.903921	0.000988	20.885482
316.076015	-2.974800	3.817300	-11.355000	22.876345	0.000990	20.895787
317.079433	-3.001600	3.815300	-11.451000	22.885960	0.000988	20.879343
318.076804	-2.982200	3.816500	-11.380000	22.881576	0.000991	20.899131
319.080307	-3.000400	3.815200	-11.446000	22.887305	0.000990	20.885432
320.077950	-2.994100	3.816400	-11.426000	22.889895	0.000989	20.876648
321.080139	-3.009100	3.813800	-11.476000	22.903097	0.000991	20.887976
322.081862	-3.006900	3.815200	-11.470000	22.907756	0.000991	20.879368
323.081520	-2.996500	3.813700	-11.428000	22.897891	0.000991	20.880865
324.078404	-3.014100	3.814700	-11.496000	22.917744	0.000992	20.882736
325.079262	-2.979700	3.814900	-11.366000	22.909150	0.000993	20.869386
326.079882	-2.995300	3.813800	-11.422000	22.908030	0.000993	20.875849
327.080029	-2.996700	3.813300	-11.426000	22.915825	0.000993	20.873702
328.082901	-2.985200	3.812700	-11.381000	22.894328	0.000992	20.858804
329.079734	-2.983000	3.812500	-11.371000	22.899410	0.000995	20.866740
330.082886	-3.008200	3.812400	-11.467000	22.909772	0.000993	20.890396
331.079666	-3.001700	3.812200	-11.442000	22.924967	0.000996	20.856784
332.078887	-2.997500	3.812700	-11.428000	22.941407	0.000997	20.871356
333.082675	-2.989500	3.811200	-11.392000	22.945591	0.000996	20.885505
334.080035	-2.979600	3.813000	-11.360000	22.965891	0.000996	20.840887
335.079804	-2.989100	3.811600	-11.393000	22.971869	0.000999	20.884332
336.078411	-3.017800	3.810700	-11.497000	22.958269	0.000997	20.873078
337.080321	-3.001600	3.810400	-11.437000	22.954682	0.000997	20.869484
338.080668	-3.016700	3.812000	-11.498000	22.936773	0.000997	20.861025
339.083451	-2.987400	3.810600	-11.383000	22.958269	0.000999	20.876870
340.080478	-3.006700	3.810500	-11.456000	22.970150	0.001001	20.856059
341.080747	-2.998500	3.809700	-11.422000	22.962378	0.000998	20.874824
342.082150	-3.010100	3.809300	-11.466000	22.967359	0.001000	20.870806
343.091543	-3.015300	3.807900	-11.481000	22.959637	0.001000	20.863069
344.086304	-3.005600	3.809800	-11.449000	22.956325	0.001000	20.873501
345.082635	-2.993200	3.810300	-11.404000	22.992541	0.001003	20.847673
346.086304	-3.001600	3.808700	-11.430000	22.958417	0.001001	20.881286
347.082594	-3.003000	3.808400	-11.436000	22.964221	0.001002	20.851067
348.083482	-2.983100	3.809100	-11.362000	22.961928	0.001005	20.843081
349.086802	-3.000600	3.808500	-11.426000	22.997994	0.001004	20.881584
350.085614	-2.992300	3.807600	-11.391000	22.998990	0.001004	20.848919
351.084321	-3.020500	3.807100	-11.498000	23.010672	0.001005	20.850192
352.084843	-3.006300	3.807000	-11.444000	23.019089	0.001005	20.863841
353.085415	-2.991400	3.809100	-11.393000	23.043647	0.001006	20.855257
354.087499	-2.989100	3.806400	-11.377000	23.051592	0.001005	20.842829
355.088470	-2.973300	3.807500	-11.320000	23.059985	0.001006	20.855032
356.089573	-2.984200	3.807100	-11.360000	23.091889	0.001006	20.851912
357.093436	-3.012100	3.804600	-11.458000	23.086957	0.001007	20.856453
358.088610	-2.984900	3.806100	-11.360000	23.079959	0.001007	20.836640
359.089850	-2.992900	3.805000	-11.386000	23.087779	0.001009	20.850165
360.090835	-3.008600	3.805000	-11.447000	23.093558	0.001009	20.836516
361.088685	-3.011800	3.803300	-11.454000	23.062599	0.001008	20.843427
362.091634	-3.007700	3.804000	-11.441000	23.075053	0.001011	20.859223
363.090160	-3.003400	3.804200	-11.425000	23.061578	0.001007	20.849516
364.090947	-2.998600	3.804200	-11.406000	23.024542	0.001010	20.850813
365.092365	-3.002000	3.804500	-11.421000	23.026112	0.001011	20.848592
366.101650	-3.015400	3.803900	-11.470000	23.041105	0.001013	20.844649
367.090922	-3.001800	3.802300	-11.412000	23.005937	0.001012	20.853034
368.096000	-2.997200	3.802900	-11.397000	23.051989	0.001011	20.844175
369.092813	-2.987500	3.802200	-11.358000	23.053982	0.001012	20.856129
370.091954	-2.981300	3.804300	-11.341000	23.058838	0.001015	20.842029
371.096892	-2.994200	3.802900	-11.384000	23.075102	0.001012	20.849316
372.095354	-3.016400	3.801200	-11.465000	23.070419	0.001015	20.856004
373.095859	-3.005700	3.800600	-11.421000	23.073831	0.001014	20.841879
374.100018	-3.012000	3.801600	-11.450000	23.072636	0.001013	20.847793
375.093755	-3.023500	3.801500	-11.492000	23.083992	0.001014	20.840681
376.096807	-2.985200	3.802800	-11.350000	23.101601	0.001015	20.833195
377.095222	-3.007400	3.800800	-11.430000	23.090020	0.001015	20.844824
378.094297	-2.999200	3.801400	-11.398000	23.090468	0.001014	20.832945
379.094017	-3.016200	3.800400	-11.460000	23.091290	0.001018	20.841830
380.094225	-2.994200	3.799900	-11.376000	23.098886	0.001016	20.825259
381.094069	-2.980200	3.799700	-11.322000	23.120454	0.001015	20.827905
382.095449	-2.986100	3.799700	-11.345000	23.137912	0.001017	20.840182
383.093507	-2.996900	3.799900	-11.386000	23.144162	0.001017	20.836014
384.096486	-3.020300	3.798700	-11.471000	23.190259	0.001016	20.840481
385.094731	-3.000200	3.800200	-11.400000	23.210031	0.001016	20.835640
386.094897	-2.985100	3.798700	-11.339000	23.194243	0.001018	20.842104
387.100479	-3.014500	3.797300	-11.446000	23.193497	0.001019	20.848468
388.097265	-3.010200	3.797300	-11.428000	23.222831	0.001019	20.829975
389.100712	-2.997700	3.798400	-11.385000	23.220091	0.001019	20.834342
390.097314	-2.997400	3.796700	-11.379000	23.214962	0.001020	20.843900
391.097437	-3.018400	3.797800	-11.461000	23.205524	0.001019	20.854830
392.100176	-3.003900	3.798200	-11.408000	23.198651	0.001020	20.831348
393.101103	-2.994700	3.797500	-11.371000	23.227437	0.001022	20.827479
394.099086	-2.997600	3.795400	-11.376000	23.223802	0.001022	20.834267
395.099322	-2.996100	3.796300	-11.373000	23.228036	0.001022	20.827605
396.099200	-3.012900	3.795600	-11.434000	23.235481	0.001023	20.826057
397.100840	-2.999600	3.795700	-11.385000	23.214015	0.001021	20.833469
398.102141	-3.004500	3.794600	-11.400000	23.224325	0.001022	20.831946
399.098340	-2.998500	3.795200	-11.379000	23.205499	0.001021	20.838685
400.099548	-2.994800	3.794300	-11.362000	23.189810	0.001022	20.823912
401.098684	-3.019000	3.793000	-11.450000	23.206097	0.001022	20.820792
402.100977	-2.996400	3.794100	-11.367000	23.189262	0.001023	20.829051
403.100467	-2.984600	3.793900	-11.323000	23.193346	0.001023	20.835989
404.100202	-3.007200	3.794200	-11.409000	23.173797	0.001024	20.835839
405.102417	-2.977500	3.794200	-11.296000	23.196584	0.001022	20.819319
406.100813	-2.975800	3.793400	-11.287000	23.165977	0.001024	20.824210
407.100358	-2.998000	3.794200	-11.374000	23.225047	0.001025	20.826032
408.099086	-2.992700	3.794300	-11.354000	23.217103	0.001025	20.810485
409.101995	-2.997900	3.792900	-11.370000	23.233813	0.001024	20.830549
410.099889	-2.986800	3.792400	-11.326000	23.233513	0.001025	20.818870
411.099226	-2.997500	3.791700	-11.364000	23.276617	0.001027	20.838833
412.099695	-3.014100	3.792100	-11.428000	23.276817	0.001026	20.828602
413.100844	-2.986300	3.793200	-11.325000	23.281299	0.001027	20.829774
414.103226	-3.001100	3.791000	-11.376000	23.266158	0.001028	20.813653
415.107198	-3.013500	3.791100	-11.423000	23.246162	0.001026	20.799303
416.103527	-2.996700	3.790900	-11.359000	23.232266	0.001025	20.826155
417.101951	-2.992400	3.790200	-11.341000	23.247855	0.001028	20.822811
418.103421	-2.990400	3.791800	-11.338000	23.278732	0.001028	20.812030
419.106064	-2.993600	3.790500	-11.347000	23.270688	0.001028	20.819141
420.103586	-2.985200	3.790200	-11.313000	23.260005	0.001028	20.819340
421.105915	-2.999000	3.788900	-11.361000	23.259084	0.001029	20.815572
422.102449	-2.968500	3.790000	-11.249000	23.254576	0.001027	20.819115
423.103995	-3.011700	3.788700	-11.409000	23.250941	0.001029	20.824481
424.107949	-3.009700	3.788300	-11.401000	23.254128	0.001030	20.822459
425.104753	-3.002300	3.786500	-11.367000	23.235177	0.001031	20.814373
426.103717	-3.005700	3.788700	-11.387000	23.247055	0.001030	20.806836
427.103518	-3.000200	3.786900	-11.360000	23.271707	0.001030	20.816843
428.102710	-2.994000	3.787400	-11.338000	23.284009	0.001029	20.835335
429.104773	-3.020400	3.787000	-11.437000	23.302709	0.001031	20.812825
430.114584	-3.013000	3.785700	-11.405000	23.335700	0.001030	20.830717
431.105926	-2.994100	3.787800	-11.340000	23.358807	0.001031	20.799823
432.105935	-3.012500	3.785800	-11.404000	23.327782	0.001030	20.822781
433.105749	-2.989500	3.785200	-11.314000	23.369912	0.001033	20.824228
434.111516	-3.009800	3.784800	-11.390000	23.357437	0.001032	20.802243
435.105706	-3.014500	3.784300	-11.407000	23.332936	0.001033	20.811826
436.107963	-3.018000	3.785000	-11.421000	23.338015	0.001034	20.827347
437.106921	-2.997100	3.785600	-11.345000	23.345609	0.001033	20.816466
438.107799	-3.003200	3.785300	-11.366000	23.355146	0.001034	20.784299
439.107370	-3.029100	3.784300	-11.461000	23.390502	0.001035	20.806933
440.110200	-3.001400	3.784200	-11.357000	23.375861	0.001033	20.794156
441.107691	-2.973300	3.784000	-11.251000	23.373221	0.001034	20.805261
442.107387	-2.990000	3.784100	-11.313000	23.377977	0.001031	20.809079
443.107871	-2.989000	3.783100	-11.307000	23.390725	0.001033	20.792458
444.108580	-3.000300	3.782100	-11.346000	23.394858	0.001035	20.814619
445.108945	-2.962900	3.783300	-11.208000	23.418162	0.001035	20.799096
446.109227	-2.982800	3.783600	-11.285000	23.432080	0.001034	20.820158
447.112157	-3.003700	3.782200	-11.359000	23.442761	0.001035	20.808579
448.110002	-3.012300	3.781900	-11.391000	23.430337	0.001036	20.813669
449.111240	-3.003600	3.781700	-11.356000	23.439300	0.001036	20.809851
450.112368	-2.998400	3.782000	-11.338000	23.463201	0.001034	20.802040
451.110085	-3.010100	3.780600	-11.378000	23.465043	0.001037	20.786342
452.108954	-3.006200	3.781500	-11.367000	23.484986	0.001036	20.791634
453.111721	-2.992000	3.781700	-11.313000	23.485135	0.001036	20.796999
454.110865	-3.026300	3.778800	-11.435000	23.490314	0.001037	20.789388
455.116027	-2.990100	3.779500	-11.301000	23.481476	0.001037	20.788115
456.110849	-3.008300	3.778600	-11.366000	23.493949	0.001038	20.799669
457.111264	-3.004000	3.779100	-11.351000	23.511750	0.001037	20.796650
458.110565	-2.997500	3.778200	-11.324000	23.504555	0.001038	20.790861
459.112296	-2.993200	3.779000	-11.311000	23.511900	0.001038	20.793008
460.110167	-2.994400	3.779100	-11.316000	23.514813	0.001037	20.790712
461.110128	-2.987700	3.778600	-11.289000	23.539260	0.001037	20.798149
462.115954	-3.014500	3.776100	-11.382000	23.527459	0.001039	20.789638
463.111597	-2.990100	3.776600	-11.292000	23.519767	0.001038	20.813222
464.112167	-2.974800	3.779100	-11.240000	23.534904	0.001038	20.788092
465.110256	-2.998200	3.777100	-11.323000	23.532142	0.001038	20.791013
466.113162	-2.990800	3.777400	-11.297000	23.543045	0.001039	20.766381
467.111273	-3.020300	3.774700	-11.400000	23.520690	0.001040	20.804189
468.113458	-3.009900	3.775400	-11.363000	23.540979	0.001040	20.801768
469.112952	-2.985900	3.776300	-11.275000	23.520017	0.001037	20.797351
470.112212	-3.021800	3.774100	-11.403000	23.514939	0.001039	20.792735
471.115833	-3.008400	3.774400	-11.354000	23.479337	0.001038	20.801619
472.112504	-3.022000	3.773900	-11.404000	23.501519	0.001037	20.800620
473.115964	-3.001200	3.773500	-11.324000	23.479312	0.001039	20.796378
474.116869	-2.980200	3.774700	-11.247000	23.493826	0.001039	20.782952
475.113019	-2.989800	3.772500	-11.278000	23.520241	0.001039	20.763436
476.116117	-2.976900	3.773800	-11.233000	23.511751	0.001040	20.799023
477.116806	-2.996000	3.774100	-11.306000	23.528556	0.001039	20.784573
478.116191	-3.010000	3.772000	-11.352000	23.517975	0.001039	20.791985
479.117108	-2.998900	3.772000	-11.311000	23.499253	0.001040	20.779382
480.115640	-3.004700	3.772000	-11.332000	23.505551	0.001039	20.781902
481.116105	-2.998100	3.771400	-11.305000	23.487949	0.001042	20.775163
482.120368	-3.003600	3.771400	-11.326000	23.534853	0.001044	20.775713
483.116260	-2.997700	3.771100	-11.303000	23.538637	0.001042	20.784247
484.119392	-3.003500	3.770500	-11.324000	23.554271	0.001042	20.773841
485.117251	-2.998400	3.771100	-11.306000	23.560046	0.001041	20.770147
486.117261	-3.022300	3.768400	-11.388000	23.574982	0.001042	20.763308
487.121232	-2.996900	3.770400	-11.299000	23.589247	0.001043	20.780453
488.117378	-2.982100	3.771100	-11.245000	23.579787	0.001043	20.784247
489.117137	-2.970700	3.770400	-11.201000	23.578367	0.001044	20.757693
490.116422	-2.994200	3.769700	-11.285000	23.536794	0.001042	20.768649
491.117807	-2.984000	3.768700	-11.245000	23.539407	0.001044	20.776485
492.117125	-2.971200	3.768500	-11.195000	23.542269	0.001045	20.764655
493.121021	-2.990700	3.768500	-11.270000	23.551281	0.001042	20.755670
494.122531	-2.990700	3.768400	-11.270000	23.555066	0.001044	20.767051
495.119280	-2.994200	3.768300	-11.282000	23.557281	0.001042	20.778281
496.121035	-2.997300	3.767200	-11.291000	23.563156	0.001045	20.768997
497.121501	-3.016900	3.766200	-11.360000	23.603484	0.001045	20.765802
498.119611	-2.996900	3.767700	-11.290000	23.596963	0.001044	20.773015
499.119786	-3.000300	3.766500	-11.300000	23.614363	0.001045	20.780028
500.119153	-3.002400	3.767000	-11.309000	23.633979	0.001045	20.771717
501.120329	-3.036200	3.765800	-11.432000	23.654914	0.001045	20.756195
502.122547	-3.005700	3.765400	-11.316000	23.643314	0.001046	20.757368
503.119595	-2.997400	3.765900	-11.287000	23.651528	0.001046	20.772241
504.119079	-3.007700	3.764600	-11.322000	23.677168	0.001047	20.751952
505.120046	-2.994500	3.764200	-11.271000	23.698849	0.001047	20.782224
506.120659	-2.990500	3.765300	-11.259000	23.690909	0.001045	20.779479
507.126298	-3.003600	3.763500	-11.304000	23.655661	0.001046	20.761685
508.123413	-3.010500	3.763100	-11.328000	23.663627	0.001047	20.790534
509.122436	-2.987800	3.764000	-11.245000	23.639979	0.001046	20.770145
510.129108	-2.997100	3.762600	-11.276000	23.647198	0.001048	20.773589
511.121937	-3.012000	3.763200	-11.334000	23.651405	0.001048	20.756944
512.121585	-3.013300	3.761800	-11.334000	23.672314	0.001045	20.767001
513.128705	-3.023200	3.761900	-11.372000	23.659345	0.001047	20.756844
514.121932	-2.991900	3.762400	-11.256000	23.705321	0.001047	20.772592
515.130089	-3.003900	3.763000	-11.303000	23.707561	0.001048	20.752552
516.122411	-2.996000	3.760700	-11.266000	23.723317	0.001046	20.785418
517.125575	-3.007200	3.759800	-11.306000	23.714630	0.001048	20.773864
518.124645	-2.986900	3.761700	-11.233000	23.684387	0.001048	20.752077
519.126399	-2.991700	3.759600	-11.246000	23.693472	0.001046	20.768773
520.122461	-2.992500	3.760100	-11.251000	23.695140	0.001047	20.769023
521.123395	-2.988800	3.761100	-11.240000	23.716124	0.001047	20.787690
522.123567	-2.986800	3.758500	-11.224000	23.704649	0.001048	20.769547
523.126674	-2.996900	3.759400	-11.266000	23.727524	0.001045	20.780627
524.126245	-3.002800	3.759800	-11.289000	23.704350	0.001047	20.787265
525.123475	-3.010900	3.758200	-11.315000	23.724412	0.001048	20.782723
526.123743	-2.987200	3.758500	-11.227000	23.704226	0.001046	20.767700
527.123891	-3.031400	3.756800	-11.387000	23.740467	0.001048	20.782224
528.123887	-3.034300	3.757400	-11.400000	23.718712	0.001047	20.759939
529.126378	-3.013600	3.756300	-11.320000	23.702333	0.001047	20.772915
530.125413	-2.996500	3.757800	-11.258000	23.689216	0.001048	20.749806
531.125326	-2.993300	3.756700	-11.244000	23.679483	0.001047	20.777034
532.124963	-2.996000	3.757100	-11.255000	23.673086	0.001046	20.755447
533.122944	-2.985900	3.756900	-11.216000	23.682794	0.001047	20.779878
534.125562	-2.988100	3.757700	-11.227000	23.699447	0.001049	20.766228
535.126741	-3.004500	3.756600	-11.286000	23.710897	0.001049	20.781502
536.127175	-3.004800	3.753800	-11.278000	23.732726	0.001049	20.763558
537.128573	-3.004300	3.754100	-11.278000	23.735962	0.001048	20.770595
538.124443	-2.998900	3.753800	-11.257000	23.739597	0.001048	20.776610
539.124616	-2.996900	3.754000	-11.249000	23.739845	0.001048	20.775911
540.129436	-3.030900	3.754000	-11.376000	23.753013	0.001047	20.772517
541.125645	-3.021400	3.753200	-11.339000	23.751843	0.001046	20.754275
542.137229	-2.981200	3.753900	-11.189000	23.757991	0.001049	20.750955
543.126709	-2.992800	3.753700	-11.232000	23.759036	0.001050	20.776186
544.129626	-2.970100	3.754500	-11.150000	23.766578	0.001048	20.770471
545.129704	-2.993800	3.753300	-11.236000	23.781662	0.001049	20.762835
546.128965	-3.007300	3.751900	-11.281000	23.785370	0.001048	20.779830
547.127618	-3.007100	3.752000	-11.280000	23.777081	0.001047	20.773416
548.127223	-2.999500	3.750500	-11.249000	23.789551	0.001048	20.782600
549.127317	-3.009500	3.751400	-11.288000	23.753784	0.001049	20.758118
550.128973	-3.020600	3.750100	-11.326000	23.772004	0.001048	20.767377
551.134722	-2.995500	3.751000	-11.235000	23.794703	0.001048	20.777334
552.131961	-2.996400	3.749200	-11.234000	23.792712	0.001047	20.764905
553.131850	-2.967600	3.751100	-11.130000	23.816457	0.001047	20.767377
554.130077	-2.979900	3.750000	-11.174000	23.816830	0.001047	20.781027
555.135638	-2.996700	3.749600	-11.235000	23.845675	0.001050	20.767276
556.131807	-2.984000	3.749600	-11.188000	23.876387	0.001049	20.778632
557.129591	-2.993900	3.749700	-11.226000	23.877532	0.001047	20.796849
558.135608	-3.025000	3.747500	-11.335000	23.888607	0.001049	20.795152
559.130091	-3.028200	3.746400	-11.344000	23.891195	0.001047	20.780203
560.136755	-2.981900	3.749300	-11.179000	23.892140	0.001047	20.787789
561.142758	-3.010500	3.747800	-11.281000	23.891145	0.001050	20.794852
562.131637	-3.011400	3.746800	-11.282000	23.870712	0.001048	20.777208
563.135221	-2.997400	3.746900	-11.229000	23.861728	0.001048	20.790011
564.135104	-3.004700	3.746300	-11.255000	23.835894	0.001049	20.785443
565.133832	-3.024300	3.745600	-11.327000	23.817749	0.001049	20.768199
566.137243	-3.015000	3.745300	-11.291000	23.835122	0.001049	20.789886
567.138104	-3.005800	3.746300	-11.260000	23.809611	0.001049	20.795126
568.133698	-3.008100	3.746100	-11.268000	23.841991	0.001050	20.781600
569.135515	-2.989400	3.745900	-11.197000	23.794179	0.001049	20.797197
570.136181	-3.000900	3.744100	-11.235000	23.798983	0.001048	20.775460
571.138704	-3.002900	3.743000	-11.238000	23.787533	0.001050	20.792430
572.139697	-3.010300	3.743600	-11.268000	23.805080	0.001048	20.785368
573.137954	-2.997800	3.744200	-11.223000	23.779270	0.001048	20.787464
574.143097	-2.996700	3.743400	-11.217000	23.779843	0.001050	20.769072
575.138163	-2.995200	3.743600	-11.212000	23.818744	0.001049	20.798120
576.139131	-2.982600	3.743900	-11.166000	23.794851	0.001049	20.792655
577.144569	-3.027500	3.740800	-11.325000	23.823324	0.001049	20.790858
578.142115	-2.997300	3.741500	-11.213000	23.834299	0.001048	20.798544
579.142601	-3.016100	3.742300	-11.286000	23.848585	0.001047	20.790583
580.144437	-2.977100	3.742500	-11.141000	23.880094	0.001048	20.799418
581.143027	-2.996700	3.740400	-11.208000	23.887012	0.001047	20.810148
582.143783	-3.001700	3.741500	-11.229000	23.932505	0.001048	20.808352
583.146980	-3.001900	3.741200	-11.230000	23.925362	0.001048	20.798818
584.143745	-3.014100	3.741100	-11.275000	23.902914	0.001048	20.795748
585.143933	-3.015900	3.739900	-11.278000	23.916801	0.001047	20.788810
586.144417	-3.010100	3.739600	-11.254000	23.955425	0.001046	20.803834
587.149909	-2.987100	3.740500	-11.172000	23.968464	0.001048	20.798892
588.145854	-2.995000	3.738500	-11.196000	23.932105	0.001045	20.804631
589.147686	-3.015900	3.739300	-11.277000	23.899205	0.001046	20.816684
590.148435	-2.983500	3.738500	-11.152000	23.885766	0.001046	20.814588
591.146852	-2.987500	3.738800	-11.169000	23.893033	0.001048	20.810496
592.151373	-2.991200	3.738200	-11.180000	23.907990	0.001049	20.793725
593.146937	-2.997300	3.737900	-11.203000	23.929989	0.001050	20.807251
594.149050	-3.019600	3.735900	-11.279000	23.959180	0.001050	20.819928
595.148166	-3.004800	3.737800	-11.230000	23.961320	0.001048	20.805004
596.148937	-2.994800	3.736000	-11.188000	23.928720	0.001048	20.810719
597.149435	-2.986100	3.735800	-11.154000	23.922224	0.001048	20.803257
598.150323	-3.001900	3.735200	-11.211000	23.906546	0.001048	20.822149
599.149926	-2.979100	3.737100	-11.132000	23.879766	0.001048	20.801934
600.154514	-2.995800	3.736500	-11.193000	23.908760	0.001047	20.816308
601.150245	-2.996500	3.734900	-11.191000	23.921103	0.001045	20.814461
602.152604	-3.011200	3.734300	-11.243000	23.939270	0.001048	20.822722
603.153675	-3.018800	3.734300	-11.271000	23.979287	0.001048	20.841038
604.151782	-3.024000	3.734600	-11.292000	24.007904	0.001047	20.798615
605.151968	-2.995400	3.734900	-11.186000	24.011363	0.001048	20.811092
606.153297	-2.987100	3.735500	-11.157000	24.022138	0.001049	20.812890
607.154428	-2.997400	3.734400	-11.193000	24.045828	0.001046	20.796344
608.157681	-3.015200	3.733600	-11.256000	24.078922	0.001047	20.815784
609.158467	-2.995000	3.734100	-11.181000	24.097510	0.001047	20.815934
610.158085	-2.990700	3.732900	-11.163000	24.109180	0.001046	20.807249
611.154794	-3.018100	3.731700	-11.261000	24.101715	0.001047	20.804978
612.154782	-2.984100	3.733000	-11.139000	24.057125	0.001047	20.818579
613.157346	-2.969300	3.733700	-11.085000	24.052073	0.001048	20.817780
614.155573	-3.011600	3.732300	-11.238000	24.036372	0.001046	20.828586
615.156514	-2.984800	3.732600	-11.140000	24.000961	0.001046	20.814885
616.154346	-2.993900	3.731200	-11.170000	23.984363	0.001047	20.814361
617.155458	-3.003900	3.731100	-11.207000	23.977644	0.001047	20.815684
618.155408	-2.985700	3.731100	-11.139000	24.008103	0.001047	20.818729
619.162174	-2.994100	3.731500	-11.171000	23.953007	0.001048	20.820849
620.156585	-3.018900	3.728400	-11.254000	23.933970	0.001047	20.812191
621.156564	-3.010200	3.730200	-11.227000	23.962912	0.001046	20.822247
622.160381	-3.023800	3.729100	-11.275000	23.952709	0.001047	20.831455
623.154556	-3.003100	3.729000	-11.197000	23.952086	0.001045	20.836047
624.162155	-2.994400	3.728300	-11.163000	23.975081	0.001047	20.830657
625.157629	-2.984000	3.729200	-11.127000	24.005192	0.001047	20.814861
626.158105	-3.007700	3.728600	-11.212000	24.010492	0.001046	20.823021
627.158801	-2.996100	3.728400	-11.170000	24.051998	0.001043	20.833351
628.157200	-3.010000	3.726400	-11.216000	24.074892	0.001045	20.832604
629.159449	-2.998400	3.726400	-11.172000	24.099426	0.001045	20.832080
630.157790	-2.998100	3.728000	-11.175000	24.106442	0.001045	20.832952
631.157745	-3.027800	3.724700	-11.275000	24.137321	0.001045	20.852068
632.159389	-3.010000	3.727200	-11.216000	24.141675	0.001045	20.836521
633.160657	-3.004400	3.725000	-11.190000	24.147571	0.001046	20.835322
634.158566	-3.008800	3.726100	-11.210000	24.151901	0.001045	20.837294
635.160523	-2.993300	3.725300	-11.149000	24.165511	0.001044	20.836720
636.159523	-3.009400	3.724700	-11.208000	24.169541	0.001045	20.846451
637.163483	-2.998500	3.724700	-11.168000	24.169118	0.001043	20.832277
638.159622	-2.989700	3.725100	-11.135000	24.186609	0.001044	20.853613
639.159966	-2.976900	3.724500	-11.086000	24.177378	0.001043	20.834398
640.160811	-2.987400	3.724100	-11.124000	24.203179	0.001044	20.828509
641.162830	-2.982500	3.725000	-11.109000	24.215096	0.001043	20.847100
642.158568	-2.996900	3.722500	-11.155000	24.185588	0.001043	20.839788
643.159610	-3.015800	3.723100	-11.227000	24.195988	0.001043	20.828408
644.163735	-3.009200	3.722000	-11.198000	24.188598	0.001044	20.832850
645.158296	-3.006600	3.722400	-11.191000	24.206487	0.001044	20.843206
646.163522	-3.007500	3.722100	-11.193000	24.233034	0.001044	20.861298
647.159986	-3.006000	3.722000	-11.186000	24.262143	0.001045	20.827435
648.158158	-3.011300	3.721400	-11.205000	24.252664	0.001043	20.849694
649.159689	-3.013900	3.721900	-11.216000	24.266272	0.001043	20.830155
650.159529	-2.997400	3.721200	-11.153000	24.234452	0.001041	20.848022
651.164394	-3.002100	3.720600	-11.169000	24.235945	0.001042	20.848571
652.160827	-2.993600	3.721400	-11.140000	24.239004	0.001042	20.855433
653.161187	-2.989300	3.721100	-11.121000	24.204570	0.001040	20.860249
654.160683	-2.987500	3.720600	-11.115000	24.189791	0.001044	20.836891
655.158923	-3.002700	3.720200	-11.170000	24.170932	0.001042	20.866338
656.163972	-2.987500	3.720400	-11.114000	24.182875	0.001040	20.872152
657.159689	-2.994200	3.719300	-11.135000	24.196434	0.001041	20.859201
658.161440	-2.997500	3.718900	-11.146000	24.237810	0.001040	20.856606
659.160178	-2.985000	3.719800	-11.103000	24.239825	0.001042	20.848670
660.164482	-3.014400	3.717900	-11.206000	24.254728	0.001041	20.842756
661.167509	-2.999000	3.718200	-11.150000	24.232312	0.001041	20.866737
662.161489	-3.024500	3.715700	-11.237000	24.262316	0.001041	20.867910
663.163188	-2.998500	3.717000	-11.145000	24.262291	0.001040	20.861248
664.162181	-2.967000	3.718300	-11.031000	24.263959	0.001041	20.850592
665.161874	-3.003300	3.716600	-11.161000	24.250052	0.001041	20.863669
666.166448	-3.005300	3.716900	-11.169000	24.219948	0.001039	20.850069
667.163454	-2.996900	3.717300	-11.139000	24.246568	0.001042	20.872028
668.167074	-3.003200	3.716000	-11.159000	24.252987	0.001039	20.856183
669.165679	-3.005700	3.715600	-11.167000	24.261472	0.001041	20.863270
670.161685	-3.010200	3.714900	-11.181000	24.268860	0.001041	20.858828
671.165690	-3.022500	3.715500	-11.229000	24.232040	0.001037	20.880214
672.165873	-2.997500	3.714700	-11.134000	24.267692	0.001040	20.871880
673.165497	-2.994600	3.712700	-11.117000	24.260726	0.001040	20.848298
674.167274	-2.984000	3.715400	-11.086000	24.255153	0.001039	20.882535
675.163643	-2.984500	3.715400	-11.087000	24.265080	0.001038	20.901500
676.167775	-2.989300	3.714400	-11.102000	24.255526	0.001039	20.868212
677.166516	-3.013800	3.712200	-11.186000	24.267916	0.001037	20.877319
678.166228	-2.989400	3.713800	-11.100000	24.263960	0.001038	20.873826
679.169448	-3.005300	3.713200	-11.159000	24.252217	0.001039	20.879116
680.169897	-2.994400	3.713300	-11.118000	24.299461	0.001037	20.873402
681.166774	-2.996400	3.713800	-11.127000	24.308194	0.001037	20.878368
682.170810	-3.020200	3.711200	-11.206000	24.300680	0.001039	20.892166
683.166877	-3.005500	3.711600	-11.154000	24.305855	0.001039	20.883607
684.167677	-2.994800	3.710300	-11.110000	24.328394	0.001037	20.882035
685.167342	-3.001300	3.711200	-11.137000	24.314312	0.001039	20.873126
686.168651	-2.974900	3.711500	-11.040000	24.353942	0.001039	20.889645
687.174565	-2.998800	3.711200	-11.127000	24.354091	0.001037	20.876994
688.173466	-3.003900	3.710800	-11.146000	24.324661	0.001038	20.889196
689.169798	-3.014900	3.709500	-11.183000	24.318989	0.001037	20.898679
690.171342	-2.999300	3.709800	-11.125000	24.336030	0.001039	20.887799
691.172374	-3.003200	3.708000	-11.136000	24.319660	0.001038	20.874697
692.172484	-2.996800	3.708500	-11.113000	24.325581	0.001039	20.892015
693.176255	-3.025000	3.708800	-11.217000	24.313665	0.001037	20.890493
694.173198	-3.007400	3.709300	-11.153000	24.311028	0.001035	20.893538
695.179531	-3.007500	3.707700	-11.150000	24.321774	0.001037	20.895783
696.175273	-2.980900	3.708000	-11.052000	24.327397	0.001039	20.877716
697.173702	-3.000800	3.708000	-11.124000	24.346452	0.001038	20.871702
698.175149	-3.004700	3.706500	-11.137000	24.354040	0.001037	20.911553
699.173567	-2.984500	3.706300	-11.061000	24.376827	0.001037	20.890318
700.173711	-2.983600	3.707000	-11.059000	24.386279	0.001035	20.896955
701.174129	-2.999000	3.706600	-11.114000	24.394090	0.001035	20.900998
702.175961	-3.005600	3.706900	-11.140000	24.412026	0.001036	20.891016
703.174432	-2.980100	3.707600	-11.047000	24.427672	0.001036	20.916193
704.182755	-3.001100	3.706800	-11.124000	24.445755	0.001037	20.904465
705.175429	-3.006100	3.705000	-11.136000	24.442994	0.001036	20.900747
706.176531	-2.996000	3.704900	-11.099000	24.443169	0.001036	20.903767
707.175869	-2.963700	3.705700	-10.982000	24.450009	0.001034	20.901620
708.177144	-3.011300	3.704800	-11.155000	24.427323	0.001035	20.898775
709.184939	-3.006900	3.704100	-11.137000	24.429736	0.001035	20.917316
710.176169	-2.992400	3.704000	-11.083000	24.426925	0.001035	20.922081
711.180886	-2.985400	3.703300	-11.054000	24.392298	0.001034	20.900622
712.182153	-2.996000	3.703500	-11.095000	24.397298	0.001035	20.919387
713.178677	-2.980000	3.704300	-11.038000	24.383119	0.001034	20.900897
714.181333	-2.981400	3.704100	-11.042000	24.373566	0.001033	20.896055
715.189815	-2.979800	3.703000	-11.034000	24.375283	0.001035	20.907259
716.176944	-3.002000	3.701900	-11.112000	24.402969	0.001032	20.915593
717.178839	-3.014700	3.701700	-11.158000	24.422770	0.001032	20.902268
718.179237	-3.002700	3.701800	-11.114000	24.420730	0.001033	20.895955
719.180289	-3.003200	3.702300	-11.117000	24.451600	0.001034	20.911751
720.180721	-3.002300	3.700900	-11.110000	24.443665	0.001033	20.908531
721.179134	-3.016800	3.701000	-11.164000	24.439859	0.001031	20.896180
722.178959	-3.016700	3.698700	-11.156000	24.432272	0.001032	20.914171
723.179808	-2.970200	3.700400	-10.990000	24.425805	0.001032	20.915269
724.180714	-2.987500	3.700700	-11.054000	24.460654	0.001031	20.920833
725.182982	-3.026800	3.698300	-11.193000	24.457022	0.001032	20.905337
726.183550	-3.005700	3.699600	-11.119000	24.486996	0.001029	20.907434
727.184809	-3.003000	3.700600	-11.112000	24.489433	0.001030	20.936902
728.181449	-3.012700	3.699000	-11.142000	24.501846	0.001031	20.928494
729.183896	-2.997400	3.700200	-11.089000	24.508387	0.001030	20.897602
730.184501	-2.991200	3.698300	-11.062000	24.494309	0.001030	20.927096
731.185589	-2.989700	3.699900	-11.061000	24.482071	0.001031	20.899648
732.185463	-3.000300	3.698100	-11.093000	24.440854	0.001030	20.913772
733.184700	-3.015400	3.697700	-11.149000	24.418168	0.001029	20.926099
734.186106	-2.982700	3.697200	-11.026000	24.403368	0.001030	20.943965
735.188226	-3.008700	3.696600	-11.120000	24.358740	0.001030	20.906785
736.188214	-3.013600	3.696000	-11.138000	24.357421	0.001031	20.927745
737.185927	-2.995100	3.696100	-11.069000	24.375781	0.001029	20.929094
738.187814	-3.013900	3.695900	-11.139000	24.411701	0.001030	20.913922
739.186695	-3.017700	3.693800	-11.145000	24.426552	0.001026	20.923604
740.186583	-3.025700	3.693900	-11.176000	24.449362	0.001027	20.915669
741.190349	-2.986000	3.695100	-11.033000	24.431204	0.001027	20.905039
742.189578	-2.993800	3.695200	-11.062000	24.472495	0.001030	20.918963
743.192975	-2.998700	3.695200	-11.080000	24.466625	0.001027	20.919711
744.190556	-3.010800	3.693900	-11.120000	24.450109	0.001027	20.910254
745.189719	-3.003800	3.694400	-11.096000	24.443318	0.001024	20.914821
746.195043	-2.993300	3.695500	-11.061000	24.407696	0.001024	20.906586
747.189366	-3.011000	3.694100	-11.122000	24.399612	0.001025	20.925027
748.191984	-2.992000	3.693700	-11.050000	24.365905	0.001027	20.895482
749.191947	-3.009100	3.692800	-11.110000	24.354486	0.001025	20.905363
750.191647	-2.989500	3.693100	-11.039000	24.354187	0.001026	20.901744
751.191491	-2.999200	3.693300	-11.076000	24.364213	0.001024	20.880035
752.201042	-3.005200	3.692000	-11.094000	24.398244	0.001024	20.907060
753.192093	-3.018000	3.690800	-11.139000	24.419686	0.001026	20.884951
754.192460	-2.980100	3.692200	-11.002000	24.420457	0.001024	20.898526
755.193725	-2.981300	3.692100	-11.006000	24.409909	0.001025	20.884152
756.196843	-2.986300	3.692200	-11.025000	24.389909	0.001023	20.897277
757.194711	-3.009400	3.690000	-11.103000	24.386302	0.001023	20.903616
758.193244	-2.991900	3.690300	-11.040000	24.411600	0.001024	20.888693
759.193662	-3.008700	3.690200	-11.101000	24.399735	0.001023	20.887221
760.194769	-2.981700	3.691300	-11.006000	24.399809	0.001023	20.909105
761.194645	-3.006700	3.688400	-11.089000	24.413067	0.001024	20.896328
762.196560	-3.006400	3.689200	-11.089000	24.407694	0.001022	20.878611
763.195313	-2.983600	3.689900	-11.009000	24.405804	0.001023	20.885249
764.195054	-2.993100	3.689000	-11.040000	24.432793	0.001022	20.880083
765.196869	-2.954400	3.690100	-10.901000	24.412794	0.001021	20.899372
766.196691	-2.991000	3.687700	-11.029000	24.418291	0.001019	20.885448
767.196076	-2.993100	3.688600	-11.040000	24.411052	0.001021	20.880083
768.198874	-2.981400	3.688800	-10.996000	24.375405	0.001022	20.881780
769.196797	-3.000000	3.688300	-11.065000	24.377793	0.001022	20.872796
770.198596	-2.996800	3.686400	-11.047000	24.402196	0.001021	20.893009
771.196749	-2.997100	3.687700	-11.051000	24.397420	0.001020	20.885373
772.196358	-3.013900	3.687900	-11.113000	24.426027	0.001024	20.873295
773.199966	-3.007300	3.686800	-11.086000	24.453862	0.001020	20.879409
774.199546	-3.019700	3.685400	-11.128000	24.459607	0.001021	20.876639
775.199001	-3.024700	3.685400	-11.146000	24.476124	0.001018	20.866183
776.196306	-3.018400	3.685600	-11.122000	24.475975	0.001020	20.882628
777.195205	-2.987000	3.685400	-11.007000	24.489381	0.001019	20.876164
778.198682	-2.977000	3.687100	-10.976000	24.510947	0.001020	20.860818
779.200371	-2.996500	3.684900	-11.041000	24.492317	0.001018	20.882428
780.199704	-2.996200	3.684200	-11.037000	24.495077	0.001018	20.885198
781.199997	-2.998700	3.684500	-11.047000	24.447095	0.001019	20.871198
782.197217	-2.983000	3.685000	-10.990000	24.461099	0.001018	20.861541
783.197477	-2.983400	3.684300	-10.991000	24.450925	0.001018	20.863188
784.200861	-3.013700	3.682700	-11.098000	24.472939	0.001018	20.866307
785.201559	-3.004300	3.683600	-11.065000	24.518507	0.001019	20.846119
786.201231	-3.016800	3.681300	-11.105000	24.500350	0.001018	20.865359
787.198983	-3.023300	3.681400	-11.129000	24.502414	0.001017	20.868852
788.199316	-3.003100	3.680900	-11.053000	24.507240	0.001017	20.852832
789.201807	-2.991100	3.681800	-11.011000	24.493684	0.001016	20.850611
790.201554	-3.013500	3.680800	-11.091000	24.516617	0.001018	20.866033
791.201115	-2.996800	3.681600	-11.032000	24.527810	0.001015	20.849288
792.202462	-3.006700	3.681600	-11.068000	24.556860	0.001015	20.876538
793.205149	-2.990400	3.681400	-11.008000	24.566685	0.001015	20.863163
794.203889	-2.994000	3.679800	-11.016000	24.553254	0.001013	20.859170
795.204814	-2.989200	3.680500	-11.001000	24.542559	0.001014	20.869301
796.204111	-2.977000	3.680500	-10.956000	24.534451	0.001014	20.861641
797.207149	-2.965700	3.681600	-10.918000	24.529501	0.001014	20.841502
798.204019	-2.979800	3.680100	-10.965000	24.490053	0.001013	20.860244
799.203889	-2.998500	3.679200	-11.031000	24.504107	0.001011	20.867231
800.214767	-2.981500	3.679300	-10.968000	24.479133	0.001012	20.875840
801.205905	-2.992500	3.681300	-11.014000	24.439608	0.001013	20.839507
802.205283	-3.009200	3.680700	-11.075000	24.453364	0.001013	20.855677
803.207634	-2.982200	3.679600	-10.972000	24.460577	0.001012	20.866233
804.207617	-2.999400	3.678900	-11.034000	24.482317	0.001012	20.855802
805.208807	-2.984000	3.679400	-10.977000	24.477640	0.001011	20.846369
806.208374	-3.001100	3.678300	-11.039000	24.488784	0.001012	20.861815
807.208384	-2.998000	3.676800	-11.022000	24.515001	0.001012	20.866307
808.208459	-2.999400	3.676700	-11.025000	24.528058	0.001011	20.856649
809.209251	-3.008300	3.675900	-11.057000	24.544276	0.001011	20.853955
810.211368	-2.988000	3.677000	-10.984000	24.531839	0.001009	20.854279
811.209437	-2.992200	3.677200	-11.002000	24.534849	0.001011	20.861092
812.210306	-3.036400	3.675000	-11.158000	24.555020	0.001010	20.847192
813.210121	-3.003600	3.675400	-11.039000	24.566959	0.001010	20.841153
814.209039	-3.015400	3.674800	-11.080000	24.583373	0.001009	20.848614
815.212841	-2.995500	3.675500	-11.008000	24.588323	0.001009	20.838408
816.210718	-2.992700	3.674600	-10.996000	24.613492	0.001010	20.855601
817.211672	-3.012100	3.674300	-11.067000	24.618243	0.001009	20.854203
818.211472	-2.998400	3.673500	-11.013000	24.617397	0.001007	20.866630
819.209805	-3.009900	3.673600	-11.056000	24.600932	0.001009	20.850111
820.211014	-2.978100	3.675900	-10.946000	24.615357	0.001006	20.857945
821.214488	-3.014200	3.673700	-11.072000	24.598047	0.001007	20.849586
822.211193	-2.999600	3.674200	-11.020000	24.586058	0.001008	20.859842
823.211094	-3.005200	3.673700	-11.039000	24.557829	0.001006	20.832467
824.211130	-2.977100	3.674700	-10.939000	24.536513	0.001005	20.825305
825.210106	-3.014400	3.671400	-11.066000	24.560415	0.001005	20.838855
826.215174	-2.975200	3.672000	-10.923000	24.576383	0.001006	20.840177
827.211903	-2.996400	3.672200	-11.002000	24.568025	0.001006	20.834637
828.214367	-2.999000	3.671500	-11.009000	24.598294	0.001006	20.852679
829.216491	-3.012700	3.671300	-11.058000	24.582948	0.001006	20.832067
830.215207	-2.990700	3.670800	-10.977000	24.592673	0.001008	20.839928
831.217051	-2.983900	3.671600	-10.955000	24.593543	0.001005	20.835585
832.216994	-3.006200	3.671200	-11.035000	24.607049	0.001006	20.838230
833.216289	-2.986500	3.670200	-10.959000	24.631596	0.001004	20.843421
834.215545	-3.002400	3.668900	-11.015000	24.669597	0.001006	20.828448
835.217543	-3.000000	3.669600	-11.008000	24.679171	0.001004	20.832840
836.217986	-3.008100	3.668500	-11.033000	24.686732	0.001004	20.839478
837.218166	-2.984900	3.670500	-10.955000	24.689293	0.001003	20.846315
838.214723	-3.004200	3.669900	-11.024000	24.662683	0.001004	20.837157
839.222589	-2.980000	3.671300	-10.939000	24.647488	0.001001	20.809582
840.218959	-3.006400	3.668800	-11.029000	24.628338	0.001004	20.833514
841.218630	-2.985700	3.668500	-10.952000	24.596453	0.001003	20.825702
842.222483	-3.010000	3.668100	-11.040000	24.565115	0.001002	20.830769
843.224538	-2.976800	3.668600	-10.918000	24.527160	0.001002	20.829196
844.219943	-3.022400	3.665500	-11.078000	24.515096	0.001000	20.838430
845.218802	-3.005000	3.667800	-11.021000	24.504426	0.001002	20.850957
846.220037	-2.997500	3.666600	-10.989000	24.540790	0.001000	20.817742
847.221360	-3.005900	3.666900	-11.021000	24.543029	0.001001	20.819040
848.222030	-2.986200	3.665600	-10.946000	24.532458	0.001001	20.810805
849.223938	-2.971800	3.668100	-10.900000	24.526986	0.001003	20.844194
850.219376	-2.977700	3.667300	-10.919000	24.532109	0.001000	20.836533
851.220426	-3.010400	3.665400	-11.033000	24.522211	0.000998	20.836084
852.228417	-2.989100	3.665300	-10.955000	24.556982	0.000998	20.806488
853.224859	-2.985500	3.665800	-10.941000	24.554395	0.000999	20.839453
854.223522	-3.006900	3.665300	-11.019000	24.605706	0.000997	20.813650
855.223229	-3.011700	3.663200	-11.030000	24.591454	0.000998	20.831118
856.223797	-3.012000	3.664300	-11.035000	24.590982	0.000997	20.832067
857.225278	-2.996800	3.664800	-10.982000	24.624434	0.000998	20.811579
858.224761	-3.008100	3.663300	-11.019000	24.635029	0.000998	20.835012
859.222085	-2.985300	3.664900	-10.940000	24.682356	0.000997	20.814699
860.226603	-3.010800	3.663100	-11.027000	24.706081	0.000995	20.808635
861.227459	-2.996700	3.662600	-10.975000	24.715681	0.000995	20.822061
862.226010	-2.989000	3.662000	-10.945000	24.748980	0.000995	20.832243
863.227259	-2.987200	3.663800	-10.942000	24.723738	0.000996	20.821612
864.225897	-3.021100	3.661500	-11.061000	24.705460	0.000994	20.824607
865.224492	-2.981300	3.662100	-10.916000	24.741321	0.000995	20.831195
866.226804	-2.993900	3.661900	-10.962000	24.720854	0.000994	20.814924
867.227737	-3.022400	3.660400	-11.062000	24.740600	0.000995	20.831894
868.226981	-3.011300	3.660000	-11.020000	24.738411	0.000992	20.806939
869.230264	-3.009600	3.660200	-11.015000	24.768626	0.000994	20.821613
870.227416	-3.005600	3.659700	-10.998000	24.762558	0.000992	20.826903
871.227277	-3.026700	3.659600	-11.075000	24.747563	0.000992	20.811855
872.226620	-2.984900	3.660400	-10.925000	24.720556	0.000991	20.822686
873.226564	-3.004400	3.658900	-10.991000	24.704093	0.000991	20.825605
874.228791	-3.006200	3.659700	-11.001000	24.696384	0.000992	20.824508
875.228017	-2.999200	3.658500	-10.972000	24.686510	0.000991	20.807962
876.228569	-2.979500	3.660100	-10.904000	24.680741	0.000992	20.808336
877.229522	-2.964300	3.659200	-10.846000	24.690688	0.000988	20.825905
878.226299	-2.994000	3.658800	-10.954000	24.695488	0.000990	20.825980
879.229180	-3.008500	3.656900	-11.000000	24.737764	0.000990	20.823833
880.228203	-3.006100	3.656900	-10.992000	24.738735	0.000990	20.811057
881.228174	-2.990000	3.658000	-10.936000	24.741147	0.000990	20.831495
882.228885	-3.008000	3.656100	-10.996000	24.752661	0.000989	20.807963
883.228132	-2.990700	3.657900	-10.938000	24.732343	0.000990	20.806540
884.229698	-2.989600	3.656200	-10.929000	24.746270	0.000989	20.824308
885.230882	-2.999000	3.657200	-10.966000	24.737864	0.000988	20.827252
886.229245	-3.000700	3.656500	-10.971000	24.754973	0.000990	20.805541
887.231606	-2.986200	3.657000	-10.918000	24.755072	0.000989	20.823658
888.230735	-2.996500	3.656400	-10.954000	24.740450	0.000989	20.813727
889.232846	-3.001500	3.655000	-10.970000	24.769446	0.000988	20.826229
890.234817	-2.975700	3.655200	-10.877000	24.771883	0.000987	20.827726
891.231311	-3.009600	3.653300	-10.993000	24.766387	0.000987	20.816995
892.231874	-3.017400	3.653800	-11.024000	24.750472	0.000987	20.802921
893.234493	-2.997700	3.653900	-10.952000	24.728961	0.000986	20.802671
894.230952	-2.995700	3.653600	-10.944000	24.694692	0.000986	20.809534
895.232768	-2.993100	3.654400	-10.935000	24.725703	0.000986	20.798454
896.237513	-3.014100	3.652800	-11.009000	24.714711	0.000985	20.807338
897.233474	-2.994300	3.653300	-10.938000	24.712796	0.000985	20.808261
898.233996	-2.991000	3.653800	-10.926000	24.734681	0.000987	20.793712
899.232632	-3.002300	3.652900	-10.966000	24.713219	0.000985	20.807737
900.233636	-3.018900	3.650700	-11.019000	24.705932	0.000984	20.795209
901.239580	-2.995400	3.651700	-10.937000	24.730304	0.000985	20.812553
902.235509	-2.980400	3.653200	-10.887000	24.689594	0.000983	20.810582
903.235894	-2.987500	3.653000	-10.912000	24.682580	0.000984	20.811604
904.236209	-2.996000	3.652900	-10.942000	24.686535	0.000982	20.801823
905.242923	-2.985100	3.651600	-10.899000	24.693374	0.000982	20.803470
906.239951	-3.000700	3.651500	-10.956000	24.706903	0.000981	20.784329
907.236105	-3.001300	3.650900	-10.957000	24.703371	0.000981	20.779837
908.236305	-2.986300	3.652100	-10.905000	24.717074	0.000980	20.804967
909.235430	-3.023000	3.650800	-11.036000	24.732070	0.000983	20.809110
910.235447	-3.000900	3.650400	-10.953000	24.718293	0.000982	20.789121
911.237187	-2.996400	3.649700	-10.935000	24.733488	0.000979	20.795360
912.236427	-3.019300	3.648900	-11.016000	24.708097	0.000978	20.794536
913.237382	-3.005400	3.648600	-10.965000	24.709390	0.000980	20.789670
914.236116	-2.988400	3.649500	-10.905000	24.688028	0.000978	20.814701
915.237814	-2.990500	3.649200	-10.911000	24.724585	0.000977	20.809659
916.235868	-2.989800	3.650100	-10.913000	24.783422	0.000978	20.772925
917.240219	-2.989500	3.647900	-10.903000	24.760097	0.000979	20.804045
918.239603	-3.011900	3.648700	-10.989000	24.770889	0.000977	20.785952
919.242861	-2.965200	3.648400	-10.817000	24.775142	0.000978	20.792591
920.239865	-3.012500	3.646800	-10.985000	24.791578	0.000977	20.779688
921.240511	-3.010100	3.646500	-10.975000	24.766886	0.000976	20.788573
922.243871	-3.004300	3.646100	-10.953000	24.774545	0.000977	20.783457
923.248936	-2.993500	3.647400	-10.917000	24.780662	0.000976	20.788173
924.242675	-3.014300	3.646400	-10.990000	24.784492	0.000976	20.793913
925.242187	-3.011200	3.644600	-10.973000	24.804932	0.000976	20.798780
926.241630	-3.001300	3.645300	-10.939000	24.819181	0.000973	20.786053
927.242008	-3.008500	3.646500	-10.969000	24.790509	0.000975	20.797107
928.244035	-2.981200	3.645200	-10.866000	24.801948	0.000975	20.798630
929.241999	-2.996500	3.643800	-10.917000	24.833006	0.000974	20.783332
930.248981	-3.003700	3.644300	-10.946000	24.810229	0.000975	20.786077
931.243721	-3.019300	3.644100	-11.002000	24.810602	0.000972	20.779813
932.245967	-3.004400	3.643500	-10.945000	24.798044	0.000972	20.788548
933.247814	-2.987600	3.644500	-10.888000	24.791579	0.000973	20.799603
934.243101	-3.001900	3.644600	-10.939000	24.788372	0.000972	20.800178
935.242628	-3.013500	3.641700	-10.973000	24.797448	0.000972	20.792217
936.246103	-3.005600	3.642900	-10.948000	24.785064	0.000971	20.798755
937.244713	-3.003400	3.642800	-10.939000	24.819306	0.000970	20.787600
938.246345	-3.013500	3.641000	-10.971000	24.824577	0.000970	20.778666
939.250643	-3.002100	3.642200	-10.931000	24.843127	0.000970	20.778317
940.246449	-3.009700	3.640800	-10.956000	24.857275	0.000970	20.776869
941.248097	-3.000300	3.641400	-10.924000	24.843102	0.000970	20.773076
942.246985	-3.011900	3.639100	-10.960000	24.844918	0.000971	20.772053
943.247723	-2.991300	3.640100	-10.887000	24.790485	0.000968	20.790919
944.253831	-2.991000	3.641300	-10.890000	24.766389	0.000969	20.763892
945.249631	-3.001400	3.640100	-10.924000	24.765295	0.000967	20.751414
946.251181	-3.013000	3.640300	-10.966000	24.726575	0.000968	20.787475
947.249251	-3.013200	3.640400	-10.969000	24.689173	0.000965	20.789297
948.249549	-3.004200	3.638800	-10.930000	24.726626	0.000967	20.764292
949.249330	-2.990300	3.639400	-10.882000	24.733415	0.000965	20.771579
950.248639	-3.006100	3.638400	-10.936000	24.730231	0.000966	20.781187
951.249223	-3.025200	3.638400	-11.005000	24.735627	0.000965	20.766213
952.249072	-3.006900	3.637600	-10.936000	24.760347	0.000964	20.776320
953.252558	-3.010300	3.638600	-10.953000	24.775938	0.000963	20.763043
954.249866	-3.015100	3.636100	-10.963000	24.780836	0.000964	20.764166
955.249713	-2.994600	3.638000	-10.893000	24.795433	0.000964	20.771703
956.249332	-2.997400	3.637800	-10.903000	24.826293	0.000964	20.770430
957.252973	-3.008700	3.638000	-10.944000	24.851282	0.000963	20.767061
958.251365	-3.004700	3.637600	-10.929000	24.896860	0.000963	20.770130
959.251598	-3.013100	3.635800	-10.953000	24.903598	0.000962	20.756979
960.255038	-3.002900	3.636500	-10.918000	24.906233	0.000961	20.780961
961.256155	-3.015300	3.636100	-10.963000	24.909789	0.000963	20.780262
962.254969	-3.018500	3.635700	-10.973000	24.901882	0.000961	20.768533
963.255285	-3.012800	3.636100	-10.954000	24.908968	0.000961	20.748143
964.252948	-2.982900	3.634800	-10.841000	24.911156	0.000962	20.774048
965.252414	-3.036100	3.633000	-11.028000	24.926522	0.000959	20.767659
966.253446	-2.999000	3.635500	-10.902000	24.919609	0.000959	20.761195
967.253534	-3.007900	3.634500	-10.931000	24.971797	0.000960	20.768058
968.252837	-2.997800	3.634300	-10.894000	24.944920	0.000958	20.772375
969.255391	-3.011400	3.633100	-10.940000	24.936591	0.000958	20.780610
970.256525	-3.008300	3.633800	-10.930000	24.922667	0.000960	20.769954
971.255200	-3.008100	3.633700	-10.929000	24.963393	0.000959	20.771476
972.256621	-2.997900	3.632400	-10.887000	24.923487	0.000959	20.789270
973.256616	-3.010300	3.633300	-10.936000	24.902701	0.000959	20.769355
974.255290	-2.995200	3.632500	-10.879000	24.861226	0.000958	20.773722
975.256397	-3.028100	3.630800	-10.994000	24.899269	0.000959	20.749315
976.255011	-3.009400	3.632200	-10.930000	24.897479	0.000959	20.765536
977.258507	-3.006100	3.630900	-10.913000	24.899319	0.000955	20.777340
978.256718	-3.001700	3.631400	-10.898000	24.909936	0.000956	20.775669
979.256931	-2.990300	3.631900	-10.858000	24.904341	0.000956	20.761044
980.257054	-3.021000	3.630100	-10.965000	24.909489	0.000956	20.765736
981.260510	-3.016000	3.629700	-10.946000	24.886439	0.000955	20.772474
982.260780	-3.006700	3.628800	-10.910000	24.877389	0.000954	20.781883
983.268684	-2.985900	3.629600	-10.836000	24.875698	0.000955	20.754106
984.260343	-3.020100	3.628000	-10.956000	24.881019	0.000957	20.749015
985.261586	-3.008200	3.628600	-10.915000	24.876692	0.000953	20.764114
986.261502	-2.987900	3.629700	-10.844000	24.907649	0.000954	20.763889
987.259348	-3.004200	3.629100	-10.902000	24.879080	0.000954	20.789744
988.267599	-2.993900	3.627300	-10.858000	24.850758	0.000953	20.759896
989.261361	-3.001000	3.629900	-10.891000	24.817190	0.000952	20.747543
990.260169	-3.011400	3.628200	-10.925000	24.824799	0.000955	20.741429
991.263838	-3.028200	3.627300	-10.983000	24.790682	0.000953	20.760770
992.263433	-3.037500	3.627600	-11.018000	24.774046	0.000951	20.765886
993.261221	-2.999600	3.627600	-10.880000	24.766909	0.000951	20.769630
994.260375	-2.999600	3.627700	-10.880000	24.753182	0.000950	20.770079
995.261885	-3.002600	3.626500	-10.888000	24.772629	0.000952	20.764464
996.260294	-2.992200	3.626700	-10.851000	24.821939	0.000952	20.760845
997.263498	-2.998900	3.626600	-10.875000	24.857473	0.000952	20.756204
998.260628	-3.013700	3.624300	-10.921000	24.838575	0.000950	20.780860
999.266501	-2.990100	3.626000	-10.842000	24.867518	0.000947	20.770553
1000.260623	-3.004400	3.623500	-10.886000	24.847477	0.000948	20.765612
1001.260390	-3.000200	3.625000	-10.875000	24.821716	0.000949	20.783381
1002.267258	-3.028400	3.623800	-10.972000	24.816394	0.000949	20.770454
1003.262529	-2.993800	3.624500	-10.850000	24.829623	0.000948	20.755755
1004.262656	-3.011800	3.623100	-10.911000	24.805801	0.000950	20.773099
1005.263537	-3.015800	3.623200	-10.926000	24.785908	0.000948	20.764988
1006.264955	-2.993200	3.623100	-10.844000	24.789140	0.000950	20.786250
1007.262383	-3.001100	3.623600	-10.874000	24.785908	0.000945	20.773523
1008.265161	-3.005300	3.622400	-10.886000	24.800803	0.000947	20.778988
1009.262410	-2.992900	3.623700	-10.844000	24.819527	0.000946	20.783081
1010.263953	-2.994500	3.623500	-10.850000	24.816767	0.000947	20.775095
1011.263513	-3.011900	3.621200	-10.905000	24.860605	0.000945	20.761244
1012.262966	-2.997700	3.621300	-10.855000	24.854662	0.000944	20.765237
1013.264627	-3.018900	3.621500	-10.932000	24.895093	0.000944	20.762193
1014.263246	-2.982900	3.622500	-10.805000	24.902875	0.000943	20.786600
1015.263566	-3.007600	3.619400	-10.885000	24.963741	0.000946	20.787473
1016.262011	-3.003400	3.620100	-10.871000	24.980623	0.000943	20.793038
1017.263402	-2.994400	3.619600	-10.837000	24.945616	0.000941	20.786350
1018.264771	-3.006200	3.619600	-10.880000	24.906829	0.000942	20.773973
1019.262713	-3.016300	3.619000	-10.914000	24.922991	0.000941	20.778814
1020.265467	-2.978800	3.620900	-10.785000	24.931021	0.000940	20.786874
1021.262806	-2.988800	3.619400	-10.817000	24.950788	0.000940	20.783955
1022.263654	-3.001100	3.619800	-10.863000	24.935846	0.000939	20.804519
1023.265051	-3.003900	3.617800	-10.867000	24.945990	0.000941	20.802846
1024.268566	-2.992800	3.618500	-10.828000	24.942385	0.000939	20.786426
1025.266665	-2.972200	3.618600	-10.755000	24.959764	0.000938	20.792965
1026.268620	-2.993400	3.619000	-10.832000	24.971599	0.000937	20.793464
1027.269214	-3.013000	3.615700	-10.893000	24.938580	0.000937	20.766486
1028.267280	-3.004700	3.616100	-10.865000	24.972693	0.000939	20.782233
1029.270864	-2.968800	3.617500	-10.737000	24.987636	0.000939	20.781585
1030.276004	-3.001200	3.616900	-10.853000	24.984055	0.000938	20.801699
1031.271543	-3.014100	3.616100	-10.896000	25.042306	0.000936	20.797582
1032.268039	-3.015200	3.615200	-10.899000	25.045265	0.000937	20.791543
1033.272312	-3.016400	3.613600	-10.899000	25.055483	0.000936	20.784256
1034.271512	-3.009200	3.613900	-10.874000	25.022418	0.000935	20.788049
1035.274175	-2.995300	3.615700	-10.830000	25.031194	0.000936	20.796384
1036.271090	-2.988300	3.613300	-10.796000	25.035868	0.000935	20.814826
1037.270183	-2.988500	3.614600	-10.802000	25.038901	0.000934	20.797956
1038.270324	-2.978400	3.613400	-10.761000	25.069555	0.000935	20.788898
1039.271468	-2.989900	3.613600	-10.803000	25.058218	0.000935	20.799329
1040.273733	-2.992800	3.613000	-10.812000	25.049567	0.000934	20.781636
1041.271855	-2.996500	3.612600	-10.824000	25.086883	0.000935	20.774050
1042.275013	-2.988600	3.614800	-10.802000	25.073210	0.000934	20.789248
1043.273282	-3.011800	3.610800	-10.873000	25.052451	0.000934	20.792118
1044.273637	-3.012000	3.612200	-10.879000	25.017994	0.000934	20.800204
1045.275408	-3.007100	3.612300	-10.861000	25.001137	0.000934	20.788025
1046.273107	-2.989800	3.613300	-10.802000	24.973392	0.000932	20.809014
1047.274951	-3.015500	3.611700	-10.890000	24.966405	0.000931	20.801527
1048.275603	-2.994000	3.611200	-10.810000	24.947186	0.000931	20.795987
1049.275213	-3.011800	3.609500	-10.870000	24.935700	0.000931	20.807691
1050.275653	-3.010700	3.609700	-10.867000	24.976873	0.000933	20.799231
1051.278257	-2.984600	3.610500	-10.775000	24.957281	0.000931	20.797110
1052.274986	-2.979300	3.611100	-10.757000	24.977470	0.000929	20.810262
1053.278046	-2.988200	3.610600	-10.788000	25.011606	0.000929	20.792369
1054.277876	-2.972500	3.610300	-10.729000	24.989628	0.000929	20.810612
1055.278112	-3.000100	3.608800	-10.825000	24.993283	0.000928	20.797210
1056.281368	-3.002800	3.609200	-10.837000	24.980901	0.000928	20.792844
1057.277616	-2.990200	3.610500	-10.795000	24.971901	0.000928	20.810362
1058.279003	-3.004600	3.608300	-10.839000	24.998231	0.000928	20.805971
1059.277496	-3.007200	3.607100	-10.845000	25.039203	0.000925	20.809639
1060.278276	-3.020800	3.607800	-10.898000	25.055462	0.000926	20.803201
1061.282882	-2.998600	3.607200	-10.816000	25.075798	0.000924	20.825510
1062.278133	-3.016200	3.606200	-10.876000	25.110129	0.000925	20.814455
1063.281555	-3.012500	3.606000	-10.862000	25.157859	0.000925	20.817326
1064.280095	-3.006100	3.606600	-10.840000	25.161488	0.000924	20.827133
1065.278084	-3.019400	3.606300	-10.889000	25.169344	0.000923	20.803251
1066.281345	-2.988800	3.606800	-10.779000	25.172799	0.000922	20.812410
1067.279187	-3.048600	3.602500	-10.981000	25.179709	0.000924	20.832149
1068.277824	-3.010400	3.604700	-10.850000	25.189901	0.000924	20.822467
1069.278900	-2.992900	3.605300	-10.788000	25.173595	0.000923	20.833123
1070.278843	-2.995100	3.604400	-10.793000	25.180157	0.000921	20.810314
1071.281718	-2.994100	3.604500	-10.790000	25.203648	0.000922	20.820147
1072.279819	-3.007100	3.602900	-10.833000	25.212746	0.000922	20.837815
1073.282969	-2.999600	3.603200	-10.807000	25.195271	0.000920	20.817901
1074.283254	-2.994300	3.603100	-10.786000	25.170116	0.000919	20.819673
1075.279493	-3.001900	3.602500	-10.811000	25.161962	0.000920	20.811013
1076.280293	-2.999100	3.603000	-10.804000	25.140608	0.000920	20.813758
1077.281761	-3.004200	3.602600	-10.821000	25.140708	0.000918	20.820970
1078.278714	-2.982400	3.602500	-10.743000	25.150279	0.000919	20.821570
1079.277793	-3.000500	3.601000	-10.804000	25.166387	0.000917	20.828732
1080.279545	-2.996500	3.602500	-10.794000	25.169445	0.000916	20.809517
1081.278698	-2.976200	3.602500	-10.720000	25.157538	0.000916	20.827434
1082.282177	-3.004100	3.600400	-10.814000	25.175287	0.000917	20.832450
1083.281868	-3.021300	3.600800	-10.877000	25.186001	0.000916	20.825189
1084.281598	-2.980100	3.601600	-10.732000	25.173597	0.000916	20.829806
1085.281023	-3.009100	3.600800	-10.834000	25.159130	0.000915	20.823817
1086.280828	-2.988500	3.600200	-10.758000	25.118784	0.000914	20.839264
1087.282032	-3.010300	3.598800	-10.833000	25.152667	0.000914	20.840562
1088.280817	-2.998600	3.599100	-10.792000	25.138796	0.000914	20.834224
1089.281315	-3.018900	3.598000	-10.861000	25.145831	0.000913	20.833225
1090.284414	-3.006400	3.599900	-10.822000	25.150754	0.000913	20.829633
1091.281905	-3.016800	3.598200	-10.854000	25.189732	0.000913	20.840314
1092.283753	-2.984300	3.599000	-10.740000	25.195846	0.000912	20.845504
1093.286441	-3.019400	3.597000	-10.858000	25.211507	0.000912	20.838468
1094.286807	-2.972000	3.599300	-10.695000	25.217547	0.000911	20.839790
1095.286790	-3.003400	3.598100	-10.804000	25.233406	0.000908	20.830108
1096.289098	-2.998300	3.596300	-10.782000	25.245015	0.000908	20.846504
1097.292470	-3.003400	3.597200	-10.802000	25.209644	0.000909	20.853191
1098.290061	-2.976400	3.595900	-10.702000	25.193163	0.000909	20.842810
1099.289541	-2.998700	3.596200	-10.783000	25.192667	0.000909	20.834252
1100.291038	-3.019200	3.593500	-10.848000	25.187496	0.000907	20.855138
1101.293130	-2.991700	3.596100	-10.758000	25.178175	0.000908	20.843884
1102.292357	-2.961100	3.596400	-10.649000	25.158314	0.000906	20.836274
1103.291335	-2.987500	3.594200	-10.736000	25.126370	0.000907	20.836448
1104.291753	-3.011700	3.593700	-10.822000	25.119360	0.000906	20.858334
1105.293059	-3.004600	3.592700	-10.793000	25.124108	0.000905	20.874953
1106.295107	-3.008200	3.593400	-10.809000	25.163758	0.000904	20.841265
1107.292319	-3.020000	3.591900	-10.846000	25.179866	0.000903	20.835151
1108.299980	-3.001300	3.592200	-10.780000	25.215486	0.000905	20.849574
1109.294783	-2.996300	3.591700	-10.761000	25.220285	0.000903	20.849650
1110.292955	-2.998800	3.591400	-10.769000	25.192742	0.000904	20.851397
1111.293567	-2.995300	3.591000	-10.754000	25.228338	0.000905	20.847304
1112.292838	-3.016700	3.591100	-10.831000	25.246806	0.000902	20.863948
1113.294030	-2.994600	3.591800	-10.755000	25.215934	0.000902	20.846705
1114.297555	-3.009700	3.590600	-10.805000	25.215786	0.000901	20.854616
1115.296411	-2.986000	3.591200	-10.722000	25.169302	0.000901	20.850149
1116.296259	-2.974300	3.591000	-10.679000	25.169923	0.000902	20.856463
1117.296295	-2.991900	3.590600	-10.741000	25.191947	0.000902	20.852495
1118.296584	-2.989800	3.589900	-10.732000	25.188467	0.000900	20.856587
1119.299470	-3.011900	3.588600	-10.808000	25.179692	0.000899	20.839243
1120.297850	-2.993800	3.589300	-10.744000	25.121697	0.000900	20.860679
1121.298555	-3.001800	3.587500	-10.767000	25.103450	0.000899	20.867018
1122.297835	-2.985600	3.589100	-10.714000	25.121821	0.000896	20.864123
1123.297480	-3.012200	3.587000	-10.803000	25.102356	0.000898	20.853592
1124.300743	-2.995200	3.588900	-10.748000	25.106259	0.000898	20.833329
1125.295450	-3.024400	3.585700	-10.843000	25.152224	0.000895	20.851496
1126.301810	-2.990800	3.588700	-10.732000	25.174273	0.000895	20.849924
1127.296818	-3.026500	3.585800	-10.850000	25.171191	0.000896	20.872433
1128.296562	-3.015100	3.585400	-10.809000	25.209571	0.000895	20.857385
1129.298786	-3.013000	3.586200	-10.804000	25.173402	0.000894	20.848102
1130.297016	-3.012400	3.585100	-10.799000	25.192991	0.000895	20.863500
1131.297242	-3.012100	3.585100	-10.798000	25.172334	0.000892	20.867417
1132.297446	-2.997600	3.586500	-10.750000	25.151851	0.000894	20.865820
1133.298933	-2.997000	3.584400	-10.740000	25.175641	0.000893	20.855090
1134.299365	-3.004200	3.585700	-10.771000	25.163634	0.000893	20.868640
1135.302394	-3.002600	3.583300	-10.758000	25.191550	0.000892	20.863000
1136.299500	-2.990700	3.585700	-10.723000	25.211460	0.000892	20.855015
1137.299625	-3.012900	3.582900	-10.794000	25.260402	0.000891	20.873805
1138.299485	-3.005200	3.584200	-10.769000	25.249640	0.000892	20.873431
1139.299382	-3.009100	3.582200	-10.778000	25.215910	0.000890	20.877025
1140.302117	-3.009900	3.583100	-10.783000	25.232961	0.000888	20.873755
1141.299911	-3.006000	3.582900	-10.768000	25.203978	0.000890	20.860305
1142.304936	-3.023900	3.580700	-10.826000	25.196347	0.000889	20.880143
1143.300143	-2.998000	3.582300	-10.739000	25.202934	0.000889	20.880593
1144.300904	-2.988100	3.581700	-10.702000	25.169302	0.000887	20.890924
1145.302042	-2.995200	3.581600	-10.726000	25.198261	0.000886	20.869263
1146.300153	-2.982700	3.583100	-10.687000	25.219588	0.000889	20.857959
1147.304991	-2.992700	3.582100	-10.719000	25.243998	0.000887	20.881990
1148.302942	-3.025900	3.580300	-10.832000	25.254064	0.000886	20.881666
1149.300718	-3.000100	3.580900	-10.742000	25.257768	0.000885	20.894392
1150.303681	-3.016300	3.579300	-10.795000	25.237809	0.000886	20.872932
1151.301070	-3.037100	3.578900	-10.868000	25.246136	0.000884	20.886981
1152.301685	-3.014600	3.577900	-10.784000	25.282600	0.000884	20.883288
1153.301352	-2.983300	3.581400	-10.684000	25.281009	0.000884	20.903975
1154.300217	-3.014700	3.577900	-10.786000	25.311009	0.000885	20.865821
1155.301209	-3.018900	3.578700	-10.802000	25.327885	0.000884	20.878971
1156.307964	-2.991000	3.580200	-10.706000	25.326444	0.000882	20.870413
1157.301529	-2.977500	3.577800	-10.652000	25.323338	0.000882	20.899534
1158.307039	-2.993000	3.577200	-10.706000	25.312849	0.000882	20.902279
1159.303213	-2.997500	3.576900	-10.720000	25.299453	0.000880	20.885984
1160.302430	-2.994300	3.578300	-10.713000	25.265475	0.000883	20.887905
1161.307149	-3.031800	3.576000	-10.840000	25.260578	0.000881	20.878249
1162.302782	-3.014300	3.576800	-10.779000	25.214147	0.000880	20.893745
1163.304154	-2.987100	3.576200	-10.682000	25.202588	0.000881	20.892573
1164.302680	-2.993700	3.575900	-10.704000	25.200699	0.000877	20.896839
1165.304303	-2.994800	3.576400	-10.709000	25.213028	0.000880	20.904001
1166.304635	-3.022100	3.574600	-10.801000	25.251731	0.000880	20.903029
1167.304615	-3.023000	3.575100	-10.807000	25.257323	0.000879	20.880670
1168.306929	-2.980200	3.575100	-10.653000	25.278774	0.000877	20.896042
1169.303381	-3.018800	3.573100	-10.783000	25.295080	0.000879	20.898662
1170.305239	-2.993900	3.572700	-10.695000	25.293911	0.000877	20.882792
1171.306862	-2.989500	3.575300	-10.687000	25.295776	0.000878	20.892250
1172.303632	-3.004800	3.572200	-10.733000	25.293341	0.000878	20.916355
1173.305510	-3.003200	3.573400	-10.730000	25.279869	0.000877	20.886710
1174.303746	-2.996100	3.573200	-10.705000	25.304029	0.000874	20.908121
1175.304119	-2.995100	3.572600	-10.699000	25.305247	0.000875	20.915981
1176.306838	-2.993000	3.572400	-10.691000	25.293416	0.000874	20.896518
1177.308351	-3.022000	3.571700	-10.791000	25.347798	0.000873	20.909394
1178.305159	-3.004300	3.572000	-10.730000	25.332985	0.000873	20.927236
1179.305260	-2.982600	3.572900	-10.655000	25.328015	0.000872	20.908496
1180.305868	-2.984300	3.571400	-10.657000	25.338355	0.000872	20.898965
1181.304744	-3.017800	3.570000	-10.773000	25.350881	0.000871	20.907274
1182.308679	-3.015600	3.569500	-10.763000	25.365247	0.000872	20.923593
1183.305841	-3.013300	3.569100	-10.754000	25.399644	0.000872	20.893650
1184.312778	-2.987200	3.570600	-10.665000	25.397730	0.000869	20.898840
1185.306552	-3.003300	3.569300	-10.719000	25.403397	0.000869	20.931080
1186.309750	-2.997900	3.569400	-10.699000	25.380732	0.000869	20.913539
1187.311275	-2.981200	3.570100	-10.640000	25.382943	0.000870	20.924767
1188.306854	-3.001700	3.569400	-10.713000	25.388883	0.000867	20.909870
1189.306968	-3.015400	3.568300	-10.758000	25.382769	0.000869	20.914162
1190.307002	-3.016900	3.567800	-10.762000	25.403025	0.000865	20.907475
1191.307736	-3.012000	3.567400	-10.743000	25.370343	0.000867	20.930132
1192.312824	-3.015400	3.566500	-10.753000	25.382695	0.000865	20.917880
1193.308299	-2.994400	3.567100	-10.680000	25.345663	0.000865	20.915310
1194.307671	-2.995900	3.566300	-10.683000	25.381750	0.000865	20.922621
1195.306945	-2.988300	3.566500	-10.657000	25.405833	0.000865	20.936844
1196.308607	-2.992600	3.566900	-10.673000	25.426286	0.000865	20.919452
1197.306325	-3.001000	3.564600	-10.697000	25.402552	0.000864	20.925016
1198.312638	-2.995800	3.564900	-10.677000	25.411276	0.000863	20.932353
1199.309002	-2.978000	3.565300	-10.617000	25.401658	0.000864	20.928386
1200.308593	-2.995200	3.564600	-10.675000	25.398700	0.000863	20.921149
1201.307522	-2.994000	3.564500	-10.671000	25.420496	0.000863	20.922172
1202.309247	-2.982700	3.566300	-10.635000	25.464285	0.000864	20.915884
1203.312881	-2.985300	3.563500	-10.637000	25.476190	0.000862	20.931156
1204.308331	-2.969300	3.565000	-10.583000	25.480887	0.000861	20.917382
1205.309247	-2.989000	3.563500	-10.650000	25.466945	0.000859	20.942734
1206.314300	-2.996600	3.562700	-10.676000	25.469355	0.000859	20.914338
1207.310107	-2.970100	3.563200	-10.582000	25.486429	0.000859	20.923421
1208.312735	-2.986200	3.563700	-10.641000	25.466300	0.000860	20.913166
1209.310849	-2.979300	3.562400	-10.613000	25.450768	0.000857	20.922698
1210.309461	-2.993900	3.562300	-10.662000	25.431234	0.000858	20.913989
1211.310026	-3.008800	3.561200	-10.714000	25.389979	0.000854	20.919504
1212.311668	-3.014000	3.558800	-10.725000	25.388165	0.000856	20.933328
1213.312355	-2.996700	3.560700	-10.669000	25.399920	0.000855	20.919055
1214.313430	-2.975800	3.561200	-10.595000	25.412719	0.000855	20.918157
1215.312369	-2.988900	3.559500	-10.638000	25.391893	0.000854	20.901039
1216.312683	-2.984700	3.560600	-10.626000	25.435559	0.000855	20.895574
1217.311918	-3.027300	3.557000	-10.766000	25.431707	0.000855	20.907353
1218.313246	-3.006900	3.558400	-10.699000	25.462598	0.000854	20.892855
1219.316195	-2.976200	3.559000	-10.591000	25.444606	0.000854	20.902288
1220.311477	-3.004200	3.557700	-10.686000	25.442592	0.000853	20.894103
1221.315982	-3.019800	3.558500	-10.743000	25.429819	0.000853	20.903087
1222.315119	-2.996600	3.558100	-10.661000	25.423830	0.000852	20.899444
1223.315055	-3.002100	3.557800	-10.680000	25.449900	0.000851	20.901440
1224.317275	-3.004700	3.556800	-10.686000	25.460685	0.000850	20.900417
1225.318225	-2.991800	3.555800	-10.637000	25.488817	0.000849	20.886468
1226.316285	-2.963400	3.558400	-10.544000	25.481113	0.000850	20.908127
1227.316404	-2.985600	3.556900	-10.618000	25.491501	0.000847	20.898645
1228.316523	-2.986800	3.555300	-10.618000	25.488718	0.000849	20.914342
1229.317095	-3.004100	3.556500	-10.683000	25.515656	0.000848	20.892557
1230.320082	-3.009000	3.555500	-10.697000	25.507431	0.000846	20.898522
1231.316739	-3.026100	3.553700	-10.752000	25.507978	0.000847	20.901915
1232.319853	-2.978200	3.554800	-10.586000	25.449180	0.000848	20.888865
1233.316737	-3.005700	3.552700	-10.677000	25.412772	0.000846	20.908254
1234.316582	-3.027900	3.552900	-10.756000	25.405193	0.000846	20.892584
1235.325519	-2.992300	3.554100	-10.634000	25.363266	0.000845	20.904063
1236.317890	-2.995200	3.552600	-10.640000	25.376265	0.000843	20.889615
1237.318254	-2.988800	3.553100	-10.617000	25.359935	0.000844	20.870849
1238.319333	-2.997700	3.552000	-10.647000	25.351884	0.000844	20.869878
1239.321321	-2.994400	3.553100	-10.639000	25.339383	0.000843	20.909953
1240.318646	-2.967700	3.552100	-10.540000	25.367169	0.000841	20.888542
1241.321588	-3.029900	3.550700	-10.757000	25.407208	0.000843	20.878013
1242.321385	-2.990600	3.552700	-10.623000	25.442747	0.000840	20.874345
1243.320018	-2.976200	3.551400	-10.569000	25.461957	0.000841	20.885100
1244.320457	-2.976200	3.552800	-10.573000	25.492424	0.000838	20.887246
1245.319687	-3.012100	3.550300	-10.692000	25.496128	0.000840	20.905188
1246.321126	-3.003300	3.551000	-10.663000	25.505895	0.000838	20.878488
1247.319893	-2.974400	3.552100	-10.564000	25.532658	0.000839	20.879761
1248.320695	-2.986300	3.550300	-10.602000	25.513549	0.000839	20.879536
1249.321175	-2.983300	3.549600	-10.587000	25.552140	0.000839	20.875618
1250.319354	-2.989200	3.550400	-10.613000	25.562627	0.000836	20.871451
1251.322549	-3.008400	3.548500	-10.673000	25.577039	0.000835	20.898725
1252.321076	-2.973000	3.549300	-10.549000	25.575299	0.000835	20.866634
1253.321214	-3.007500	3.547800	-10.669000	25.587922	0.000836	20.868881
1254.325880	-3.026900	3.547600	-10.737000	25.585287	0.000834	20.870502
1255.323309	-3.009000	3.547100	-10.673000	25.596917	0.000833	20.889292
1256.323157	-2.992900	3.547800	-10.617000	25.571148	0.000834	20.898499
1257.326375	-3.013300	3.546800	-10.686000	25.475376	0.000833	20.839782
1258.322219	-2.993300	3.546500	-10.615000	25.465633	0.000832	20.890687
1259.324970	-3.013900	3.545600	-10.685000	25.443913	0.000830	20.867456
1260.323069	-3.010400	3.547300	-10.677000	25.437848	0.000832	20.852832
1261.323023	-3.007000	3.545400	-10.660000	25.425795	0.000830	20.866806
1262.326293	-2.978900	3.545500	-10.560000	25.383297	0.000830	20.865383
1263.323256	-3.009600	3.544400	-10.665000	25.375542	0.000831	20.864709
1264.321784	-2.998400	3.545700	-10.630000	25.393560	0.000830	20.860991
1265.324975	-3.011300	3.546100	-10.677000	25.417691	0.000828	20.861514
1266.323988	-2.973100	3.544900	-10.537000	25.439462	0.000829	20.843547
1267.327981	-3.009500	3.544200	-10.665000	25.430241	0.000829	20.885968
1268.324822	-2.990500	3.543500	-10.595000	25.455192	0.000826	20.877359
1269.325571	-2.971000	3.544000	-10.527000	25.461032	0.000828	20.852878
1270.324689	-2.991300	3.542600	-10.595000	25.418287	0.000828	20.864008
1271.323327	-2.983900	3.543500	-10.572000	25.451812	0.000827	20.865905
1272.326985	-3.008000	3.541600	-10.652000	25.455764	0.000827	20.856123
1273.323611	-3.011600	3.542600	-10.668000	25.482677	0.000825	20.837631
1274.325913	-3.000900	3.542600	-10.631000	25.467816	0.000826	20.853053
1275.324060	-2.994100	3.542500	-10.605000	25.458472	0.000824	20.865006
1276.323733	-3.002400	3.541200	-10.631000	25.420026	0.000822	20.837781
1277.325037	-3.000300	3.541200	-10.624000	25.388290	0.000823	20.879405
1278.325661	-3.010600	3.541200	-10.660000	25.395374	0.000824	20.860441
1279.328020	-3.006100	3.540200	-10.641000	25.399051	0.000824	20.847539
1280.325514	-2.984200	3.539800	-10.561000	25.415877	0.000824	20.852580
1281.325985	-2.973400	3.539500	-10.522000	25.417790	0.000821	20.841700
1282.327354	-2.964700	3.540400	-10.494000	25.465829	0.000822	20.859118
1283.331717	-3.008500	3.538900	-10.644000	25.494556	0.000819	20.860939
1284.327095	-2.981900	3.539200	-10.552000	25.493935	0.000820	20.838031
1285.329136	-3.024100	3.538500	-10.700000	25.508001	0.000820	20.837932
1286.329053	-2.988700	3.538400	-10.575000	25.541398	0.000818	20.851556
1287.332360	-2.999800	3.537800	-10.612000	25.576387	0.000818	20.859667
1288.333694	-2.996600	3.536100	-10.594000	25.576759	0.000819	20.845817
1289.335203	-3.011800	3.536800	-10.651000	25.598080	0.000818	20.845418
1290.332163	-2.989700	3.537000	-10.572000	25.591495	0.000815	20.862037
1291.333698	-2.988400	3.536600	-10.567000	25.561155	0.000814	20.842000
1292.331248	-2.983600	3.536800	-10.551000	25.584438	0.000816	20.852581
1293.334785	-3.015400	3.534200	-10.656000	25.587172	0.000816	20.839205
1294.331799	-3.001300	3.534700	-10.608000	25.605584	0.000815	20.859592
1295.334803	-2.988900	3.535400	-10.567000	25.578599	0.000813	20.840552
1296.332074	-3.001000	3.534500	-10.606000	25.559838	0.000814	20.846367
1297.333556	-2.987000	3.533900	-10.555000	25.556259	0.000813	20.861264
1298.334558	-2.995400	3.533000	-10.583000	25.517891	0.000813	20.838381
1299.338089	-2.991000	3.534300	-10.570000	25.502808	0.000811	20.859268
1300.334768	-3.020200	3.532500	-10.668000	25.496843	0.000812	20.857071
1301.334686	-3.017600	3.531900	-10.657000	25.502112	0.000811	20.844819
1302.335180	-3.009200	3.531400	-10.625000	25.496171	0.000810	20.847863
1303.333210	-2.997000	3.532400	-10.586000	25.524153	0.000810	20.830919
1304.334504	-3.004900	3.531700	-10.611000	25.554917	0.000810	20.858494
1305.333753	-3.002000	3.530000	-10.597000	25.564335	0.000809	20.845667
1306.338078	-3.000100	3.531100	-10.593000	25.590674	0.000807	20.858842
1307.336063	-2.988100	3.532000	-10.553000	25.539634	0.000808	20.831767
1308.335220	-3.013600	3.528400	-10.632000	25.547238	0.000810	20.840351
1309.339336	-3.021300	3.530300	-10.665000	25.523457	0.000807	20.845866
1310.335771	-3.007900	3.528400	-10.613000	25.522165	0.000808	20.831293
1311.338696	-2.995800	3.531200	-10.576000	25.519158	0.000807	20.842498
1312.336466	-2.995200	3.528400	-10.568000	25.542169	0.000805	20.838106
1313.338799	-2.991900	3.528600	-10.556000	25.560086	0.000806	20.839978
1314.341798	-2.994300	3.528400	-10.562000	25.590948	0.000805	20.842997
1315.339904	-3.012500	3.526900	-10.623000	25.574647	0.000803	20.826627
1316.339819	-3.004600	3.526600	-10.596000	25.566049	0.000804	20.847389
1317.339889	-2.989400	3.527200	-10.543000	25.530142	0.000804	20.840252
1318.341341	-3.012100	3.527000	-10.622000	25.502459	0.000802	20.834263
1319.339931	-2.986200	3.527900	-10.533000	25.493264	0.000803	20.831667
1320.340912	-3.001700	3.526700	-10.585000	25.486480	0.000802	20.832441
1321.341638	-3.014100	3.526900	-10.629000	25.471321	0.000803	20.826228
1322.345705	-3.018700	3.525000	-10.640000	25.474130	0.000800	20.828574
1323.341216	-2.992900	3.527000	-10.555000	25.544629	0.000802	20.835835
1324.347423	-3.013800	3.526000	-10.625000	25.529595	0.000800	20.827376
1325.345636	-2.994000	3.524700	-10.551000	25.505789	0.000799	20.865107
1326.343379	-2.993400	3.525200	-10.552000	25.524303	0.000799	20.824906
1327.344702	-2.996000	3.524700	-10.559000	25.520054	0.000798	20.832492
1328.342951	-2.996100	3.523200	-10.555000	25.501416	0.000796	20.830845
1329.342885	-2.990100	3.522300	-10.531000	25.490779	0.000796	20.823483
1330.346654	-3.017200	3.520500	-10.621000	25.462127	0.000796	20.838806
1331.342979	-2.982600	3.522900	-10.507000	25.466674	0.000796	20.830570
1332.345299	-3.001500	3.522500	-10.572000	25.461927	0.000796	20.817743
1333.344858	-2.997000	3.522600	-10.557000	25.482504	0.000795	20.827027
1334.343636	-3.003900	3.523700	-10.584000	25.479398	0.000793	20.828649
1335.345409	-2.994200	3.520700	-10.541000	25.469657	0.000795	20.832617
1336.344149	-3.011800	3.520800	-10.602000	25.415827	0.000795	20.816495
1337.347123	-2.985400	3.521800	-10.513000	25.428402	0.000792	20.828174
1338.342429	-2.993600	3.520800	-10.539000	25.441226	0.000791	20.810232
1339.344577	-3.002000	3.520600	-10.567000	25.451614	0.000792	20.817819
1340.346869	-3.020300	3.519100	-10.628000	25.496496	0.000793	20.813102
1341.345592	-3.000300	3.520300	-10.562000	25.499279	0.000792	20.831544
1342.347338	-2.980800	3.520300	-10.493000	25.524552	0.000789	20.824681
1343.344507	-2.970000	3.519500	-10.452000	25.485287	0.000791	20.803743
1344.347738	-3.008400	3.519300	-10.586000	25.488294	0.000790	20.812926
1345.346574	-3.002500	3.519700	-10.567000	25.491600	0.000787	20.808186
1346.347219	-3.000500	3.517200	-10.552000	25.515654	0.000788	20.830919
1347.346176	-3.012800	3.516800	-10.594000	25.521420	0.000787	20.818217
1348.343645	-3.027300	3.516800	-10.645000	25.513368	0.000788	20.819140
1349.345747	-3.003900	3.515800	-10.560000	25.526713	0.000786	20.817843
1350.346636	-3.010800	3.515700	-10.582000	25.555066	0.000784	20.816920
1351.347312	-3.012400	3.516300	-10.592000	25.577579	0.000785	20.813451
1352.347123	-2.969000	3.516400	-10.439000	25.579940	0.000787	20.805390
1353.346296	-2.972100	3.516200	-10.450000	25.558868	0.000786	20.806039
1354.346864	-3.013700	3.514200	-10.589000	25.558122	0.000784	20.808609
1355.345630	-2.997000	3.515800	-10.536000	25.577778	0.000784	20.819340
1356.351711	-2.994300	3.514700	-10.522000	25.599024	0.000783	20.823608
1357.347739	-3.009300	3.513900	-10.573000	25.608690	0.000784	20.825729
1358.352953	-3.032100	3.512600	-10.648000	25.602602	0.000783	20.835261
1359.348339	-2.990600	3.514900	-10.511000	25.537498	0.000782	20.799276
1360.349674	-2.988900	3.514100	-10.501000	25.518910	0.000780	20.806213
1361.355391	-2.994100	3.512000	-10.514000	25.538765	0.000781	20.801497
1362.350277	-2.991600	3.512000	-10.506000	25.558893	0.000783	20.823608
1363.355827	-3.004900	3.512300	-10.553000	25.574399	0.000779	20.815472
1364.350955	-3.006000	3.510300	-10.551000	25.588165	0.000781	20.808435
1365.353046	-2.984800	3.511400	-10.479000	25.547959	0.000782	20.814998
1366.352203	-3.004200	3.510200	-10.544000	25.564260	0.000779	20.807661
1367.355123	-3.016600	3.509800	-10.587000	25.526166	0.000777	20.796905
1368.352427	-3.011100	3.510600	-10.570000	25.516549	0.000777	20.805265
1369.353880	-3.009900	3.509300	-10.561000	25.541598	0.000777	20.806713
1370.355451	-3.016400	3.509100	-10.584000	25.561626	0.000774	20.810706
1371.355674	-2.997100	3.508800	-10.514000	25.570696	0.000776	20.828823
1372.360279	-2.988800	3.510100	-10.490000	25.625612	0.000776	20.809060
1373.355126	-2.999900	3.508000	-10.523000	25.602901	0.000773	20.807113
1374.358723	-2.971100	3.509200	-10.425000	25.570573	0.000775	20.790768
1375.355991	-2.979200	3.507600	-10.449000	25.544159	0.000774	20.798379
1376.356003	-2.986100	3.506400	-10.469000	25.538368	0.000774	20.811056
1377.360814	-2.994000	3.507500	-10.501000	25.577357	0.000771	20.794736
1378.359089	-2.989100	3.507500	-10.484000	25.543588	0.000771	20.804918
1379.357774	-2.992100	3.505900	-10.489000	25.479797	0.000773	20.799652
1380.357109	-2.989400	3.504900	-10.476000	25.477884	0.000773	20.790619
1381.358332	-2.987600	3.506000	-10.473000	25.463396	0.000772	20.799778
1382.357709	-3.013100	3.503500	-10.555000	25.431163	0.000770	20.802498
1383.359775	-2.993700	3.504500	-10.490000	25.421396	0.000768	20.797906
1384.358577	-3.002800	3.504100	-10.521000	25.432679	0.000771	20.796908
1385.357853	-2.982900	3.506000	-10.457000	25.455817	0.000769	20.790745
1386.356217	-2.996400	3.505100	-10.501000	25.458799	0.000768	20.777618
1387.359878	-2.991900	3.503600	-10.481000	25.504574	0.000768	20.799404
1388.361321	-2.963500	3.504600	-10.385000	25.498934	0.000768	20.812706
1389.359131	-3.004100	3.502000	-10.519000	25.493864	0.000767	20.797184
1390.358138	-2.997900	3.502900	-10.501000	25.481141	0.000765	20.795786
1391.362206	-2.990700	3.503100	-10.475000	25.503134	0.000767	20.782311
1392.360957	-3.006100	3.502200	-10.527000	25.539987	0.000765	20.794190
1393.366199	-2.983100	3.502900	-10.448000	25.545578	0.000764	20.806442
1394.365069	-3.015800	3.501200	-10.558000	25.564166	0.000765	20.804722
1395.362481	-2.989900	3.500800	-10.467000	25.571572	0.000767	20.780865
1396.361097	-2.974300	3.501800	-10.414000	25.605490	0.000763	20.778893
1397.366875	-3.030400	3.498500	-10.600000	25.627083	0.000765	20.799632
1398.364483	-2.989700	3.500700	-10.465000	25.632276	0.000766	20.789674
1399.362189	-2.989400	3.500600	-10.464000	25.635755	0.000762	20.775150
1400.361679	-2.989900	3.500700	-10.466000	25.645297	0.000764	20.779044
1401.364410	-2.993600	3.499100	-10.474000	25.601217	0.000763	20.791197
1402.362483	-2.990200	3.500100	-10.464000	25.593863	0.000760	20.782863
1403.362099	-3.000300	3.499500	-10.498000	25.620674	0.000761	20.769961
1404.363793	-2.995100	3.497200	-10.472000	25.626489	0.000762	20.781017
1405.361666	-2.996700	3.497100	-10.478000	25.636229	0.000761	20.765195
1406.362427	-3.000200	3.497200	-10.492000	25.606039	0.000761	20.796040
1407.362903	-3.004600	3.497300	-10.507000	25.583577	0.000760	20.769213
1408.364282	-2.989500	3.497800	-10.455000	25.555100	0.000758	20.784237
1409.370041	-3.007200	3.496200	-10.513000	25.528114	0.000759	20.799809
1410.363466	-3.001400	3.494700	-10.487000	25.532686	0.000760	20.780220
1411.366704	-3.026800	3.494900	-10.577000	25.558380	0.000757	20.813610
1412.364124	-2.986500	3.495800	-10.440000	25.573116	0.000757	20.799959
1413.365385	-3.005800	3.494000	-10.501000	25.552318	0.000754	20.784288
1414.367815	-2.970000	3.495400	-10.379000	25.512161	0.000756	20.790901
1415.365925	-3.004200	3.494600	-10.497000	25.486739	0.000757	20.789554
1416.368205	-2.995600	3.493000	-10.462000	25.532836	0.000752	20.768042
1417.367279	-3.010400	3.493600	-10.515000	25.523344	0.000755	20.776053
1418.365235	-3.010500	3.493100	-10.514000	25.485720	0.000754	20.786635
1419.366206	-3.000300	3.493400	-10.480000	25.459851	0.000755	20.760656
1420.366484	-3.002100	3.490800	-10.478000	25.469940	0.000753	20.787857
1421.366982	-3.019200	3.491300	-10.540000	25.452594	0.000754	20.788931
1422.369870	-2.996400	3.491400	-10.459000	25.489821	0.000755	20.763726
1423.366558	-2.982500	3.491500	-10.412000	25.503689	0.000750	20.773385
1424.366109	-3.025400	3.489900	-10.557000	25.511268	0.000753	20.796169
1425.372553	-3.008400	3.488900	-10.495000	25.496730	0.000751	20.770664
1426.369928	-3.001700	3.489200	-10.473000	25.544890	0.000749	20.773984
1427.367299	-2.979500	3.490600	-10.400000	25.601471	0.000750	20.781021
1428.368070	-2.995100	3.488500	-10.448000	25.643588	0.000750	20.771638
1429.369014	-2.999300	3.488000	-10.461000	25.640905	0.000749	20.763253
1430.370543	-2.972200	3.490100	-10.370000	25.650968	0.000749	20.774309
1431.373538	-3.002400	3.487200	-10.469000	25.656410	0.000749	20.779300
1432.371399	-3.003300	3.487100	-10.472000	25.688636	0.000748	20.768519
1433.370267	-2.986900	3.488100	-10.416000	25.651440	0.000747	20.782844
1434.372917	-3.004000	3.486700	-10.472000	25.623264	0.000746	20.781571
1435.373138	-2.999600	3.486100	-10.455000	25.619586	0.000745	20.765075
1436.375802	-2.974600	3.486000	-10.368000	25.598043	0.000746	20.784216
1437.371663	-2.996100	3.485100	-10.441000	25.555105	0.000744	20.759585
1438.372072	-3.012900	3.484200	-10.496000	25.576748	0.000742	20.784167
1439.370759	-2.997100	3.484700	-10.443000	25.568051	0.000744	20.759785
1440.373152	-2.999100	3.484000	-10.448000	25.570536	0.000743	20.785040
1441.372258	-3.011400	3.482700	-10.486000	25.610268	0.000742	20.786537
1442.375266	-3.013700	3.483000	-10.495000	25.637129	0.000743	20.768470
1443.370818	-2.997000	3.484000	-10.440000	25.701035	0.000742	20.780973
1444.371210	-3.019100	3.482900	-10.514000	25.700911	0.000741	20.792228
1445.373480	-2.993400	3.482300	-10.423000	25.708514	0.000740	20.762406
1446.375213	-3.017600	3.480800	-10.503000	25.715396	0.000741	20.759835
1447.371702	-3.037300	3.479700	-10.568000	25.707769	0.000743	20.779202
1448.371688	-2.991600	3.480200	-10.410000	25.716341	0.000739	20.771690
1449.370542	-3.008400	3.481200	-10.472000	25.721534	0.000739	20.780225
1450.373140	-3.020800	3.481000	-10.515000	25.744367	0.000740	20.772814
1451.373713	-3.002400	3.479200	-10.444000	25.744864	0.000738	20.790382
1452.377977	-2.994000	3.480800	-10.419000	25.798105	0.000738	20.756618
1453.374947	-3.004100	3.479800	-10.452000	25.783597	0.000739	20.772390
1454.378798	-3.011100	3.479900	-10.478000	25.746207	0.000737	20.774662
1455.375922	-3.034400	3.477300	-10.548000	25.742505	0.000737	20.788013
1456.375711	-3.013200	3.480000	-10.484000	25.713187	0.000735	20.792705
1457.378035	-3.017000	3.478200	-10.493000	25.671397	0.000735	20.785343
1458.375501	-3.014800	3.477200	-10.482000	25.644636	0.000735	20.783122
1459.383826	-3.001300	3.478400	-10.438000	25.597476	0.000736	20.778431
1460.375780	-3.004300	3.476300	-10.442000	25.585673	0.000735	20.781750
1461.376079	-3.026500	3.476900	-10.522000	25.587189	0.000735	20.795126
1462.379853	-3.006800	3.477100	-10.454000	25.633680	0.000736	20.788240
1463.379768	-3.012100	3.475600	-10.468000	25.651123	0.000733	20.775412
1464.376778	-2.994300	3.475600	-10.406000	25.669784	0.000732	20.772343
1465.377291	-3.001700	3.475300	-10.430000	25.705313	0.000731	20.774364
1466.376628	-3.029900	3.472800	-10.522000	25.721786	0.000731	20.763409
1467.374858	-3.021600	3.474200	-10.496000	25.715451	0.000732	20.768900
1468.384637	-3.001500	3.475500	-10.431000	25.745389	0.000731	20.782376
1469.376163	-3.014400	3.472200	-10.464000	25.742111	0.000731	20.785721
1470.379953	-2.991200	3.473300	-10.388000	25.729787	0.000728	20.784722
1471.379159	-2.997000	3.473600	-10.410000	25.682829	0.000729	20.792559
1472.389844	-3.013900	3.471600	-10.461000	25.648243	0.000729	20.775839
1473.381238	-3.014700	3.470800	-10.463000	25.632491	0.000729	20.763811
1474.379702	-2.964600	3.472300	-10.293000	25.608388	0.000729	20.786546
1475.384104	-2.998600	3.472500	-10.412000	25.595989	0.000727	20.787369
1476.382660	-3.019600	3.471700	-10.482000	25.612240	0.000725	20.762438
1477.381980	-3.001200	3.470000	-10.413000	25.596735	0.000727	20.778161
1478.385075	-3.008600	3.470400	-10.440000	25.564034	0.000727	20.776140
1479.382170	-3.009700	3.469900	-10.443000	25.584386	0.000726	20.778561
1480.385898	-3.010200	3.470400	-10.444000	25.582398	0.000726	20.801695
1481.383065	-2.992200	3.470200	-10.383000	25.597357	0.000722	20.789217
1482.382975	-3.005300	3.468500	-10.423000	25.635672	0.000723	20.772222
1483.385054	-2.983100	3.470000	-10.350000	25.666533	0.000724	20.792312
1484.390352	-2.983700	3.468200	-10.347000	25.665663	0.000723	20.797603
1485.385208	-3.007700	3.468900	-10.432000	25.671204	0.000722	20.785150
1486.385307	-2.976600	3.467900	-10.322000	25.676869	0.000723	20.787521
1487.384176	-2.998700	3.467600	-10.396000	25.704101	0.000721	20.767457
1488.384531	-2.985600	3.467000	-10.350000	25.716921	0.000722	20.777489
1489.387773	-3.024900	3.465800	-10.483000	25.712151	0.000721	20.822483
1490.385779	-3.008600	3.464200	-10.422000	25.743555	0.000721	20.800922
1491.390790	-3.001900	3.467000	-10.407000	25.762288	0.000721	20.783703
1492.386304	-3.010100	3.464900	-10.428000	25.786411	0.000720	20.794184
1493.387083	-3.026000	3.463000	-10.476000	25.781095	0.000720	20.791689
1494.389525	-3.006800	3.464100	-10.415000	25.791853	0.000718	20.767881
1495.388712	-2.983200	3.463200	-10.331000	25.803604	0.000718	20.806238
1496.392317	-3.014300	3.462800	-10.437000	25.829987	0.000720	20.790540
1497.387200	-3.004100	3.462300	-10.400000	25.821789	0.000717	20.791789
1498.387277	-3.002100	3.461700	-10.391000	25.809168	0.000717	20.789068
1499.388669	-2.999100	3.461600	-10.381000	25.816299	0.000718	20.791963
1500.390898	-3.020800	3.461800	-10.456000	25.809640	0.000716	20.792861
1501.390096	-3.001200	3.461800	-10.389000	25.810213	0.000719	20.795807
1502.390842	-2.994600	3.462100	-10.366000	25.837392	0.000716	20.796556
1503.389618	-3.011600	3.461000	-10.422000	25.817294	0.000718	20.801498
1504.399460	-3.012400	3.461500	-10.427000	25.784376	0.000717	20.789769
1505.392985	-2.996800	3.460600	-10.370000	25.778389	0.000715	20.795609
1506.391708	-3.010300	3.460100	-10.415000	25.771681	0.000713	20.803095
1507.392595	-3.009900	3.460000	-10.413000	25.760774	0.000716	20.787872
1508.390363	-2.993700	3.459800	-10.357000	25.794588	0.000713	20.788172
1509.389905	-3.026400	3.458900	-10.466000	25.814438	0.000713	20.797206
1510.393077	-2.985300	3.458900	-10.325000	25.818761	0.000713	20.799178
1511.393281	-3.009200	3.457300	-10.403000	25.774540	0.000713	20.813079
1512.393488	-2.998400	3.458000	-10.367000	25.715781	0.000714	20.788672
1513.389426	-3.006900	3.457700	-10.396000	25.705621	0.000711	20.802649
1514.390668	-2.981100	3.457400	-10.306000	25.672252	0.000711	20.804694
1515.392657	-3.018300	3.456200	-10.431000	25.664227	0.000712	20.812756
1516.391948	-2.997700	3.457700	-10.364000	25.650835	0.000711	20.802624
1517.392694	-2.972900	3.457800	-10.278000	25.678788	0.000710	20.788500
1518.391925	-2.976100	3.456900	-10.286000	25.719015	0.000707	20.774850
1519.392757	-2.988100	3.455400	-10.324000	25.717101	0.000710	20.780988
1520.393735	-3.006900	3.453600	-10.383000	25.725624	0.000710	20.816101
1521.396235	-2.993800	3.454500	-10.339000	25.717028	0.000709	20.812683
1522.393666	-2.988300	3.453700	-10.319000	25.762966	0.000707	20.827532
1523.396988	-2.998000	3.453700	-10.353000	25.728185	0.000706	20.821045
1524.396065	-2.972400	3.454200	-10.266000	25.717005	0.000706	20.820246
1525.393457	-3.007500	3.452000	-10.381000	25.717154	0.000706	20.811862
1526.398611	-2.996000	3.453600	-10.346000	25.701451	0.000707	20.802254
1527.393066	-2.992000	3.452700	-10.330000	25.703490	0.000704	20.817577
1528.392978	-2.997800	3.453900	-10.352000	25.695390	0.000704	20.812761
1529.392813	-3.026900	3.450800	-10.444000	25.688135	0.000702	20.798362
1530.392274	-2.999900	3.450500	-10.350000	25.666619	0.000703	20.821321
1531.394252	-2.991100	3.452100	-10.324000	25.662271	0.000703	20.803205
1532.395998	-3.017200	3.449800	-10.408000	25.686422	0.000704	20.822246
1533.396374	-3.001900	3.450100	-10.355000	25.692708	0.000703	20.799637
1534.396819	-3.007400	3.448100	-10.369000	25.681726	0.000702	20.842659
1535.396336	-2.982800	3.448700	-10.285000	25.691343	0.000703	20.837145
1536.403687	-3.002100	3.448400	-10.350000	25.692387	0.000703	20.803581
1537.399544	-2.997100	3.448100	-10.333000	25.682945	0.000700	20.797891
1538.401740	-3.002800	3.448200	-10.354000	25.714823	0.000700	20.822322
1539.396613	-2.992000	3.448000	-10.315000	25.720066	0.000701	20.829011
1540.395180	-3.015000	3.448100	-10.393000	25.713333	0.000700	20.826516
1541.397341	-2.999300	3.446700	-10.337000	25.745334	0.000701	20.850123
1542.397753	-3.006000	3.447600	-10.362000	25.757210	0.000697	20.816534
1543.397583	-3.026100	3.446700	-10.427000	25.765682	0.000699	20.835001
1544.396645	-3.002300	3.445000	-10.342000	25.778452	0.000696	20.825069
1545.397196	-3.014200	3.444800	-10.383000	25.812986	0.000696	20.808550
1546.396471	-3.005900	3.444000	-10.352000	25.832066	0.000696	20.827716
1547.396274	-2.983200	3.446100	-10.279000	25.833258	0.000695	20.830810
1548.399191	-2.985400	3.444200	-10.280000	25.830873	0.000696	20.815138
1549.396304	-2.997500	3.444400	-10.324000	25.782181	0.000696	20.829762
1550.398093	-2.985100	3.444700	-10.281000	25.767895	0.000694	20.834379
1551.396687	-2.974000	3.444600	-10.243000	25.740616	0.000696	20.808875
1552.397407	-3.029800	3.441700	-10.426000	25.707522	0.000693	20.835377
1553.400246	-3.008600	3.441200	-10.353000	25.733882	0.000691	20.831035
1554.397312	-3.014000	3.441700	-10.372000	25.758579	0.000693	20.827866
1555.399357	-3.004900	3.442000	-10.342000	25.763622	0.000695	20.831035
1556.397920	-3.002900	3.440300	-10.329000	25.736169	0.000692	20.824323
1557.398788	-3.004200	3.441200	-10.337000	25.738553	0.000691	20.835252
1558.400957	-3.006500	3.440000	-10.342000	25.731573	0.000692	20.836301
1559.400867	-3.035100	3.439800	-10.440000	25.758033	0.000692	20.856240
1560.399178	-3.009000	3.440600	-10.352000	25.719945	0.000691	20.859708
1561.398468	-3.027200	3.439700	-10.410000	25.709063	0.000689	20.836451
1562.399095	-3.014500	3.438600	-10.364000	25.726554	0.000686	20.862553
1563.399399	-3.005100	3.438300	-10.331000	25.712118	0.000690	20.842838
1564.401070	-3.003500	3.439100	-10.328000	25.687894	0.000686	20.849327
1565.396357	-2.985300	3.437800	-10.261000	25.691670	0.000687	20.835577
1566.399979	-2.988400	3.436900	-10.269000	25.672936	0.000688	20.830986
1567.397625	-2.978200	3.438900	-10.241000	25.673929	0.000688	20.867069
1568.398927	-3.010900	3.438000	-10.349000	25.665209	0.000688	20.834604
1569.401542	-2.986800	3.436400	-10.264000	25.675023	0.000687	20.853943
1570.399565	-3.021200	3.435100	-10.377000	25.725460	0.000688	20.854816
1571.400558	-2.990100	3.436900	-10.275000	25.750404	0.000685	20.847629
1572.401524	-2.995800	3.436400	-10.294000	25.756342	0.000688	20.858809
1573.400288	-2.988700	3.434700	-10.265000	25.772019	0.000686	20.852271
1574.399719	-3.004300	3.434300	-10.317000	25.787671	0.000684	20.835277
1575.405976	-2.980700	3.436000	-10.240000	25.790180	0.000685	20.862453
1576.401091	-2.995400	3.434300	-10.286000	25.835294	0.000683	20.850398
1577.400808	-2.995600	3.435000	-10.288000	25.852809	0.000683	20.865146
1578.401043	-2.972900	3.433700	-10.206000	25.865355	0.000684	20.856887
1579.400736	-3.030000	3.431500	-10.397000	25.866745	0.000681	20.840741
1580.405940	-3.005500	3.433000	-10.317000	25.852262	0.000681	20.867442
1581.403966	-3.011800	3.431500	-10.334000	25.824091	0.000680	20.848627
1582.408055	-3.002500	3.431400	-10.302000	25.803643	0.000680	20.851795
1583.404718	-2.974000	3.432000	-10.207000	25.793805	0.000679	20.863249
1584.406142	-2.990200	3.430100	-10.255000	25.746999	0.000679	20.868863
1585.408481	-2.991200	3.431600	-10.264000	25.772016	0.000677	20.846578
1586.407979	-3.017400	3.428600	-10.344000	25.773706	0.000679	20.866293
1587.405345	-3.003800	3.431000	-10.305000	25.804164	0.000677	20.861327
1588.405806	-3.011700	3.430500	-10.331000	25.820634	0.000675	20.857483
1589.407967	-2.984500	3.430000	-10.236000	25.850943	0.000677	20.876073
1590.408177	-2.994500	3.430200	-10.269000	25.857029	0.000676	20.861326
1591.411090	-3.005400	3.427800	-10.300000	25.862742	0.000676	20.848099
1592.406572	-2.994200	3.429400	-10.267000	25.874045	0.000677	20.835272
1593.412144	-3.001100	3.427800	-10.286000	25.861798	0.000677	20.858056
1594.409367	-3.010100	3.426600	-10.314000	25.872156	0.000675	20.875573
1595.408366	-3.014300	3.425700	-10.325000	25.875312	0.000673	20.862622
1596.412072	-3.002700	3.426600	-10.288000	25.853375	0.000675	20.882309
1597.408444	-2.998400	3.427100	-10.276000	25.845551	0.000674	20.869235
1598.411209	-2.995600	3.425300	-10.260000	25.842420	0.000674	20.868461
1599.410669	-2.977100	3.425900	-10.198000	25.843239	0.000674	20.867387
1600.409533	-3.002000	3.425200	-10.282000	25.860032	0.000671	20.874773
1601.411556	-3.007400	3.424100	-10.297000	25.886390	0.000673	20.858104
1602.413496	-3.010000	3.423400	-10.304000	25.871706	0.000671	20.859949
1603.411600	-3.023100	3.423200	-10.348000	25.860131	0.000670	20.863968
1604.411276	-3.021500	3.422600	-10.341000	25.817252	0.000671	20.878265
1605.412089	-2.982600	3.423300	-10.209000	25.791812	0.000668	20.873574
1606.411738	-3.008900	3.421200	-10.293000	25.806891	0.000670	20.855532
1607.413654	-2.980200	3.424300	-10.205000	25.816207	0.000671	20.874846
1608.412517	-3.026300	3.420500	-10.350000	25.866488	0.000670	20.860396
1609.413929	-2.981300	3.423300	-10.205000	25.847111	0.000668	20.869854
1610.416895	-2.978400	3.422800	-10.194000	25.830590	0.000668	20.886922
1611.411943	-2.987400	3.423000	-10.225000	25.845943	0.000669	20.881008
1612.415648	-3.004700	3.421200	-10.278000	25.832104	0.000667	20.861892
1613.419760	-3.002100	3.421900	-10.272000	25.835484	0.000666	20.880458
1614.414046	-2.998300	3.421300	-10.257000	25.861741	0.000668	20.865111
1615.420344	-2.994700	3.420900	-10.244000	25.879056	0.000666	20.879184
1616.415075	-3.015400	3.420500	-10.313000	25.859653	0.000668	20.864436
1617.414015	-3.004400	3.419000	-10.271000	25.840127	0.000666	20.875166
1618.416343	-3.009000	3.418300	-10.284000	25.883576	0.000667	20.847217
1619.414875	-2.982400	3.419800	-10.198000	25.883948	0.000664	20.886944
1620.416840	-2.975500	3.419900	-10.175000	25.881811	0.000666	20.886694
1621.414361	-2.992800	3.418500	-10.230000	25.855255	0.000662	20.888465
1622.414385	-2.995000	3.417400	-10.233000	25.839305	0.000663	20.883823
1623.416998	-2.989200	3.418500	-10.218000	25.846733	0.000664	20.876112
1624.414197	-2.992000	3.415900	-10.218000	25.833716	0.000664	20.888639
1625.415255	-3.016800	3.416000	-10.304000	25.871948	0.000661	20.901913
1626.416473	-2.995100	3.416000	-10.230000	25.897535	0.000662	20.871670
1627.417950	-3.016500	3.415900	-10.304000	25.879748	0.000660	20.886517
1628.424193	-2.996900	3.415300	-10.234000	25.895374	0.000660	20.882301
1629.422310	-2.998900	3.414700	-10.239000	25.871227	0.000660	20.889811
1630.417414	-2.972800	3.415800	-10.153000	25.843427	0.000660	20.876585
1631.419053	-3.006500	3.414500	-10.265000	25.833267	0.000661	20.882973
1632.420328	-3.010200	3.414800	-10.277000	25.805642	0.000658	20.905955
1633.420063	-2.998900	3.414600	-10.239000	25.793393	0.000659	20.900764
1634.422593	-3.020700	3.413000	-10.309000	25.798933	0.000658	20.894950
1635.420798	-2.999500	3.413600	-10.237000	25.806435	0.000656	20.885417
1636.420413	-2.989000	3.413900	-10.204000	25.803975	0.000654	20.879628
1637.420686	-2.994800	3.413000	-10.221000	25.778436	0.000656	20.874836
1638.421235	-2.999900	3.413300	-10.238000	25.778163	0.000653	20.890682
1639.420825	-3.003900	3.411700	-10.247000	25.802584	0.000655	20.887713
1640.421589	-2.996600	3.411100	-10.220000	25.845364	0.000654	20.898442
1641.421748	-3.020300	3.410800	-10.301000	25.863150	0.000652	20.885491
1642.422331	-2.997900	3.410900	-10.224000	25.883893	0.000651	20.888785
1643.422583	-3.028100	3.409800	-10.324000	25.883669	0.000652	20.913688
1644.422416	-3.017200	3.408700	-10.283000	25.896214	0.000654	20.886938
1645.423867	-3.015900	3.409500	-10.282000	25.918620	0.000652	20.892851
1646.422262	-2.979800	3.410800	-10.163000	25.908461	0.000652	20.910144
1647.424567	-2.995100	3.408900	-10.208000	25.920532	0.000650	20.890505
1648.424402	-2.987200	3.409700	-10.184000	25.941572	0.000650	20.895046
1649.426725	-3.016200	3.409100	-10.281000	25.984718	0.000647	20.896193
1650.440910	-3.033700	3.407600	-10.336000	25.999199	0.000650	20.888931
1651.425109	-3.007600	3.408200	-10.249000	26.015543	0.000649	20.900135
1652.426965	-3.009400	3.408000	-10.255000	26.022994	0.000650	20.900509
1653.423974	-2.995000	3.407600	-10.205000	26.009133	0.000648	20.900808
1654.424807	-3.004500	3.406600	-10.235000	26.003172	0.000650	20.912361
1655.428587	-2.992400	3.408500	-10.197000	26.039783	0.000648	20.882292
1656.428739	-2.998800	3.405900	-10.212000	26.045397	0.000650	20.888879
1657.427162	-3.026400	3.404300	-10.302000	26.069340	0.000647	20.910563
1658.425001	-3.007500	3.406000	-10.242000	26.047681	0.000647	20.906346
1659.425441	-2.994700	3.405100	-10.196000	26.027935	0.000645	20.904524
1660.427713	-2.988400	3.405400	-10.176000	25.985633	0.000648	20.903750
1661.427686	-2.985100	3.404000	-10.161000	25.959304	0.000646	20.909539
1662.430315	-2.999500	3.403800	-10.208000	25.978057	0.000643	20.917474
1663.430353	-2.992900	3.405000	-10.190000	25.961539	0.000646	20.919371
1664.427349	-3.007600	3.403100	-10.234000	25.986204	0.000644	20.908116
1665.425904	-3.009400	3.402300	-10.239000	25.960495	0.000644	20.916899
1666.428277	-2.999000	3.403200	-10.206000	25.949044	0.000643	20.913457
1667.428674	-2.988100	3.402100	-10.165000	25.920178	0.000642	20.901053
1668.428359	-3.011800	3.402400	-10.246000	25.934512	0.000644	20.929675
1669.426682	-3.011500	3.401500	-10.243000	25.959227	0.000641	20.922738
1670.430709	-2.998500	3.401000	-10.197000	25.967251	0.000642	20.930798
1671.431781	-3.004900	3.400300	-10.216000	25.986302	0.000642	20.918171
1672.427129	-2.992400	3.401700	-10.178000	25.989457	0.000640	20.931771
1673.429184	-2.991300	3.400800	-10.172000	25.976168	0.000641	20.917473
1674.426577	-2.994200	3.402300	-10.186000	25.966977	0.000641	20.923411
1675.426576	-3.007500	3.399100	-10.222000	25.965313	0.000642	20.928377
1676.428687	-3.019200	3.399500	-10.262000	25.977709	0.000640	20.907168
1677.430473	-2.994400	3.398900	-10.177000	26.007491	0.000639	20.918122
1678.427468	-2.996700	3.398800	-10.184000	25.989780	0.000640	20.894166
1679.425739	-2.963700	3.400500	-10.076000	26.014420	0.000637	20.929350
1680.425986	-3.008300	3.396700	-10.218000	26.005429	0.000637	20.932644
1681.427336	-2.994300	3.397400	-10.172000	25.981086	0.000637	20.918620
1682.431770	-2.985000	3.398000	-10.141000	25.982577	0.000636	20.929126
1683.428330	-3.006400	3.397500	-10.213000	25.981732	0.000635	20.935863
1684.429657	-3.003600	3.396900	-10.203000	25.995021	0.000636	20.925982
1685.426868	-2.985600	3.396400	-10.140000	25.942112	0.000636	20.911709
1686.428139	-3.007900	3.395000	-10.211000	25.917769	0.000634	20.908590
1687.428378	-3.002800	3.395000	-10.193000	25.916005	0.000633	20.902077
1688.427791	-2.962700	3.397600	-10.064000	25.903808	0.000632	20.914952
1689.426573	-2.998700	3.395400	-10.181000	25.923160	0.000631	20.914953
1690.428017	-2.974800	3.395200	-10.099000	25.888555	0.000632	20.923810
1691.426769	-3.004000	3.393900	-10.195000	25.874544	0.000632	20.926330
1692.430260	-3.021400	3.393600	-10.252000	25.872383	0.000632	20.899506
1693.432502	-2.995800	3.394100	-10.167000	25.910415	0.000631	20.896935
1694.430624	-2.986700	3.392400	-10.130000	25.947800	0.000632	20.919318
1695.430243	-2.997600	3.392000	-10.166000	25.931231	0.000631	20.918320
1696.433923	-2.966600	3.392000	-10.062000	25.896503	0.000629	20.920416
1697.431147	-2.993300	3.392800	-10.155000	25.881498	0.000632	20.898232
1698.433954	-2.983600	3.392500	-10.121000	25.847812	0.000631	20.909910
1699.432953	-2.991300	3.391400	-10.144000	25.860084	0.000628	20.897583
1700.437608	-2.976100	3.391800	-10.094000	25.873450	0.000629	20.918594
1701.433681	-3.032300	3.389400	-10.277000	25.823665	0.000628	20.906990
1702.433602	-2.993300	3.390800	-10.148000	25.844731	0.000629	20.899229
1703.437540	-3.001700	3.388900	-10.172000	25.868803	0.000625	20.899229
1704.438641	-3.004700	3.387800	-10.178000	25.896999	0.000625	20.886777
1705.434480	-3.014300	3.389100	-10.215000	25.920822	0.000627	20.894588
1706.437144	-3.011100	3.387900	-10.200000	25.910065	0.000626	20.870982
1707.435687	-3.009900	3.386200	-10.191000	25.893446	0.000626	20.892217
1708.435685	-3.023900	3.387800	-10.243000	25.912723	0.000624	20.878867
1709.436813	-2.997000	3.387800	-10.153000	25.913940	0.000624	20.896684
1710.437499	-2.978000	3.388400	-10.089000	25.901096	0.000625	20.873826
1711.439914	-2.994300	3.388400	-10.145000	25.862989	0.000623	20.882484
1712.438559	-2.994700	3.387500	-10.144000	25.901072	0.000621	20.879490
1713.438815	-2.998200	3.386400	-10.152000	25.882093	0.000623	20.875597
1714.440718	-2.993700	3.386700	-10.138000	25.862218	0.000621	20.874598
1715.441840	-2.999500	3.386300	-10.156000	25.910808	0.000622	20.881211
1716.439864	-2.994000	3.385500	-10.135000	25.929836	0.000620	20.875196
1717.439644	-3.036100	3.385200	-10.276000	25.971269	0.000619	20.878889
1718.440590	-2.993000	3.383500	-10.126000	25.965134	0.000621	20.895484
1719.441073	-2.998700	3.384500	-10.148000	26.005299	0.000619	20.877043
1720.444885	-2.983100	3.384800	-10.096000	26.013595	0.000618	20.881110
1721.438778	-3.021300	3.382600	-10.220000	26.009844	0.000619	20.870704
1722.439628	-2.977300	3.383200	-10.072000	26.037241	0.000617	20.862195
1723.443121	-2.983600	3.384600	-10.096000	26.040842	0.000617	20.871503
1724.441010	-3.023100	3.383100	-10.227000	26.016426	0.000619	20.877791
1725.442218	-2.995800	3.381800	-10.130000	25.990295	0.000617	20.866237
1726.446468	-2.997300	3.382300	-10.137000	25.957458	0.000616	20.872601
1727.441458	-3.026500	3.380900	-10.231000	25.952713	0.000617	20.869730
1728.442392	-3.000000	3.381600	-10.143000	25.958475	0.000614	20.856554
1729.442247	-2.986100	3.380600	-10.094000	25.929636	0.000615	20.849867
1730.445753	-2.997000	3.379600	-10.128000	25.912048	0.000614	20.868707
1731.443724	-2.994400	3.380400	-10.122000	25.916867	0.000611	20.865013
1732.443475	-3.006000	3.379500	-10.157000	25.928815	0.000614	20.844775
1733.442509	-2.979800	3.379100	-10.068000	25.916122	0.000612	20.869480
1734.446729	-3.000100	3.378700	-10.136000	25.933659	0.000610	20.869081
1735.442662	-2.980800	3.378100	-10.068000	25.913364	0.000612	20.900372
1736.445604	-3.019100	3.378200	-10.197000	25.882510	0.000611	20.872698
1737.442986	-3.009600	3.378400	-10.167000	25.897962	0.000612	20.850763
1738.446593	-3.030000	3.376300	-10.229000	25.901886	0.000609	20.861817
1739.442029	-3.002200	3.378300	-10.141000	25.903998	0.000611	20.863939
1740.442738	-3.002000	3.377600	-10.139000	25.903475	0.000612	20.883801
1741.448537	-3.011400	3.375900	-10.165000	25.911226	0.000610	20.864087
1742.446188	-3.002500	3.376300	-10.136000	25.869442	0.000608	20.839657
1743.444854	-3.010900	3.375000	-10.159000	25.891153	0.000609	20.866207
1744.448811	-2.977400	3.377500	-10.055000	25.898704	0.000606	20.853406
1745.448920	-2.997200	3.376000	-10.117000	25.949454	0.000608	20.844172
1746.447614	-3.002800	3.374800	-10.133000	25.977722	0.000607	20.837010
1747.450170	-3.023800	3.374800	-10.203000	26.011378	0.000607	20.855651
1748.447301	-3.018100	3.374100	-10.183000	26.029683	0.000607	20.859343
1749.447432	-3.019600	3.373000	-10.184000	26.065426	0.000607	20.842624
1750.447046	-2.992600	3.375200	-10.099000	26.083482	0.000606	20.847491
1751.446910	-3.018500	3.374100	-10.183000	26.105413	0.000606	20.849611
1752.449727	-3.015200	3.372000	-10.166000	26.112590	0.000605	20.842599
1753.446362	-3.004400	3.372700	-10.131000	26.086885	0.000605	20.854228
1754.448040	-3.004200	3.372300	-10.130000	26.086934	0.000602	20.853330
1755.446551	-3.011900	3.373000	-10.158000	26.070020	0.000603	20.854827
1756.446811	-2.995100	3.373900	-10.104000	26.039892	0.000603	20.840204
1757.448351	-2.975300	3.373200	-10.036000	26.019450	0.000602	20.817295
1758.446904	-3.004500	3.371800	-10.129000	26.051591	0.000603	20.862388
1759.448605	-3.005100	3.371100	-10.130000	26.061997	0.000599	20.852930
1760.444727	-2.979900	3.372100	-10.047000	26.065426	0.000599	20.845943
1761.449413	-3.010200	3.371100	-10.147000	26.044685	0.000600	20.829847
1762.447850	-3.000000	3.368900	-10.106000	26.019823	0.000599	20.852282
1763.449718	-3.014200	3.367900	-10.150000	26.020469	0.000599	20.832543
1764.448724	-2.982200	3.369100	-10.047000	26.031173	0.000600	20.861788
1765.451777	-3.003400	3.370500	-10.122000	26.041953	0.000596	20.847964
1766.447298	-3.023200	3.367900	-10.180000	26.049554	0.000599	20.845644
1767.455925	-2.960300	3.369600	-9.973700	26.093740	0.000597	20.842150
1768.448987	-2.985100	3.368400	-10.054000	26.124413	0.000598	20.842624
1769.452404	-3.013700	3.367400	-10.148000	26.151508	0.000597	20.846617
1770.450156	-2.988200	3.368000	-10.064000	26.108964	0.000596	20.836585
1771.451206	-2.986200	3.367300	-10.054000	26.089021	0.000595	20.833616
1772.451519	-3.000700	3.365000	-10.096000	26.073820	0.000592	20.833516
1773.453230	-2.992200	3.367600	-10.076000	26.065301	0.000596	20.842025
1774.452199	-2.978800	3.366200	-10.026000	26.061775	0.000591	20.835637
1775.459504	-3.021800	3.365700	-10.169000	26.072056	0.000592	20.844545
1776.450854	-3.041500	3.364400	-10.231000	26.069896	0.000591	20.838107
1777.451899	-3.014400	3.365500	-10.143000	26.078514	0.000588	20.843447
1778.455000	-3.026100	3.364500	-10.180000	26.103400	0.000588	20.824831
1779.452667	-3.014500	3.363600	-10.139000	26.086487	0.000590	20.840078
1780.455331	-3.010200	3.364600	-10.127000	26.059091	0.000589	20.829622
1781.453185	-3.006100	3.364300	-10.112000	26.058891	0.000588	20.828947
1782.453834	-3.031300	3.362300	-10.191000	26.052707	0.000588	20.835535
1783.453445	-3.003600	3.363400	-10.102000	26.054966	0.000588	20.821210
1784.452018	-3.011300	3.363000	-10.126000	26.043342	0.000583	20.832290
1785.454252	-2.996900	3.363300	-10.077000	25.987032	0.000586	20.809855
1786.455476	-2.991400	3.362600	-10.058000	25.996246	0.000584	20.837604
1787.456888	-3.000100	3.362200	-10.086000	25.990484	0.000584	20.815694
1788.457133	-3.000000	3.362600	-10.087000	25.967308	0.000586	20.838402
1789.459626	-3.008700	3.362800	-10.116000	25.940828	0.000585	20.831714
1790.456846	-2.992400	3.362000	-10.059000	25.925427	0.000584	20.851803
1791.458830	-2.992100	3.360900	-10.055000	25.903988	0.000582	20.832162
1792.458108	-3.023000	3.361300	-10.161000	25.891269	0.000584	20.835506
1793.455374	-3.040800	3.359000	-10.213000	25.851472	0.000585	20.818287
1794.459547	-3.016400	3.359200	-10.130000	25.857831	0.000583	20.833209
1795.457474	-3.003100	3.360400	-10.091000	25.832765	0.000580	20.820358
1796.458670	-2.984600	3.360000	-10.026000	25.824840	0.000581	20.823776
1797.457575	-3.004300	3.359700	-10.092000	25.847670	0.000582	20.840546
1798.458194	-2.999200	3.359800	-10.076000	25.880735	0.000578	20.806432
1799.459343	-3.022200	3.358000	-10.148000	25.946142	0.000580	20.806707
1800.461538	-3.014000	3.357500	-10.118000	25.960449	0.000581	20.818710
1801.459385	-3.006000	3.358400	-10.093000	26.004762	0.000580	20.817237
1802.458850	-3.024100	3.356900	-10.150000	26.043361	0.000580	20.835629
1803.459378	-3.010800	3.357300	-10.107000	26.077662	0.000579	20.813668
1804.460951	-3.009600	3.357200	-10.103000	26.093061	0.000578	20.819657
1805.465136	-2.995900	3.356100	-10.053000	26.114916	0.000576	20.809850
1806.462197	-2.991600	3.357000	-10.041000	26.134040	0.000575	20.822901
1807.468318	-2.998600	3.356700	-10.064000	26.151300	0.000577	20.818907
1808.459869	-2.995300	3.356100	-10.052000	26.141640	0.000578	20.824373
1809.460950	-2.996200	3.356500	-10.055000	26.160887	0.000577	20.827118
1810.468518	-2.995800	3.354300	-10.047000	26.222079	0.000575	20.803734
1811.461922	-2.976500	3.353900	-9.981600	26.251978	0.000573	20.814341
1812.462610	-3.016100	3.354400	-10.116000	26.222575	0.000574	20.820828
1813.460127	-2.994800	3.353300	-10.042000	26.204024	0.000575	20.848178
1814.462322	-2.972900	3.353800	-9.969700	26.195878	0.000575	20.808700
1815.463349	-3.001600	3.352900	-10.063000	26.238244	0.000572	20.804332
1816.467287	-3.010200	3.351900	-10.089000	26.225405	0.000572	20.809448
1817.462968	-2.998300	3.353000	-10.052000	26.223568	0.000570	20.829412
1818.463656	-3.009400	3.352600	-10.088000	26.247358	0.000573	20.798318
1819.463333	-3.027300	3.351200	-10.144000	26.259253	0.000571	20.814539
1820.464168	-3.003300	3.350500	-10.061000	26.294788	0.000570	20.799989
1821.467061	-3.006400	3.351500	-10.075000	26.274525	0.000569	20.809971
1822.463479	-3.012200	3.349600	-10.089000	26.290815	0.000570	20.813540
1823.466118	-3.011000	3.348800	-10.082000	26.254261	0.000570	20.802410
1824.464562	-3.005000	3.349500	-10.064000	26.249940	0.000569	20.818930
1825.464355	-2.993900	3.350300	-10.028000	26.233376	0.000567	20.822199
1826.466923	-2.996700	3.347900	-10.031000	26.217184	0.000567	20.813041
1827.465852	-3.005900	3.349400	-10.067000	26.246215	0.000570	20.832730
1828.467473	-3.015000	3.349700	-10.099000	26.242217	0.000568	20.809272
1829.464894	-3.008600	3.348700	-10.073000	26.210255	0.000567	20.828837
1830.467381	-2.994700	3.350400	-10.032000	26.208542	0.000565	20.809572
1831.466396	-3.010400	3.347700	-10.076000	26.196199	0.000566	20.797169
1832.467637	-2.971000	3.348400	-9.946000	26.197789	0.000566	20.794025
1833.464921	-3.009800	3.346900	-10.073000	26.226994	0.000563	20.800139
1834.466904	-2.985200	3.348700	-9.995300	26.224585	0.000566	20.814314
1835.473443	-2.986800	3.348100	-9.999400	26.214999	0.000564	20.797569
1836.466150	-2.997600	3.346900	-10.032000	26.183484	0.000564	20.799565
1837.470947	-2.970700	3.348400	-9.945500	26.177946	0.000560	20.799690
1838.467434	-3.022200	3.344300	-10.107000	26.207376	0.000563	20.795123
1839.467231	-2.975700	3.346400	-9.957000	26.250834	0.000560	20.798018
1840.467324	-3.007400	3.343700	-10.054000	26.280236	0.000562	20.802909
1841.467875	-2.986000	3.345200	-9.987700	26.272265	0.000562	20.803907
1842.471459	-3.002100	3.344800	-10.040000	26.216141	0.000561	20.796345
1843.468755	-2.991800	3.344700	-10.007000	26.182838	0.000560	20.809821
1844.472462	-2.995100	3.343300	-10.013000	26.132894	0.000560	20.800413
1845.469670	-2.987100	3.343100	-9.985000	26.113273	0.000558	20.799664
1846.469132	-2.978600	3.344400	-9.959800	26.060619	0.000559	20.813614
1847.470744	-2.984300	3.344000	-9.978400	26.054856	0.000558	20.790280
1848.470783	-3.019000	3.342000	-10.088000	26.068194	0.000557	20.800362
1849.469941	-2.995700	3.342700	-10.013000	26.128249	0.000558	20.807125
1850.470531	-2.997600	3.340900	-10.013000	26.165055	0.000557	20.808547
1851.471627	-2.986400	3.340900	-9.975600	26.141114	0.000554	20.794922
1852.472466	-3.007900	3.340700	-10.047000	26.146702	0.000557	20.802433
1853.472208	-3.003300	3.341300	-10.032000	26.155667	0.000554	20.801485
1854.473910	-2.987100	3.342300	-9.983200	26.184849	0.000553	20.777228
1855.472634	-3.015200	3.341300	-10.074000	26.257687	0.000553	20.796369
1856.475443	-3.016800	3.340700	-10.078000	26.256420	0.000553	20.801261
1857.472627	-3.025000	3.340400	-10.104000	26.281725	0.000552	20.789232
1858.475300	-3.003000	3.340800	-10.032000	26.267074	0.000553	20.791578
1859.474770	-2.990200	3.339200	-9.984600	26.210577	0.000553	20.786013
1860.475048	-3.013200	3.337700	-10.056000	26.182390	0.000551	20.800362
1861.473976	-2.996000	3.338300	-9.999900	26.204146	0.000552	20.796145
1862.474123	-2.979400	3.338400	-9.945100	26.218003	0.000549	20.789682
1863.475462	-3.021400	3.336100	-10.078000	26.222498	0.000550	20.800363
1864.479627	-3.009400	3.337800	-10.043000	26.278894	0.000549	20.784491
1865.474555	-3.006600	3.336700	-10.030000	26.265559	0.000548	20.828462
1866.474648	-2.991200	3.337900	-9.984000	26.287139	0.000548	20.797518
1867.475614	-2.989900	3.336500	-9.974000	26.332631	0.000547	20.801037
1868.474059	-2.990300	3.335300	-9.972000	26.348250	0.000547	20.793026
1869.477760	-3.010100	3.335600	-10.039000	26.333450	0.000547	20.792377
1870.474144	-2.993900	3.335000	-9.983700	26.319818	0.000543	20.772987
1871.478546	-2.991100	3.335000	-9.973900	26.345593	0.000547	20.794624
1872.476851	-2.992500	3.335500	-9.980500	26.338541	0.000545	20.804132
1873.476002	-3.009400	3.334700	-10.034000	26.280981	0.000544	20.800813
1874.475259	-3.029700	3.334100	-10.100000	26.266677	0.000545	20.770791
1875.475099	-3.041500	3.332500	-10.134000	26.234817	0.000544	20.795198
1876.476535	-3.009300	3.332700	-10.026000	26.236803	0.000543	20.778228
1877.475330	-2.997600	3.332400	-9.986500	26.217483	0.000542	20.793900
1878.475888	-2.996100	3.331000	-9.979100	26.218675	0.000541	20.786564
1879.477517	-2.980900	3.333300	-9.935100	26.196001	0.000541	20.782271
1880.481538	-3.002100	3.331500	-10.000000	26.192724	0.000542	20.778504
1881.476182	-2.998600	3.331000	-9.987500	26.219345	0.000541	20.798617
1882.478026	-3.014500	3.331000	-10.040000	26.222003	0.000541	20.774735
1883.475780	-2.966400	3.332300	-9.883500	26.211150	0.000539	20.764303
1884.477242	-3.006100	3.330900	-10.012000	26.196573	0.000539	20.782372
1885.479959	-3.015800	3.329800	-10.042000	26.232036	0.000538	20.791455
1886.477611	-3.040100	3.328600	-10.118000	26.252647	0.000541	20.777080
1887.480715	-3.029300	3.328300	-10.081000	26.292380	0.000537	20.755844
1888.478554	-3.008400	3.328900	-10.014000	26.301369	0.000537	20.789059
1889.478456	-3.009500	3.328700	-10.016000	26.316169	0.000539	20.776432
1890.481898	-2.982600	3.329300	-9.928400	26.328238	0.000535	20.770069
1891.479925	-2.994500	3.329000	-9.966300	26.258509	0.000536	20.799566
1892.477736	-2.992300	3.327000	-9.953700	26.201689	0.000536	20.769969
1893.479918	-2.992300	3.326900	-9.953900	26.143501	0.000534	20.775983
1894.479372	-3.008000	3.327500	-10.008000	26.134958	0.000535	20.751751
1895.479506	-3.034200	3.325600	-10.090000	26.101453	0.000533	20.776882
1896.481973	-3.016700	3.325500	-10.031000	26.081708	0.000533	20.779801
1897.479213	-3.010900	3.327200	-10.017000	26.079771	0.000537	20.778804
1898.485699	-2.990900	3.326900	-9.948000	26.100907	0.000533	20.764004
1899.480770	-2.985900	3.325200	-9.928000	26.106346	0.000534	20.759038
1900.479578	-3.001500	3.324900	-9.978200	26.121819	0.000532	20.770318
1901.481734	-3.008800	3.324500	-10.002000	26.151474	0.000533	20.794426
1902.481660	-3.008100	3.323800	-9.996900	26.139875	0.000531	20.780875
1903.480203	-3.000700	3.323200	-9.969900	26.140570	0.000533	20.756443
1904.481698	-2.995900	3.324500	-9.958500	26.189869	0.000529	20.782272
1905.481098	-2.991900	3.323400	-9.943000	26.203428	0.000529	20.782147
1906.481635	-3.032600	3.321600	-10.071000	26.259850	0.000529	20.781000
1907.483171	-3.003500	3.321900	-9.975600	26.245347	0.000527	20.783969
1908.481946	-2.989200	3.323600	-9.934400	26.238941	0.000526	20.784169
1909.483981	-3.002300	3.322700	-9.974600	26.240157	0.000527	20.769744
1910.484033	-2.977600	3.322800	-9.891500	26.253766	0.000525	20.788636
1911.483422	-2.982800	3.322800	-9.910100	26.263276	0.000525	20.775434
1912.485286	-3.008000	3.321600	-9.990000	26.256845	0.000525	20.767074
1913.485554	-2.986800	3.321800	-9.919600	26.283639	0.000525	20.783095
1914.483618	-3.003900	3.320000	-9.972600	26.308570	0.000523	20.757415
1915.483181	-2.997400	3.320400	-9.951400	26.345693	0.000522	20.784766
1916.482405	-2.993900	3.320600	-9.940100	26.325480	0.000523	20.773935
1917.483004	-3.012100	3.320300	-10.000000	26.335363	0.000523	20.772962
1918.483430	-2.984100	3.320800	-9.906600	26.346834	0.000523	20.751299
1919.484222	-3.019500	3.318500	-10.018000	26.358703	0.000521	20.774134
1920.484384	-3.015200	3.317800	-10.002000	26.389816	0.000520	20.773161
1921.485226	-3.041500	3.316600	-10.087000	26.399871	0.000519	20.772361
1922.483270	-3.012500	3.317100	-9.991300	26.399400	0.000519	20.776155
1923.485383	-3.031500	3.317100	-10.055000	26.408239	0.000518	20.770815
1924.483759	-2.996300	3.318100	-9.941200	26.424253	0.000520	20.784066
1925.486077	-3.015500	3.316100	-9.998500	26.431230	0.000517	20.777802
1926.482720	-2.992800	3.317400	-9.927500	26.422217	0.000519	20.767794
1927.484782	-3.008500	3.316100	-9.974400	26.384252	0.000515	20.767095
1928.489229	-2.988400	3.316800	-9.910500	26.404612	0.000516	20.757686
1929.486386	-2.979000	3.314700	-9.873700	26.429665	0.000515	20.758684
1930.485255	-2.988600	3.315800	-9.908200	26.426411	0.000515	20.749250
1931.485936	-2.994600	3.315700	-9.926500	26.442203	0.000512	20.779347
1932.486043	-3.011200	3.314900	-9.981100	26.462760	0.000514	20.773931
1933.488029	-3.020100	3.313000	-10.005000	26.449154	0.000512	20.766893
1934.495300	-2.991700	3.316100	-9.920000	26.401656	0.000511	20.786958
1935.485794	-2.982000	3.313600	-9.880400	26.360735	0.000512	20.765745
1936.487908	-2.997600	3.312600	-9.928300	26.336500	0.000512	20.744706
1937.490931	-2.997500	3.313400	-9.931200	26.347649	0.000511	20.778197
1938.487327	-2.975700	3.312800	-9.856600	26.338536	0.000513	20.777099
1939.491941	-2.994300	3.312100	-9.915700	26.296024	0.000509	20.771833
1940.489214	-2.995000	3.311800	-9.918200	26.277523	0.000509	20.768414
1941.489527	-3.001800	3.312700	-9.943100	26.233096	0.000508	20.759803
1942.491216	-2.992100	3.312200	-9.910300	26.242582	0.000506	20.764121
1943.489164	-3.004100	3.310600	-9.944200	26.241986	0.000504	20.753089
1944.488883	-2.991300	3.312100	-9.906200	26.217698	0.000509	20.786530
1945.489583	-3.008100	3.309300	-9.954400	26.198501	0.000505	20.769136
1946.489295	-2.994700	3.311100	-9.913800	26.192019	0.000506	20.766890
1947.489115	-3.003300	3.310000	-9.939400	26.153698	0.000505	20.767738
1948.489624	-3.014400	3.309200	-9.975000	26.181389	0.000506	20.759527
1949.490628	-3.001100	3.309600	-9.930800	26.168971	0.000504	20.787826
1950.491691	-2.994300	3.308700	-9.906300	26.179700	0.000506	20.774900
1951.493214	-2.984300	3.309300	-9.875100	26.214542	0.000504	20.767712
1952.491455	-2.991000	3.306400	-9.888500	26.247024	0.000503	20.763369
1953.495503	-2.998200	3.308200	-9.917400	26.292593	0.000505	20.783558
1954.498825	-2.989500	3.307000	-9.885400	26.323185	0.000502	20.775896
1955.493834	-3.026300	3.305400	-10.002000	26.326836	0.000501	20.776720
1956.494323	-2.998600	3.305500	-9.911000	26.329095	0.000500	20.775672
1957.494288	-2.984000	3.306400	-9.864500	26.320155	0.000502	20.782335
1958.493679	-2.995800	3.306100	-9.903500	26.298552	0.000504	20.768684
1959.497562	-2.992400	3.305800	-9.890700	26.312582	0.000500	20.778042
1960.494006	-2.999400	3.305700	-9.913400	26.334955	0.000499	20.780138
1961.497818	-2.959700	3.304900	-9.780000	26.363485	0.000498	20.770879
1962.496290	-3.021300	3.303600	-9.979800	26.368725	0.000500	20.795112
1963.496039	-3.028600	3.303900	-10.005000	26.385162	0.000500	20.786028
1964.497780	-2.988000	3.304600	-9.873200	26.375578	0.000498	20.769282
1965.496909	-2.998700	3.303400	-9.904700	26.331826	0.000498	20.790270
1966.496867	-2.985400	3.302900	-9.859200	26.321347	0.000498	20.806292
1967.496146	-2.985100	3.302600	-9.857800	26.291176	0.000497	20.787824
1968.498370	-3.002100	3.302900	-9.914800	26.299097	0.000495	20.759749
1969.497556	-3.009500	3.303000	-9.938000	26.274538	0.000497	20.784855
1970.502799	-2.986300	3.302300	-9.860900	26.307292	0.000497	20.777942
1971.497325	-3.005300	3.301200	-9.920400	26.323532	0.000495	20.771978
1972.497096	-3.003500	3.300200	-9.911200	26.368476	0.000492	20.801500
1973.497370	-2.985900	3.302200	-9.859100	26.412003	0.000492	20.779340
1974.497095	-2.983400	3.302400	-9.851800	26.456521	0.000493	20.783307
1975.502974	-2.982400	3.300800	-9.843600	26.425436	0.000495	20.779090
1976.499180	-2.988100	3.300200	-9.860300	26.433778	0.000492	20.790320
1977.500062	-2.998400	3.299200	-9.891500	26.423275	0.000493	20.779289
1978.498275	-2.989100	3.299900	-9.863400	26.440159	0.000491	20.784879
1979.499117	-2.980100	3.299400	-9.830500	26.482889	0.000491	20.797956
1980.501624	-3.014900	3.297900	-9.941500	26.492497	0.000490	20.798131
1981.501900	-3.007000	3.297200	-9.912400	26.469035	0.000489	20.793989
1982.498466	-3.007500	3.297100	-9.915200	26.457937	0.000490	20.784256
1983.497784	-2.998500	3.297900	-9.887900	26.431196	0.000491	20.791518
1984.500890	-3.032500	3.296800	-9.995700	26.376496	0.000489	20.795336
1985.498666	-3.001000	3.296900	-9.893300	26.362641	0.000487	20.794213
1986.502134	-3.007500	3.295700	-9.911100	26.392462	0.000485	20.784355
1987.499948	-3.016600	3.296800	-9.942900	26.434250	0.000489	20.793639
1988.502009	-2.983000	3.296800	-9.833500	26.439042	0.000485	20.794188
1989.501793	-2.990300	3.295100	-9.850700	26.461983	0.000485	20.779788
1990.502180	-2.994700	3.294100	-9.862700	26.459227	0.000484	20.805468
1991.504668	-3.008700	3.294600	-9.911700	26.453219	0.000483	20.798480
1992.503081	-3.006100	3.294200	-9.901600	26.485495	0.000484	20.787774
1993.502655	-3.021400	3.294100	-9.951800	26.468513	0.000484	20.814800
1994.503262	-2.997000	3.294200	-9.871600	26.488822	0.000483	20.797282
1995.502292	-3.000200	3.293800	-9.880000	26.505580	0.000483	20.802273
1996.501858	-2.988700	3.293700	-9.843500	26.534752	0.000481	20.804569
1997.508736	-3.029200	3.290900	-9.968100	26.562011	0.000481	20.799253
1998.506811	-3.009900	3.291900	-9.907600	26.578793	0.000481	20.815174
1999.507198	-3.012900	3.292400	-9.918800	26.575590	0.000481	20.825705
2000.509017	-2.997000	3.291800	-9.863200	26.578694	0.000481	20.811281
2001.508808	-2.980000	3.292200	-9.810100	26.535595	0.000480	20.804942
2002.512722	-3.006400	3.290700	-9.892800	26.555655	0.000477	20.800924
2003.509321	-3.002100	3.289700	-9.874900	26.531151	0.000474	20.801897
2004.509384	-2.987800	3.291100	-9.832300	26.558808	0.000477	20.808835
2005.509933	-3.028500	3.288200	-9.957200	26.567720	0.000477	20.801673
2006.513466	-2.985000	3.289900	-9.819200	26.561737	0.000476	20.823633
2007.512165	-2.982000	3.289500	-9.808100	26.569632	0.000475	20.814500
2008.511496	-2.994600	3.288200	-9.845600	26.601383	0.000474	20.822710
2009.515389	-3.013700	3.287400	-9.907100	26.645322	0.000476	20.806189
2010.511845	-2.991300	3.287800	-9.833800	26.680100	0.000475	20.798004
2011.511254	-3.006500	3.287700	-9.883600	26.708299	0.000474	20.788895
2012.513474	-3.001700	3.286900	-9.865500	26.710235	0.000473	20.801747
2013.512256	-3.024400	3.285100	-9.933800	26.683426	0.000472	20.816520
2014.511763	-3.019500	3.286800	-9.922600	26.698493	0.000470	20.831193
2015.511920	-3.058800	3.285200	-10.047000	26.703185	0.000470	20.822160
2016.511698	-3.004500	3.285200	-9.869500	26.679529	0.000471	20.826352
2017.516418	-2.994900	3.286500	-9.841500	26.676426	0.000468	20.803319
2018.515232	-2.994300	3.285800	-9.837900	26.662351	0.000468	20.831842
2019.513288	-2.999300	3.285300	-9.852100	26.612876	0.000467	20.827151
2020.513499	-2.987500	3.285600	-9.813300	26.605602	0.000467	20.818891
2021.514705	-2.992600	3.285400	-9.831000	26.610046	0.000468	20.822883
2022.515510	-3.036500	3.283100	-9.967700	26.638073	0.000465	20.821660
2023.520267	-3.003600	3.282900	-9.858100	26.654730	0.000466	20.818017
2024.515615	-2.981400	3.285600	-9.794400	26.698791	0.000465	20.811104
2025.518311	-3.012500	3.283800	-9.891200	26.706114	0.000465	20.813724
2026.519806	-2.993100	3.282600	-9.823900	26.716663	0.000463	20.830968
2027.515855	-2.996000	3.280300	-9.826100	26.724979	0.000463	20.836009
2028.517617	-3.006800	3.281100	-9.864300	26.751662	0.000463	20.823007
2029.518233	-3.012700	3.280700	-9.882700	26.764197	0.000462	20.832291
2030.517987	-3.011900	3.281600	-9.883000	26.719691	0.000461	20.820737
2031.519359	-2.986200	3.280300	-9.794800	26.698840	0.000460	20.820163
2032.519334	-2.989900	3.280200	-9.806800	26.702688	0.000460	20.814548
2033.522288	-3.007800	3.280200	-9.865000	26.694173	0.000459	20.818316
2034.523209	-3.014500	3.279900	-9.885800	26.697599	0.000458	20.825079
2035.522946	-2.996600	3.280200	-9.828300	26.705120	0.000458	20.836433
2036.521150	-3.000300	3.278600	-9.835300	26.683102	0.000458	20.826626
2037.522470	-3.002900	3.279400	-9.846800	26.672404	0.000458	20.833414
2038.523694	-3.001900	3.277700	-9.838100	26.635987	0.000457	20.812925
2039.526390	-2.952800	3.278700	-9.679400	26.581694	0.000453	20.836582
2040.523894	-2.979100	3.279000	-9.767300	26.577002	0.000456	20.837081
2041.524925	-2.964800	3.279700	-9.721700	26.561039	0.000455	20.831940
2042.523911	-2.987800	3.276700	-9.788600	26.568263	0.000452	20.846788
2043.524725	-2.980200	3.277700	-9.766200	26.537950	0.000452	20.839551
2044.529284	-2.994000	3.276400	-9.808600	26.515135	0.000453	20.840325
2045.529537	-3.016100	3.275400	-9.877200	26.503367	0.000454	20.838453
2046.527604	-3.009400	3.276400	-9.858400	26.497259	0.000452	20.833262
2047.525820	-3.019900	3.275200	-9.889500	26.499368	0.000450	20.837279
2048.525071	-2.985500	3.275300	-9.777400	26.547607	0.000451	20.849258
2049.525342	-2.999300	3.274900	-9.820200	26.567692	0.000452	20.839101
2050.529540	-3.028000	3.273700	-9.911500	26.576703	0.000448	20.864280
2051.524855	-2.998900	3.273800	-9.816800	26.586708	0.000450	20.848734
2052.532195	-3.009400	3.272600	-9.847700	26.622654	0.000447	20.843618
2053.526473	-2.999900	3.273000	-9.817600	26.632410	0.000446	20.841097
2054.526629	-2.997100	3.272600	-9.806900	26.713037	0.000449	20.841547
2055.529573	-2.975500	3.274100	-9.741000	26.711498	0.000445	20.855172
2056.527863	-2.993100	3.271100	-9.788900	26.747043	0.000445	20.846338
2057.527990	-2.983000	3.271500	-9.758200	26.758908	0.000445	20.853051
2058.527387	-2.998100	3.272400	-9.810000	26.742426	0.000444	20.863980
2059.531410	-2.995900	3.271400	-9.800000	26.730015	0.000443	20.851978
2060.529850	-3.005300	3.272100	-9.831200	26.769432	0.000443	20.847511
2061.537991	-2.978200	3.271400	-9.741300	26.759503	0.000442	20.840847
2062.529251	-3.017000	3.270700	-9.866600	26.747018	0.000441	20.844416
2063.530455	-2.997200	3.271200	-9.803200	26.733987	0.000441	20.861186
2064.529565	-2.990400	3.269500	-9.775800	26.711175	0.000440	20.861011
2065.531202	-3.006000	3.270300	-9.828600	26.714849	0.000439	20.853799
2066.533798	-2.995400	3.268800	-9.790300	26.714402	0.000438	20.837704
2067.531576	-2.988200	3.267700	-9.764200	26.733168	0.000440	20.873163
2068.532990	-2.986300	3.267000	-9.755300	26.770028	0.000436	20.867549
2069.533557	-2.990700	3.268300	-9.773600	26.767446	0.000438	20.863057
2070.530845	-3.005800	3.266500	-9.817400	26.767769	0.000437	20.839201
2071.531549	-3.006500	3.265900	-9.818300	26.781868	0.000436	20.860013
2072.532034	-2.995800	3.265800	-9.782900	26.800632	0.000435	20.861336
2073.533517	-3.014500	3.264800	-9.841200	26.815599	0.000434	20.848409
2074.535077	-2.995000	3.265200	-9.778800	26.860125	0.000435	20.869945
2075.532969	-3.019600	3.264300	-9.856000	26.907255	0.000436	20.869920
2076.533370	-3.002200	3.265200	-9.801500	26.946616	0.000432	20.876782
2077.534771	-3.000600	3.265200	-9.797000	26.966767	0.000433	20.870020
2078.533138	-2.995900	3.264600	-9.779800	26.976545	0.000432	20.862784
2079.536113	-2.993000	3.262500	-9.763200	26.987291	0.000431	20.875011
2080.533033	-3.009200	3.262000	-9.814900	27.016995	0.000433	20.884019
2081.534108	-3.004800	3.262200	-9.801500	26.999773	0.000430	20.856270
2082.543939	-3.006600	3.262500	-9.808200	26.983221	0.000429	20.881349
2083.534352	-2.998100	3.261400	-9.776400	26.973493	0.000430	20.881524
2084.534439	-2.990400	3.261800	-9.752800	26.969200	0.000428	20.871992
2085.534769	-2.985700	3.262600	-9.739500	26.990120	0.000427	20.869321
2086.532757	-3.007200	3.260800	-9.804700	26.975081	0.000426	20.862259
2087.538009	-3.003500	3.261800	-9.795200	26.937906	0.000427	20.884144
2088.538652	-3.003300	3.261000	-9.792800	26.921874	0.000425	20.872765
2089.534715	-3.031200	3.257900	-9.874100	26.917307	0.000424	20.896620
2090.535751	-3.022800	3.259500	-9.851600	26.950711	0.000426	20.908873
2091.534729	-2.997900	3.258500	-9.767900	26.953044	0.000423	20.887513
2092.534395	-2.980500	3.259900	-9.714000	26.964410	0.000423	20.888036
2093.537600	-3.001900	3.257800	-9.778800	26.960365	0.000422	20.893926
2094.537958	-3.015900	3.259500	-9.828400	26.948750	0.000422	20.908323
2095.536896	-3.015000	3.257200	-9.818900	26.974411	0.000421	20.881973
2096.535707	-3.046700	3.257400	-9.923000	26.920831	0.000421	20.897319
2097.537315	-2.986200	3.257700	-9.727500	26.877027	0.000420	20.901636
2098.539425	-2.966200	3.257900	-9.661800	26.845804	0.000419	20.884942
2099.540109	-2.976000	3.257500	-9.692700	26.803636	0.000420	20.885691
2100.536539	-3.023400	3.254500	-9.838400	26.834487	0.000418	20.881149
2101.537787	-3.027500	3.254500	-9.851100	26.844861	0.000416	20.883045
2102.538627	-3.017200	3.254200	-9.817400	26.852530	0.000416	20.899290
2103.543161	-2.999200	3.255500	-9.761300	26.916016	0.000415	20.890108
2104.542290	-2.990000	3.255900	-9.732900	26.904327	0.000415	20.887837
2105.541651	-3.003800	3.253800	-9.772100	26.889361	0.000414	20.891280
2106.542015	-2.969800	3.255400	-9.665800	26.904103	0.000413	20.878603
2107.541942	-2.983000	3.252700	-9.701500	26.920905	0.000413	20.895971
2108.541598	-2.985800	3.253200	-9.712500	26.911598	0.000412	20.907948
2109.543905	-2.978000	3.254200	-9.690400	26.940709	0.000411	20.912091
2110.541810	-2.976500	3.252600	-9.680300	26.946739	0.000411	20.906301
2111.543497	-2.988600	3.252000	-9.716600	26.967684	0.000409	20.924991
2112.541871	-2.995400	3.251400	-9.737800	27.005305	0.000410	20.899763
2113.542451	-2.994000	3.250400	-9.730600	27.025034	0.000409	20.907274
2114.553342	-2.983400	3.250100	-9.695000	27.048682	0.000409	20.910668
2115.545434	-2.973500	3.252500	-9.669100	27.069129	0.000408	20.898041
2116.542861	-3.011900	3.250600	-9.789500	27.093670	0.000408	20.904229
2117.547246	-3.008200	3.249000	-9.772500	27.112082	0.000405	20.910892
2118.542712	-3.002600	3.247400	-9.748700	27.119402	0.000405	20.897866
2119.543746	-2.987300	3.248600	-9.704100	27.144040	0.000404	20.894198
2120.549388	-3.009700	3.247300	-9.771500	27.132726	0.000404	20.910318
2121.546114	-2.974800	3.247700	-9.660100	27.085332	0.000403	20.905327
2122.545142	-2.994600	3.247300	-9.723600	27.043148	0.000404	20.904154
2123.544792	-2.989100	3.248200	-9.708500	27.008878	0.000403	20.930853
2124.543958	-3.017300	3.246600	-9.794900	26.993542	0.000399	20.906899
2125.546869	-3.000500	3.246300	-9.740100	26.982102	0.000401	20.918627
2126.545225	-2.987300	3.246400	-9.697900	26.921400	0.000401	20.931078
2127.546602	-2.971900	3.246000	-9.644900	26.859254	0.000400	20.928333
2128.552622	-3.006600	3.244900	-9.755000	26.831555	0.000400	20.927983
2129.549014	-2.990800	3.245600	-9.706300	26.852876	0.000399	20.928084
2130.549000	-2.984900	3.244400	-9.682400	26.875511	0.000399	20.945625
2131.553699	-2.994900	3.243200	-9.711400	26.904870	0.000398	20.933423
2132.550677	-2.991500	3.245600	-9.708400	26.924427	0.000397	20.912313
2133.550431	-3.002200	3.243600	-9.736700	26.937034	0.000397	20.936368
2134.552805	-3.011600	3.243200	-9.766600	26.936438	0.000394	20.915856
2135.555026	-2.995900	3.241800	-9.711200	26.917775	0.000395	20.942605
2136.556703	-2.974300	3.244000	-9.648100	26.927901	0.000395	20.920547
2137.553356	-2.998500	3.242700	-9.722400	26.965548	0.000393	20.910042
2138.555573	-2.992600	3.242300	-9.701400	26.948896	0.000393	20.926012
2139.553088	-3.003200	3.242200	-9.736700	26.892932	0.000393	20.930903
2140.553730	-3.007300	3.240600	-9.744100	26.902983	0.000391	20.930578
2141.553359	-2.990800	3.240200	-9.690000	26.893603	0.000392	20.929206
2142.556312	-3.005000	3.239300	-9.733000	26.900700	0.000391	20.947246
2143.554635	-2.989700	3.239800	-9.684900	26.934825	0.000390	20.955481
2144.553862	-3.015600	3.237700	-9.761600	26.974855	0.000388	20.930778
2145.554795	-2.985100	3.238200	-9.665800	26.992697	0.000388	20.925962
2146.555165	-3.010500	3.236700	-9.742900	26.988156	0.000388	20.932774
2147.557270	-3.010600	3.237600	-9.745900	26.985029	0.000388	20.937215
2148.554354	-2.990900	3.237200	-9.681100	26.963687	0.000386	20.920972
2149.557066	-2.977200	3.238700	-9.641000	27.002798	0.000386	20.937066
2150.555768	-2.999600	3.236600	-9.706900	27.051484	0.000383	20.921545
2151.557788	-2.987200	3.235600	-9.664800	27.055852	0.000382	20.941582
2152.560016	-3.012500	3.235200	-9.745100	27.096026	0.000383	20.931726
2153.556303	-2.995300	3.235300	-9.690000	27.130293	0.000383	20.932050
2154.558377	-3.006900	3.234400	-9.724400	27.144783	0.000382	20.948044
2155.556251	-3.013100	3.233500	-9.740800	27.148282	0.000382	20.944925
2156.557305	-3.004400	3.235100	-9.718900	27.158926	0.000382	20.940458
2157.559271	-3.009700	3.232900	-9.729700	27.176616	0.000381	20.939285
2158.560055	-3.007600	3.233900	-9.725300	27.156817	0.000378	20.953034
2159.559890	-3.018200	3.233500	-9.757600	27.106843	0.000380	20.928855
2160.562305	-3.002100	3.233000	-9.704200	27.122202	0.000376	20.923440
2161.561150	-3.007500	3.231400	-9.717000	27.134981	0.000378	20.915430
2162.563788	-2.976500	3.232300	-9.618800	27.153491	0.000374	20.917925
2163.560389	-3.026300	3.231400	-9.778600	27.215247	0.000376	20.936889
2164.563072	-3.000600	3.231100	-9.694100	27.194356	0.000377	20.913034
2165.564038	-2.977800	3.230600	-9.619200	27.163837	0.000374	20.919796
2166.561459	-3.013100	3.227900	-9.724500	27.126792	0.000372	20.921892
2167.563487	-3.001700	3.229000	-9.690700	27.122995	0.000373	20.913807
2168.564750	-2.978600	3.228100	-9.614600	27.131282	0.000374	20.903177
2169.560226	-2.997500	3.227300	-9.672500	27.151927	0.000371	20.908767
2170.566364	-2.993800	3.228600	-9.664400	27.176044	0.000371	20.910263
2171.563170	-2.984600	3.226600	-9.629100	27.195545	0.000369	20.914705
2172.560363	-3.021500	3.226600	-9.748600	27.195297	0.000369	20.913981
2173.563676	-2.972200	3.228700	-9.595300	27.199068	0.000370	20.904498
2174.562049	-3.003800	3.226200	-9.690000	27.197182	0.000369	20.896913
2175.564356	-3.022600	3.225600	-9.748100	27.177060	0.000369	20.890899
2176.560964	-2.963200	3.225800	-9.557500	27.157086	0.000369	20.911110
2177.561629	-3.006700	3.225500	-9.695200	27.151528	0.000365	20.892246
2178.565570	-2.966200	3.225100	-9.563900	27.168847	0.000364	20.895914
2179.564184	-2.976100	3.225000	-9.597100	27.176389	0.000365	20.892595
2180.563511	-2.981800	3.224000	-9.612300	27.185371	0.000366	20.892620
2181.563547	-2.997700	3.223500	-9.661700	27.194675	0.000365	20.881116
2182.574819	-2.987000	3.222000	-9.623300	27.176538	0.000364	20.906020
2183.563921	-3.002200	3.222000	-9.671300	27.143315	0.000362	20.909588
2184.565680	-3.019600	3.221500	-9.726300	27.179615	0.000363	20.896313
2185.564168	-3.014200	3.219500	-9.703200	27.171352	0.000362	20.895589
2186.563736	-3.014400	3.221100	-9.709400	27.234596	0.000362	20.905620
2187.566923	-3.009900	3.220600	-9.693500	27.237399	0.000360	20.900854
2188.565742	-3.018400	3.219700	-9.717200	27.234100	0.000359	20.900854
2189.568197	-3.010300	3.220700	-9.693500	27.257247	0.000357	20.885258
2190.568324	-2.979100	3.219500	-9.589600	27.226483	0.000358	20.884185
2191.569493	-2.977500	3.220300	-9.587600	27.195469	0.000357	20.890923
2192.568414	-2.983400	3.217500	-9.597600	27.227897	0.000357	20.887978
2193.568708	-2.999900	3.220000	-9.659200	27.239285	0.000355	20.887579
2194.571050	-2.971800	3.219100	-9.564700	27.263475	0.000355	20.897685
2195.569300	-2.997900	3.216300	-9.641600	27.274366	0.000356	20.883985
2196.569395	-3.012500	3.216100	-9.686900	27.278980	0.000354	20.904272
2197.569515	-2.989400	3.216800	-9.615500	27.296669	0.000354	20.884609
2198.569556	-2.995000	3.215200	-9.628500	27.273125	0.000353	20.887479
2199.570291	-2.992000	3.215300	-9.618800	27.306022	0.000355	20.888327
2200.570822	-2.996900	3.215600	-9.635300	27.260373	0.000354	20.873230
2201.572445	-2.991400	3.214900	-9.616000	27.258562	0.000351	20.880417
2202.571837	-3.010600	3.214000	-9.674100	27.317781	0.000350	20.891621
2203.572603	-3.009400	3.212200	-9.666100	27.341523	0.000349	20.878995
2204.574064	-2.994300	3.212900	-9.619700	27.392799	0.000351	20.887429
2205.577766	-2.995400	3.213400	-9.623800	27.390145	0.000348	20.885233
2206.575078	-3.008900	3.212000	-9.663200	27.360203	0.000348	20.881191
2207.574838	-3.014400	3.211700	-9.679300	27.299845	0.000347	20.853666
2208.573348	-3.001000	3.210000	-9.631400	27.315722	0.000347	20.890972
2209.576299	-3.011000	3.209800	-9.663800	27.320163	0.000345	20.873630
2210.574105	-3.012700	3.210500	-9.670600	27.273919	0.000345	20.879269
2211.577304	-3.017100	3.209400	-9.682100	27.242783	0.000344	20.872132
2212.575247	-2.977500	3.210200	-9.558100	27.223356	0.000342	20.875825
2213.577139	-3.014100	3.209000	-9.670800	27.274167	0.000343	20.843485
2214.578065	-2.988000	3.208900	-9.587300	27.331327	0.000344	20.878221
2215.577007	-3.008300	3.208200	-9.649600	27.324231	0.000343	20.872032
2216.594356	-3.021600	3.208700	-9.694100	27.324356	0.000341	20.886381
2217.576434	-3.002800	3.209000	-9.634700	27.314606	0.000338	20.877048
2218.581125	-3.027100	3.205900	-9.703900	27.240947	0.000340	20.878346
2219.578934	-3.004100	3.205700	-9.629900	27.198942	0.000340	20.873080
2220.580019	-3.006600	3.205700	-9.637200	27.140163	0.000339	20.870860
2221.579832	-2.995200	3.205100	-9.599200	27.109916	0.000338	20.888327
2222.579811	-2.989200	3.206000	-9.582300	27.142966	0.000335	20.850447
2223.579541	-3.010700	3.203300	-9.643900	27.156067	0.000337	20.876424
2224.579269	-2.982900	3.203800	-9.555900	27.158449	0.000335	20.869811
2225.579427	-2.974500	3.206500	-9.536200	27.161303	0.000334	20.867940
2226.580083	-2.997000	3.202200	-9.596200	27.211050	0.000332	20.853491
2227.579185	-3.013100	3.201600	-9.645600	27.240177	0.000333	20.856710
2228.582253	-2.998000	3.202000	-9.598800	27.298777	0.000334	20.854489
2229.580336	-3.019300	3.200700	-9.663100	27.315796	0.000332	20.855962
2230.579473	-2.992000	3.200200	-9.573300	27.317484	0.000331	20.851495
2231.579729	-2.982100	3.201200	-9.545300	27.318228	0.000332	20.868839
2232.591391	-3.017500	3.199000	-9.652200	27.313514	0.000330	20.881165
2233.581100	-3.012200	3.198900	-9.634600	27.304410	0.000329	20.868215
2234.582341	-3.013100	3.199600	-9.639400	27.228765	0.000330	20.878421
2235.582179	-3.006700	3.199600	-9.618600	27.235364	0.000330	20.885058
2236.582088	-3.028100	3.197300	-9.681300	27.180433	0.000329	20.871533
2237.585114	-3.005800	3.199400	-9.615400	27.177158	0.000328	20.853067
2238.582079	-3.000700	3.196800	-9.591200	27.157656	0.000326	20.861901
2239.584209	-2.974700	3.197200	-9.509500	27.134605	0.000329	20.870011
2240.590079	-3.010700	3.197300	-9.625000	27.156241	0.000328	20.854789
2241.583316	-3.009500	3.195400	-9.615700	27.174925	0.000327	20.866942
2242.585613	-2.972600	3.197000	-9.501700	27.152817	0.000325	20.848974
2243.585197	-3.014800	3.195100	-9.631700	27.165918	0.000326	20.857409
2244.583213	-2.984700	3.197400	-9.541900	27.155174	0.000323	20.865095
2245.584197	-2.996700	3.195200	-9.573000	27.250151	0.000323	20.855363
2246.584338	-3.003300	3.194800	-9.594100	27.237647	0.000322	20.868389
2247.583365	-2.998800	3.193400	-9.574800	27.277367	0.000323	20.844333
2248.584234	-3.023900	3.193200	-9.655100	27.305873	0.000324	20.854514
2249.583815	-2.984900	3.193700	-9.532300	27.338843	0.000321	20.859230
2250.583039	-3.019700	3.190400	-9.633200	27.344077	0.000320	20.859280
2251.582420	-3.001000	3.191800	-9.577600	27.345938	0.000320	20.860203
2252.583770	-2.998400	3.190700	-9.566400	27.401779	0.000320	20.871807
2253.586219	-2.998200	3.190900	-9.566000	27.357026	0.000319	20.865194
2254.589736	-2.999300	3.190300	-9.567400	27.356109	0.000318	20.854314
2255.586124	-2.985900	3.188700	-9.520100	27.393667	0.000316	20.864595
2256.584798	-3.005500	3.189300	-9.584900	27.379700	0.000318	20.842012
2257.583837	-3.012400	3.189900	-9.608500	27.392550	0.000315	20.853990
2258.588644	-2.990100	3.188400	-9.533000	27.391980	0.000314	20.851993
2259.592101	-3.001700	3.189400	-9.572800	27.422789	0.000314	20.841263
2260.586753	-3.012800	3.188000	-9.604100	27.431099	0.000316	20.848200
2261.586993	-3.009400	3.186100	-9.587000	27.425915	0.000312	20.850571
2262.587462	-3.006400	3.185100	-9.575000	27.402647	0.000312	20.843285
2263.586453	-2.976000	3.186400	-9.481700	27.371638	0.000311	20.848125
2264.591862	-3.000300	3.184300	-9.551500	27.326265	0.000311	20.856535
2265.586999	-2.983300	3.184400	-9.499300	27.287414	0.000310	20.853491
2266.593329	-3.017400	3.182000	-9.600100	27.230798	0.000311	20.832579
2267.587959	-3.000700	3.183000	-9.550200	27.233453	0.000310	20.852792
2268.588569	-2.983800	3.182800	-9.495800	27.266053	0.000309	20.845281
2269.588569	-3.008900	3.182400	-9.574500	27.283693	0.000308	20.829360
2270.588415	-3.016900	3.180300	-9.593600	27.334576	0.000306	20.822697
2271.589536	-3.027900	3.180800	-9.630200	27.402919	0.000309	20.846404
2272.587332	-3.000300	3.180300	-9.540100	27.403217	0.000306	20.859505
2273.589323	-2.981200	3.180600	-9.480700	27.393642	0.000307	20.845131
2274.587308	-3.016200	3.180800	-9.592900	27.401952	0.000303	20.833577
2275.591771	-3.033400	3.176900	-9.636100	27.412520	0.000302	20.843734
2276.588855	-3.011200	3.178900	-9.571400	27.430925	0.000304	20.835224
2277.587702	-3.013600	3.178600	-9.578100	27.428767	0.000303	20.843958
2278.589743	-3.006100	3.177200	-9.550400	27.417828	0.000304	20.829634
2279.589014	-3.000000	3.176900	-9.530100	27.477931	0.000302	20.841737
2280.590234	-2.987400	3.177200	-9.490900	27.490904	0.000300	20.831555
2281.591854	-2.974700	3.176200	-9.446500	27.498792	0.000301	20.836646
2282.598094	-2.967100	3.179000	-9.431300	27.457566	0.000298	20.843059
2283.600872	-2.997800	3.174700	-9.515900	27.428742	0.000298	20.851045
2284.592918	-2.994200	3.176200	-9.509200	27.386224	0.000298	20.837669
2285.595982	-2.992300	3.174600	-9.498000	27.372357	0.000298	20.851219
2286.597335	-2.999300	3.172900	-9.515700	27.364716	0.000298	20.819826
2287.596826	-2.984700	3.173600	-9.470800	27.382329	0.000299	20.838966
2288.594792	-3.003200	3.172400	-9.526300	27.435266	0.000298	20.823469
2289.594481	-3.009800	3.173900	-9.552000	27.429014	0.000296	20.839465
2290.593554	-2.978400	3.172500	-9.448200	27.413535	0.000296	20.835747
2291.599305	-3.014100	3.172000	-9.560500	27.448636	0.000293	20.826489
2292.598092	-2.995300	3.170100	-9.494300	27.486711	0.000294	20.822596
2293.601454	-3.017200	3.170800	-9.565800	27.518361	0.000292	20.836421
2294.596492	-3.003800	3.168800	-9.517500	27.545670	0.000293	20.835447
2295.596231	-3.016500	3.167600	-9.554300	27.563925	0.000294	20.840538
2296.597178	-2.992400	3.169000	-9.481800	27.594853	0.000293	20.832303
2297.596538	-2.983200	3.169600	-9.455500	27.604253	0.000292	20.846976
2298.596601	-3.006500	3.166400	-9.519200	27.595026	0.000291	20.832952
2299.597939	-2.992100	3.166200	-9.472400	27.646886	0.000292	20.820175
2300.607491	-3.000900	3.166600	-9.501300	27.589718	0.000289	20.833775
2301.597854	-3.001000	3.166000	-9.500300	27.573051	0.000289	20.822695
2302.598904	-2.995700	3.164300	-9.478900	27.518088	0.000287	20.842783
2303.598641	-3.017000	3.164800	-9.547000	27.541303	0.000288	20.822046
2304.598898	-3.015200	3.163500	-9.538100	27.499559	0.000287	20.834099
2305.598830	-3.003400	3.164000	-9.502100	27.461682	0.000287	20.834873
2306.598616	-2.994900	3.163400	-9.473000	27.465800	0.000288	20.829532
2307.600906	-3.042700	3.161000	-9.616300	27.497921	0.000286	20.837193
2308.597844	-3.010500	3.161200	-9.516400	27.513647	0.000284	20.833574
2309.602323	-3.012600	3.159300	-9.517100	27.562063	0.000284	20.814958
2310.598686	-3.031200	3.158800	-9.573400	27.544502	0.000287	20.825264
2311.598856	-3.036500	3.159100	-9.590600	27.604103	0.000284	20.823592
2312.599226	-3.019800	3.157500	-9.533700	27.621364	0.000282	20.806348
2313.601091	-3.005900	3.156700	-9.487000	27.654151	0.000286	20.825114
2314.598925	-2.999300	3.156700	-9.466300	27.686862	0.000284	20.808719
2315.599784	-3.021100	3.155900	-9.533000	27.634583	0.000282	20.814433
2316.598607	-3.010500	3.156500	-9.501700	27.601597	0.000283	20.826761
2317.600942	-2.985800	3.156400	-9.423100	27.598397	0.000283	20.818326
2318.602784	-2.979200	3.156200	-9.401600	27.644751	0.000281	20.818975
2319.604801	-2.995300	3.155600	-9.449500	27.624885	0.000279	20.817952
2320.603012	-3.001300	3.154600	-9.466300	27.669676	0.000278	20.836468
2321.601170	-2.988600	3.154400	-9.425400	27.671759	0.000280	20.834771
2322.599806	-3.045000	3.151900	-9.595500	27.664194	0.000279	20.823367
2323.599835	-3.009900	3.152500	-9.487500	27.697575	0.000278	20.818550
2324.599790	-3.006300	3.151600	-9.472100	27.670717	0.000277	20.813809
2325.600338	-3.021300	3.150100	-9.516700	27.641055	0.000274	20.806722
2326.600349	-3.024700	3.149600	-9.525800	27.661416	0.000275	20.814408
2327.601090	-3.001400	3.149800	-9.452700	27.686489	0.000275	20.792222
2328.599614	-3.015300	3.148300	-9.492200	27.687779	0.000275	20.811064
2329.603806	-3.011100	3.147900	-9.477200	27.673147	0.000273	20.807245
2330.600451	-3.013000	3.146400	-9.478600	27.664938	0.000273	20.806571
2331.601114	-2.985200	3.146900	-9.393600	27.665483	0.000274	20.805698
2332.601737	-3.016900	3.145600	-9.489700	27.699038	0.000273	20.799160
2333.601091	-3.019800	3.145300	-9.496100	27.684704	0.000272	20.814607
2334.604711	-2.987800	3.145800	-9.397900	27.678007	0.000272	20.815929
2335.601198	-2.983800	3.145400	-9.384100	27.647329	0.000273	20.814931
2336.601803	-3.009300	3.142000	-9.454500	27.650727	0.000272	20.812660
2337.601359	-3.046600	3.141000	-9.567000	27.672279	0.000273	20.819174
2338.600813	-3.006800	3.143400	-9.449000	27.698715	0.000270	20.805947
2339.604792	-2.991400	3.142300	-9.398500	27.701666	0.000271	20.804650
2340.604438	-2.994700	3.140900	-9.405200	27.666624	0.000271	20.794518
2341.601903	-2.992100	3.140000	-9.393800	27.624487	0.000268	20.797637
2342.603495	-2.998800	3.139800	-9.414000	27.631878	0.000272	20.815979
2343.602922	-3.010700	3.138600	-9.448500	27.619775	0.000270	20.808068
2344.602850	-2.996100	3.137300	-9.399000	27.582250	0.000269	20.808717
2345.604759	-3.000200	3.138600	-9.415400	27.519250	0.000268	20.797961
2346.604953	-2.999500	3.137600	-9.410500	27.492586	0.000269	20.797212
2347.605549	-2.981300	3.136500	-9.350500	27.485542	0.000265	20.792496
2348.604266	-2.956500	3.138700	-9.278600	27.531032	0.000268	20.799858
2349.603966	-2.984400	3.135500	-9.356400	27.575727	0.000266	20.800731
2350.607270	-2.990700	3.135000	-9.375000	27.611293	0.000267	20.791947
2351.602648	-2.978400	3.132900	-9.330500	27.661564	0.000266	20.794642
2352.604784	-2.984600	3.133700	-9.352300	27.690382	0.000264	20.806096
2353.605713	-2.994400	3.133400	-9.381900	27.728647	0.000264	20.799084
2354.606727	-2.994900	3.131600	-9.377700	27.740055	0.000263	20.788278
2355.605713	-2.978800	3.132200	-9.328600	27.764332	0.000265	20.798011
2356.606700	-3.007300	3.130100	-9.411600	27.771722	0.000264	20.817301
2357.604788	-2.959500	3.131600	-9.266800	27.751710	0.000263	20.803800
2358.606071	-2.991900	3.129800	-9.363100	27.695788	0.000264	20.784984
2359.604511	-2.987900	3.127500	-9.343600	27.667963	0.000263	20.792071
2360.604385	-2.972600	3.128200	-9.297700	27.653653	0.000265	20.799483
2361.608570	-2.995800	3.128200	-9.371100	27.618907	0.000263	20.792970
2362.606041	-3.001400	3.125200	-9.378900	27.644724	0.000263	20.778645
2363.606955	-3.016400	3.124500	-9.422500	27.600851	0.000261	20.784285
2364.606498	-3.023800	3.124700	-9.448000	27.604100	0.000262	20.791822
2365.608034	-2.991400	3.124700	-9.345600	27.637210	0.000263	20.789101
2366.610474	-3.014100	3.123600	-9.413900	27.629447	0.000262	20.768488
2367.609442	-2.984400	3.123100	-9.319700	27.649933	0.000258	20.780093
2368.612885	-2.995000	3.121600	-9.347600	27.656802	0.000262	20.793643
2369.607342	-2.980900	3.120800	-9.301800	27.672030	0.000258	20.782413
2370.608604	-2.955400	3.121900	-9.225500	27.714189	0.000260	20.787379
2371.609072	-3.008200	3.118900	-9.381000	27.752478	0.000259	20.773754
2372.608756	-3.001200	3.117200	-9.354300	27.786501	0.000259	20.784285
2373.609757	-2.983100	3.118900	-9.303400	27.750395	0.000257	20.774976
2374.610960	-2.995400	3.118200	-9.338800	27.746973	0.000257	20.772007
2375.610337	-2.977300	3.118500	-9.283800	27.716743	0.000256	20.772880
2376.612498	-2.996000	3.116400	-9.335500	27.693754	0.000259	20.778670
2377.613921	-2.984600	3.113800	-9.291700	27.713271	0.000258	20.789775
2378.611763	-2.978600	3.114800	-9.277000	27.750345	0.000256	20.778720
2379.612536	-2.990700	3.113500	-9.310500	27.809612	0.000256	20.779568
2380.611993	-2.984900	3.111000	-9.284500	27.845691	0.000254	20.767989
2381.613815	-3.007300	3.110900	-9.354500	27.863271	0.000254	20.776673
2382.615541	-3.003400	3.109600	-9.338600	27.862998	0.000255	20.771657
2383.614123	-3.002200	3.109000	-9.333200	27.840508	0.000255	20.776998
2384.620399	-3.008500	3.109100	-9.352400	27.815662	0.000253	20.788028
2385.616172	-3.001800	3.106900	-9.325700	27.786897	0.000255	20.779942
2386.616472	-3.012700	3.106900	-9.358400	27.772713	0.000252	20.756184
2387.619234	-2.980100	3.107500	-9.260000	27.779111	0.000255	20.784435
2388.617193	-2.992000	3.105000	-9.289300	27.807777	0.000255	20.765867
2389.618437	-2.978300	3.106000	-9.248500	27.833342	0.000252	20.773579
2390.616706	-2.979500	3.104800	-9.248000	27.814050	0.000252	20.768388
2391.614066	-2.975300	3.103300	-9.231700	27.844030	0.000251	20.776274
2392.616791	-3.013700	3.101900	-9.347200	27.848542	0.000252	20.758056
2393.616915	-3.013800	3.102400	-9.348600	27.800238	0.000249	20.772032
2394.616666	-3.005100	3.100000	-9.313700	27.760290	0.000252	20.774502
2395.618330	-2.984200	3.101400	-9.254100	27.763587	0.000251	20.751268
2396.616894	-2.993100	3.099200	-9.275500	27.757214	0.000250	20.791796
2397.616960	-2.999700	3.097600	-9.290400	27.767158	0.000252	20.768138
2398.621172	-2.974700	3.099400	-9.218700	27.758851	0.000252	20.782538
2399.617105	-3.012100	3.095300	-9.322400	27.712998	0.000249	20.766741
2400.620165	-2.997100	3.094300	-9.273000	27.744344	0.000249	20.778370
2401.617806	-3.000400	3.094200	-9.282000	27.731920	0.000251	20.766816
2402.618196	-2.983700	3.094600	-9.232800	27.712453	0.000251	20.765243
2403.617817	-3.001300	3.093000	-9.280200	27.672674	0.000250	20.777372
2404.624727	-3.020800	3.090800	-9.335400	27.730085	0.000249	20.758330
2405.618391	-2.981400	3.091400	-9.215300	27.727729	0.000249	20.758330
2406.618816	-3.007500	3.088900	-9.289100	27.766340	0.000249	20.769211
2407.619878	-2.994200	3.089200	-9.248800	27.748907	0.000250	20.782014
2408.618418	-2.980400	3.089000	-9.204100	27.774201	0.000246	20.779019
2409.623178	-3.003300	3.087700	-9.272100	27.811620	0.000247	20.767839
2410.619226	-3.007800	3.085300	-9.278900	27.825605	0.000248	20.752516
2411.620150	-2.982800	3.086100	-9.204100	27.881495	0.000246	20.764669
2412.619624	-2.996500	3.084800	-9.242800	27.892306	0.000247	20.763696
2413.618910	-3.000400	3.085300	-9.256200	27.875792	0.000246	20.765093
2414.622674	-2.985700	3.083500	-9.205500	27.830515	0.000246	20.771208
2415.619065	-3.006600	3.081600	-9.263700	27.770729	0.000245	20.752765
2416.620321	-3.002900	3.081600	-9.252800	27.724207	0.000247	20.770908
2417.622820	-3.002400	3.080600	-9.248200	27.700350	0.000246	20.808067
2418.623455	-2.993300	3.079600	-9.217800	27.644501	0.000246	20.750444
2419.619353	-2.994100	3.079800	-9.220400	27.636986	0.000246	20.774177
2420.622761	-2.999200	3.078600	-9.232600	27.642616	0.000246	20.732425
2421.622386	-2.973700	3.077000	-9.149200	27.668235	0.000242	20.759628
2422.618742	-3.009700	3.075000	-9.253400	27.657323	0.000246	20.775201
2423.619273	-3.009600	3.074000	-9.250300	27.635523	0.000244	20.783137
2424.620596	-3.044400	3.071400	-9.348800	27.587358	0.000243	20.766441
2425.623170	-2.984900	3.072300	-9.169200	27.580934	0.000243	20.784160
2426.621328	-3.010300	3.072300	-9.247800	27.574883	0.000244	20.785183
2427.625847	-2.986800	3.071700	-9.174000	27.560125	0.000245	20.776024
2428.623390	-3.005700	3.069800	-9.226200	27.546508	0.000243	20.768488
2429.624117	-2.986600	3.069200	-9.165200	27.562481	0.000242	20.771283
2430.623019	-3.006000	3.066200	-9.216000	27.627190	0.000243	20.788028
2431.627188	-3.008100	3.066900	-9.224100	27.691671	0.000242	20.770409
2432.624983	-2.989300	3.067300	-9.167800	27.759372	0.000244	20.785433
2433.626970	-3.009100	3.064700	-9.219900	27.803710	0.000243	20.773629
2434.623852	-3.007000	3.064000	-9.211200	27.797635	0.000242	20.786955
2435.625145	-3.005900	3.061600	-9.201700	27.750668	0.000242	20.792320
2436.628240	-3.014100	3.061400	-9.226000	27.719918	0.000244	20.786980
2437.624618	-3.008000	3.058500	-9.198700	27.757115	0.000242	20.781739
2438.629055	-2.992600	3.060600	-9.158300	27.789303	0.000242	20.763397
2439.627869	-3.017600	3.058200	-9.227500	27.823324	0.000242	20.778196
2440.628972	-2.979500	3.057400	-9.108100	27.829548	0.000241	20.780192
2441.628353	-3.012100	3.055200	-9.202300	27.820200	0.000243	20.786431
2442.624994	-3.000900	3.055100	-9.167400	27.821589	0.000241	20.781665
2443.627541	-3.026700	3.052500	-9.237700	27.844674	0.000241	20.773604
2444.631102	-3.034400	3.053300	-9.263900	27.856304	0.000240	20.765393
2445.628361	-3.008500	3.051400	-9.178500	27.856403	0.000239	20.766916
2446.638688	-2.991600	3.050700	-9.124200	27.849584	0.000241	20.769536
2447.629469	-3.046000	3.048000	-9.281000	27.870387	0.000241	20.798060
2448.627555	-2.985800	3.048100	-9.099900	27.878768	0.000240	20.785633
2449.628240	-2.989500	3.048100	-9.111200	27.843013	0.000240	20.787105
2450.630170	-2.997100	3.047500	-9.132000	27.834161	0.000241	20.787205
2451.631627	-2.999700	3.044400	-9.131600	27.870834	0.000241	20.798984
2452.631866	-3.016100	3.042200	-9.172800	27.919754	0.000242	20.789900
2453.632458	-2.995900	3.041700	-9.111600	27.968871	0.000241	20.799982
2454.631321	-3.008600	3.040200	-9.146000	28.022522	0.000240	20.797562
2455.631206	-2.973100	3.041800	-9.042500	28.043223	0.000239	20.786157
2456.631251	-2.978900	3.040700	-9.057100	28.085368	0.000238	20.793494
2457.632227	-2.994300	3.038000	-9.096300	28.124834	0.000241	20.790075
2458.630392	-2.989900	3.038300	-9.083400	28.178750	0.000241	20.799309
2459.631230	-3.006200	3.035700	-9.125800	28.156440	0.000238	20.797237
2460.632440	-3.004800	3.034700	-9.116900	28.090153	0.000239	20.790724
2461.632060	-2.985100	3.034300	-9.057000	28.068858	0.000239	20.793469
2462.634201	-2.984000	3.034800	-9.055100	28.069304	0.000239	20.798660
2463.630771	-3.007700	3.030800	-9.115200	28.077757	0.000241	20.786781
2464.633934	-2.969100	3.031300	-8.998700	28.077187	0.000239	20.811337
2465.631404	-3.011100	3.028700	-9.118300	28.046818	0.000238	20.786931
2466.635431	-2.983700	3.029500	-9.037700	28.046546	0.000239	20.795665
2467.635057	-3.006600	3.026900	-9.100100	28.047066	0.000239	20.804250
2468.636950	-3.016700	3.024400	-9.123100	28.055272	0.000238	20.803027
2469.634781	-3.005100	3.024600	-9.088000	28.029786	0.000237	20.787804
2470.634921	-3.000300	3.023100	-9.068900	28.008738	0.000238	20.802653
2471.636229	-2.979600	3.023400	-9.007900	27.979731	0.000239	20.807120
2472.636755	-2.984800	3.021100	-9.015700	27.977648	0.000236	20.799334
2473.640910	-3.009100	3.020600	-9.088300	27.947400	0.000237	20.809666
2474.638296	-2.977500	3.018800	-8.987600	27.963839	0.000239	20.800133
2475.640605	-3.000400	3.016500	-9.049500	27.991284	0.000239	20.820172
2476.637488	-2.983100	3.016800	-8.998000	27.988756	0.000237	20.823316
2477.636896	-3.022000	3.014000	-9.106800	28.006036	0.000238	20.803252
2478.637434	-2.999600	3.012700	-9.035800	28.015284	0.000237	20.809716
2479.641531	-3.026500	3.012000	-9.114400	28.054852	0.000237	20.799759
2480.637438	-3.000000	3.012400	-9.035300	28.045356	0.000237	20.811538
2481.638143	-2.997200	3.009400	-9.019100	28.094864	0.000238	20.824390
2482.637669	-2.998600	3.008400	-9.020300	28.126620	0.000236	20.818425
2483.640784	-3.039600	3.006200	-9.136300	28.131999	0.000236	20.824315
2484.639115	-2.991400	3.006000	-8.990700	28.148732	0.000236	20.806073
2485.638545	-3.019900	3.003500	-9.068800	28.142188	0.000237	20.809442
2486.637331	-3.007300	3.003200	-9.030300	28.117845	0.000237	20.814808
2487.641776	-3.012100	3.001900	-9.040800	28.102029	0.000237	20.823542
2488.638764	-3.016600	3.000300	-9.049400	28.164498	0.000236	20.830479
2489.641602	-3.018800	3.000300	-9.057300	28.136090	0.000238	20.824640
2490.639118	-2.982200	2.999000	-8.942500	28.165044	0.000237	20.819175
2491.638577	-2.986200	2.997800	-8.950000	28.193922	0.000236	20.824540
2492.639982	-2.980100	2.997600	-8.931000	28.184081	0.000238	20.820797
2493.639308	-2.997600	2.994900	-8.977000	28.209588	0.000234	20.829407
2494.641393	-2.985900	2.992900	-8.935500	28.190650	0.000237	20.817927
2495.640147	-3.037000	2.991100	-9.081900	28.134330	0.000234	20.831403
2496.642174	-3.003500	2.991000	-8.982300	28.093353	0.000236	20.806273
2497.641612	-2.988500	2.989700	-8.934200	28.055820	0.000234	20.826812
2498.643276	-2.993900	2.988400	-8.945300	28.035664	0.000234	20.817429
2499.643477	-3.028400	2.985000	-9.038800	28.047936	0.000235	20.829307
2500.643683	-3.014400	2.983800	-8.993500	28.079347	0.000235	20.840537
2501.640763	-2.985100	2.984100	-8.907100	28.095510	0.000235	20.826462
2502.642939	-3.000100	2.980500	-8.940600	28.072851	0.000237	20.827361
2503.642162	-3.024400	2.980500	-9.013500	28.066802	0.000234	20.827436
2504.642870	-3.004800	2.980500	-8.954900	28.024682	0.000235	20.840512
2505.643919	-3.010900	2.979000	-8.967600	28.023542	0.000235	20.832252
2506.641158	-3.016200	2.975900	-8.974500	28.044267	0.000234	20.844580
2507.641693	-3.017800	2.975000	-8.977100	28.066233	0.000234	20.836345
2508.642003	-3.017900	2.974300	-8.975000	28.099873	0.000234	20.837019
2509.643746	-2.990700	2.973500	-8.891500	28.103146	0.000236	20.840787
2510.650125	-2.991800	2.972300	-8.891400	28.140950	0.000233	20.849446
2511.644738	-3.005300	2.969200	-8.921900	28.135397	0.000234	20.847175
2512.646273	-2.996800	2.969400	-8.897700	28.092114	0.000235	20.825889
2513.643293	-3.022000	2.966400	-8.962600	28.067076	0.000232	20.826288
2514.643175	-3.008400	2.965100	-8.919000	28.061969	0.000232	20.832527
2515.648773	-2.986600	2.965100	-8.854300	28.089288	0.000232	20.833949
2516.649844	-2.995100	2.961500	-8.869400	28.108674	0.000232	20.819800
2517.646195	-2.988000	2.961500	-8.847900	28.091940	0.000233	20.851317
2518.647017	-3.027600	2.958900	-8.957200	28.098981	0.000234	20.847025
2519.647423	-3.016600	2.959400	-8.925700	28.077289	0.000231	20.841311
2520.647326	-2.992700	2.957300	-8.848900	28.095039	0.000232	20.852066
2521.649311	-3.017400	2.955400	-8.915300	28.086957	0.000233	20.828284
2522.648084	-3.019600	2.955200	-8.922300	28.104435	0.000235	20.857256
2523.650617	-3.011300	2.953800	-8.893200	28.147147	0.000235	20.840986
2524.648582	-3.005300	2.951400	-8.868800	28.236334	0.000232	20.841635
2525.648793	-2.967000	2.950900	-8.754000	28.289550	0.000233	20.846850
2526.653983	-2.996200	2.948600	-8.833800	28.292153	0.000234	20.835721
2527.650416	-2.996100	2.947200	-8.828500	28.270589	0.000233	20.836768
2528.652192	-2.996000	2.946000	-8.825200	28.234400	0.000233	20.842533
2529.649483	-2.980600	2.943800	-8.773300	28.200764	0.000233	20.878367
2530.651739	-3.002100	2.940900	-8.827100	28.211397	0.000231	20.846401
2531.649467	-3.017600	2.940500	-8.872800	28.247612	0.000232	20.844454
2532.652616	-2.984500	2.940200	-8.773900	28.258815	0.000232	20.853363
2533.650852	-2.993200	2.936300	-8.788200	28.281569	0.000233	20.845452
2534.651061	-2.999600	2.936800	-8.808200	28.271828	0.000231	20.866464
2535.652173	-2.990400	2.935000	-8.775500	28.287641	0.000231	20.860100
2536.651110	-2.993800	2.933200	-8.780000	28.290987	0.000233	20.864417
2537.653970	-2.996300	2.931900	-8.784300	28.303578	0.000234	20.854810
2538.654594	-2.971400	2.929100	-8.702200	28.352181	0.000233	20.866763
2539.684590	-3.018800	2.926500	-8.833900	28.357039	0.000234	20.876869
2540.660643	-3.005600	2.926200	-8.793200	28.406556	0.000231	20.855609
2541.654107	-2.982600	2.924400	-8.721100	28.417213	0.000233	20.861597
2542.661323	-2.981200	2.924100	-8.716700	28.371091	0.000231	20.838864
2543.657135	-3.016800	2.920800	-8.809000	28.322911	0.000233	20.843930
2544.655337	-3.001100	2.919700	-8.761300	28.286823	0.000232	20.857380
2545.662339	-2.993300	2.918200	-8.734100	28.320779	0.000234	20.846525
2546.655887	-2.999100	2.916400	-8.744800	28.338376	0.000233	20.860450
2547.655536	-3.014100	2.913600	-8.780800	28.374982	0.000234	20.870282
2548.657746	-2.971800	2.913700	-8.658300	28.422145	0.000234	20.857081
2549.668911	-2.997300	2.911200	-8.724100	28.443210	0.000234	20.881611
2550.662410	-2.963700	2.911200	-8.627400	28.407845	0.000235	20.866863
2551.666689	-3.003800	2.907400	-8.731900	28.389258	0.000231	20.869957
2552.658237	-2.974700	2.906200	-8.644100	28.310741	0.000233	20.882409
2553.657876	-3.012100	2.904600	-8.747600	28.254948	0.000234	20.863694
2554.657630	-2.991000	2.904300	-8.686000	28.272522	0.000233	20.897506
2555.657341	-3.002900	2.902100	-8.714200	28.315426	0.000234	20.867686
2556.659524	-2.991800	2.899800	-8.674900	28.363433	0.000234	20.866713
2557.660252	-2.976400	2.898900	-8.627000	28.396668	0.000232	20.881685
2558.659223	-3.003600	2.896100	-8.698000	28.442145	0.000234	20.884331
2559.661037	-3.010400	2.893700	-8.710500	28.500406	0.000235	20.865715
2560.661055	-2.996900	2.892100	-8.666100	28.503156	0.000233	20.868485
2561.665318	-2.991400	2.890300	-8.645000	28.517480	0.000233	20.870107
2562.661871	-3.004800	2.888500	-8.676600	28.497779	0.000234	20.879191
2563.662223	-3.003100	2.887100	-8.668300	28.484843	0.000233	20.878018
2564.667786	-3.007400	2.885100	-8.676300	28.513019	0.000233	20.874150
2565.663894	-3.002200	2.883200	-8.655200	28.556384	0.000233	20.872303
2566.665914	-2.998100	2.880900	-8.636300	28.607800	0.000232	20.862921
2567.664730	-3.019200	2.879500	-8.692300	28.619496	0.000233	20.887975
2568.665637	-3.000800	2.877000	-8.632500	28.567857	0.000233	20.877694
2569.666969	-2.993400	2.875600	-8.606800	28.576926	0.000235	20.882085
2570.667300	-3.032800	2.871600	-8.707100	28.586194	0.000233	20.890470
2571.666054	-2.997100	2.871000	-8.604000	28.585277	0.000233	20.874849
2572.665381	-3.019700	2.868400	-8.660600	28.595932	0.000232	20.884631
2573.667947	-2.985500	2.868800	-8.563500	28.646405	0.000233	20.882360
2574.666181	-3.020500	2.865500	-8.653800	28.664269	0.000231	20.898930
2575.672644	-2.985100	2.865900	-8.553500	28.703664	0.000231	20.880289
2576.668167	-3.014400	2.861400	-8.623900	28.712335	0.000234	20.894238
2577.676558	-2.983700	2.860000	-8.531900	28.745138	0.000233	20.904519
2578.670193	-3.025500	2.857300	-8.643600	28.754503	0.000234	20.888824
2579.669390	-3.042400	2.855400	-8.685700	28.738053	0.000232	20.890271
2580.670244	-3.004200	2.854200	-8.573800	28.730893	0.000233	20.894913
2581.669634	-3.002500	2.852500	-8.561700	28.718010	0.000233	20.882885
2582.675635	-3.003100	2.849700	-8.557200	28.728539	0.000233	20.887801
2583.672109	-3.016900	2.848100	-8.591800	28.650816	0.000234	20.916672
2584.672048	-2.981100	2.846500	-8.484400	28.586220	0.000234	20.898556
2585.674418	-2.993300	2.844300	-8.513100	28.519142	0.000234	20.895961
2586.671876	-2.995000	2.841200	-8.508000	28.514310	0.000234	20.875924
2587.676844	-3.009800	2.838200	-8.540700	28.515648	0.000233	20.909037
2588.675465	-3.002200	2.838300	-8.520000	28.527493	0.000233	20.892044
2589.673521	-3.001300	2.834600	-8.506000	28.511659	0.000234	20.896012
2590.675730	-3.046400	2.831600	-8.624500	28.513294	0.000235	20.899555
2591.673950	-3.009700	2.830600	-8.518400	28.517458	0.000234	20.891421
2592.679238	-2.985900	2.830300	-8.450300	28.521397	0.000236	20.913404
2593.675798	-3.005900	2.826900	-8.496100	28.546624	0.000232	20.894240
2594.674890	-3.009200	2.824000	-8.496800	28.588426	0.000234	20.889874
2595.676315	-3.026500	2.821700	-8.539500	28.592044	0.000232	20.907266
2596.677155	-2.995900	2.819800	-8.446300	28.622299	0.000234	20.923037
2597.685721	-3.030100	2.816700	-8.533600	28.651933	0.000233	20.902151
2598.690355	-3.000200	2.815500	-8.446000	28.653618	0.000233	20.919968
2599.676466	-3.022900	2.813300	-8.503400	28.672795	0.000231	20.911309
2600.677156	-2.979900	2.810800	-8.374900	28.638132	0.000234	20.914329
2601.681113	-2.990600	2.807700	-8.396200	28.618632	0.000232	20.913655
2602.677103	-3.020900	2.806400	-8.475500	28.604781	0.000234	20.920567
2603.684658	-2.996600	2.802900	-8.397600	28.618137	0.000233	20.909363
2604.679094	-2.968100	2.801100	-8.312900	28.653866	0.000231	20.927329
2605.678338	-2.981000	2.800500	-8.346100	28.700248	0.000233	20.883961
2606.675822	-3.049000	2.795200	-8.521900	28.707383	0.000230	20.915801
2607.680810	-2.995300	2.793200	-8.365400	28.701660	0.000232	20.928053
2608.678872	-3.008500	2.790200	-8.392700	28.667940	0.000232	20.928702
2609.678112	-2.980900	2.788200	-8.310800	28.678346	0.000231	20.924485
2610.679181	-2.985700	2.786200	-8.318600	28.699728	0.000233	20.935114
2611.679039	-2.978900	2.782100	-8.286800	28.710183	0.000234	20.910561
2612.680858	-2.973900	2.780400	-8.267500	28.703296	0.000233	20.919270
2613.679448	-2.977800	2.778100	-8.271900	28.653941	0.000232	20.938783
2614.682152	-3.001200	2.775800	-8.328700	28.679758	0.000232	20.915003
2615.678979	-2.986700	2.770400	-8.272800	28.674728	0.000233	20.930324
2616.680969	-3.003500	2.769100	-8.315500	28.715783	0.000232	20.957447
2617.682504	-3.022900	2.766300	-8.361200	28.740484	0.000233	20.927330
2618.681028	-2.987000	2.762600	-8.250600	28.752252	0.000233	20.924485
2619.681227	-2.991500	2.761600	-8.260900	28.750220	0.000233	20.925758
2620.679955	-3.016300	2.756000	-8.312600	28.700917	0.000233	20.951484
2621.680853	-2.953200	2.755900	-8.135800	28.703246	0.000232	20.928702
2622.680955	-2.969300	2.751800	-8.170100	28.695516	0.000231	20.937036
2623.682122	-2.988200	2.748000	-8.210800	28.695343	0.000232	20.942551
2624.681278	-3.016000	2.744700	-8.275900	28.695392	0.000234	20.943075
2625.683263	-2.994400	2.742700	-8.211300	28.650298	0.000233	20.934641
2626.679859	-3.012500	2.738700	-8.248900	28.655031	0.000233	20.943674
2627.685251	-2.963500	2.736400	-8.108000	28.645690	0.000233	20.937111
2628.685458	-2.986500	2.733600	-8.163000	28.631047	0.000234	20.951284
2629.687724	-3.002100	2.728700	-8.191500	28.604857	0.000232	20.924910
2630.686799	-3.019500	2.724800	-8.226800	28.662687	0.000233	20.945695
2631.682702	-2.986400	2.723400	-8.132300	28.712785	0.000233	20.930723
2632.682014	-3.011000	2.719300	-8.186300	28.742442	0.000233	20.944947
2633.690907	-2.993400	2.716800	-8.131900	28.787730	0.000231	20.955002
2634.688286	-3.024800	2.711700	-8.200500	28.755573	0.000235	20.951534
2635.684830	-3.011900	2.708500	-8.157300	28.722696	0.000232	20.936912
2636.682658	-3.000800	2.705100	-8.116100	28.763228	0.000232	20.942177
2637.683720	-3.042700	2.701200	-8.218700	28.807178	0.000233	20.961790
2638.686124	-2.987700	2.697500	-8.057400	28.868193	0.000229	20.949289
2639.687014	-3.007300	2.694600	-8.102400	28.914962	0.000230	20.951834
2640.684082	-3.036100	2.689500	-8.164700	28.912584	0.000231	20.962239
2641.684604	-3.000200	2.687100	-8.060400	28.896656	0.000230	20.957573
2642.684445	-2.999800	2.683100	-8.047400	28.878548	0.000231	20.938385
2643.683713	-3.003300	2.679800	-8.047400	28.887862	0.000232	20.949189
2644.687913	-3.008300	2.674800	-8.045700	28.933466	0.000232	20.960991
2645.689301	-2.982400	2.672400	-7.968700	28.932723	0.000231	20.948865
2646.684294	-2.999100	2.668100	-8.000700	28.955214	0.000231	20.936912
2647.686645	-2.997500	2.664800	-7.986500	28.979043	0.000231	20.940531
2648.686061	-2.999600	2.659500	-7.976400	29.036927	0.000228	20.939582
2649.685432	-2.984600	2.656800	-7.928000	29.052680	0.000230	20.947866
2650.686768	-3.002700	2.651100	-7.958600	29.021595	0.000230	20.960642
2651.687178	-3.004800	2.646000	-7.949700	29.008146	0.000231	20.947567
2652.685877	-2.953900	2.644900	-7.810900	28.952217	0.000229	20.929152
2653.685803	-3.003200	2.638300	-7.922000	28.987934	0.000232	20.930998
2654.688070	-2.991500	2.633800	-7.877900	29.034004	0.000230	20.944697
2655.692227	-3.029000	2.628900	-7.962000	29.031106	0.000234	20.924710
2656.686747	-2.992100	2.623800	-7.850200	29.003068	0.000231	20.930124
2657.691138	-2.996500	2.620200	-7.850400	28.966458	0.000232	20.924535
2658.690586	-3.008600	2.614400	-7.865000	28.962570	0.000231	20.926780
2659.692441	-3.007800	2.608600	-7.845200	28.981072	0.000233	20.937360
2660.695631	-3.007700	2.604800	-7.832500	28.983301	0.000228	20.919219
2661.693128	-2.989900	2.599700	-7.772000	28.969827	0.000233	20.926980
2662.691328	-3.014400	2.594700	-7.820700	28.933538	0.000231	20.923136
2663.690866	-2.969000	2.590800	-7.691400	28.922093	0.000232	20.923460
2664.691723	-2.998600	2.584900	-7.750100	28.946790	0.000231	20.914677
2665.691342	-3.005200	2.579100	-7.749000	28.949960	0.000233	20.922138
2666.689382	-3.026900	2.573100	-7.786900	28.913745	0.000231	20.932119
2667.695696	-3.003700	2.568500	-7.713500	28.883326	0.000232	20.901476
2668.691647	-3.021300	2.562300	-7.740300	28.851468	0.000228	20.902574
2669.691552	-3.020300	2.556900	-7.721900	28.817926	0.000231	20.924258
2670.691538	-3.015200	2.550900	-7.689900	28.862517	0.000233	20.917496
2671.692165	-2.999000	2.544100	-7.629200	28.924495	0.000232	20.902648
2672.691869	-3.026900	2.537700	-7.679600	28.959075	0.000232	20.908088
2673.693022	-2.987500	2.533400	-7.567400	28.972004	0.000232	20.904994
2674.697861	-2.963000	2.527900	-7.488900	29.007350	0.000232	20.905992
2675.692489	-2.984100	2.520700	-7.521000	29.031053	0.000234	20.898107
2676.705699	-2.999200	2.516800	-7.546500	29.069815	0.000232	20.895436
2677.694993	-2.987600	2.507400	-7.490100	29.115460	0.000231	20.907763
2678.701556	-3.007100	2.503700	-7.527900	29.150554	0.000232	20.895237
2679.696420	-3.016200	2.495500	-7.525900	29.190524	0.000231	20.900427
