LabVIEW Measurement	
Writer_Version	2
Reader_Version	2
Separator	Tab
Decimal_Separator	.
Multi_Headings	No
X_Columns	One
Time_Pref	Absolute
Operator	admin
Description	Clolumns are: time, Current, Voltage, Power, Battery Temp, and Chamber Temp
Date	2024/08/16
Time	13:06:06.104549407958984375
***End_of_Header***	
	
Channels	6						
Samples	1	1	1	1	1	1	
Date	2024/08/28	2024/08/28	2024/08/28	2024/08/28	2024/08/28	2024/08/28	
Time	18:43:33.9580750465393066407	18:43:33.9641199111938476563	18:43:33.9690890312194824219	18:43:33.9422373771667480469	18:43:33.9422373771667480469	18:43:33.9422373771667480469	
X_Dimension	Time	Time	Time	Time	Time	Time	
X0	0.0000000000000000E+0	0.0000000000000000E+0	0.0000000000000000E+0	0.0000000000000000E+0	0.0000000000000000E+0	0.0000000000000000E+0	
Delta_X	1.000000	1.000000	1.000000	1.000000	1.000000	1.000000	
***End_of_Header***							
X_Value	Untitled	Untitled 1	Untitled 2	Untitled 3	Untitled 4	Untitled 5	Comment
0.000000	0.027412	4.103900	0.112530	21.028858	0.000948	20.738224
1.000598	-3.000200	3.943600	-11.829000	21.028703	0.000948	20.729533
2.001841	-2.991300	3.936500	-11.775000	21.031547	0.000949	20.734749
3.000950	-2.998600	3.931500	-11.787000	21.028180	0.000946	20.731855
4.006098	-3.001000	3.926900	-11.783000	21.012634	0.000945	20.731953
5.001511	-3.011000	3.923700	-11.814000	21.004681	0.000942	20.727318
6.006270	-3.014300	3.919500	-11.814000	21.042353	0.000943	20.737970
7.004805	-2.991100	3.917900	-11.717000	21.039892	0.000943	20.755424
8.005224	-2.987800	3.915800	-11.699000	21.034775	0.000942	20.754100
9.002814	-3.005800	3.913500	-11.762000	21.050795	0.000941	20.746889
10.004530	-2.993400	3.912100	-11.709000	21.034620	0.000938	20.763903
11.010904	-2.993300	3.911600	-11.708000	21.036426	0.000939	20.743423
12.005941	-2.999500	3.910200	-11.728000	21.065417	0.000938	20.748238
13.003587	-3.005100	3.907800	-11.742000	21.033655	0.000938	20.752506
14.007767	-3.000100	3.906200	-11.718000	21.069936	0.000937	20.757975
15.010828	-2.976000	3.907300	-11.627000	21.048130	0.000937	20.743750
16.002966	-2.989900	3.903900	-11.670000	21.068097	0.000935	20.772257
17.008519	-2.992100	3.904300	-11.681000	21.051857	0.000938	20.768340
18.010063	-3.023300	3.900800	-11.792000	21.078705	0.000934	20.753944
19.007885	-3.023900	3.899700	-11.791000	21.062359	0.000935	20.759405
20.009150	-3.016400	3.899700	-11.761000	21.102309	0.000934	20.749578
21.007557	-2.997700	3.898500	-11.683000	21.094651	0.000934	20.752823
22.010326	-3.021100	3.897500	-11.773000	21.105104	0.000934	20.754270
23.004038	-3.012600	3.896300	-11.737000	21.115091	0.000931	20.759519
24.009539	-2.977900	3.897200	-11.604000	21.118809	0.000931	20.742375
25.006875	-2.990400	3.896800	-11.652000	21.134722	0.000932	20.774888
26.010054	-3.003500	3.895100	-11.698000	21.108928	0.000929	20.766157
27.007361	-3.000600	3.894900	-11.686000	21.127840	0.000928	20.763737
28.009938	-2.987500	3.894400	-11.634000	21.143989	0.000928	20.777520
29.010711	-2.998200	3.894000	-11.673000	21.122413	0.000927	20.761153
30.010274	-3.002900	3.893300	-11.689000	21.143989	0.000929	20.744802
31.014922	-3.013400	3.892200	-11.728000	21.130970	0.000928	20.757858
32.012224	-3.009300	3.892300	-11.712000	21.152047	0.000927	20.759028
33.012889	-2.999500	3.892000	-11.674000	21.167304	0.000926	20.753901
34.007584	-2.980200	3.892100	-11.597000	21.154130	0.000927	20.791458
35.012046	-3.001600	3.889900	-11.675000	21.166349	0.000925	20.784240
36.014890	-2.983500	3.892200	-11.612000	21.187008	0.000926	20.764128
37.013094	-2.995100	3.889300	-11.647000	21.165082	0.000926	20.774437
38.014661	-2.991300	3.888300	-11.630000	21.215978	0.000924	20.784100
39.014457	-2.985200	3.889400	-11.609000	21.209817	0.000924	20.779833
40.013766	-2.981600	3.888200	-11.592000	21.209792	0.000924	20.766057
41.013125	-3.002200	3.887400	-11.670000	21.200860	0.000924	20.772769
42.013995	-3.014500	3.885100	-11.711000	21.217972	0.000924	20.779931
43.010466	-2.996600	3.886800	-11.646000	21.217548	0.000921	20.769548
44.010136	-2.997000	3.885500	-11.643000	21.223113	0.000924	20.764210
45.014643	-2.988500	3.885700	-11.612000	21.257091	0.000920	20.783503
46.010883	-3.002900	3.884100	-11.662000	21.241492	0.000921	20.766475
47.020342	-2.967700	3.885500	-11.530000	21.233614	0.000920	20.789414
48.015131	-2.997100	3.883500	-11.638000	21.265900	0.000920	20.761969
49.018887	-3.008500	3.884600	-11.685000	21.239105	0.000924	20.784002
50.015491	-3.001200	3.884300	-11.656000	21.277823	0.000921	20.781010
51.015310	-3.001000	3.884100	-11.655000	21.296634	0.000920	20.774698
52.015122	-3.011500	3.882300	-11.691000	21.282832	0.000923	20.770374
53.018669	-3.008800	3.882800	-11.682000	21.302942	0.000921	20.782906
54.016029	-3.003800	3.882300	-11.660000	21.292638	0.000920	20.795831
55.019206	-2.994700	3.882700	-11.627000	21.303792	0.000921	20.815050
56.015261	-2.993500	3.882200	-11.621000	21.301619	0.000921	20.797229
57.014814	-2.998700	3.881400	-11.638000	21.321451	0.000919	20.782457
58.018078	-3.000900	3.880400	-11.644000	21.342304	0.000921	20.807113
59.013492	-2.988300	3.881000	-11.596000	21.337867	0.000921	20.781811
60.017039	-2.979500	3.880900	-11.563000	21.340833	0.000918	20.793787
61.015538	-2.986900	3.880600	-11.590000	21.351758	0.000918	20.808985
62.014339	-2.991000	3.880200	-11.604000	21.355901	0.000920	20.789896
63.014675	-3.000100	3.879200	-11.637000	21.376156	0.000920	20.823438
64.014757	-3.029300	3.877600	-11.744000	21.366049	0.000919	20.775867
65.013754	-3.021600	3.880400	-11.724000	21.384205	0.000919	20.791188
66.016788	-3.011000	3.877200	-11.673000	21.390423	0.000920	20.795512
67.018492	-2.983700	3.878900	-11.572000	21.427829	0.000918	20.801170
68.015151	-2.977000	3.878300	-11.544000	21.416014	0.000916	20.811633
69.021685	-2.984400	3.879300	-11.576000	21.418138	0.000919	20.803327
70.017555	-2.997200	3.876900	-11.618000	21.397033	0.000919	20.795013
71.020387	-3.008000	3.876700	-11.660000	21.426742	0.000919	20.810987
72.020965	-2.994600	3.878000	-11.612000	21.427412	0.000919	20.802649
73.021936	-2.999400	3.880400	-11.638000	21.425222	0.000918	20.814682
74.025734	-3.012100	3.875300	-11.672000	21.445273	0.000919	20.790174
75.022626	-3.019300	3.875000	-11.699000	21.455273	0.000918	20.794016
76.024994	-2.986300	3.876300	-11.574000	21.456319	0.000916	20.818296
77.020760	-2.992800	3.875700	-11.599000	21.458640	0.000918	20.786479
78.024253	-2.993000	3.875400	-11.598000	21.473150	0.000915	20.797679
79.026467	-3.004600	3.875400	-11.642000	21.454252	0.000916	20.782563
80.027209	-3.003800	3.874300	-11.637000	21.464800	0.000917	20.801177
81.024914	-2.992000	3.874200	-11.591000	21.513829	0.000917	20.829373
82.023504	-3.005700	3.873700	-11.642000	21.475119	0.000916	20.781631
83.023898	-2.999900	3.873800	-11.620000	21.476745	0.000916	20.799379
84.021424	-3.004800	3.874400	-11.641000	21.493854	0.000916	20.800850
85.028847	-2.992800	3.873900	-11.593000	21.500708	0.000916	20.798226
86.024695	-2.989200	3.873300	-11.576000	21.501526	0.000917	20.800467
87.029264	-2.988400	3.874200	-11.576000	21.515104	0.000915	20.783707
88.027701	-2.981900	3.873300	-11.548000	21.520243	0.000916	20.776995
89.028162	-2.980300	3.873400	-11.543000	21.518543	0.000916	20.803744
90.031086	-2.994300	3.872700	-11.595000	21.537620	0.000917	20.773995
91.028380	-3.002800	3.872400	-11.627000	21.541664	0.000918	20.790370
92.031679	-3.028300	3.872900	-11.728000	21.541534	0.000918	20.780756
93.030692	-3.015300	3.871200	-11.671000	21.545725	0.000917	20.767406
94.029737	-2.990400	3.872000	-11.577000	21.578771	0.000919	20.793362
95.027533	-2.993500	3.871800	-11.589000	21.555308	0.000917	20.785056
96.031540	-2.997800	3.871100	-11.602000	21.558739	0.000918	20.787542
97.026722	-3.000400	3.870900	-11.613000	21.556746	0.000916	20.768477
98.031568	-3.005800	3.869900	-11.630000	21.565528	0.000918	20.792438
99.031174	-2.977400	3.871900	-11.527000	21.598949	0.000918	20.768984
100.033049	-3.004000	3.869300	-11.622000	21.596384	0.000918	20.783486
101.037402	-2.987900	3.870800	-11.563000	21.616456	0.000917	20.775597
102.038114	-3.012200	3.869800	-11.656000	21.592422	0.000917	20.799910
103.037786	-3.003700	3.869600	-11.622000	21.609577	0.000918	20.760179
104.030731	-2.986200	3.870700	-11.556000	21.636332	0.000917	20.769883
105.034954	-2.994300	3.869100	-11.584000	21.621276	0.000917	20.777575
106.036139	-2.986800	3.868400	-11.553000	21.638006	0.000917	20.766343
107.055957	-2.989100	3.869800	-11.566000	21.637115	0.000918	20.765451
108.042147	-2.970100	3.869000	-11.491000	21.638929	0.000918	20.767267
109.042300	-2.993100	3.867300	-11.575000	21.655186	0.000917	20.764095
110.038194	-3.007100	3.868200	-11.631000	21.651052	0.000920	20.784614
111.034346	-2.983300	3.868700	-11.541000	21.650357	0.000916	20.757840
112.040028	-2.998200	3.866800	-11.592000	21.638618	0.000917	20.768852
113.036730	-3.019900	3.867500	-11.678000	21.654221	0.000918	20.779725
114.041805	-2.981800	3.867400	-11.530000	21.659367	0.000918	20.759270
115.046218	-2.992700	3.867100	-11.572000	21.681211	0.000920	20.754578
116.039828	-2.994500	3.866400	-11.577000	21.662505	0.000920	20.752452
117.045248	-3.000300	3.866100	-11.597000	21.676286	0.000919	20.774780
118.042459	-2.994500	3.866000	-11.575000	21.684250	0.000920	20.772318
119.040814	-2.999500	3.866300	-11.596000	21.693947	0.000920	20.761159
120.036784	-2.991100	3.866700	-11.564000	21.691128	0.000922	20.769719
121.038774	-3.000200	3.865700	-11.597000	21.708005	0.000920	20.762427
122.037067	-2.986400	3.866500	-11.544000	21.714287	0.000920	20.770136
123.040379	-2.998500	3.864400	-11.586000	21.705040	0.000922	20.757088
124.037932	-2.982700	3.865400	-11.528000	21.702499	0.000923	20.746010
125.037974	-2.998500	3.863500	-11.584000	21.733965	0.000922	20.749052
126.038424	-3.004800	3.864200	-11.611000	21.718256	0.000922	20.764152
127.039727	-2.997900	3.865000	-11.586000	21.738474	0.000922	20.747401
128.043167	-3.011700	3.863500	-11.635000	21.767520	0.000922	20.743754
129.039400	-3.012000	3.863200	-11.634000	21.751314	0.000922	20.741760
130.044438	-3.006100	3.864500	-11.616000	21.768068	0.000919	20.761847
131.041592	-3.005500	3.863200	-11.610000	21.785032	0.000922	20.759385
132.045114	-3.022100	3.862700	-11.672000	21.789664	0.000922	20.753115
133.047668	-3.008600	3.863700	-11.623000	21.799564	0.000921	20.737418
134.056621	-3.009200	3.862000	-11.621000	21.791289	0.000924	20.749526
135.044352	-3.008900	3.862800	-11.622000	21.776620	0.000924	20.742430
136.043933	-2.985200	3.863400	-11.532000	21.772788	0.000922	20.753769
137.043965	-3.000500	3.864200	-11.593000	21.782018	0.000923	20.763955
138.050395	-3.004600	3.863000	-11.605000	21.801189	0.000921	20.737622
139.047239	-3.019100	3.861000	-11.655000	21.811145	0.000925	20.749959
140.041291	-3.012300	3.861800	-11.632000	21.817794	0.000923	20.740018
141.045992	-2.998400	3.862700	-11.581000	21.801736	0.000926	20.744809
142.047301	-2.989400	3.862200	-11.545000	21.811790	0.000924	20.727844
143.043252	-2.979400	3.861800	-11.504000	21.836604	0.000925	20.712376
144.052037	-2.999000	3.861900	-11.581000	21.832038	0.000925	20.746689
145.040261	-3.003000	3.860800	-11.593000	21.805386	0.000924	20.720960
146.056905	-2.993300	3.861700	-11.559000	21.806979	0.000925	20.732987
147.054547	-3.016400	3.860900	-11.645000	21.821142	0.000926	20.732937
148.044475	-2.999200	3.862000	-11.582000	21.839839	0.000927	20.746435
149.048281	-3.008600	3.860500	-11.614000	21.843057	0.000928	20.761985
150.052403	-3.007300	3.859600	-11.606000	21.870989	0.000928	20.742527
151.048728	-3.000300	3.860000	-11.579000	21.858844	0.000927	20.728948
152.063341	-3.013700	3.858100	-11.625000	21.858623	0.000926	20.744375
153.056738	-3.007700	3.858500	-11.604000	21.859710	0.000927	20.750678
154.053990	-3.005800	3.858000	-11.595000	21.849745	0.000929	20.745446
155.061417	-3.011100	3.859000	-11.618000	21.895663	0.000927	20.731188
156.055053	-2.982100	3.858500	-11.505000	21.868898	0.000927	20.748969
157.059455	-2.982600	3.859200	-11.510000	21.877540	0.000929	20.750032
158.052714	-3.028200	3.857000	-11.678000	21.874379	0.000928	20.746394
159.053774	-3.004400	3.859000	-11.593000	21.899257	0.000929	20.761813
160.055103	-2.994300	3.858200	-11.551000	21.903569	0.000929	20.743844
161.062546	-3.014200	3.858500	-11.630000	21.913639	0.000932	20.770520
162.051623	-2.979300	3.860100	-11.499000	21.894618	0.000930	20.725400
163.058470	-3.011900	3.856600	-11.615000	21.921267	0.000928	20.747809
164.059799	-2.974200	3.858500	-11.475000	21.924379	0.000931	20.729112
165.057989	-2.954900	3.859400	-11.402000	21.938067	0.000930	20.724321
166.057421	-2.978700	3.858500	-11.491000	21.933608	0.000930	20.735979
167.060827	-2.993900	3.855900	-11.543000	21.950432	0.000932	20.730534
168.060442	-2.972900	3.857300	-11.466000	21.933951	0.000931	20.726839
169.057341	-2.998200	3.855800	-11.559000	21.966488	0.000930	20.742814
170.052538	-2.980800	3.857400	-11.498000	21.973062	0.000930	20.730903
171.056279	-2.999000	3.855900	-11.561000	21.978126	0.000932	20.721272
172.052774	-3.004900	3.856100	-11.585000	21.984806	0.000932	20.725114
173.054944	-2.994000	3.855100	-11.541000	21.993103	0.000936	20.731050
174.053543	-2.996500	3.855800	-11.553000	21.983834	0.000934	20.734573
175.053432	-2.994900	3.855000	-11.544000	21.981613	0.000933	20.711960
176.053552	-3.017900	3.853300	-11.627000	21.992107	0.000932	20.719146
177.056542	-3.018000	3.854700	-11.633000	22.014573	0.000935	20.750646
178.055887	-2.997700	3.854200	-11.553000	22.015814	0.000934	20.722490
179.056234	-3.022600	3.853700	-11.646000	22.035038	0.000936	20.739364
180.056650	-3.025600	3.853900	-11.660000	22.030652	0.000935	20.732129
181.062788	-3.010600	3.852900	-11.599000	22.022829	0.000935	20.744212
182.058885	-2.994300	3.853700	-11.538000	22.045858	0.000937	20.745455
183.062540	-3.000100	3.854400	-11.563000	22.034172	0.000935	20.721427
184.061666	-2.991300	3.854500	-11.529000	22.053959	0.000935	20.722743
185.058687	-3.007000	3.852900	-11.585000	22.058229	0.000936	20.706629
186.055949	-2.992800	3.853000	-11.530000	22.079641	0.000936	20.738023
187.056870	-2.999100	3.853300	-11.555000	22.055159	0.000938	20.718255
188.060424	-3.008000	3.852200	-11.585000	22.093172	0.000937	20.728335
189.058777	-3.023600	3.851000	-11.643000	22.102399	0.000939	20.723822
190.063416	-2.988900	3.853600	-11.516000	22.113341	0.000941	20.721500
191.058589	-3.001500	3.853700	-11.567000	22.120396	0.000940	20.728090
192.059221	-3.005600	3.852400	-11.578000	22.123066	0.000939	20.717012
193.059347	-3.032500	3.850400	-11.675000	22.138573	0.000940	20.728269
194.058672	-3.001500	3.850700	-11.557000	22.125189	0.000943	20.721034
195.063618	-2.986100	3.851900	-11.501000	22.122372	0.000942	20.701617
196.057750	-3.004100	3.851000	-11.567000	22.133461	0.000942	20.702761
197.058806	-2.976200	3.852300	-11.464000	22.115015	0.000945	20.709425
198.067129	-3.006400	3.849700	-11.573000	22.128921	0.000942	20.704855
199.059691	-3.033600	3.848600	-11.674000	22.137201	0.000946	20.714093
200.062129	-2.991300	3.850100	-11.516000	22.145995	0.000945	20.723372
201.059874	-2.993500	3.851400	-11.527000	22.157165	0.000944	20.723650
202.060889	-2.987700	3.850400	-11.502000	22.143154	0.000943	20.704405
203.062334	-3.001600	3.847900	-11.548000	22.166539	0.000947	20.692256
204.060060	-2.978400	3.849900	-11.466000	22.187475	0.000945	20.715589
205.061624	-2.994300	3.848400	-11.522000	22.197118	0.000946	20.709122
206.064864	-2.984800	3.849500	-11.489000	22.225459	0.000945	20.726119
207.061400	-3.004200	3.847900	-11.559000	22.225508	0.000945	20.711469
208.063344	-2.996500	3.848500	-11.530000	22.243226	0.000947	20.734900
209.063499	-3.009500	3.848400	-11.580000	22.239894	0.000948	20.730142
210.064818	-2.996800	3.848300	-11.530000	22.261645	0.000948	20.723471
211.065835	-3.009200	3.847200	-11.576000	22.234285	0.000946	20.709351
212.064325	-3.006800	3.847000	-11.566000	22.208810	0.000948	20.714665
213.061850	-3.010000	3.846600	-11.576000	22.226953	0.000948	20.714338
214.067060	-2.987000	3.847600	-11.491000	22.233958	0.000948	20.715663
215.070973	-3.033900	3.846900	-11.669000	22.218731	0.000949	20.693776
216.064411	-2.980200	3.847900	-11.464000	22.252231	0.000950	20.709776
217.066349	-3.004500	3.846500	-11.556000	22.266185	0.000949	20.701936
218.066320	-2.991000	3.848200	-11.509000	22.287396	0.000952	20.699941
219.067102	-2.998100	3.848100	-11.534000	22.290580	0.000951	20.714510
220.067121	-2.990100	3.847900	-11.505000	22.290335	0.000953	20.703358
221.066079	-3.007600	3.845400	-11.565000	22.295225	0.000952	20.708255
222.067264	-3.002200	3.846600	-11.547000	22.297895	0.000951	20.713774
223.072120	-2.973800	3.846600	-11.439000	22.330683	0.000953	20.725269
224.066660	-2.996400	3.844600	-11.519000	22.338014	0.000954	20.707479
225.069399	-2.991600	3.845200	-11.502000	22.347232	0.000955	20.693474
226.067382	-2.992200	3.844500	-11.503000	22.346840	0.000955	20.700668
227.069461	-2.983500	3.844000	-11.467000	22.354089	0.000955	20.707928
228.067192	-3.008700	3.842800	-11.561000	22.378508	0.000955	20.704405
229.070058	-2.996100	3.844500	-11.518000	22.377267	0.000957	20.713120
230.068332	-3.005000	3.842700	-11.546000	22.391913	0.000956	20.707872
231.073132	-3.018600	3.842600	-11.598000	22.371136	0.000957	20.688012
232.068768	-3.000900	3.843400	-11.532000	22.386010	0.000957	20.694847
233.068264	-3.008700	3.842500	-11.561000	22.372450	0.000956	20.707823
234.067627	-2.998200	3.843400	-11.522000	22.396027	0.000960	20.697292
235.072520	-3.006500	3.842600	-11.552000	22.379438	0.000959	20.706285
236.073422	-3.014800	3.841300	-11.579000	22.377014	0.000961	20.706702
237.069090	-2.987600	3.843400	-11.481000	22.363503	0.000959	20.719252
238.070636	-2.984900	3.841900	-11.467000	22.362058	0.000959	20.690302
239.071566	-3.007900	3.841400	-11.554000	22.347852	0.000961	20.711641
240.071259	-2.993700	3.840100	-11.495000	22.355976	0.000962	20.688479
241.071811	-3.015500	3.840900	-11.581000	22.363331	0.000962	20.689206
242.075458	-2.982700	3.842100	-11.458000	22.360931	0.000961	20.703874
243.073009	-2.994400	3.841500	-11.502000	22.360343	0.000964	20.703285
244.072322	-3.010900	3.841000	-11.564000	22.352286	0.000963	20.694267
245.073921	-2.991300	3.841100	-11.490000	22.377929	0.000963	20.703351
246.076690	-3.012900	3.840000	-11.568000	22.390036	0.000965	20.699827
247.077086	-3.017900	3.840100	-11.587000	22.385423	0.000965	20.704218
248.073602	-3.014700	3.841200	-11.578000	22.410013	0.000966	20.704185
249.075883	-3.013500	3.839500	-11.567000	22.417890	0.000965	20.676036
250.076310	-3.021800	3.838800	-11.599000	22.418911	0.000965	20.693655
251.077615	-2.986900	3.839900	-11.468000	22.424764	0.000968	20.707104
252.078746	-3.036900	3.838600	-11.655000	22.437899	0.000968	20.695127
253.073413	-2.988000	3.840100	-11.473000	22.411678	0.000968	20.665547
254.076915	-3.004200	3.839500	-11.533000	22.435907	0.000967	20.683174
255.074677	-3.008300	3.837700	-11.544000	22.428144	0.000969	20.672080
256.078418	-3.007000	3.838300	-11.540000	22.434422	0.000968	20.673625
257.079765	-3.000200	3.838600	-11.515000	22.436022	0.000968	20.688979
258.075520	-3.003700	3.838100	-11.528000	22.450692	0.000969	20.702723
259.077973	-3.009900	3.838000	-11.551000	22.456920	0.000968	20.695684
260.075448	-3.019700	3.836400	-11.583000	22.461157	0.000969	20.695185
261.077363	-3.007700	3.835600	-11.535000	22.451859	0.000968	20.710057
262.078053	-3.002900	3.837200	-11.521000	22.468080	0.000971	20.683150
263.081803	-3.004400	3.836200	-11.524000	22.464896	0.000970	20.681858
264.077415	-2.990000	3.837900	-11.474000	22.452406	0.000971	20.684524
265.081665	-3.001000	3.835500	-11.510000	22.445297	0.000972	20.680723
266.078943	-2.994800	3.836300	-11.488000	22.454480	0.000971	20.683755
267.074514	-2.989200	3.836700	-11.467000	22.451786	0.000974	20.684851
268.080828	-3.002800	3.835100	-11.515000	22.457239	0.000974	20.669922
269.081585	-3.006800	3.833800	-11.526000	22.460700	0.000975	20.679553
270.078707	-2.992000	3.835300	-11.474000	22.485320	0.000975	20.704686
271.079018	-2.983100	3.836500	-11.442000	22.467680	0.000974	20.682750
272.078316	-3.000100	3.835400	-11.506000	22.493092	0.000976	20.686863
273.078229	-2.987100	3.835600	-11.456000	22.495010	0.000976	20.669816
274.085577	-3.005800	3.833700	-11.522000	22.541832	0.000977	20.666447
275.080859	-3.003500	3.834300	-11.516000	22.529743	0.000976	20.693224
276.081236	-3.019800	3.833700	-11.576000	22.531857	0.000980	20.677322
277.081442	-2.993000	3.832800	-11.470000	22.527759	0.000976	20.700246
278.080276	-3.008500	3.832500	-11.527000	22.546011	0.000979	20.690076
279.086265	-3.009300	3.833300	-11.535000	22.558100	0.000979	20.690803
280.079813	-3.007000	3.833500	-11.526000	22.589819	0.000979	20.675155
281.084184	-3.018400	3.832200	-11.566000	22.613310	0.000979	20.674501
282.083746	-2.999000	3.833100	-11.493000	22.599777	0.000979	20.668533
283.085074	-3.024000	3.831800	-11.586000	22.594717	0.000980	20.671525
284.082223	-3.006900	3.832600	-11.522000	22.581209	0.000982	20.674117
285.086186	-3.000400	3.831800	-11.495000	22.589958	0.000982	20.671975
286.088855	-3.005500	3.832600	-11.518000	22.585641	0.000982	20.662908
287.087339	-2.985800	3.832800	-11.443000	22.577087	0.000984	20.675680
288.084400	-2.996500	3.831200	-11.479000	22.590343	0.000981	20.660979
289.086866	-3.004100	3.830900	-11.508000	22.569758	0.000983	20.670235
290.086879	-3.010500	3.830900	-11.532000	22.566542	0.000984	20.684085
291.086060	-2.990700	3.830000	-11.453000	22.586442	0.000986	20.679360
292.094830	-3.012400	3.829800	-11.535000	22.590678	0.000984	20.676490
293.087643	-3.009900	3.829100	-11.523000	22.614471	0.000985	20.665232
294.086376	-3.011400	3.829500	-11.531000	22.617613	0.000989	20.671699
295.085208	-2.995100	3.828800	-11.467000	22.643152	0.000986	20.674519
296.086884	-3.003600	3.829000	-11.498000	22.646564	0.000986	20.652330
297.087990	-3.040300	3.827300	-11.635000	22.646588	0.000988	20.650932
298.087000	-3.007100	3.829600	-11.514000	22.656946	0.000988	20.675534
299.086414	-3.009800	3.828900	-11.523000	22.634746	0.000990	20.660408
300.088104	-3.037600	3.826300	-11.622000	22.654930	0.000990	20.675411
301.089015	-3.016400	3.828700	-11.548000	22.635293	0.000988	20.666173
302.088201	-3.022700	3.826100	-11.564000	22.660113	0.000988	20.672067
303.088283	-2.988200	3.829000	-11.441000	22.655151	0.000989	20.659509
304.087967	-3.019200	3.828600	-11.558000	22.673409	0.000991	20.657882
305.087572	-3.019400	3.825600	-11.549000	22.677424	0.000990	20.672337
306.091481	-2.980800	3.827200	-11.407000	22.706716	0.000991	20.673229
307.089942	-3.003700	3.826300	-11.493000	22.695037	0.000991	20.662003
308.089798	-3.000500	3.826300	-11.480000	22.710275	0.000992	20.660197
309.090613	-2.977700	3.826600	-11.393000	22.715342	0.000991	20.656737
310.089142	-2.998800	3.826800	-11.475000	22.721015	0.000994	20.647246
311.091777	-2.999300	3.826400	-11.475000	22.728768	0.000993	20.664022
312.094844	-3.001200	3.824700	-11.478000	22.725741	0.000995	20.668577
313.087811	-3.003000	3.826000	-11.489000	22.707508	0.000996	20.669280
314.088556	-3.023300	3.825300	-11.564000	22.732515	0.000996	20.676312
315.089350	-3.018900	3.824000	-11.543000	22.750583	0.000997	20.670703
316.089334	-3.007900	3.824400	-11.502000	22.723465	0.000996	20.653493
317.097679	-3.010600	3.824500	-11.513000	22.727178	0.000997	20.671914
318.088938	-2.994400	3.825200	-11.454000	22.737861	0.000997	20.669813
319.093225	-3.010100	3.824400	-11.510000	22.727676	0.000996	20.668145
320.092720	-2.990700	3.824700	-11.437000	22.711476	0.001000	20.655709
321.090868	-3.009600	3.822700	-11.503000	22.722829	0.000999	20.657124
322.092583	-3.008900	3.822600	-11.501000	22.731178	0.001000	20.673075
323.095408	-3.012600	3.821800	-11.513000	22.731268	0.000999	20.675063
324.094037	-3.006600	3.823200	-11.493000	22.725792	0.001001	20.667680
325.092428	-3.028600	3.822500	-11.576000	22.722225	0.001002	20.644664
326.090334	-3.007200	3.822200	-11.493000	22.723662	0.001002	20.657959
327.091248	-2.998100	3.822900	-11.459000	22.745738	0.001001	20.678652
328.092802	-3.030400	3.821300	-11.580000	22.734395	0.001002	20.666814
329.090346	-3.033800	3.821600	-11.592000	22.792983	0.001003	20.674770
330.099348	-3.000400	3.821400	-11.464000	22.777306	0.001004	20.675187
331.093421	-2.997200	3.822300	-11.453000	22.777461	0.001002	20.665858
332.093408	-2.996200	3.821500	-11.448000	22.788487	0.001002	20.670266
333.098496	-2.978700	3.820400	-11.378000	22.841229	0.001005	20.667624
334.095943	-3.005400	3.820400	-11.480000	22.845954	0.001004	20.675204
335.098895	-2.997000	3.820700	-11.450000	22.867351	0.001005	20.667715
336.096490	-2.985300	3.821000	-11.406000	22.875291	0.001005	20.670454
337.093945	-2.995400	3.819700	-11.441000	22.879975	0.001007	20.664715
338.094213	-3.015600	3.820300	-11.519000	22.886071	0.001007	20.674142
339.100842	-2.995500	3.818700	-11.438000	22.879274	0.001009	20.672074
340.096384	-2.997300	3.819400	-11.446000	22.899894	0.001006	20.666653
341.101361	-2.994700	3.818200	-11.434000	22.908708	0.001006	20.684493
342.104131	-3.011900	3.818800	-11.501000	22.890642	0.001007	20.659279
343.099851	-3.019400	3.817300	-11.525000	22.884889	0.001009	20.666793
344.104646	-2.963000	3.819100	-11.315000	22.899178	0.001011	20.675419
345.100397	-3.012200	3.816900	-11.496000	22.894241	0.001010	20.692761
346.107023	-3.005700	3.816400	-11.469000	22.928717	0.001011	20.677513
347.100415	-2.967500	3.817600	-11.327000	22.920492	0.001010	20.678281
348.102820	-2.974100	3.818600	-11.356000	22.934869	0.001009	20.687945
349.101394	-2.994400	3.817100	-11.428000	22.958280	0.001010	20.679630
350.103254	-3.000100	3.817200	-11.450000	22.948211	0.001010	20.683294
351.107070	-2.992700	3.815600	-11.417000	22.939864	0.001012	20.680146
352.104451	-3.014000	3.816700	-11.502000	22.949704	0.001012	20.669615
353.102234	-2.984400	3.815400	-11.385000	22.938714	0.001012	20.690849
354.101062	-2.995800	3.815900	-11.431000	22.917238	0.001015	20.667433
355.104339	-3.007500	3.814500	-11.471000	22.912782	0.001014	20.672927
356.104894	-2.998400	3.814600	-11.436000	22.898934	0.001016	20.698411
357.101545	-2.984900	3.814400	-11.385000	22.902836	0.001014	20.671497
358.101147	-3.000500	3.813100	-11.440000	22.908613	0.001017	20.683450
359.108378	-3.007200	3.814300	-11.469000	22.938755	0.001017	20.688519
360.105243	-3.000900	3.814400	-11.446000	22.938584	0.001017	20.683131
361.102632	-3.009900	3.813300	-11.476000	22.956739	0.001016	20.698003
362.103404	-3.018000	3.811800	-11.503000	22.952847	0.001016	20.682723
363.103123	-2.989000	3.813500	-11.397000	22.942492	0.001018	20.689418
364.104048	-2.986900	3.814400	-11.393000	22.953720	0.001018	20.681701
365.106778	-3.007500	3.812100	-11.463000	22.942966	0.001018	20.689418
366.106352	-3.016400	3.811300	-11.496000	23.000025	0.001020	20.687318
367.105302	-3.023000	3.810500	-11.518000	22.987900	0.001018	20.700774
368.106561	-2.997100	3.812700	-11.424000	22.995268	0.001019	20.692035
369.107966	-3.020800	3.811900	-11.514000	23.019958	0.001018	20.700652
370.110595	-2.980700	3.812200	-11.362000	23.014516	0.001019	20.674335
371.112153	-2.976700	3.812600	-11.347000	23.013749	0.001021	20.688266
372.110673	-2.975600	3.811500	-11.341000	22.995970	0.001018	20.685625
373.109395	-2.986300	3.812400	-11.383000	22.999454	0.001021	20.692910
374.107395	-2.983300	3.810400	-11.366000	22.999552	0.001020	20.695853
375.109436	-2.991700	3.810800	-11.400000	22.992029	0.001022	20.697799
376.115359	-3.018500	3.810400	-11.501000	23.013178	0.001021	20.687693
377.110061	-3.028800	3.808700	-11.535000	23.030606	0.001022	20.702786
378.115640	-3.022400	3.808200	-11.508000	23.027595	0.001023	20.709727
379.112955	-3.005900	3.809800	-11.451000	23.018906	0.001023	20.684423
380.111568	-3.010700	3.809200	-11.467000	22.998483	0.001021	20.689092
381.110651	-3.010800	3.808500	-11.465000	23.032622	0.001024	20.697219
382.116124	-2.999600	3.808600	-11.423000	23.003909	0.001024	20.687890
383.110925	-2.973900	3.809600	-11.328000	23.048645	0.001025	20.691937
384.113178	-3.006800	3.808100	-11.448000	23.056070	0.001024	20.710283
385.113634	-3.013400	3.807200	-11.471000	23.046850	0.001025	20.703416
386.110291	-2.987800	3.808500	-11.378000	23.084119	0.001024	20.694765
387.116195	-3.008100	3.807500	-11.452000	23.108244	0.001024	20.694757
388.111660	-3.006500	3.806600	-11.442000	23.082569	0.001026	20.701273
389.111384	-3.000500	3.807500	-11.424000	23.098038	0.001027	20.716300
390.114918	-2.993600	3.807000	-11.396000	23.102647	0.001028	20.688674
391.114645	-2.991000	3.807100	-11.386000	23.117667	0.001028	20.689974
392.112206	-2.992500	3.806800	-11.391000	23.104915	0.001027	20.711811
393.115698	-2.974700	3.807400	-11.325000	23.100085	0.001026	20.682313
394.116577	-2.989900	3.807200	-11.382000	23.106808	0.001027	20.697586
395.114155	-2.977700	3.805900	-11.331000	23.105690	0.001027	20.710217
396.113162	-3.007400	3.806100	-11.445000	23.141603	0.001028	20.695468
397.115669	-2.992300	3.805400	-11.385000	23.144018	0.001029	20.721597
398.116902	-3.010700	3.805600	-11.456000	23.128101	0.001031	20.711811
399.117487	-3.013800	3.803700	-11.462000	23.103601	0.001032	20.723298
400.120874	-3.007900	3.804000	-11.441000	23.122105	0.001029	20.693473
401.115430	-3.000500	3.803500	-11.411000	23.094096	0.001029	20.703814
402.123112	-2.993800	3.804200	-11.388000	23.136349	0.001030	20.712489
403.124707	-3.001700	3.803400	-11.415000	23.123475	0.001032	20.709546
404.119959	-2.999500	3.802400	-11.404000	23.119991	0.001032	20.702736
405.119789	-3.006100	3.802600	-11.429000	23.176552	0.001031	20.716266
406.119668	-2.978700	3.803700	-11.329000	23.143911	0.001033	20.694461
407.119355	-3.004300	3.801500	-11.419000	23.182931	0.001034	20.713650
408.119183	-3.019000	3.801200	-11.475000	23.165399	0.001033	20.715048
409.118504	-2.993200	3.801100	-11.377000	23.176094	0.001034	20.720549
410.115633	-3.008400	3.800800	-11.433000	23.183233	0.001034	20.701149
411.121580	-2.985300	3.801300	-11.347000	23.198756	0.001034	20.706274
412.116978	-3.012400	3.800000	-11.446000	23.186903	0.001034	20.722372
413.117255	-3.014600	3.799300	-11.452000	23.206849	0.001036	20.701581
414.122560	-3.004800	3.801300	-11.421000	23.195893	0.001036	20.726640
415.118878	-3.010700	3.800500	-11.442000	23.164542	0.001037	20.714662
416.121334	-3.001100	3.799800	-11.403000	23.172838	0.001038	20.714915
417.119354	-3.011500	3.799600	-11.441000	23.168555	0.001037	20.715365
418.117243	-3.010300	3.798100	-11.433000	23.176273	0.001036	20.736376
419.114843	-3.002200	3.798200	-11.402000	23.188134	0.001038	20.715070
420.119605	-3.000000	3.799100	-11.396000	23.174363	0.001038	20.740627
421.119267	-2.988000	3.799400	-11.352000	23.197197	0.001038	20.715144
422.120644	-3.030800	3.796100	-11.504000	23.178818	0.001038	20.730392
423.119727	-3.003100	3.798500	-11.406000	23.185344	0.001038	20.709429
424.117098	-2.977900	3.797500	-11.309000	23.228506	0.001039	20.712380
425.120366	-3.014100	3.797600	-11.446000	23.226361	0.001039	20.719714
426.118808	-2.991300	3.796800	-11.356000	23.228506	0.001038	20.729451
427.120089	-2.988800	3.797100	-11.348000	23.230619	0.001039	20.723982
428.119468	-3.009600	3.795900	-11.423000	23.229754	0.001039	20.715528
429.122617	-3.003900	3.796000	-11.402000	23.236606	0.001040	20.727137
430.125468	-3.012500	3.794800	-11.431000	23.240987	0.001040	20.741959
431.126894	-2.971600	3.796900	-11.282000	23.238401	0.001039	20.741738
432.124086	-3.017300	3.794200	-11.447000	23.268747	0.001040	20.721414
433.124122	-3.005000	3.794700	-11.402000	23.296987	0.001039	20.734070
434.121445	-3.005400	3.794700	-11.403000	23.292158	0.001041	20.742981
435.123021	-2.995300	3.795500	-11.367000	23.289074	0.001041	20.723768
436.126138	-3.001900	3.794800	-11.390000	23.315372	0.001040	20.741116
437.123798	-2.973600	3.795100	-11.284000	23.303741	0.001041	20.743210
438.126954	-3.022200	3.793900	-11.465000	23.302949	0.001043	20.744787
439.122187	-3.013000	3.792300	-11.424000	23.324565	0.001042	20.736579
440.123247	-3.023100	3.791800	-11.462000	23.346099	0.001043	20.742989
441.129260	-2.992800	3.792900	-11.350000	23.361042	0.001042	20.720032
442.120613	-3.003500	3.792100	-11.389000	23.346776	0.001043	20.735606
443.129948	-2.998500	3.792700	-11.371000	23.375193	0.001044	20.745122
444.126677	-2.982100	3.792900	-11.310000	23.364736	0.001043	20.741279
445.125875	-2.988900	3.791600	-11.330000	23.355226	0.001045	20.735540
446.130270	-3.008300	3.790700	-11.402000	23.352853	0.001046	20.734584
447.128058	-3.004500	3.790000	-11.386000	23.347534	0.001042	20.760074
448.126163	-2.990500	3.789800	-11.333000	23.387444	0.001044	20.740805
449.124446	-3.001600	3.790700	-11.377000	23.369524	0.001047	20.747026
450.124598	-2.992500	3.791000	-11.344000	23.370144	0.001044	20.746225
451.125515	-2.990800	3.789500	-11.332000	23.340511	0.001046	20.747819
452.132576	-3.021500	3.788800	-11.447000	23.369629	0.001048	20.757089
453.127872	-3.011600	3.788800	-11.410000	23.368154	0.001046	20.735695
454.133442	-3.016500	3.788600	-11.427000	23.374206	0.001046	20.754089
455.125669	-2.998800	3.788700	-11.361000	23.392484	0.001048	20.762927
456.131174	-3.000600	3.789400	-11.369000	23.400722	0.001046	20.755536
457.132061	-2.999400	3.787400	-11.359000	23.380682	0.001047	20.744933
458.129962	-3.004400	3.787500	-11.378000	23.362053	0.001049	20.743805
459.129394	-3.024800	3.788100	-11.456000	23.372338	0.001050	20.742734
460.128265	-2.994500	3.787600	-11.341000	23.390959	0.001049	20.762347
461.132289	-3.000000	3.786800	-11.358000	23.404262	0.001049	20.751023
462.136279	-3.005300	3.786000	-11.377000	23.431724	0.001048	20.751996
463.135038	-2.990000	3.787400	-11.324000	23.453134	0.001048	20.761602
464.128152	-2.989300	3.785900	-11.316000	23.441682	0.001050	20.747753
465.131851	-2.986600	3.786100	-11.306000	23.468450	0.001049	20.747557
466.132505	-2.996600	3.785800	-11.344000	23.464266	0.001050	20.738147
467.133191	-2.995100	3.785200	-11.336000	23.458859	0.001050	20.752642
468.133750	-3.004800	3.786300	-11.376000	23.497802	0.001050	20.754694
469.131379	-3.010600	3.785300	-11.395000	23.502361	0.001050	20.738874
470.139619	-3.001200	3.784900	-11.359000	23.506415	0.001052	20.765224
471.137324	-3.008900	3.783900	-11.385000	23.507140	0.001050	20.749829
472.135945	-3.004700	3.783600	-11.367000	23.494050	0.001051	20.750933
473.139632	-2.994500	3.784900	-11.333000	23.518224	0.001050	20.752879
474.137348	-3.004800	3.783000	-11.366000	23.514064	0.001051	20.767202
475.135792	-3.002700	3.782500	-11.356000	23.523679	0.001051	20.758348
476.138895	-2.995700	3.783800	-11.333000	23.536573	0.001051	20.770799
477.137725	-3.002100	3.783000	-11.355000	23.552231	0.001050	20.752355
478.134276	-2.991000	3.782300	-11.311000	23.544337	0.001052	20.764357
479.138843	-3.004300	3.782200	-11.361000	23.516380	0.001053	20.809827
480.137270	-3.005300	3.781600	-11.363000	23.541499	0.001053	20.768624
481.137259	-3.008500	3.780600	-11.373000	23.539909	0.001053	20.776039
482.134576	-3.001200	3.781400	-11.348000	23.528745	0.001053	20.788556
483.137223	-3.020500	3.779300	-11.412000	23.549435	0.001052	20.775157
484.139943	-3.008500	3.780600	-11.372000	23.533205	0.001053	20.776432
485.139078	-3.001100	3.781000	-11.347000	23.563551	0.001051	20.766074
486.142372	-2.996900	3.780500	-11.328000	23.579739	0.001053	20.777560
487.135508	-2.977400	3.781500	-11.257000	23.569382	0.001053	20.764806
488.140539	-2.998900	3.779000	-11.332000	23.565867	0.001053	20.783095
489.141974	-2.986500	3.777800	-11.281000	23.573060	0.001054	20.775132
490.137728	-3.015100	3.778000	-11.390000	23.612146	0.001054	20.775435
491.137316	-3.007800	3.780100	-11.368000	23.603780	0.001056	20.772737
492.138402	-3.013700	3.777100	-11.381000	23.604358	0.001054	20.802715
493.137383	-2.972300	3.778100	-11.229000	23.614340	0.001053	20.766254
494.137173	-3.027800	3.777400	-11.436000	23.590088	0.001054	20.777503
495.142000	-3.028800	3.777700	-11.440000	23.622951	0.001055	20.786741
496.141346	-3.024100	3.775800	-11.418000	23.611200	0.001054	20.787763
497.140983	-3.008200	3.776100	-11.358000	23.632663	0.001055	20.785097
498.140338	-2.979500	3.777300	-11.254000	23.630543	0.001055	20.784869
499.139066	-3.001900	3.776200	-11.335000	23.626140	0.001055	20.783773
500.140811	-2.996900	3.775400	-11.314000	23.659973	0.001054	20.779285
501.140587	-3.002500	3.775400	-11.335000	23.670370	0.001056	20.787812
502.140516	-2.981000	3.775600	-11.252000	23.651925	0.001055	20.796347
503.141572	-2.999900	3.775700	-11.325000	23.643281	0.001055	20.776302
504.141263	-2.993100	3.775800	-11.300000	23.629304	0.001057	20.771772
505.141772	-2.993400	3.774100	-11.296000	23.664597	0.001057	20.788188
506.139904	-2.985100	3.775200	-11.268000	23.651476	0.001054	20.794474
507.141294	-2.973100	3.774500	-11.221000	23.659019	0.001055	20.795398
508.143359	-2.982100	3.774200	-11.254000	23.658644	0.001057	20.756141
509.141140	-2.994400	3.774600	-11.302000	23.677227	0.001056	20.791841
510.144266	-3.010800	3.772900	-11.358000	23.709771	0.001056	20.786062
511.148380	-2.990200	3.772900	-11.280000	23.701658	0.001058	20.796420
512.145210	-2.990600	3.772600	-11.281000	23.712911	0.001057	20.793003
513.147941	-2.988400	3.772900	-11.272000	23.726202	0.001058	20.794000
514.147253	-2.987200	3.772300	-11.268000	23.733572	0.001059	20.793804
515.145991	-2.978300	3.773600	-11.236000	23.725329	0.001057	20.791703
516.147318	-3.008700	3.770800	-11.344000	23.734486	0.001057	20.804203
517.147851	-3.012000	3.770300	-11.355000	23.740985	0.001057	20.792701
518.148974	-3.001300	3.770500	-11.315000	23.743374	0.001057	20.793674
519.150009	-3.007800	3.770900	-11.341000	23.732350	0.001057	20.781672
520.148701	-3.011900	3.771400	-11.358000	23.721668	0.001058	20.820749
521.148902	-2.997300	3.769500	-11.297000	23.688097	0.001056	20.812696
522.151507	-3.016600	3.768900	-11.369000	23.697426	0.001059	20.821575
523.150375	-3.022400	3.769500	-11.392000	23.703003	0.001055	20.798717
524.149461	-3.019900	3.768300	-11.378000	23.716743	0.001058	20.789259
525.146696	-3.014900	3.768800	-11.362000	23.721178	0.001060	20.802240
526.149026	-3.016700	3.766700	-11.362000	23.693748	0.001059	20.812672
527.157622	-3.002900	3.767800	-11.313000	23.712396	0.001059	20.826626
528.147524	-2.995500	3.767400	-11.283000	23.724114	0.001059	20.820830
529.152151	-2.990400	3.767900	-11.267000	23.747189	0.001058	20.804137
530.151719	-2.976000	3.767100	-11.210000	23.753239	0.001058	20.804987
531.151677	-2.983400	3.766600	-11.237000	23.746814	0.001060	20.823675
532.151424	-2.982000	3.766600	-11.230000	23.734469	0.001060	20.807031
533.153998	-3.011500	3.766200	-11.341000	23.758400	0.001057	20.825808
534.156188	-3.004500	3.765100	-11.310000	23.779559	0.001058	20.805771
535.154138	-3.006900	3.765600	-11.323000	23.782682	0.001059	20.814593
536.152601	-3.020900	3.765100	-11.372000	23.791643	0.001058	20.803189
537.155318	-3.002500	3.764600	-11.302000	23.795336	0.001056	20.813529
538.159854	-2.998000	3.765200	-11.287000	23.771788	0.001059	20.837335
539.154322	-3.015900	3.764800	-11.353000	23.782396	0.001060	20.815254
540.153826	-3.005200	3.763800	-11.310000	23.801353	0.001057	20.810554
541.153486	-2.984700	3.764200	-11.234000	23.782714	0.001059	20.827901
542.155863	-3.009500	3.763000	-11.323000	23.798499	0.001057	20.808167
543.155627	-3.009900	3.764100	-11.328000	23.773582	0.001059	20.819693
544.157238	-2.999700	3.763600	-11.288000	23.757356	0.001058	20.832348
545.153240	-2.998400	3.762500	-11.280000	23.764849	0.001059	20.828007
546.156208	-2.978500	3.763000	-11.206000	23.817765	0.001058	20.813734
547.155843	-2.989400	3.762800	-11.248000	23.800545	0.001062	20.829184
548.153996	-2.999300	3.761500	-11.280000	23.825812	0.001060	20.848353
549.158520	-3.005700	3.761400	-11.305000	23.851193	0.001059	20.832078
550.154259	-2.976600	3.762800	-11.199000	23.853305	0.001058	20.831825
551.156819	-2.990600	3.761100	-11.247000	23.873996	0.001059	20.853520
552.154648	-2.979700	3.761600	-11.207000	23.876613	0.001061	20.823428
553.154306	-3.001800	3.760300	-11.287000	23.899196	0.001060	20.839908
554.156572	-2.973400	3.762100	-11.185000	23.898120	0.001061	20.825553
555.154254	-3.003600	3.760200	-11.292000	23.893742	0.001059	20.839655
556.158031	-3.014100	3.758200	-11.327000	23.861465	0.001059	20.837635
557.158955	-2.964000	3.760700	-11.146000	23.856817	0.001057	20.818277
558.158903	-3.008200	3.758900	-11.306000	23.861994	0.001061	20.834847
559.159390	-3.006900	3.758000	-11.298000	23.872593	0.001058	20.821294
560.160064	-2.996800	3.759300	-11.265000	23.862214	0.001059	20.811361
561.159723	-2.993400	3.758300	-11.249000	23.855080	0.001060	20.832182
562.159359	-3.007700	3.757200	-11.299000	23.860184	0.001058	20.815489
563.156456	-3.013200	3.756300	-11.317000	23.878951	0.001061	20.818661
564.160338	-3.003000	3.756800	-11.281000	23.895085	0.001059	20.829149
565.159307	-3.003100	3.755200	-11.276000	23.923228	0.001061	20.815644
566.158596	-3.000900	3.755600	-11.269000	23.927288	0.001060	20.812603
567.164059	-3.000500	3.755600	-11.268000	23.915051	0.001059	20.815978
568.160945	-3.001000	3.755800	-11.269000	23.919779	0.001058	20.806970
569.158581	-2.995900	3.755500	-11.250000	23.909653	0.001060	20.806299
570.161236	-3.007500	3.756100	-11.295000	23.928290	0.001061	20.816453
571.157332	-3.002300	3.754500	-11.271000	23.930931	0.001062	20.830006
572.156458	-2.984900	3.755200	-11.207000	23.901639	0.001060	20.816281
573.159541	-2.988400	3.756400	-11.224000	23.895867	0.001062	20.810991
574.158400	-2.997600	3.753700	-11.250000	23.851337	0.001059	20.817049
575.160662	-3.015700	3.753200	-11.317000	23.838275	0.001063	20.790677
576.162935	-2.989000	3.753600	-11.218000	23.849583	0.001060	20.792532
577.162457	-2.981400	3.752900	-11.187000	23.845116	0.001060	20.801803
578.160338	-2.975100	3.753400	-11.165000	23.853204	0.001058	20.795214
579.163732	-2.977500	3.752800	-11.172000	23.846167	0.001061	20.820401
580.164094	-3.005700	3.751900	-11.276000	23.885881	0.001058	20.797634
581.163690	-3.005000	3.751400	-11.271000	23.903783	0.001059	20.798042
582.166326	-3.003300	3.751800	-11.267000	23.886280	0.001059	20.783923
583.163361	-3.004600	3.751800	-11.272000	23.869061	0.001059	20.778872
584.164618	-2.996000	3.751500	-11.238000	23.901941	0.001061	20.805203
585.165679	-3.013000	3.750600	-11.298000	23.884771	0.001059	20.806953
586.165277	-2.995400	3.751200	-11.235000	23.877801	0.001060	20.801860
587.171146	-3.001000	3.750200	-11.253000	23.891073	0.001060	20.808056
588.161187	-3.007600	3.750400	-11.278000	23.871514	0.001059	20.800298
589.165688	-3.005800	3.749700	-11.270000	23.868596	0.001059	20.778405
590.164855	-3.021300	3.747700	-11.322000	23.894709	0.001059	20.789417
591.166858	-2.987000	3.749700	-11.199000	23.872460	0.001057	20.801720
592.168006	-2.975200	3.748900	-11.152000	23.861836	0.001061	20.773050
593.164558	-2.996900	3.747900	-11.231000	23.904688	0.001058	20.789466
594.165141	-2.991800	3.746900	-11.209000	23.899168	0.001058	20.785353
595.162339	-2.983700	3.747900	-11.182000	23.879430	0.001061	20.789269
596.164154	-2.981900	3.747900	-11.175000	23.885056	0.001058	20.762667
597.164427	-2.987500	3.748300	-11.196000	23.859448	0.001059	20.812380
598.166848	-3.004100	3.747400	-11.257000	23.850373	0.001059	20.794746
599.165853	-2.984300	3.746200	-11.178000	23.871603	0.001060	20.786162
600.167234	-2.997900	3.746400	-11.231000	23.905526	0.001058	20.797419
601.168146	-3.005700	3.746400	-11.260000	23.922296	0.001058	20.790528
602.167087	-3.003600	3.745400	-11.249000	23.959675	0.001059	20.775379
603.169555	-3.021500	3.745000	-11.315000	23.963742	0.001059	20.781829
604.167332	-3.001100	3.745100	-11.238000	23.971552	0.001058	20.765479
605.169486	-3.002600	3.744300	-11.242000	23.989968	0.001057	20.792481
606.170460	-3.002600	3.743900	-11.241000	23.993897	0.001061	20.770817
607.166008	-2.988900	3.744600	-11.191000	24.013266	0.001059	20.779335
608.166852	-3.019600	3.743700	-11.303000	24.019877	0.001059	20.780750
609.168948	-2.992700	3.743000	-11.200000	24.024458	0.001059	20.770171
610.173963	-3.021800	3.741700	-11.305000	24.050161	0.001061	20.785516
611.169779	-3.021600	3.742500	-11.307000	24.040085	0.001061	20.782998
612.171883	-2.992400	3.743300	-11.201000	24.036661	0.001059	20.783357
613.174319	-2.998200	3.741500	-11.216000	24.046589	0.001057	20.750166
614.174678	-3.001400	3.743000	-11.232000	24.052312	0.001059	20.744525
615.170307	-3.007800	3.741000	-11.251000	24.024662	0.001059	20.757099
616.176406	-3.009500	3.741100	-11.258000	24.019640	0.001059	20.769607
617.175693	-3.007300	3.741500	-11.250000	24.019990	0.001057	20.769484
618.175450	-3.012500	3.740400	-11.266000	24.035137	0.001060	20.760017
619.174168	-3.018300	3.740400	-11.289000	24.034647	0.001060	20.767587
620.176596	-2.984100	3.740800	-11.162000	24.030458	0.001060	20.763860
621.178969	-2.988100	3.740200	-11.174000	24.029495	0.001057	20.773800
622.176888	-2.980500	3.740800	-11.149000	24.009785	0.001060	20.756878
623.174294	-2.984400	3.740300	-11.161000	24.001421	0.001059	20.750387
624.176958	-2.992200	3.740300	-11.191000	24.020423	0.001058	20.753322
625.179578	-3.003300	3.739900	-11.231000	24.023317	0.001060	20.751008
626.174363	-3.007900	3.738600	-11.244000	24.031852	0.001059	20.754352
627.178476	-3.016600	3.738400	-11.276000	24.033099	0.001059	20.767931
628.187368	-2.994300	3.737600	-11.190000	24.054700	0.001058	20.743601
629.173695	-3.001400	3.738900	-11.222000	24.041918	0.001058	20.767767
630.183537	-2.990100	3.738400	-11.177000	24.082570	0.001058	20.762069
631.177547	-3.007500	3.736300	-11.236000	24.048432	0.001057	20.748220
632.176113	-3.008500	3.736400	-11.240000	24.063855	0.001058	20.764636
633.178102	-3.000200	3.736700	-11.210000	24.070148	0.001057	20.753878
634.179317	-3.004700	3.735600	-11.224000	24.081845	0.001059	20.758971
635.186597	-2.988800	3.736100	-11.166000	24.085056	0.001058	20.749389
636.183578	-3.006600	3.735300	-11.228000	24.077769	0.001060	20.759150
637.185248	-3.019100	3.732800	-11.269000	24.048855	0.001057	20.752438
638.180846	-2.974800	3.735300	-11.109000	24.045399	0.001057	20.768887
639.183647	-2.978600	3.736100	-11.126000	24.050502	0.001057	20.751244
640.179734	-3.006800	3.733200	-11.224000	24.026455	0.001058	20.753681
641.187363	-3.019900	3.733500	-11.274000	24.009564	0.001055	20.762821
642.183538	-3.021000	3.734000	-11.279000	24.033702	0.001056	20.747672
643.184453	-3.017000	3.732700	-11.260000	24.031191	0.001056	20.737567
644.191032	-3.031200	3.732800	-11.314000	24.050624	0.001056	20.742358
645.190756	-2.991000	3.732400	-11.162000	24.068289	0.001056	20.764342
646.190012	-3.004500	3.733900	-11.217000	24.091234	0.001057	20.756534
647.189091	-2.998400	3.731200	-11.187000	24.099271	0.001057	20.733774
648.189724	-3.002900	3.731900	-11.205000	24.126219	0.001058	20.738990
649.193510	-2.974600	3.733600	-11.105000	24.128281	0.001057	20.751016
650.187554	-3.007300	3.731500	-11.221000	24.100290	0.001056	20.745702
651.189923	-3.014400	3.731600	-11.247000	24.083849	0.001056	20.752446
652.192305	-3.002700	3.731700	-11.204000	24.029422	0.001055	20.738638
653.187610	-3.017500	3.729400	-11.251000	24.023552	0.001056	20.751244
654.188438	-3.004000	3.731200	-11.208000	24.030343	0.001055	20.752365
655.189230	-3.013700	3.730200	-11.240000	24.048562	0.001055	20.747876
656.189235	-2.978900	3.730900	-11.113000	24.047209	0.001054	20.739407
657.193055	-2.997200	3.729800	-11.178000	24.072698	0.001056	20.745530
658.194398	-3.009200	3.728400	-11.219000	24.083890	0.001054	20.757229
659.192124	-3.004400	3.729200	-11.202000	24.117180	0.001055	20.754580
660.191966	-3.010400	3.727800	-11.220000	24.114799	0.001055	20.729432
661.189744	-2.984400	3.729500	-11.129000	24.127206	0.001055	20.748514
662.193225	-2.982300	3.729000	-11.119000	24.147468	0.001054	20.731852
663.189675	-2.993500	3.728200	-11.160000	24.142839	0.001054	20.745227
664.188451	-2.981900	3.727400	-11.114000	24.135593	0.001053	20.737011
665.189208	-3.008300	3.727400	-11.212000	24.125266	0.001053	20.737085
666.195290	-2.999700	3.726300	-11.176000	24.098995	0.001054	20.748195
667.189215	-3.014900	3.727000	-11.236000	24.060952	0.001053	20.764570
668.195866	-3.014300	3.725200	-11.228000	24.021026	0.001052	20.741598
669.188578	-3.008000	3.725800	-11.206000	24.041886	0.001053	20.731697
670.197122	-2.992700	3.724700	-11.146000	24.048880	0.001054	20.740134
671.190691	-3.002100	3.725200	-11.182000	24.073114	0.001054	20.728403
672.190498	-2.992400	3.724200	-11.142000	24.089710	0.001052	20.722761
673.191454	-2.988900	3.725100	-11.132000	24.112933	0.001051	20.741311
674.191205	-3.008400	3.723200	-11.200000	24.114824	0.001053	20.725189
675.194259	-2.985000	3.723600	-11.114000	24.116519	0.001052	20.724993
676.192042	-2.999700	3.724000	-11.169000	24.110471	0.001053	20.727936
677.195812	-2.979900	3.724000	-11.096000	24.134834	0.001050	20.750950
678.196955	-3.028200	3.722100	-11.270000	24.128688	0.001053	20.730560
679.215009	-3.003700	3.723200	-11.182000	24.131973	0.001052	20.743813
680.195176	-2.998500	3.723200	-11.163000	24.142504	0.001052	20.733985
681.195448	-2.981000	3.723100	-11.097000	24.175718	0.001052	20.757817
682.194942	-2.993200	3.721700	-11.138000	24.167160	0.001050	20.735007
683.195429	-2.990500	3.722500	-11.130000	24.183804	0.001052	20.746486
684.195087	-3.014200	3.720100	-11.212000	24.203707	0.001051	20.726145
685.192206	-2.977300	3.722900	-11.084000	24.219184	0.001050	20.750680
686.190687	-3.007200	3.721100	-11.189000	24.243537	0.001050	20.732432
687.195592	-2.978900	3.722300	-11.086000	24.255061	0.001050	20.742096
688.197126	-2.992500	3.719700	-11.130000	24.236895	0.001050	20.737624
689.198970	-3.009700	3.719700	-11.194000	24.234091	0.001048	20.725802
690.197104	-2.999700	3.719100	-11.155000	24.224441	0.001048	20.719915
691.196290	-3.001300	3.720100	-11.165000	24.233513	0.001050	20.716686
692.196318	-2.995100	3.718700	-11.137000	24.258476	0.001049	20.733192
693.192553	-3.000600	3.719000	-11.158000	24.247596	0.001048	20.720856
694.195024	-2.997800	3.719200	-11.148000	24.266700	0.001048	20.712991
695.196253	-2.985200	3.718900	-11.101000	24.255762	0.001048	20.708183
696.197799	-3.009700	3.718900	-11.192000	24.247726	0.001048	20.719564
697.198267	-2.974600	3.717200	-11.055000	24.238027	0.001048	20.734492
698.197988	-3.019200	3.717700	-11.224000	24.251956	0.001046	20.715746
699.198706	-2.991300	3.717900	-11.119000	24.235615	0.001047	20.725433
700.202776	-3.023300	3.716800	-11.235000	24.213870	0.001047	20.719743
701.198952	-2.994000	3.716000	-11.125000	24.219273	0.001046	20.744130
702.203393	-3.011400	3.715100	-11.187000	24.207259	0.001048	20.725441
703.198859	-2.995700	3.716700	-11.133000	24.206111	0.001047	20.736143
704.198130	-3.006800	3.715600	-11.171000	24.169360	0.001047	20.719195
705.200763	-3.016000	3.716000	-11.207000	24.180608	0.001046	20.718149
706.204122	-3.016300	3.714400	-11.202000	24.167844	0.001047	20.722891
707.200290	-2.993700	3.716300	-11.124000	24.193298	0.001047	20.726136
708.202965	-2.993400	3.715200	-11.120000	24.192899	0.001046	20.716726
709.203674	-2.992300	3.714700	-11.115000	24.220373	0.001045	20.699238
710.203685	-2.973900	3.716000	-11.050000	24.202329	0.001047	20.709589
711.210076	-2.986900	3.714000	-11.092000	24.202883	0.001045	20.708248
712.200646	-2.978300	3.715800	-11.066000	24.227537	0.001045	20.739143
713.207136	-3.014700	3.713700	-11.195000	24.198155	0.001044	20.722473
714.204650	-2.994600	3.713900	-11.120000	24.211766	0.001045	20.705304
715.204845	-2.984400	3.714100	-11.084000	24.230504	0.001045	20.699916
716.214155	-2.991100	3.714600	-11.110000	24.233071	0.001047	20.708656
717.207837	-3.008100	3.711900	-11.165000	24.201790	0.001045	20.721852
718.210299	-3.012100	3.711000	-11.177000	24.238947	0.001045	20.706489
719.205899	-3.001100	3.713400	-11.144000	24.225850	0.001043	20.715164
720.209343	-3.000700	3.712500	-11.139000	24.258295	0.001043	20.707879
721.205394	-2.999100	3.712400	-11.132000	24.272599	0.001042	20.710373
722.207188	-2.990100	3.712500	-11.100000	24.277847	0.001043	20.718483
723.209725	-2.996200	3.710600	-11.117000	24.289143	0.001043	20.717012
724.210293	-2.998900	3.710100	-11.124000	24.324618	0.001042	20.708975
725.211268	-2.993900	3.711600	-11.111000	24.336418	0.001041	20.686671
726.214490	-2.997900	3.709700	-11.121000	24.342783	0.001041	20.729569
727.214962	-3.007600	3.710000	-11.157000	24.334552	0.001042	20.707086
728.208088	-3.003600	3.709100	-11.139000	24.315662	0.001043	20.720854
729.216503	-2.999800	3.709300	-11.126000	24.327861	0.001042	20.706064
730.211139	-3.002900	3.709900	-11.139000	24.327413	0.001040	20.700398
731.209429	-2.998400	3.709700	-11.121000	24.334731	0.001041	20.702998
732.211379	-3.015700	3.708900	-11.184000	24.339531	0.001039	20.682681
733.214952	-2.997700	3.708500	-11.116000	24.355447	0.001041	20.680629
734.212026	-2.993400	3.707900	-11.098000	24.357916	0.001039	20.694487
735.212350	-3.017100	3.707500	-11.184000	24.312711	0.001040	20.711256
736.209318	-2.993000	3.707700	-11.096000	24.289778	0.001040	20.705794
737.210301	-2.988800	3.707800	-11.081000	24.243152	0.001041	20.696482
738.214903	-2.990400	3.706500	-11.083000	24.257561	0.001039	20.694814
739.213114	-3.007400	3.706600	-11.146000	24.252508	0.001040	20.693064
740.215186	-3.025400	3.706400	-11.213000	24.243184	0.001041	20.705524
741.212417	-3.012600	3.707000	-11.167000	24.236436	0.001041	20.682632
742.212273	-2.991100	3.706100	-11.085000	24.254032	0.001039	20.696490
743.213382	-2.980100	3.705900	-11.042000	24.254970	0.001037	20.672298
744.213633	-3.026600	3.703300	-11.207000	24.290772	0.001039	20.670752
745.213318	-3.001900	3.704400	-11.118000	24.302361	0.001041	20.685224
746.214681	-2.994800	3.705100	-11.095000	24.288531	0.001038	20.681782
747.213748	-3.010600	3.705200	-11.154000	24.346548	0.001038	20.673598
748.213446	-3.001300	3.704300	-11.116000	24.328138	0.001037	20.676467
749.215567	-3.018600	3.702000	-11.174000	24.340028	0.001037	20.695509
750.215870	-3.014400	3.703500	-11.162000	24.326019	0.001036	20.680507
751.217021	-2.984700	3.704100	-11.054000	24.299126	0.001036	20.696678
752.228354	-2.986300	3.703000	-11.057000	24.299542	0.001037	20.689034
753.218785	-3.016500	3.701500	-11.165000	24.264896	0.001036	20.690792
754.214337	-3.018700	3.701800	-11.173000	24.292924	0.001034	20.684767
755.215220	-2.991600	3.701700	-11.074000	24.304423	0.001036	20.668325
756.220331	-2.991300	3.702300	-11.073000	24.320812	0.001037	20.681921
757.217997	-3.021100	3.700700	-11.179000	24.313706	0.001036	20.682853
758.218863	-3.000400	3.701100	-11.103000	24.298849	0.001036	20.687865
759.218744	-2.985200	3.702500	-11.052000	24.251531	0.001034	20.675961
760.220449	-3.014600	3.700100	-11.154000	24.263536	0.001035	20.705550
761.218623	-3.001200	3.701200	-11.107000	24.283723	0.001035	20.682175
762.220881	-2.986300	3.700500	-11.049000	24.288246	0.001034	20.698567
763.221200	-2.983500	3.700900	-11.041000	24.335808	0.001033	20.681317
764.217348	-2.995300	3.699000	-11.079000	24.341634	0.001036	20.671039
765.219367	-2.994900	3.700700	-11.082000	24.368698	0.001034	20.679698
766.222450	-3.008000	3.698200	-11.123000	24.352596	0.001033	20.686304
767.220783	-2.997000	3.699300	-11.086000	24.340037	0.001032	20.674653
768.220252	-3.005700	3.699400	-11.118000	24.338220	0.001034	20.668562
769.219539	-3.014700	3.698300	-11.148000	24.318718	0.001032	20.679820
770.220919	-3.028000	3.697800	-11.196000	24.310202	0.001032	20.686452
771.219310	-2.995800	3.697200	-11.076000	24.305248	0.001033	20.677687
772.223595	-2.995700	3.698100	-11.077000	24.316942	0.001033	20.665235
773.218502	-2.979900	3.699000	-11.022000	24.310097	0.001031	20.666429
774.223052	-3.006900	3.697100	-11.116000	24.364600	0.001031	20.673215
775.227125	-3.013600	3.696600	-11.139000	24.349500	0.001032	20.686517
776.225905	-2.993700	3.696800	-11.065000	24.346541	0.001033	20.637551
777.222936	-3.020300	3.696100	-11.162000	24.378601	0.001032	20.673510
778.225219	-3.007900	3.694600	-11.113000	24.378527	0.001031	20.674385
779.221958	-3.023800	3.694000	-11.167000	24.388795	0.001031	20.660028
780.226047	-3.013400	3.697000	-11.139000	24.398273	0.001030	20.656259
781.231988	-2.997500	3.694500	-11.073000	24.413764	0.001028	20.675121
782.221623	-2.984600	3.696100	-11.030000	24.448934	0.001031	20.690018
783.229823	-2.993600	3.693800	-11.056000	24.444762	0.001028	20.652637
784.226807	-2.994000	3.694500	-11.061000	24.446180	0.001029	20.669709
785.225348	-2.987900	3.693100	-11.034000	24.450279	0.001027	20.678563
786.227399	-2.999300	3.693200	-11.076000	24.415508	0.001028	20.669758
787.227415	-2.991800	3.693700	-11.050000	24.403383	0.001028	20.647160
788.224758	-2.993300	3.693400	-11.054000	24.361122	0.001026	20.675890
789.229765	-3.006400	3.691900	-11.098000	24.394077	0.001027	20.652049
790.230195	-3.017400	3.693000	-11.142000	24.404776	0.001025	20.670371
791.224760	-2.979300	3.693500	-11.003000	24.411947	0.001027	20.669979
792.229646	-3.020600	3.692700	-11.152000	24.415875	0.001029	20.668703
793.228525	-3.008000	3.691700	-11.103000	24.442383	0.001027	20.682971
794.228031	-3.020900	3.690000	-11.145000	24.446433	0.001026	20.667592
795.228099	-2.990100	3.691400	-11.036000	24.466421	0.001026	20.651607
796.229448	-2.995900	3.691300	-11.058000	24.467880	0.001028	20.672040
797.231562	-3.008900	3.690400	-11.103000	24.469469	0.001025	20.652769
798.226904	-2.994500	3.690200	-11.049000	24.415990	0.001026	20.658386
799.236700	-3.009800	3.690700	-11.107000	24.413406	0.001027	20.645835
800.230955	-2.988200	3.691600	-11.029000	24.412306	0.001023	20.645680
801.233782	-2.984900	3.689900	-11.013000	24.394672	0.001025	20.646481
802.231760	-3.006300	3.688900	-11.089000	24.391689	0.001026	20.639695
803.232357	-2.997000	3.690100	-11.058000	24.362793	0.001025	20.658125
804.228614	-3.006400	3.688900	-11.088000	24.366933	0.001024	20.669865
805.229496	-2.994200	3.688000	-11.042000	24.367080	0.001023	20.652941
806.229226	-2.982900	3.687700	-10.999000	24.349094	0.001024	20.631577
807.231015	-3.007300	3.687100	-11.088000	24.301305	0.001024	20.658083
808.232742	-3.012500	3.687000	-11.106000	24.318265	0.001024	20.662295
809.231159	-3.015000	3.686600	-11.114000	24.341132	0.001022	20.665794
810.231821	-3.004600	3.687200	-11.077000	24.363918	0.001024	20.651665
811.239226	-2.993300	3.686600	-11.034000	24.380428	0.001020	20.642149
812.234982	-2.991000	3.686600	-11.025000	24.389269	0.001021	20.656236
813.240751	-3.009900	3.687200	-11.097000	24.388740	0.001020	20.658076
814.238343	-2.998600	3.687400	-11.055000	24.385334	0.001020	20.644225
815.230197	-2.999000	3.686600	-11.054000	24.388194	0.001022	20.648992
816.247323	-2.992000	3.685900	-11.028000	24.378978	0.001020	20.662982
817.235157	-2.995600	3.685400	-11.039000	24.414899	0.001022	20.668198
818.236257	-2.969000	3.686500	-10.944000	24.428133	0.001019	20.637375
819.236656	-2.984600	3.685900	-10.999000	24.441195	0.001019	20.653326
820.235539	-3.001200	3.684200	-11.055000	24.433723	0.001019	20.652468
821.236903	-2.985300	3.685700	-11.002000	24.407834	0.001021	20.653997
822.236312	-3.020900	3.682600	-11.124000	24.387919	0.001019	20.642077
823.237564	-2.985900	3.684200	-11.000000	24.374937	0.001019	20.630949
824.239542	-2.992100	3.684100	-11.021000	24.359291	0.001019	20.677847
825.233711	-3.036800	3.682400	-11.182000	24.377871	0.001017	20.661397
826.239596	-2.997100	3.682400	-11.036000	24.356031	0.001018	20.644227
827.238868	-2.991700	3.682000	-11.015000	24.348224	0.001017	20.651095
828.239422	-2.998300	3.684000	-11.045000	24.349707	0.001016	20.669180
829.237722	-2.984900	3.682900	-10.992000	24.326946	0.001017	20.653932
830.247415	-2.998400	3.682100	-11.040000	24.330833	0.001015	20.664471
831.238856	-2.998400	3.682900	-11.042000	24.342145	0.001016	20.656851
832.239561	-2.999700	3.681900	-11.044000	24.370382	0.001017	20.650089
833.239080	-3.013400	3.681100	-11.092000	24.381204	0.001017	20.659999
834.237730	-3.014500	3.681500	-11.097000	24.431279	0.001016	20.658077
835.244106	-3.008400	3.679400	-11.068000	24.446003	0.001014	20.649141
836.239783	-3.010800	3.679600	-11.077000	24.463336	0.001015	20.643295
837.246161	-2.999200	3.679800	-11.034000	24.469032	0.001015	20.648536
838.240688	-3.002600	3.679400	-11.047000	24.492246	0.001015	20.640531
839.243194	-3.002800	3.680300	-11.049000	24.496369	0.001015	20.643720
840.246069	-3.022700	3.679400	-11.120000	24.475256	0.001012	20.644350
841.244533	-2.998800	3.678400	-11.030000	24.493134	0.001016	20.664185
842.244889	-2.996200	3.677500	-11.018000	24.511044	0.001014	20.648961
843.245309	-2.993500	3.678200	-11.010000	24.527413	0.001014	20.667284
844.241026	-2.992100	3.678500	-11.006000	24.524122	0.001013	20.653548
845.241055	-3.004300	3.678200	-11.048000	24.515843	0.001013	20.670849
846.245140	-3.011400	3.676600	-11.070000	24.511215	0.001016	20.665731
847.244291	-2.989900	3.678700	-10.998000	24.499001	0.001013	20.668649
848.246537	-2.996700	3.676000	-11.015000	24.548517	0.001012	20.658111
849.243747	-2.999800	3.676300	-11.026000	24.553943	0.001012	20.648855
850.241762	-2.989300	3.676900	-10.990000	24.573938	0.001012	20.681723
851.248838	-3.031700	3.676000	-11.144000	24.554710	0.001011	20.661480
852.245955	-3.020800	3.674800	-11.100000	24.572968	0.001011	20.660833
853.243299	-3.021300	3.674600	-11.101000	24.586991	0.001011	20.650720
854.245834	-2.990800	3.677100	-10.995000	24.551475	0.001012	20.668666
855.245542	-2.979400	3.676500	-10.952000	24.564886	0.001009	20.670743
856.243710	-2.990600	3.675200	-10.990000	24.571893	0.001012	20.671610
857.249000	-3.007800	3.675500	-11.054000	24.556103	0.001010	20.664774
858.254919	-2.980500	3.676000	-10.955000	24.539881	0.001010	20.667465
859.246704	-3.039000	3.672600	-11.160000	24.511631	0.001011	20.668519
860.249593	-3.007100	3.674300	-11.047000	24.500908	0.001009	20.664398
861.251169	-2.993200	3.674600	-10.998000	24.537363	0.001009	20.662093
862.249464	-2.990000	3.673900	-10.984000	24.558588	0.001007	20.653990
863.249240	-2.988600	3.673400	-10.977000	24.559974	0.001007	20.665813
864.254744	-3.012300	3.673400	-11.064000	24.577483	0.001008	20.669157
865.250205	-3.008000	3.673400	-11.049000	24.587830	0.001008	20.651563
866.249321	-3.008200	3.672400	-11.045000	24.585125	0.001008	20.666394
867.252813	-3.016100	3.671600	-11.073000	24.618889	0.001005	20.662813
868.250221	-3.006200	3.672200	-11.038000	24.624119	0.001005	20.650516
869.250680	-2.992000	3.671300	-10.983000	24.647917	0.001005	20.677243
870.249365	-3.019300	3.671800	-11.085000	24.664757	0.001005	20.670433
871.250133	-3.002400	3.670300	-11.018000	24.695960	0.001005	20.659069
872.253591	-3.020400	3.669700	-11.082000	24.682338	0.001004	20.668634
873.254833	-2.993400	3.671300	-10.989000	24.675592	0.001004	20.680833
874.253504	-2.986400	3.670300	-10.960000	24.665327	0.001004	20.646820
875.254168	-2.972000	3.670000	-10.907000	24.641301	0.001003	20.663017
876.248389	-2.999800	3.668900	-11.004000	24.599204	0.001004	20.676728
877.254898	-3.005800	3.670300	-11.031000	24.575372	0.001002	20.679843
878.252854	-2.992200	3.668900	-10.977000	24.569400	0.001002	20.651563
879.253171	-2.991100	3.668600	-10.972000	24.540028	0.001001	20.667612
880.258495	-3.015200	3.668500	-11.060000	24.544403	0.001001	20.666312
881.257799	-3.005300	3.668200	-11.023000	24.574868	0.001001	20.687398
882.257347	-3.003100	3.668300	-11.014000	24.618497	0.001002	20.667162
883.257057	-2.995500	3.667800	-10.985000	24.602536	0.001000	20.654939
884.257419	-2.989300	3.666400	-10.958000	24.636307	0.001001	20.684086
885.256388	-2.989300	3.668400	-10.964000	24.656528	0.001001	20.686359
886.253096	-2.993700	3.667600	-10.979000	24.673172	0.001001	20.684094
887.256804	-3.008400	3.666400	-11.030000	24.671771	0.001000	20.669885
888.261039	-3.001100	3.666400	-11.002000	24.670028	0.001000	20.684258
889.265953	-3.025100	3.667100	-11.092000	24.661848	0.001000	20.663246
890.259758	-2.994500	3.666700	-10.979000	24.646947	0.000999	20.670580
891.263716	-3.002200	3.665600	-11.003000	24.640462	0.000999	20.684937
892.259579	-3.000900	3.664200	-10.993000	24.622628	0.000999	20.666091
893.260862	-2.991800	3.664700	-10.963000	24.588531	0.001000	20.670760
894.263771	-3.000700	3.665100	-10.996000	24.568700	0.000998	20.671725
895.260330	-3.006400	3.664000	-11.014000	24.510532	0.000996	20.675477
896.260403	-3.019400	3.662200	-11.057000	24.498440	0.000995	20.681364
897.262495	-3.013000	3.664500	-11.039000	24.509082	0.000997	20.681609
898.261678	-2.995800	3.664800	-10.977000	24.523161	0.000997	20.663491
899.262890	-3.014900	3.662500	-11.041000	24.542554	0.000997	20.682002
900.260583	-2.975400	3.664900	-10.903000	24.560373	0.000997	20.700356
901.261006	-2.986400	3.664500	-10.942000	24.592629	0.000996	20.687202
902.264335	-2.996400	3.662800	-10.974000	24.598545	0.000996	20.668479
903.262393	-3.003300	3.662500	-10.997000	24.587896	0.000995	20.667752
904.259892	-2.984200	3.662800	-10.929000	24.613715	0.000995	20.696506
905.266171	-3.011800	3.661400	-11.027000	24.622921	0.000995	20.694364
906.259686	-3.009400	3.662700	-11.021000	24.595481	0.000997	20.679157
907.266824	-2.997900	3.661500	-10.976000	24.591782	0.000995	20.689197
908.267034	-2.999400	3.661300	-10.981000	24.583366	0.000996	20.707307
909.265890	-2.987400	3.661800	-10.938000	24.603816	0.000993	20.686572
910.263385	-3.001400	3.660600	-10.986000	24.608762	0.000992	20.685371
911.263835	-3.005700	3.660200	-11.000000	24.605153	0.000995	20.693130
912.274150	-3.007600	3.659600	-11.006000	24.612461	0.000994	20.691454
913.267816	-3.008400	3.660000	-11.010000	24.630442	0.000993	20.685314
914.266217	-3.004600	3.660700	-10.998000	24.641017	0.000994	20.703987
915.269247	-2.999100	3.660000	-10.975000	24.653303	0.000992	20.703513
916.277368	-3.009900	3.659700	-11.014000	24.689011	0.000991	20.697144
917.267478	-2.980300	3.660400	-10.908000	24.701818	0.000992	20.690081
918.266857	-3.007500	3.659300	-11.005000	24.702543	0.000992	20.682747
919.269313	-2.997200	3.658100	-10.963000	24.690062	0.000991	20.701992
920.276106	-2.986100	3.659500	-10.927000	24.716767	0.000991	20.689435
921.273306	-3.003500	3.658000	-10.986000	24.732481	0.000990	20.703783
922.270297	-3.020300	3.657100	-11.044000	24.718380	0.000989	20.691528
923.271054	-3.008800	3.657600	-11.004000	24.730136	0.000990	20.678193
924.275063	-2.994600	3.657100	-10.950000	24.724970	0.000989	20.703358
925.273748	-2.998400	3.656000	-10.961000	24.770965	0.000987	20.698306
926.270719	-3.002200	3.656700	-10.977000	24.761442	0.000988	20.712458
927.272651	-2.991900	3.657300	-10.941000	24.772260	0.000987	20.714780
928.272974	-3.002600	3.654500	-10.971000	24.763129	0.000988	20.685699
929.271427	-2.989900	3.656400	-10.931000	24.741720	0.000987	20.709262
930.273949	-2.988100	3.656200	-10.924000	24.738063	0.000986	20.715075
931.271938	-2.966100	3.657100	-10.847000	24.723594	0.000987	20.710512
932.274260	-2.998300	3.655200	-10.958000	24.746462	0.000985	20.706433
933.271215	-2.978400	3.656200	-10.888000	24.748051	0.000986	20.703760
934.272081	-3.003500	3.653800	-10.974000	24.750372	0.000986	20.713677
935.272846	-2.982000	3.654000	-10.895000	24.725778	0.000985	20.706539
936.271378	-3.009400	3.652200	-10.990000	24.729656	0.000987	20.710431
937.274072	-2.998500	3.654100	-10.956000	24.714332	0.000984	20.704537
938.275118	-3.002300	3.653300	-10.967000	24.733631	0.000984	20.727698
939.273803	-3.009000	3.652600	-10.989000	24.728874	0.000983	20.699215
940.274553	-3.010400	3.653300	-10.997000	24.724629	0.000983	20.721509
941.277355	-3.013600	3.651900	-11.003000	24.710006	0.000982	20.701144
942.275307	-2.998400	3.653400	-10.953000	24.753476	0.000983	20.719637
943.278000	-2.994600	3.652000	-10.936000	24.760881	0.000982	20.705256
944.272314	-3.013000	3.651400	-10.999000	24.776326	0.000981	20.716015
945.275789	-2.987900	3.652300	-10.912000	24.819370	0.000982	20.725074
946.274810	-3.007100	3.650300	-10.976000	24.816633	0.000981	20.720430
947.273623	-2.993000	3.651700	-10.928000	24.814939	0.000982	20.719678
948.276898	-2.995400	3.651900	-10.938000	24.835531	0.000980	20.708102
949.276529	-3.023700	3.649300	-11.034000	24.834138	0.000979	20.716187
950.279249	-3.010300	3.649600	-10.985000	24.828322	0.000980	20.744017
951.278708	-3.003000	3.648700	-10.956000	24.826473	0.000981	20.737894
952.278647	-2.999400	3.650000	-10.947000	24.839474	0.000980	20.725811
953.276564	-3.019800	3.648400	-11.016000	24.833903	0.000979	20.713106
954.280982	-2.993000	3.649400	-10.921000	24.819582	0.000980	20.729081
955.279672	-3.005800	3.647900	-10.964000	24.822189	0.000978	20.732646
956.280259	-2.988000	3.648700	-10.901000	24.777680	0.000978	20.745350
957.278704	-3.003400	3.647500	-10.953000	24.766291	0.000980	20.709737
958.278554	-2.968800	3.647700	-10.828000	24.755603	0.000978	20.721297
959.281350	-2.986200	3.648400	-10.893000	24.744003	0.000978	20.732891
960.292214	-3.008000	3.648100	-10.972000	24.759351	0.000977	20.718420
961.278177	-3.005800	3.646600	-10.959000	24.768279	0.000976	20.720742
962.280078	-3.013800	3.647600	-10.991000	24.793418	0.000976	20.732221
963.280531	-2.991000	3.646700	-10.906000	24.806126	0.000974	20.734068
964.280098	-3.004700	3.645300	-10.952000	24.814223	0.000976	20.723702
965.280904	-2.986500	3.645500	-10.886000	24.835956	0.000975	20.729392
966.281137	-3.003700	3.645500	-10.949000	24.839092	0.000977	20.740127
967.280510	-2.997500	3.646700	-10.930000	24.858609	0.000976	20.716091
968.283126	-2.994600	3.646200	-10.918000	24.823119	0.000975	20.731208
969.281918	-3.009000	3.646200	-10.970000	24.814191	0.000975	20.718928
970.284286	-3.021300	3.645600	-11.012000	24.793826	0.000975	20.733579
971.281582	-2.996400	3.644100	-10.918000	24.777527	0.000974	20.720540
972.284359	-2.984400	3.645600	-10.879000	24.745227	0.000973	20.735541
973.284479	-2.984100	3.644900	-10.876000	24.736901	0.000973	20.721970
974.283995	-2.986300	3.644100	-10.881000	24.746962	0.000973	20.746293
975.282261	-2.988600	3.643100	-10.887000	24.760542	0.000971	20.741428
976.284301	-2.975000	3.643600	-10.839000	24.774562	0.000972	20.724677
977.284789	-3.004600	3.643400	-10.945000	24.801216	0.000973	20.736728
978.283251	-2.989800	3.643900	-10.894000	24.834011	0.000972	20.737398
979.288067	-3.026100	3.642200	-11.021000	24.839005	0.000970	20.735772
980.287074	-2.969600	3.642500	-10.816000	24.843306	0.000970	20.750046
981.289310	-2.994200	3.641700	-10.902000	24.801608	0.000972	20.746604
982.285764	-2.988800	3.640800	-10.881000	24.804638	0.000970	20.747275
983.285912	-2.983100	3.640900	-10.861000	24.838687	0.000969	20.755842
984.289222	-2.998700	3.641500	-10.918000	24.834745	0.000967	20.750938
985.290911	-3.002500	3.641000	-10.931000	24.861234	0.000969	20.741961
986.291378	-2.995200	3.641300	-10.905000	24.809282	0.000969	20.753832
987.292717	-3.011600	3.641000	-10.963000	24.813933	0.000969	20.749491
988.289007	-2.971900	3.642100	-10.823000	24.799605	0.000970	20.734162
989.290816	-2.974500	3.640800	-10.827000	24.841555	0.000968	20.749712
990.290226	-2.984100	3.638200	-10.856000	24.843136	0.000968	20.753195
991.294260	-2.989700	3.639600	-10.881000	24.873429	0.000968	20.777909
992.290731	-2.999000	3.640200	-10.915000	24.887798	0.000967	20.757242
993.292599	-3.008000	3.639700	-10.947000	24.903681	0.000966	20.764649
994.296978	-2.980000	3.639100	-10.843000	24.908675	0.000964	20.762074
995.289348	-2.999500	3.638600	-10.913000	24.901613	0.000966	20.745028
996.295282	-2.998900	3.638400	-10.909000	24.851731	0.000966	20.758976
997.291719	-3.003500	3.637500	-10.925000	24.857074	0.000967	20.755804
998.294248	-2.995100	3.637100	-10.892000	24.849841	0.000964	20.769882
999.292043	-3.021500	3.635800	-10.984000	24.857743	0.000965	20.737982
1000.290611	-2.995300	3.636800	-10.893000	24.873333	0.000963	20.760268
1001.289729	-2.982900	3.637400	-10.849000	24.861596	0.000965	20.757023
1002.293220	-2.988400	3.636400	-10.864000	24.868976	0.000964	20.769171
1003.290930	-2.990600	3.637400	-10.877000	24.882057	0.000964	20.744841
1004.291746	-3.022500	3.635300	-10.987000	24.868422	0.000963	20.770987
1005.293470	-3.009200	3.636000	-10.941000	24.891718	0.000961	20.773505
1006.296194	-2.998600	3.634800	-10.898000	24.893030	0.000961	20.760123
1007.299180	-2.971900	3.635400	-10.803000	24.902413	0.000963	20.760056
1008.297965	-2.990100	3.635500	-10.870000	24.905418	0.000960	20.765918
1009.301727	-3.007400	3.634400	-10.930000	24.886318	0.000960	20.762395
1010.294642	-2.994900	3.633800	-10.881000	24.872838	0.000960	20.772099
1011.297406	-2.988600	3.634800	-10.862000	24.906471	0.000958	20.773613
1012.299614	-2.979100	3.633700	-10.825000	24.923933	0.000960	20.783079
1013.303551	-3.003000	3.632300	-10.907000	24.943791	0.000960	20.787363
1014.299645	-3.000800	3.632500	-10.899000	24.927232	0.000958	20.765527
1015.300074	-3.013400	3.631700	-10.943000	24.916734	0.000958	20.774431
1016.298924	-3.016700	3.631200	-10.954000	24.916881	0.000956	20.776475
1017.299036	-3.004600	3.632700	-10.912000	24.940550	0.000957	20.788378
1018.298261	-3.017400	3.631400	-10.956000	24.959666	0.000958	20.770581
1019.299634	-3.007900	3.629500	-10.916000	24.924733	0.000957	20.789572
1020.301209	-3.026400	3.629000	-10.981000	24.888773	0.000956	20.796153
1021.300532	-2.998400	3.630800	-10.885000	24.873084	0.000956	20.787046
1022.299761	-2.987700	3.631600	-10.849000	24.895379	0.000955	20.770067
1023.311778	-2.990700	3.629500	-10.853000	24.843453	0.000954	20.790971
1024.299773	-2.979200	3.630700	-10.815000	24.883333	0.000954	20.779314
1025.306139	-2.978600	3.629300	-10.808000	24.888880	0.000954	20.774449
1026.302823	-2.965400	3.630600	-10.765000	24.901807	0.000954	20.789320
1027.301051	-3.007100	3.629700	-10.914000	24.896855	0.000954	20.782928
1028.301502	-2.971300	3.629700	-10.784000	24.922186	0.000954	20.801240
1029.306256	-3.001800	3.627600	-10.888000	24.933972	0.000952	20.792207
1030.303848	-2.982200	3.628500	-10.820000	24.944309	0.000951	20.801159
1031.303195	-2.996200	3.627100	-10.867000	24.947461	0.000951	20.785357
1032.303348	-2.969000	3.627900	-10.770000	24.975406	0.000952	20.790647
1033.302282	-2.993300	3.627000	-10.854000	24.978093	0.000951	20.783861
1034.307584	-3.026200	3.624500	-10.967000	24.998643	0.000952	20.793582
1035.304076	-2.991700	3.628100	-10.853000	24.983551	0.000950	20.790762
1036.306400	-3.000000	3.626300	-10.878000	25.013857	0.000950	20.793680
1037.302608	-2.987000	3.627700	-10.835000	25.041328	0.000951	20.794228
1038.307227	-3.009600	3.627100	-10.915000	25.037842	0.000948	20.800213
1039.307143	-3.007500	3.625000	-10.901000	25.042233	0.000947	20.786602
1040.305938	-2.992400	3.625500	-10.846000	25.036092	0.000948	20.812206
1041.304855	-2.977600	3.625700	-10.795000	25.025627	0.000948	20.824935
1042.303000	-3.011500	3.624200	-10.913000	25.027957	0.000949	20.795505
1043.305617	-2.998000	3.623900	-10.862000	25.041053	0.000947	20.793953
1044.307386	-3.012700	3.623200	-10.914000	25.071129	0.000949	20.802807
1045.305579	-3.012800	3.622600	-10.914000	25.072522	0.000949	20.796144
1046.308046	-3.011500	3.623200	-10.910000	25.073410	0.000945	20.814105
1047.305219	-3.000800	3.622600	-10.869000	25.061349	0.000944	20.793463
1048.307820	-3.018200	3.621700	-10.929000	25.082287	0.000946	20.808317
1049.304631	-3.029000	3.621200	-10.968000	25.070128	0.000945	20.806543
1050.316342	-2.979100	3.623800	-10.794000	25.050453	0.000946	20.820932
1051.309005	-2.993400	3.622800	-10.843000	25.029890	0.000946	20.798394
1052.322532	-3.002000	3.621100	-10.870000	25.036177	0.000944	20.828887
1053.309427	-3.012400	3.621000	-10.907000	25.048133	0.000944	20.810068
1054.309367	-3.026600	3.620100	-10.956000	25.047587	0.000944	20.801934
1055.310946	-2.987700	3.621000	-10.818000	25.051082	0.000942	20.802597
1056.317209	-2.990800	3.620800	-10.828000	25.042107	0.000943	20.814451
1057.311002	-3.020200	3.619200	-10.930000	25.029801	0.000944	20.843349
1058.309651	-3.006000	3.619000	-10.878000	25.029997	0.000942	20.820787
1059.311587	-2.984300	3.620400	-10.804000	25.048094	0.000942	20.814770
1060.309531	-2.991500	3.620200	-10.829000	25.055399	0.000940	20.814043
1061.312919	-2.987200	3.620500	-10.814000	25.060791	0.000940	20.814714
1062.309636	-2.992200	3.618900	-10.827000	25.052012	0.000940	20.822022
1063.316524	-3.006800	3.619300	-10.880000	25.038688	0.000941	20.820502
1064.313832	-2.980200	3.618100	-10.782000	25.008498	0.000938	20.821017
1065.312808	-2.996400	3.619000	-10.843000	24.974633	0.000938	20.827329
1066.315952	-2.995900	3.617800	-10.838000	24.966081	0.000938	20.821590
1067.317164	-2.992900	3.617300	-10.825000	24.935287	0.000937	20.816286
1068.315619	-2.986800	3.618200	-10.806000	24.924275	0.000938	20.818035
1069.315948	-3.003900	3.616400	-10.863000	24.935987	0.000938	20.821256
1070.315838	-3.015500	3.618100	-10.908000	24.949378	0.000936	20.830903
1071.314830	-2.973800	3.619500	-10.762000	24.966955	0.000938	20.810613
1072.318141	-2.988400	3.616900	-10.807000	24.986274	0.000935	20.820521
1073.317946	-2.986500	3.616500	-10.801000	24.969610	0.000934	20.839356
1074.312311	-3.015400	3.614300	-10.897000	24.973382	0.000934	20.828444
1075.314945	-2.994400	3.615500	-10.825000	24.960872	0.000936	20.826793
1076.312389	-2.990800	3.614200	-10.808000	25.000952	0.000936	20.835728
1077.315808	-3.017200	3.613400	-10.902000	25.017152	0.000935	20.824962
1078.316411	-3.012600	3.613200	-10.884000	25.019839	0.000936	20.839987
1079.317552	-3.019100	3.613800	-10.908000	25.066554	0.000932	20.842309
1080.315979	-3.017900	3.612700	-10.901000	25.081311	0.000933	20.824407
1081.317055	-2.986800	3.613600	-10.791000	25.091483	0.000932	20.841729
1082.321546	-3.006100	3.613700	-10.861000	25.123073	0.000930	20.832190
1083.322322	-2.995200	3.613800	-10.824000	25.140223	0.000932	20.815742
1084.319324	-2.993900	3.613200	-10.817000	25.134670	0.000931	20.835297
1085.325863	-2.988500	3.612800	-10.796000	25.142675	0.000929	20.832902
1086.322089	-3.024100	3.611600	-10.921000	25.166951	0.000929	20.807013
1087.324708	-3.031800	3.610400	-10.945000	25.192928	0.000929	20.799901
1088.324101	-3.011000	3.611600	-10.874000	25.203986	0.000930	20.828546
1089.321660	-2.998500	3.611500	-10.828000	25.196902	0.000930	20.809581
1090.326086	-3.011500	3.610500	-10.872000	25.203377	0.000927	20.810865
1091.319294	-2.997700	3.610900	-10.823000	25.192123	0.000928	20.797670
1092.344110	-3.010000	3.610000	-10.865000	25.237479	0.000928	20.805748
1093.324246	-3.001600	3.612000	-10.840000	25.205112	0.000927	20.821616
1094.320533	-2.957200	3.610800	-10.677000	25.181301	0.000926	20.828532
1095.325706	-2.988400	3.610200	-10.788000	25.128941	0.000926	20.799675
1096.325686	-3.004400	3.609200	-10.842000	25.142932	0.000924	20.836479
1097.326254	-2.999900	3.609900	-10.829000	25.118665	0.000926	20.801213
1098.323742	-3.008000	3.608400	-10.853000	25.137721	0.000924	20.801851
1099.326035	-3.013900	3.607800	-10.872000	25.167974	0.000926	20.824635
1100.326563	-2.994100	3.609400	-10.807000	25.174261	0.000924	20.805343
1101.326482	-3.019600	3.606900	-10.890000	25.179725	0.000924	20.792811
1102.324996	-3.005000	3.606400	-10.836000	25.198438	0.000923	20.805908
1103.324003	-3.005600	3.607900	-10.842000	25.187030	0.000921	20.809627
1104.332751	-3.002600	3.606600	-10.828000	25.192648	0.000923	20.806259
1105.329198	-3.002600	3.607100	-10.830000	25.171094	0.000922	20.780826
1106.327103	-3.011700	3.605900	-10.859000	25.175068	0.000920	20.808050
1107.329246	-3.012000	3.605300	-10.858000	25.173000	0.000921	20.804551
1108.326591	-3.016200	3.604900	-10.871000	25.174319	0.000920	20.813936
1109.332250	-2.987000	3.607100	-10.772000	25.132301	0.000918	20.786927
1110.332067	-3.014400	3.605200	-10.866000	25.101152	0.000921	20.788848
1111.328908	-2.999000	3.605300	-10.811000	25.063014	0.000921	20.782332
1112.328531	-3.007800	3.603200	-10.836000	25.075043	0.000919	20.783976
1113.331261	-2.992000	3.603900	-10.781000	25.059732	0.000919	20.796582
1114.331590	-2.995500	3.604200	-10.795000	25.058616	0.000918	20.798306
1115.333511	-2.999300	3.603500	-10.807000	25.029200	0.000918	20.776839
1116.328950	-3.025700	3.603700	-10.902000	25.025397	0.000918	20.772547
1117.330467	-2.997900	3.603300	-10.802000	25.012415	0.000917	20.790337
1118.328857	-3.002700	3.603300	-10.819000	25.038525	0.000915	20.774820
1119.329144	-3.015000	3.601400	-10.857000	25.044186	0.000917	20.788089
1120.333937	-2.999700	3.601900	-10.803000	25.060295	0.000915	20.788612
1121.332494	-3.012000	3.602000	-10.848000	25.076225	0.000914	20.780895
1122.337335	-2.999100	3.601000	-10.799000	25.078619	0.000915	20.775711
1123.335463	-2.998000	3.599600	-10.791000	25.050970	0.000913	20.767398
1124.334784	-2.993100	3.600800	-10.775000	25.009980	0.000915	20.759917
1125.335819	-3.024600	3.600800	-10.890000	24.995427	0.000912	20.767594
1126.342753	-2.999900	3.600300	-10.799000	24.971139	0.000913	20.759337
1127.333899	-2.997400	3.601000	-10.792000	24.944090	0.000913	20.762059
1128.331806	-3.009400	3.600200	-10.833000	24.968875	0.000913	20.764651
1129.336422	-2.986900	3.600200	-10.752000	24.966790	0.000911	20.752126
1130.333347	-2.985400	3.600400	-10.748000	24.953815	0.000910	20.773716
1131.340221	-2.981000	3.600400	-10.731000	24.931556	0.000909	20.776979
1132.337646	-3.005800	3.598100	-10.814000	24.935164	0.000908	20.749780
1133.342289	-3.014500	3.597100	-10.842000	24.949181	0.000909	20.785661
1134.337839	-2.997200	3.597100	-10.780000	24.967850	0.000910	20.771682
1135.338521	-2.993100	3.598000	-10.768000	24.992397	0.000909	20.747008
1136.341733	-3.002700	3.598300	-10.804000	25.012530	0.000907	20.771486
1137.349132	-2.994800	3.597300	-10.772000	25.051281	0.000906	20.757752
1138.338567	-2.999500	3.596700	-10.787000	25.057121	0.000904	20.746544
1139.339148	-2.985400	3.596300	-10.735000	25.095787	0.000906	20.754539
1140.338552	-3.018600	3.594800	-10.850000	25.109754	0.000906	20.758602
1141.337326	-2.990100	3.597100	-10.755000	25.134738	0.000905	20.741483
1142.340590	-3.019800	3.595200	-10.856000	25.120618	0.000904	20.751490
1143.340620	-3.007000	3.595200	-10.810000	25.088376	0.000903	20.772704
1144.340826	-2.993100	3.594400	-10.757000	25.052551	0.000902	20.770407
1145.342084	-2.991400	3.594300	-10.751000	25.045067	0.000903	20.765739
1146.337627	-2.995600	3.594700	-10.767000	25.014412	0.000902	20.756305
1147.342699	-2.969000	3.593700	-10.668000	25.013989	0.000901	20.762992
1148.347088	-2.984200	3.594000	-10.724000	25.017296	0.000901	20.738810
1149.345319	-2.995400	3.592400	-10.760000	25.054140	0.000899	20.762992
1150.342394	-2.992800	3.592300	-10.749000	25.053496	0.000902	20.740060
1151.344090	-3.018400	3.592300	-10.841000	25.079923	0.000901	20.775598
1152.344407	-3.026700	3.590900	-10.867000	25.087334	0.000899	20.751743
1153.350731	-2.996900	3.592000	-10.763000	25.106391	0.000900	20.750959
1154.343941	-3.004500	3.592300	-10.791000	25.146889	0.000901	20.751310
1155.342357	-2.984900	3.590900	-10.717000	25.168069	0.000899	20.763091
1156.348885	-2.996800	3.591800	-10.763000	25.166400	0.000899	20.750983
1157.344563	-2.976500	3.591200	-10.687000	25.180968	0.000897	20.740004
1158.347400	-2.996200	3.591800	-10.760000	25.154837	0.000897	20.742694
1159.343740	-2.996000	3.590200	-10.755000	25.159935	0.000899	20.733586
1160.347448	-2.989100	3.590500	-10.731000	25.182199	0.000897	20.754516
1161.345525	-2.994800	3.588800	-10.747000	25.172208	0.000896	20.732631
1162.348085	-3.009900	3.589300	-10.802000	25.174545	0.000896	20.750625
1163.351986	-2.991800	3.589400	-10.737000	25.201539	0.000897	20.754966
1164.355528	-3.002800	3.588300	-10.774000	25.215960	0.000895	20.762332
1165.347071	-3.017400	3.588700	-10.828000	25.206727	0.000892	20.746898
1166.347398	-2.983800	3.587800	-10.703000	25.215546	0.000894	20.747217
1167.349688	-2.964600	3.588800	-10.639000	25.216914	0.000893	20.741478
1168.348382	-3.010700	3.587000	-10.798000	25.240944	0.000892	20.746163
1169.351539	-3.004600	3.585500	-10.772000	25.236539	0.000892	20.727990
1170.348658	-2.993500	3.587500	-10.738000	25.241409	0.000893	20.735724
1171.351370	-2.997200	3.587600	-10.751000	25.207527	0.000893	20.754814
1172.347795	-2.985800	3.586600	-10.708000	25.173840	0.000890	20.745176
1173.348342	-2.998400	3.584800	-10.747000	25.185168	0.000891	20.749910
1174.350062	-3.013000	3.584500	-10.798000	25.161927	0.000891	20.739380
1175.348706	-2.987800	3.584700	-10.710000	25.187253	0.000890	20.743468
1176.349330	-2.982000	3.584800	-10.689000	25.197440	0.000890	20.748954
1177.350514	-2.989500	3.584300	-10.714000	25.222667	0.000889	20.756264
1178.350288	-2.994400	3.585500	-10.736000	25.209265	0.000889	20.743756
1179.350575	-2.996700	3.583600	-10.738000	25.185723	0.000888	20.728182
1180.349289	-2.987900	3.583600	-10.707000	25.183355	0.000889	20.742400
1181.354747	-2.996400	3.584200	-10.739000	25.182882	0.000885	20.749512
1182.349276	-3.009500	3.582400	-10.781000	25.185643	0.000885	20.737110
1183.349951	-3.014200	3.582900	-10.798000	25.190782	0.000886	20.736579
1184.353942	-2.999000	3.582600	-10.743000	25.134528	0.000884	20.734633
1185.355117	-3.005800	3.580800	-10.763000	25.160652	0.000886	20.737152
1186.356403	-3.020200	3.581200	-10.815000	25.164277	0.000887	20.748377
1187.356001	-2.977200	3.582800	-10.666000	25.140507	0.000884	20.751068
1188.353725	-3.012200	3.579800	-10.782000	25.103078	0.000883	20.737201
1189.355287	-3.026500	3.579900	-10.834000	25.078135	0.000884	20.731128
1190.361933	-2.997500	3.579100	-10.728000	25.064730	0.000882	20.729526
1191.356497	-2.996900	3.579800	-10.727000	25.029157	0.000882	20.746449
1192.355306	-2.996800	3.579700	-10.727000	25.010678	0.000882	20.735486
1193.354597	-2.987100	3.579800	-10.692000	25.024051	0.000882	20.722831
1194.355216	-2.986200	3.579300	-10.687000	25.015125	0.000883	20.725251
1195.356668	-3.018300	3.578400	-10.800000	25.025836	0.000884	20.726044
1196.361135	-3.025600	3.576700	-10.820000	25.063827	0.000879	20.739525
1197.353252	-3.006200	3.578300	-10.756000	25.092658	0.000879	20.721524
1198.357618	-2.995000	3.577800	-10.714000	25.109882	0.000877	20.721745
1199.358992	-3.017000	3.577600	-10.792000	25.131714	0.000878	20.711418
1200.358823	-3.001300	3.578100	-10.739000	25.149158	0.000880	20.727983
1201.364735	-3.007700	3.577300	-10.758000	25.128677	0.000877	20.732553
1202.359650	-3.031200	3.575900	-10.838000	25.119297	0.000877	20.740680
1203.361052	-3.012100	3.576900	-10.772000	25.088522	0.000874	20.718320
1204.359837	-3.005600	3.576100	-10.747000	25.054408	0.000875	20.699721
1205.362320	-3.020500	3.574300	-10.795000	25.049831	0.000875	20.711723
1206.358420	-3.002400	3.575800	-10.735000	25.068701	0.000873	20.719760
1207.362903	-2.994900	3.574500	-10.705000	25.095096	0.000874	20.741042
1208.362221	-3.000300	3.574000	-10.723000	25.102376	0.000874	20.733177
1209.359231	-2.968700	3.575400	-10.613000	25.116620	0.000873	20.723767
1210.365933	-2.997600	3.574600	-10.714000	25.128827	0.000872	20.700458
1211.362742	-2.985000	3.574400	-10.667000	25.167035	0.000872	20.720325
1212.367614	-2.992600	3.573100	-10.692000	25.145855	0.000872	20.703802
1213.365411	-2.995500	3.573100	-10.702000	25.148282	0.000870	20.714775
1214.367807	-3.002200	3.573800	-10.728000	25.114048	0.000870	20.729721
1215.366312	-2.988200	3.572600	-10.675000	25.077230	0.000872	20.713623
1216.366215	-2.972800	3.573100	-10.621000	25.045460	0.000872	20.730571
1217.369867	-3.019600	3.571900	-10.784000	25.033210	0.000870	20.704996
1218.362798	-2.997600	3.572700	-10.708000	25.052024	0.000868	20.714873
1219.366340	-2.994100	3.571200	-10.691000	25.082027	0.000870	20.711326
1220.366065	-2.990100	3.571400	-10.678000	25.100196	0.000867	20.705857
1221.366719	-2.984400	3.571300	-10.658000	25.130499	0.000868	20.713517
1222.365963	-2.998400	3.570100	-10.703000	25.189530	0.000867	20.705449
1223.367352	-2.990400	3.571100	-10.679000	25.132787	0.000867	20.698744
1224.367450	-2.994300	3.569700	-10.688000	25.139847	0.000867	20.703935
1225.367301	-3.029500	3.569800	-10.813000	25.167713	0.000865	20.731912
1226.364856	-3.016000	3.569200	-10.764000	25.196573	0.000866	20.713468
1227.369757	-3.009000	3.569000	-10.738000	25.206312	0.000866	20.723247
1228.373766	-2.990100	3.568900	-10.669000	25.246285	0.000865	20.711694
1229.370465	-3.006600	3.567100	-10.723000	25.273351	0.000863	20.710419
1230.373942	-3.007400	3.569400	-10.732000	25.277324	0.000864	20.711090
1231.370762	-2.990800	3.567900	-10.670000	25.271797	0.000864	20.720714
1232.370965	-3.007100	3.565600	-10.721000	25.296166	0.000861	20.711989
1233.371744	-2.992000	3.567400	-10.672000	25.296263	0.000862	20.711613
1234.373778	-2.994200	3.567300	-10.681000	25.304022	0.000860	20.703756
1235.375223	-3.006300	3.566500	-10.719000	25.309259	0.000858	20.692891
1236.370232	-2.989400	3.567000	-10.662000	25.303413	0.000860	20.707886
1237.372463	-2.985200	3.567700	-10.649000	25.272822	0.000860	20.688076
1238.371551	-2.986000	3.565500	-10.645000	25.277586	0.000860	20.696179
1239.372418	-3.017400	3.564400	-10.754000	25.290712	0.000859	20.703193
1240.369563	-3.021900	3.564100	-10.770000	25.270909	0.000858	20.700854
1241.371696	-2.980200	3.564800	-10.623000	25.294245	0.000858	20.693938
1242.374238	-2.988800	3.564300	-10.652000	25.294311	0.000857	20.715343
1243.375188	-2.999800	3.564300	-10.690000	25.316563	0.000856	20.698803
1244.376896	-2.990600	3.564200	-10.657000	25.313747	0.000856	20.700717
1245.385751	-2.979000	3.562800	-10.612000	25.298586	0.000856	20.690236
1246.379879	-2.987900	3.563900	-10.647000	25.281658	0.000854	20.716390
1247.372401	-3.013600	3.561600	-10.732000	25.226224	0.000855	20.694872
1248.375106	-3.018900	3.561000	-10.749000	25.229408	0.000853	20.690007
1249.376228	-2.984700	3.561900	-10.630000	25.218244	0.000853	20.699189
1250.380835	-2.968600	3.563300	-10.578000	25.225972	0.000850	20.687980
1251.376798	-2.999800	3.562400	-10.685000	25.229205	0.000851	20.682216
1252.379827	-2.992300	3.561800	-10.658000	25.292163	0.000853	20.708918
1253.376834	-3.026300	3.560100	-10.773000	25.296714	0.000852	20.687882
1254.375026	-2.970200	3.561100	-10.576000	25.292009	0.000852	20.687899
1255.383780	-2.988900	3.560700	-10.641000	25.287157	0.000850	20.700572
1256.375816	-2.956300	3.562500	-10.531000	25.260889	0.000850	20.701700
1257.383775	-2.981700	3.560100	-10.615000	25.191285	0.000851	20.696779
1258.378174	-3.001100	3.558800	-10.680000	25.183077	0.000848	20.679054
1259.380791	-2.984000	3.558800	-10.619000	25.157972	0.000849	20.680403
1260.384273	-2.991500	3.559000	-10.646000	25.127817	0.000849	20.690909
1261.381639	-3.006300	3.559200	-10.699000	25.145464	0.000847	20.682546
1262.378868	-2.996300	3.557500	-10.658000	25.175073	0.000846	20.680976
1263.377597	-3.005500	3.556800	-10.690000	25.201881	0.000846	20.700305
1264.376415	-3.006500	3.558000	-10.695000	25.248718	0.000844	20.677624
1265.377512	-3.002600	3.556700	-10.677000	25.286712	0.000846	20.676416
1266.383055	-3.000700	3.555500	-10.668000	25.306375	0.000843	20.687150
1267.383802	-2.998500	3.555900	-10.661000	25.264963	0.000845	20.684927
1268.382486	-2.994400	3.557200	-10.650000	25.233077	0.000847	20.688949
1269.383800	-2.993500	3.556200	-10.645000	25.208388	0.000844	20.693086
1270.383071	-2.982500	3.556900	-10.607000	25.192306	0.000843	20.688794
1271.383477	-2.997100	3.555000	-10.654000	25.177217	0.000842	20.676490
1272.381493	-3.001700	3.553600	-10.666000	25.142756	0.000843	20.673187
1273.387387	-3.006300	3.554900	-10.686000	25.146125	0.000842	20.675148
1274.383447	-2.977000	3.555100	-10.582000	25.164220	0.000840	20.670553
1275.388751	-3.002500	3.554400	-10.671000	25.168635	0.000840	20.683047
1276.385907	-3.011700	3.553300	-10.700000	25.190686	0.000840	20.687168
1277.390073	-2.994000	3.553500	-10.638000	25.233965	0.000840	20.671347
1278.388022	-3.010400	3.554000	-10.698000	25.258320	0.000836	20.673988
1279.388270	-2.965100	3.553900	-10.537000	25.245520	0.000836	20.685794
1280.389591	-2.998000	3.552700	-10.649000	25.213772	0.000838	20.652969
1281.387844	-2.999000	3.552900	-10.654000	25.181534	0.000837	20.660433
1282.390729	-3.028000	3.551200	-10.751000	25.201370	0.000838	20.673711
1283.390969	-3.002400	3.550700	-10.658000	25.209130	0.000836	20.662060
1284.390024	-3.014100	3.550800	-10.702000	25.235830	0.000836	20.676539
1285.389978	-3.019900	3.550500	-10.721000	25.244624	0.000836	20.662133
1286.388344	-2.973100	3.552400	-10.560000	25.260821	0.000835	20.656109
1287.403647	-3.005600	3.550600	-10.671000	25.306759	0.000835	20.669517
1288.391706	-2.996500	3.551000	-10.640000	25.317345	0.000833	20.670662
1289.392009	-3.007200	3.549200	-10.672000	25.322637	0.000834	20.676451
1290.391952	-2.989700	3.551600	-10.618000	25.309316	0.000833	20.666868
1291.392285	-2.998200	3.548800	-10.639000	25.353056	0.000835	20.652463
1292.391264	-2.984400	3.550100	-10.595000	25.324299	0.000834	20.657728
1293.394136	-3.007900	3.547900	-10.671000	25.323606	0.000835	20.691175
1294.390898	-2.991900	3.548900	-10.618000	25.323900	0.000832	20.673451
1295.388262	-3.048900	3.545300	-10.808000	25.338889	0.000832	20.658627
1296.388319	-2.990000	3.548300	-10.608000	25.313112	0.000831	20.661669
1297.389276	-2.997200	3.548500	-10.634000	25.308813	0.000829	20.658775
1298.397648	-2.998100	3.547200	-10.634000	25.276594	0.000828	20.665782
1299.390633	-2.999000	3.545500	-10.631000	25.281097	0.000830	20.642799
1300.399556	-2.991600	3.547400	-10.611000	25.278231	0.000827	20.657942
1301.396559	-2.962400	3.547300	-10.507000	25.259796	0.000830	20.640853
1302.391093	-2.986800	3.545600	-10.589000	25.296282	0.000827	20.654254
1303.395749	-2.987400	3.545600	-10.591000	25.318869	0.000827	20.646586
1304.396015	-3.012400	3.544300	-10.676000	25.350754	0.000825	20.665800
1305.397770	-3.012200	3.544100	-10.675000	25.361867	0.000825	20.660362
1306.396980	-3.002600	3.545600	-10.645000	25.398178	0.000826	20.662210
1307.395161	-2.979100	3.544200	-10.557000	25.389427	0.000825	20.655318
1308.392226	-2.984700	3.544000	-10.577000	25.383907	0.000824	20.649301
1309.394146	-3.020000	3.542400	-10.697000	25.377663	0.000823	20.646350
1310.395871	-3.006200	3.542300	-10.648000	25.385096	0.000826	20.671360
1311.398086	-3.006100	3.542200	-10.647000	25.387107	0.000825	20.673380
1312.395841	-2.986700	3.544000	-10.583000	25.363171	0.000822	20.648869
1313.397178	-3.014400	3.541600	-10.674000	25.349477	0.000821	20.651714
1314.392365	-2.994400	3.541400	-10.604000	25.339584	0.000822	20.660748
1315.402395	-3.020900	3.542000	-10.699000	25.342509	0.000820	20.666056
1316.396911	-3.008500	3.540900	-10.652000	25.347165	0.000822	20.661721
1317.393510	-3.007800	3.541600	-10.650000	25.354989	0.000820	20.678589
1318.395009	-2.997900	3.539300	-10.609000	25.391000	0.000820	20.656898
1319.400431	-2.996900	3.539300	-10.605000	25.402497	0.000818	20.651847
1320.401904	-2.999700	3.538600	-10.613000	25.404516	0.000815	20.662884
1321.398047	-2.970400	3.539700	-10.513000	25.407740	0.000817	20.672287
1322.402291	-2.987900	3.540600	-10.579000	25.348535	0.000817	20.669737
1323.400600	-2.990500	3.538800	-10.582000	25.344212	0.000814	20.661127
1324.399485	-3.000900	3.539400	-10.621000	25.317238	0.000816	20.670081
1325.401377	-2.991300	3.539400	-10.585000	25.319281	0.000815	20.660751
1326.401398	-3.001500	3.538200	-10.619000	25.339035	0.000814	20.668732
1327.398424	-3.008900	3.538400	-10.646000	25.312355	0.000814	20.655219
1328.396710	-3.012000	3.534800	-10.646000	25.316441	0.000815	20.676393
1329.399127	-3.021900	3.535700	-10.683000	25.333564	0.000815	20.655177
1330.400642	-2.986600	3.537200	-10.563000	25.346957	0.000814	20.676214
1331.402342	-3.002500	3.537400	-10.620000	25.346926	0.000812	20.659111
1332.397618	-3.006800	3.537100	-10.634000	25.381146	0.000813	20.653167
1333.402959	-2.983500	3.535400	-10.547000	25.399789	0.000812	20.680899
1334.404579	-2.997400	3.535400	-10.596000	25.403413	0.000810	20.653715
1335.405741	-2.980700	3.535300	-10.536000	25.415047	0.000810	20.678676
1336.412215	-2.987100	3.534800	-10.558000	25.447344	0.000809	20.664165
1337.403586	-2.977900	3.534500	-10.525000	25.457341	0.000809	20.662823
1338.408283	-3.004600	3.534200	-10.618000	25.438104	0.000808	20.662472
1339.405609	-3.010400	3.533800	-10.636000	25.452808	0.000806	20.657322
1340.409565	-3.030300	3.531100	-10.699000	25.442004	0.000808	20.682512
1341.408855	-2.998500	3.533600	-10.594000	25.436306	0.000806	20.683902
1342.413728	-2.983800	3.533500	-10.542000	25.478508	0.000808	20.679814
1343.409021	-3.004400	3.532100	-10.610000	25.469260	0.000807	20.664362
1344.408651	-3.008400	3.531100	-10.622000	25.484468	0.000807	20.654027
1345.407850	-3.014900	3.531300	-10.645000	25.442762	0.000807	20.658141
1346.407562	-2.983700	3.533300	-10.540000	25.406949	0.000805	20.693305
1347.411311	-3.018500	3.530500	-10.655000	25.383290	0.000805	20.662433
1348.408141	-3.000000	3.532200	-10.596000	25.373733	0.000805	20.682237
1349.412757	-3.012300	3.530700	-10.634000	25.410720	0.000802	20.662949
1350.410919	-2.996300	3.530200	-10.577000	25.440688	0.000803	20.677871
1351.412199	-3.009700	3.528300	-10.618000	25.441087	0.000803	20.674952
1352.413580	-3.011600	3.528200	-10.625000	25.444791	0.000801	20.672507
1353.412778	-3.006700	3.527400	-10.605000	25.450849	0.000802	20.672426
1354.412830	-2.987800	3.529000	-10.544000	25.444329	0.000802	20.647859
1355.414417	-2.966000	3.529000	-10.465000	25.434046	0.000801	20.685426
1356.410973	-3.016500	3.527800	-10.640000	25.460456	0.000802	20.674014
1357.417902	-3.015100	3.526100	-10.630000	25.452552	0.000798	20.665601
1358.416390	-3.000900	3.528200	-10.587000	25.466343	0.000801	20.688461
1359.414766	-2.997700	3.527600	-10.574000	25.513780	0.000799	20.689157
1360.413260	-3.013100	3.525900	-10.622000	25.539944	0.000799	20.689827
1361.417189	-3.025700	3.525400	-10.665000	25.516459	0.000797	20.694692
1362.415729	-2.997700	3.526900	-10.572000	25.513601	0.000797	20.681390
1363.415406	-3.027600	3.525100	-10.671000	25.497971	0.000798	20.677073
1364.416704	-2.990300	3.525800	-10.542000	25.465783	0.000798	20.678889
1365.415002	-3.010100	3.524400	-10.608000	25.436858	0.000795	20.666437
1366.415960	-2.988400	3.527000	-10.539000	25.403129	0.000798	20.676666
1367.417668	-2.994900	3.524800	-10.554000	25.383419	0.000796	20.688169
1368.415389	-2.992600	3.524300	-10.545000	25.374992	0.000795	20.677337
1369.421373	-2.987000	3.524900	-10.528000	25.396819	0.000795	20.685503
1370.416859	-3.003100	3.522300	-10.576000	25.417638	0.000792	20.700720
1371.420378	-2.998900	3.523400	-10.564000	25.430061	0.000792	20.677632
1372.420603	-2.991000	3.522200	-10.534000	25.409830	0.000792	20.688138
1373.420280	-3.006600	3.521800	-10.587000	25.398228	0.000792	20.686919
1374.424569	-3.026000	3.521000	-10.653000	25.417833	0.000791	20.667248
1375.421531	-3.000100	3.521600	-10.563000	25.414699	0.000792	20.673111
1376.423535	-3.009300	3.522300	-10.598000	25.397424	0.000793	20.678998
1377.421921	-3.022400	3.520000	-10.636000	25.375010	0.000791	20.677828
1378.419498	-3.005800	3.520600	-10.581000	25.369612	0.000789	20.684737
1379.419373	-3.002800	3.520300	-10.569000	25.351024	0.000788	20.704007
1380.421733	-3.007000	3.517900	-10.577000	25.377192	0.000789	20.707998
1381.418711	-3.005800	3.520000	-10.579000	25.393394	0.000790	20.683013
1382.420684	-3.005400	3.520100	-10.578000	25.389665	0.000788	20.679743
1383.421642	-2.993700	3.521300	-10.540000	25.391229	0.000788	20.681313
1384.424684	-3.004300	3.518900	-10.571000	25.392320	0.000789	20.697109
1385.428874	-3.015100	3.517800	-10.605000	25.372431	0.000787	20.700372
1386.422204	-2.992200	3.519900	-10.531000	25.351857	0.000785	20.687772
1387.422015	-3.014600	3.517700	-10.603000	25.350912	0.000786	20.699153
1388.422661	-3.000900	3.518000	-10.556000	25.382894	0.000785	20.683849
1389.418888	-2.999700	3.518300	-10.553000	25.381704	0.000784	20.699251
1390.420743	-2.998700	3.515700	-10.542000	25.352867	0.000785	20.699694
1391.418722	-3.002100	3.515800	-10.552000	25.354008	0.000783	20.698468
1392.423176	-3.005600	3.515400	-10.564000	25.338750	0.000782	20.697846
1393.420569	-2.976300	3.516800	-10.466000	25.334045	0.000782	20.703554
1394.426181	-3.000600	3.515100	-10.546000	25.281601	0.000783	20.696416
1395.427523	-2.988400	3.515700	-10.506000	25.263778	0.000782	20.696539
1396.426981	-2.997500	3.515100	-10.535000	25.206202	0.000782	20.684727
1397.424081	-3.022100	3.513500	-10.617000	25.182342	0.000779	20.705819
1398.424176	-2.995900	3.514500	-10.528000	25.199061	0.000782	20.684670
1399.421557	-3.006700	3.512800	-10.560000	25.241990	0.000781	20.679405
1400.425160	-3.009000	3.512700	-10.569000	25.269487	0.000779	20.692314
1401.425959	-3.009600	3.512300	-10.570000	25.304801	0.000779	20.698373
1402.425319	-3.002500	3.512800	-10.546000	25.326475	0.000778	20.687417
1403.426669	-3.012500	3.511200	-10.577000	25.351870	0.000780	20.702012
1404.424940	-3.011900	3.511800	-10.577000	25.370189	0.000777	20.716613
1405.425687	-2.978000	3.511600	-10.456000	25.394247	0.000778	20.708053
1406.431829	-2.986700	3.511600	-10.487000	25.385852	0.000778	20.724281
1407.425595	-3.004600	3.512100	-10.551000	25.379528	0.000776	20.714137
1408.428417	-3.022000	3.511100	-10.609000	25.345301	0.000774	20.710589
1409.426921	-2.968800	3.512100	-10.426000	25.354616	0.000777	20.704295
1410.424250	-2.998200	3.510400	-10.523000	25.344584	0.000775	20.712714
1411.426151	-2.993800	3.509200	-10.505000	25.380294	0.000777	20.690248
1412.430718	-3.024500	3.508600	-10.610000	25.388542	0.000774	20.726982
1413.427257	-2.994700	3.508900	-10.507000	25.432481	0.000775	20.727007
1414.428075	-2.994400	3.509700	-10.509000	25.442764	0.000773	20.711727
1415.428117	-3.007800	3.507200	-10.548000	25.464068	0.000772	20.700877
1416.430986	-3.022600	3.506900	-10.598000	25.471648	0.000772	20.711808
1417.430227	-2.990200	3.509100	-10.492000	25.418861	0.000771	20.710958
1418.430822	-3.015200	3.506100	-10.570000	25.435388	0.000770	20.727555
1419.430797	-2.990300	3.507000	-10.486000	25.413335	0.000769	20.716789
1420.429413	-2.982400	3.507700	-10.460000	25.411502	0.000770	20.727751
1421.424503	-3.011600	3.505700	-10.557000	25.408766	0.000770	20.709356
1422.430862	-2.980900	3.506400	-10.451000	25.403376	0.000770	20.711056
1423.429865	-2.994800	3.506300	-10.499000	25.415671	0.000769	20.733361
1424.427168	-2.997700	3.505300	-10.507000	25.441593	0.000768	20.717189
1425.431648	-3.013200	3.505100	-10.560000	25.453390	0.000767	20.712914
1426.431535	-3.013200	3.504700	-10.559000	25.451883	0.000767	20.704762
1427.432930	-2.992200	3.504800	-10.487000	25.425489	0.000768	20.738478
1428.435527	-3.012200	3.503400	-10.550000	25.404093	0.000766	20.720312
1429.430718	-2.988200	3.503400	-10.467000	25.402614	0.000767	20.734474
1430.429250	-3.000100	3.502200	-10.506000	25.432492	0.000766	20.721801
1431.433466	-3.018700	3.501600	-10.569000	25.407742	0.000764	20.699317
1432.433386	-3.017200	3.501300	-10.563000	25.436881	0.000766	20.729528
1433.438358	-3.001300	3.504300	-10.516000	25.426801	0.000765	20.722725
1434.434763	-3.016200	3.500300	-10.557000	25.490024	0.000764	20.724572
1435.434606	-3.002300	3.501000	-10.510000	25.483928	0.000766	20.719398
1436.435627	-2.973800	3.501000	-10.410000	25.507462	0.000762	20.731179
1437.436927	-2.988300	3.500900	-10.460000	25.499240	0.000763	20.731931
1438.439291	-2.990100	3.500900	-10.466000	25.520910	0.000763	20.719553
1439.436626	-3.015600	3.498100	-10.547000	25.522270	0.000762	20.712384
1440.439949	-3.018800	3.499400	-10.563000	25.502440	0.000761	20.740361
1441.443833	-2.975300	3.500400	-10.413000	25.506193	0.000761	20.737491
1442.444853	-3.004200	3.499500	-10.510000	25.536760	0.000761	20.728833
1443.442678	-2.996700	3.498400	-10.483000	25.525502	0.000761	20.725587
1444.450284	-3.009500	3.498600	-10.528000	25.524907	0.000761	20.732577
1445.441247	-2.990500	3.497500	-10.458000	25.543615	0.000759	20.723863
1446.446635	-2.985900	3.497700	-10.441000	25.556551	0.000759	20.726423
1447.445261	-2.977100	3.497900	-10.413000	25.562868	0.000759	20.729922
1448.443941	-2.998900	3.496700	-10.485000	25.560776	0.000756	20.747737
1449.444595	-3.018500	3.496200	-10.553000	25.565921	0.000755	20.760016
1450.445563	-2.992200	3.496800	-10.463000	25.577650	0.000757	20.737182
1451.445290	-2.975000	3.497200	-10.404000	25.546888	0.000757	20.725254
1452.445555	-3.014700	3.495600	-10.536000	25.537519	0.000755	20.736234
1453.448077	-2.977500	3.495300	-10.406000	25.534581	0.000754	20.733757
1454.448623	-2.999800	3.495000	-10.482000	25.539432	0.000753	20.749535
1455.457518	-3.009900	3.495300	-10.520000	25.572359	0.000753	20.733764
1456.447806	-2.985600	3.495200	-10.433000	25.566784	0.000754	20.741442
1457.452362	-3.010200	3.493200	-10.513000	25.576577	0.000752	20.737526
1458.448925	-2.997000	3.493100	-10.467000	25.522445	0.000752	20.727733
1459.448706	-2.994400	3.493100	-10.458000	25.504633	0.000753	20.759633
1460.453459	-3.024600	3.492500	-10.562000	25.535469	0.000751	20.719476
1461.447988	-2.999300	3.492000	-10.473000	25.544790	0.000750	20.752071
1462.455447	-3.012400	3.492000	-10.517000	25.560395	0.000752	20.758260
1463.451614	-3.000000	3.492600	-10.477000	25.575569	0.000752	20.762594
1464.451201	-2.990800	3.491700	-10.443000	25.572534	0.000749	20.768080
1465.451975	-2.979100	3.492200	-10.403000	25.561479	0.000748	20.774048
1466.454776	-2.994700	3.491800	-10.455000	25.588611	0.000747	20.740603
1467.454680	-3.038400	3.488000	-10.597000	25.561105	0.000749	20.746170
1468.450252	-2.981400	3.490800	-10.406000	25.532126	0.000749	20.749310
1469.455497	-2.988700	3.489400	-10.428000	25.505164	0.000747	20.750209
1470.450853	-2.991500	3.488600	-10.435000	25.489625	0.000745	20.754519
1471.457582	-2.991700	3.488200	-10.435000	25.468874	0.000746	20.767820
1472.454852	-2.994000	3.490100	-10.449000	25.491692	0.000745	20.762285
1473.461947	-3.005900	3.487600	-10.483000	25.488135	0.000744	20.757765
1474.458018	-3.002100	3.488600	-10.473000	25.496137	0.000747	20.771965
1475.457839	-2.985700	3.487900	-10.413000	25.512289	0.000745	20.753571
1476.457232	-2.991400	3.487600	-10.432000	25.505727	0.000744	20.755991
1477.456370	-3.005100	3.487300	-10.479000	25.473043	0.000744	20.753515
1478.457036	-2.985700	3.487700	-10.413000	25.471186	0.000743	20.753072
1479.457610	-3.003900	3.486300	-10.470000	25.434496	0.000742	20.761748
1480.459115	-2.995000	3.486600	-10.441000	25.463306	0.000742	20.771712
1481.464146	-2.991600	3.485800	-10.427000	25.468143	0.000741	20.769931
1482.462127	-2.982400	3.486700	-10.398000	25.479027	0.000742	20.763318
1483.460127	-3.007600	3.483500	-10.476000	25.505402	0.000742	20.772734
1484.469938	-2.993300	3.484700	-10.430000	25.529076	0.000741	20.752412
1485.459970	-3.026000	3.483300	-10.540000	25.576038	0.000740	20.758797
1486.455875	-2.997600	3.484200	-10.443000	25.558471	0.000740	20.766760
1487.465355	-3.012300	3.483900	-10.494000	25.548483	0.000738	20.752461
1488.460648	-2.992000	3.483600	-10.422000	25.544251	0.000739	20.778083
1489.463152	-3.024900	3.481800	-10.531000	25.546108	0.000738	20.776155
1490.459248	-2.986200	3.482300	-10.398000	25.566435	0.000738	20.775231
1491.467317	-2.991900	3.481800	-10.415000	25.569446	0.000737	20.772091
1492.461937	-2.999400	3.481100	-10.439000	25.572002	0.000736	20.767546
1493.464027	-3.010900	3.479400	-10.475000	25.614818	0.000735	20.774986
1494.462760	-2.985400	3.480800	-10.391000	25.632849	0.000735	20.769861
1495.463303	-3.016000	3.480100	-10.495000	25.637000	0.000734	20.771185
1496.464201	-3.002700	3.480600	-10.449000	25.659066	0.000736	20.783390
1497.460075	-3.007400	3.479300	-10.463000	25.613241	0.000733	20.776246
1498.467980	-2.992000	3.479200	-10.408000	25.622113	0.000734	20.777571
1499.462326	-2.979400	3.480200	-10.367000	25.612223	0.000733	20.764319
1500.466974	-3.015600	3.477400	-10.484000	25.544979	0.000732	20.774072
1501.465191	-3.017800	3.477900	-10.494000	25.550123	0.000731	20.770704
1502.471023	-2.994800	3.478900	-10.417000	25.516846	0.000731	20.785175
1503.466608	-3.024500	3.476400	-10.514000	25.577206	0.000732	20.784153
1504.469324	-2.992700	3.477100	-10.405000	25.537327	0.000731	20.771603
1505.464280	-3.001900	3.476500	-10.435000	25.568365	0.000731	20.779067
1506.464148	-3.007400	3.475500	-10.451000	25.550693	0.000730	20.767483
1507.461191	-3.000900	3.477000	-10.434000	25.566624	0.000729	20.775421
1508.461274	-2.996700	3.476500	-10.417000	25.569904	0.000729	20.791992
1509.466277	-2.992400	3.476000	-10.401000	25.591468	0.000728	20.772397
1510.466541	-2.982000	3.475300	-10.362000	25.580658	0.000730	20.791887
1511.467682	-2.989300	3.475200	-10.387000	25.547381	0.000729	20.793081
1512.463331	-3.010700	3.473300	-10.455000	25.548553	0.000729	20.777188
1513.464159	-2.989100	3.474200	-10.384000	25.586715	0.000727	20.793228
1514.469881	-3.003500	3.473900	-10.433000	25.559468	0.000728	20.777244
1515.470284	-2.998400	3.473600	-10.414000	25.559528	0.000726	20.790106
1516.470842	-2.997400	3.472400	-10.405000	25.544230	0.000726	20.805089
1517.470227	-2.981600	3.471700	-10.350000	25.531101	0.000728	20.762032
1518.466963	-2.986100	3.472300	-10.367000	25.513964	0.000726	20.800299
1519.467392	-2.978500	3.471500	-10.339000	25.532469	0.000725	20.774785
1520.473481	-2.979200	3.470700	-10.339000	25.531482	0.000724	20.787071
1521.470479	-2.984400	3.472200	-10.362000	25.533633	0.000724	20.796344
1522.469987	-2.986000	3.470200	-10.360000	25.534015	0.000725	20.784873
1523.466074	-2.980600	3.469600	-10.340000	25.575783	0.000722	20.798844
1524.469532	-2.975600	3.471900	-10.330000	25.608237	0.000722	20.791609
1525.473056	-3.005900	3.469100	-10.426000	25.601131	0.000722	20.829042
1526.471475	-3.018700	3.467400	-10.467000	25.606722	0.000722	20.793408
1527.474025	-2.975200	3.469300	-10.321000	25.598494	0.000722	20.786091
1528.469943	-2.986800	3.469100	-10.359000	25.612381	0.000721	20.814737
1529.473650	-2.998800	3.467800	-10.398000	25.608181	0.000722	20.796295
1530.474160	-2.980900	3.467300	-10.335000	25.663294	0.000720	20.793327
1531.475070	-3.014500	3.466100	-10.448000	25.668561	0.000721	20.788185
1532.474727	-2.993800	3.466900	-10.378000	25.707247	0.000720	20.823247
1533.473773	-2.979200	3.466500	-10.326000	25.686954	0.000718	20.816616
1534.475735	-2.998800	3.467100	-10.396000	25.716590	0.000720	20.819356
1535.476143	-3.005500	3.465800	-10.415000	25.749854	0.000719	20.802982
1536.476751	-2.998200	3.465600	-10.390000	25.712740	0.000717	20.801264
1537.476939	-3.002200	3.464300	-10.400000	25.686979	0.000717	20.777760
1538.477652	-3.002500	3.462700	-10.396000	25.679646	0.000715	20.814491
1539.477601	-2.992700	3.463800	-10.365000	25.695623	0.000715	20.823426
1540.476997	-3.017800	3.463100	-10.450000	25.666875	0.000716	20.801191
1541.476723	-3.015900	3.462600	-10.442000	25.638305	0.000714	20.823230
1542.477366	-3.034500	3.462400	-10.505000	25.657084	0.000715	20.818857
1543.477943	-3.006800	3.461000	-10.405000	25.676611	0.000714	20.826141
1544.475191	-3.016800	3.460800	-10.440000	25.704739	0.000716	20.817410
1545.473684	-3.001100	3.463100	-10.392000	25.677383	0.000716	20.813167
1546.475776	-3.019500	3.461100	-10.449000	25.664564	0.000714	20.816413
1547.479924	-2.985200	3.461500	-10.331000	25.673747	0.000712	20.816627
1548.473094	-2.998200	3.461800	-10.378000	25.669211	0.000712	20.821080
1549.475993	-2.986600	3.460600	-10.334000	25.677083	0.000714	20.819029
1550.479247	-2.974800	3.461200	-10.295000	25.674226	0.000713	20.815211
1551.479510	-3.004800	3.459500	-10.394000	25.642725	0.000713	20.848531
1552.479376	-2.989300	3.459200	-10.340000	25.653129	0.000709	20.806350
1553.479711	-2.978900	3.459300	-10.304000	25.625796	0.000711	20.809244
1554.482606	-3.007500	3.457800	-10.398000	25.630517	0.000711	20.809718
1555.481240	-2.996200	3.457400	-10.357000	25.633773	0.000709	20.831480
1556.482227	-3.006400	3.456500	-10.391000	25.627181	0.000710	20.820118
1557.483759	-3.012100	3.457100	-10.412000	25.597340	0.000708	20.846571
1558.488122	-2.992000	3.456400	-10.340000	25.587701	0.000709	20.835470
1559.480853	-2.998500	3.456900	-10.365000	25.583176	0.000710	20.822390
1560.484255	-3.014400	3.456300	-10.417000	25.605366	0.000707	20.834718
1561.482453	-3.008800	3.455300	-10.396000	25.620620	0.000706	20.829650
1562.483440	-3.003100	3.455500	-10.376000	25.607646	0.000706	20.843172
1563.483435	-3.025700	3.455400	-10.454000	25.595182	0.000705	20.826387
1564.483945	-3.005200	3.454400	-10.379000	25.582403	0.000707	20.827304
1565.492431	-2.996300	3.453500	-10.347000	25.572212	0.000704	20.845518
1566.481336	-3.007500	3.453400	-10.385000	25.597836	0.000705	20.823837
1567.480629	-2.995400	3.453300	-10.342000	25.618781	0.000704	20.827803
1568.481712	-2.997600	3.452900	-10.349000	25.622509	0.000703	20.809736
1569.482775	-2.997700	3.453100	-10.348000	25.613318	0.000704	20.825161
1570.484608	-3.009200	3.452600	-10.389000	25.615053	0.000703	20.807464
1571.485626	-2.983300	3.453500	-10.302000	25.617413	0.000703	20.834490
1572.484671	-3.001900	3.451500	-10.360000	25.647131	0.000700	20.811232
1573.492533	-2.996100	3.450800	-10.337000	25.655230	0.000700	20.834065
1574.498116	-2.997500	3.450700	-10.342000	25.689668	0.000700	20.843049
1575.485158	-2.986700	3.451200	-10.307000	25.698435	0.000701	20.822931
1576.488743	-2.985100	3.451300	-10.301000	25.692549	0.000700	20.832193
1577.485908	-3.010100	3.450300	-10.385000	25.697067	0.000699	20.826299
1578.489147	-2.995500	3.450800	-10.336000	25.705400	0.000699	20.803849
1579.496271	-2.995700	3.450000	-10.333000	25.731983	0.000698	20.808738
1580.490781	-3.002400	3.448800	-10.354000	25.715803	0.000699	20.827100
1581.499451	-3.020600	3.446900	-10.410000	25.755855	0.000699	20.810906
1582.495426	-2.996300	3.449300	-10.332000	25.770992	0.000698	20.823265
1583.489525	-3.032100	3.447100	-10.450000	25.796793	0.000697	20.810301
1584.495041	-3.004400	3.447000	-10.356000	25.792300	0.000698	20.801047
1585.496022	-3.021600	3.445700	-10.409000	25.778831	0.000696	20.803639
1586.491455	-2.984900	3.448900	-10.293000	25.747082	0.000697	20.789765
1587.491883	-2.990200	3.447900	-10.309000	25.716471	0.000695	20.799796
1588.493290	-2.988900	3.447000	-10.301000	25.683475	0.000696	20.801268
1589.494062	-2.990500	3.447200	-10.308000	25.695480	0.000695	20.797678
1590.492195	-3.000400	3.445800	-10.338000	25.703106	0.000694	20.811503
1591.491783	-2.976700	3.446700	-10.259000	25.707558	0.000695	20.794163
1592.491791	-3.007000	3.444700	-10.357000	25.751834	0.000693	20.803547
1593.494258	-2.993300	3.444900	-10.311000	25.799852	0.000694	20.801521
1594.493178	-3.007900	3.442900	-10.353000	25.787579	0.000693	20.811478
1595.499766	-3.000800	3.444100	-10.334000	25.781621	0.000691	20.806916
1596.494898	-3.000500	3.442900	-10.329000	25.760054	0.000690	20.796158
1597.497383	-3.000800	3.444500	-10.335000	25.780163	0.000691	20.801184
1598.496594	-3.022300	3.441800	-10.401000	25.750638	0.000688	20.779113
1599.493849	-3.002400	3.442500	-10.334000	25.746127	0.000688	20.790229
1600.498211	-3.006500	3.441200	-10.345000	25.738696	0.000689	20.796516
1601.503783	-2.991000	3.442500	-10.296000	25.741927	0.000689	20.772260
1602.494806	-3.003900	3.441200	-10.337000	25.731843	0.000689	20.809072
1603.497547	-2.995900	3.441600	-10.310000	25.741333	0.000687	20.795845
1604.498881	-2.983900	3.440200	-10.264000	25.760442	0.000688	20.777107
1605.498045	-3.004100	3.440300	-10.334000	25.777118	0.000686	20.786271
1606.498769	-2.973600	3.440100	-10.229000	25.764299	0.000688	20.796628
1607.498019	-3.005100	3.440600	-10.338000	25.772722	0.000686	20.814572
1608.497702	-3.004000	3.437900	-10.327000	25.753841	0.000687	20.806986
1609.499228	-2.982000	3.439300	-10.255000	25.706145	0.000685	20.775674
1610.499970	-2.991300	3.437500	-10.281000	25.721006	0.000684	20.776376
1611.502962	-2.987700	3.437900	-10.271000	25.720265	0.000683	20.774683
1612.502171	-3.012200	3.437900	-10.355000	25.722650	0.000684	20.787985
1613.501850	-2.997400	3.437400	-10.302000	25.697239	0.000685	20.779056
1614.502248	-2.988500	3.437700	-10.273000	25.707005	0.000684	20.776064
1615.500923	-3.009400	3.435100	-10.336000	25.679674	0.000683	20.765207
1616.504227	-2.994100	3.437200	-10.291000	25.669711	0.000682	20.790763
1617.503666	-3.004000	3.436100	-10.320000	25.694487	0.000682	20.769180
1618.506277	-2.983700	3.436100	-10.251000	25.714394	0.000681	20.774002
1619.506590	-2.982400	3.435300	-10.244000	25.705075	0.000681	20.786927
1620.504778	-2.972300	3.435700	-10.211000	25.736409	0.000681	20.770037
1621.504763	-2.991900	3.434500	-10.274000	25.759613	0.000680	20.786232
1622.508058	-2.980600	3.433800	-10.234000	25.756813	0.000680	20.761607
1623.507530	-2.989000	3.435000	-10.265000	25.753330	0.000680	20.763799
1624.508046	-2.985500	3.435000	-10.254000	25.747151	0.000680	20.789835
1625.504424	-3.015400	3.433200	-10.352000	25.755648	0.000680	20.784620
1626.505669	-3.005900	3.433500	-10.320000	25.762509	0.000679	20.767803
1627.507697	-3.005300	3.432400	-10.314000	25.767775	0.000677	20.783524
1628.528416	-2.981100	3.432200	-10.231000	25.759407	0.000678	20.771326
1629.509658	-3.010200	3.432000	-10.331000	25.747410	0.000680	20.751214
1630.511096	-2.999100	3.432100	-10.292000	25.711883	0.000677	20.769584
1631.511633	-3.002500	3.430500	-10.299000	25.680726	0.000677	20.770532
1632.512776	-2.999800	3.430600	-10.290000	25.664032	0.000676	20.763247
1633.513303	-2.990600	3.429500	-10.255000	25.643708	0.000676	20.759904
1634.515167	-2.998900	3.428500	-10.281000	25.623488	0.000677	20.745759
1635.513961	-2.979200	3.429800	-10.217000	25.636374	0.000675	20.784307
1636.515207	-2.979100	3.428800	-10.214000	25.652660	0.000674	20.771740
1637.515120	-2.996800	3.427300	-10.270000	25.664064	0.000674	20.750476
1638.516777	-2.983100	3.429500	-10.230000	25.646253	0.000673	20.759141
1639.514845	-2.990600	3.427000	-10.249000	25.679992	0.000672	20.757466
1640.514411	-2.988600	3.428900	-10.246000	25.676467	0.000675	20.758193
1641.515152	-3.009100	3.426900	-10.311000	25.725636	0.000673	20.762534
1642.513910	-2.993000	3.427500	-10.258000	25.724790	0.000672	20.759788
1643.515579	-3.002600	3.425700	-10.285000	25.744120	0.000673	20.777781
1644.518950	-2.994200	3.428100	-10.263000	25.733888	0.000673	20.763711
1645.517898	-3.027100	3.425500	-10.368000	25.704043	0.000671	20.773563
1646.516724	-3.024600	3.424100	-10.356000	25.704019	0.000673	20.753623
1647.515905	-3.013300	3.423800	-10.316000	25.705614	0.000670	20.778459
1648.516008	-3.023800	3.423800	-10.351000	25.712670	0.000669	20.763736
1649.521100	-3.015900	3.424000	-10.326000	25.711653	0.000669	20.766033
1650.522115	-3.005500	3.423900	-10.290000	25.742777	0.000667	20.760311
1651.517844	-3.025000	3.422900	-10.353000	25.760568	0.000668	20.756844
1652.519838	-3.004700	3.423000	-10.284000	25.769887	0.000669	20.757196
1653.514729	-2.998000	3.423100	-10.261000	25.800611	0.000666	20.747280
1654.519412	-2.999900	3.422100	-10.265000	25.788964	0.000667	20.744115
1655.517182	-3.020500	3.422400	-10.336000	25.756522	0.000667	20.748513
1656.517915	-2.992300	3.422100	-10.239000	25.727825	0.000666	20.749086
1657.521683	-3.022400	3.419900	-10.336000	25.712289	0.000666	20.753395
1658.520079	-3.006000	3.422400	-10.286000	25.697711	0.000665	20.756771
1659.517687	-3.010100	3.420100	-10.293000	25.725115	0.000664	20.743044
1660.518148	-2.976900	3.421000	-10.183000	25.728720	0.000661	20.756149
1661.517646	-3.003100	3.420800	-10.272000	25.707355	0.000662	20.762664
1662.520635	-3.000100	3.420000	-10.260000	25.739497	0.000662	20.751326
1663.517854	-3.005000	3.419400	-10.274000	25.771701	0.000662	20.756173
1664.516344	-2.998300	3.419800	-10.252000	25.753512	0.000661	20.754972
1665.520861	-3.011100	3.418600	-10.292000	25.760575	0.000661	20.770602
1666.521593	-3.001200	3.419000	-10.260000	25.705988	0.000659	20.754178
1667.516195	-3.006600	3.418900	-10.276000	25.694210	0.000660	20.743297
1668.520711	-3.009800	3.418500	-10.288000	25.725790	0.000659	20.750835
1669.518859	-2.996300	3.418900	-10.243000	25.731283	0.000658	20.744973
1670.522336	-3.006300	3.416600	-10.270000	25.751484	0.000659	20.753883
1671.524656	-2.992200	3.416500	-10.221000	25.737175	0.000660	20.753736
1672.524397	-3.004600	3.416500	-10.264000	25.756676	0.000657	20.761944
1673.521317	-3.007000	3.416700	-10.274000	25.753722	0.000658	20.752338
1674.523941	-2.991500	3.416700	-10.220000	25.782467	0.000658	20.755134
1675.523122	-3.010000	3.414900	-10.278000	25.779936	0.000658	20.745478
1676.529696	-2.998400	3.414700	-10.238000	25.778618	0.000656	20.748896
1677.523024	-3.000300	3.414800	-10.245000	25.733228	0.000656	20.745029
1678.522947	-2.985600	3.415800	-10.198000	25.722402	0.000654	20.738896
1679.522683	-2.983600	3.413900	-10.185000	25.697382	0.000655	20.733680
1680.524742	-2.994100	3.413400	-10.218000	25.699368	0.000654	20.747055
1681.525120	-2.998900	3.413900	-10.238000	25.711202	0.000656	20.756570
1682.524935	-2.992600	3.413700	-10.215000	25.744595	0.000652	20.764508
1683.524495	-3.003400	3.413100	-10.250000	25.751187	0.000652	20.755008
1684.520296	-3.023200	3.412900	-10.317000	25.748680	0.000653	20.731625
1685.527524	-2.993500	3.412500	-10.215000	25.753620	0.000651	20.743227
1686.521762	-2.995400	3.411300	-10.217000	25.750169	0.000653	20.728380
1687.523377	-2.979100	3.412200	-10.163000	25.702589	0.000651	20.731798
1688.526090	-2.982400	3.412400	-10.176000	25.678569	0.000651	20.724267
1689.528881	-2.989000	3.409700	-10.190000	25.654272	0.000652	20.751548
1690.526655	-3.012800	3.409800	-10.272000	25.640679	0.000651	20.747379
1691.525734	-3.015900	3.409600	-10.282000	25.615168	0.000651	20.722704
1692.525568	-2.986500	3.409600	-10.181000	25.591024	0.000649	20.719318
1693.529742	-3.017700	3.408400	-10.285000	25.588184	0.000649	20.742072
1694.527605	-2.994600	3.409700	-10.210000	25.570251	0.000651	20.722637
1695.525395	-2.998600	3.409200	-10.222000	25.600361	0.000646	20.736757
1696.522730	-3.000100	3.408000	-10.224000	25.627824	0.000650	20.724035
1697.526746	-2.989400	3.408700	-10.189000	25.650810	0.000648	20.705869
1698.527840	-3.020400	3.407600	-10.291000	25.655874	0.000647	20.728974
1699.526823	-3.022900	3.407800	-10.301000	25.691857	0.000647	20.721018
1700.524998	-2.987200	3.408200	-10.180000	25.720059	0.000649	20.712360
1701.526196	-3.032100	3.405200	-10.324000	25.731291	0.000646	20.726013
1702.531650	-3.008300	3.404900	-10.242000	25.739316	0.000646	20.715581
1703.532619	-3.014500	3.405300	-10.264000	25.718154	0.000646	20.743164
1704.529326	-2.981800	3.405600	-10.154000	25.719196	0.000646	20.727615
1705.526773	-2.990500	3.405900	-10.184000	25.754079	0.000644	20.726617
1706.529834	-3.007500	3.405000	-10.238000	25.772684	0.000646	20.725865
1707.530243	-3.029700	3.402900	-10.308000	25.800223	0.000642	20.725079
1708.531811	-2.994400	3.405300	-10.196000	25.844219	0.000643	20.722332
1709.536970	-2.982500	3.403400	-10.150000	25.852219	0.000643	20.722781
1710.531372	-3.011300	3.404000	-10.249000	25.861089	0.000643	20.729796
1711.528611	-3.010500	3.403000	-10.243000	25.820195	0.000642	20.733761
1712.531155	-2.962800	3.404800	-10.086000	25.808720	0.000641	20.726501
1713.528533	-2.976800	3.403100	-10.128000	25.824426	0.000642	20.718570
1714.532433	-2.991100	3.403000	-10.177000	25.826405	0.000641	20.712497
1715.532190	-2.991100	3.402400	-10.176000	25.809150	0.000640	20.700379
1716.536842	-3.021200	3.399900	-10.271000	25.790384	0.000639	20.732265
1717.531263	-3.000300	3.400600	-10.202000	25.785622	0.000638	20.735542
1718.534098	-2.975700	3.401800	-10.122000	25.784727	0.000639	20.718995
1719.534019	-2.996100	3.401000	-10.189000	25.790465	0.000638	20.717646
1720.534107	-3.023300	3.399800	-10.277000	25.807556	0.000636	20.717745
1721.528316	-3.023200	3.400500	-10.279000	25.831017	0.000637	20.705275
1722.529735	-3.018800	3.398600	-10.258000	25.835153	0.000636	20.732666
1723.530070	-3.014800	3.399200	-10.247000	25.818118	0.000636	20.715079
1724.532356	-3.004600	3.398300	-10.210000	25.796853	0.000636	20.733073
1725.538073	-3.003000	3.398300	-10.204000	25.803094	0.000635	20.724643
1726.533033	-2.991700	3.399400	-10.169000	25.799286	0.000634	20.706118
1727.529919	-2.997200	3.397800	-10.183000	25.767978	0.000634	20.722086
1728.528196	-2.989500	3.399000	-10.161000	25.795216	0.000634	20.715781
1729.530039	-3.006700	3.395900	-10.210000	25.791213	0.000634	20.723614
1730.534806	-2.988900	3.396800	-10.152000	25.807538	0.000633	20.713459
1731.532381	-2.998700	3.395400	-10.181000	25.794647	0.000630	20.712364
1732.533345	-2.993600	3.396200	-10.166000	25.753904	0.000630	20.717432
1733.535197	-3.005600	3.395600	-10.205000	25.717199	0.000632	20.707116
1734.536410	-3.023100	3.393900	-10.259000	25.668460	0.000631	20.712216
1735.535725	-3.020300	3.394400	-10.251000	25.700586	0.000630	20.733105
1736.537784	-3.015900	3.394800	-10.238000	25.690298	0.000631	20.718029
1737.535292	-2.978100	3.395400	-10.111000	25.730277	0.000629	20.701285
1738.534586	-2.992800	3.394900	-10.160000	25.752649	0.000629	20.718542
1739.532474	-2.980500	3.395200	-10.118000	25.801465	0.000628	20.709729
1740.538849	-2.991800	3.394400	-10.155000	25.811360	0.000628	20.703547
1741.539973	-2.990000	3.394700	-10.149000	25.809367	0.000629	20.709132
1742.540167	-3.013800	3.393000	-10.225000	25.798356	0.000628	20.696174
1743.541554	-3.003000	3.393600	-10.190000	25.751062	0.000625	20.707938
1744.538603	-2.998500	3.392500	-10.172000	25.750394	0.000626	20.711535
1745.539123	-2.978000	3.392900	-10.103000	25.701509	0.000624	20.676181
1746.542125	-2.992700	3.393000	-10.152000	25.643737	0.000623	20.707773
1747.541887	-3.011500	3.390500	-10.209000	25.666250	0.000623	20.691503
1748.540265	-2.997800	3.391300	-10.166000	25.638176	0.000623	20.692230
1749.546788	-2.993000	3.392300	-10.152000	25.662302	0.000623	20.706979
1750.542794	-3.024800	3.388900	-10.250000	25.705685	0.000624	20.716414
1751.540583	-3.004600	3.390000	-10.185000	25.760255	0.000622	20.688721
1752.544255	-2.983900	3.389600	-10.113000	25.767849	0.000621	20.671692
1753.544205	-3.004300	3.389700	-10.183000	25.776923	0.000620	20.697878
1754.539961	-3.012100	3.388400	-10.206000	25.768598	0.000619	20.706586
1755.544625	-3.016300	3.387500	-10.216000	25.790116	0.000622	20.685051
1756.545022	-2.978800	3.388400	-10.093000	25.772227	0.000619	20.681306
1757.545279	-3.008100	3.386500	-10.186000	25.774245	0.000618	20.705620
1758.541044	-2.991700	3.388400	-10.136000	25.755657	0.000619	20.705441
1759.545516	-3.004600	3.388300	-10.180000	25.750146	0.000618	20.684731
1760.540948	-3.008400	3.387400	-10.190000	25.756950	0.000619	20.697257
1761.545670	-3.002200	3.386800	-10.166000	25.739387	0.000619	20.681036
1762.549413	-2.996600	3.386000	-10.146000	25.714367	0.000619	20.696210
1763.545730	-2.992200	3.385500	-10.129000	25.684235	0.000615	20.708146
1764.545596	-2.994000	3.385800	-10.136000	25.694222	0.000618	20.682139
1765.546144	-2.994600	3.386800	-10.140000	25.686914	0.000616	20.679539
1766.555036	-3.013900	3.384800	-10.200000	25.698219	0.000615	20.679989
1767.545595	-2.992800	3.385000	-10.130000	25.720805	0.000617	20.683235
1768.545221	-2.975500	3.385000	-10.072000	25.768035	0.000613	20.681362
1769.547494	-3.021100	3.384100	-10.223000	25.780381	0.000614	20.676694
1770.548946	-2.982700	3.384700	-10.095000	25.784759	0.000613	20.687731
1771.548906	-2.996000	3.383300	-10.134000	25.766024	0.000612	20.687404
1772.548943	-3.008000	3.383200	-10.175000	25.748527	0.000611	20.684053
1773.553596	-2.988800	3.383200	-10.111000	25.693327	0.000614	20.672704
1774.549618	-3.000500	3.383200	-10.150000	25.701734	0.000611	20.690632
1775.550542	-3.008900	3.382800	-10.177000	25.726795	0.000611	20.683561
1776.550489	-3.010700	3.381300	-10.179000	25.789228	0.000609	20.686530
1777.551711	-3.021300	3.381900	-10.217000	25.781731	0.000609	20.691802
1778.550123	-3.014000	3.380900	-10.190000	25.800361	0.000609	20.670684
1779.555833	-2.984100	3.380300	-10.086000	25.815693	0.000608	20.664748
1780.554604	-3.030800	3.378400	-10.238000	25.832189	0.000610	20.671836
1781.554761	-2.998900	3.379900	-10.135000	25.826207	0.000608	20.688588
1782.554842	-2.996100	3.379800	-10.125000	25.867247	0.000608	20.687141
1783.555288	-3.040200	3.377900	-10.268000	25.856293	0.000609	20.686568
1784.555866	-2.986400	3.379000	-10.090000	25.846528	0.000608	20.680077
1785.554893	-3.008700	3.378400	-10.164000	25.870600	0.000607	20.676758
1786.560831	-2.994000	3.378000	-10.113000	25.866586	0.000608	20.670829
1787.557387	-3.016000	3.377400	-10.185000	25.888616	0.000604	20.683003
1788.556355	-2.999700	3.377300	-10.130000	25.881340	0.000605	20.671900
1789.554179	-2.977300	3.378500	-10.058000	25.873121	0.000606	20.660796
1790.555634	-2.991700	3.376900	-10.102000	25.874439	0.000604	20.672079
1791.554670	-3.006400	3.376100	-10.149000	25.896948	0.000604	20.668138
1792.555511	-3.012000	3.376200	-10.168000	25.898738	0.000604	20.683214
1793.554602	-2.977800	3.377600	-10.057000	25.877621	0.000601	20.675750
1794.553608	-2.999300	3.377000	-10.128000	25.873404	0.000604	20.660133
1795.554668	-3.005700	3.375500	-10.145000	25.852409	0.000603	20.666069
1796.554012	-2.976600	3.377300	-10.050000	25.870394	0.000603	20.663273
1797.554581	-2.999400	3.375200	-10.123000	25.854021	0.000602	20.633545
1798.555099	-2.991400	3.374800	-10.094000	25.860115	0.000601	20.644884
1799.556397	-3.005500	3.374200	-10.140000	25.897402	0.000600	20.657688
1800.561736	-3.019700	3.374200	-10.188000	25.918023	0.000597	20.661334
1801.559387	-3.013700	3.374300	-10.167000	25.920676	0.000600	20.667794
1802.555858	-3.032700	3.374200	-10.232000	25.913506	0.000598	20.683351
1803.559677	-3.014900	3.372100	-10.165000	25.908258	0.000601	20.675708
1804.560037	-2.990500	3.374700	-10.091000	25.886131	0.000598	20.667703
1805.562068	-3.001500	3.372700	-10.123000	25.864810	0.000597	20.668570
1806.563616	-2.975200	3.372200	-10.032000	25.848720	0.000596	20.670899
1807.563730	-3.009600	3.371800	-10.145000	25.871377	0.000597	20.673270
1808.563817	-3.008700	3.370700	-10.141000	25.883715	0.000595	20.664801
1809.563360	-2.988300	3.371200	-10.072000	25.888662	0.000595	20.671194
1810.564212	-3.035500	3.370400	-10.228000	25.929130	0.000594	20.646887
1811.561834	-3.029500	3.369600	-10.207000	25.928903	0.000594	20.644761
1812.564458	-3.027400	3.369900	-10.200000	25.945201	0.000594	20.626520
1813.565586	-3.009500	3.369400	-10.139000	25.968432	0.000594	20.644646
1814.562977	-2.999400	3.370100	-10.107000	25.972876	0.000592	20.654801
1815.563396	-2.975200	3.370900	-10.028000	25.999231	0.000592	20.666582
1816.569596	-3.013000	3.368900	-10.150000	25.961524	0.000591	20.679435
1817.566250	-3.013000	3.367900	-10.147000	25.917411	0.000591	20.657400
1818.565513	-3.005400	3.367300	-10.119000	25.858835	0.000589	20.657825
1819.564463	-3.004500	3.367800	-10.117000	25.870481	0.000590	20.670474
1820.563221	-2.988100	3.368900	-10.066000	25.883127	0.000589	20.666108
1821.566931	-3.001600	3.367400	-10.107000	25.862667	0.000589	20.655985
1822.570562	-2.977600	3.368000	-10.027000	25.883103	0.000588	20.662764
1823.567505	-3.003700	3.366800	-10.111000	25.844773	0.000588	20.655078
1824.570104	-3.030000	3.364900	-10.194000	25.809704	0.000588	20.662051
1825.564220	-3.005200	3.365600	-10.114000	25.784533	0.000588	20.641505
1826.565959	-3.005300	3.365500	-10.113000	25.737727	0.000587	20.644277
1827.571411	-2.978100	3.365600	-10.021000	25.730474	0.000585	20.657857
1828.570718	-3.009600	3.364700	-10.126000	25.738125	0.000586	20.672182
1829.566411	-3.019200	3.363700	-10.154000	25.724736	0.000585	20.662051
1830.568989	-2.993100	3.364800	-10.070000	25.753889	0.000585	20.637276
1831.569698	-2.984700	3.365200	-10.043000	25.787949	0.000584	20.665329
1832.568670	-2.998600	3.364100	-10.086000	25.784767	0.000585	20.645060
1833.573119	-3.007100	3.363900	-10.115000	25.766130	0.000584	20.654790
1834.567998	-2.991300	3.362400	-10.057000	25.734160	0.000583	20.665827
1835.571610	-3.001600	3.363300	-10.094000	25.740955	0.000583	20.674075
1836.570611	-3.008100	3.363700	-10.118000	25.717026	0.000583	20.651935
1837.573454	-2.997200	3.362900	-10.079000	25.732206	0.000581	20.657225
1838.571254	-3.001300	3.362800	-10.092000	25.741280	0.000582	20.660650
1839.571558	-2.997700	3.363300	-10.081000	25.734052	0.000580	20.648647
1840.578020	-3.028700	3.360300	-10.175000	25.733661	0.000580	20.650151
1841.574246	-2.990800	3.363200	-10.059000	25.754658	0.000580	20.673141
1842.574564	-2.995000	3.361100	-10.065000	25.758931	0.000580	20.658465
1843.570550	-3.026500	3.359500	-10.165000	25.770439	0.000579	20.666232
1844.575451	-2.980000	3.361100	-10.015000	25.781124	0.000580	20.655627
1845.573211	-3.002700	3.361200	-10.091000	25.799436	0.000576	20.671178
1846.575864	-2.968900	3.360800	-9.977100	25.787569	0.000579	20.651669
1847.575311	-3.023400	3.359200	-10.155000	25.758774	0.000578	20.670637
1848.575671	-2.983000	3.359600	-10.021000	25.752711	0.000576	20.653165
1849.576118	-3.011900	3.358000	-10.114000	25.768719	0.000577	20.667350
1850.571244	-2.977900	3.358200	-10.000000	25.746687	0.000575	20.680308
1851.575990	-3.010700	3.358200	-10.110000	25.758219	0.000577	20.655379
1852.576665	-3.002700	3.357800	-10.082000	25.772177	0.000575	20.663711
1853.575366	-2.997600	3.357700	-10.065000	25.766219	0.000575	20.639231
1854.575530	-3.009700	3.356200	-10.100000	25.757299	0.000575	20.654929
1855.571821	-3.001500	3.356700	-10.074000	25.806269	0.000575	20.660497
1856.572642	-3.011100	3.358000	-10.110000	25.799293	0.000574	20.660602
1857.572118	-3.017200	3.355800	-10.124000	25.838576	0.000572	20.671614
1858.572052	-3.011600	3.355800	-10.105000	25.855779	0.000571	20.649064
1859.572557	-3.000900	3.355200	-10.068000	25.888853	0.000575	20.667118
1860.575003	-3.007700	3.354800	-10.089000	25.879819	0.000571	20.680329
1861.572810	-3.011400	3.355300	-10.103000	25.924241	0.000569	20.669479
1862.572999	-2.972500	3.356200	-9.975500	25.966295	0.000569	20.675219
1863.580496	-3.017300	3.353800	-10.118000	25.974595	0.000570	20.668857
1864.576569	-3.002500	3.353500	-10.068000	26.001405	0.000569	20.663076
1865.579871	-3.013100	3.353500	-10.102000	26.015018	0.000569	20.679125
1866.575898	-3.017000	3.353500	-10.116000	26.038744	0.000569	20.676884
1867.580489	-2.997400	3.353200	-10.050000	26.017580	0.000569	20.667000
1868.571391	-3.010400	3.352500	-10.091000	25.998678	0.000570	20.688788
1869.578484	-3.010700	3.351700	-10.089000	26.035049	0.000567	20.663213
1870.579391	-3.006200	3.351400	-10.074000	26.046546	0.000567	20.685199
1871.579600	-2.960500	3.352300	-9.923700	26.037832	0.000566	20.674545
1872.573906	-3.001900	3.351700	-10.061000	26.045676	0.000567	20.665356
1873.588092	-3.001500	3.351700	-10.058000	26.054202	0.000566	20.680562
1874.579123	-3.023200	3.350600	-10.129000	26.055317	0.000564	20.667931
1875.580690	-2.997200	3.350700	-10.041000	26.093143	0.000563	20.677014
1876.577984	-2.995000	3.350000	-10.032000	26.036220	0.000562	20.677668
1877.581237	-2.999000	3.350100	-10.046000	26.012900	0.000564	20.671307
1878.581017	-3.003000	3.350000	-10.059000	26.004716	0.000563	20.664980
1879.580691	-3.000800	3.349300	-10.049000	26.010404	0.000562	20.674014
1880.582403	-2.994200	3.349800	-10.030000	26.001835	0.000561	20.674889
1881.580573	-2.997200	3.348400	-10.035000	25.986383	0.000560	20.682599
1882.581845	-2.990800	3.349800	-10.017000	25.931238	0.000560	20.682673
1883.582283	-3.005100	3.348500	-10.062000	25.940278	0.000560	20.682747
1884.584409	-3.008200	3.347900	-10.069000	25.925924	0.000559	20.655995
1885.580262	-3.011700	3.347800	-10.082000	25.934573	0.000560	20.692189
1886.584961	-2.983300	3.346400	-9.982300	25.966212	0.000558	20.685567
1887.583607	-2.995900	3.347600	-10.028000	25.994984	0.000560	20.679860
1888.580675	-3.003900	3.345300	-10.047000	25.974480	0.000560	20.677752
1889.583435	-3.004100	3.346400	-10.050000	25.954242	0.000558	20.676385
1890.580809	-3.010700	3.346300	-10.074000	25.941166	0.000556	20.671784
1891.585329	-3.006500	3.345900	-10.059000	25.941516	0.000556	20.687309
1892.588529	-2.989400	3.345500	-10.000000	25.938488	0.000556	20.686639
1893.581513	-3.009600	3.345200	-10.067000	25.980842	0.000556	20.665177
1894.583684	-3.033600	3.345000	-10.146000	26.006345	0.000555	20.674204
1895.583379	-3.015500	3.342200	-10.077000	26.034807	0.000557	20.686206
1896.585113	-3.011100	3.344400	-10.070000	26.052349	0.000555	20.683916
1897.587274	-2.998300	3.343900	-10.025000	26.044977	0.000554	20.695476
1898.590606	-2.983600	3.343600	-9.975200	26.072470	0.000552	20.688960
1899.583755	-3.007800	3.342100	-10.051000	26.102721	0.000551	20.695648
1900.585565	-3.000600	3.342500	-10.029000	26.081160	0.000551	20.680621
1901.583743	-2.992200	3.342500	-10.001000	26.091940	0.000553	20.697145
1902.587954	-3.026200	3.341400	-10.111000	26.088270	0.000551	20.677334
1903.591557	-3.024200	3.339800	-10.100000	26.103283	0.000551	20.688626
1904.588415	-3.016600	3.340100	-10.074000	26.094796	0.000552	20.698592
1905.586090	-2.982100	3.342100	-9.965900	26.089483	0.000552	20.705582
1906.589762	-2.989100	3.342200	-9.988800	26.094104	0.000551	20.698845
1907.589447	-3.003400	3.341000	-10.033000	26.111393	0.000548	20.671169
1908.590791	-3.004100	3.340600	-10.034000	26.104934	0.000549	20.682223
1909.590982	-2.992300	3.339800	-9.993300	26.103119	0.000550	20.703162
1910.592124	-3.005100	3.340200	-10.036000	26.115266	0.000549	20.706358
1911.587244	-2.986700	3.340300	-9.974200	26.126941	0.000549	20.687742
1912.590697	-3.013400	3.337200	-10.055000	26.152674	0.000546	20.696056
1913.595263	-2.981700	3.338700	-9.953900	26.162926	0.000546	20.710152
1914.595920	-3.003700	3.337200	-10.023000	26.172811	0.000543	20.687840
1915.592854	-3.000500	3.337700	-10.014000	26.201325	0.000544	20.690415
1916.592553	-3.012100	3.337700	-10.053000	26.196135	0.000545	20.690415
1917.591705	-3.007500	3.337700	-10.037000	26.197624	0.000544	20.711353
1918.593971	-3.021500	3.336700	-10.080000	26.156572	0.000544	20.696179
1919.597201	-3.009800	3.336700	-10.043000	26.148721	0.000541	20.699196
1920.596797	-2.994700	3.336100	-9.989500	26.150567	0.000541	20.701051
1921.597175	-2.961900	3.337800	-9.884700	26.160378	0.000542	20.697633
1922.597602	-3.002300	3.336700	-10.017000	26.159801	0.000541	20.700847
1923.594645	-2.977500	3.335500	-9.930100	26.176048	0.000540	20.696309
1924.602581	-2.991600	3.336400	-9.980400	26.191717	0.000539	20.702098
1925.596654	-3.009000	3.334600	-10.033000	26.224397	0.000541	20.710756
1926.601498	-2.970300	3.335900	-9.907500	26.210249	0.000539	20.716928
1927.596955	-2.986800	3.334500	-9.958600	26.226714	0.000537	20.714982
1928.599361	-2.992800	3.334700	-9.979000	26.222940	0.000539	20.702653
1929.595304	-3.006800	3.333400	-10.022000	26.223404	0.000537	20.711655
1930.600912	-3.012200	3.333200	-10.038000	26.205970	0.000539	20.696031
1931.600394	-2.992700	3.333300	-9.974200	26.232198	0.000537	20.696783
1932.598872	-3.002100	3.333300	-10.005000	26.231279	0.000537	20.715301
1933.598755	-2.989000	3.331900	-9.957900	26.207687	0.000536	20.713404
1934.597501	-2.976700	3.331100	-9.914000	26.199567	0.000536	20.709038
1935.604807	-3.003100	3.329900	-9.999100	26.207117	0.000536	20.705245
1936.602438	-2.993600	3.331500	-9.972600	26.211518	0.000536	20.711564
1937.604847	-2.980900	3.331200	-9.928400	26.237193	0.000533	20.714132
1938.601859	-2.982400	3.330800	-9.932200	26.248265	0.000533	20.720043
1939.599757	-2.993400	3.330100	-9.967300	26.267739	0.000533	20.709741
1940.603272	-3.011200	3.328800	-10.022000	26.315344	0.000533	20.724866
1941.599442	-2.996400	3.328200	-9.971300	26.324447	0.000536	20.709358
1942.602696	-3.020800	3.329100	-10.055000	26.274264	0.000532	20.712505
1943.604883	-3.010600	3.328400	-10.019000	26.274044	0.000532	20.721294
1944.608377	-2.996000	3.329700	-9.975200	26.270448	0.000530	20.723844
1945.602763	-2.998600	3.327900	-9.978400	26.297642	0.000531	20.721775
1946.605930	-2.997900	3.327600	-9.974200	26.278371	0.000531	20.710468
1947.609019	-2.993900	3.328000	-9.963200	26.275663	0.000529	20.741887
1948.607966	-3.021700	3.326900	-10.052000	26.248751	0.000529	20.730490
1949.608006	-2.999800	3.327500	-9.981300	26.247165	0.000529	20.730792
1950.604555	-3.002700	3.327300	-9.989800	26.206855	0.000528	20.714466
1951.611106	-3.000400	3.326900	-9.980900	26.193699	0.000526	20.724954
1952.609279	-3.016400	3.326300	-10.032000	26.189705	0.000526	20.716672
1953.612707	-2.987100	3.325200	-9.931300	26.165640	0.000525	20.735639
1954.610759	-3.008500	3.325400	-10.002000	26.184961	0.000525	20.748891
1955.612378	-2.993400	3.324800	-9.951200	26.167649	0.000526	20.735762
1956.614465	-3.000600	3.325800	-9.978000	26.187573	0.000526	20.736342
1957.614299	-2.965400	3.325400	-9.860700	26.183952	0.000523	20.727487
1958.623164	-3.000700	3.323300	-9.971100	26.201687	0.000526	20.726342
1959.612178	-2.996900	3.323200	-9.957200	26.197391	0.000524	20.745734
1960.613924	-3.018100	3.323800	-10.031000	26.191663	0.000523	20.711527
1961.609550	-2.982400	3.323700	-9.910400	26.218306	0.000522	20.731664
1962.618300	-2.981900	3.323800	-9.910700	26.245754	0.000523	20.723209
1963.611768	-2.997500	3.321700	-9.956200	26.279977	0.000521	20.734369
1964.615533	-2.998800	3.323300	-9.964300	26.313710	0.000520	20.740294
1965.614783	-3.027900	3.321000	-10.055000	26.315751	0.000523	20.744717
1966.614161	-2.999500	3.321300	-9.961000	26.331890	0.000521	20.749083
1967.615270	-2.999500	3.320500	-9.958300	26.361564	0.000520	20.740498
1968.616680	-3.032900	3.319000	-10.065000	26.357017	0.000519	20.743989
1969.623287	-2.993700	3.320600	-9.939300	26.342423	0.000519	20.745444
1970.615274	-3.002900	3.320100	-9.969200	26.326976	0.000522	20.749834
1971.617982	-2.990700	3.320100	-9.928100	26.339796	0.000518	20.750864
1972.618762	-2.996600	3.319000	-9.944300	26.325495	0.000518	20.773476
1973.619666	-2.992200	3.318800	-9.928900	26.329717	0.000516	20.747372
1974.619806	-3.001800	3.318900	-9.961400	26.286457	0.000519	20.731872
1975.620948	-3.016300	3.318400	-10.007000	26.275483	0.000515	20.745975
1976.621180	-2.994700	3.317400	-9.934300	26.243130	0.000517	20.739540
1977.619820	-2.993700	3.316500	-9.927600	26.226403	0.000515	20.740274
1978.620415	-3.002200	3.317200	-9.958100	26.229625	0.000513	20.739245
1979.617820	-3.020400	3.314700	-10.010000	26.223173	0.000513	20.747935
1980.618866	-2.991500	3.316800	-9.920600	26.212866	0.000513	20.726196
1981.616418	-3.001800	3.316300	-9.954100	26.229346	0.000512	20.745603
1982.618297	-2.999400	3.315800	-9.944700	26.230275	0.000513	20.747011
1983.617869	-2.974100	3.316700	-9.862500	26.255185	0.000511	20.739800
1984.624371	-3.021600	3.314800	-10.015000	26.266117	0.000511	20.736562
1985.620552	-3.008900	3.312900	-9.966900	26.317293	0.000510	20.728248
1986.620520	-3.016400	3.315700	-10.001000	26.311331	0.000512	20.745490
1987.624634	-2.988900	3.315600	-9.908900	26.328169	0.000511	20.730169
1988.620014	-3.020700	3.314300	-10.011000	26.316601	0.000511	20.756952
1989.627489	-2.983300	3.315100	-9.889100	26.353010	0.000509	20.760826
1990.622605	-2.991100	3.313400	-9.910000	26.359168	0.000509	20.752315
1991.628535	-3.001700	3.314400	-9.947500	26.363113	0.000508	20.753910
1992.624408	-2.985600	3.314100	-9.893000	26.330137	0.000507	20.759175
1993.625581	-3.020100	3.311600	-9.998400	26.326191	0.000507	20.756158
1994.626469	-2.971400	3.313900	-9.846000	26.351140	0.000506	20.738557
1995.620229	-2.979900	3.313200	-9.871900	26.365000	0.000505	20.746797
1996.626956	-2.981200	3.311500	-9.871600	26.376834	0.000504	20.764855
1997.628088	-3.000100	3.311800	-9.934000	26.358322	0.000502	20.755733
1998.626600	-3.000300	3.311400	-9.934200	26.344298	0.000505	20.742112
1999.624468	-3.014700	3.311300	-9.980900	26.276634	0.000504	20.739545
2000.630877	-3.012300	3.311200	-9.973200	26.269679	0.000500	20.771911
2001.624431	-2.992400	3.311100	-9.906700	26.282027	0.000503	20.755396
2002.628185	-3.008900	3.308800	-9.954600	26.275771	0.000501	20.763808
2003.628902	-3.017600	3.309100	-9.983700	26.277805	0.000500	20.744515
2004.628103	-3.022300	3.307700	-9.996200	26.268369	0.000502	20.766327
2005.631144	-3.014500	3.308700	-9.972200	26.296986	0.000501	20.768533
2006.630946	-3.004600	3.308300	-9.939500	26.334559	0.000497	20.756981
2007.631939	-3.000500	3.307800	-9.924500	26.335803	0.000499	20.772456
2008.631127	-3.000600	3.308500	-9.925200	26.328237	0.000498	20.764852
2009.631578	-3.017800	3.306900	-9.978000	26.322128	0.000497	20.783369
2010.626039	-2.992500	3.308200	-9.899100	26.374025	0.000497	20.767248
2011.632564	-2.982400	3.308100	-9.865500	26.390911	0.000498	20.768098
2012.631722	-3.015900	3.306100	-9.969800	26.406137	0.000496	20.768228
2013.632174	-3.001100	3.306400	-9.922000	26.399427	0.000494	20.774287
2014.630694	-3.013600	3.304600	-9.958100	26.396433	0.000494	20.773174
2015.631982	-3.022600	3.304300	-9.985900	26.414441	0.000494	20.780841
2016.635631	-3.003700	3.304500	-9.924300	26.405949	0.000495	20.780367
2017.631179	-3.024600	3.304500	-9.993500	26.460770	0.000494	20.763395
2018.633313	-3.010200	3.304700	-9.946600	26.447471	0.000492	20.784642
2019.628824	-2.984300	3.303900	-9.857500	26.435701	0.000492	20.768545
2020.631595	-2.983500	3.304000	-9.856400	26.402483	0.000492	20.786841
2021.634259	-3.004800	3.303000	-9.922800	26.369728	0.000492	20.782369
2022.633562	-2.987900	3.302900	-9.867600	26.349871	0.000491	20.778060
2023.636378	-3.002500	3.302200	-9.913200	26.357769	0.000489	20.770351
2024.634842	-2.992800	3.302300	-9.882300	26.361348	0.000489	20.765887
2025.635470	-3.008300	3.302400	-9.934500	26.384986	0.000488	20.794385
2026.637171	-3.012800	3.302200	-9.946200	26.413886	0.000488	20.774119
2027.639300	-3.009500	3.301900	-9.935900	26.429405	0.000488	20.766009
2028.631879	-2.989400	3.301400	-9.867000	26.426728	0.000489	20.789872
2029.635979	-2.986900	3.301200	-9.859700	26.440441	0.000488	20.790378
2030.637500	-2.980100	3.301000	-9.835800	26.473023	0.000489	20.782350
2031.638970	-3.005100	3.299600	-9.914600	26.485483	0.000487	20.795823
2032.637386	-2.994200	3.300400	-9.881400	26.452909	0.000485	20.798643
2033.647762	-3.012800	3.298400	-9.935800	26.458724	0.000487	20.765132
2034.642670	-2.987900	3.299000	-9.855600	26.424514	0.000484	20.770577
2035.638268	-3.014000	3.298300	-9.939900	26.366909	0.000485	20.804193
2036.638932	-3.020000	3.297000	-9.955900	26.349844	0.000484	20.771869
2037.636364	-3.013300	3.296800	-9.932900	26.342897	0.000483	20.784327
2038.638875	-2.985100	3.297400	-9.841700	26.341611	0.000481	20.807217
2039.647555	-2.988500	3.297200	-9.852700	26.361825	0.000480	20.775849
2040.638795	-2.999900	3.297000	-9.890600	26.361751	0.000482	20.807070
2041.638621	-2.999400	3.296500	-9.886600	26.369129	0.000479	20.805001
2042.640134	-2.992200	3.296000	-9.861300	26.368633	0.000480	20.795968
2043.641829	-3.003300	3.296200	-9.898400	26.349412	0.000479	20.803677
2044.640022	-3.003400	3.295300	-9.895700	26.346288	0.000478	20.782519
2045.639079	-3.011300	3.295000	-9.921300	26.354812	0.000480	20.801517
2046.637200	-2.998900	3.293800	-9.877100	26.369168	0.000479	20.804566
2047.642288	-3.003000	3.293900	-9.890700	26.355828	0.000478	20.797798
2048.648238	-2.988300	3.294100	-9.843200	26.390244	0.000477	20.795402
2049.641889	-2.966700	3.293800	-9.770300	26.377807	0.000476	20.794282
2050.643607	-2.993200	3.293600	-9.857000	26.426699	0.000475	20.809757
2051.641710	-3.006900	3.292500	-9.898700	26.474475	0.000476	20.812258
2052.646328	-2.999900	3.292200	-9.875900	26.453303	0.000477	20.806625
2053.643202	-3.001200	3.292100	-9.879000	26.485681	0.000474	20.795073
2054.650079	-2.999700	3.290700	-9.869700	26.501671	0.000474	20.791231
2055.640344	-2.996500	3.290600	-9.859100	26.512415	0.000474	20.827635
2056.644868	-3.007100	3.291400	-9.895400	26.527095	0.000473	20.821527
2057.643090	-3.015900	3.290000	-9.921400	26.535422	0.000472	20.823259
2058.644855	-2.989100	3.291600	-9.837800	26.542773	0.000471	20.797933
2059.646615	-3.024500	3.290000	-9.949400	26.560226	0.000469	20.804571
2060.646874	-3.021700	3.290600	-9.942100	26.579045	0.000471	20.798358
2061.646933	-3.008500	3.289400	-9.894700	26.574702	0.000471	20.821019
2062.646780	-3.004400	3.289900	-9.882400	26.581753	0.000469	20.809615
2063.645852	-3.030100	3.287500	-9.958800	26.548840	0.000468	20.817781
2064.643500	-2.987500	3.288400	-9.822900	26.520985	0.000467	20.804954
2065.647821	-2.982800	3.287400	-9.804000	26.463043	0.000467	20.832062
2066.643588	-3.001400	3.288300	-9.868800	26.467044	0.000467	20.810006
2067.648897	-3.003500	3.288700	-9.876600	26.495771	0.000467	20.810431
2068.647781	-3.017900	3.287400	-9.920200	26.516387	0.000468	20.810765
2069.649351	-3.008700	3.287500	-9.890200	26.573260	0.000467	20.810561
2070.649181	-3.010000	3.286500	-9.891000	26.596527	0.000466	20.817828
2071.647534	-2.999900	3.286400	-9.858400	26.600024	0.000464	20.791946
2072.648628	-2.999100	3.287000	-9.856900	26.603260	0.000462	20.798044
2073.648806	-2.989400	3.285900	-9.821100	26.611034	0.000463	20.792583
2074.648442	-3.000700	3.285900	-9.857900	26.607261	0.000463	20.802066
2075.649798	-2.993700	3.285900	-9.836200	26.619248	0.000463	20.800365
2076.649748	-2.994400	3.285700	-9.837400	26.606422	0.000461	20.801697
2077.652121	-2.995800	3.284600	-9.839400	26.588824	0.000460	20.795386
2078.650809	-3.005800	3.284200	-9.870900	26.609406	0.000461	20.784782
2079.650944	-3.010100	3.284400	-9.884700	26.603355	0.000461	20.790553
2080.651137	-3.022200	3.283500	-9.922300	26.595466	0.000460	20.795899
2081.654674	-3.006800	3.283500	-9.872100	26.550135	0.000458	20.778781
2082.651463	-3.011100	3.281900	-9.881100	26.571044	0.000457	20.792212
2083.652583	-2.991300	3.284500	-9.823600	26.602713	0.000458	20.786588
2084.650774	-2.996100	3.282700	-9.834200	26.581323	0.000456	20.785475
2085.648391	-3.008800	3.280600	-9.869800	26.557243	0.000454	20.779761
2086.651954	-2.985400	3.281800	-9.797100	26.555713	0.000455	20.775852
2087.651988	-2.988200	3.282700	-9.807900	26.553850	0.000454	20.769713
2088.653730	-2.998000	3.280600	-9.834300	26.582575	0.000453	20.760654
2089.655541	-3.006200	3.279900	-9.858400	26.587292	0.000454	20.773457
2090.654819	-2.983700	3.279300	-9.784000	26.521457	0.000452	20.783618
2091.656838	-2.993900	3.278400	-9.813700	26.552565	0.000452	20.775533
2092.656831	-3.008200	3.277900	-9.859000	26.557551	0.000450	20.763475
2093.651799	-2.994700	3.278900	-9.818000	26.556607	0.000451	20.780545
2094.654862	-2.971700	3.279100	-9.743600	26.545441	0.000449	20.779751
2095.652644	-2.991600	3.278000	-9.804900	26.524783	0.000450	20.769418
2096.653253	-2.993600	3.277000	-9.809300	26.543700	0.000448	20.769467
2097.653998	-3.021500	3.275400	-9.895400	26.562380	0.000447	20.767856
2098.653085	-2.975400	3.277400	-9.751100	26.587461	0.000448	20.777894
2099.653419	-3.004100	3.275500	-9.838600	26.631399	0.000445	20.768485
2100.653610	-2.993600	3.276800	-9.808100	26.676451	0.000447	20.762092
2101.657575	-3.011300	3.276200	-9.864400	26.685908	0.000446	20.766858
2102.658537	-3.012600	3.274900	-9.865000	26.700626	0.000444	20.767905
2103.656190	-3.026300	3.273900	-9.906700	26.682761	0.000446	20.753262
2104.658667	-2.986600	3.274700	-9.779700	26.651551	0.000445	20.760768
2105.659617	-2.989200	3.273900	-9.785100	26.668887	0.000444	20.762549
2106.653990	-2.996100	3.275500	-9.812800	26.651014	0.000443	20.770185
2107.661507	-2.997700	3.273300	-9.811900	26.688274	0.000443	20.747425
2108.662095	-2.994300	3.274300	-9.803600	26.669432	0.000441	20.755036
2109.658168	-3.009700	3.272900	-9.849000	26.626438	0.000440	20.759704
2110.656645	-2.993100	3.274000	-9.796400	26.639775	0.000441	20.741816
2111.657831	-2.996800	3.273000	-9.807700	26.664853	0.000440	20.745216
2112.657212	-3.019900	3.271300	-9.878000	26.695559	0.000438	20.762335
2113.659643	-3.007600	3.271300	-9.838000	26.689647	0.000438	20.747383
2114.660334	-2.998700	3.270300	-9.805500	26.647849	0.000436	20.752304
2115.657743	-3.013200	3.272100	-9.857900	26.622819	0.000437	20.738047
2116.657484	-3.018100	3.270400	-9.869300	26.632763	0.000437	20.739035
2117.656419	-3.002800	3.269900	-9.817200	26.651727	0.000435	20.736288
2118.657774	-2.983400	3.269400	-9.752300	26.696558	0.000433	20.733942
2119.660347	-2.998600	3.269200	-9.802600	26.734362	0.000433	20.738283
2120.659589	-2.999300	3.268500	-9.801100	26.749754	0.000434	20.753759
2121.660416	-3.003400	3.269500	-9.818700	26.742728	0.000431	20.742902
2122.659405	-3.017700	3.267200	-9.858000	26.729677	0.000432	20.740686
2123.659545	-2.995800	3.268400	-9.790100	26.761055	0.000430	20.732878
2124.659275	-3.008800	3.266300	-9.827000	26.762121	0.000430	20.747226
2125.660178	-2.997200	3.267700	-9.793200	26.762673	0.000432	20.768645
2126.661981	-3.005800	3.265400	-9.814500	26.801425	0.000430	20.727947
2127.662843	-3.020500	3.266000	-9.864200	26.836126	0.000427	20.759046
2128.659101	-3.005900	3.264700	-9.812900	26.847769	0.000427	20.717645
2129.667360	-2.989100	3.265900	-9.761400	26.865444	0.000429	20.744902
2130.661214	-2.966100	3.266400	-9.686800	26.892428	0.000428	20.736947
2131.667039	-3.000300	3.264600	-9.793800	26.880688	0.000427	20.752644
2132.665918	-2.996100	3.266200	-9.784700	26.894468	0.000426	20.727618
2133.661786	-2.995500	3.264800	-9.778400	26.875858	0.000426	20.731191
2134.665337	-2.997800	3.264700	-9.786100	26.866329	0.000424	20.749111
2135.665854	-3.012200	3.263300	-9.829100	26.781379	0.000424	20.736716
2136.662182	-3.007100	3.263000	-9.811800	26.717638	0.000423	20.712933
2137.662242	-3.000600	3.263200	-9.790000	26.716084	0.000423	20.743141
2138.670357	-3.009000	3.261900	-9.813600	26.728249	0.000422	20.737353
2139.675298	-2.997800	3.261900	-9.776700	26.699032	0.000424	20.716513
2140.664520	-2.981000	3.262300	-9.723700	26.663960	0.000422	20.735783
2141.665355	-3.008600	3.262200	-9.814400	26.672758	0.000421	20.726135
2142.667037	-3.004900	3.260000	-9.795700	26.706122	0.000420	20.726961
2143.666397	-3.005800	3.260900	-9.800100	26.742021	0.000419	20.734130
2144.666381	-2.991700	3.260800	-9.754500	26.766943	0.000420	20.731211
2145.665904	-2.990400	3.259100	-9.743600	26.759852	0.000417	20.713649
2146.666206	-3.008200	3.259800	-9.805200	26.758096	0.000419	20.722315
2147.664094	-3.007800	3.258000	-9.799100	26.764999	0.000417	20.713608
2148.662467	-3.025400	3.258200	-9.856100	26.806988	0.000417	20.723108
2149.666105	-2.993100	3.258300	-9.750500	26.811361	0.000414	20.717074
2150.663578	-2.986100	3.258300	-9.728600	26.817776	0.000413	20.733956
2151.663851	-2.981300	3.257300	-9.710600	26.842046	0.000413	20.723745
2152.667706	-3.001400	3.257100	-9.773300	26.867689	0.000414	20.729141
2153.665947	-3.005700	3.255300	-9.783700	26.867063	0.000413	20.736573
2154.662174	-3.008700	3.255000	-9.793000	26.860379	0.000413	20.729851
2155.665437	-2.997400	3.255600	-9.756700	26.880851	0.000412	20.712028
2156.666589	-3.015800	3.254400	-9.813500	26.871704	0.000411	20.715633
2157.668179	-2.998300	3.255400	-9.759300	26.856565	0.000411	20.730284
2158.666303	-3.017000	3.252400	-9.810200	26.836214	0.000411	20.725942
2159.669060	-2.983400	3.254500	-9.708300	26.847962	0.000410	20.726375
2160.666327	-3.011700	3.253100	-9.796200	26.885946	0.000408	20.703875
2161.670572	-2.994300	3.253600	-9.740900	26.897183	0.000406	20.709958
2162.668515	-2.993100	3.251800	-9.731300	26.902150	0.000405	20.717798
2163.671193	-3.001500	3.253400	-9.764900	26.899125	0.000407	20.725663
2164.666451	-2.995300	3.252900	-9.741800	26.946758	0.000406	20.717609
2165.669440	-3.011100	3.252400	-9.791700	26.923010	0.000406	20.697521
2166.670120	-3.013600	3.251300	-9.797000	26.865912	0.000405	20.705067
2167.672431	-3.003400	3.251500	-9.763700	26.843399	0.000403	20.712302
2168.668817	-2.997300	3.251100	-9.743400	26.844513	0.000403	20.727648
2169.671782	-2.998900	3.250400	-9.746500	26.857749	0.000401	20.721990
2170.667429	-3.009400	3.249400	-9.778000	26.883342	0.000401	20.704576
2171.672678	-3.026600	3.248400	-9.830200	26.908513	0.000400	20.711868
2172.675562	-2.995300	3.248300	-9.728100	26.920578	0.000401	20.714042
2173.667150	-3.020200	3.247200	-9.806200	26.928797	0.000401	20.702392
2174.669067	-3.012100	3.248200	-9.782700	26.954486	0.000401	20.716846
2175.665724	-2.997500	3.248500	-9.735600	26.956006	0.000399	20.704623
2176.666335	-2.994400	3.248600	-9.726300	26.949957	0.000398	20.704230
2177.669297	-2.979600	3.247200	-9.674300	26.977703	0.000396	20.690879
2178.673354	-3.038300	3.245300	-9.858300	26.994458	0.000396	20.709151
2179.670022	-2.988700	3.245700	-9.698900	26.972305	0.000396	20.697779
2180.672358	-2.992600	3.246600	-9.714600	26.973321	0.000395	20.704965
2181.673539	-3.011200	3.243700	-9.767000	26.972906	0.000396	20.714506
2182.672176	-3.003900	3.245000	-9.746500	27.004553	0.000395	20.700811
2183.673410	-3.019800	3.243300	-9.793000	27.002569	0.000392	20.710671
2184.671785	-2.994900	3.244300	-9.715200	26.987660	0.000395	20.708479
2185.674087	-2.969100	3.245800	-9.635200	26.945678	0.000394	20.696607
2186.672298	-3.001800	3.244000	-9.736000	26.928183	0.000392	20.700352
2187.673220	-2.983600	3.244300	-9.678600	26.955685	0.000390	20.686281
2188.673364	-2.981000	3.243500	-9.667100	26.947848	0.000391	20.700686
2189.676876	-2.995800	3.242100	-9.711000	26.959416	0.000391	20.684343
2190.676505	-3.026000	3.240600	-9.804500	26.943888	0.000389	20.690539
2191.676014	-2.995500	3.242700	-9.712500	26.944839	0.000387	20.686279
2192.676481	-2.989300	3.240900	-9.685600	26.986063	0.000387	20.687906
2193.677642	-2.997600	3.241600	-9.716300	26.985592	0.000385	20.700235
2194.678850	-3.002200	3.239300	-9.724000	27.016442	0.000385	20.678152
2195.677869	-2.996600	3.240600	-9.710200	27.013345	0.000385	20.691634
2196.681495	-2.999900	3.240000	-9.719100	27.040398	0.000386	20.687545
2197.677367	-2.976300	3.240000	-9.641900	27.057819	0.000384	20.675192
2198.677670	-2.995500	3.239500	-9.702900	27.078669	0.000384	20.697111
2199.683849	-2.979500	3.238300	-9.647400	27.093299	0.000383	20.690961
2200.680232	-2.983100	3.238400	-9.659500	27.073392	0.000383	20.684691
2201.680121	-3.019100	3.236600	-9.770700	27.047867	0.000380	20.678460
2202.678618	-2.995400	3.236700	-9.694200	26.988809	0.000382	20.697780
2203.678574	-3.017200	3.235300	-9.760100	26.939876	0.000379	20.679866
2204.681427	-2.993400	3.235900	-9.685300	26.919234	0.000378	20.691353
2205.683880	-3.039700	3.235100	-9.832600	26.891315	0.000377	20.690780
2206.677639	-2.999700	3.234600	-9.701100	26.883160	0.000378	20.691115
2207.678688	-3.000600	3.235600	-9.707000	26.857875	0.000377	20.695562
2208.680221	-3.003400	3.232900	-9.708200	26.867330	0.000377	20.668557
2209.678113	-2.992400	3.234000	-9.676200	26.887761	0.000374	20.677722
2210.683980	-2.984600	3.233800	-9.649800	26.928289	0.000376	20.667265
2211.681738	-3.009700	3.235300	-9.737000	26.952093	0.000376	20.683617
2212.684062	-2.982900	3.233300	-9.642900	26.971872	0.000375	20.671737
2213.682106	-2.993500	3.231900	-9.673800	26.972433	0.000375	20.680836
2214.681697	-3.008900	3.233000	-9.725900	26.940540	0.000372	20.682905
2215.680706	-3.024600	3.231000	-9.771900	26.860581	0.000371	20.670780
2216.683884	-2.993000	3.231700	-9.671700	26.841320	0.000371	20.678915
2217.683780	-3.041900	3.230100	-9.824300	26.788901	0.000370	20.684057
2218.683739	-2.968700	3.229700	-9.586900	26.822342	0.000370	20.684490
2219.686464	-2.992200	3.230100	-9.662800	26.885857	0.000371	20.671539
2220.685360	-2.976000	3.229900	-9.611500	26.898889	0.000368	20.678955
2221.691098	-2.977600	3.229600	-9.615300	26.867523	0.000368	20.690564
2222.688110	-3.000500	3.228900	-9.687800	26.892515	0.000367	20.673493
2223.688907	-2.986100	3.228800	-9.640300	26.876214	0.000368	20.685552
2224.686062	-2.989200	3.228900	-9.651000	26.865376	0.000367	20.671808
2225.688882	-3.007800	3.226800	-9.704100	26.879840	0.000366	20.665488
2226.691315	-3.021100	3.225900	-9.744400	26.835537	0.000364	20.666936
2227.690103	-3.020700	3.227300	-9.747800	26.844407	0.000365	20.663051
2228.688726	-3.023600	3.225900	-9.752700	26.852668	0.000362	20.677523
2229.689235	-3.001400	3.227000	-9.683000	26.853790	0.000363	20.673435
2230.689478	-3.009500	3.224900	-9.703200	26.893002	0.000361	20.662128
2231.691389	-3.026300	3.223700	-9.754600	26.907254	0.000360	20.663656
2232.691159	-2.972900	3.225200	-9.587400	26.925790	0.000361	20.674710
2233.689463	-2.993900	3.224100	-9.651800	26.977990	0.000359	20.666983
2234.691473	-2.986200	3.224000	-9.626400	26.989632	0.000358	20.663991
2235.695366	-3.014800	3.221800	-9.712200	27.011694	0.000356	20.665789
2236.690579	-3.013000	3.223500	-9.712000	26.975901	0.000361	20.670099
2237.693092	-3.000300	3.222900	-9.669000	26.962780	0.000357	20.665438
2238.693734	-3.012400	3.221500	-9.703900	26.962211	0.000355	20.662495
2239.693118	-2.975800	3.220400	-9.582000	26.974446	0.000357	20.671006
2240.691146	-3.035100	3.219700	-9.770100	26.982217	0.000356	20.659379
2241.695416	-3.012300	3.220500	-9.700200	27.010661	0.000354	20.665225
2242.697772	-3.012500	3.219200	-9.696800	27.050364	0.000354	20.652519
2243.697086	-3.017300	3.217500	-9.707100	27.019173	0.000352	20.669043
2244.696183	-2.990500	3.219300	-9.626400	27.028009	0.000353	20.654694
2245.706370	-2.962200	3.220200	-9.536800	27.028781	0.000351	20.656419
2246.697349	-2.990900	3.218300	-9.624900	27.052258	0.000353	20.648259
2247.700207	-3.008500	3.217800	-9.680200	27.081936	0.000351	20.684748
2248.698777	-3.000300	3.216800	-9.650800	27.115019	0.000351	20.644048
2249.699378	-3.000300	3.218500	-9.655300	27.111434	0.000348	20.647555
2250.699213	-3.005800	3.216500	-9.667300	27.058752	0.000350	20.681821
2251.699576	-2.996900	3.214600	-9.633200	27.044908	0.000350	20.650825
2252.703190	-3.006300	3.214100	-9.661100	27.033422	0.000349	20.653973
2253.701772	-3.036900	3.213300	-9.757500	27.050419	0.000349	20.633132
2254.700605	-2.985700	3.214000	-9.594500	27.064994	0.000347	20.659647
2255.704129	-2.974700	3.215600	-9.564100	27.090055	0.000346	20.646442
2256.703260	-3.026100	3.212100	-9.718200	27.105442	0.000346	20.665713
2257.705186	-2.998100	3.213500	-9.633100	27.158739	0.000344	20.644398
2258.702129	-2.996300	3.213100	-9.625300	27.169842	0.000346	20.650824
2259.702746	-2.991700	3.211500	-9.606600	27.169688	0.000346	20.645927
2260.707282	-2.989100	3.212000	-9.600100	27.183984	0.000342	20.647030
2261.704313	-3.017600	3.212000	-9.692100	27.220884	0.000345	20.663284
2262.703951	-2.984200	3.213400	-9.587700	27.240788	0.000342	20.665761
2263.707270	-3.018300	3.210200	-9.688100	27.221363	0.000342	20.653808
2264.705022	-2.978100	3.210600	-9.560700	27.166736	0.000342	20.635370
2265.701314	-2.980900	3.210700	-9.570200	27.119763	0.000340	20.643604
2266.703667	-2.987500	3.207700	-9.582500	27.076616	0.000338	20.637668
2267.705335	-2.992200	3.207600	-9.596200	27.057635	0.000341	20.655565
2268.705146	-2.986200	3.208900	-9.581300	27.115584	0.000339	20.634184
2269.707540	-2.963600	3.209300	-9.509700	27.128191	0.000338	20.637855
2270.705019	-2.986700	3.206800	-9.576700	27.165743	0.000338	20.655237
2271.704729	-3.012000	3.207100	-9.659100	27.193208	0.000338	20.650618
2272.702432	-2.983100	3.207000	-9.566700	27.202912	0.000337	20.634772
2273.705937	-3.002700	3.206100	-9.626100	27.216575	0.000336	20.634290
2274.704942	-2.980900	3.206200	-9.556700	27.219565	0.000336	20.643937
2275.708780	-2.998500	3.205300	-9.609700	27.208008	0.000334	20.644640
2276.702989	-2.989900	3.203300	-9.576400	27.242794	0.000334	20.632687
2277.707645	-2.995100	3.204800	-9.597300	27.261202	0.000335	20.645041
2278.704777	-3.014400	3.204900	-9.660300	27.225108	0.000333	20.622008
2279.711911	-2.990600	3.202900	-9.577900	27.213404	0.000331	20.627306
2280.706625	-3.012400	3.203500	-9.648900	27.190605	0.000330	20.642309
2281.703550	-2.993600	3.203000	-9.587900	27.162499	0.000332	20.620201
2282.708445	-3.002200	3.201500	-9.609800	27.185794	0.000333	20.645056
2283.709280	-2.998500	3.202700	-9.601800	27.201870	0.000331	20.618075
2284.704757	-2.992500	3.202400	-9.581100	27.208527	0.000330	20.645162
2285.709715	-3.004300	3.201700	-9.617000	27.236811	0.000330	20.634255
2286.705738	-3.007300	3.199400	-9.620000	27.257552	0.000330	20.646585
2287.709341	-2.977500	3.200700	-9.529100	27.274327	0.000328	20.632162
2288.708333	-2.966700	3.200200	-9.492700	27.324243	0.000329	20.636381
2289.709117	-2.974100	3.198600	-9.512600	27.339277	0.000327	20.646291
2290.710575	-3.002400	3.197500	-9.598900	27.358310	0.000328	20.613749
2291.715811	-2.987800	3.197700	-9.553600	27.362105	0.000325	20.646021
2292.705181	-2.986900	3.198300	-9.551300	27.361341	0.000324	20.630077
2293.708780	-3.048800	3.194300	-9.737000	27.345039	0.000326	20.630747
2294.708374	-3.018400	3.194000	-9.640100	27.387337	0.000327	20.640109
2295.712267	-3.014800	3.196100	-9.633700	27.396439	0.000323	20.626504
2296.709112	-3.006300	3.195100	-9.604600	27.409538	0.000323	20.639210
2297.708778	-3.015600	3.194300	-9.631400	27.405272	0.000325	20.632072
2298.711092	-3.008700	3.192700	-9.604500	27.394156	0.000324	20.637010
2299.708539	-2.980600	3.195400	-9.523400	27.356823	0.000323	20.641654
2300.711992	-2.986000	3.193800	-9.536300	27.322162	0.000323	20.634288
2301.708600	-3.001400	3.192000	-9.579300	27.321325	0.000323	20.629652
2302.710945	-3.001400	3.191600	-9.577900	27.355555	0.000319	20.618565
2303.721328	-3.016900	3.190200	-9.623600	27.363348	0.000321	20.631622
2304.712164	-2.975300	3.189700	-9.488700	27.389670	0.000318	20.641981
2305.713625	-2.977500	3.190700	-9.499900	27.379918	0.000319	20.627428
2306.716708	-3.013700	3.189800	-9.612400	27.380365	0.000319	20.639733
2307.715449	-3.002200	3.189900	-9.575800	27.344519	0.000318	20.623111
2308.718147	-2.988600	3.188800	-9.529000	27.302129	0.000317	20.644009
2309.716088	-2.998300	3.187700	-9.556900	27.306234	0.000316	20.633912
2310.715611	-2.999400	3.188400	-9.562000	27.323056	0.000317	20.644197
2311.718323	-3.016000	3.186800	-9.610900	27.345632	0.000315	20.634664
2312.716334	-3.001700	3.186300	-9.563900	27.351687	0.000313	20.633168
2313.720376	-2.990600	3.187100	-9.530400	27.307330	0.000314	20.647819
2314.715597	-2.987800	3.185500	-9.517000	27.288630	0.000314	20.645603
2315.715565	-2.996000	3.185600	-9.543200	27.291263	0.000312	20.628809
2316.717521	-2.989900	3.184800	-9.520800	27.307282	0.000314	20.644925
2317.722071	-3.009500	3.184500	-9.583000	27.310467	0.000312	20.641490
2318.716914	-3.014200	3.184800	-9.599000	27.270376	0.000311	20.643837
2319.712887	-3.006400	3.183800	-9.570300	27.269343	0.000312	20.635211
2320.717321	-3.004200	3.182000	-9.558100	27.276162	0.000310	20.637803
2321.718708	-3.025100	3.181000	-9.621600	27.212825	0.000310	20.629569
2322.720692	-3.013100	3.181300	-9.584700	27.205510	0.000311	20.654931
2323.717099	-2.992600	3.180900	-9.518100	27.218677	0.000311	20.643044
2324.721526	-2.997600	3.182200	-9.537600	27.203722	0.000310	20.648391
2325.726110	-3.013400	3.180000	-9.581400	27.197154	0.000309	20.629454
2326.717878	-3.033600	3.179500	-9.644200	27.223773	0.000306	20.646273
2327.720834	-2.989500	3.177800	-9.499100	27.254941	0.000304	20.645381
2328.714746	-3.006400	3.181600	-9.564400	27.282639	0.000305	20.645266
2329.719584	-2.989400	3.178200	-9.499900	27.345744	0.000306	20.655642
2330.714317	-3.007000	3.177000	-9.551700	27.353416	0.000306	20.643917
2331.719618	-2.971900	3.177700	-9.441500	27.391716	0.000305	20.655895
2332.717570	-3.005900	3.175600	-9.544100	27.410902	0.000303	20.656704
2333.723587	-2.984100	3.175600	-9.476200	27.395121	0.000304	20.659321
2334.720109	-3.002000	3.175100	-9.530300	27.349384	0.000302	20.636542
2335.720499	-3.012400	3.175400	-9.565000	27.310636	0.000301	20.665371
2336.719584	-3.000500	3.175900	-9.528100	27.282524	0.000304	20.656058
2337.715374	-2.995400	3.173800	-9.504800	27.242140	0.000303	20.671862
2338.721567	-2.994900	3.172200	-9.499000	27.235117	0.000300	20.656737
2339.717340	-2.989400	3.174400	-9.487100	27.240652	0.000302	20.666098
2340.724311	-2.988800	3.172300	-9.480400	27.267676	0.000301	20.648708
2341.719894	-3.010300	3.171500	-9.546400	27.248771	0.000300	20.636329
2342.720880	-2.994800	3.170200	-9.493300	27.245935	0.000299	20.653393
2343.724782	-2.985700	3.170100	-9.464400	27.231078	0.000300	20.658838
2344.723043	-3.001500	3.169400	-9.512300	27.203094	0.000300	20.657718
2345.723258	-2.999800	3.168800	-9.504200	27.172680	0.000296	20.666008
2346.721708	-2.966100	3.171600	-9.405900	27.181556	0.000298	20.663555
2347.726461	-2.995200	3.167800	-9.487100	27.209759	0.000297	20.653516
2348.720644	-2.996500	3.167500	-9.489100	27.261264	0.000296	20.666442
2349.723019	-2.993100	3.168500	-9.481200	27.309197	0.000298	20.625986
2350.722210	-3.003400	3.165900	-9.507100	27.348718	0.000296	20.650572
2351.732661	-2.975900	3.168000	-9.427200	27.438465	0.000296	20.653140
2352.721961	-3.014800	3.164800	-9.540000	27.438555	0.000293	20.651807
2353.724707	-2.997500	3.164700	-9.484700	27.459739	0.000293	20.667906
2354.732043	-2.991300	3.165000	-9.466200	27.503154	0.000294	20.637139
2355.725046	-3.000000	3.163300	-9.488900	27.470847	0.000295	20.663908
2356.725966	-2.984200	3.163700	-9.440000	27.440497	0.000294	20.648545
2357.729411	-2.996000	3.163600	-9.477200	27.402312	0.000292	20.661341
2358.726854	-3.013200	3.161100	-9.523800	27.367580	0.000290	20.646313
2359.725515	-3.016100	3.160900	-9.531900	27.366638	0.000292	20.655797
2360.727933	-3.016500	3.162000	-9.537000	27.387750	0.000291	20.651431
2361.727880	-3.008800	3.160300	-9.507700	27.395543	0.000292	20.657375
2362.728591	-3.000400	3.159500	-9.478800	27.373537	0.000290	20.676965
2363.730037	-3.030500	3.158700	-9.569900	27.389270	0.000290	20.677144
2364.732442	-3.002800	3.156500	-9.477400	27.408415	0.000288	20.664635
2365.731173	-2.999400	3.157100	-9.467900	27.370238	0.000289	20.661316
2366.729050	-2.999500	3.156800	-9.468200	27.376389	0.000288	20.676515
2367.732740	-3.013800	3.156200	-9.510300	27.383281	0.000287	20.679181
2368.733153	-3.011100	3.154200	-9.495500	27.387450	0.000288	20.670097
2369.732374	-2.997300	3.154100	-9.452900	27.460454	0.000289	20.684748
2370.729542	-3.015100	3.153800	-9.508700	27.484393	0.000288	20.690341
2371.730565	-2.995500	3.152300	-9.441900	27.502545	0.000289	20.669247
2372.736850	-2.992800	3.154400	-9.439500	27.425830	0.000285	20.683105
2373.736350	-2.988100	3.154400	-9.424800	27.401508	0.000286	20.694200
2374.742256	-3.019000	3.151400	-9.513000	27.357130	0.000285	20.670416
2375.735034	-3.019100	3.150700	-9.510700	27.355049	0.000286	20.684446
2376.733854	-2.986400	3.152500	-9.414000	27.330442	0.000284	20.696677
2377.733418	-3.005000	3.149600	-9.462900	27.345720	0.000284	20.686915
2378.733358	-3.000700	3.149000	-9.447200	27.355074	0.000285	20.672615
2379.733872	-3.008400	3.150000	-9.475400	27.399005	0.000283	20.671765
2380.734154	-3.013500	3.146400	-9.480100	27.413438	0.000284	20.691028
2381.736071	-3.017200	3.147500	-9.495200	27.418979	0.000281	20.690439
2382.735338	-2.994000	3.145800	-9.416300	27.454222	0.000282	20.685116
2383.733814	-3.020500	3.144600	-9.497600	27.469880	0.000282	20.675264
2384.737103	-3.008900	3.144900	-9.461100	27.510728	0.000282	20.691232
2385.739349	-2.999700	3.144700	-9.431900	27.478478	0.000284	20.691976
2386.739782	-3.016100	3.142100	-9.476200	27.477957	0.000282	20.698092
2387.737091	-3.006700	3.142800	-9.447900	27.480541	0.000280	20.707330
2388.739376	-3.026500	3.141600	-9.506900	27.474309	0.000281	20.696792
2389.737998	-2.990400	3.142100	-9.395100	27.469880	0.000281	20.678110
2390.735635	-3.012600	3.140300	-9.459000	27.479493	0.000281	20.679246
2391.740549	-3.009400	3.140300	-9.449000	27.520454	0.000277	20.707183
2392.737156	-2.981500	3.140100	-9.360700	27.501554	0.000279	20.695279
2393.739854	-3.000400	3.139600	-9.418900	27.568595	0.000277	20.687814
2394.743318	-3.009400	3.138100	-9.443200	27.576802	0.000277	20.682795
2395.739377	-3.010100	3.137800	-9.444500	27.598454	0.000278	20.694151
2396.741920	-2.973500	3.136900	-9.326900	27.637525	0.000276	20.719716
2397.744011	-3.018300	3.135200	-9.462600	27.612575	0.000278	20.677537
2398.741503	-3.003400	3.135300	-9.415100	27.615297	0.000277	20.698296
2399.739569	-2.995500	3.135700	-9.391600	27.628750	0.000276	20.699031
2400.744589	-3.004700	3.134300	-9.416400	27.645016	0.000275	20.681257
2401.737792	-3.011200	3.133100	-9.433500	27.676692	0.000276	20.709815
2402.743937	-3.012500	3.132400	-9.435400	27.705427	0.000275	20.698901
2403.741675	-2.981100	3.132700	-9.337000	27.684597	0.000276	20.697380
2404.745313	-3.000000	3.130800	-9.391400	27.668982	0.000275	20.713911
2405.744222	-3.011600	3.129300	-9.422500	27.638053	0.000275	20.706970
2406.740482	-3.013900	3.129500	-9.429600	27.616279	0.000272	20.698810
2407.747214	-2.987600	3.129300	-9.348100	27.621194	0.000274	20.716085
2408.748323	-2.994300	3.128600	-9.366500	27.623347	0.000271	20.686007
2409.744180	-2.973200	3.128200	-9.299700	27.617270	0.000273	20.714033
2410.744370	-2.994500	3.127300	-9.361600	27.594854	0.000272	20.702383
2411.741796	-2.998200	3.126500	-9.372800	27.604579	0.000271	20.708850
2412.742238	-2.996000	3.124900	-9.361100	27.573900	0.000273	20.707852
2413.747788	-2.987500	3.125200	-9.336200	27.608617	0.000272	20.717655
2414.742235	-3.012100	3.124100	-9.408900	27.598795	0.000270	20.695916
2415.751654	-3.006600	3.123400	-9.389800	27.643764	0.000269	20.715088
2416.748734	-3.002000	3.121500	-9.369900	27.688277	0.000271	20.711515
2417.741585	-2.990800	3.121700	-9.334100	27.726102	0.000269	20.695523
2418.747862	-3.003300	3.119800	-9.369400	27.714940	0.000270	20.696145
2419.747760	-2.995200	3.119300	-9.340900	27.736516	0.000271	20.716437
2420.747020	-3.024300	3.117400	-9.426700	27.769652	0.000270	20.716118
2421.743505	-3.020100	3.116800	-9.411900	27.771984	0.000268	20.722732
2422.750205	-2.998400	3.117200	-9.346400	27.780367	0.000270	20.701295
2423.745707	-3.002700	3.116500	-9.357200	27.771862	0.000268	20.718816
2424.744636	-2.993000	3.115200	-9.322000	27.724842	0.000270	20.716543
2425.748441	-2.977700	3.113700	-9.270300	27.740570	0.000267	20.728103
2426.745528	-2.996400	3.113100	-9.327200	27.759238	0.000266	20.715120
2427.743865	-3.003400	3.111100	-9.342800	27.785826	0.000267	20.737137
2428.744793	-3.047300	3.110500	-9.477900	27.802210	0.000266	20.725650
2429.749125	-3.003500	3.110500	-9.340700	27.796362	0.000268	20.724506
2430.747883	-3.021400	3.110800	-9.397200	27.773421	0.000266	20.721334
2431.750995	-2.989300	3.110600	-9.297300	27.786045	0.000266	20.735461
2432.742951	-2.990500	3.108900	-9.296000	27.755322	0.000265	20.717818
2433.747275	-2.990500	3.108500	-9.295700	27.764965	0.000267	20.722307
2434.751494	-2.995200	3.106900	-9.304900	27.726353	0.000266	20.737031
2435.752595	-2.998300	3.105300	-9.310400	27.716085	0.000264	20.735706
2436.750746	-2.997600	3.105600	-9.308100	27.741902	0.000265	20.712373
2437.747351	-2.995900	3.104400	-9.298900	27.737986	0.000264	20.728822
2438.748460	-2.997000	3.105000	-9.304100	27.754453	0.000265	20.726901
2439.751454	-3.000900	3.102700	-9.309000	27.734842	0.000263	20.729452
2440.754010	-2.992700	3.102400	-9.283000	27.705873	0.000262	20.738707
2441.747266	-2.976600	3.103000	-9.234300	27.701925	0.000262	20.737104
2442.752822	-2.989200	3.100500	-9.266000	27.735777	0.000263	20.726599
2443.746140	-3.004600	3.099500	-9.312000	27.709642	0.000263	20.731594
2444.749784	-2.999300	3.097400	-9.289200	27.718375	0.000263	20.739908
2445.752733	-3.006700	3.097300	-9.311300	27.715695	0.000263	20.734840
2446.754648	-3.009300	3.095900	-9.315100	27.701307	0.000263	20.737906
2447.752525	-3.000200	3.095300	-9.285900	27.724225	0.000260	20.737734
2448.752774	-2.994700	3.095600	-9.269500	27.694142	0.000261	20.713624
2449.754680	-3.011100	3.094100	-9.315300	27.722389	0.000260	20.745844
2450.748931	-3.003200	3.091900	-9.283800	27.665001	0.000260	20.720810
2451.749739	-3.000800	3.092200	-9.277700	27.652603	0.000263	20.739630
2452.750662	-2.998700	3.091000	-9.268400	27.643577	0.000262	20.722012
2453.750334	-2.989200	3.089500	-9.234400	27.673807	0.000261	20.729673
2454.752147	-2.989500	3.088800	-9.233700	27.710358	0.000261	20.728520
2455.750969	-2.994900	3.089300	-9.250800	27.725923	0.000260	20.720002
2456.751343	-3.003600	3.088600	-9.275100	27.686571	0.000258	20.749155
2457.751387	-3.008200	3.086800	-9.284700	27.666260	0.000261	20.756693
2458.753932	-2.994100	3.087000	-9.242300	27.687091	0.000260	20.747782
2459.751231	-2.968700	3.086500	-9.161400	27.736313	0.000258	20.746106
2460.756321	-3.005600	3.085300	-9.272300	27.736013	0.000259	20.747226
2461.751218	-2.999500	3.083800	-9.249200	27.719116	0.000259	20.732118
2462.756609	-3.010100	3.081200	-9.273800	27.717028	0.000256	20.762261
2463.753031	-3.006000	3.080900	-9.260000	27.700268	0.000256	20.755827
2464.753007	-2.996500	3.079600	-9.226600	27.778979	0.000258	20.771973
2465.761148	-2.977900	3.079900	-9.169400	27.808206	0.000257	20.741169
2466.756139	-2.985000	3.079400	-9.190300	27.835086	0.000257	20.744987
2467.757669	-3.015300	3.076200	-9.275000	27.801391	0.000257	20.745215
2468.755227	-2.982800	3.077100	-9.177600	27.754146	0.000258	20.725644
2469.755240	-3.010700	3.074600	-9.254900	27.773683	0.000259	20.744832
2470.754458	-3.014700	3.074300	-9.267400	27.803893	0.000257	20.758640
2471.755970	-3.020000	3.071900	-9.276100	27.815453	0.000259	20.739927
2472.752506	-3.009500	3.072100	-9.244900	27.798029	0.000257	20.752737
2473.757498	-2.986800	3.071300	-9.172700	27.757736	0.000254	20.777623
2474.758998	-3.015200	3.069500	-9.253500	27.771336	0.000256	20.760962
2475.758787	-2.994600	3.069900	-9.192600	27.797631	0.000256	20.765139
2476.768435	-2.992800	3.068400	-9.182200	27.835192	0.000259	20.746516
2477.762953	-3.019400	3.067000	-9.258900	27.862436	0.000258	20.761608
2478.765583	-3.017200	3.066000	-9.250100	27.855475	0.000258	20.765508
2479.761154	-2.985700	3.066900	-9.154900	27.819466	0.000258	20.765778
2480.765440	-3.012100	3.063700	-9.226400	27.852396	0.000257	20.753400
2481.760240	-2.999100	3.063800	-9.187200	27.828718	0.000258	20.789788
2482.762323	-3.010800	3.062500	-9.218100	27.805324	0.000256	20.782365
2483.762604	-3.016900	3.060500	-9.231700	27.822082	0.000257	20.776471
2484.761756	-3.016400	3.059600	-9.228400	27.831310	0.000255	20.762524
2485.763184	-3.003100	3.059200	-9.185900	27.794219	0.000256	20.761232
2486.763772	-3.004800	3.056700	-9.183600	27.813585	0.000254	20.767446
2487.768885	-2.984800	3.057100	-9.123800	27.860422	0.000255	20.783289
2488.761767	-2.974000	3.056200	-9.087700	27.869244	0.000254	20.771779
2489.766634	-3.030200	3.053500	-9.252400	27.935198	0.000256	20.768934
2490.762056	-2.991200	3.053100	-9.130900	27.958305	0.000257	20.767536
2491.768908	-2.992500	3.052200	-9.132700	27.956274	0.000255	20.777820
2492.772542	-3.010300	3.050500	-9.182200	27.956665	0.000255	20.759720
2493.772331	-2.999100	3.050200	-9.146600	27.973445	0.000257	20.761912
2494.771077	-2.972600	3.050700	-9.067800	27.995349	0.000256	20.783960
2495.769585	-2.994800	3.048800	-9.129000	28.007223	0.000256	20.781213
2496.770220	-2.964700	3.048200	-9.036400	28.019048	0.000254	20.784107
2497.775158	-3.004000	3.045800	-9.147600	28.020786	0.000255	20.783011
2498.773541	-2.984000	3.045000	-9.085000	28.035461	0.000257	20.795887
2499.768684	-2.998400	3.043700	-9.123300	28.022946	0.000254	20.763374
2500.770640	-2.982300	3.043000	-9.073100	27.995243	0.000258	20.781957
2501.773649	-2.976600	3.043100	-9.056200	28.005533	0.000255	20.777142
2502.773032	-2.980500	3.040400	-9.061500	28.016709	0.000254	20.794081
2503.775283	-2.996700	3.038100	-9.102900	28.026503	0.000255	20.794931
2504.774332	-2.981000	3.037500	-9.052000	28.034016	0.000253	20.802493
2505.774279	-3.012100	3.036300	-9.143600	28.016936	0.000254	20.774395
2506.775317	-3.019600	3.034600	-9.162800	28.003641	0.000254	20.780453
2507.775223	-2.981600	3.035000	-9.048200	27.981177	0.000254	20.775859
2508.776730	-2.971900	3.035200	-9.018300	27.936303	0.000252	20.785219
2509.775938	-2.981500	3.032700	-9.040700	27.923884	0.000255	20.802117
2510.800370	-3.001300	3.031700	-9.098400	27.915079	0.000254	20.800368
2511.776011	-3.002200	3.030700	-9.097500	27.966281	0.000252	20.801169
2512.776875	-3.002000	3.028100	-9.088700	27.951101	0.000253	20.800589
2513.775133	-3.006600	3.027800	-9.102500	27.954846	0.000254	20.791555
2514.779152	-2.980500	3.027900	-9.023600	27.964064	0.000253	20.800360
2515.774887	-3.011600	3.024500	-9.108000	27.949656	0.000252	20.804824
2516.775724	-2.994100	3.024000	-9.052900	27.983500	0.000253	20.813285
2517.772486	-3.018000	3.022100	-9.119300	28.012462	0.000252	20.786961
2518.775555	-3.019000	3.021000	-9.119000	27.995764	0.000251	20.802396
2519.773585	-2.988900	3.021500	-9.029900	28.005689	0.000254	20.811437
2520.774863	-3.012900	3.018900	-9.094300	28.046386	0.000251	20.813996
2521.779815	-2.985400	3.018300	-9.009600	28.057942	0.000253	20.800499
2522.776485	-3.019600	3.016500	-9.108100	28.075565	0.000253	20.793109
2523.777178	-3.003400	3.015800	-9.057200	28.115382	0.000252	20.809484
2524.779223	-3.009700	3.013300	-9.067900	28.106189	0.000253	20.812557
2525.780940	-3.032300	3.012600	-9.134300	28.080974	0.000251	20.814201
2526.775166	-2.996500	3.011300	-9.021600	28.015695	0.000252	20.804914
2527.780499	-2.980600	3.009600	-8.968500	27.965511	0.000253	20.795178
2528.781958	-3.008200	3.008400	-9.049200	27.920417	0.000253	20.815697
2529.783591	-3.036400	3.007300	-9.130200	27.905983	0.000252	20.813498
2530.782683	-3.012700	3.005400	-9.053600	27.902361	0.000251	20.804636
2531.784042	-2.998600	3.006100	-9.013300	27.913797	0.000252	20.816620
2532.787203	-3.016800	3.003000	-9.058800	27.882160	0.000249	20.813702
2533.787356	-3.002700	3.003600	-9.017800	27.913423	0.000253	20.799649
2534.787044	-3.047700	2.999600	-9.140700	27.984605	0.000251	20.827673
2535.785947	-3.006800	2.999900	-9.018700	28.019561	0.000251	20.809754
2536.786063	-3.021700	2.998600	-9.059800	28.045964	0.000251	20.788915
2537.790592	-2.985500	2.997000	-8.945900	28.091905	0.000252	20.813350
2538.786306	-2.984300	2.996300	-8.939400	28.088851	0.000252	20.791785
2539.787385	-3.016100	2.994000	-9.028600	28.106726	0.000252	20.773268
2540.784304	-3.026100	2.992500	-9.054700	28.119264	0.000251	20.794426
2541.788094	-2.982500	2.993500	-8.927500	28.113612	0.000252	20.802486
2542.784604	-3.006400	2.990600	-8.990400	28.079448	0.000251	20.783741
2543.784287	-3.011600	2.988800	-8.999600	28.092514	0.000251	20.784092
2544.784814	-3.013000	2.988400	-9.003800	28.057041	0.000250	20.802437
2545.785362	-2.965300	2.987500	-8.857700	28.076402	0.000250	20.792055
2546.786261	-3.030000	2.985000	-9.042900	28.097200	0.000252	20.808724
2547.786928	-3.031200	2.983800	-9.043000	28.109236	0.000251	20.786227
2548.789270	-2.985700	2.984300	-8.908500	28.124096	0.000252	20.784117
2549.788784	-3.003600	2.983800	-8.960900	28.140232	0.000250	20.779498
2550.785313	-2.994100	2.980000	-8.920400	28.104834	0.000251	20.787485
2551.792159	-2.999900	2.978400	-8.933300	28.066478	0.000250	20.775427
2552.790082	-2.984500	2.977000	-8.883400	28.039776	0.000252	20.780316
2553.786855	-3.014400	2.976300	-8.971400	28.035683	0.000250	20.789472
2554.790933	-2.988500	2.975700	-8.891900	28.087520	0.000250	20.786178
2555.788259	-2.986300	2.974200	-8.880400	28.045883	0.000250	20.765600
2556.794374	-3.025000	2.971000	-8.986400	28.008370	0.000248	20.783790
2557.793541	-2.992700	2.969800	-8.887200	27.961661	0.000251	20.778027
2558.792888	-3.002600	2.967900	-8.910500	27.947976	0.000251	20.776105
2559.795815	-3.037800	2.966000	-9.009000	27.915349	0.000250	20.775508
2560.794133	-2.998700	2.967200	-8.897200	27.929994	0.000251	20.769860
2561.798062	-2.992900	2.964300	-8.870900	27.966015	0.000250	20.773400
2562.790457	-3.011400	2.963100	-8.921800	28.008216	0.000251	20.779842
2563.795824	-2.981800	2.962900	-8.834200	28.019407	0.000250	20.783520
2564.792271	-3.010000	2.959300	-8.905100	28.021827	0.000249	20.772680
2565.796392	-2.999800	2.959000	-8.875600	28.000532	0.000251	20.765944
2566.797517	-2.958900	2.958000	-8.750400	28.017320	0.000249	20.766720
2567.799690	-3.017800	2.955700	-8.919000	27.988780	0.000250	20.759330
2568.792354	-3.006900	2.954600	-8.882400	27.926428	0.000249	20.764848
2569.796925	-3.001800	2.952800	-8.862800	27.904554	0.000248	20.768911
2570.796619	-2.993900	2.951200	-8.835000	27.861415	0.000248	20.757261
2571.799224	-2.996000	2.949900	-8.836700	27.896675	0.000248	20.766671
2572.801887	-3.005400	2.947700	-8.856600	27.928402	0.000249	20.757826
2573.801310	-3.013800	2.946700	-8.879600	27.969784	0.000249	20.780038
2574.799066	-2.988100	2.946300	-8.802200	28.018083	0.000250	20.752790
2575.796218	-2.980800	2.945000	-8.777200	28.058764	0.000247	20.749642
2576.796404	-2.990300	2.942400	-8.797800	28.053452	0.000248	20.746193
2577.804107	-2.990700	2.941300	-8.795600	28.086132	0.000247	20.761072
2578.800990	-3.020400	2.937700	-8.872000	28.110868	0.000248	20.767007
2579.806741	-3.011900	2.937600	-8.846600	28.159154	0.000249	20.768201
2580.795562	-3.014500	2.934100	-8.844300	28.198765	0.000249	20.767302
2581.801647	-2.972100	2.934900	-8.721600	28.261353	0.000249	20.772468
2582.805304	-2.987200	2.933000	-8.760300	28.294074	0.000249	20.749463
2583.807445	-3.011500	2.932100	-8.828600	28.294067	0.000248	20.753248
2584.801096	-2.999100	2.931400	-8.790600	28.246356	0.000245	20.751204
2585.802642	-3.003800	2.927700	-8.793100	28.151667	0.000248	20.778207
2586.804375	-3.012000	2.927000	-8.815400	28.121328	0.000247	20.754303
2587.800970	-3.025200	2.924200	-8.845000	28.064823	0.000246	20.765225
2588.802384	-2.982600	2.924700	-8.721800	28.046006	0.000247	20.768569
2589.799875	-2.997000	2.922100	-8.756900	27.993273	0.000247	20.751523
2590.804291	-2.998900	2.918500	-8.751500	27.945028	0.000246	20.755120
2591.804007	-3.014400	2.918900	-8.798000	27.934291	0.000246	20.748580
2592.804883	-2.979500	2.917200	-8.691000	27.922457	0.000249	20.734298
2593.805532	-2.997400	2.914800	-8.735800	27.974601	0.000248	20.755489
2594.805954	-3.003000	2.913500	-8.748100	28.007104	0.000249	20.760230
2595.805824	-2.992700	2.911000	-8.710700	28.063531	0.000250	20.760606
2596.802942	-3.008900	2.909400	-8.753300	28.113508	0.000247	20.736947
2597.806865	-3.029200	2.907100	-8.804900	28.113435	0.000249	20.755840
2598.807017	-3.017200	2.906800	-8.769900	28.088293	0.000247	20.769411
2599.810077	-2.976700	2.905200	-8.646900	28.083664	0.000248	20.751000
2600.808709	-2.991800	2.902900	-8.682800	28.076550	0.000248	20.745735
2601.808621	-3.002300	2.902200	-8.712500	28.087448	0.000250	20.761923
2602.805800	-3.006000	2.900300	-8.717000	28.063719	0.000248	20.758898
2603.807910	-3.008000	2.898100	-8.716400	28.120565	0.000247	20.741207
2604.814986	-2.991800	2.896900	-8.665600	28.073440	0.000249	20.726483
2605.815922	-2.984500	2.896400	-8.643500	28.016371	0.000248	20.730202
2606.812199	-2.969500	2.894800	-8.595000	28.011482	0.000247	20.740455
2607.811705	-2.978800	2.891900	-8.613200	28.038478	0.000246	20.741550
2608.810942	-3.004700	2.888100	-8.677100	28.052219	0.000248	20.746373
2609.813946	-2.995900	2.888300	-8.652100	28.067585	0.000248	20.743823
2610.814001	-2.993900	2.885700	-8.638900	28.115076	0.000248	20.745164
2611.809948	-2.993800	2.885100	-8.636400	28.193439	0.000248	20.737283
2612.812527	-2.980900	2.882500	-8.591500	28.220113	0.000248	20.727627
2613.812488	-3.021800	2.879700	-8.700200	28.265747	0.000248	20.739433
2614.812130	-2.998800	2.877300	-8.627600	28.291096	0.000248	20.751206
2615.816445	-2.996800	2.875100	-8.615300	28.324856	0.000248	20.718814
2616.807701	-2.992700	2.874000	-8.599900	28.309714	0.000249	20.738656
2617.817895	-2.989200	2.873000	-8.585900	28.312661	0.000248	20.737830
2618.811266	-3.039400	2.868700	-8.718100	28.325603	0.000247	20.737585
2619.813855	-3.036200	2.867100	-8.702300	28.310948	0.000247	20.727096
2620.818707	-2.976900	2.867700	-8.536400	28.272681	0.000248	20.720809
2621.813246	-2.973700	2.864900	-8.518200	28.286516	0.000249	20.725731
2622.815906	-2.975300	2.862900	-8.517000	28.301537	0.000247	20.725207
2623.812744	-2.987500	2.860700	-8.544000	28.304087	0.000248	20.712601
2624.810227	-2.986200	2.859400	-8.537000	28.277073	0.000248	20.736612
2625.814546	-2.986400	2.857300	-8.532200	28.264456	0.000247	20.728175
2626.816638	-3.008100	2.854500	-8.585300	28.205164	0.000246	20.715421
2627.820809	-3.007800	2.852900	-8.580200	28.226487	0.000247	20.732622
2628.815170	-2.996800	2.852000	-8.545600	28.264675	0.000247	20.733138
2629.815885	-2.987000	2.848800	-8.507900	28.276878	0.000248	20.725035
2630.814888	-3.003800	2.846600	-8.549700	28.288700	0.000247	20.733146
2631.820071	-2.998400	2.845300	-8.530400	28.349173	0.000247	20.735713
2632.816563	-3.018500	2.843100	-8.581100	28.364785	0.000248	20.739580
2633.813784	-2.998100	2.841200	-8.518200	28.403625	0.000248	20.727480
2634.816878	-3.000200	2.837900	-8.513700	28.435376	0.000246	20.737642
2635.820058	-2.988300	2.837100	-8.476400	28.463969	0.000249	20.732770
2636.820938	-3.005100	2.833700	-8.514100	28.457133	0.000248	20.711186
2637.817074	-2.982900	2.831000	-8.443100	28.443600	0.000248	20.722215
2638.814945	-3.008300	2.830300	-8.513200	28.365857	0.000247	20.730227
2639.818540	-3.020500	2.826000	-8.534700	28.336637	0.000246	20.720244
2640.820929	-2.999600	2.824800	-8.472200	28.338991	0.000248	20.718348
2641.815531	-2.996600	2.822400	-8.457100	28.309673	0.000246	20.702577
2642.818650	-3.031400	2.819500	-8.546300	28.303973	0.000248	20.739988
2643.818243	-2.969700	2.818900	-8.370100	28.321365	0.000248	20.711031
2644.819450	-3.000100	2.815100	-8.444400	28.386405	0.000246	20.734323
2645.817568	-3.003700	2.814600	-8.452700	28.390335	0.000249	20.724529
2646.818151	-2.988400	2.812800	-8.405200	28.364046	0.000247	20.710385
2647.821373	-2.994400	2.808100	-8.407600	28.372206	0.000246	20.726188
2648.817481	-2.995800	2.805700	-8.404200	28.347589	0.000245	20.736489
2649.817259	-3.006500	2.804700	-8.430900	28.380227	0.000246	20.731421
2650.816443	-3.021300	2.800400	-8.459800	28.405631	0.000248	20.708635
2651.817926	-2.989700	2.800300	-8.371300	28.415080	0.000245	20.703452
2652.823856	-3.019700	2.794500	-8.437000	28.445159	0.000247	20.717620
2653.826949	-2.996700	2.794000	-8.371300	28.492593	0.000247	20.717972
2654.826011	-2.984700	2.792400	-8.332700	28.503796	0.000247	20.745850
2655.822858	-2.982900	2.787900	-8.315000	28.479685	0.000247	20.714456
2656.825403	-3.001500	2.784700	-8.357200	28.445289	0.000248	20.701154
2657.830475	-3.019400	2.783300	-8.403300	28.453196	0.000244	20.697737
2658.822475	-3.021200	2.779200	-8.395800	28.475448	0.000247	20.713034
2659.826373	-3.010300	2.779300	-8.366100	28.508950	0.000246	20.702201
2660.823811	-2.980200	2.775600	-8.271200	28.554449	0.000246	20.703452
2661.827533	-2.986600	2.771600	-8.276700	28.545748	0.000248	20.717448
2662.828136	-2.974800	2.770500	-8.239500	28.534821	0.000247	20.693641
2663.830423	-2.991100	2.766800	-8.274500	28.508504	0.000246	20.710287
2664.825686	-2.983800	2.763800	-8.245300	28.523416	0.000245	20.715822
2665.833779	-3.018900	2.760000	-8.330700	28.537078	0.000246	20.727210
2666.828963	-3.010800	2.757700	-8.302100	28.567681	0.000245	20.717252
2667.831220	-3.014800	2.754200	-8.301300	28.542103	0.000246	20.709510
2668.834908	-2.962300	2.751900	-8.150400	28.523790	0.000247	20.722362
2669.830828	-3.006600	2.749600	-8.266500	28.570481	0.000245	20.712960
2670.833323	-3.006400	2.745300	-8.252600	28.609354	0.000247	20.705169
2671.827902	-3.009600	2.741300	-8.248900	28.587000	0.000245	20.737184
2672.831875	-3.023100	2.737800	-8.275900	28.520550	0.000245	20.728109
2673.834219	-3.021200	2.735600	-8.263200	28.460275	0.000247	20.719092
2674.833433	-2.985600	2.733800	-8.160300	28.456143	0.000245	20.701653
2675.830749	-3.016200	2.729800	-8.233600	28.465682	0.000247	20.684230
2676.829800	-3.014300	2.725200	-8.212200	28.506864	0.000247	20.711006
2677.835144	-3.024200	2.721500	-8.229000	28.529708	0.000245	20.717416
2678.829854	-3.001800	2.719600	-8.163100	28.587991	0.000246	20.708308
2679.836410	-2.988200	2.715900	-8.114300	28.599931	0.000248	20.693306
2680.829582	-2.963200	2.712800	-8.037700	28.632147	0.000245	20.711055
2681.844554	-3.016800	2.707600	-8.167300	28.648836	0.000247	20.692301
2682.833565	-2.989700	2.705600	-8.087500	28.618438	0.000245	20.715266
2683.836114	-2.975700	2.701300	-8.037100	28.597301	0.000246	20.717686
2684.836765	-2.977100	2.700000	-8.036100	28.618989	0.000246	20.701596
2685.835468	-2.984600	2.694200	-8.040300	28.673599	0.000247	20.717718
2686.834991	-2.970200	2.692100	-7.995000	28.713832	0.000248	20.691385
2687.834935	-2.998000	2.687400	-8.055800	28.682535	0.000245	20.684517
2688.835138	-2.998100	2.682600	-8.040400	28.668437	0.000247	20.694974
2689.831786	-2.992500	2.680300	-8.020100	28.688606	0.000246	20.695849
2690.839079	-2.990700	2.675500	-8.001000	28.657958	0.000245	20.734209
2691.832274	-2.970200	2.673400	-7.940000	28.700968	0.000246	20.693601
2692.838477	-2.959800	2.668800	-7.898500	28.718190	0.000247	20.704311
2693.835007	-3.014100	2.661200	-8.019700	28.720073	0.000247	20.721381
2694.836538	-2.983300	2.660800	-7.937200	28.729707	0.000246	20.699790
2695.839003	-3.021300	2.653500	-8.016100	28.738968	0.000247	20.684935
2696.836364	-2.958800	2.652400	-7.846400	28.756466	0.000247	20.688335
2697.839566	-2.970300	2.647300	-7.862400	28.789245	0.000249	20.690060
2698.837510	-2.988500	2.642300	-7.895700	28.817487	0.000249	20.695276
2699.834073	-2.982300	2.637100	-7.863000	28.841516	0.000247	20.686291
2700.837686	-2.998300	2.633300	-7.894500	28.848715	0.000247	20.688802
2701.844438	-2.983700	2.629200	-7.843600	28.834919	0.000247	20.689603
2702.835063	-3.032200	2.623400	-7.952200	28.837451	0.000247	20.691679
2703.835298	-2.998200	2.618800	-7.850500	28.879511	0.000248	20.678574
2704.836116	-3.022300	2.614800	-7.900400	28.866747	0.000248	20.679939
2705.836845	-2.990000	2.609100	-7.799900	28.872183	0.000245	20.680675
2706.842311	-3.000000	2.603400	-7.809000	28.834627	0.000247	20.674608
2707.835858	-2.976900	2.599000	-7.735600	28.849259	0.000248	20.682711
2708.846374	-3.031800	2.593500	-7.861700	28.862243	0.000246	20.684885
2709.841205	-2.982700	2.589000	-7.722000	28.891319	0.000248	20.674347
2710.841727	-2.968000	2.584500	-7.670100	28.889315	0.000246	20.678018
2711.842764	-3.004600	2.578300	-7.745300	28.913294	0.000247	20.700281
2712.838961	-2.982600	2.573700	-7.675400	28.836924	0.000245	20.676922
2713.842136	-2.977400	2.567000	-7.642000	28.782347	0.000246	20.682637
2714.843668	-2.987200	2.562300	-7.653300	28.748034	0.000248	20.683161
2715.843839	-3.003100	2.554900	-7.671500	28.742482	0.000246	20.668084
2716.844514	-2.998500	2.550500	-7.646900	28.747465	0.000246	20.700133
2717.845182	-3.048700	2.543500	-7.753700	28.762528	0.000248	20.679269
2718.841036	-2.973300	2.538200	-7.544900	28.809226	0.000249	20.680790
2719.842469	-2.977600	2.532800	-7.540000	28.862860	0.000247	20.674600
2720.839801	-2.959600	2.526200	-7.475100	28.904059	0.000246	20.662998
2721.843003	-3.021700	2.519600	-7.612400	28.881370	0.000245	20.669539
2722.845533	-3.000800	2.514500	-7.544700	28.891919	0.000247	20.677797
2723.844507	-3.001500	2.508800	-7.529500	28.908165	0.000247	20.665239
2724.844938	-3.016100	2.502400	-7.545600	28.913594	0.000247	20.665966
2725.845046	-3.011700	2.498100	-7.522900	28.968926	0.000248	20.672401
