LabVIEW Measurement	
Writer_Version	2
Reader_Version	2
Separator	Tab
Decimal_Separator	.
Multi_Headings	No
X_Columns	One
Time_Pref	Absolute
Operator	admin
Description	Clolumns are: time, Current, Voltage, Power, Battery Temp, and Chamber Temp
Date	2024/08/16
Time	13:06:06.104549407958984375
***End_of_Header***	
	
Channels	6						
Samples	1	1	1	1	1	1	
Date	2024/09/06	2024/09/06	2024/09/06	2024/09/06	2024/09/06	2024/09/06	
Time	03:28:25.3228254318237304687	03:28:25.3278288841247558594	03:28:25.3328270912170410156	03:28:25.3048281669616699219	03:28:25.3048281669616699219	03:28:25.3048281669616699219	
X_Dimension	Time	Time	Time	Time	Time	Time	
X0	0.0000000000000000E+0	0.0000000000000000E+0	0.0000000000000000E+0	0.0000000000000000E+0	0.0000000000000000E+0	0.0000000000000000E+0	
Delta_X	1.000000	1.000000	1.000000	1.000000	1.000000	1.000000	
***End_of_Header***							
X_Value	Untitled	Untitled 1	Untitled 2	Untitled 3	Untitled 4	Untitled 5	Comment
0.000000	0.009361	4.101300	0.038423	21.135511	0.000925	20.887575
0.995624	-3.011600	3.929100	-11.832000	21.126577	0.000927	20.898077
1.995626	-2.995600	3.922000	-11.748000	21.125532	0.000926	20.922159
2.998886	-2.993700	3.916800	-11.725000	21.131371	0.000923	20.898131
3.996427	-3.024000	3.912000	-11.829000	21.114083	0.000923	20.911657
4.997097	-3.017000	3.909700	-11.794000	21.120192	0.000923	20.901173
6.000056	-3.003100	3.907100	-11.732000	21.146862	0.000922	20.907462
6.998880	-3.007900	3.904300	-11.742000	21.142847	0.000921	20.908662
8.002439	-3.016500	3.901700	-11.768000	21.144470	0.000922	20.887053
8.999624	-3.000800	3.901700	-11.706000	21.139504	0.000918	20.907214
9.999014	-2.999500	3.898800	-11.693000	21.124037	0.000920	20.893167
11.002848	-2.991000	3.896900	-11.655000	21.143098	0.000920	20.914602
12.002074	-3.003800	3.896800	-11.704000	21.156148	0.000918	20.884510
13.002075	-2.987000	3.895600	-11.636000	21.143023	0.000914	20.902200
14.002074	-2.993600	3.895100	-11.658000	21.139583	0.000919	20.886906
15.002237	-2.992800	3.892400	-11.648000	21.137483	0.000917	20.880064
16.001207	-3.017400	3.889700	-11.736000	21.157918	0.000916	20.898608
17.000203	-2.980200	3.890200	-11.591000	21.147139	0.000916	20.876447
18.005203	-3.000400	3.887500	-11.662000	21.176282	0.000916	20.867668
19.000351	-2.998800	3.886400	-11.653000	21.168372	0.000915	20.877298
20.000411	-3.025100	3.886500	-11.756000	21.171291	0.000913	20.884485
21.001693	-2.981200	3.886500	-11.586000	21.183144	0.000913	20.875954
22.002411	-2.989700	3.884800	-11.613000	21.193971	0.000912	20.879672
23.001907	-3.022400	3.883100	-11.735000	21.181672	0.000914	20.864051
24.004976	-3.009200	3.882100	-11.680000	21.191051	0.000912	20.875803
25.007841	-3.023900	3.879800	-11.731000	21.192401	0.000911	20.876205
26.004848	-2.980200	3.880400	-11.564000	21.204150	0.000910	20.868519
27.005512	-2.980600	3.880900	-11.566000	21.195694	0.000910	20.877128
28.008523	-2.999300	3.880400	-11.637000	21.210535	0.000911	20.869216
29.009601	-3.005400	3.879200	-11.658000	21.200933	0.000910	20.878576
30.008937	-2.999200	3.878400	-11.631000	21.216998	0.000910	20.875207
31.008911	-3.010500	3.877500	-11.672000	21.244913	0.000910	20.858088
32.012910	-2.989900	3.877300	-11.591000	21.215652	0.000911	20.867222
33.006909	-2.998900	3.875000	-11.620000	21.233839	0.000908	20.874036
34.010312	-3.006700	3.876800	-11.656000	21.232040	0.000906	20.859909
35.011836	-3.014800	3.875400	-11.683000	21.261881	0.000907	20.872218
36.007766	-2.991200	3.876600	-11.594000	21.246363	0.000906	20.861435
37.010763	-2.977400	3.875000	-11.537000	21.260880	0.000906	20.860785
38.006552	-3.023200	3.873200	-11.708000	21.250578	0.000906	20.852376
39.008584	-2.987300	3.873500	-11.569000	21.267716	0.000906	20.850081
40.011750	-2.990500	3.873600	-11.583000	21.286025	0.000901	20.877405
41.008749	-2.969800	3.873800	-11.503000	21.272381	0.000903	20.864230
42.009609	-3.007600	3.872100	-11.643000	21.287199	0.000904	20.860562
43.011564	-3.014800	3.872500	-11.674000	21.293859	0.000903	20.859165
44.010045	-2.990800	3.872400	-11.581000	21.297974	0.000902	20.867549
45.010903	-3.013200	3.870700	-11.662000	21.297673	0.000904	20.865351
46.015048	-3.013400	3.871000	-11.664000	21.330776	0.000905	20.851529
47.011094	-2.983800	3.870600	-11.548000	21.315959	0.000905	20.847610
48.009683	-3.002600	3.870600	-11.619000	21.321172	0.000899	20.844291
49.012684	-3.016100	3.869500	-11.670000	21.338981	0.000902	20.859262
50.011265	-2.987300	3.870300	-11.561000	21.322870	0.000904	20.847412
51.011064	-3.001100	3.868700	-11.609000	21.347540	0.000902	20.882523
52.013140	-3.010100	3.868300	-11.643000	21.353321	0.000903	20.867445
53.014138	-3.021200	3.868300	-11.685000	21.352449	0.000901	20.851874
54.012165	-3.010100	3.867300	-11.638000	21.354721	0.000900	20.880698
55.016137	-3.008100	3.866900	-11.632000	21.383878	0.000899	20.853921
56.017096	-2.983100	3.867600	-11.537000	21.370906	0.000902	20.844737
57.013178	-2.987500	3.867800	-11.553000	21.398717	0.000899	20.852646
58.017178	-3.004600	3.866900	-11.617000	21.407523	0.000900	20.850078
59.018178	-3.011900	3.866100	-11.643000	21.397719	0.000903	20.864924
60.015242	-3.003600	3.864400	-11.605000	21.417221	0.000900	20.824220
61.017470	-2.989600	3.865400	-11.555000	21.398692	0.000900	20.824647
62.017498	-3.002400	3.864000	-11.600000	21.420965	0.000902	20.846458
63.015847	-3.000300	3.864200	-11.593000	21.444239	0.000900	20.855994
64.017490	-2.988400	3.865800	-11.551000	21.426529	0.000899	20.853921
65.019156	-3.014600	3.863300	-11.645000	21.422512	0.000901	20.834730
66.015410	-2.986500	3.864800	-11.541000	21.444261	0.000900	20.849852
67.018511	-2.997900	3.862800	-11.579000	21.434535	0.000901	20.857190
68.017494	-2.985500	3.864600	-11.536000	21.461547	0.000901	20.834432
69.015983	-3.010200	3.862800	-11.627000	21.462721	0.000900	20.830865
70.019380	-2.998100	3.862500	-11.579000	21.456284	0.000903	20.833433
71.017736	-3.005900	3.861900	-11.607000	21.484318	0.000898	20.838724
72.015626	-3.008600	3.860900	-11.614000	21.482896	0.000900	20.842043
73.017692	-3.000500	3.862500	-11.588000	21.489280	0.000902	20.837050
74.020240	-2.988100	3.860000	-11.533000	21.475164	0.000902	20.844737
75.020239	-3.000000	3.860300	-11.580000	21.507114	0.000901	20.826921
76.021085	-2.984900	3.860200	-11.521000	21.489207	0.000900	20.846461
77.019087	-2.980100	3.860900	-11.504000	21.502724	0.000900	20.851450
78.019275	-3.005500	3.858800	-11.596000	21.508259	0.000900	20.835653
79.024152	-2.985000	3.860800	-11.524000	21.520755	0.000900	20.857165
80.025972	-3.015900	3.858600	-11.637000	21.527888	0.000902	20.835854
81.021823	-3.013200	3.858700	-11.626000	21.529683	0.000900	20.842391
82.027563	-2.981900	3.859300	-11.507000	21.544774	0.000902	20.836155
83.022169	-3.011000	3.860100	-11.622000	21.551857	0.000904	20.834234
84.022212	-3.001800	3.858200	-11.580000	21.573104	0.000900	20.837003
85.024715	-2.990800	3.859000	-11.539000	21.559037	0.000900	20.852323
86.022612	-3.010400	3.857300	-11.611000	21.593881	0.000902	20.836457
87.020555	-2.998100	3.857300	-11.563000	21.579038	0.000902	20.845786
88.027994	-3.006700	3.858000	-11.599000	21.585374	0.000901	20.822729
89.024797	-2.998000	3.857200	-11.563000	21.600289	0.000901	20.851877
90.022848	-3.002900	3.858000	-11.584000	21.591286	0.000902	20.836231
91.027032	-3.004800	3.857800	-11.590000	21.631758	0.000902	20.844489
92.027554	-3.011900	3.856400	-11.614000	21.641137	0.000902	20.840599
93.026436	-3.002200	3.855900	-11.575000	21.622637	0.000902	20.838206
94.028604	-3.005400	3.855400	-11.586000	21.652135	0.000902	20.844018
95.026956	-2.983700	3.856000	-11.505000	21.648941	0.000902	20.810951
96.025326	-3.007300	3.855500	-11.593000	21.631363	0.000903	20.846464
97.031082	-3.032700	3.854200	-11.687000	21.660541	0.000902	20.815921
98.030816	-2.994500	3.856100	-11.547000	21.678219	0.000903	20.825552
99.027555	-3.019300	3.853900	-11.634000	21.668520	0.000902	20.797828
100.032340	-2.979700	3.856100	-11.489000	21.682436	0.000901	20.818392
101.030066	-3.028700	3.853700	-11.671000	21.682784	0.000904	20.811155
102.029048	-2.973700	3.855600	-11.464000	21.697202	0.000904	20.825109
103.033731	-2.998400	3.853300	-11.552000	21.702062	0.000903	20.829025
104.029738	-2.998900	3.854100	-11.556000	21.692461	0.000903	20.829373
105.034167	-3.010600	3.852800	-11.599000	21.715777	0.000902	20.821413
106.035313	-2.993600	3.854000	-11.535000	21.712859	0.000904	20.829398
107.031929	-3.016900	3.853700	-11.625000	21.706251	0.000904	20.825156
108.035353	-3.017200	3.853600	-11.626000	21.737294	0.000904	20.817344
109.033281	-2.984100	3.854100	-11.499000	21.721013	0.000905	20.817171
110.034453	-3.008000	3.852600	-11.588000	21.738543	0.000902	20.813852
111.035875	-3.037300	3.849500	-11.690000	21.737692	0.000905	20.826277
112.031958	-3.023400	3.850900	-11.642000	21.743155	0.000902	20.844071
113.032516	-3.009900	3.852100	-11.594000	21.755049	0.000904	20.820889
114.033402	-3.011200	3.851200	-11.595000	21.750484	0.000904	20.841449
115.033055	-2.979900	3.852400	-11.479000	21.755871	0.000905	20.825030
116.034135	-2.997600	3.851400	-11.542000	21.767941	0.000907	20.809136
117.034784	-2.996900	3.851800	-11.542000	21.777043	0.000905	20.826305
118.032994	-3.001500	3.852000	-11.560000	21.786719	0.000906	20.837886
119.039275	-2.997200	3.850600	-11.540000	21.786439	0.000907	20.806787
120.034525	-3.004100	3.849200	-11.563000	21.785090	0.000907	20.817290
121.033195	-2.993400	3.851300	-11.528000	21.805119	0.000906	20.822164
122.034386	-3.003400	3.850700	-11.564000	21.798383	0.000904	20.816844
123.037208	-3.006800	3.849800	-11.574000	21.816959	0.000905	20.813626
124.034967	-3.016400	3.848900	-11.608000	21.846403	0.000910	20.809905
125.033772	-2.989300	3.851400	-11.512000	21.830171	0.000908	20.832064
126.037967	-3.007900	3.848900	-11.576000	21.828724	0.000906	20.792685
127.034976	-3.004000	3.849600	-11.563000	21.829176	0.000908	20.805465
128.037735	-3.003600	3.847900	-11.556000	21.817559	0.000908	20.815648
129.036505	-2.971100	3.849600	-11.436000	21.813220	0.000910	20.810831
130.036191	-3.012200	3.848100	-11.591000	21.837305	0.000906	20.815023
131.036200	-3.008800	3.849600	-11.583000	21.828304	0.000909	20.808859
132.038343	-3.006300	3.848400	-11.568000	21.818227	0.000906	20.814420
133.045873	-2.980600	3.847700	-11.467000	21.833415	0.000908	20.820612
134.036959	-3.010200	3.847900	-11.582000	21.837380	0.000908	20.810831
135.039876	-3.024700	3.846700	-11.634000	21.866051	0.000910	20.795432
136.036834	-2.981400	3.849000	-11.474000	21.872485	0.000909	20.818468
137.042550	-3.009900	3.847800	-11.579000	21.869320	0.000912	20.809610
138.039120	-3.027400	3.845300	-11.639000	21.900359	0.000912	20.812703
139.039623	-2.982000	3.846400	-11.469000	21.901582	0.000909	20.815350
140.044835	-3.015000	3.846200	-11.595000	21.909136	0.000911	20.801100
141.042693	-2.989900	3.846200	-11.498000	21.946586	0.000910	20.819620
142.039630	-2.987200	3.845900	-11.487000	21.938558	0.000911	20.807318
143.042801	-2.998800	3.846500	-11.534000	21.951822	0.000909	20.812533
144.041450	-3.010200	3.844900	-11.572000	21.955762	0.000909	20.796089
145.040050	-3.021700	3.844100	-11.614000	21.956511	0.000911	20.819598
146.044912	-3.005900	3.844400	-11.555000	21.974338	0.000912	20.808046
147.040504	-3.012100	3.845400	-11.582000	21.983238	0.000911	20.801308
148.041237	-3.012500	3.844500	-11.580000	21.974966	0.000914	20.814364
149.046082	-3.004800	3.843600	-11.548000	21.971277	0.000910	20.813990
150.046798	-3.006500	3.843400	-11.554000	21.999847	0.000912	20.799442
151.041918	-2.985100	3.844800	-11.476000	21.988404	0.000912	20.809324
152.046945	-3.015100	3.845200	-11.592000	21.991397	0.000914	20.817061
153.044205	-2.998200	3.842700	-11.520000	22.007852	0.000913	20.790861
154.045103	-2.988700	3.844900	-11.489000	22.012144	0.000912	20.788992
155.048566	-3.017900	3.842800	-11.597000	22.001695	0.000914	20.807930
156.046045	-3.001000	3.841700	-11.528000	22.023859	0.000914	20.801195
157.046170	-3.008200	3.842000	-11.557000	22.034480	0.000915	20.797603
158.048772	-3.013500	3.843200	-11.581000	22.027476	0.000914	20.785849
159.046831	-3.008100	3.841400	-11.554000	22.040763	0.000916	20.802470
160.045032	-3.001100	3.842200	-11.530000	22.052680	0.000914	20.788795
161.049038	-2.986500	3.843000	-11.476000	22.029722	0.000916	20.792365
162.049942	-3.007200	3.841800	-11.552000	22.044979	0.000915	20.795310
163.050060	-2.985700	3.841200	-11.467000	22.046002	0.000915	20.813878
164.049843	-2.987700	3.841400	-11.476000	22.048621	0.000917	20.794689
165.048981	-2.998400	3.842100	-11.519000	22.049565	0.000913	20.791841
166.047382	-2.996100	3.840200	-11.503000	22.062780	0.000916	20.804596
167.052705	-3.012600	3.839700	-11.565000	22.071678	0.000917	20.795012
168.048552	-2.990600	3.841300	-11.487000	22.088032	0.000918	20.783884
169.049816	-3.013500	3.838900	-11.568000	22.085040	0.000917	20.819768
170.053093	-3.007800	3.838600	-11.545000	22.104085	0.000917	20.804696
171.051198	-2.990700	3.840200	-11.484000	22.110192	0.000919	20.796111
172.050725	-3.005900	3.839700	-11.540000	22.133571	0.000919	20.798180
173.054892	-2.999100	3.838700	-11.511000	22.159644	0.000920	20.786826
174.051172	-3.008500	3.838000	-11.546000	22.129111	0.000917	20.778068
175.051202	-2.989000	3.838800	-11.473000	22.153911	0.000918	20.782034
176.054358	-2.977800	3.839200	-11.431000	22.156903	0.000920	20.793565
177.052418	-2.993500	3.838500	-11.490000	22.171911	0.000920	20.787253
178.052686	-3.006800	3.839200	-11.542000	22.177114	0.000919	20.785824
179.056335	-3.004500	3.839100	-11.533000	22.180931	0.000922	20.807189
180.053436	-2.992600	3.837400	-11.483000	22.205431	0.000919	20.784778
181.052495	-2.993400	3.837700	-11.486000	22.197682	0.000922	20.782235
182.055408	-2.995200	3.837800	-11.494000	22.200024	0.000924	20.781262
183.054402	-3.033900	3.837200	-11.639000	22.205955	0.000923	20.776294
184.055205	-3.005000	3.837700	-11.531000	22.222530	0.000920	20.772026
185.057008	-3.001800	3.837700	-11.520000	22.222953	0.000924	20.798529
186.056496	-2.996900	3.835300	-11.493000	22.230681	0.000924	20.760747
187.056404	-2.986300	3.837000	-11.457000	22.232374	0.000927	20.789944
188.062058	-3.026800	3.835800	-11.608000	22.248450	0.000923	20.786126
189.058082	-3.014800	3.834900	-11.559000	22.259442	0.000924	20.778639
190.059155	-3.024100	3.834200	-11.594000	22.256005	0.000926	20.787526
191.060762	-2.989900	3.835600	-11.467000	22.247055	0.000929	20.785202
192.059782	-2.976700	3.835500	-11.416000	22.238531	0.000926	20.757227
193.057758	-2.993300	3.836000	-11.481000	22.258868	0.000925	20.772375
194.062089	-3.011800	3.833900	-11.546000	22.250495	0.000926	20.786276
195.061264	-3.005500	3.835100	-11.524000	22.225296	0.000926	20.757726
196.057472	-2.981600	3.834300	-11.430000	22.244289	0.000927	20.760621
197.063292	-3.017500	3.831700	-11.561000	22.239453	0.000929	20.786126
198.060085	-2.996500	3.832700	-11.483000	22.247453	0.000929	20.783230
199.061373	-3.024000	3.832600	-11.588000	22.252217	0.000929	20.778517
200.060531	-3.027200	3.834000	-11.605000	22.248801	0.000931	20.772252
201.062150	-3.009800	3.833000	-11.536000	22.264482	0.000929	20.787005
202.060911	-2.995500	3.833200	-11.481000	22.278312	0.000931	20.766713
203.062393	-3.014400	3.831000	-11.547000	22.279958	0.000931	20.776897
204.061382	-2.995000	3.832100	-11.476000	22.307126	0.000929	20.780866
205.060066	-2.997300	3.832200	-11.485000	22.313532	0.000929	20.794394
206.062235	-2.995600	3.831900	-11.477000	22.347776	0.000928	20.781742
207.062171	-2.988800	3.832100	-11.450000	22.356673	0.000930	20.779745
208.060365	-2.973200	3.831400	-11.391000	22.352436	0.000934	20.754165
209.062088	-2.979600	3.832100	-11.417000	22.364675	0.000934	20.783965
210.062651	-2.990400	3.832200	-11.458000	22.390244	0.000933	20.754567
211.061922	-3.028900	3.829000	-11.596000	22.385836	0.000936	20.772438
212.059247	-2.974200	3.831000	-11.393000	22.400765	0.000937	20.775534
213.069281	-2.998900	3.830900	-11.487000	22.391446	0.000933	20.779952
214.062894	-2.990500	3.830800	-11.455000	22.372481	0.000936	20.788936
215.064001	-3.002100	3.830200	-11.498000	22.382700	0.000936	20.769772
216.061260	-2.984100	3.830600	-11.430000	22.388012	0.000936	20.784101
217.063227	-2.995300	3.829700	-11.469000	22.376548	0.000937	20.786845
218.063949	-2.976200	3.829800	-11.397000	22.384898	0.000938	20.774819
219.062529	-3.019900	3.828700	-11.561000	22.390483	0.000939	20.784205
220.061608	-3.002500	3.830100	-11.500000	22.405136	0.000940	20.781334
221.066326	-2.983400	3.830500	-11.426000	22.411467	0.000940	20.762070
222.062758	-3.001100	3.829500	-11.492000	22.417027	0.000939	20.769534
223.062947	-2.999400	3.828700	-11.482000	22.401054	0.000939	20.781514
224.068442	-3.001400	3.827500	-11.487000	22.438007	0.000939	20.768259
225.067272	-2.968800	3.829700	-11.368000	22.430510	0.000940	20.759803
226.065296	-2.996900	3.827400	-11.469000	22.407535	0.000942	20.769986
227.070416	-3.001000	3.827300	-11.484000	22.404020	0.000943	20.769785
228.067547	-3.011000	3.828100	-11.526000	22.439660	0.000943	20.768017
229.065072	-2.963100	3.828400	-11.343000	22.418877	0.000944	20.775180
230.067670	-2.996000	3.826900	-11.464000	22.416259	0.000943	20.750746
231.065577	-2.971400	3.828400	-11.374000	22.426306	0.000943	20.775507
232.065566	-3.007200	3.826500	-11.504000	22.450252	0.000943	20.779099
233.068007	-2.986800	3.826200	-11.427000	22.466849	0.000944	20.773908
234.066747	-2.999300	3.825900	-11.474000	22.438168	0.000945	20.753720
235.066452	-2.999800	3.825900	-11.475000	22.435901	0.000947	20.768520
236.068514	-3.006500	3.825400	-11.499000	22.409336	0.000945	20.749503
237.072813	-2.997300	3.826200	-11.467000	22.418429	0.000947	20.769041
238.065805	-2.997900	3.824400	-11.464000	22.438042	0.000945	20.775406
239.071351	-2.998900	3.825200	-11.470000	22.437920	0.000946	20.773387
240.067382	-3.004000	3.824400	-11.488000	22.462562	0.000948	20.751597
241.068214	-3.011700	3.824400	-11.516000	22.481357	0.000947	20.767101
242.068107	-3.023800	3.823400	-11.559000	22.491895	0.000950	20.766275
243.067848	-3.005600	3.824600	-11.494000	22.487361	0.000948	20.783546
244.070146	-2.991500	3.823100	-11.436000	22.513103	0.000949	20.777558
245.080923	-2.980100	3.825100	-11.398000	22.511382	0.000951	20.768721
246.069745	-2.978300	3.823500	-11.386000	22.533386	0.000949	20.756145
247.069115	-2.984900	3.823800	-11.412000	22.523469	0.000951	20.771817
248.070203	-2.970000	3.822400	-11.352000	22.529996	0.000953	20.753224
249.070215	-2.978000	3.822600	-11.382000	22.535502	0.000952	20.764428
250.068824	-2.980600	3.823000	-11.394000	22.523318	0.000952	20.761709
251.076874	-2.994500	3.822100	-11.444000	22.549084	0.000953	20.762384
252.075200	-3.007200	3.820500	-11.489000	22.541183	0.000954	20.754471
253.070859	-3.010300	3.820800	-11.500000	22.552646	0.000954	20.761210
254.073035	-2.994400	3.821600	-11.443000	22.551251	0.000956	20.755545
255.074251	-3.005400	3.821700	-11.484000	22.546868	0.000956	20.775812
256.072150	-3.006500	3.821100	-11.487000	22.571486	0.000956	20.778182
257.073449	-3.006200	3.819700	-11.482000	22.587159	0.000957	20.801466
258.073146	-2.998100	3.821500	-11.457000	22.612149	0.000957	20.758217
259.072727	-3.004700	3.821300	-11.481000	22.607587	0.000957	20.767873
260.074882	-3.007900	3.820200	-11.490000	22.593858	0.000956	20.766451
261.078286	-2.990300	3.820300	-11.422000	22.580330	0.000958	20.761910
262.071815	-3.011200	3.820400	-11.503000	22.592538	0.000958	20.755171
263.078109	-2.988200	3.820500	-11.416000	22.583196	0.000959	20.766677
264.075450	-3.021200	3.818500	-11.536000	22.579684	0.000958	20.774066
265.072140	-3.003200	3.819400	-11.469000	22.622814	0.000959	20.763684
266.076247	-2.993900	3.818900	-11.432000	22.616162	0.000961	20.774565
267.076434	-2.995900	3.818200	-11.436000	22.623410	0.000961	20.765703
268.073495	-2.986400	3.819400	-11.404000	22.641621	0.000963	20.752175
269.075960	-2.978200	3.817700	-11.369000	22.648202	0.000962	20.784846
270.079534	-2.990800	3.817900	-11.416000	22.665143	0.000963	20.787116
271.075770	-2.996100	3.817700	-11.437000	22.690630	0.000962	20.777558
272.077554	-3.005100	3.816600	-11.468000	22.674288	0.000962	20.764507
273.083751	-2.994800	3.817100	-11.429000	22.674862	0.000962	20.762711
274.075741	-2.978900	3.818000	-11.372000	22.673890	0.000964	20.784497
275.079126	-3.000300	3.817100	-11.451000	22.685176	0.000965	20.768300
276.078887	-3.004400	3.815200	-11.460000	22.699972	0.000965	20.783596
277.077684	-2.987200	3.816200	-11.398000	22.653209	0.000965	20.768049
278.082509	-2.980800	3.817300	-11.376000	22.670849	0.000967	20.790460
279.080775	-3.005400	3.816600	-11.468000	22.670153	0.000967	20.776961
280.078823	-3.022300	3.815500	-11.531000	22.681335	0.000967	20.769195
281.080360	-2.980700	3.817000	-11.376000	22.685549	0.000969	20.790960
282.081326	-2.985800	3.815100	-11.389000	22.678824	0.000968	20.782328
283.082031	-2.993800	3.814100	-11.417000	22.690931	0.000968	20.783549
284.081258	-2.981700	3.816100	-11.377000	22.697308	0.000969	20.803686
285.083311	-3.006200	3.814800	-11.466000	22.718161	0.000969	20.774314
286.080082	-2.985200	3.813100	-11.382000	22.703386	0.000968	20.779429
287.082549	-3.005300	3.813900	-11.461000	22.734803	0.000971	20.782450
288.083724	-3.026800	3.811500	-11.535000	22.750549	0.000972	20.752703
289.079856	-2.968800	3.814800	-11.323000	22.755753	0.000970	20.784469
290.082495	-3.010800	3.812900	-11.478000	22.756079	0.000974	20.780528
291.083240	-3.015400	3.812500	-11.495000	22.763828	0.000973	20.770747
292.081107	-2.994100	3.813100	-11.416000	22.750029	0.000974	20.782529
293.080938	-3.006400	3.812900	-11.462000	22.784109	0.000973	20.770200
294.082907	-3.013600	3.812300	-11.487000	22.772420	0.000975	20.785044
295.080623	-3.001100	3.812200	-11.440000	22.796588	0.000972	20.776063
296.084432	-2.959100	3.813000	-11.282000	22.815298	0.000972	20.784375
297.085597	-2.975600	3.812600	-11.344000	22.817737	0.000974	20.787292
298.082003	-2.983200	3.811100	-11.369000	22.826285	0.000975	20.779734
299.084219	-3.008600	3.810800	-11.464000	22.811064	0.000976	20.772072
300.084012	-3.004200	3.810400	-11.446000	22.816248	0.000975	20.770153
301.088563	-2.997500	3.810400	-11.421000	22.828454	0.000975	20.784278
302.086673	-3.019500	3.809600	-11.503000	22.819214	0.000977	20.789720
303.084258	-2.984300	3.810400	-11.370000	22.840835	0.000977	20.791940
304.084453	-3.025100	3.807900	-11.519000	22.829501	0.000976	20.798129
305.098783	-2.980700	3.809400	-11.354000	22.828009	0.000979	20.788574
306.088709	-2.962900	3.809600	-11.286000	22.829257	0.000978	20.790298
307.086707	-3.024100	3.807200	-11.513000	22.851327	0.000982	20.800079
308.091118	-3.002800	3.808200	-11.434000	22.864729	0.000979	20.810661
309.088964	-3.002300	3.808300	-11.432000	22.869563	0.000982	20.802701
310.090131	-2.998000	3.808600	-11.416000	22.887074	0.000979	20.803649
311.090509	-3.017600	3.806300	-11.484000	22.903392	0.000980	20.805772
312.092020	-3.006100	3.806100	-11.440000	22.918687	0.000981	20.785534
313.092997	-3.005800	3.806400	-11.441000	22.939063	0.000981	20.797887
314.092119	-2.994200	3.807800	-11.401000	22.940633	0.000982	20.796142
315.094244	-3.005300	3.807300	-11.441000	22.921727	0.000983	20.794270
316.089349	-2.996000	3.806900	-11.405000	22.934807	0.000986	20.789830
317.094070	-3.007100	3.806700	-11.446000	22.978349	0.000982	20.801213
318.093587	-3.002900	3.807100	-11.432000	22.965891	0.000984	20.795369
319.090064	-3.016200	3.806800	-11.480000	22.977152	0.000983	20.815186
320.093199	-2.998500	3.805900	-11.411000	22.973742	0.000986	20.802287
321.095330	-2.986600	3.806400	-11.366000	22.966468	0.000985	20.784567
322.091759	-3.009900	3.804400	-11.450000	22.951496	0.000986	20.804180
323.094492	-3.000900	3.805100	-11.417000	23.017754	0.000985	20.810822
324.092922	-3.001800	3.804900	-11.420000	23.004776	0.000989	20.818207
325.094075	-2.983900	3.805800	-11.356000	23.006098	0.000987	20.805782
326.096290	-3.017300	3.804200	-11.476000	23.031427	0.000985	20.825944
327.093377	-2.981500	3.804700	-11.343000	23.017431	0.000989	20.811921
328.094221	-3.001300	3.802900	-11.413000	23.019349	0.000989	20.807204
329.098486	-2.995400	3.803900	-11.392000	23.023508	0.000988	20.787664
330.093814	-2.994000	3.803200	-11.386000	23.042487	0.000988	20.821853
331.093750	-2.984700	3.803000	-11.348000	23.026820	0.000988	20.811845
332.098465	-3.010800	3.801900	-11.445000	23.050209	0.000993	20.821529
333.098205	-3.006200	3.803400	-11.433000	23.032775	0.000989	20.811174
334.096997	-3.021300	3.801100	-11.483000	23.063086	0.000990	20.814992
335.097791	-3.010600	3.801800	-11.445000	23.067517	0.000992	20.809001
336.097687	-2.997600	3.802500	-11.397000	23.110180	0.000993	20.819033
337.096149	-3.013800	3.801400	-11.456000	23.097705	0.000992	20.800843
338.099489	-3.003700	3.801000	-11.416000	23.137356	0.000993	20.799797
339.094182	-3.023000	3.800100	-11.486000	23.122261	0.000993	20.801741
340.096607	-3.012200	3.800100	-11.446000	23.110732	0.000994	20.812000
341.098185	-2.986900	3.801700	-11.355000	23.103903	0.000993	20.838347
342.099699	-2.995500	3.800500	-11.384000	23.123207	0.000996	20.811698
343.097498	-3.018300	3.798200	-11.462000	23.132524	0.000996	20.808231
344.102040	-3.001800	3.798900	-11.402000	23.138051	0.000997	20.827046
345.098630	-3.019200	3.799500	-11.470000	23.125974	0.000996	20.826324
346.097880	-3.002200	3.798600	-11.404000	23.133592	0.000996	20.809302
347.096870	-3.000900	3.800000	-11.403000	23.149505	0.000996	20.820506
348.097320	-2.997000	3.799500	-11.386000	23.126598	0.000996	20.822208
349.098171	-3.005500	3.799000	-11.418000	23.145522	0.001000	20.807980
350.104328	-3.018600	3.797500	-11.461000	23.127867	0.000999	20.816841
351.099296	-3.018400	3.798800	-11.464000	23.128369	0.000998	20.832991
352.099166	-2.973300	3.798900	-11.294000	23.137732	0.000999	20.804442
353.102162	-3.001600	3.796700	-11.394000	23.182855	0.000996	20.823580
354.099529	-3.002300	3.796600	-11.398000	23.169657	0.000998	20.839277
355.100603	-2.989400	3.797600	-11.350000	23.175887	0.001002	20.817545
356.108700	-2.980300	3.797900	-11.317000	23.188737	0.001000	20.821414
357.100351	-3.005400	3.797100	-11.410000	23.169237	0.001002	20.834589
358.100461	-2.984400	3.797400	-11.331000	23.183432	0.001001	20.830322
359.104310	-3.010900	3.795500	-11.425000	23.152777	0.001001	20.813353
360.104039	-2.997500	3.795900	-11.376000	23.147421	0.001001	20.834539
361.100632	-2.999700	3.795600	-11.384000	23.158032	0.001002	20.824783
362.104469	-3.015300	3.795500	-11.444000	23.158756	0.001003	20.844474
363.103725	-2.990500	3.796000	-11.351000	23.180694	0.001004	20.838483
364.105335	-3.003500	3.795300	-11.398000	23.179324	0.001001	20.837111
365.104080	-3.027400	3.793600	-11.483000	23.193293	0.001005	20.843522
366.104377	-3.005100	3.793400	-11.398000	23.192297	0.001002	20.839205
367.103380	-3.006000	3.792900	-11.400000	23.221406	0.001004	20.830444
368.106854	-3.003900	3.793700	-11.394000	23.219790	0.001004	20.839255
369.103014	-3.011300	3.791900	-11.418000	23.245465	0.001004	20.837010
370.106487	-2.967700	3.794700	-11.259000	23.227933	0.001008	20.857373
371.109159	-3.005000	3.792700	-11.396000	23.244766	0.001006	20.822560
372.108843	-2.993800	3.793100	-11.353000	23.240554	0.001005	20.860537
373.105834	-2.999500	3.792200	-11.374000	23.245737	0.001006	20.837283
374.120547	-2.999600	3.790700	-11.370000	23.251161	0.001007	20.824701
375.111149	-3.000300	3.789900	-11.369000	23.265731	0.001006	20.826026
376.107130	-3.002600	3.791300	-11.382000	23.282512	0.001007	20.825301
377.108312	-3.016500	3.790300	-11.432000	23.303878	0.001008	20.840074
378.108900	-2.984900	3.790900	-11.315000	23.330121	0.001008	20.851676
379.109230	-2.972900	3.791900	-11.272000	23.315383	0.001009	20.848760
380.110658	-2.988300	3.790000	-11.324000	23.326013	0.001009	20.867473
381.110833	-2.993300	3.790400	-11.344000	23.332461	0.001012	20.845488
382.110191	-3.009200	3.789000	-11.400000	23.355169	0.001009	20.855918
383.112507	-2.991400	3.788600	-11.331000	23.378723	0.001010	20.851551
384.111141	-2.984900	3.790100	-11.311000	23.353324	0.001009	20.856914
385.110660	-2.989600	3.788000	-11.322000	23.362140	0.001010	20.850577
386.113118	-2.982900	3.789000	-11.301000	23.346331	0.001009	20.846587
387.113687	-2.996200	3.787800	-11.346000	23.362761	0.001011	20.850251
388.113976	-2.985900	3.788100	-11.310000	23.379791	0.001010	20.850725
389.115247	-2.993800	3.787500	-11.337000	23.366320	0.001012	20.848128
390.111762	-2.967500	3.788700	-11.242000	23.391167	0.001015	20.860703
391.116836	-2.980300	3.787300	-11.286000	23.377899	0.001013	20.849302
392.121828	-3.005600	3.786500	-11.380000	23.385612	0.001014	20.852766
393.114226	-2.981100	3.786700	-11.288000	23.410860	0.001012	20.860053
394.114458	-2.996500	3.786100	-11.343000	23.386461	0.001014	20.855039
395.116555	-3.002800	3.785900	-11.367000	23.389995	0.001015	20.860477
396.114050	-3.008700	3.785200	-11.387000	23.408119	0.001013	20.845927
397.114053	-2.996700	3.785600	-11.344000	23.423658	0.001014	20.840165
398.117866	-2.996500	3.785000	-11.340000	23.436477	0.001014	20.868186
399.114676	-2.997400	3.785600	-11.346000	23.440362	0.001015	20.856907
400.115314	-2.992600	3.784400	-11.325000	23.442154	0.001014	20.847798
401.115711	-3.006700	3.784800	-11.379000	23.438044	0.001017	20.849842
402.116013	-2.998000	3.785600	-11.347000	23.433435	0.001014	20.872248
403.116987	-2.992800	3.783900	-11.324000	23.450315	0.001016	20.861193
404.116361	-3.022800	3.783400	-11.435000	23.455668	0.001015	20.855180
405.116371	-2.988800	3.784100	-11.309000	23.456138	0.001015	20.841901
406.116925	-3.014600	3.782100	-11.401000	23.450784	0.001017	20.854552
407.116854	-2.981300	3.783200	-11.278000	23.463729	0.001016	20.845716
408.116851	-2.995800	3.782500	-11.331000	23.473763	0.001016	20.860988
409.116599	-2.963900	3.783300	-11.212000	23.483743	0.001017	20.855346
410.117021	-2.976500	3.782800	-11.258000	23.465618	0.001015	20.839075
411.117417	-2.987500	3.782500	-11.299000	23.428394	0.001020	20.868144
412.119691	-2.993100	3.781600	-11.316000	23.418438	0.001018	20.870967
413.121463	-2.991300	3.780500	-11.308000	23.413629	0.001021	20.874207
414.121160	-3.008800	3.779800	-11.371000	23.391100	0.001021	20.863007
415.119102	-2.975200	3.781100	-11.249000	23.372221	0.001020	20.863525
416.120420	-3.006800	3.779000	-11.361000	23.400630	0.001020	20.855964
417.120656	-3.007200	3.779600	-11.365000	23.412980	0.001019	20.868342
418.121178	-2.998000	3.779800	-11.331000	23.420546	0.001020	20.856485
419.127271	-3.003700	3.779000	-11.351000	23.430358	0.001021	20.873906
420.120043	-3.003900	3.779900	-11.353000	23.453237	0.001022	20.882138
421.120423	-3.020400	3.777400	-11.408000	23.428359	0.001022	20.874273
422.123134	-3.015700	3.779000	-11.395000	23.434612	0.001021	20.861101
423.121082	-3.015000	3.779000	-11.393000	23.448431	0.001023	20.880166
424.123026	-3.005800	3.778600	-11.357000	23.445768	0.001023	20.873705
425.123415	-3.015800	3.776500	-11.388000	23.453111	0.001024	20.877745
426.145245	-3.006000	3.777100	-11.353000	23.458039	0.001024	20.876995
427.122384	-3.019800	3.777000	-11.405000	23.450968	0.001023	20.890295
428.121934	-2.997300	3.776500	-11.317000	23.476638	0.001023	20.886154
429.122148	-2.998300	3.776500	-11.321000	23.475344	0.001024	20.887702
430.124348	-3.009100	3.776400	-11.362000	23.502752	0.001026	20.872502
431.123085	-3.001500	3.777000	-11.335000	23.510148	0.001023	20.885604
432.125362	-3.008600	3.774400	-11.355000	23.513735	0.001026	20.885881
433.126553	-3.002100	3.776100	-11.335000	23.506711	0.001024	20.878841
434.124516	-3.005300	3.774800	-11.344000	23.518314	0.001026	20.877670
435.125845	-3.000800	3.774900	-11.327000	23.543807	0.001026	20.891843
436.124527	-2.996500	3.775600	-11.312000	23.572459	0.001026	20.885953
437.125751	-2.994800	3.775600	-11.306000	23.561953	0.001026	20.887749
438.128935	-3.009800	3.773200	-11.355000	23.570718	0.001026	20.890845
439.137372	-2.999900	3.773600	-11.318000	23.559889	0.001027	20.892317
440.133905	-2.999500	3.773000	-11.316000	23.579827	0.001027	20.903768
441.127003	-2.993200	3.773400	-11.293000	23.547290	0.001027	20.877792
442.134661	-3.026800	3.772200	-11.416000	23.543456	0.001029	20.899077
443.129092	-3.008700	3.771700	-11.347000	23.516347	0.001028	20.897034
444.129636	-2.995000	3.772600	-11.298000	23.532527	0.001027	20.885278
445.127234	-3.006300	3.771500	-11.336000	23.552916	0.001027	20.900026
446.127849	-2.998500	3.771300	-11.307000	23.576914	0.001028	20.895633
447.127522	-3.007300	3.771800	-11.342000	23.578408	0.001030	20.906613
448.127860	-2.991200	3.770900	-11.279000	23.580171	0.001028	20.904114
449.129189	-3.001300	3.770100	-11.314000	23.610245	0.001030	20.883055
450.128170	-2.989700	3.770400	-11.271000	23.600635	0.001031	20.886223
451.128531	-2.991800	3.771700	-11.283000	23.600359	0.001030	20.913445
452.130728	-3.018900	3.769000	-11.378000	23.618383	0.001031	20.917288
453.130987	-2.998400	3.768800	-11.298000	23.605537	0.001030	20.899671
454.133113	-2.989300	3.769400	-11.266000	23.608751	0.001031	20.905263
455.134577	-2.996900	3.768000	-11.291000	23.586370	0.001029	20.905112
456.130490	-3.007200	3.767500	-11.328000	23.602524	0.001029	20.900917
457.132618	-2.985700	3.768400	-11.249000	23.605838	0.001030	20.909454
458.136026	-3.000600	3.767000	-11.302000	23.621596	0.001029	20.918139
459.129602	-2.993200	3.767300	-11.276000	23.639942	0.001032	20.921357
460.130964	-2.984100	3.768200	-11.243000	23.660978	0.001033	20.903093
461.134887	-2.999700	3.767200	-11.298000	23.675912	0.001033	20.903366
462.136074	-2.995300	3.765700	-11.278000	23.680713	0.001030	20.888267
463.133771	-3.008900	3.765100	-11.328000	23.684425	0.001031	20.919486
464.135948	-3.004600	3.767100	-11.317000	23.691967	0.001031	20.925624
465.131680	-3.020100	3.765800	-11.372000	23.685869	0.001032	20.926623
466.132960	-2.989300	3.764400	-11.251000	23.698538	0.001031	20.931263
467.133242	-3.008200	3.764600	-11.324000	23.724152	0.001033	20.922805
468.133613	-2.994900	3.764000	-11.272000	23.712701	0.001032	20.929816
469.135632	-3.023400	3.764000	-11.379000	23.720268	0.001031	20.916067
470.133334	-3.014300	3.764000	-11.345000	23.730622	0.001031	20.919809
471.135274	-3.028900	3.762100	-11.394000	23.749242	0.001033	20.912399
472.139204	-2.994800	3.764000	-11.272000	23.736025	0.001033	20.923803
473.135960	-3.001500	3.763900	-11.295000	23.752652	0.001034	20.912974
474.139936	-2.982500	3.764900	-11.227000	23.730250	0.001033	20.911376
475.142828	-2.997300	3.764500	-11.282000	23.738737	0.001033	20.907558
476.138347	-3.008200	3.762700	-11.318000	23.704761	0.001034	20.933235
477.138307	-3.005200	3.763600	-11.309000	23.715861	0.001033	20.913071
478.138742	-3.005000	3.761200	-11.301000	23.722160	0.001033	20.918437
479.139187	-2.999700	3.761600	-11.283000	23.722955	0.001033	20.907382
480.140953	-3.005800	3.761900	-11.306000	23.721436	0.001034	20.889265
481.140291	-2.999600	3.762500	-11.284000	23.725789	0.001035	20.904534
482.143141	-2.990200	3.761600	-11.247000	23.711702	0.001035	20.900842
483.143905	-3.001600	3.759900	-11.284000	23.729122	0.001033	20.917357
484.141773	-2.971700	3.761800	-11.178000	23.743356	0.001033	20.888483
485.143681	-2.988700	3.759200	-11.234000	23.736316	0.001036	20.884744
486.140758	-2.981700	3.761000	-11.213000	23.739254	0.001036	20.885792
487.144098	-3.009900	3.759100	-11.312000	23.713340	0.001034	20.886838
488.142552	-3.018700	3.758200	-11.344000	23.743335	0.001036	20.880401
489.141737	-2.996000	3.758400	-11.259000	23.751744	0.001035	20.888832
490.141343	-2.993700	3.759400	-11.254000	23.755699	0.001036	20.888056
491.142813	-3.019400	3.756900	-11.342000	23.756968	0.001035	20.902129
492.142923	-2.994800	3.758600	-11.255000	23.768787	0.001037	20.888850
493.144805	-2.992400	3.758000	-11.245000	23.771897	0.001036	20.873003
494.143390	-3.004500	3.757200	-11.288000	23.786808	0.001037	20.883211
495.146727	-2.991700	3.756400	-11.237000	23.766272	0.001036	20.874950
496.144950	-3.000600	3.756500	-11.271000	23.771625	0.001035	20.873678
497.146317	-3.020200	3.757400	-11.347000	23.775279	0.001037	20.876868
498.144526	-2.995400	3.756600	-11.251000	23.794371	0.001037	20.863769
499.146115	-3.026100	3.754900	-11.362000	23.838121	0.001036	20.882504
500.149442	-3.017500	3.755000	-11.330000	23.831823	0.001036	20.881405
501.150075	-3.001100	3.755100	-11.268000	23.823336	0.001036	20.866259
502.145998	-2.990500	3.754800	-11.227000	23.819653	0.001037	20.892436
503.146217	-2.986900	3.755200	-11.215000	23.788790	0.001037	20.887569
504.146832	-3.013200	3.754500	-11.312000	23.755758	0.001035	20.872943
505.146458	-3.011400	3.752300	-11.298000	23.757177	0.001036	20.864883
506.145481	-2.982700	3.755700	-11.201000	23.760710	0.001038	20.877433
507.147154	-3.017900	3.753500	-11.327000	23.766980	0.001038	20.878030
508.148492	-3.009900	3.752500	-11.293000	23.742911	0.001038	20.857693
509.150063	-2.989000	3.753400	-11.218000	23.786071	0.001038	20.855448
510.150116	-2.986300	3.753400	-11.208000	23.792091	0.001036	20.848207
511.149369	-3.005900	3.752200	-11.278000	23.787910	0.001037	20.866773
512.150684	-2.991600	3.752800	-11.227000	23.772601	0.001039	20.871339
513.150340	-2.990300	3.751600	-11.218000	23.763165	0.001038	20.871361
514.151110	-3.010300	3.751200	-11.291000	23.759582	0.001038	20.849752
515.152027	-2.988700	3.750300	-11.208000	23.783998	0.001039	20.835826
516.153478	-2.992400	3.751100	-11.224000	23.809187	0.001039	20.874356
517.153701	-2.980900	3.750000	-11.177000	23.830489	0.001040	20.844982
518.153885	-2.990800	3.751000	-11.218000	23.854881	0.001039	20.847155
519.152292	-3.015500	3.748600	-11.302000	23.863067	0.001038	20.852992
520.154327	-2.988100	3.750000	-11.204000	23.864461	0.001040	20.847752
521.152169	-2.996200	3.749200	-11.232000	23.861151	0.001039	20.855338
522.154870	-3.023100	3.747800	-11.329000	23.836733	0.001038	20.855984
523.155495	-2.986300	3.748900	-11.195000	23.825534	0.001038	20.863721
524.156514	-3.007900	3.747900	-11.272000	23.837006	0.001039	20.849620
525.158125	-3.014000	3.746700	-11.292000	23.819734	0.001039	20.848424
526.157130	-3.017800	3.746700	-11.307000	23.848953	0.001038	20.837418
527.156654	-3.007600	3.746900	-11.269000	23.875831	0.001039	20.842558
528.158937	-2.992100	3.746000	-11.208000	23.874585	0.001038	20.826610
529.159140	-2.980800	3.748200	-11.172000	23.868384	0.001040	20.838884
530.158459	-2.999400	3.747000	-11.237000	23.867166	0.001040	20.831499
531.160802	-3.009500	3.744900	-11.268000	23.878662	0.001039	20.839707
532.159058	-2.994900	3.746800	-11.220000	23.884490	0.001041	20.857404
533.161429	-3.027400	3.744500	-11.335000	23.902853	0.001037	20.852584
534.161114	-2.984800	3.746500	-11.182000	23.896531	0.001039	20.859520
535.160157	-3.015500	3.744500	-11.291000	23.884784	0.001040	20.858173
536.161584	-3.014300	3.743900	-11.284000	23.873210	0.001037	20.827602
537.160265	-3.001000	3.743600	-11.233000	23.852253	0.001040	20.834564
538.161040	-3.000900	3.743200	-11.232000	23.867833	0.001038	20.828375
539.161884	-3.039000	3.742700	-11.373000	23.883316	0.001039	20.839157
540.165036	-2.981200	3.743900	-11.159000	23.879655	0.001040	20.833116
541.161939	-2.977900	3.743600	-11.148000	23.879157	0.001038	20.843522
542.161632	-3.009900	3.741700	-11.260000	23.888965	0.001040	20.830598
543.161996	-3.006400	3.742400	-11.249000	23.868729	0.001041	20.852031
544.162046	-2.994300	3.742100	-11.204000	23.885677	0.001042	20.831094
545.162961	-3.020700	3.740700	-11.298000	23.877165	0.001039	20.836783
546.163600	-3.011300	3.740900	-11.263000	23.903620	0.001039	20.833914
547.164547	-3.012600	3.741900	-11.270000	23.874231	0.001041	20.824359
548.164720	-2.990300	3.741600	-11.187000	23.884058	0.001039	20.834686
549.163930	-3.002400	3.741500	-11.232000	23.874303	0.001041	20.852879
550.164790	-3.012400	3.738600	-11.260000	23.862134	0.001040	20.823134
551.164891	-2.976300	3.741200	-11.133000	23.824178	0.001039	20.846241
552.162600	-3.012600	3.739700	-11.265000	23.896775	0.001041	20.833687
553.163883	-3.013300	3.737900	-11.262000	23.917978	0.001040	20.843569
554.165839	-3.003000	3.738400	-11.225000	23.929527	0.001042	20.815322
555.166241	-3.009300	3.739600	-11.252000	23.936992	0.001039	20.854574
556.166185	-2.987900	3.739800	-11.174000	23.957524	0.001040	20.804991
557.177087	-2.978700	3.739900	-11.139000	23.938138	0.001040	20.826801
558.168436	-3.007100	3.737400	-11.239000	23.960637	0.001040	20.839880
559.169584	-2.994200	3.737200	-11.189000	23.979647	0.001037	20.827649
560.172661	-2.978300	3.737900	-11.132000	23.983060	0.001038	20.842451
561.173312	-3.007300	3.736000	-11.234000	23.989504	0.001040	20.845594
562.169478	-2.991900	3.735700	-11.176000	24.013295	0.001039	20.810659
563.170671	-3.011400	3.736300	-11.251000	24.024817	0.001039	20.821266
564.173678	-2.986500	3.735700	-11.156000	24.011228	0.001038	20.856948
565.174143	-3.013000	3.734800	-11.252000	24.006105	0.001039	20.824311
566.177267	-3.004000	3.735100	-11.219000	23.997491	0.001036	20.835587
567.179116	-3.007500	3.734400	-11.230000	24.020985	0.001039	20.820741
568.178662	-3.007800	3.734600	-11.232000	24.022826	0.001038	20.829700
569.176310	-3.001000	3.734400	-11.206000	24.016282	0.001039	20.839258
570.180047	-2.994400	3.735000	-11.183000	24.028349	0.001038	20.829075
571.181790	-2.999500	3.734800	-11.200000	24.026085	0.001037	20.839132
572.178637	-3.001800	3.734300	-11.209000	24.053335	0.001038	20.839908
573.184351	-2.992000	3.734600	-11.173000	24.091107	0.001039	20.833694
574.178931	-2.963400	3.733500	-11.063000	24.074983	0.001039	20.806617
575.179743	-2.996800	3.732900	-11.186000	24.109667	0.001039	20.847092
576.186214	-3.007000	3.732000	-11.221000	24.079141	0.001037	20.818848
577.185723	-2.997500	3.731700	-11.184000	24.061645	0.001037	20.827853
578.181121	-3.009900	3.730500	-11.227000	24.054156	0.001037	20.806118
579.187147	-2.993800	3.730900	-11.168000	24.048980	0.001038	20.823212
580.184393	-2.997200	3.730800	-11.181000	24.041343	0.001038	20.829304
581.181884	-3.000200	3.731000	-11.192000	24.041788	0.001036	20.828802
582.184803	-3.000300	3.731000	-11.193000	24.060029	0.001040	20.817224
583.187948	-3.003600	3.729600	-11.200000	24.073543	0.001036	20.827458
584.187338	-3.011000	3.730400	-11.232000	24.072422	0.001037	20.834868
585.185494	-2.986800	3.730500	-11.140000	24.073295	0.001039	20.828158
586.187216	-2.991400	3.729600	-11.154000	24.090062	0.001036	20.828852
587.184731	-2.988600	3.730400	-11.148000	24.093847	0.001037	20.828855
588.191163	-2.988900	3.728500	-11.143000	24.094069	0.001038	20.794465
589.187326	-3.004600	3.727600	-11.199000	24.114276	0.001038	20.822318
590.184166	-2.992800	3.728400	-11.157000	24.124996	0.001035	20.808888
591.189744	-3.020500	3.726400	-11.255000	24.152516	0.001035	20.804247
592.189736	-2.997900	3.727400	-11.173000	24.165853	0.001038	20.813356
593.187555	-3.005900	3.727100	-11.203000	24.162121	0.001040	20.816251
594.191246	-2.982400	3.728500	-11.118000	24.168987	0.001036	20.820766
595.192039	-3.025800	3.726300	-11.273000	24.158712	0.001036	20.808564
596.186726	-3.020000	3.725100	-11.249000	24.180311	0.001035	20.811262
597.190381	-2.986500	3.726400	-11.127000	24.180107	0.001038	20.810109
598.189222	-3.020800	3.726200	-11.255000	24.186703	0.001036	20.821467
599.186838	-3.008000	3.724200	-11.201000	24.179262	0.001038	20.802623
600.190259	-3.004300	3.723600	-11.186000	24.169184	0.001034	20.816223
601.187878	-2.964400	3.726000	-11.045000	24.143928	0.001035	20.796582
602.188034	-3.010300	3.724000	-11.209000	24.117801	0.001036	20.818267
603.189786	-3.000500	3.722800	-11.169000	24.090359	0.001036	20.806391
604.190290	-3.007500	3.723200	-11.197000	24.101878	0.001036	20.811305
605.190290	-3.029500	3.723000	-11.278000	24.079855	0.001035	20.802969
606.190137	-2.999300	3.724600	-11.170000	24.102945	0.001036	20.814273
607.190124	-2.997600	3.723400	-11.161000	24.092444	0.001037	20.826026
608.191235	-3.002600	3.722900	-11.178000	24.081943	0.001034	20.801270
609.192075	-3.000500	3.722500	-11.167000	24.096674	0.001037	20.801819
610.189467	-2.976200	3.723800	-11.082000	24.112895	0.001036	20.797699
611.191893	-3.001700	3.721900	-11.171000	24.120434	0.001035	20.792933
612.191362	-3.007400	3.721300	-11.191000	24.152557	0.001035	20.794330
613.191839	-3.005900	3.721100	-11.184000	24.171914	0.001037	20.810900
614.191909	-2.996700	3.721500	-11.151000	24.200675	0.001035	20.810825
615.191496	-3.002100	3.721000	-11.169000	24.199154	0.001034	20.799342
616.191729	-3.025300	3.719300	-11.250000	24.235181	0.001032	20.789485
617.191791	-3.009300	3.718400	-11.189000	24.233365	0.001035	20.801888
618.193676	-3.002200	3.719400	-11.165000	24.227445	0.001036	20.793105
619.192900	-3.006000	3.719700	-11.180000	24.211520	0.001034	20.788037
620.193811	-2.993200	3.719500	-11.133000	24.220426	0.001034	20.808825
621.195500	-3.006200	3.720100	-11.182000	24.242246	0.001037	20.798469
622.196028	-3.006900	3.717900	-11.179000	24.258891	0.001036	20.799043
623.195037	-3.021300	3.717900	-11.232000	24.259238	0.001033	20.811246
624.197378	-2.979900	3.719000	-11.082000	24.249161	0.001035	20.806828
625.196513	-3.009000	3.716100	-11.180000	24.241798	0.001034	20.790433
626.197452	-2.998700	3.716700	-11.144000	24.242371	0.001035	20.805707
627.199329	-2.984700	3.717000	-11.093000	24.228713	0.001035	20.790584
628.200072	-2.994000	3.716200	-11.125000	24.230056	0.001034	20.802837
629.199136	-2.998500	3.716400	-11.142000	24.234855	0.001035	20.806702
630.200691	-2.994000	3.715300	-11.121000	24.230601	0.001033	20.780149
631.199530	-2.986500	3.715200	-11.094000	24.193331	0.001033	20.806303
632.199069	-3.003300	3.715000	-11.154000	24.196490	0.001032	20.790031
633.206390	-3.008200	3.714900	-11.174000	24.178053	0.001034	20.795721
634.204376	-2.994000	3.714100	-11.118000	24.147525	0.001033	20.803509
635.199101	-2.986500	3.714200	-11.092000	24.171410	0.001034	20.782894
636.200580	-2.996700	3.713600	-11.127000	24.168674	0.001033	20.789158
637.201060	-2.988500	3.714000	-11.099000	24.181985	0.001033	20.794924
638.199957	-2.997400	3.714100	-11.132000	24.193381	0.001032	20.791655
639.200284	-3.008600	3.711900	-11.166000	24.215348	0.001032	20.780024
640.200484	-2.981200	3.714000	-11.071000	24.213580	0.001033	20.806225
641.202003	-2.994500	3.712800	-11.117000	24.219478	0.001033	20.798390
642.203360	-3.002500	3.712200	-11.145000	24.219975	0.001033	20.783242
643.203032	-3.003500	3.711300	-11.145000	24.178748	0.001030	20.786461
644.202589	-2.980900	3.712100	-11.064000	24.181209	0.001033	20.764273
645.202751	-2.979800	3.712900	-11.063000	24.164093	0.001032	20.770339
646.202334	-3.009400	3.712200	-11.170000	24.171535	0.001030	20.786813
647.202075	-2.990900	3.711700	-11.100000	24.146627	0.001032	20.772735
648.203889	-3.004100	3.710400	-11.145000	24.169196	0.001032	20.764552
649.202375	-2.996800	3.709300	-11.115000	24.172108	0.001032	20.780749
650.204263	-2.981400	3.710100	-11.060000	24.175987	0.001030	20.785588
651.204528	-2.995200	3.708500	-11.106000	24.218657	0.001030	20.768170
652.204703	-2.997000	3.710200	-11.118000	24.203308	0.001030	20.773637
653.206298	-3.007100	3.710100	-11.156000	24.234332	0.001032	20.777728
654.205289	-3.008900	3.710200	-11.163000	24.278541	0.001030	20.796943
655.208077	-2.997000	3.709500	-11.116000	24.271701	0.001029	20.787711
656.206041	-2.998500	3.710200	-11.123000	24.267174	0.001031	20.767523
657.209378	-3.000900	3.707600	-11.125000	24.272524	0.001026	20.780476
658.207741	-2.992600	3.709300	-11.100000	24.298196	0.001031	20.765450
659.209563	-2.988100	3.706800	-11.075000	24.259686	0.001030	20.770443
660.207916	-2.982100	3.707700	-11.056000	24.226124	0.001028	20.793203
661.211132	-2.999400	3.707100	-11.118000	24.213586	0.001028	20.775411
662.209250	-2.993500	3.707300	-11.097000	24.195150	0.001029	20.761186
663.212462	-3.009700	3.705600	-11.152000	24.183930	0.001029	20.790710
664.213383	-3.002700	3.705500	-11.126000	24.211323	0.001029	20.764606
665.210094	-2.992600	3.707100	-11.092000	24.244262	0.001028	20.781051
666.213711	-3.005100	3.705900	-11.136000	24.254490	0.001029	20.745789
667.218608	-2.995300	3.706100	-11.100000	24.291907	0.001026	20.777634
668.212792	-2.993600	3.705300	-11.091000	24.293898	0.001026	20.751181
669.212647	-2.990500	3.705200	-11.080000	24.294991	0.001027	20.769347
670.215051	-2.979200	3.704500	-11.035000	24.279890	0.001028	20.772217
671.214481	-3.000700	3.703700	-11.112000	24.265609	0.001027	20.758840
672.214021	-3.006300	3.704400	-11.135000	24.244810	0.001025	20.768798
673.214974	-3.011500	3.703300	-11.151000	24.288473	0.001027	20.765654
674.213830	-2.997200	3.703300	-11.098000	24.293476	0.001025	20.777311
675.214056	-2.991600	3.702400	-11.075000	24.299968	0.001027	20.779082
676.214843	-2.987900	3.702100	-11.059000	24.298572	0.001026	20.734058
677.216948	-2.994200	3.702600	-11.085000	24.325514	0.001025	20.757766
678.214870	-3.013800	3.701000	-11.153000	24.332207	0.001027	20.769222
679.217557	-2.996800	3.700500	-11.088000	24.310464	0.001025	20.746461
680.215538	-2.998200	3.701700	-11.097000	24.319097	0.001026	20.755122
681.215179	-2.988300	3.700600	-11.057000	24.309719	0.001024	20.744766
682.218032	-2.984500	3.699900	-11.040000	24.370815	0.001025	20.756268
683.216235	-2.999500	3.701000	-11.100000	24.353574	0.001024	20.745610
684.216095	-3.002200	3.699600	-11.106000	24.368129	0.001024	20.767325
685.217192	-3.009100	3.699100	-11.129000	24.357953	0.001025	20.776083
686.216583	-3.003600	3.699300	-11.111000	24.363969	0.001023	20.765522
687.217349	-3.035400	3.699100	-11.227000	24.359869	0.001025	20.767099
688.218767	-3.008100	3.698100	-11.122000	24.356313	0.001024	20.754997
689.216720	-3.008500	3.699600	-11.129000	24.347483	0.001023	20.754199
690.218139	-2.996900	3.698600	-11.084000	24.354047	0.001024	20.748930
691.218165	-3.011500	3.697000	-11.132000	24.363227	0.001023	20.747708
692.217946	-3.017200	3.697400	-11.154000	24.380118	0.001023	20.764178
693.220691	-2.994700	3.697200	-11.071000	24.371410	0.001022	20.741217
694.224576	-2.984100	3.696500	-11.030000	24.362404	0.001022	20.750676
695.221357	-2.993700	3.697200	-11.068000	24.361384	0.001022	20.745859
696.220303	-2.991000	3.697600	-11.059000	24.361237	0.001021	20.772264
697.223898	-2.977900	3.697200	-11.009000	24.371209	0.001024	20.734378
698.222208	-3.005000	3.695300	-11.103000	24.351605	0.001020	20.747429
699.222406	-2.993400	3.696900	-11.065000	24.349861	0.001021	20.754215
700.227221	-2.985000	3.695200	-11.028000	24.332201	0.001020	20.737446
701.233495	-2.982600	3.695600	-11.022000	24.323070	0.001020	20.761478
702.222399	-3.000500	3.694600	-11.085000	24.342502	0.001021	20.754893
703.224566	-3.015400	3.696000	-11.144000	24.365760	0.001021	20.769215
704.222207	-3.005200	3.694800	-11.103000	24.378593	0.001022	20.745579
705.222525	-2.981200	3.696000	-11.016000	24.387029	0.001019	20.746455
706.227285	-3.009700	3.693100	-11.114000	24.361531	0.001018	20.742687
707.222891	-2.995000	3.693600	-11.062000	24.370136	0.001019	20.758906
708.223581	-3.005100	3.693200	-11.098000	24.397474	0.001019	20.737019
709.223095	-3.004500	3.692300	-11.093000	24.394860	0.001017	20.751467
710.224420	-3.007400	3.692400	-11.104000	24.421769	0.001018	20.752858
711.224085	-2.999300	3.691700	-11.072000	24.432445	0.001018	20.748870
712.230335	-2.991900	3.691200	-11.043000	24.474483	0.001017	20.750742
713.224649	-2.993200	3.692500	-11.052000	24.469109	0.001018	20.755307
714.224802	-2.991900	3.692300	-11.046000	24.499753	0.001018	20.743378
715.223773	-3.020700	3.691000	-11.148000	24.475447	0.001016	20.740803
716.223489	-3.008000	3.691400	-11.103000	24.461469	0.001017	20.759496
717.223798	-2.995100	3.690400	-11.051000	24.467738	0.001016	20.737336
718.223008	-2.983000	3.692600	-11.015000	24.474352	0.001016	20.741126
719.224262	-3.012600	3.690200	-11.115000	24.486564	0.001017	20.752905
720.223740	-3.016600	3.689100	-11.126000	24.488276	0.001018	20.729966
721.225548	-2.984300	3.688900	-11.006000	24.509643	0.001016	20.754249
722.225172	-2.985400	3.689200	-11.013000	24.484871	0.001018	20.725601
723.224751	-2.976400	3.689600	-10.979000	24.459100	0.001017	20.740049
724.225144	-2.994100	3.689200	-11.044000	24.490314	0.001016	20.743390
725.226216	-3.013300	3.687700	-11.111000	24.495165	0.001017	20.730713
726.226678	-2.987400	3.687900	-11.015000	24.501853	0.001017	20.753072
727.226440	-3.011900	3.687300	-11.104000	24.505856	0.001013	20.729112
728.229512	-2.982600	3.688200	-10.999000	24.487998	0.001014	20.748653
729.227311	-3.004900	3.687700	-11.080000	24.518885	0.001015	20.752142
730.227491	-2.980700	3.685900	-10.985000	24.521846	0.001015	20.749423
731.228117	-2.994800	3.686500	-11.038000	24.480505	0.001014	20.744455
732.228201	-2.984500	3.686800	-11.002000	24.509456	0.001014	20.740784
733.233200	-2.987800	3.687000	-11.015000	24.510053	0.001013	20.744703
734.229114	-2.998600	3.686700	-11.054000	24.519749	0.001014	20.754906
735.231285	-2.990000	3.686000	-11.020000	24.513931	0.001014	20.750490
736.228421	-2.996100	3.684900	-11.038000	24.519349	0.001015	20.726053
737.230108	-3.010700	3.685600	-11.095000	24.481169	0.001010	20.754130
738.228597	-2.993400	3.683800	-11.026000	24.464180	0.001014	20.740878
739.230013	-2.993700	3.685600	-11.033000	24.452311	0.001014	20.738928
740.229264	-2.999500	3.685500	-11.054000	24.438333	0.001014	20.739129
741.229810	-3.033700	3.682700	-11.171000	24.465219	0.001013	20.751879
742.230725	-2.980200	3.684700	-10.980000	24.477056	0.001014	20.750004
743.230939	-2.990700	3.683200	-11.014000	24.463078	0.001012	20.751627
744.232649	-2.987400	3.682700	-11.001000	24.496258	0.001012	20.760734
745.234778	-2.997200	3.682600	-11.036000	24.511456	0.001011	20.732833
746.232508	-2.990900	3.681800	-11.011000	24.504965	0.001011	20.741020
747.234431	-3.000300	3.682900	-11.049000	24.514044	0.001011	20.769570
748.234231	-3.004900	3.681200	-11.061000	24.545779	0.001010	20.738822
749.234449	-3.010700	3.680600	-11.079000	24.541150	0.001011	20.748877
750.241974	-3.006000	3.681900	-11.067000	24.550974	0.001009	20.763950
751.236574	-2.984500	3.680700	-10.984000	24.558811	0.001009	20.739569
752.237983	-2.980800	3.682100	-10.975000	24.573608	0.001010	20.744933
753.237263	-2.986800	3.680500	-10.992000	24.572362	0.001010	20.735622
754.236309	-3.009900	3.679100	-11.072000	24.541817	0.001009	20.763771
755.237457	-3.000700	3.680600	-11.044000	24.533984	0.001009	20.753066
756.237059	-3.005700	3.679000	-11.057000	24.538112	0.001009	20.750095
757.237770	-3.005000	3.679500	-11.055000	24.553657	0.001011	20.744355
758.237477	-2.989800	3.679500	-10.999000	24.559027	0.001009	20.760175
759.237054	-3.003500	3.678400	-11.047000	24.585293	0.001009	20.727733
760.237050	-3.004200	3.679400	-11.053000	24.580242	0.001009	20.746374
761.239401	-3.022600	3.678200	-11.117000	24.609991	0.001007	20.765793
762.238172	-2.996900	3.679300	-11.025000	24.625704	0.001007	20.747420
763.238320	-3.026200	3.677300	-11.128000	24.652517	0.001009	20.738288
764.239448	-2.992500	3.679300	-11.008000	24.644384	0.001007	20.727756
765.239049	-2.981500	3.678100	-10.963000	24.616231	0.001007	20.745027
766.239626	-3.035500	3.675700	-11.156000	24.594616	0.001005	20.754633
767.239201	-3.015300	3.677300	-11.085000	24.612823	0.001006	20.752513
768.240177	-3.003900	3.675900	-11.041000	24.605635	0.001007	20.761896
769.239031	-2.989100	3.675600	-10.986000	24.607103	0.001006	20.743928
770.242169	-2.981200	3.676000	-10.957000	24.602055	0.001008	20.757830
771.240779	-2.999700	3.674800	-11.021000	24.579050	0.001004	20.765567
772.241898	-2.982600	3.675700	-10.962000	24.566488	0.001006	20.767661
773.243059	-2.987200	3.675500	-10.977000	24.526322	0.001005	20.758181
774.243563	-3.012300	3.674800	-11.069000	24.545795	0.001004	20.770607
775.243175	-3.009500	3.673800	-11.054000	24.583428	0.001003	20.741036
776.245292	-2.986500	3.675300	-10.975000	24.593950	0.001005	20.763447
777.243979	-3.005700	3.674100	-11.042000	24.605961	0.001005	20.761274
778.244360	-3.008700	3.674000	-11.053000	24.633268	0.001003	20.763545
779.248307	-2.980800	3.674600	-10.952000	24.662990	0.001004	20.763023
780.242564	-2.996700	3.672400	-11.004000	24.666323	0.001003	20.773954
781.244045	-3.003900	3.672400	-11.030000	24.693357	0.001003	20.751295
782.246015	-2.997600	3.672900	-11.009000	24.696489	0.001002	20.757757
783.246561	-2.979600	3.672900	-10.942000	24.694949	0.001002	20.773282
784.245690	-3.022000	3.671800	-11.095000	24.674731	0.001004	20.757261
785.252527	-3.004300	3.671900	-11.030000	24.645954	0.001001	20.773430
786.245318	-3.000700	3.671000	-11.015000	24.617054	0.001002	20.767665
787.247985	-3.009300	3.671000	-11.046000	24.616857	0.001002	20.762725
788.247887	-3.002400	3.670200	-11.018000	24.632154	0.001001	20.775229
789.244957	-2.994100	3.671200	-10.991000	24.621758	0.001001	20.760056
790.245975	-3.002700	3.669400	-11.017000	24.628796	0.001001	20.775179
791.252458	-2.980500	3.668500	-10.933000	24.627153	0.000999	20.777798
792.250738	-2.974600	3.671000	-10.919000	24.644286	0.001001	20.780291
793.246392	-2.983700	3.670000	-10.950000	24.656425	0.001000	20.764022
794.248790	-3.002600	3.671000	-11.021000	24.633318	0.001000	20.749844
795.250292	-2.985200	3.667900	-10.949000	24.629563	0.001000	20.773103
796.248419	-2.970600	3.670100	-10.902000	24.640606	0.000998	20.769012
797.251932	-3.012300	3.667900	-11.047000	24.631750	0.001000	20.767712
798.250952	-2.995500	3.667600	-10.984000	24.647522	0.001000	20.774055
799.248499	-2.997600	3.667300	-10.992000	24.619736	0.000998	20.786477
800.253518	-2.994000	3.665900	-10.975000	24.617277	0.000998	20.782587
801.251353	-2.992400	3.668400	-10.976000	24.627848	0.000997	20.775176
802.249020	-3.026000	3.667100	-11.095000	24.576959	0.000998	20.754460
803.255277	-3.004000	3.665800	-11.012000	24.562858	0.000999	20.769709
804.249418	-2.990900	3.666900	-10.966000	24.598969	0.000998	20.777967
805.249758	-3.010600	3.665500	-11.035000	24.611506	0.000998	20.773477
806.254889	-2.989100	3.664900	-10.953000	24.645801	0.000996	20.785604
807.250168	-3.011800	3.665000	-11.037000	24.661219	0.000998	20.757453
808.251860	-3.001100	3.664600	-10.997000	24.665200	0.000994	20.777094
809.259623	-3.013600	3.664800	-11.044000	24.693276	0.000997	20.770180
810.255927	-3.001900	3.664700	-10.999000	24.692431	0.000996	20.775022
811.254475	-3.010200	3.664200	-11.029000	24.716776	0.000995	20.773848
812.255156	-3.016500	3.663200	-11.049000	24.729286	0.000993	20.780712
813.257502	-2.996700	3.664200	-10.978000	24.749947	0.000995	20.756875
814.253862	-3.014600	3.664100	-11.045000	24.745723	0.000994	20.778715
815.257583	-2.999800	3.662700	-10.986000	24.718068	0.000994	20.777990
816.253306	-3.008600	3.662800	-11.018000	24.708615	0.000994	20.773719
817.259606	-3.011300	3.663100	-11.030000	24.754672	0.000994	20.792437
818.256560	-2.998300	3.661600	-10.978000	24.750298	0.000993	20.791841
819.257109	-2.993600	3.662000	-10.961000	24.761885	0.000995	20.785450
820.258044	-3.015600	3.661400	-11.040000	24.783446	0.000992	20.773898
821.259876	-2.991800	3.661900	-10.955000	24.752285	0.000991	20.782929
822.258571	-3.007000	3.661000	-11.007000	24.725675	0.000994	20.774243
823.253698	-3.013400	3.660200	-11.028000	24.702522	0.000993	20.769976
824.258715	-3.004000	3.661300	-10.997000	24.695288	0.000993	20.795907
825.257791	-3.020900	3.662300	-11.062000	24.681557	0.000990	20.794456
826.256333	-2.996100	3.661100	-10.967000	24.689517	0.000993	20.771150
827.260354	-3.016800	3.658900	-11.037000	24.670416	0.000992	20.789916
828.258559	-3.002400	3.659300	-10.986000	24.650523	0.000990	20.786549
829.256511	-2.997600	3.658800	-10.966000	24.626671	0.000989	20.786323
830.257829	-3.020900	3.658400	-11.051000	24.603520	0.000988	20.779688
831.256950	-2.980600	3.660200	-10.908000	24.609312	0.000989	20.813476
832.264639	-3.002800	3.658400	-10.984000	24.616526	0.000991	20.794161
833.259832	-3.004000	3.658700	-10.990000	24.634013	0.000989	20.799854
834.260849	-3.005000	3.657800	-10.991000	24.669202	0.000987	20.807189
835.259828	-3.006100	3.657500	-10.994000	24.660121	0.000988	20.800922
836.267241	-3.027400	3.656100	-11.067000	24.641223	0.000988	20.777691
837.260175	-3.017300	3.657600	-11.035000	24.621821	0.000988	20.791888
838.259801	-2.995800	3.657800	-10.956000	24.627144	0.000989	20.803393
839.266441	-2.988800	3.658200	-10.931000	24.651368	0.000989	20.800200
840.264303	-3.007700	3.655800	-10.994000	24.688898	0.000986	20.800875
841.261121	-2.995100	3.656700	-10.950000	24.692725	0.000987	20.790965
842.266218	-3.005900	3.654800	-10.985000	24.686410	0.000986	20.797430
843.260430	-2.994900	3.656400	-10.950000	24.691310	0.000986	20.796657
844.262274	-2.984200	3.656200	-10.909000	24.663109	0.000985	20.803920
845.265827	-2.982300	3.655900	-10.902000	24.671790	0.000986	20.806941
846.269927	-3.014500	3.655000	-11.016000	24.693229	0.000985	20.812333
847.261120	-3.004700	3.654100	-10.977000	24.660152	0.000984	20.814703
848.263838	-3.021900	3.652600	-11.037000	24.667838	0.000985	20.788751
849.261678	-3.033800	3.653900	-11.084000	24.678581	0.000985	20.818971
850.262967	-2.986400	3.654300	-10.912000	24.714864	0.000983	20.800378
851.270239	-2.987300	3.653200	-10.912000	24.725434	0.000983	20.811460
852.261084	-3.007500	3.653300	-10.985000	24.756496	0.000983	20.818923
853.262225	-3.006600	3.652200	-10.979000	24.790292	0.000983	20.808743
854.266416	-3.005700	3.653500	-10.979000	24.803221	0.000984	20.817451
855.266432	-3.001800	3.653000	-10.965000	24.797276	0.000985	20.798209
856.263824	-3.006900	3.652000	-10.980000	24.786162	0.000982	20.816452
857.271978	-2.991500	3.651800	-10.923000	24.733219	0.000983	20.826384
858.265572	-3.003700	3.650500	-10.963000	24.769106	0.000983	20.809767
859.274059	-2.989700	3.651000	-10.915000	24.730835	0.000981	20.803603
860.271287	-2.997000	3.651200	-10.942000	24.774751	0.000981	20.819699
861.268257	-3.025400	3.649400	-11.040000	24.791835	0.000981	20.816930
862.274563	-3.011900	3.649400	-10.990000	24.755479	0.000980	20.824541
863.275924	-3.012400	3.649700	-10.993000	24.777858	0.000981	20.819024
864.268368	-3.017800	3.648900	-11.011000	24.788453	0.000981	20.822070
865.269126	-2.999700	3.648300	-10.943000	24.811754	0.000978	20.816057
866.273276	-2.998900	3.650100	-10.945000	24.823915	0.000979	20.805977
867.271602	-2.961400	3.650700	-10.810000	24.818468	0.000979	20.830855
868.272475	-3.017900	3.647800	-11.007000	24.811034	0.000978	20.829559
869.273841	-3.018200	3.647400	-11.007000	24.849503	0.000978	20.833553
870.273182	-2.984500	3.649400	-10.890000	24.840751	0.000978	20.831882
871.271733	-2.991300	3.648700	-10.913000	24.868003	0.000980	20.838369
872.276755	-3.001800	3.647600	-10.948000	24.873125	0.000978	20.821225
873.279166	-3.000200	3.647500	-10.942000	24.896996	0.000978	20.836649
874.278322	-2.986000	3.647400	-10.890000	24.930291	0.000977	20.831659
875.279894	-2.995900	3.645800	-10.921000	24.938991	0.000976	20.824271
876.280006	-2.977100	3.646800	-10.856000	24.963159	0.000977	20.827191
877.278715	-3.012500	3.646300	-10.982000	25.008013	0.000977	20.830014
878.278381	-3.004200	3.645600	-10.952000	24.982505	0.000977	20.841393
879.279180	-3.011800	3.645000	-10.977000	25.014179	0.000975	20.840470
880.273768	-2.979100	3.646800	-10.863000	25.000183	0.000975	20.828318
881.283768	-3.027200	3.644300	-11.031000	25.029320	0.000972	20.843340
882.278552	-2.993000	3.644700	-10.908000	25.029298	0.000972	20.832413
883.274120	-3.003000	3.644500	-10.943000	25.000680	0.000976	20.821705
884.278255	-2.998300	3.644800	-10.928000	25.042224	0.000973	20.847284
885.279756	-2.999200	3.644700	-10.930000	25.018978	0.000975	20.853821
886.274191	-2.991500	3.644500	-10.901000	25.030190	0.000973	20.851325
887.273735	-3.025800	3.643900	-11.025000	25.019422	0.000971	20.842888
888.276903	-3.005500	3.642900	-10.947000	24.999786	0.000973	20.832187
889.276639	-2.983600	3.644800	-10.874000	24.987081	0.000972	20.845987
890.274188	-3.018100	3.642200	-10.990000	24.965255	0.000968	20.842571
891.276846	-3.009400	3.642000	-10.959000	24.929671	0.000971	20.868968
892.274123	-2.999900	3.642700	-10.927000	24.923086	0.000974	20.847660
893.275023	-3.001700	3.640700	-10.927000	24.918759	0.000969	20.843318
894.273319	-2.996400	3.642000	-10.911000	24.922960	0.000969	20.836156
895.275882	-3.011600	3.641700	-10.966000	24.954684	0.000970	20.833857
896.274758	-2.990700	3.642300	-10.892000	24.971865	0.000969	20.837826
897.279322	-2.994600	3.640700	-10.902000	25.006002	0.000970	20.836055
898.278433	-3.004900	3.639700	-10.936000	25.012615	0.000968	20.849331
899.276562	-2.989900	3.640300	-10.883000	25.018631	0.000968	20.847309
900.278650	-3.006300	3.640000	-10.941000	25.045008	0.000968	20.864302
901.277045	-3.005200	3.640900	-10.940000	25.056620	0.000967	20.834234
902.279617	-3.004300	3.638200	-10.929000	25.038370	0.000968	20.842467
903.279277	-3.020800	3.638600	-10.991000	25.030887	0.000966	20.856766
904.276000	-2.992800	3.639900	-10.892000	25.022460	0.000968	20.836454
905.278035	-2.996000	3.637700	-10.897000	25.014676	0.000967	20.834805
906.280162	-2.996900	3.637300	-10.900000	25.015474	0.000967	20.854097
907.282086	-2.994100	3.638100	-10.892000	25.012637	0.000966	20.862154
908.278879	-2.994500	3.638700	-10.895000	24.999188	0.000965	20.846759
909.282307	-2.981300	3.638500	-10.846000	24.982952	0.000965	20.862704
910.279331	-2.994900	3.636900	-10.890000	24.971317	0.000966	20.866199
911.281674	-2.993000	3.637800	-10.887000	24.931185	0.000964	20.863376
912.287916	-2.983300	3.636700	-10.848000	24.918083	0.000963	20.860657
913.283328	-2.993200	3.636200	-10.882000	24.942576	0.000963	20.874808
914.279210	-3.010000	3.633800	-10.937000	24.965298	0.000962	20.867743
915.281034	-3.012300	3.635600	-10.950000	25.005701	0.000963	20.864202
916.285920	-2.982700	3.635700	-10.843000	24.991527	0.000962	20.867517
917.281595	-2.970400	3.635900	-10.799000	24.985886	0.000964	20.865175
918.289064	-3.004300	3.634800	-10.920000	24.981807	0.000963	20.862977
919.284710	-3.007700	3.635400	-10.932000	24.992049	0.000964	20.865197
920.287536	-2.974800	3.636300	-10.815000	25.010100	0.000962	20.876676
921.291547	-2.989200	3.635200	-10.865000	25.025116	0.000961	20.871835
922.285343	-3.008100	3.633900	-10.930000	25.015490	0.000961	20.876397
923.288894	-3.010000	3.633600	-10.936000	25.037869	0.000960	20.882740
924.287566	-2.973900	3.634700	-10.808000	25.033743	0.000960	20.883813
925.286423	-3.000900	3.633800	-10.903000	25.027105	0.000963	20.869565
926.286790	-2.996900	3.633500	-10.889000	25.022904	0.000958	20.872934
927.290563	-3.025600	3.633100	-10.992000	25.002936	0.000959	20.877546
928.287202	-2.991100	3.633400	-10.867000	25.013106	0.000959	20.879220
929.287545	-2.980000	3.632500	-10.823000	25.009799	0.000958	20.892969
930.288978	-2.997100	3.631100	-10.882000	25.043785	0.000959	20.881091
931.289976	-3.008400	3.630700	-10.922000	25.037741	0.000958	20.880240
932.291931	-3.005600	3.631400	-10.913000	25.039581	0.000958	20.897258
933.291321	-3.003800	3.631300	-10.905000	25.086769	0.000957	20.873979
934.290803	-3.007500	3.630700	-10.919000	25.087964	0.000957	20.890351
935.290143	-3.001600	3.631100	-10.898000	25.109566	0.000956	20.895914
936.298135	-2.984100	3.632600	-10.839000	25.141612	0.000960	20.899161
937.296270	-2.996900	3.630200	-10.878000	25.124777	0.000955	20.892693
938.292635	-2.992500	3.629600	-10.860000	25.133930	0.000954	20.891449
939.297869	-3.000600	3.629300	-10.888000	25.120354	0.000956	20.894417
940.294659	-3.014100	3.628500	-10.936000	25.127840	0.000955	20.871113
941.292522	-3.006600	3.627600	-10.906000	25.144546	0.000956	20.894994
942.293371	-2.990500	3.627200	-10.846000	25.168659	0.000955	20.889804
943.298866	-2.971200	3.630200	-10.784000	25.181211	0.000953	20.891500
944.295883	-2.965100	3.627300	-10.754000	25.183122	0.000953	20.910960
945.296527	-2.994100	3.628900	-10.865000	25.172062	0.000952	20.895117
946.295168	-3.012000	3.626100	-10.920000	25.181733	0.000953	20.897713
947.295694	-2.993000	3.627000	-10.855000	25.169650	0.000952	20.902652
948.294516	-2.977100	3.627400	-10.798000	25.147030	0.000951	20.909814
949.295606	-3.007100	3.625300	-10.901000	25.155656	0.000952	20.895716
950.296723	-2.991700	3.624800	-10.844000	25.141165	0.000953	20.886859
951.301346	-2.991600	3.626900	-10.850000	25.148274	0.000951	20.901582
952.298909	-3.005700	3.625300	-10.896000	25.165747	0.000949	20.894467
953.297612	-3.001300	3.625600	-10.879000	25.170276	0.000950	20.899487
954.299407	-3.002700	3.624300	-10.882000	25.158615	0.000951	20.908169
955.303519	-2.976300	3.626100	-10.791000	25.156154	0.000948	20.906172
956.299559	-3.009400	3.623200	-10.902000	25.173307	0.000948	20.903952
957.299351	-2.981700	3.624200	-10.806000	25.158393	0.000949	20.905575
958.300508	-2.994200	3.623700	-10.849000	25.121427	0.000947	20.911139
959.296633	-2.995400	3.623600	-10.854000	25.088664	0.000948	20.906225
960.303217	-2.973700	3.625300	-10.779000	25.094852	0.000947	20.894420
961.302711	-2.998900	3.624200	-10.867000	25.101564	0.000949	20.896891
962.297870	-3.016900	3.621200	-10.924000	25.117226	0.000947	20.890328
963.303558	-2.995800	3.621100	-10.847000	25.152250	0.000946	20.877600
964.306541	-3.007800	3.622000	-10.893000	25.184842	0.000946	20.887559
965.300592	-2.967200	3.623300	-10.749000	25.156851	0.000945	20.892649
966.305271	-2.981100	3.623100	-10.800000	25.142009	0.000945	20.896241
967.304461	-2.980100	3.621900	-10.792000	25.110789	0.000946	20.899987
968.309687	-2.985000	3.622000	-10.810000	25.087197	0.000945	20.866349
969.306159	-2.985100	3.622100	-10.811000	25.118046	0.000945	20.887358
970.304363	-2.984200	3.621700	-10.807000	25.097761	0.000945	20.880272
971.302205	-2.999200	3.619800	-10.854000	25.085924	0.000945	20.887355
972.305232	-3.006500	3.620500	-10.885000	25.072004	0.000944	20.889029
973.306124	-2.999900	3.619800	-10.857000	25.062954	0.000944	20.878997
974.308126	-3.012500	3.619900	-10.904000	25.057708	0.000941	20.888903
975.304473	-3.029400	3.618400	-10.960000	25.073496	0.000942	20.885785
976.305104	-3.000900	3.619300	-10.860000	25.065817	0.000943	20.884240
977.303701	-3.006500	3.619400	-10.881000	25.065838	0.000939	20.870513
978.310759	-3.006400	3.617100	-10.873000	25.079461	0.000941	20.878498
979.306090	-2.992300	3.618400	-10.826000	25.105962	0.000940	20.873807
980.305428	-3.026200	3.616500	-10.943000	25.072476	0.000941	20.862478
981.306535	-3.001800	3.618700	-10.861000	25.095299	0.000942	20.875430
982.306484	-3.003800	3.616900	-10.863000	25.142309	0.000941	20.870940
983.307280	-2.992600	3.616500	-10.822000	25.131893	0.000940	20.872811
984.307309	-3.025600	3.616100	-10.940000	25.150983	0.000939	20.872061
985.306388	-2.993200	3.614800	-10.819000	25.137583	0.000938	20.875678
986.307607	-3.021200	3.613500	-10.916000	25.121925	0.000939	20.860434
987.308944	-3.021200	3.615200	-10.921000	25.096591	0.000938	20.869141
988.307265	-3.001800	3.615700	-10.852000	25.068225	0.000939	20.874805
989.308600	-3.027800	3.613900	-10.941000	25.068075	0.000939	20.848103
990.310041	-3.006300	3.614700	-10.865000	25.066086	0.000937	20.848951
991.310283	-3.028500	3.612900	-10.941000	25.081501	0.000938	20.857313
992.311563	-3.017900	3.614200	-10.906000	25.069345	0.000938	20.880670
993.310349	-3.001800	3.613300	-10.843000	25.057114	0.000934	20.868393
994.310639	-2.997200	3.614100	-10.831000	25.075730	0.000937	20.851520
995.308571	-2.989200	3.613800	-10.801000	25.097933	0.000935	20.854842
996.315073	-3.004300	3.613600	-10.856000	25.115112	0.000934	20.855017
997.311275	-3.005600	3.613200	-10.859000	25.121922	0.000935	20.850000
998.313856	-3.015200	3.612800	-10.893000	25.134352	0.000934	20.853944
999.312154	-3.005800	3.612800	-10.858000	25.119985	0.000933	20.845211
1000.312727	-3.020000	3.611300	-10.905000	25.109766	0.000934	20.857237
1001.312028	-3.001900	3.612500	-10.843000	25.112997	0.000934	20.826343
1002.314798	-2.986800	3.610300	-10.781000	25.133780	0.000931	20.860481
1003.312736	-2.985200	3.611400	-10.781000	25.133683	0.000933	20.846160
1004.316318	-3.034300	3.608900	-10.948000	25.162866	0.000932	20.837525
1005.315616	-3.023600	3.609500	-10.913000	25.179619	0.000930	20.846282
1006.312972	-3.008900	3.609400	-10.859000	25.170570	0.000932	20.873706
1007.314220	-3.018500	3.609700	-10.895000	25.171042	0.000931	20.836250
1008.315696	-2.991100	3.610600	-10.799000	25.183597	0.000930	20.831785
1009.315901	-3.009000	3.607900	-10.854000	25.169253	0.000929	20.861005
1010.313470	-2.983800	3.610200	-10.770000	25.170048	0.000927	20.832881
1011.315687	-3.004800	3.607100	-10.837000	25.136041	0.000928	20.857536
1012.328412	-3.004400	3.607800	-10.837000	25.132757	0.000929	20.824842
1013.313398	-2.990800	3.608200	-10.790000	25.133676	0.000927	20.844731
1014.320211	-3.004700	3.606000	-10.834000	25.147699	0.000928	20.837945
1015.312595	-2.983800	3.607300	-10.762000	25.104492	0.000926	20.860478
1016.316346	-3.035800	3.603800	-10.939000	25.134768	0.000925	20.847723
1017.316330	-3.018900	3.605200	-10.882000	25.148240	0.000927	20.859825
1018.314952	-3.022200	3.605300	-10.894000	25.189009	0.000927	20.831527
1019.319359	-3.018300	3.604900	-10.880000	25.177401	0.000925	20.851642
1020.321781	-2.994300	3.605500	-10.795000	25.216273	0.000926	20.858899
1021.316890	-2.983600	3.607900	-10.762000	25.212770	0.000925	20.843054
1022.318414	-2.992300	3.605900	-10.789000	25.173967	0.000923	20.840134
1023.317049	-3.013300	3.604800	-10.860000	25.143364	0.000925	20.847818
1024.317114	-3.006700	3.604300	-10.836000	25.117984	0.000924	20.830874
1025.322159	-3.008300	3.603600	-10.840000	25.098815	0.000923	20.828227
1026.320894	-2.993000	3.605600	-10.790000	25.125888	0.000923	20.829801
1027.316567	-2.998700	3.604300	-10.807000	25.137721	0.000922	20.813231
1028.317388	-3.025100	3.603800	-10.900000	25.142294	0.000923	20.838684
1029.320071	-2.998700	3.602800	-10.803000	25.177020	0.000923	20.822811
1030.316470	-2.998200	3.603100	-10.801000	25.147637	0.000922	20.842624
1031.316629	-2.993100	3.602500	-10.782000	25.132548	0.000920	20.829848
1032.319914	-2.984900	3.603300	-10.755000	25.166379	0.000920	20.835836
1033.317743	-3.004500	3.603200	-10.825000	25.167151	0.000920	20.812904
1034.318410	-2.996000	3.600500	-10.786000	25.189024	0.000920	20.815423
1035.323518	-3.026500	3.600300	-10.895000	25.214403	0.000921	20.818142
1036.324587	-3.008900	3.600700	-10.833000	25.239487	0.000920	20.819143
1037.324234	-2.993200	3.601500	-10.779000	25.264220	0.000916	20.814578
1038.322757	-3.002800	3.599300	-10.806000	25.231358	0.000917	20.810982
1039.322189	-3.006800	3.598600	-10.818000	25.188530	0.000917	20.826306
1040.321012	-2.995800	3.599200	-10.782000	25.175878	0.000918	20.823561
1041.325067	-3.002600	3.600200	-10.809000	25.215006	0.000915	20.829653
1042.324559	-2.991500	3.599300	-10.766000	25.215651	0.000914	20.810860
1043.333707	-3.012900	3.598500	-10.841000	25.193431	0.000913	20.824588
1044.329979	-2.998000	3.599300	-10.789000	25.159473	0.000914	20.818471
1045.327437	-2.989900	3.598800	-10.759000	25.167530	0.000913	20.796215
1046.327189	-2.988400	3.599800	-10.756000	25.194451	0.000915	20.825612
1047.328203	-2.995500	3.598000	-10.777000	25.161940	0.000911	20.822845
1048.326630	-2.985600	3.597900	-10.740000	25.200719	0.000912	20.810568
1049.325978	-3.027900	3.597000	-10.889000	25.181677	0.000911	20.816581
1050.336360	-2.997100	3.596800	-10.778000	25.190651	0.000909	20.814684
1051.329119	-2.996200	3.597000	-10.776000	25.210859	0.000909	20.803678
1052.334186	-2.994300	3.597900	-10.772000	25.237260	0.000910	20.815959
1053.329464	-2.993600	3.594600	-10.760000	25.232512	0.000910	20.819727
1054.333148	-3.011100	3.595600	-10.826000	25.248322	0.000908	20.808100
1055.331192	-3.003300	3.595500	-10.797000	25.221377	0.000908	20.818032
1056.329727	-2.990800	3.594300	-10.749000	25.223689	0.000909	20.804705
1057.335376	-2.993200	3.594500	-10.756000	25.218744	0.000908	20.811594
1058.329802	-2.992600	3.595400	-10.759000	25.208626	0.000908	20.818032
1059.333358	-2.971600	3.595400	-10.681000	25.268483	0.000907	20.802736
1060.336081	-3.001900	3.593500	-10.786000	25.240344	0.000905	20.803408
1061.333275	-3.007200	3.593300	-10.805000	25.227517	0.000906	20.806178
1062.333193	-3.022000	3.591500	-10.852000	25.245041	0.000904	20.820453
1063.336621	-2.979500	3.594200	-10.705000	25.274422	0.000905	20.810596
1064.337344	-3.003400	3.593200	-10.790000	25.272705	0.000905	20.801760
1065.334059	-3.002200	3.593100	-10.786000	25.319858	0.000903	20.804058
1066.337551	-2.998100	3.592900	-10.771000	25.342625	0.000905	20.812693
1067.335423	-2.997900	3.590900	-10.764000	25.330369	0.000904	20.827888
1068.336182	-2.980500	3.592800	-10.707000	25.322466	0.000903	20.811419
1069.333598	-2.997400	3.591700	-10.763000	25.315633	0.000902	20.820204
1070.334121	-3.005800	3.589500	-10.788000	25.303179	0.000902	20.807227
1071.332934	-3.000900	3.589700	-10.771000	25.313296	0.000901	20.796048
1072.336766	-2.999900	3.590000	-10.768000	25.343541	0.000904	20.807924
1073.333939	-2.989900	3.589200	-10.730000	25.361686	0.000901	20.798168
1074.334982	-3.003300	3.589000	-10.778000	25.357064	0.000900	20.809173
1075.338927	-3.010600	3.589200	-10.804000	25.324183	0.000899	20.816936
1076.339368	-2.983000	3.589700	-10.707000	25.327188	0.000901	20.799091
1077.334456	-2.987200	3.588900	-10.719000	25.340586	0.000899	20.818233
1078.337631	-2.992600	3.588600	-10.739000	25.352711	0.000897	20.811915
1079.338939	-3.006800	3.588000	-10.787000	25.335091	0.000898	20.802758
1080.336486	-2.994300	3.588900	-10.745000	25.335514	0.000899	20.796544
1081.335620	-3.011900	3.585600	-10.797000	25.323636	0.000895	20.806903
1082.338818	-2.990000	3.587600	-10.725000	25.264104	0.000896	20.814461
1083.336517	-2.982000	3.588400	-10.700000	25.298307	0.000894	20.813714
1084.334074	-3.000300	3.586900	-10.761000	25.284139	0.000896	20.795222
1085.339696	-2.995900	3.586800	-10.745000	25.277578	0.000895	20.789108
1086.336338	-3.007900	3.584900	-10.781000	25.263904	0.000895	20.800984
1087.336158	-3.007700	3.585400	-10.782000	25.246158	0.000895	20.811142
1088.341662	-3.011600	3.585100	-10.796000	25.222519	0.000894	20.795944
1089.343314	-2.987500	3.585100	-10.709000	25.202455	0.000892	20.808043
1090.336424	-2.991800	3.586700	-10.729000	25.212895	0.000894	20.804300
1091.339621	-3.005900	3.585400	-10.776000	25.215626	0.000893	20.801352
1092.338299	-3.009900	3.584100	-10.787000	25.271004	0.000892	20.788672
1093.341751	-2.994400	3.585200	-10.735000	25.270506	0.000891	20.781061
1094.344651	-3.011000	3.583400	-10.789000	25.317807	0.000893	20.802947
1095.343499	-2.992500	3.585500	-10.728000	25.343057	0.000889	20.804118
1096.343733	-2.991900	3.585100	-10.725000	25.332815	0.000889	20.789567
1097.341140	-2.991500	3.583400	-10.719000	25.389435	0.000890	20.794736
1098.341508	-2.985600	3.583500	-10.698000	25.391145	0.000889	20.776539
1099.340335	-2.999400	3.582000	-10.742000	25.374371	0.000889	20.770127
1100.346953	-2.999700	3.582200	-10.743000	25.374543	0.000888	20.792585
1101.343318	-2.995200	3.582500	-10.729000	25.371459	0.000889	20.782851
1102.343963	-2.988200	3.582800	-10.706000	25.385776	0.000884	20.782527
1103.342845	-2.992300	3.579400	-10.710000	25.389901	0.000887	20.788091
1104.339312	-2.991300	3.581300	-10.711000	25.405909	0.000888	20.791838
1105.343132	-3.002500	3.579900	-10.748000	25.411425	0.000885	20.786471
1106.342434	-3.016800	3.579800	-10.798000	25.451014	0.000887	20.796353
1107.339510	-2.968300	3.580400	-10.626000	25.474101	0.000883	20.791087
1108.344445	-2.984000	3.580400	-10.683000	25.492440	0.000886	20.790063
1109.344757	-3.006000	3.578100	-10.755000	25.495792	0.000883	20.795326
1110.339658	-3.018100	3.578300	-10.799000	25.511674	0.000886	20.796102
1111.339449	-3.023900	3.577500	-10.817000	25.516767	0.000883	20.792682
1112.339482	-3.024000	3.577300	-10.817000	25.513312	0.000883	20.781626
1113.339012	-2.998600	3.577700	-10.727000	25.522261	0.000883	20.798674
1114.341990	-2.974700	3.578700	-10.645000	25.500242	0.000879	20.775138
1115.343770	-3.016300	3.576200	-10.786000	25.490051	0.000880	20.783397
1116.341997	-3.019100	3.575900	-10.794000	25.435429	0.000880	20.781651
1117.340788	-3.012300	3.576400	-10.772000	25.421016	0.000878	20.779506
1118.343310	-2.991300	3.577000	-10.699000	25.390048	0.000880	20.777333
1119.344787	-2.983600	3.575900	-10.669000	25.380700	0.000879	20.758938
1120.343638	-3.029100	3.574700	-10.826000	25.357984	0.000878	20.793028
1121.342397	-2.999400	3.576100	-10.725000	25.373195	0.000877	20.763256
1122.342513	-3.003200	3.573500	-10.731000	25.353434	0.000878	20.769018
1123.344826	-3.025400	3.573300	-10.809000	25.361862	0.000875	20.780800
1124.344224	-2.987300	3.576400	-10.682000	25.349559	0.000877	20.749954
1125.344554	-2.979200	3.575500	-10.649000	25.317597	0.000875	20.786142
1126.347791	-2.998800	3.574300	-10.717000	25.275098	0.000876	20.772394
1127.342586	-2.994500	3.572300	-10.696000	25.301491	0.000874	20.771866
1128.345240	-3.001900	3.572900	-10.725000	25.275814	0.000875	20.759362
1129.344326	-3.017900	3.573200	-10.783000	25.279842	0.000873	20.764355
1130.349087	-2.997800	3.572500	-10.709000	25.288343	0.000874	20.759614
1131.344822	-3.005300	3.571800	-10.733000	25.327733	0.000872	20.772611
1132.348523	-3.007400	3.571600	-10.740000	25.340337	0.000873	20.774834
1133.343063	-2.996700	3.572500	-10.704000	25.352815	0.000873	20.775509
1134.346442	-3.015000	3.569900	-10.763000	25.382389	0.000871	20.750202
1135.349275	-2.999800	3.572100	-10.715000	25.418599	0.000870	20.739146
1136.344335	-2.988700	3.570600	-10.671000	25.433981	0.000869	20.748428
1137.346445	-2.979500	3.570400	-10.636000	25.447327	0.000869	20.776530
1138.351495	-3.001900	3.569400	-10.712000	25.470292	0.000868	20.751700
1139.351829	-3.003400	3.570900	-10.722000	25.456324	0.000867	20.771339
1140.345341	-2.972100	3.570100	-10.609000	25.416932	0.000868	20.771612
1141.346405	-3.003900	3.568600	-10.718000	25.388153	0.000866	20.765947
1142.352928	-2.993700	3.568400	-10.681000	25.401149	0.000868	20.759557
1143.350370	-3.003400	3.569200	-10.719000	25.388350	0.000866	20.746230
1144.349484	-3.009700	3.567500	-10.736000	25.370878	0.000868	20.767568
1145.350487	-2.993900	3.567000	-10.678000	25.360314	0.000868	20.757434
1146.354896	-3.000100	3.566600	-10.698000	25.389069	0.000863	20.757384
1147.352980	-2.981400	3.568300	-10.637000	25.382083	0.000865	20.770758
1148.353900	-3.012300	3.567400	-10.745000	25.358222	0.000864	20.772404
1149.347311	-2.996600	3.565900	-10.685000	25.349300	0.000862	20.757281
1150.349563	-2.978500	3.566400	-10.621000	25.309135	0.000861	20.761049
1151.354406	-2.986400	3.565600	-10.648000	25.264965	0.000863	20.760798
1152.353512	-3.003200	3.564800	-10.703000	25.270285	0.000862	20.749543
1153.349400	-2.988800	3.564300	-10.652000	25.244511	0.000862	20.759228
1154.354483	-3.014200	3.562700	-10.737000	25.247244	0.000861	20.757705
1155.355939	-3.003900	3.565200	-10.709000	25.235785	0.000860	20.749992
1156.349827	-2.994100	3.564300	-10.670000	25.214332	0.000860	20.754533
1157.355564	-3.001100	3.563500	-10.693000	25.229223	0.000860	20.772803
1158.352197	-3.009000	3.562900	-10.720000	25.208940	0.000859	20.772354
1159.354000	-2.991600	3.562600	-10.657000	25.208417	0.000859	20.742905
1160.354251	-3.008400	3.562800	-10.717000	25.225219	0.000857	20.744126
1161.357010	-3.008900	3.562300	-10.718000	25.224078	0.000856	20.752938
1162.352140	-3.006700	3.562000	-10.708000	25.253806	0.000855	20.760025
1163.356152	-2.983100	3.561300	-10.623000	25.275680	0.000857	20.752115
1164.356864	-3.008300	3.561000	-10.712000	25.252339	0.000854	20.766613
1165.360256	-3.013200	3.560600	-10.728000	25.265588	0.000856	20.744353
1166.360886	-3.004400	3.560800	-10.696000	25.319227	0.000858	20.755535
1167.354394	-3.004700	3.559900	-10.696000	25.333813	0.000857	20.737463
1168.354715	-2.994000	3.559300	-10.655000	25.348230	0.000853	20.741507
1169.358912	-3.025700	3.559100	-10.767000	25.362472	0.000852	20.741583
1170.358801	-2.976700	3.560200	-10.596000	25.412176	0.000853	20.727006
1171.355008	-2.991000	3.559300	-10.644000	25.422714	0.000850	20.748020
1172.358675	-2.985500	3.558400	-10.623000	25.431289	0.000850	20.745725
1173.355761	-2.981400	3.559300	-10.610000	25.438694	0.000851	20.754109
1174.355364	-2.986800	3.558100	-10.625000	25.403057	0.000851	20.746774
1175.358549	-3.018200	3.556800	-10.734000	25.387697	0.000850	20.763118
1176.360150	-3.000300	3.557200	-10.671000	25.393863	0.000850	20.738964
1177.355992	-2.979200	3.559000	-10.600000	25.395305	0.000851	20.741834
1178.359118	-3.010600	3.556100	-10.705000	25.392099	0.000851	20.745254
1179.366723	-3.026200	3.556100	-10.761000	25.372464	0.000849	20.744977
1180.357719	-3.001600	3.555800	-10.672000	25.410662	0.000848	20.752988
1181.360719	-2.998200	3.555600	-10.660000	25.407307	0.000845	20.752464
1182.360665	-2.997100	3.555200	-10.654000	25.416354	0.000850	20.753013
1183.359819	-2.988800	3.556000	-10.627000	25.421423	0.000847	20.753362
1184.362681	-3.000300	3.555200	-10.665000	25.396174	0.000847	20.753139
1185.364032	-2.987500	3.555300	-10.620000	25.409471	0.000847	20.745153
1186.368591	-3.029300	3.552900	-10.762000	25.408999	0.000845	20.757956
1187.365255	-2.995900	3.555300	-10.650000	25.425204	0.000844	20.733449
1188.367367	-2.991100	3.555300	-10.633000	25.427364	0.000845	20.758380
1189.361822	-3.015100	3.554200	-10.715000	25.428731	0.000844	20.760700
1190.369251	-2.975900	3.554800	-10.577000	25.457187	0.000842	20.749446
1191.361895	-2.993200	3.553500	-10.636000	25.466981	0.000842	20.751694
1192.362807	-2.995600	3.552600	-10.641000	25.481368	0.000841	20.738640
1193.368144	-3.021800	3.552300	-10.732000	25.451374	0.000840	20.756411
1194.370976	-3.013100	3.552500	-10.703000	25.452490	0.000840	20.750419
1195.366139	-2.996100	3.552200	-10.641000	25.432264	0.000842	20.746230
1196.370130	-2.993600	3.551200	-10.630000	25.425726	0.000839	20.750570
1197.371015	-3.016800	3.550100	-10.708000	25.432014	0.000839	20.754040
1198.367764	-2.985100	3.552100	-10.601000	25.438478	0.000837	20.757211
1199.370561	-3.006500	3.551400	-10.676000	25.445013	0.000841	20.759507
1200.371499	-3.003000	3.549300	-10.658000	25.431839	0.000838	20.734423
1201.375535	-2.982400	3.550500	-10.588000	25.441211	0.000835	20.750473
1202.373165	-2.990900	3.549500	-10.615000	25.406491	0.000840	20.737419
1203.374035	-2.996000	3.550200	-10.636000	25.372617	0.000837	20.757460
1204.374237	-2.988200	3.549100	-10.605000	25.407785	0.000838	20.747728
1205.378408	-3.005900	3.548500	-10.665000	25.426748	0.000832	20.759183
1206.375929	-2.987400	3.548700	-10.600000	25.455304	0.000837	20.769841
1207.376078	-2.978700	3.547900	-10.567000	25.494942	0.000835	20.755117
1208.373652	-3.003600	3.547600	-10.655000	25.494545	0.000833	20.746657
1209.374597	-2.996500	3.547800	-10.630000	25.452374	0.000834	20.746035
1210.370703	-3.017200	3.544900	-10.694000	25.420169	0.000833	20.760163
1211.374323	-3.004300	3.547300	-10.656000	25.478097	0.000831	20.763806
1212.377879	-2.989000	3.547400	-10.602000	25.509235	0.000832	20.751452
1213.373662	-2.998800	3.545600	-10.631000	25.475239	0.000831	20.750030
1214.380051	-3.011000	3.546300	-10.677000	25.481355	0.000833	20.753327
1215.376580	-3.002300	3.546400	-10.646000	25.465029	0.000831	20.747838
1216.373734	-2.992700	3.544900	-10.608000	25.475267	0.000828	20.762860
1217.378170	-2.991200	3.545500	-10.603000	25.439134	0.000830	20.754551
1218.376908	-2.975800	3.545500	-10.549000	25.449375	0.000827	20.770051
1219.376022	-2.978400	3.544800	-10.557000	25.472362	0.000827	20.753779
1220.378277	-3.010800	3.543300	-10.667000	25.435235	0.000827	20.762964
1221.378894	-2.993100	3.542500	-10.601000	25.431335	0.000824	20.771376
1222.375012	-2.973300	3.544500	-10.538000	25.442418	0.000827	20.759271
1223.388192	-3.025900	3.542400	-10.717000	25.459944	0.000826	20.762172
1224.379775	-2.990500	3.542100	-10.592000	25.475673	0.000825	20.758053
1225.376579	-2.996600	3.543900	-10.619000	25.506489	0.000825	20.768610
1226.378230	-3.000000	3.542300	-10.624000	25.517974	0.000823	20.769712
1227.380037	-3.007700	3.540400	-10.647000	25.538423	0.000825	20.776498
1228.376492	-3.002600	3.540700	-10.630000	25.544539	0.000826	20.757035
1229.381230	-2.998200	3.540900	-10.615000	25.546030	0.000823	20.766594
1230.384095	-2.985000	3.540600	-10.567000	25.538976	0.000822	20.755242
1231.377386	-3.003400	3.539300	-10.628000	25.595485	0.000822	20.778802
1232.378694	-2.982100	3.541300	-10.560000	25.638222	0.000823	20.782844
1233.382744	-3.001700	3.538800	-10.621000	25.636931	0.000823	20.758787
1234.377234	-3.013900	3.538900	-10.665000	25.650403	0.000820	20.761412
1235.382887	-2.978900	3.540000	-10.544000	25.646998	0.000822	20.760363
1236.384491	-3.002000	3.539300	-10.623000	25.655152	0.000818	20.760018
1237.383591	-2.967700	3.538500	-10.500000	25.644093	0.000819	20.765507
1238.386250	-3.003200	3.537200	-10.621000	25.650656	0.000820	20.782056
1239.383676	-3.000400	3.536400	-10.609000	25.635424	0.000818	20.792361
1240.379031	-3.014900	3.537300	-10.664000	25.630681	0.000818	20.772425
1241.383252	-3.025200	3.535800	-10.695000	25.609236	0.000817	20.772224
1242.382702	-2.992900	3.535800	-10.581000	25.624446	0.000816	20.777069
1243.379999	-2.996800	3.536100	-10.595000	25.650487	0.000815	20.785679
1244.384355	-2.996200	3.535100	-10.591000	25.662336	0.000816	20.783356
1245.384271	-2.993400	3.535700	-10.583000	25.685321	0.000814	20.782734
1246.384527	-2.991900	3.534100	-10.573000	25.675980	0.000816	20.793740
1247.385139	-3.010600	3.533900	-10.638000	25.666416	0.000814	20.799307
1248.384675	-2.980100	3.533500	-10.528000	25.630609	0.000812	20.775197
1249.384867	-2.978500	3.534100	-10.526000	25.635033	0.000813	20.778218
1250.384562	-2.976800	3.534700	-10.521000	25.614085	0.000813	20.777568
1251.388429	-3.009900	3.533400	-10.634000	25.576419	0.000812	20.779568
1252.385528	-3.015000	3.532000	-10.648000	25.599925	0.000812	20.789425
1253.388248	-3.004100	3.533200	-10.613000	25.608848	0.000810	20.774205
1254.388832	-3.009300	3.531900	-10.627000	25.598239	0.000811	20.789629
1255.386838	-2.998800	3.530900	-10.588000	25.586959	0.000811	20.765972
1256.390624	-2.987200	3.532400	-10.550000	25.606015	0.000812	20.786059
1257.387523	-3.025300	3.530800	-10.681000	25.612850	0.000812	20.784388
1258.385558	-3.002300	3.531300	-10.601000	25.620901	0.000812	20.783939
1259.389408	-2.998900	3.531200	-10.589000	25.634714	0.000810	20.782165
1260.390098	-3.002600	3.530700	-10.600000	25.642421	0.000807	20.782793
1261.389756	-3.006700	3.530500	-10.613000	25.672581	0.000806	20.782740
1262.391490	-2.991000	3.530300	-10.558000	25.661179	0.000808	20.790728
1263.391056	-2.990100	3.528000	-10.548000	25.682076	0.000806	20.800337
1264.390102	-2.980100	3.530700	-10.520000	25.668035	0.000808	20.789080
1265.395777	-3.001300	3.529700	-10.592000	25.643765	0.000804	20.793627
1266.390430	-2.982100	3.529400	-10.525000	25.645353	0.000804	20.796170
1267.389830	-2.998400	3.529100	-10.581000	25.634448	0.000806	20.803709
1268.390906	-3.009600	3.527400	-10.615000	25.602739	0.000804	20.767121
1269.392245	-3.005800	3.526800	-10.600000	25.562014	0.000803	20.812043
1270.389546	-2.987900	3.527200	-10.538000	25.524990	0.000804	20.789560
1271.394792	-2.998600	3.528200	-10.579000	25.483240	0.000802	20.807851
1272.390358	-3.007300	3.527600	-10.608000	25.475760	0.000804	20.789435
1273.390938	-3.005600	3.526400	-10.598000	25.477105	0.000802	20.805958
1274.395332	-3.013100	3.526600	-10.625000	25.474269	0.000800	20.782247
1275.393419	-3.001800	3.525700	-10.583000	25.496339	0.000800	20.800142
1276.391435	-2.997600	3.526200	-10.568000	25.524196	0.000799	20.782124
1277.394646	-2.989700	3.524800	-10.535000	25.527004	0.000798	20.782573
1278.393278	-2.986300	3.525200	-10.526000	25.535402	0.000801	20.795749
1279.390287	-2.984400	3.524900	-10.518000	25.509831	0.000800	20.800890
1280.396102	-3.008000	3.524000	-10.600000	25.518555	0.000798	20.800167
1281.393985	-3.019200	3.522900	-10.634000	25.510128	0.000799	20.802136
1282.403871	-2.978000	3.524900	-10.495000	25.534658	0.000796	20.804959
1283.394115	-3.029100	3.522800	-10.670000	25.531925	0.000797	20.804111
1284.400635	-3.008100	3.522000	-10.593000	25.532072	0.000796	20.799517
1285.396533	-3.012400	3.521800	-10.607000	25.527923	0.000797	20.781600
1286.395687	-2.988000	3.521200	-10.520000	25.501557	0.000794	20.787365
1287.397342	-3.024400	3.521300	-10.648000	25.483937	0.000795	20.811870
1288.391992	-3.005200	3.521700	-10.582000	25.517385	0.000796	20.813692
1289.395112	-2.981100	3.522000	-10.498000	25.527898	0.000791	20.809076
1290.394789	-2.997300	3.520800	-10.552000	25.543876	0.000792	20.797621
1291.391626	-3.007700	3.520000	-10.585000	25.569074	0.000792	20.799219
1292.402320	-2.998500	3.520900	-10.557000	25.616508	0.000792	20.799442
1293.401727	-2.991700	3.520300	-10.530000	25.636042	0.000791	20.797250
1294.396176	-2.999200	3.519800	-10.556000	25.663249	0.000792	20.803713
1295.398088	-3.007100	3.517900	-10.577000	25.683227	0.000789	20.811450
1296.399150	-2.994700	3.519500	-10.538000	25.673038	0.000790	20.832036
1297.394368	-3.011000	3.517200	-10.589000	25.705264	0.000790	20.816515
1298.398684	-2.987200	3.519300	-10.512000	25.710757	0.000787	20.825351
1299.399471	-3.001600	3.517100	-10.556000	25.694781	0.000788	20.810253
1300.405265	-3.027500	3.516000	-10.644000	25.664196	0.000787	20.789017
1301.399920	-3.012300	3.517700	-10.596000	25.667179	0.000788	20.815246
1302.398724	-3.018300	3.515100	-10.608000	25.675404	0.000788	20.823982
1303.398038	-2.989900	3.515900	-10.511000	25.655577	0.000787	20.808809
1304.402584	-2.987500	3.516200	-10.504000	25.684871	0.000787	20.833015
1305.400755	-3.007000	3.515300	-10.570000	25.709247	0.000786	20.833791
1306.397439	-2.988400	3.516500	-10.508000	25.715856	0.000785	20.802023
1307.402038	-3.020300	3.513300	-10.608000	25.719504	0.000786	20.829869
1308.402571	-3.016000	3.513100	-10.594000	25.696479	0.000782	20.823338
1309.400656	-3.027000	3.512300	-10.631000	25.664199	0.000783	20.826478
1310.401860	-3.015700	3.513300	-10.594000	25.612941	0.000783	20.836162
1311.398336	-3.012900	3.512800	-10.583000	25.632869	0.000780	20.815874
1312.399107	-3.030200	3.511100	-10.638000	25.621714	0.000785	20.829326
1313.398538	-3.025200	3.511600	-10.622000	25.625093	0.000780	20.838410
1314.399471	-3.001900	3.513600	-10.547000	25.604543	0.000781	20.831995
1315.399527	-3.016100	3.512600	-10.593000	25.600666	0.000781	20.820041
1316.397327	-2.980000	3.510600	-10.461000	25.614479	0.000781	20.825379
1317.398962	-2.987700	3.512000	-10.492000	25.626607	0.000779	20.829024
1318.399623	-2.973900	3.510400	-10.438000	25.655752	0.000780	20.843123
1319.401353	-2.997300	3.511700	-10.525000	25.694069	0.000777	20.827555
1320.403669	-3.006500	3.509800	-10.551000	25.679806	0.000778	20.844049
1321.402915	-2.975900	3.510500	-10.446000	25.706368	0.000775	20.815252
1322.400270	-2.989000	3.509300	-10.489000	25.753770	0.000777	20.829200
1323.404972	-3.025400	3.508400	-10.613000	25.731509	0.000777	20.864211
1324.405393	-3.005700	3.508200	-10.544000	25.744902	0.000777	20.830723
1325.400918	-3.022100	3.507400	-10.599000	25.731634	0.000775	20.837785
1326.407809	-2.989100	3.507500	-10.483000	25.708106	0.000775	20.846869
1327.402279	-3.001700	3.508500	-10.531000	25.684827	0.000775	20.844351
1328.402509	-3.008700	3.507000	-10.551000	25.643952	0.000774	20.831273
1329.405903	-2.999000	3.507300	-10.517000	25.655583	0.000774	20.856229
1330.403596	-3.007000	3.505800	-10.540000	25.653398	0.000774	20.840284
1331.402472	-2.998100	3.505800	-10.509000	25.637543	0.000771	20.848543
1332.410220	-2.995900	3.505700	-10.502000	25.657346	0.000772	20.849466
1333.409734	-3.006700	3.506000	-10.541000	25.681398	0.000770	20.853708
1334.406525	-3.004800	3.505000	-10.531000	25.702069	0.000771	20.844599
1335.412797	-3.002100	3.504200	-10.519000	25.717322	0.000770	20.858022
1336.409762	-3.019300	3.505700	-10.583000	25.741772	0.000771	20.853183
1337.413265	-2.994200	3.505200	-10.494000	25.742047	0.000770	20.839236
1338.409206	-3.017900	3.504000	-10.574000	25.786692	0.000769	20.843302
1339.408908	-3.006000	3.504300	-10.532000	25.777276	0.000768	20.869878
1340.406723	-2.991300	3.503900	-10.480000	25.783909	0.000766	20.848094
1341.413221	-3.000100	3.502800	-10.507000	25.819358	0.000768	20.862839
1342.407510	-3.019700	3.502500	-10.575000	25.794988	0.000767	20.842627
1343.411351	-3.003100	3.501200	-10.513000	25.803388	0.000766	20.854383
1344.416514	-3.006300	3.501700	-10.526000	25.806367	0.000766	20.861642
1345.410338	-3.008100	3.500900	-10.530000	25.832550	0.000767	20.846693
1346.409675	-2.998000	3.501500	-10.497000	25.785769	0.000766	20.857548
1347.415169	-3.005500	3.501400	-10.522000	25.771408	0.000766	20.848338
1348.415729	-3.025000	3.499700	-10.586000	25.764030	0.000763	20.878384
1349.411406	-3.031600	3.498900	-10.605000	25.765125	0.000765	20.861466
1350.418787	-2.980200	3.499400	-10.428000	25.799633	0.000764	20.866732
1351.413387	-2.977900	3.500000	-10.421000	25.782812	0.000763	20.868801
1352.413521	-2.974300	3.499000	-10.406000	25.776572	0.000762	20.855896
1353.424692	-2.997700	3.496900	-10.482000	25.737668	0.000761	20.848112
1354.415748	-2.998000	3.497300	-10.483000	25.745270	0.000761	20.866654
1355.416188	-3.008700	3.496100	-10.517000	25.750635	0.000761	20.873464
1356.418550	-3.010200	3.496300	-10.524000	25.772449	0.000760	20.854125
1357.419828	-3.013700	3.495500	-10.533000	25.803381	0.000760	20.860066
1358.415338	-3.014500	3.495500	-10.536000	25.803306	0.000760	20.874214
1359.420675	-2.997400	3.497700	-10.483000	25.793494	0.000759	20.877634
1360.419201	-3.010200	3.495900	-10.523000	25.810859	0.000758	20.887490
1361.423968	-3.008700	3.496000	-10.516000	25.843353	0.000756	20.873191
1362.420512	-3.020400	3.493100	-10.550000	25.829665	0.000756	20.864183
1363.418707	-2.992400	3.495700	-10.458000	25.858457	0.000757	20.856596
1364.418526	-2.995600	3.494800	-10.468000	25.870504	0.000756	20.862060
1365.422273	-2.982300	3.494200	-10.419000	25.871076	0.000755	20.887763
1366.419634	-2.986200	3.493700	-10.431000	25.854081	0.000756	20.850778
1367.419763	-2.989200	3.493900	-10.443000	25.812494	0.000754	20.878227
1368.425317	-2.997200	3.493100	-10.469000	25.773787	0.000756	20.883917
1369.422963	-2.971800	3.494400	-10.384000	25.742482	0.000757	20.876654
1370.424900	-3.023000	3.490600	-10.551000	25.748172	0.000752	20.896592
1371.424296	-3.000400	3.492400	-10.477000	25.734654	0.000752	20.877800
1372.426167	-3.019000	3.490200	-10.535000	25.721536	0.000753	20.889754
1373.426216	-3.010500	3.491100	-10.509000	25.723625	0.000752	20.876205
1374.426466	-3.005400	3.490400	-10.488000	25.752667	0.000751	20.884987
1375.427628	-2.996900	3.491200	-10.461000	25.784147	0.000753	20.873935
1376.424969	-2.999500	3.491000	-10.469000	25.791699	0.000752	20.893848
1377.427388	-3.004100	3.489700	-10.483000	25.774581	0.000751	20.891826
1378.426646	-2.991000	3.489200	-10.435000	25.761439	0.000749	20.890005
1379.426486	-2.980400	3.489800	-10.400000	25.763452	0.000749	20.862631
1380.432071	-3.008600	3.487700	-10.492000	25.741613	0.000748	20.871988
1381.426231	-2.973400	3.487500	-10.368000	25.722136	0.000749	20.890356
1382.428303	-3.004800	3.487800	-10.478000	25.724844	0.000749	20.904928
1383.427642	-2.976500	3.487700	-10.380000	25.755502	0.000748	20.895421
1384.430595	-3.002300	3.487200	-10.469000	25.752073	0.000748	20.882020
1385.429808	-3.009700	3.485200	-10.488000	25.761567	0.000749	20.887763
1386.430748	-2.986700	3.487000	-10.414000	25.733391	0.000746	20.884118
1387.429882	-2.992300	3.486200	-10.430000	25.713986	0.000747	20.882645
1388.428830	-3.001400	3.484900	-10.459000	25.715850	0.000746	20.873137
1389.429412	-2.968000	3.486900	-10.348000	25.716275	0.000746	20.876409
1390.428454	-3.006700	3.483200	-10.472000	25.737764	0.000745	20.889933
1391.426075	-2.986200	3.485000	-10.406000	25.751304	0.000743	20.893101
1392.430180	-3.002500	3.483900	-10.460000	25.765515	0.000742	20.881298
1393.432486	-3.003400	3.482200	-10.457000	25.750607	0.000744	20.881496
1394.432876	-3.022300	3.482200	-10.523000	25.771602	0.000746	20.901635
1395.431846	-2.997600	3.483800	-10.442000	25.773265	0.000742	20.894771
1396.431837	-3.002800	3.482100	-10.455000	25.722831	0.000743	20.885364
1397.427325	-3.014100	3.481200	-10.492000	25.718310	0.000743	20.915908
1398.434189	-3.015500	3.480700	-10.496000	25.705614	0.000740	20.923544
1399.432646	-3.020500	3.480600	-10.512000	25.699599	0.000740	20.903280
1400.430461	-3.005200	3.479700	-10.457000	25.683649	0.000742	20.890105
1401.433024	-3.023000	3.479300	-10.517000	25.668689	0.000739	20.884563
1402.430521	-3.008200	3.480800	-10.469000	25.684321	0.000738	20.895047
1403.429359	-3.004300	3.480500	-10.455000	25.700571	0.000739	20.910420
1404.429006	-2.980000	3.482000	-10.375000	25.706977	0.000737	20.896941
1405.432090	-3.008000	3.480100	-10.468000	25.698483	0.000737	20.897418
1406.429191	-3.005700	3.478900	-10.455000	25.705192	0.000738	20.909371
1407.427991	-2.963200	3.479900	-10.310000	25.689886	0.000736	20.912489
1408.433199	-2.992600	3.479500	-10.412000	25.703976	0.000734	20.929959
1409.429066	-3.005400	3.477300	-10.449000	25.717094	0.000734	20.913265
1410.435531	-3.000900	3.479000	-10.439000	25.716994	0.000734	20.916483
1411.435339	-2.998200	3.476200	-10.421000	25.657712	0.000735	20.903883
1412.435298	-2.998500	3.477400	-10.426000	25.700303	0.000735	20.896875
1413.432505	-2.996000	3.478200	-10.419000	25.722934	0.000734	20.901588
1414.435519	-2.995700	3.475800	-10.412000	25.728026	0.000734	20.892005
1415.434687	-2.998000	3.476000	-10.419000	25.758663	0.000733	20.892432
1416.436271	-3.006700	3.474100	-10.445000	25.762961	0.000732	20.901964
1417.437554	-3.022100	3.473300	-10.496000	25.783409	0.000734	20.908753
1418.442341	-3.003200	3.474100	-10.431000	25.781868	0.000732	20.899145
1419.439236	-3.009500	3.473800	-10.454000	25.809768	0.000732	20.896825
1420.435271	-2.998200	3.473700	-10.414000	25.852249	0.000730	20.910574
1421.435827	-3.013900	3.473200	-10.466000	25.860473	0.000732	20.899870
1422.435178	-3.012600	3.471000	-10.455000	25.861964	0.000730	20.876714
1423.434543	-2.999200	3.473400	-10.416000	25.887727	0.000729	20.887421
1424.433732	-3.016700	3.472500	-10.475000	25.897511	0.000728	20.873543
1425.440380	-3.013200	3.470600	-10.456000	25.847657	0.000728	20.891738
1426.437678	-3.014300	3.471000	-10.460000	25.831259	0.000727	20.884275
1427.442520	-3.015600	3.469600	-10.462000	25.835807	0.000729	20.884102
1428.438042	-3.018200	3.470200	-10.472000	25.863605	0.000728	20.885474
1429.437222	-3.008400	3.469900	-10.438000	25.826189	0.000726	20.914740
1430.434544	-3.023500	3.469300	-10.489000	25.828727	0.000724	20.870352
1431.434040	-3.005500	3.468200	-10.423000	25.837920	0.000724	20.891914
1432.434552	-2.990800	3.470800	-10.380000	25.828380	0.000725	20.879486
1433.433739	-3.003100	3.467700	-10.412000	25.825595	0.000724	20.880008
1434.434984	-3.026800	3.467800	-10.494000	25.837098	0.000723	20.885399
1435.439039	-2.991900	3.469900	-10.380000	25.820255	0.000723	20.884601
1436.437304	-2.995500	3.468300	-10.388000	25.783909	0.000723	20.892187
1437.434669	-3.001900	3.468600	-10.411000	25.797226	0.000721	20.887546
1438.437979	-2.996600	3.467200	-10.389000	25.820180	0.000721	20.871250
1439.434511	-2.996200	3.467200	-10.387000	25.809874	0.000723	20.900724
1440.435725	-3.012200	3.464400	-10.435000	25.795163	0.000722	20.871725
1441.437853	-2.980100	3.467500	-10.332000	25.797248	0.000720	20.888517
1442.445428	-3.001800	3.465400	-10.400000	25.824826	0.000720	20.871175
1443.444125	-3.019900	3.463600	-10.459000	25.803560	0.000720	20.888218
1444.444149	-3.004100	3.464300	-10.406000	25.849470	0.000718	20.891663
1445.440187	-3.018000	3.463400	-10.451000	25.838811	0.000719	20.893283
1446.440301	-3.000600	3.463100	-10.391000	25.857813	0.000721	20.875389
1447.444449	-2.994600	3.462900	-10.369000	25.863627	0.000718	20.882177
1448.441129	-2.982600	3.465200	-10.334000	25.852546	0.000717	20.880055
1449.439895	-3.019500	3.461900	-10.452000	25.809343	0.000719	20.867476
1450.445978	-2.993400	3.462300	-10.363000	25.777320	0.000716	20.846216
1451.441008	-2.973800	3.460800	-10.291000	25.778636	0.000717	20.870296
1452.442762	-3.022000	3.461100	-10.457000	25.790587	0.000716	20.866179
1453.447234	-3.005300	3.461700	-10.403000	25.838483	0.000714	20.857394
1454.442278	-3.002300	3.460100	-10.386000	25.819899	0.000716	20.843942
1455.441564	-2.996800	3.461000	-10.371000	25.807970	0.000715	20.855193
1456.449837	-3.030700	3.459100	-10.482000	25.792297	0.000714	20.856992
1457.445789	-2.980400	3.461000	-10.313000	25.779995	0.000713	20.869291
1458.449254	-3.022800	3.458800	-10.454000	25.802281	0.000714	20.858013
1459.447084	-2.991400	3.459000	-10.345000	25.747349	0.000713	20.865423
1460.446640	-2.973500	3.459200	-10.285000	25.741113	0.000712	20.869589
1461.449311	-2.972800	3.458300	-10.279000	25.777210	0.000713	20.849899
1462.447427	-2.994000	3.456900	-10.349000	25.783447	0.000712	20.851422
1463.447487	-2.976100	3.458900	-10.292000	25.765284	0.000711	20.855937
1464.447992	-3.011600	3.455300	-10.405000	25.751470	0.000711	20.855337
1465.447399	-3.008400	3.455800	-10.395000	25.734104	0.000710	20.871558
1466.447327	-2.992600	3.455700	-10.341000	25.739321	0.000710	20.840291
1467.450466	-3.006000	3.455500	-10.385000	25.757331	0.000710	20.859328
1468.447216	-2.986200	3.456000	-10.319000	25.694025	0.000710	20.857856
1469.449338	-3.013300	3.453400	-10.404000	25.712039	0.000710	20.856983
1470.444676	-3.003900	3.455200	-10.378000	25.715418	0.000708	20.874127
1471.449333	-3.000300	3.454300	-10.362000	25.746896	0.000708	20.857856
1472.444824	-3.012700	3.452400	-10.400000	25.772537	0.000708	20.870808
1473.445414	-2.975800	3.454600	-10.279000	25.790274	0.000708	20.859702
1474.448747	-3.013600	3.451500	-10.401000	25.809055	0.000707	20.853438
1475.446460	-2.994000	3.453400	-10.338000	25.844156	0.000707	20.852188
1476.446270	-3.007300	3.451900	-10.380000	25.840930	0.000707	20.847051
1477.449739	-3.009900	3.452300	-10.389000	25.848705	0.000705	20.842533
1478.454616	-3.013900	3.451100	-10.400000	25.858792	0.000705	20.839864
1479.454155	-3.003100	3.451100	-10.364000	25.847117	0.000704	20.834774
1480.452267	-2.981200	3.451400	-10.287000	25.849352	0.000704	20.842709
1481.448165	-2.984600	3.452700	-10.304000	25.870839	0.000703	20.858603
1482.446876	-3.008800	3.448400	-10.374000	25.834916	0.000703	20.840062
1483.451539	-2.981800	3.452300	-10.293000	25.818421	0.000703	20.837716
1484.448813	-2.998700	3.448900	-10.341000	25.818246	0.000703	20.844178
1485.449201	-3.005600	3.447600	-10.361000	25.816905	0.000702	20.832400
1486.451970	-2.985000	3.449700	-10.296000	25.833228	0.000700	20.845478
1487.452777	-2.974700	3.449000	-10.259000	25.815538	0.000700	20.833873
1488.449825	-3.003000	3.447500	-10.351000	25.780683	0.000701	20.825888
1489.457547	-2.999100	3.447000	-10.336000	25.750347	0.000700	20.824340
1490.453822	-2.977700	3.448300	-10.267000	25.734173	0.000699	20.840809
1491.450016	-2.999300	3.444900	-10.332000	25.723140	0.000699	20.835892
1492.454380	-3.007600	3.445500	-10.361000	25.764781	0.000699	20.830302
1493.453911	-3.011400	3.446800	-10.378000	25.813050	0.000697	20.837063
1494.457299	-3.005200	3.444300	-10.349000	25.864253	0.000698	20.824961
1495.454340	-3.016900	3.443600	-10.388000	25.909764	0.000699	20.841757
1496.452891	-3.034200	3.444700	-10.450000	25.936019	0.000696	20.826883
1497.454358	-3.009800	3.444100	-10.365000	25.973501	0.000698	20.850314
1498.455591	-2.986800	3.443200	-10.283000	25.958824	0.000695	20.828930
1499.456228	-3.031300	3.443600	-10.438000	25.945509	0.000696	20.848744
1500.451657	-3.016900	3.443500	-10.388000	25.924023	0.000694	20.827159
1501.455289	-3.016300	3.443300	-10.385000	25.886608	0.000694	20.828453
1502.455730	-3.013500	3.442300	-10.372000	25.857269	0.000694	20.838335
1503.453040	-3.013700	3.440800	-10.368000	25.810243	0.000695	20.829502
1504.458276	-3.029600	3.440800	-10.423000	25.795832	0.000692	20.843001
1505.456595	-3.000900	3.442600	-10.330000	25.778270	0.000690	20.817774
1506.453355	-2.989200	3.442300	-10.289000	25.799365	0.000693	20.852238
1507.458130	-3.022500	3.441800	-10.401000	25.797126	0.000692	20.840033
1508.457276	-3.000100	3.441400	-10.322000	25.832725	0.000690	20.828378
1509.453660	-3.004000	3.439400	-10.332000	25.857841	0.000687	20.829426
1510.456226	-3.005800	3.438800	-10.335000	25.902134	0.000689	20.820817
1511.458939	-2.989200	3.440400	-10.283000	25.932365	0.000688	20.833169
1512.456513	-3.000200	3.439600	-10.319000	25.940686	0.000687	20.818769
1513.459298	-3.023700	3.437500	-10.393000	25.930800	0.000688	20.819743
1514.458790	-3.000900	3.438800	-10.318000	25.957305	0.000689	20.816025
1515.456650	-2.991200	3.438400	-10.284000	25.966397	0.000686	20.844125
1516.460868	-2.999800	3.437800	-10.312000	25.964209	0.000687	20.823909
1517.462733	-2.990300	3.438000	-10.280000	25.915074	0.000685	20.838558
1518.459138	-3.004300	3.435700	-10.320000	25.910530	0.000687	20.826880
1519.462278	-2.996400	3.438100	-10.300000	25.850486	0.000682	20.822038
1520.463514	-2.982000	3.436900	-10.247000	25.809493	0.000683	20.838231
1521.459163	-2.979300	3.435500	-10.233000	25.799133	0.000683	20.804118
1522.465244	-2.997700	3.436400	-10.300000	25.805717	0.000684	20.816895
1523.463271	-3.017200	3.435500	-10.364000	25.835082	0.000684	20.829323
1524.461925	-3.024700	3.435200	-10.389000	25.866631	0.000684	20.823084
1525.463176	-3.004200	3.435300	-10.319000	25.872592	0.000682	20.825753
1526.466336	-2.981200	3.435700	-10.240000	25.901881	0.000681	20.816295
1527.461787	-2.972200	3.434600	-10.207000	25.941374	0.000682	20.801443
1528.465510	-3.017300	3.433300	-10.357000	25.891147	0.000681	20.824004
1529.466236	-2.990300	3.433800	-10.267000	25.878925	0.000679	20.807459
1530.461524	-3.013600	3.433000	-10.345000	25.879297	0.000680	20.806884
1531.466590	-3.011200	3.431400	-10.332000	25.861558	0.000680	20.808505
1532.466271	-2.996600	3.432200	-10.284000	25.828893	0.000681	20.804140
1533.466235	-3.021200	3.430300	-10.362000	25.821315	0.000678	20.797002
1534.464823	-2.999600	3.430200	-10.288000	25.822653	0.000679	20.800717
1535.466409	-2.996600	3.430400	-10.279000	25.818133	0.000679	20.816091
1536.465732	-3.019100	3.430200	-10.355000	25.804369	0.000677	20.824550
1537.467127	-2.993000	3.430800	-10.268000	25.816914	0.000675	20.824823
1538.468303	-3.009400	3.429200	-10.318000	25.847148	0.000677	20.807305
1539.464866	-2.997700	3.429500	-10.280000	25.866847	0.000675	20.810024
1540.466445	-2.989900	3.431300	-10.258000	25.918541	0.000675	20.806953
1541.469415	-3.005400	3.428300	-10.302000	25.940255	0.000674	20.805534
1542.467447	-3.009400	3.428600	-10.317000	25.966285	0.000675	20.802287
1543.469046	-3.001300	3.427400	-10.285000	25.954586	0.000674	20.809500
1544.471416	-2.997100	3.427700	-10.272000	25.968069	0.000676	20.824943
1545.471437	-2.992200	3.427600	-10.255000	25.974130	0.000673	20.813962
1546.469232	-3.004100	3.427600	-10.296000	25.975671	0.000674	20.810295
1547.470402	-2.989900	3.427900	-10.248000	25.992858	0.000670	20.805751
1548.466587	-3.006000	3.425800	-10.296000	26.013351	0.000672	20.802159
1549.469498	-2.999700	3.426700	-10.277000	25.988760	0.000672	20.793574
1550.470263	-2.978200	3.427300	-10.206000	25.929340	0.000668	20.795517
1551.465915	-2.985400	3.424700	-10.223000	25.895583	0.000668	20.819451
1552.479018	-3.008800	3.424400	-10.302000	25.910811	0.000669	20.816732
1553.469852	-2.993600	3.423400	-10.247000	25.885918	0.000669	20.790776
1554.478107	-2.999500	3.423600	-10.268000	25.890341	0.000669	20.786684
1555.471289	-2.983800	3.423400	-10.214000	25.914984	0.000666	20.798164
1556.466894	-2.999800	3.423700	-10.270000	25.946331	0.000667	20.817802
1557.468687	-3.036100	3.422200	-10.389000	25.944568	0.000667	20.802755
1558.472142	-2.981100	3.422100	-10.201000	25.962228	0.000666	20.799160
1559.470420	-3.003000	3.421700	-10.275000	25.937983	0.000666	20.810838
1560.477208	-2.971200	3.422300	-10.167000	25.942552	0.000665	20.783660
1561.476482	-3.011000	3.420200	-10.297000	25.933607	0.000662	20.797433
1562.475192	-2.978800	3.421200	-10.190000	25.942455	0.000664	20.784986
1563.472373	-2.990700	3.421300	-10.231000	25.902084	0.000664	20.788050
1564.486344	-3.001900	3.419300	-10.263000	25.908892	0.000661	20.792045
1565.476596	-2.989200	3.420400	-10.223000	25.932316	0.000663	20.803248
1566.473137	-2.976900	3.420800	-10.182000	25.966619	0.000662	20.813055
1567.484887	-2.987400	3.418800	-10.213000	25.931619	0.000662	20.780263
1568.474596	-2.986000	3.418500	-10.206000	25.932613	0.000661	20.807340
1569.479671	-2.993100	3.418100	-10.231000	25.886159	0.000660	20.800501
1570.477774	-2.977700	3.418000	-10.177000	25.891026	0.000660	20.777415
1571.482124	-2.985600	3.417400	-10.202000	25.876941	0.000661	20.795508
1572.484706	-3.006800	3.417800	-10.276000	25.835773	0.000660	20.808207
1573.480069	-2.991300	3.416800	-10.220000	25.838333	0.000658	20.792761
1574.481430	-2.997500	3.417500	-10.242000	25.834088	0.000661	20.793238
1575.482348	-2.991200	3.417200	-10.220000	25.800797	0.000659	20.793461
1576.480344	-2.966100	3.416300	-10.132000	25.834829	0.000656	20.796353
1577.480130	-3.006700	3.414900	-10.267000	25.867770	0.000657	20.787718
1578.484348	-3.003700	3.414600	-10.255000	25.855273	0.000658	20.789388
1579.481771	-2.974800	3.414800	-10.158000	25.882424	0.000659	20.778257
1580.483533	-3.006500	3.414100	-10.262000	25.894373	0.000655	20.783623
1581.486655	-3.004800	3.413900	-10.257000	25.898246	0.000654	20.780876
1582.486405	-3.002400	3.414000	-10.248000	25.915810	0.000654	20.771967
1583.483108	-2.995300	3.412700	-10.221000	25.899390	0.000655	20.769222
1584.483768	-2.992900	3.413000	-10.214000	25.918370	0.000656	20.788289
1585.487555	-2.991300	3.412100	-10.205000	25.924327	0.000651	20.790007
1586.488139	-2.992400	3.412400	-10.210000	25.932926	0.000651	20.782998
1587.489233	-3.003300	3.411600	-10.245000	25.951185	0.000653	20.782851
1588.484140	-2.976500	3.411600	-10.153000	25.982010	0.000652	20.777782
1589.483465	-3.021900	3.409200	-10.301000	26.023440	0.000651	20.760138
1590.482864	-3.005800	3.410900	-10.251000	26.049474	0.000650	20.789614
1591.485020	-3.010800	3.410500	-10.267000	25.998059	0.000650	20.764983
1592.483648	-3.038400	3.408000	-10.354000	26.003300	0.000649	20.753653
1593.484257	-2.995600	3.409600	-10.213000	25.983950	0.000650	20.765033
1594.483961	-3.009100	3.407800	-10.254000	25.984547	0.000649	20.773694
1595.485327	-3.025700	3.408700	-10.313000	25.945775	0.000648	20.789743
1596.488943	-2.997200	3.408200	-10.212000	25.904041	0.000648	20.794758
1597.483666	-2.996500	3.407900	-10.211000	25.897233	0.000648	20.773220
1598.488346	-3.012600	3.408100	-10.266000	25.852000	0.000650	20.767608
1599.487000	-2.988900	3.407900	-10.184000	25.870458	0.000647	20.770503
1600.484242	-2.983100	3.408200	-10.166000	25.854188	0.000644	20.772177
1601.488496	-3.005900	3.407000	-10.240000	25.866757	0.000647	20.767734
1602.484323	-2.987900	3.405400	-10.172000	25.875350	0.000645	20.766883
1603.484891	-2.979100	3.406600	-10.147000	25.905163	0.000646	20.791143
1604.487427	-2.978400	3.406500	-10.145000	25.896642	0.000644	20.770729
1605.487072	-2.990100	3.405600	-10.181000	25.894705	0.000643	20.792016
1606.487392	-2.998800	3.403200	-10.205000	25.899474	0.000644	20.770255
1607.485922	-3.011500	3.403800	-10.250000	25.903450	0.000644	20.770930
1608.490599	-3.000200	3.404200	-10.212000	25.960437	0.000645	20.778869
1609.488479	-2.977000	3.403800	-10.133000	25.945806	0.000640	20.768911
1610.487019	-2.970000	3.403100	-10.107000	25.926927	0.000642	20.776024
1611.491140	-2.987200	3.404000	-10.167000	25.961037	0.000642	20.761927
1612.488748	-2.986600	3.403800	-10.165000	25.978224	0.000641	20.780618
1613.486842	-2.986900	3.403300	-10.165000	25.966425	0.000641	20.767341
1614.489623	-2.999100	3.402000	-10.202000	25.927030	0.000642	20.764747
1615.488918	-3.008000	3.400900	-10.230000	25.892251	0.000640	20.776275
1616.488724	-2.997700	3.400600	-10.194000	25.852506	0.000639	20.768591
1617.488304	-3.003000	3.401600	-10.214000	25.790024	0.000639	20.773157
1618.488181	-2.983600	3.400700	-10.145000	25.791093	0.000639	20.765221
1619.492189	-3.009000	3.399900	-10.229000	25.823366	0.000637	20.775829
1620.489534	-3.010700	3.399900	-10.235000	25.855263	0.000637	20.764722
1621.490511	-2.998900	3.398600	-10.192000	25.861846	0.000637	20.760904
1622.488200	-3.005300	3.398200	-10.211000	25.854394	0.000637	20.759582
1623.487779	-2.979700	3.398800	-10.126000	25.846667	0.000637	20.768889
1624.490541	-2.995400	3.398900	-10.180000	25.840753	0.000637	20.764370
1625.489916	-2.994600	3.398100	-10.175000	25.850221	0.000635	20.773408
1626.489977	-3.000300	3.397900	-10.194000	25.913862	0.000634	20.763846
1627.498676	-3.004600	3.396900	-10.205000	25.936989	0.000634	20.756734
1628.491016	-3.015500	3.397400	-10.243000	25.985225	0.000634	20.753512
1629.491681	-2.964500	3.397400	-10.069000	25.977652	0.000633	20.754438
1630.496113	-3.021800	3.395200	-10.258000	25.971889	0.000635	20.751967
1631.492995	-3.022000	3.394700	-10.257000	25.953279	0.000632	20.768359
1632.491976	-3.010700	3.394800	-10.220000	25.995555	0.000631	20.761994
1633.491098	-3.009200	3.395100	-10.215000	25.957355	0.000632	20.745426
1634.492323	-2.991000	3.393500	-10.149000	25.968429	0.000632	20.746120
1635.492643	-2.986000	3.394200	-10.134000	25.936139	0.000630	20.779114
1636.492133	-3.029900	3.392200	-10.276000	25.908192	0.000632	20.754357
1637.493706	-3.001600	3.393200	-10.184000	25.927071	0.000630	20.753408
1638.491515	-2.986400	3.393400	-10.133000	25.960406	0.000631	20.776467
1639.492338	-3.000600	3.394000	-10.183000	25.985291	0.000629	20.753104
1640.494945	-3.004500	3.392400	-10.192000	25.987998	0.000630	20.744443
1641.494906	-2.993800	3.393200	-10.157000	25.991177	0.000629	20.735782
1642.493158	-2.999900	3.390700	-10.171000	25.959981	0.000630	20.760866
1643.498485	-2.983800	3.391800	-10.119000	25.973114	0.000628	20.756517
1644.496592	-3.004900	3.390500	-10.187000	25.974680	0.000628	20.756194
1645.492834	-2.997000	3.390300	-10.160000	26.020706	0.000625	20.746010
1646.497681	-2.999300	3.390300	-10.168000	26.053097	0.000625	20.769546
1647.497269	-3.003100	3.389500	-10.178000	26.100609	0.000626	20.744264
1648.494139	-3.008000	3.390100	-10.197000	26.114291	0.000626	20.771289
1649.495183	-2.967700	3.390300	-10.060000	26.143945	0.000624	20.748928
1650.494387	-2.993100	3.389900	-10.145000	26.123804	0.000624	20.742440
1651.493029	-2.979200	3.388800	-10.095000	26.109472	0.000622	20.744161
1652.495310	-3.007000	3.387100	-10.184000	26.081405	0.000623	20.736822
1653.496156	-2.997300	3.388000	-10.154000	26.042480	0.000623	20.747025
1654.494120	-2.983500	3.388000	-10.107000	26.039749	0.000622	20.748548
1655.496655	-3.000500	3.386200	-10.159000	26.073902	0.000624	20.752991
1656.498775	-3.005900	3.387600	-10.182000	26.081080	0.000623	20.754988
1657.496815	-3.009900	3.386100	-10.190000	26.068164	0.000620	20.750071
1658.495636	-3.001000	3.385300	-10.158000	26.026807	0.000621	20.770159
1659.499342	-2.988100	3.385700	-10.115000	26.006785	0.000621	20.742930
1660.496383	-3.007400	3.384600	-10.177000	26.006414	0.000619	20.765316
1661.496102	-3.023600	3.383700	-10.230000	26.009242	0.000618	20.759149
1662.499088	-3.009900	3.383900	-10.184000	25.997072	0.000618	20.760672
1663.496150	-2.996400	3.385400	-10.142000	25.974293	0.000617	20.745373
1664.497854	-2.976600	3.384200	-10.072000	25.970318	0.000619	20.741379
1665.495111	-2.999000	3.382700	-10.144000	25.971883	0.000616	20.739633
1666.499667	-3.009700	3.382100	-10.179000	25.977422	0.000616	20.728127
1667.497462	-2.996400	3.382900	-10.136000	26.003604	0.000615	20.721240
1668.496759	-3.001600	3.383100	-10.153000	26.026279	0.000615	20.732169
1669.496803	-3.005600	3.382500	-10.165000	26.069595	0.000616	20.726852
1670.500029	-2.980900	3.381300	-10.078000	26.100916	0.000613	20.730821
1671.499475	-3.014600	3.381900	-10.194000	26.137126	0.000616	20.752508
1672.496183	-3.002000	3.380100	-10.145000	26.146464	0.000614	20.743398
1673.499799	-3.001800	3.380000	-10.145000	26.125010	0.000613	20.762145
1674.497586	-2.993600	3.379700	-10.116000	26.111623	0.000613	20.749167
1675.496291	-2.979500	3.380600	-10.072000	26.137995	0.000613	20.749588
1676.503431	-3.007100	3.380100	-10.164000	26.137030	0.000614	20.734392
1677.500780	-3.004700	3.378300	-10.150000	26.128561	0.000612	20.755281
1678.503117	-3.029100	3.379100	-10.233000	26.122870	0.000611	20.756201
1679.499362	-3.027400	3.377900	-10.225000	26.152723	0.000611	20.755378
1680.501078	-3.010900	3.377800	-10.169000	26.130445	0.000610	20.759071
1681.504615	-2.972200	3.379400	-10.043000	26.137820	0.000609	20.742299
1682.500741	-2.989400	3.378800	-10.100000	26.164098	0.000610	20.752109
1683.500059	-2.989800	3.378000	-10.098000	26.174951	0.000610	20.754006
1684.501494	-3.003400	3.377900	-10.144000	26.137476	0.000607	20.741954
1685.499999	-3.018100	3.375500	-10.185000	26.146120	0.000609	20.758700
1686.502340	-3.010000	3.376400	-10.161000	26.131767	0.000606	20.752812
1687.502295	-3.003700	3.377400	-10.144000	26.135020	0.000607	20.746598
1688.503853	-3.003600	3.375500	-10.137000	26.158989	0.000606	20.742707
1689.505431	-3.002500	3.375400	-10.132000	26.173123	0.000606	20.766393
1690.503797	-3.016300	3.374600	-10.176000	26.166045	0.000604	20.746478
1691.502532	-3.000600	3.376000	-10.128000	26.135845	0.000606	20.765445
1692.503335	-2.991700	3.375700	-10.098000	26.101250	0.000606	20.738744
1693.503170	-2.995700	3.375900	-10.112000	26.090196	0.000603	20.753716
1694.503618	-2.984900	3.374400	-10.070000	26.096206	0.000605	20.746004
1695.503532	-2.998700	3.375000	-10.119000	26.083096	0.000603	20.761755
1696.506111	-2.996600	3.374900	-10.111000	26.080761	0.000606	20.766048
1697.502639	-3.007300	3.372000	-10.139000	26.057641	0.000603	20.767473
1698.507520	-3.002400	3.372400	-10.124000	26.045968	0.000601	20.770918
1699.503036	-3.018400	3.371300	-10.175000	26.034814	0.000601	20.755918
1700.502714	-2.995600	3.371900	-10.100000	26.056500	0.000603	20.755421
1701.506923	-2.988600	3.372500	-10.078000	26.010598	0.000602	20.757192
1702.506109	-2.985400	3.371400	-10.064000	26.017805	0.000599	20.773917
1703.502578	-2.982100	3.371300	-10.052000	26.008788	0.000598	20.765332
1704.508696	-2.984300	3.370300	-10.057000	25.994855	0.000597	20.757971
1705.503316	-3.024600	3.370500	-10.193000	25.954392	0.000598	20.759519
1706.503646	-3.021200	3.368700	-10.176000	25.935911	0.000597	20.757073
1707.503311	-2.997500	3.368200	-10.095000	25.908489	0.000597	20.761767
1708.504173	-3.000300	3.369100	-10.107000	25.898727	0.000596	20.768556
1709.506691	-3.017900	3.367200	-10.161000	25.901756	0.000596	20.779186
1710.505411	-2.995300	3.368700	-10.089000	25.913159	0.000596	20.762666
1711.509230	-2.988500	3.368000	-10.064000	25.942446	0.000596	20.753681
1712.509225	-2.972600	3.368300	-10.011000	25.988126	0.000593	20.773496
1713.504643	-2.996600	3.366600	-10.088000	25.982538	0.000594	20.773571
1714.509859	-2.994100	3.367900	-10.082000	25.954320	0.000593	20.756128
1715.510484	-3.000100	3.368000	-10.104000	25.948704	0.000593	20.781306
1716.506457	-3.002200	3.366100	-10.105000	25.977149	0.000594	20.767684
1717.509256	-2.995700	3.366500	-10.083000	26.026725	0.000591	20.764386
1718.509886	-3.006500	3.365500	-10.117000	26.070838	0.000591	20.764612
1719.506032	-2.983700	3.364600	-10.037000	26.087380	0.000591	20.771276
1720.509189	-2.981600	3.366200	-10.035000	26.086214	0.000592	20.763466
1721.507204	-3.003000	3.363700	-10.100000	26.115744	0.000590	20.758049
1722.507655	-3.000500	3.364200	-10.093000	26.157169	0.000590	20.785925
1723.507735	-3.001600	3.365800	-10.102000	26.159057	0.000590	20.778812
1724.511544	-3.007300	3.363300	-10.114000	26.123594	0.000589	20.777792
1725.516535	-2.986000	3.365300	-10.048000	26.083633	0.000589	20.779839
1726.507831	-2.979700	3.363600	-10.020000	26.046649	0.000589	20.795310
1727.511156	-2.985200	3.363300	-10.039000	26.047196	0.000588	20.785903
1728.511292	-3.013300	3.361500	-10.128000	26.071110	0.000587	20.774369
1729.512914	-2.999000	3.363200	-10.086000	26.097665	0.000587	20.770704
1730.512039	-2.998800	3.361900	-10.081000	26.107894	0.000588	20.786672
1731.513699	-2.990900	3.362000	-10.055000	26.141276	0.000585	20.766161
1732.510816	-3.001600	3.360900	-10.086000	26.177363	0.000585	20.764964
1733.514000	-2.984700	3.360200	-10.028000	26.159951	0.000586	20.789668
1734.513740	-3.007900	3.361000	-10.108000	26.127219	0.000585	20.788072
1735.510825	-2.982000	3.359900	-10.018000	26.112169	0.000583	20.802821
1736.511902	-2.989400	3.359500	-10.041000	26.122797	0.000581	20.788845
1737.512921	-2.990300	3.358400	-10.042000	26.116416	0.000582	20.797132
1738.513864	-2.987500	3.358600	-10.034000	26.168869	0.000583	20.796733
1739.512460	-3.004600	3.358500	-10.090000	26.151851	0.000582	20.792434
1740.513157	-3.009100	3.357200	-10.101000	26.181135	0.000583	20.778712
1741.513021	-3.009600	3.357400	-10.103000	26.221739	0.000580	20.773995
1742.513298	-2.991500	3.358400	-10.046000	26.202318	0.000580	20.779610
1743.516634	-3.012800	3.354800	-10.106000	26.199365	0.000581	20.773797
1744.517731	-2.989800	3.357100	-10.035000	26.150116	0.000579	20.794010
1745.516915	-3.003300	3.356700	-10.079000	26.126422	0.000578	20.775892
1746.515822	-2.996000	3.356200	-10.055000	26.092471	0.000578	20.798202
1747.515717	-2.988900	3.356600	-10.032000	26.140801	0.000579	20.786072
1748.515731	-2.992500	3.355400	-10.041000	26.147635	0.000577	20.772551
1749.515532	-2.993000	3.354600	-10.039000	26.190994	0.000578	20.785774
1750.515506	-2.954300	3.355600	-9.911700	26.231648	0.000577	20.795807
1751.519578	-2.997300	3.355800	-10.058000	26.254868	0.000578	20.800649
1752.516900	-2.978700	3.354800	-9.992200	26.285708	0.000576	20.794657
1753.520318	-2.995100	3.353100	-10.042000	26.272300	0.000576	20.798727
1754.517068	-3.001600	3.353600	-10.065000	26.279352	0.000574	20.784477
1755.515832	-2.965300	3.355100	-9.948200	26.295444	0.000574	20.804916
1756.517614	-2.990900	3.352300	-10.025000	26.279674	0.000575	20.788120
1757.520975	-2.991200	3.352800	-10.028000	26.283502	0.000572	20.779638
1758.515444	-2.969500	3.352900	-9.954600	26.246375	0.000574	20.803493
1759.517947	-2.992700	3.352600	-10.033000	26.254546	0.000571	20.793213
1760.517784	-2.988800	3.352000	-10.017000	26.270388	0.000571	20.797753
1761.518619	-2.995900	3.352800	-10.043000	26.219802	0.000571	20.802869
1762.521122	-3.001300	3.350000	-10.053000	26.149469	0.000570	20.804740
1763.519786	-2.968200	3.350700	-9.944800	26.122325	0.000570	20.795957
1764.519105	-2.998400	3.350700	-10.046000	26.116613	0.000569	20.792114
1765.519518	-2.986400	3.350800	-10.006000	26.110653	0.000568	20.803195
1766.521535	-3.002200	3.348600	-10.053000	26.149719	0.000567	20.796931
1767.519915	-3.007200	3.349200	-10.071000	26.162607	0.000567	20.810829
1768.519399	-3.010400	3.349800	-10.083000	26.167454	0.000567	20.802423
1769.524503	-2.999700	3.348300	-10.043000	26.148926	0.000567	20.798978
1770.522766	-2.982000	3.349100	-9.985600	26.164351	0.000566	20.810684
1771.520802	-2.978200	3.348700	-9.972800	26.208902	0.000567	20.798554
1772.523599	-2.984600	3.348100	-9.990600	26.240891	0.000566	20.810785
1773.522089	-2.997100	3.346600	-10.029000	26.260929	0.000563	20.799154
1774.522421	-2.995900	3.346000	-10.023000	26.286480	0.000565	20.799226
1775.526368	-3.013400	3.347000	-10.085000	26.327405	0.000564	20.815699
1776.524498	-3.008500	3.346200	-10.066000	26.308583	0.000563	20.801525
1777.522254	-3.015100	3.345200	-10.085000	26.287648	0.000564	20.830272
1778.529142	-3.032400	3.344800	-10.141000	26.243868	0.000562	20.818044
1779.522747	-2.976900	3.345400	-9.958100	26.206693	0.000562	20.827154
1780.522938	-2.991200	3.344200	-10.002000	26.160076	0.000561	20.813501
1781.523828	-2.986800	3.345400	-9.991400	26.154857	0.000561	20.823904
1782.526960	-2.993500	3.344700	-10.011000	26.161241	0.000560	20.811353
1783.528303	-2.991400	3.344500	-10.004000	26.177235	0.000561	20.814622
1784.523811	-3.016600	3.344300	-10.086000	26.167004	0.000560	20.824255
1785.528086	-3.009500	3.345000	-10.066000	26.143038	0.000558	20.798752
1786.527330	-3.028500	3.343500	-10.125000	26.109234	0.000559	20.827374
1787.524823	-3.007000	3.342100	-10.047000	26.078317	0.000558	20.828077
1788.525941	-3.007900	3.343200	-10.056000	26.073098	0.000559	20.823781
1789.527342	-2.986600	3.343700	-9.984500	26.093712	0.000556	20.836907
1790.523718	-3.004200	3.340500	-10.034000	26.128982	0.000555	20.815922
1791.524980	-2.978600	3.342300	-9.954200	26.135810	0.000558	20.818041
1792.526388	-2.983600	3.341000	-9.966200	26.125032	0.000555	20.823332
1793.525327	-2.993800	3.340800	-10.001000	26.172488	0.000555	20.821232
1794.526528	-3.010100	3.339900	-10.053000	26.212974	0.000553	20.817818
1795.526304	-3.017300	3.339100	-10.074000	26.200678	0.000557	20.829644
1796.533695	-3.006700	3.337900	-10.036000	26.200334	0.000554	20.831669
1797.526575	-3.004000	3.338300	-10.027000	26.253302	0.000554	20.837007
1798.527427	-3.013200	3.338500	-10.058000	26.261595	0.000553	20.842496
1799.529919	-2.997200	3.336800	-9.999800	26.288042	0.000552	20.821659
1800.529289	-2.973800	3.338300	-9.926700	26.309695	0.000553	20.827772
1801.529122	-2.996400	3.337600	-9.998400	26.318806	0.000553	20.823179
1802.529546	-3.001300	3.336800	-10.013000	26.339790	0.000550	20.821034
1803.532960	-3.023600	3.336500	-10.087000	26.369785	0.000550	20.822255
1804.529562	-2.990600	3.336300	-9.976200	26.354441	0.000550	20.822956
1805.531971	-2.994200	3.337000	-9.990000	26.358859	0.000549	20.822180
1806.533893	-2.993500	3.337000	-9.987700	26.333382	0.000549	20.809378
1807.538368	-3.012900	3.334500	-10.045000	26.343662	0.000547	20.846261
1808.528977	-2.986200	3.335600	-9.959800	26.357415	0.000547	20.844436
1809.537658	-2.967300	3.335700	-9.896800	26.418324	0.000547	20.822676
1810.529843	-3.025400	3.333600	-10.083000	26.445688	0.000547	20.832636
1811.530919	-3.016200	3.332900	-10.052000	26.432255	0.000546	20.843315
1812.532454	-2.990200	3.334900	-9.971000	26.479728	0.000546	20.829393
1813.532046	-2.962000	3.335400	-9.878400	26.482087	0.000545	20.828444
1814.531790	-2.986800	3.333600	-9.956000	26.493306	0.000546	20.834030
1815.530647	-2.986300	3.333100	-9.953100	26.460831	0.000544	20.847382
1816.532444	-2.979100	3.333000	-9.928400	26.475258	0.000542	20.854770
1817.538948	-3.011000	3.331600	-10.030000	26.435654	0.000543	20.852421
1818.531672	-2.985300	3.333300	-9.949600	26.367348	0.000543	20.858685
1819.531124	-2.990600	3.331200	-9.961800	26.320266	0.000544	20.829387
1820.533226	-3.014300	3.331100	-10.038000	26.269807	0.000542	20.836998
1821.529890	-3.016400	3.331500	-10.048000	26.221583	0.000542	20.841642
1822.531038	-3.001400	3.330800	-9.996700	26.231885	0.000541	20.850572
1823.530460	-2.980300	3.330800	-9.926200	26.266604	0.000539	20.852271
1824.531878	-2.999200	3.330000	-9.985900	26.297644	0.000540	20.850274
1825.530690	-2.999300	3.331300	-9.990800	26.310433	0.000539	20.866444
1826.531651	-3.007800	3.328200	-10.010000	26.340528	0.000538	20.857809
1827.533099	-2.994900	3.328600	-9.968200	26.361683	0.000538	20.827389
1828.530946	-3.001300	3.328700	-9.989400	26.331736	0.000537	20.851344
1829.529522	-2.998800	3.328500	-9.980300	26.329849	0.000537	20.847077
1830.531019	-3.013700	3.327200	-10.026000	26.322522	0.000536	20.843033
1831.532309	-2.997600	3.327700	-9.973700	26.352816	0.000535	20.875374
1832.532439	-2.985800	3.328300	-9.936800	26.391699	0.000535	20.856607
1833.535971	-2.995100	3.327200	-9.964100	26.387131	0.000536	20.837318
1834.533613	-3.036600	3.325400	-10.097000	26.402972	0.000535	20.857505
1835.532662	-3.006300	3.326200	-9.998700	26.422014	0.000534	20.847721
1836.534605	-3.008100	3.326000	-10.004000	26.425541	0.000534	20.852688
1837.535227	-3.011900	3.325600	-10.016000	26.451659	0.000534	20.865663
1838.533092	-2.991100	3.325200	-9.944800	26.457692	0.000535	20.857976
1839.534104	-2.996700	3.325100	-9.962300	26.491157	0.000534	20.858422
1840.536500	-2.996100	3.323600	-9.956600	26.498529	0.000531	20.871522
1841.536317	-2.996400	3.324200	-9.960100	26.518117	0.000532	20.850434
1842.537685	-3.005300	3.323300	-9.986700	26.544235	0.000531	20.854877
1843.541615	-3.001000	3.323900	-9.973900	26.573106	0.000532	20.858768
1844.539111	-3.030900	3.323500	-10.071000	26.523275	0.000531	20.854196
1845.538784	-2.999700	3.324300	-9.970000	26.484297	0.000529	20.866225
1846.540915	-2.974100	3.323100	-9.881100	26.415222	0.000530	20.853697
1847.542925	-2.996100	3.322600	-9.953900	26.407724	0.000528	20.879824
1848.539731	-2.991800	3.323000	-9.940600	26.400276	0.000528	20.873761
1849.545073	-2.987300	3.321300	-9.920700	26.388254	0.000528	20.852670
1850.539600	-2.992200	3.321000	-9.935200	26.379337	0.000527	20.873105
1851.543789	-2.988800	3.321500	-9.926600	26.372113	0.000528	20.879121
1852.544535	-3.003300	3.321800	-9.974700	26.373276	0.000526	20.880763
1853.543249	-3.026200	3.318600	-10.042000	26.402104	0.000526	20.874176
1854.542790	-2.994900	3.321600	-9.945700	26.403444	0.000524	20.874575
1855.546387	-3.004300	3.319100	-9.969600	26.384942	0.000525	20.869730
1856.542980	-3.020900	3.319700	-10.027000	26.407937	0.000524	20.874349
1857.541811	-2.997100	3.318100	-9.944300	26.452029	0.000524	20.867931
1858.542743	-3.012700	3.318200	-9.995800	26.467621	0.000522	20.852310
1859.542756	-2.976000	3.319100	-9.876600	26.477453	0.000524	20.860769
1860.544451	-2.979900	3.318900	-9.889600	26.497237	0.000522	20.871646
1861.543877	-2.999900	3.317400	-9.951500	26.464541	0.000522	20.887144
1862.544080	-3.009900	3.316300	-9.979500	26.417860	0.000519	20.877684
1863.544354	-2.977600	3.317600	-9.876900	26.404329	0.000520	20.869774
1864.544618	-3.003100	3.316200	-9.956800	26.355214	0.000517	20.873043
1865.548410	-3.020100	3.316000	-10.014000	26.318833	0.000519	20.875834
1866.544910	-2.991900	3.317200	-9.923000	26.297602	0.000517	20.862085
1867.544503	-2.981100	3.316800	-9.886300	26.280195	0.000516	20.875410
1868.543798	-2.994400	3.314900	-9.925300	26.261694	0.000518	20.882896
1869.546909	-2.994300	3.313400	-9.920400	26.283720	0.000516	20.889383
1870.544386	-2.990300	3.316000	-9.914600	26.270953	0.000515	20.884140
1871.544944	-2.997600	3.314700	-9.935000	26.282851	0.000516	20.890881
1872.545917	-3.005700	3.315100	-9.963400	26.304754	0.000514	20.878280
1873.544728	-2.972600	3.313700	-9.849200	26.397222	0.000515	20.881122
1874.544448	-2.973600	3.314400	-9.854100	26.418973	0.000513	20.888284
1875.550714	-3.016500	3.310700	-9.985600	26.435906	0.000512	20.887286
1876.546709	-2.966100	3.313400	-9.826200	26.416117	0.000515	20.879725
1877.545514	-2.976300	3.311600	-9.855200	26.391560	0.000513	20.884441
1878.551098	-3.028600	3.310100	-10.024000	26.364344	0.000513	20.888856
1879.549598	-3.025900	3.311800	-10.020000	26.368815	0.000511	20.905201
1880.546163	-2.996700	3.310600	-9.919500	26.415989	0.000511	20.882915
1881.546544	-3.002600	3.310400	-9.938900	26.447846	0.000511	20.898812
1882.547028	-2.984500	3.311400	-9.881300	26.477963	0.000509	20.896366
1883.545312	-3.005100	3.310600	-9.947400	26.518306	0.000508	20.908941
1884.547748	-2.980200	3.310000	-9.862700	26.577143	0.000508	20.895540
1885.548572	-3.012400	3.308100	-9.963900	26.590279	0.000508	20.877452
1886.547504	-3.011300	3.308000	-9.959600	26.559591	0.000506	20.888328
1887.549223	-2.990300	3.308700	-9.892700	26.562024	0.000507	20.877499
1888.551657	-2.990700	3.309600	-9.897100	26.585884	0.000507	20.904326
1889.550014	-2.994500	3.308200	-9.905000	26.620191	0.000506	20.894244
1890.549223	-2.998300	3.308600	-9.918300	26.650946	0.000505	20.883911
1891.550919	-2.982800	3.308500	-9.867400	26.625301	0.000503	20.891795
1892.549281	-2.976400	3.307800	-9.844100	26.596604	0.000504	20.901352
1893.551850	-3.000400	3.307600	-9.922100	26.590744	0.000504	20.895936
1894.551438	-3.018200	3.306400	-9.977700	26.582451	0.000504	20.872902
1895.553543	-3.014600	3.306800	-9.967900	26.578506	0.000503	20.900703
1896.560681	-2.979100	3.307300	-9.851300	26.560335	0.000502	20.899980
1897.555039	-2.989100	3.306300	-9.881500	26.539555	0.000503	20.890947
1898.556417	-2.986700	3.304200	-9.867700	26.584762	0.000500	20.898458
1899.561408	-2.990700	3.304700	-9.882600	26.578256	0.000501	20.881487
1900.555899	-3.014000	3.303900	-9.957000	26.608119	0.000502	20.876893
1901.559941	-3.008700	3.303600	-9.937900	26.583048	0.000500	20.889622
1902.559091	-3.013400	3.302700	-9.951800	26.627857	0.000499	20.881088
1903.557575	-3.030600	3.301900	-10.006000	26.641932	0.000499	20.872004
1904.558825	-3.001200	3.303900	-9.914700	26.662560	0.000500	20.878042
1905.561631	-2.993500	3.303200	-9.886600	26.669981	0.000498	20.867486
1906.559171	-3.012700	3.301400	-9.944300	26.692967	0.000498	20.868783
1907.560308	-2.985200	3.302800	-9.858700	26.680751	0.000500	20.871675
1908.560876	-2.989000	3.301300	-9.865800	26.710814	0.000497	20.860173
1909.561799	-3.000000	3.300900	-9.901900	26.702621	0.000496	20.865687
1910.560800	-3.001100	3.299700	-9.901400	26.723719	0.000495	20.859398
1911.562617	-3.006000	3.300200	-9.919300	26.693263	0.000495	20.863392
1912.563252	-2.973800	3.301300	-9.816100	26.695572	0.000494	20.870928
1913.563380	-2.993000	3.300100	-9.876200	26.675119	0.000495	20.866962
1914.565412	-2.995700	3.299200	-9.881700	26.666033	0.000496	20.857354
1915.565204	-2.984700	3.299900	-9.847900	26.678096	0.000495	20.875170
1916.564497	-3.005300	3.298100	-9.910500	26.664543	0.000493	20.868658
1917.564548	-2.997700	3.299300	-9.888800	26.692070	0.000492	20.863615
1918.566889	-3.032200	3.296100	-9.991500	26.720790	0.000492	20.853608
1919.567475	-3.002900	3.297800	-9.901600	26.702599	0.000491	20.868510
1920.566249	-2.988800	3.298000	-9.855600	26.721214	0.000491	20.839337
1921.572195	-3.013100	3.296800	-9.932200	26.656622	0.000492	20.851212
1922.565741	-3.001600	3.296000	-9.892200	26.658683	0.000493	20.852810
1923.564956	-3.007200	3.294900	-9.907500	26.654691	0.000489	20.854961
1924.567789	-3.010400	3.295300	-9.919600	26.647589	0.000489	20.858252
1925.567153	-2.996000	3.295800	-9.873500	26.609980	0.000487	20.858852
1926.567107	-3.020100	3.294800	-9.949000	26.551988	0.000487	20.855084
1927.567272	-2.999900	3.294600	-9.882300	26.492106	0.000489	20.847523
1928.567001	-3.002200	3.294100	-9.888400	26.491434	0.000487	20.854908
1929.567848	-3.000500	3.295500	-9.887300	26.518547	0.000486	20.848022
1930.566958	-3.021400	3.292700	-9.948000	26.534235	0.000487	20.837239
1931.566679	-3.012100	3.293700	-9.919900	26.570134	0.000485	20.829229
1932.568232	-3.005100	3.293700	-9.896500	26.596102	0.000486	20.835892
1933.568108	-2.998100	3.293300	-9.872900	26.595087	0.000484	20.863320
1934.567843	-3.021400	3.292100	-9.945600	26.596552	0.000483	20.842034
1935.570768	-2.984100	3.293500	-9.827800	26.637015	0.000483	20.864692
1936.568515	-2.998600	3.291400	-9.868200	26.665265	0.000483	20.843306
1937.569515	-2.978200	3.292400	-9.803500	26.712181	0.000483	20.846376
1938.571907	-2.994100	3.290900	-9.852500	26.708134	0.000479	20.841359
1939.572026	-3.005600	3.290700	-9.889400	26.705975	0.000480	20.831129
1940.569597	-2.982200	3.292300	-9.816200	26.679935	0.000477	20.827235
1941.570072	-2.995800	3.290100	-9.855100	26.670974	0.000480	20.843830
1942.573310	-2.997100	3.290800	-9.861300	26.665187	0.000478	20.843227
1943.569784	-2.997600	3.289000	-9.858900	26.725115	0.000477	20.834724
1944.572382	-2.995800	3.289600	-9.853700	26.749636	0.000480	20.822867
1945.576759	-3.001300	3.287600	-9.866400	26.757404	0.000478	20.845375
1946.573834	-2.998600	3.289200	-9.861900	26.722382	0.000478	20.852364
1947.572236	-2.996400	3.286600	-9.847300	26.676659	0.000477	20.839588
1948.575465	-2.999900	3.286500	-9.858000	26.643219	0.000477	20.842480
1949.571378	-3.001900	3.287000	-9.866400	26.633389	0.000474	20.827857
1950.572930	-2.983100	3.287000	-9.804300	26.681994	0.000473	20.828830
1951.575318	-3.001800	3.286900	-9.865200	26.660870	0.000473	20.833198
1952.577826	-2.986200	3.286200	-9.812200	26.650194	0.000473	20.844276
1953.573691	-2.970700	3.288100	-9.766900	26.590095	0.000472	20.828906
1954.581702	-2.995800	3.284900	-9.839600	26.594590	0.000473	20.822519
1955.576371	-2.982900	3.285900	-9.800200	26.632246	0.000469	20.844725
1956.573936	-3.009400	3.285000	-9.884400	26.651287	0.000470	20.820720
1957.579280	-2.986100	3.284900	-9.807900	26.635300	0.000469	20.826934
1958.574410	-3.005900	3.284300	-9.871200	26.655335	0.000470	20.831427
1959.574511	-3.010500	3.283500	-9.883500	26.677602	0.000468	20.831528
1960.575366	-3.002500	3.284200	-9.859900	26.710664	0.000468	20.840583
1961.574266	-3.018600	3.281700	-9.905300	26.693982	0.000466	20.827606
1962.580296	-3.032800	3.281900	-9.952300	26.721336	0.000468	20.829977
1963.575583	-2.992400	3.281700	-9.819600	26.704036	0.000465	20.845774
1964.578027	-2.992900	3.281300	-9.818800	26.676506	0.000468	20.816675
1965.576256	-3.004000	3.281700	-9.856700	26.701156	0.000465	20.837189
1966.577630	-3.015300	3.282100	-9.894200	26.737100	0.000463	20.814531
1967.578977	-2.989400	3.280500	-9.805900	26.776615	0.000464	20.834818
1968.576592	-3.002000	3.280700	-9.848200	26.754799	0.000464	20.827110
1969.578613	-2.984000	3.280400	-9.788000	26.721861	0.000462	20.824340
1970.580715	-3.008100	3.279300	-9.863100	26.706319	0.000463	20.820095
1971.580288	-2.998600	3.279500	-9.832500	26.685567	0.000461	20.812509
1972.581365	-3.010400	3.278400	-9.868100	26.704854	0.000460	20.812933
1973.588118	-2.999900	3.278700	-9.833800	26.692395	0.000461	20.821743
1974.583778	-3.009600	3.277900	-9.865200	26.703839	0.000461	20.829455
1975.583765	-3.001900	3.278000	-9.839300	26.689044	0.000460	20.803201
1976.584158	-2.996500	3.277900	-9.821600	26.693957	0.000457	20.807193
1977.583048	-3.037700	3.277000	-9.952700	26.663797	0.000458	20.811959
1978.586258	-3.033900	3.277800	-9.943300	26.690012	0.000458	20.802278
1979.583589	-3.014500	3.276900	-9.877700	26.697955	0.000457	20.811686
1980.586183	-3.002200	3.277600	-9.838200	26.704660	0.000456	20.801358
1981.589959	-3.021500	3.274200	-9.891800	26.694185	0.000457	20.804102
1982.582722	-3.015100	3.275800	-9.875300	26.690858	0.000455	20.806448
1983.585902	-2.996900	3.276600	-9.818800	26.719606	0.000455	20.819228
1984.584352	-2.979700	3.274200	-9.754400	26.757928	0.000452	20.824092
1985.582807	-3.007100	3.275000	-9.847500	26.804267	0.000452	20.816628
1986.587007	-3.016000	3.273100	-9.868600	26.830282	0.000453	20.823819
1987.586725	-3.005400	3.272600	-9.833900	26.878531	0.000452	20.806426
1988.587827	-3.006300	3.273200	-9.838400	26.889627	0.000449	20.834652
1989.585664	-2.983400	3.274900	-9.770000	26.914893	0.000450	20.825445
1990.582861	-2.976100	3.272700	-9.739100	26.919012	0.000450	20.820104
1991.582576	-3.038700	3.271400	-9.939200	26.909606	0.000447	20.796896
1992.586160	-2.981700	3.272500	-9.756700	26.928543	0.000448	20.833006
1993.583961	-2.978800	3.271100	-9.742300	26.945970	0.000450	20.816866
1994.582972	-2.983700	3.270400	-9.755600	26.956859	0.000447	20.827341
1995.587202	-2.997400	3.271000	-9.803200	26.978848	0.000446	20.801091
1996.586889	-2.990100	3.269600	-9.775500	26.999176	0.000445	20.803515
1997.586859	-3.023800	3.270300	-9.888000	27.000341	0.000445	20.832186
1998.587366	-2.987100	3.271700	-9.771000	26.989000	0.000443	20.811773
1999.590362	-2.979700	3.271300	-9.746600	26.972125	0.000443	20.793382
2000.587293	-2.994600	3.268600	-9.787100	26.925542	0.000443	20.806755
2001.587423	-2.981300	3.269000	-9.744400	26.925270	0.000440	20.804111
2002.591564	-2.987700	3.269100	-9.765900	26.920607	0.000441	20.796578
2003.587964	-2.976500	3.267400	-9.724500	26.943019	0.000442	20.809631
2004.588628	-2.998200	3.267400	-9.794700	26.932046	0.000440	20.809029
2005.593755	-3.003500	3.267500	-9.812300	26.945620	0.000438	20.808454
2006.588102	-3.012800	3.266500	-9.840600	26.961677	0.000437	20.822229
2007.590024	-2.987000	3.266800	-9.757200	27.000812	0.000439	20.800893
2008.591955	-2.994700	3.264800	-9.776400	26.994955	0.000436	20.797847
2009.590212	-3.006000	3.264200	-9.809800	26.994658	0.000435	20.791859
2010.589303	-2.997800	3.265100	-9.786000	26.995154	0.000434	20.814169
2011.593917	-3.026500	3.265300	-9.880800	26.962423	0.000437	20.801169
2012.591007	-3.012300	3.264500	-9.832600	26.935419	0.000434	20.802937
2013.593087	-2.990800	3.264800	-9.763800	26.863026	0.000435	20.808853
2014.593102	-2.983900	3.265200	-9.742100	26.835475	0.000432	20.804859
2015.590881	-3.003000	3.264100	-9.800800	26.826637	0.000429	20.786489
2016.590895	-3.015700	3.263600	-9.841200	26.849172	0.000432	20.800139
2017.589756	-3.006100	3.261500	-9.803100	26.897593	0.000430	20.805679
2018.591241	-3.001300	3.263100	-9.792800	26.931915	0.000430	20.778077
2019.594470	-3.008200	3.261000	-9.808900	26.900841	0.000429	20.789504
2020.590845	-2.996400	3.262100	-9.772700	26.923031	0.000429	20.786687
2021.590409	-3.009200	3.261300	-9.812700	26.948141	0.000428	20.791074
2022.592041	-3.002700	3.260800	-9.789100	26.959832	0.000426	20.801882
2023.592405	-2.977100	3.261000	-9.707000	27.004301	0.000425	20.791599
2024.592350	-2.994500	3.260500	-9.762400	26.971764	0.000424	20.779742
2025.594364	-2.987400	3.261600	-9.741000	26.966652	0.000425	20.789300
2026.595598	-3.000900	3.259300	-9.779600	26.982137	0.000426	20.763146
2027.599382	-2.994400	3.259600	-9.759900	26.999408	0.000424	20.787153
2028.594936	-2.994500	3.259100	-9.758600	26.939176	0.000423	20.801026
2029.596083	-3.001200	3.258500	-9.777500	26.921979	0.000424	20.808389
2030.598538	-3.001100	3.259300	-9.780100	26.907830	0.000421	20.778040
2031.596319	-3.004100	3.257900	-9.786400	26.880802	0.000421	20.798278
2032.596220	-2.991900	3.257500	-9.745400	26.846553	0.000420	20.790868
2033.601036	-3.015000	3.257200	-9.819400	26.869385	0.000420	20.805764
2034.597005	-3.000800	3.255600	-9.769000	26.868217	0.000418	20.785624
2035.596100	-3.009600	3.255400	-9.796700	26.856104	0.000418	20.792884
2036.599864	-3.002000	3.256700	-9.776200	26.895268	0.000419	20.791961
2037.599838	-3.014000	3.255200	-9.810700	26.932816	0.000419	20.780879
2038.596816	-2.997200	3.256600	-9.760400	26.942618	0.000416	20.794529
2039.598202	-3.009900	3.255700	-9.797800	26.962097	0.000418	20.779504
2040.597258	-3.026400	3.253300	-9.845200	27.001954	0.000416	20.784497
2041.597660	-3.018600	3.254400	-9.821500	27.021582	0.000416	20.794278
2042.597667	-2.987300	3.255400	-9.724200	27.040167	0.000417	20.806330
2043.597581	-3.014500	3.253300	-9.806500	27.068930	0.000416	20.781677
2044.598824	-3.005100	3.252600	-9.772800	27.088182	0.000414	20.802461
2045.598878	-3.008400	3.252800	-9.784600	27.113419	0.000413	20.775686
2046.604009	-2.995400	3.251900	-9.739800	27.128974	0.000411	20.786114
2047.597878	-3.014500	3.252900	-9.804700	27.116494	0.000410	20.807702
2048.600555	-3.007000	3.252900	-9.780400	27.103216	0.000411	20.782020
2049.605680	-2.975200	3.251900	-9.673400	27.080489	0.000410	20.772439
2050.601257	-2.980700	3.252700	-9.693800	27.059891	0.000410	20.773061
2051.605216	-2.986300	3.250000	-9.704200	27.092250	0.000408	20.776207
2052.604778	-3.026100	3.249500	-9.832200	27.102076	0.000409	20.787986
2053.600679	-3.002200	3.250200	-9.756500	27.101677	0.000407	20.786636
2054.603069	-3.013100	3.247400	-9.783200	27.128874	0.000409	20.771789
2055.610653	-3.015600	3.246800	-9.789500	27.094158	0.000405	20.785713
2056.606204	-2.979300	3.248400	-9.677000	27.098973	0.000404	20.775381
2057.606981	-2.995300	3.249100	-9.731200	27.084854	0.000402	20.773984
2058.607493	-2.976500	3.248900	-9.670000	27.103837	0.000403	20.757040
2059.607112	-3.004000	3.247200	-9.753500	27.081132	0.000405	20.793475
2060.613013	-2.995300	3.246800	-9.724900	27.029242	0.000402	20.782541
2061.606274	-2.992700	3.246700	-9.715300	26.994997	0.000401	20.785562
2062.613850	-2.995700	3.244900	-9.718200	26.964302	0.000402	20.759910
2063.609019	-2.999700	3.245100	-9.733400	26.978548	0.000401	20.782770
2064.608874	-3.013800	3.245800	-9.781200	27.016365	0.000398	20.794247
2065.610320	-3.003300	3.244400	-9.741500	27.044729	0.000400	20.768718
2066.609925	-2.992700	3.245100	-9.709800	27.001770	0.000399	20.771510
2067.607343	-2.999500	3.244500	-9.730800	26.983188	0.000397	20.757564
2068.610533	-3.001700	3.243600	-9.735100	26.953926	0.000398	20.762752
2069.608874	-2.989200	3.242000	-9.689900	26.953504	0.000396	20.777975
2070.610193	-2.991800	3.242300	-9.699500	26.987132	0.000395	20.765798
2071.610520	-2.980100	3.242000	-9.660700	26.967722	0.000394	20.762874
2072.613001	-3.018300	3.241800	-9.781800	26.959806	0.000393	20.767717
2073.610575	-3.003800	3.241900	-9.736700	26.923698	0.000394	20.766021
2074.611013	-2.991500	3.242000	-9.697200	26.879917	0.000393	20.746178
2075.613142	-3.007800	3.239300	-9.740800	26.869565	0.000391	20.771331
2076.610742	-2.986300	3.240800	-9.676400	26.879370	0.000394	20.757009
2077.609751	-2.978600	3.240600	-9.651200	26.893861	0.000387	20.759725
2078.613327	-2.993300	3.239300	-9.694600	26.925778	0.000390	20.778070
2079.610675	-2.997700	3.240500	-9.712900	26.962804	0.000389	20.740859
2080.611063	-3.021700	3.237100	-9.780800	27.017895	0.000386	20.749319
2081.612175	-2.997400	3.237800	-9.703200	27.031047	0.000386	20.744052
2082.613280	-3.041800	3.235800	-9.840300	27.039506	0.000387	20.749715
2083.615306	-2.994100	3.236500	-9.689300	27.087075	0.000387	20.777640
2084.613976	-2.995600	3.236800	-9.695000	27.131663	0.000385	20.758947
2085.614730	-2.976600	3.237000	-9.634800	27.119059	0.000384	20.769504
2086.614446	-2.980500	3.236400	-9.644900	27.160096	0.000383	20.753405
2087.616142	-2.990200	3.236600	-9.676400	27.129528	0.000384	20.740677
2088.616089	-3.016400	3.235000	-9.757300	27.075088	0.000382	20.760844
2089.616637	-2.991100	3.237000	-9.681100	27.033446	0.000382	20.752629
2090.614730	-3.002300	3.234700	-9.709600	27.033942	0.000380	20.757870
2091.621063	-3.004600	3.233800	-9.715800	27.005877	0.000378	20.739603
2092.620115	-3.007600	3.232700	-9.722100	26.956763	0.000379	20.742844
2093.618192	-3.000600	3.234000	-9.701700	26.911646	0.000378	20.742047
2094.619671	-3.002500	3.232800	-9.705500	26.889755	0.000377	20.742794
2095.620090	-3.015500	3.231200	-9.742600	26.880992	0.000376	20.735880
2096.620832	-2.997100	3.232000	-9.685100	26.914447	0.000379	20.751028
2097.616490	-3.008600	3.230700	-9.719100	26.954455	0.000377	20.761861
2098.616881	-3.029700	3.232300	-9.792600	26.922338	0.000376	20.750902
2099.617411	-2.989800	3.233000	-9.664400	26.914001	0.000374	20.734931
2100.619466	-2.998100	3.230400	-9.683800	26.886454	0.000372	20.756071
2101.618413	-2.986000	3.230900	-9.647100	26.931594	0.000372	20.747407
2102.619129	-3.018700	3.228400	-9.745000	26.973138	0.000374	20.741768
2103.620318	-2.985800	3.230600	-9.644000	27.055844	0.000372	20.759981
2104.619157	-3.010800	3.229500	-9.722000	27.095597	0.000370	20.755390
2105.619760	-3.018600	3.229100	-9.745700	27.129763	0.000370	20.732853
2106.618341	-2.995800	3.228000	-9.669300	27.145767	0.000369	20.764597
2107.619930	-3.000500	3.226200	-9.679400	27.201467	0.000366	20.746651
2108.627057	-3.000000	3.226800	-9.679500	27.171621	0.000367	20.733701
2109.620698	-2.982000	3.227200	-9.622100	27.175043	0.000368	20.742833
2110.621835	-3.015000	3.226300	-9.726500	27.179432	0.000369	20.755783
2111.619705	-3.002300	3.226000	-9.684100	27.171193	0.000367	20.762670
2112.621814	-3.032100	3.224000	-9.773400	27.190594	0.000366	20.744250
2113.621120	-3.020200	3.224200	-9.736800	27.254954	0.000365	20.738811
2114.623954	-3.006400	3.223800	-9.691500	27.262197	0.000364	20.749415
2115.626496	-3.010100	3.223000	-9.699400	27.239867	0.000364	20.752085
2116.623773	-2.995100	3.224300	-9.655900	27.228010	0.000364	20.750116
2117.626863	-2.970600	3.225000	-9.578800	27.177194	0.000361	20.730772
2118.623385	-2.980900	3.224000	-9.609600	27.158409	0.000362	20.740802
2119.623120	-3.013500	3.221400	-9.706900	27.152131	0.000360	20.750609
2120.623685	-2.986800	3.222100	-9.622700	27.177216	0.000360	20.747390
2121.624342	-2.999400	3.220900	-9.659300	27.161657	0.000361	20.725575
2122.624910	-3.003200	3.222000	-9.675500	27.129549	0.000361	20.735009
2123.627359	-3.007300	3.220900	-9.685300	27.163867	0.000358	20.733014
2124.624991	-2.972700	3.220800	-9.572700	27.173542	0.000360	20.746540
2125.625923	-3.005300	3.220300	-9.675700	27.162128	0.000356	20.750707
2126.625594	-2.981400	3.221500	-9.603000	27.146671	0.000353	20.733263
2127.627629	-3.022200	3.217600	-9.722000	27.164904	0.000355	20.743541
2128.627095	-2.984100	3.219800	-9.606700	27.204084	0.000355	20.738852
2129.625928	-2.992600	3.218300	-9.630300	27.228076	0.000355	20.755398
2130.626508	-2.991300	3.218800	-9.627100	27.283575	0.000353	20.718287
2131.625433	-3.026700	3.216900	-9.735400	27.302804	0.000353	20.739053
2132.626453	-3.003300	3.217100	-9.661100	27.349119	0.000352	20.746763
2133.626523	-3.010900	3.215600	-9.681300	27.319571	0.000352	20.748807
2134.627910	-2.989800	3.216500	-9.615000	27.303672	0.000350	20.733288
2135.629088	-2.982400	3.216600	-9.592400	27.329173	0.000349	20.756570
2136.629843	-2.994400	3.214800	-9.625500	27.333265	0.000348	20.749306
2137.630719	-2.980700	3.215700	-9.584000	27.380549	0.000349	20.739974
2138.629608	-3.002500	3.214400	-9.650200	27.418873	0.000347	20.730638
2139.633292	-3.000000	3.213700	-9.640500	27.430784	0.000347	20.738353
2140.630275	-3.014000	3.213100	-9.683700	27.460623	0.000347	20.738501
2141.629866	-2.996900	3.212900	-9.627600	27.452014	0.000345	20.726995
2142.631536	-3.011900	3.211100	-9.670300	27.420437	0.000345	20.747385
2143.629319	-2.991200	3.212300	-9.607700	27.440207	0.000346	20.731238
2144.628428	-3.003800	3.211200	-9.644000	27.411035	0.000345	20.754048
2145.630237	-2.995100	3.211500	-9.617600	27.429738	0.000343	20.757217
2146.630598	-2.990600	3.211900	-9.604700	27.454024	0.000342	20.758890
2147.631825	-3.014000	3.209200	-9.671900	27.450847	0.000342	20.733408
2148.630741	-2.991700	3.209100	-9.599400	27.430928	0.000342	20.752723
2149.635408	-2.994100	3.209800	-9.609100	27.437429	0.000339	20.756419
2150.630843	-3.006000	3.207500	-9.640000	27.441965	0.000338	20.744386
2151.631778	-3.019000	3.208400	-9.685200	27.455560	0.000338	20.748581
2152.631343	-2.980200	3.207800	-9.557900	27.420708	0.000337	20.756667
2153.632414	-2.985100	3.209000	-9.578300	27.429663	0.000339	20.741968
2154.631477	-3.006800	3.207100	-9.641300	27.447698	0.000335	20.750154
2155.634015	-2.993700	3.206200	-9.597600	27.461565	0.000338	20.733759
2156.634639	-2.991000	3.206600	-9.590300	27.457224	0.000335	20.755945
2157.632287	-2.994100	3.206100	-9.599100	27.458491	0.000336	20.745839
2158.631849	-2.972100	3.205900	-9.527500	27.427010	0.000334	20.740721
2159.635708	-3.001900	3.205500	-9.621900	27.426389	0.000333	20.760012
2160.632121	-2.977900	3.206300	-9.547000	27.450875	0.000331	20.758567
2161.632625	-3.001200	3.203900	-9.614600	27.433733	0.000332	20.771668
2162.637416	-3.022500	3.201600	-9.675100	27.426192	0.000332	20.768349
2163.634093	-3.007300	3.201700	-9.628000	27.389929	0.000329	20.745142
2164.634790	-2.996700	3.203200	-9.598500	27.376532	0.000330	20.744941
2165.639191	-3.005400	3.201500	-9.620100	27.392981	0.000329	20.741101
2166.637372	-3.008600	3.201600	-9.631200	27.415829	0.000328	20.753181
2167.638496	-2.994500	3.202500	-9.588600	27.439841	0.000327	20.737982
2168.639327	-3.008700	3.200200	-9.627800	27.460207	0.000328	20.766533
2169.642202	-3.003900	3.198100	-9.605400	27.512076	0.000326	20.771777
2170.639028	-2.993600	3.199900	-9.577600	27.511158	0.000325	20.768483
2171.640807	-3.011000	3.198000	-9.628500	27.514036	0.000326	20.741979
2172.640065	-3.009700	3.198600	-9.625500	27.497369	0.000325	20.766463
2173.638884	-3.006200	3.199100	-9.615500	27.475765	0.000322	20.744727
2174.642015	-2.999700	3.198000	-9.592000	27.470035	0.000324	20.780688
2175.641115	-3.000200	3.197400	-9.592200	27.476286	0.000321	20.771330
2176.640581	-3.013700	3.195700	-9.629500	27.480406	0.000324	20.761724
2177.640744	-3.006300	3.195000	-9.603300	27.497469	0.000320	20.768935
2178.642150	-3.016000	3.196500	-9.639900	27.529172	0.000320	20.773805
2179.639575	-3.016300	3.195700	-9.638300	27.563920	0.000320	20.757557
2180.640723	-3.008300	3.194200	-9.608000	27.572628	0.000319	20.767741
2181.642555	-3.008700	3.195100	-9.611100	27.601598	0.000320	20.775553
2182.640494	-3.011900	3.195200	-9.621400	27.596065	0.000318	20.766667
2183.639769	-2.996000	3.192700	-9.564500	27.579325	0.000317	20.769738
2184.640507	-3.002000	3.193700	-9.586300	27.560799	0.000315	20.785237
2185.641122	-2.997100	3.193900	-9.571900	27.523345	0.000317	20.778847
2186.641834	-2.989700	3.192400	-9.542600	27.498814	0.000313	20.771236
2187.643445	-3.016700	3.191400	-9.627000	27.456647	0.000314	20.770064
2188.646710	-3.030900	3.191200	-9.671300	27.383597	0.000314	20.755368
2189.644633	-3.023200	3.188900	-9.639900	27.396270	0.000316	20.760531
2190.640961	-3.026500	3.188100	-9.647400	27.425813	0.000315	20.763225
2191.644691	-3.005600	3.190200	-9.587600	27.426262	0.000314	20.777428
2192.644052	-3.002600	3.188400	-9.571900	27.430823	0.000312	20.785335
2193.641103	-2.990900	3.189300	-9.537900	27.384137	0.000310	20.770137
2194.642088	-3.001500	3.187400	-9.565100	27.378334	0.000309	20.763351
2195.642990	-3.009100	3.187400	-9.590200	27.396990	0.000310	20.769791
2196.645721	-2.999900	3.188200	-9.563000	27.412419	0.000310	20.792425
2197.648850	-3.000300	3.186000	-9.558100	27.443894	0.000309	20.783787
2198.648801	-3.013400	3.186900	-9.601800	27.494947	0.000309	20.762603
2199.643945	-3.013600	3.185000	-9.597300	27.516204	0.000310	20.762179
2200.645826	-3.008300	3.184800	-9.579100	27.578485	0.000307	20.769841
2201.648571	-2.992400	3.186000	-9.532400	27.591829	0.000305	20.778053
2202.646866	-3.007700	3.183600	-9.573600	27.614692	0.000307	20.769763
2203.645618	-3.002500	3.184200	-9.559600	27.641705	0.000304	20.773236
2204.650043	-3.028300	3.182700	-9.637000	27.642597	0.000305	20.778401
2205.647776	-3.008700	3.183100	-9.576400	27.638331	0.000305	20.786911
2206.649184	-3.016000	3.180600	-9.591600	27.613903	0.000303	20.781296
2207.648672	-3.009500	3.181100	-9.573000	27.621916	0.000304	20.779403
2208.650503	-3.009600	3.181500	-9.574200	27.572287	0.000301	20.773088
2209.648397	-2.999400	3.181200	-9.540200	27.526306	0.000300	20.788465
2210.651806	-2.993100	3.180400	-9.517800	27.503261	0.000299	20.802263
2211.651081	-2.995300	3.180600	-9.525600	27.492025	0.000299	20.779104
2212.650138	-2.980600	3.179900	-9.476000	27.463897	0.000299	20.763607
2213.651659	-2.969500	3.180200	-9.441600	27.437529	0.000296	20.789711
2214.650948	-2.982900	3.178600	-9.480300	27.435323	0.000299	20.787965
2215.647729	-2.998100	3.177200	-9.524300	27.408086	0.000296	20.794230
2216.654096	-2.996500	3.176200	-9.516900	27.425550	0.000296	20.803738
2217.653012	-3.004100	3.177400	-9.544500	27.378886	0.000296	20.786192
2218.652297	-3.027800	3.176100	-9.615300	27.344778	0.000296	20.775587
2219.653955	-2.982300	3.176200	-9.471700	27.358100	0.000295	20.785670
2220.653479	-2.990000	3.174600	-9.491100	27.360382	0.000294	20.777534
2221.649938	-3.010500	3.176600	-9.562300	27.405804	0.000294	20.794779
2222.653723	-3.000000	3.173900	-9.520300	27.404091	0.000294	20.795426
2223.655234	-2.992000	3.173300	-9.493500	27.393079	0.000290	20.795254
2224.653495	-2.997300	3.173900	-9.511800	27.375761	0.000289	20.798695
2225.654454	-2.979300	3.173800	-9.454600	27.380824	0.000292	20.806159
2226.657157	-2.985700	3.173000	-9.471700	27.397889	0.000290	20.809576
2227.654216	-3.007600	3.174200	-9.545600	27.457499	0.000289	20.802215
2228.654709	-3.010600	3.170200	-9.542000	27.545082	0.000288	20.804511
2229.654794	-2.996200	3.172200	-9.504000	27.566138	0.000286	20.792980
2230.654106	-2.989000	3.171000	-9.477000	27.601407	0.000288	20.817561
2231.654767	-2.994800	3.171900	-9.498100	27.619959	0.000286	20.800193
2232.654792	-2.984800	3.170100	-9.461600	27.617107	0.000287	20.805858
2233.655009	-2.993600	3.168900	-9.484800	27.567156	0.000286	20.790685
2234.661346	-3.005900	3.168400	-9.522400	27.519980	0.000285	20.831411
2235.653714	-2.997000	3.168300	-9.493500	27.502121	0.000286	20.802539
2236.655314	-3.014600	3.165400	-9.541300	27.527171	0.000285	20.802137
2237.656195	-2.990200	3.167200	-9.469200	27.552647	0.000285	20.804536
2238.655479	-3.003500	3.164900	-9.504500	27.587844	0.000282	20.819087
2239.655701	-2.968700	3.167100	-9.401300	27.568619	0.000281	20.825348
2240.656391	-3.000700	3.165800	-9.498500	27.582929	0.000283	20.801814
2241.655267	-3.003000	3.163600	-9.500200	27.569387	0.000280	20.801465
2242.656584	-3.019500	3.163300	-9.550700	27.557431	0.000279	20.802712
2243.656207	-3.002900	3.162700	-9.495800	27.531562	0.000281	20.807503
2244.656203	-2.996200	3.163700	-9.478100	27.509836	0.000279	20.808878
2245.657811	-2.983100	3.162600	-9.433400	27.555671	0.000277	20.814217
2246.656454	-3.005600	3.159700	-9.495600	27.591015	0.000279	20.802363
2247.654414	-2.989700	3.161900	-9.451900	27.603513	0.000277	20.829163
2248.657393	-2.976400	3.161700	-9.409600	27.632383	0.000275	20.816013
2249.655165	-2.990200	3.159500	-9.445700	27.651550	0.000277	20.830084
2250.658031	-3.017900	3.158300	-9.529600	27.668095	0.000277	20.802636
2251.657530	-2.958500	3.159700	-9.346400	27.655716	0.000277	20.820525
2252.660718	-3.020300	3.156900	-9.532700	27.663854	0.000275	20.820654
2253.659800	-2.986000	3.156900	-9.425400	27.672040	0.000275	20.828890
2254.658126	-3.010100	3.157200	-9.501200	27.677220	0.000275	20.830784
2255.658583	-2.977900	3.156900	-9.399600	27.711742	0.000272	20.809573
2256.660151	-2.997600	3.156300	-9.460400	27.727440	0.000272	20.819206
2257.658249	-3.019600	3.154100	-9.523400	27.701376	0.000272	20.838970
2258.658021	-3.002100	3.155000	-9.470300	27.716551	0.000269	20.829110
2259.660511	-2.992600	3.154100	-9.437600	27.729250	0.000271	20.835726
2260.660133	-3.022700	3.151700	-9.525300	27.741127	0.000270	20.827763
2261.659602	-3.004200	3.153800	-9.474200	27.780580	0.000272	20.825741
2262.674202	-3.001000	3.152000	-9.457300	27.822861	0.000270	20.825144
2263.658935	-3.011800	3.150700	-9.488700	27.837787	0.000269	20.823097
2264.659449	-2.983600	3.151000	-9.399900	27.858891	0.000268	20.829163
2265.665723	-3.020600	3.149700	-9.513100	27.823556	0.000266	20.827741
2266.660129	-3.021400	3.148500	-9.511600	27.774679	0.000267	20.812691
2267.660050	-3.019200	3.149200	-9.507300	27.720594	0.000266	20.841240
2268.658903	-2.983200	3.148500	-9.391800	27.679155	0.000266	20.807601
2269.659532	-2.999500	3.147600	-9.440400	27.692077	0.000264	20.830087
2270.661187	-3.026500	3.147700	-9.525700	27.725209	0.000265	20.840668
2271.662751	-2.975900	3.147400	-9.365600	27.759901	0.000264	20.841915
2272.665136	-3.002000	3.146000	-9.443300	27.800421	0.000262	20.846182
2273.666757	-2.989400	3.146000	-9.404000	27.786807	0.000261	20.846706
2274.663292	-2.967700	3.145300	-9.333400	27.794249	0.000264	20.822902
2275.666206	-3.015400	3.142600	-9.474700	27.801834	0.000262	20.843337
2276.663736	-2.999800	3.144800	-9.432900	27.820730	0.000263	20.845758
2277.663864	-3.028700	3.141400	-9.513600	27.837765	0.000260	20.836825
2278.667104	-2.991100	3.143100	-9.400500	27.837169	0.000260	20.850923
2279.665353	-2.990600	3.142000	-9.395600	27.818255	0.000259	20.830940
2280.666043	-2.998600	3.141500	-9.419300	27.822617	0.000259	20.858563
2281.666488	-2.983700	3.139800	-9.367000	27.849796	0.000259	20.846087
2282.668588	-3.002900	3.138700	-9.424000	27.851902	0.000257	20.833983
2283.667331	-3.030000	3.138400	-9.507900	27.856563	0.000257	20.851950
2284.667915	-3.019800	3.137300	-9.473300	27.865914	0.000256	20.871791
2285.672295	-3.009000	3.137300	-9.439000	27.896286	0.000256	20.843092
2286.669503	-3.009700	3.137100	-9.440500	27.868690	0.000255	20.833336
2287.668887	-3.025100	3.135800	-9.485100	27.865567	0.000254	20.843943
2288.669900	-2.986100	3.138000	-9.369000	27.888006	0.000254	20.860836
2289.672843	-2.988400	3.134600	-9.366800	27.890015	0.000253	20.827772
2290.669594	-3.002800	3.134100	-9.409700	27.910223	0.000254	20.842894
2291.671258	-2.993000	3.134100	-9.379600	27.922103	0.000255	20.876660
2292.674651	-2.995800	3.133500	-9.386100	27.947688	0.000253	20.857843
2293.670292	-2.999000	3.132300	-9.392300	27.970203	0.000253	20.838306
2294.670056	-3.001200	3.132100	-9.399100	28.003030	0.000250	20.841003
2295.671075	-3.005900	3.130500	-9.409000	28.030027	0.000253	20.871969
2296.668743	-3.001200	3.128700	-9.389000	27.984706	0.000250	20.859068
2297.667932	-3.000700	3.128100	-9.384900	27.945635	0.000250	20.846294
2298.673788	-2.997500	3.127800	-9.374300	27.981558	0.000251	20.843098
2299.673101	-2.993600	3.128500	-9.364700	28.016791	0.000250	20.862440
2300.669950	-2.987800	3.127100	-9.341500	28.021870	0.000250	20.864233
2301.674263	-2.980500	3.126700	-9.317700	28.002385	0.000249	20.846517
2302.674087	-2.989000	3.125200	-9.339100	27.935817	0.000247	20.866283
2303.671198	-2.998700	3.124800	-9.369100	27.880103	0.000248	20.864261
2304.672759	-3.017000	3.123200	-9.421200	27.905321	0.000247	20.854081
2305.672479	-3.011000	3.121600	-9.398400	27.891584	0.000244	20.880083
2306.670807	-3.026000	3.121700	-9.444600	27.939785	0.000246	20.874070
2307.672465	-3.004700	3.122300	-9.380800	27.967878	0.000246	20.872949
2308.672703	-2.993600	3.120900	-9.340800	27.994133	0.000246	20.882305
2309.674027	-3.003000	3.120400	-9.369900	28.035635	0.000247	20.876666
2310.676509	-2.977900	3.120200	-9.290700	28.013344	0.000244	20.863237
2311.677538	-2.997900	3.118400	-9.348300	28.021055	0.000244	20.859146
2312.674258	-2.994000	3.118800	-9.336900	27.942144	0.000244	20.871228
2313.675418	-3.005200	3.116100	-9.362600	27.878739	0.000245	20.876638
2314.682289	-3.010600	3.117600	-9.384400	27.860169	0.000244	20.874070
2315.676678	-3.016800	3.116400	-9.400600	27.858977	0.000245	20.880930
2316.676133	-2.982900	3.116700	-9.296100	27.899817	0.000240	20.884576
2317.679213	-2.985400	3.115600	-9.300800	27.891484	0.000243	20.887094
2318.681502	-2.997700	3.114500	-9.335100	27.943429	0.000241	20.876789
2319.683596	-3.019200	3.113400	-9.399400	27.950545	0.000241	20.869727
2320.681591	-2.975900	3.112300	-9.261000	27.948190	0.000240	20.886796
2321.678912	-2.985200	3.111400	-9.286900	27.941523	0.000242	20.860172
2322.685782	-3.014400	3.109900	-9.373600	27.933833	0.000239	20.888940
2323.684346	-2.992100	3.111000	-9.306600	27.922405	0.000240	20.862267
2324.679479	-3.016500	3.107500	-9.371900	27.898775	0.000241	20.880682
2325.682724	-3.005200	3.107700	-9.336700	27.870063	0.000241	20.873121
2326.683887	-2.982800	3.108500	-9.268400	27.891141	0.000240	20.889119
2327.681473	-3.017400	3.107100	-9.374200	27.893942	0.000241	20.883878
2328.684596	-3.016200	3.106200	-9.368400	27.845589	0.000240	20.898275
2329.688397	-3.010600	3.104500	-9.343900	27.873435	0.000238	20.889317
2330.686742	-3.039600	3.103200	-9.431500	27.873856	0.000239	20.895430
2331.681220	-2.988400	3.104200	-9.276700	27.898603	0.000238	20.886673
2332.689624	-3.018200	3.102100	-9.361900	27.939043	0.000240	20.899873
2333.685787	-2.998200	3.101100	-9.296800	27.953300	0.000238	20.887671
2334.687707	-2.990000	3.101700	-9.273300	27.930042	0.000237	20.881806
2335.684689	-2.987700	3.101400	-9.265000	27.933864	0.000236	20.879963
2336.683744	-3.005700	3.098900	-9.313700	27.956049	0.000237	20.893282
2337.690137	-2.986400	3.098900	-9.253600	27.952978	0.000236	20.891141
2338.686026	-2.989100	3.098200	-9.259800	27.997852	0.000237	20.895056
2339.684396	-3.016400	3.096300	-9.338500	28.042926	0.000237	20.875944
2340.686692	-2.990100	3.096800	-9.257600	28.046447	0.000238	20.918366
2341.685498	-3.005000	3.096400	-9.303200	28.008639	0.000235	20.909706
2342.687297	-3.010800	3.094300	-9.314700	27.958881	0.000236	20.886651
2343.685274	-3.008400	3.092400	-9.301900	27.992401	0.000236	20.907113
2344.690198	-2.992900	3.094300	-9.258900	27.987270	0.000233	20.905741
2345.688046	-3.040300	3.090200	-9.394300	27.995527	0.000236	20.918319
2346.689857	-3.012300	3.091300	-9.311100	27.962627	0.000236	20.918868
2347.691132	-3.009600	3.090300	-9.299200	27.983255	0.000234	20.909760
2348.689207	-2.999200	3.089700	-9.266200	27.990049	0.000235	20.913753
2349.687792	-3.010400	3.087000	-9.292700	27.980902	0.000232	20.918770
2350.689842	-3.006000	3.087700	-9.280800	27.941407	0.000235	20.907467
2351.688568	-3.041900	3.084700	-9.382600	27.953209	0.000233	20.901803
2352.688987	-2.994100	3.087700	-9.243200	27.958740	0.000233	20.923963
2353.690124	-3.018700	3.083900	-9.308700	27.953483	0.000230	20.931474
2354.688541	-3.010300	3.084500	-9.283700	27.931270	0.000232	20.903903
2355.687655	-3.026400	3.081900	-9.325700	27.960427	0.000233	20.911913
2356.688949	-3.032400	3.080600	-9.339900	28.028509	0.000232	20.928758
2357.687943	-3.006600	3.081100	-9.262600	28.046661	0.000231	20.908151
2358.690894	-3.004000	3.080700	-9.253100	28.063768	0.000231	20.928688
2359.695542	-2.994500	3.079700	-9.221400	28.095324	0.000230	20.940538
2360.694041	-2.995800	3.077800	-9.219800	28.132065	0.000229	20.928688
2361.690999	-2.966900	3.077700	-9.129900	28.165705	0.000232	20.918933
2362.691538	-2.989700	3.077400	-9.200100	28.194853	0.000231	20.915561
2363.693593	-2.998900	3.076500	-9.225000	28.235087	0.000231	20.932832
2364.693664	-2.980500	3.076200	-9.168100	28.221897	0.000230	20.937096
2365.693141	-3.011600	3.074900	-9.259600	28.263391	0.000230	20.927665
2366.694240	-3.016500	3.071600	-9.264700	28.243982	0.000231	20.925668
2367.696149	-2.988300	3.072700	-9.180600	28.217387	0.000230	20.937771
2368.695385	-3.009700	3.070600	-9.240600	28.185733	0.000229	20.930559
2369.695525	-3.025800	3.069400	-9.286000	28.197108	0.000228	20.921624
2370.696061	-3.003700	3.067700	-9.213700	28.187891	0.000228	20.930361
2371.697565	-3.007600	3.067700	-9.225600	28.181441	0.000227	20.925765
2372.697702	-2.990600	3.066800	-9.170100	28.231663	0.000227	20.916584
2373.702566	-3.007900	3.066300	-9.222400	28.228266	0.000228	20.922647
2374.700263	-2.967400	3.066400	-9.097500	28.168425	0.000226	20.929257
2375.700702	-2.986400	3.067100	-9.157700	28.160793	0.000226	20.932004
2376.700174	-2.995700	3.063100	-9.174700	28.122293	0.000226	20.913636
2377.696995	-2.997300	3.062600	-9.179200	28.050845	0.000227	20.916155
2378.698033	-3.008100	3.061100	-9.207200	28.025933	0.000225	20.928060
2379.698559	-3.001100	3.059800	-9.181800	28.070235	0.000225	20.943257
2380.697374	-2.994000	3.059100	-9.157500	28.114604	0.000225	20.918224
2381.697549	-2.989600	3.058000	-9.141800	28.140413	0.000224	20.929031
2382.702136	-2.982100	3.058100	-9.118800	28.137215	0.000224	20.935295
2383.697079	-2.995100	3.057200	-9.155600	28.135353	0.000223	20.916827
2384.698078	-3.002700	3.054500	-9.170200	28.178460	0.000223	20.899533
2385.701356	-2.986600	3.053900	-9.119800	28.217872	0.000225	20.931147
2386.700959	-2.996500	3.053500	-9.148700	28.177914	0.000222	20.885708
2387.697938	-2.986700	3.052800	-9.117300	28.159346	0.000226	20.919643
2388.699931	-2.992300	3.050700	-9.127200	28.142737	0.000225	20.920940
2389.699095	-2.977900	3.050300	-9.080900	28.133935	0.000225	20.908761
2390.700691	-3.010600	3.048800	-9.177400	28.163410	0.000222	20.908089
2391.703279	-3.002700	3.047600	-9.150100	28.213705	0.000223	20.914152
2392.699816	-3.025200	3.046300	-9.214800	28.256683	0.000224	20.886302
2393.701045	-2.993200	3.045700	-9.115500	28.226543	0.000223	20.901948
2394.704910	-2.987500	3.042900	-9.089800	28.186685	0.000225	20.910183
2395.699941	-3.018800	3.043200	-9.185800	28.186832	0.000223	20.902745
2396.700916	-3.002900	3.041100	-9.131300	28.199448	0.000224	20.909283
2397.700449	-2.997000	3.042400	-9.117000	28.206020	0.000225	20.894089
2398.703288	-2.989100	3.040800	-9.087400	28.231177	0.000222	20.916096
2399.701392	-2.998200	3.038100	-9.108000	28.263376	0.000224	20.893988
2400.701136	-3.015300	3.037000	-9.156300	28.313466	0.000223	20.893687
2401.704445	-2.987200	3.036200	-9.068000	28.320505	0.000221	20.894136
2402.701731	-3.010100	3.035800	-9.136300	28.330666	0.000222	20.883979
2403.704794	-2.999800	3.034200	-9.101400	28.363554	0.000222	20.907135
2404.704462	-2.992700	3.034000	-9.078400	28.362441	0.000220	20.887998
2405.702012	-2.989200	3.031600	-9.061600	28.363208	0.000221	20.876917
2406.703518	-2.985300	3.031900	-9.050400	28.336591	0.000221	20.890418
2407.706703	-2.992000	3.029700	-9.064200	28.338225	0.000221	20.894434
2408.705339	-3.012100	3.028500	-9.121100	28.320655	0.000221	20.886701
2409.704578	-3.018900	3.027800	-9.139900	28.363111	0.000220	20.896259
2410.704288	-2.969900	3.026200	-8.986700	28.371213	0.000220	20.888770
2411.708281	-3.028300	3.024600	-9.158300	28.349455	0.000220	20.877768
2412.708182	-2.997100	3.024700	-9.063900	28.331835	0.000218	20.889897
2413.706396	-2.987800	3.023200	-9.031400	28.270019	0.000220	20.876022
2414.709826	-3.009000	3.021700	-9.088900	28.269548	0.000219	20.872229
2415.708704	-3.005500	3.020800	-9.077600	28.216705	0.000220	20.878769
2416.706593	-3.011900	3.019900	-9.094700	28.179920	0.000223	20.866392
2417.712387	-2.978900	3.018400	-8.990300	28.142834	0.000216	20.891169
2418.712386	-2.966800	3.017600	-8.951100	28.201831	0.000219	20.876597
2419.710296	-2.970500	3.017700	-8.962700	28.235865	0.000218	20.866291
2420.713584	-2.998900	3.013900	-9.037100	28.240995	0.000219	20.879517
2421.714041	-2.975500	3.013500	-8.965200	28.248927	0.000218	20.875648
2422.712173	-2.986900	3.012500	-8.997000	28.209738	0.000218	20.885979
2423.714654	-2.995800	3.011000	-9.019600	28.174118	0.000216	20.866241
2424.714826	-2.988600	3.008800	-8.991300	28.177440	0.000217	20.877645
2425.716700	-3.007300	3.007000	-9.041100	28.166533	0.000219	20.888949
2426.715652	-3.023000	3.006400	-9.086800	28.161477	0.000218	20.891919
2427.715352	-3.013000	3.006100	-9.056200	28.183192	0.000218	20.881539
2428.713794	-3.000700	3.004600	-9.015100	28.231377	0.000219	20.868885
2429.713428	-2.983900	3.003200	-8.960100	28.198609	0.000216	20.874775
2430.716042	-3.020100	3.001600	-9.063500	28.196279	0.000217	20.874801
2431.713451	-2.997300	3.000000	-8.990200	28.167572	0.000215	20.875297
2432.712689	-3.013900	2.999000	-9.037600	28.137431	0.000215	20.863921
2433.718004	-3.006200	2.997600	-9.009700	28.117278	0.000217	20.872081
2434.725746	-3.058100	2.996800	-9.161500	28.101682	0.000218	20.868709
2435.713943	-3.022600	2.995700	-9.053800	28.111673	0.000217	20.863594
2436.714527	-3.025100	2.992200	-9.050900	28.155132	0.000218	20.866568
2437.715134	-2.992800	2.992500	-8.954900	28.198063	0.000217	20.869959
2438.716882	-2.990300	2.991500	-8.944600	28.241295	0.000217	20.872706
2439.714067	-2.992500	2.990700	-8.948300	28.291585	0.000221	20.865494
2440.714818	-3.000500	2.989700	-8.969700	28.281596	0.000216	20.852118
2441.713252	-3.003600	2.987600	-8.972300	28.312403	0.000215	20.874126
2442.714366	-3.030800	2.984500	-9.043500	28.333522	0.000217	20.855562
2443.714853	-3.023400	2.984000	-9.021000	28.396672	0.000215	20.863673
2444.716582	-2.958200	2.984900	-8.828700	28.431788	0.000215	20.862998
2445.713964	-2.994100	2.981600	-8.926400	28.410923	0.000215	20.875651
2446.717923	-2.990700	2.981900	-8.917700	28.353325	0.000217	20.868863
2447.717245	-2.979900	2.981200	-8.882400	28.362518	0.000217	20.877645
2448.717016	-2.985700	2.978200	-8.890900	28.362865	0.000217	20.857132
2449.716818	-2.981600	2.977400	-8.876300	28.344771	0.000216	20.891542
2450.719555	-2.992000	2.976100	-8.903700	28.312827	0.000216	20.866018
2451.717462	-3.021100	2.973400	-8.982100	28.325068	0.000213	20.878342
2452.720318	-2.986900	2.972100	-8.875600	28.303159	0.000215	20.866241
2453.718188	-2.993400	2.971100	-8.892600	28.284937	0.000217	20.844576
2454.716234	-3.000000	2.970200	-8.909500	28.286352	0.000215	20.859277
2455.717675	-3.014100	2.968300	-8.945500	28.327048	0.000217	20.856156
2456.718464	-3.021100	2.965200	-8.956100	28.270440	0.000215	20.861748
2457.719904	-2.978000	2.966200	-8.832100	28.210998	0.000214	20.849317
2458.720790	-3.007500	2.964200	-8.913500	28.183189	0.000216	20.876320
2459.723679	-3.002800	2.961100	-8.890300	28.179047	0.000213	20.866936
2460.725981	-2.965500	2.963000	-8.784900	28.147762	0.000215	20.851088
2461.721150	-3.003200	2.958400	-8.883600	28.149774	0.000215	20.854536
2462.724418	-2.994000	2.957500	-8.854200	28.218979	0.000216	20.857827
2463.723703	-3.011600	2.956900	-8.903600	28.265706	0.000216	20.870257
2464.722765	-3.020800	2.954900	-8.924700	28.311234	0.000216	20.862518
2465.726743	-3.025400	2.952000	-8.929000	28.352873	0.000215	20.848495
2466.725423	-2.995600	2.952300	-8.843100	28.384722	0.000215	20.880562
2467.722415	-3.004700	2.950500	-8.864100	28.391486	0.000214	20.838064
2468.725379	-3.012600	2.949300	-8.884300	28.422193	0.000215	20.872776
2469.724361	-3.015000	2.948200	-8.887000	28.451511	0.000214	20.848721
2470.724762	-3.018600	2.944400	-8.887500	28.455403	0.000216	20.851217
2471.722291	-2.990200	2.944500	-8.803300	28.457411	0.000216	20.849446
2472.725723	-2.981500	2.943300	-8.774300	28.442789	0.000212	20.858429
2473.724683	-2.995900	2.941600	-8.811400	28.400361	0.000213	20.856008
2474.723642	-3.007100	2.940000	-8.839300	28.366925	0.000216	20.831351
2475.723743	-2.996900	2.938000	-8.804200	28.288682	0.000214	20.848347
2476.724961	-2.982100	2.936600	-8.756400	28.234028	0.000214	20.865865
2477.724354	-3.005700	2.935500	-8.822200	28.190203	0.000213	20.857305
2478.723307	-3.004600	2.933500	-8.813600	28.155700	0.000215	20.833476
2479.725264	-2.963700	2.933200	-8.692700	28.182394	0.000216	20.866986
2480.726592	-2.989200	2.930300	-8.758700	28.183635	0.000214	20.851167
2481.723814	-3.003800	2.929800	-8.799300	28.163557	0.000214	20.853713
2482.729936	-3.032900	2.926300	-8.874300	28.154830	0.000214	20.842083
2483.726171	-3.029500	2.923500	-8.855300	28.164278	0.000211	20.854438
2484.727324	-3.009700	2.922700	-8.795300	28.253586	0.000216	20.847151
2485.730859	-2.991700	2.922000	-8.739900	28.253786	0.000214	20.858731
2486.726769	-2.971500	2.921800	-8.681500	28.288314	0.000213	20.836123
2487.727195	-3.004100	2.919000	-8.767000	28.335951	0.000213	20.856586
2488.729055	-2.994200	2.917600	-8.734800	28.369931	0.000216	20.849075
2489.730015	-2.980300	2.917000	-8.692000	28.444233	0.000215	20.836650
2490.726307	-3.007600	2.913400	-8.761300	28.488667	0.000215	20.849153
2491.737936	-3.026600	2.912100	-8.812600	28.540433	0.000214	20.839171
2492.728950	-3.023700	2.911200	-8.801400	28.583972	0.000216	20.848880
2493.727745	-3.009100	2.908000	-8.749800	28.571185	0.000215	20.840744
2494.726183	-3.001900	2.909400	-8.732300	28.556964	0.000214	20.828794
2495.728976	-2.981700	2.907200	-8.667300	28.499945	0.000215	20.848657
2496.730328	-3.013900	2.903500	-8.750300	28.489390	0.000214	20.836606
2497.727611	-3.001000	2.901800	-8.707800	28.529510	0.000213	20.835758
2498.732655	-3.007200	2.899800	-8.720000	28.578602	0.000214	20.833990
2499.731584	-3.030500	2.898000	-8.781300	28.622333	0.000213	20.846738
2500.729091	-3.008000	2.896200	-8.711200	28.653382	0.000215	20.851457
2501.730018	-3.005900	2.896200	-8.704800	28.683935	0.000215	20.836238
2502.729550	-3.004100	2.893000	-8.689800	28.731529	0.000212	20.847667
2503.728686	-2.993900	2.891200	-8.654800	28.735891	0.000214	20.831672
2504.731884	-2.994300	2.888900	-8.648600	28.731751	0.000211	20.851209
2505.735456	-2.998400	2.888500	-8.660400	28.771815	0.000214	20.823288
2506.731595	-3.023100	2.885100	-8.719900	28.785986	0.000213	20.840882
2507.731837	-3.003500	2.885100	-8.663900	28.752297	0.000215	20.829232
2508.734923	-3.008200	2.882100	-8.668900	28.783386	0.000214	20.839685
2509.733279	-3.003300	2.880400	-8.650100	28.807074	0.000214	20.842684
2510.733188	-2.975300	2.880400	-8.568700	28.768947	0.000214	20.841261
2511.734824	-2.988600	2.877200	-8.597600	28.733443	0.000214	20.854336
2512.735739	-3.004000	2.874400	-8.633600	28.673166	0.000211	20.832504
2513.734183	-3.019700	2.872700	-8.673600	28.597767	0.000214	20.842860
2514.735863	-3.004300	2.872200	-8.628000	28.579652	0.000214	20.833151
2515.738744	-3.008700	2.867000	-8.624000	28.557032	0.000213	20.845456
2516.738335	-2.985000	2.867300	-8.558500	28.585355	0.000212	20.812816
2517.735290	-3.003600	2.863900	-8.601500	28.578985	0.000212	20.841013
2518.736248	-3.032400	2.860400	-8.672200	28.537083	0.000214	20.846229
2519.736356	-2.975300	2.861000	-8.512000	28.523604	0.000213	20.865844
2520.737751	-3.018500	2.858400	-8.627100	28.552673	0.000210	20.828739
2521.737830	-3.003100	2.856300	-8.576600	28.544794	0.000214	20.837399
2522.739507	-3.015400	2.854600	-8.605400	28.522294	0.000214	20.821853
2523.738391	-3.000700	2.852700	-8.559500	28.516198	0.000213	20.831361
2524.737814	-3.003500	2.849900	-8.557600	28.464727	0.000213	20.824572
2525.739331	-3.057400	2.847900	-8.705700	28.378683	0.000212	20.835129
2526.740230	-2.985400	2.848200	-8.502300	28.366611	0.000212	20.836250
2527.744499	-3.022700	2.844000	-8.595400	28.425350	0.000212	20.838972
2528.739696	-3.010300	2.842300	-8.555300	28.464924	0.000215	20.853692
2529.739658	-2.988400	2.840800	-8.488500	28.519073	0.000215	20.854643
2530.742998	-2.982000	2.837600	-8.460000	28.565980	0.000212	20.850200
2531.741779	-2.989800	2.836200	-8.479100	28.597277	0.000215	20.836677
2532.743973	-2.983100	2.833700	-8.452800	28.604165	0.000213	20.833656
2533.746926	-2.988400	2.833600	-8.466900	28.658824	0.000212	20.817111
2534.743292	-2.982800	2.831400	-8.444500	28.670170	0.000214	20.838021
2535.743041	-3.010800	2.826400	-8.508300	28.710928	0.000213	20.833556
2536.749296	-3.002900	2.824400	-8.480000	28.727529	0.000214	20.846957
2537.755566	-2.992800	2.823100	-8.448100	28.753516	0.000212	20.831882
2538.744447	-2.984500	2.822500	-8.422900	28.784312	0.000213	20.819281
2539.746443	-3.026600	2.817100	-8.525500	28.817432	0.000213	20.822773
2540.744920	-3.000900	2.815000	-8.447100	28.840075	0.000211	20.830884
2541.746180	-2.991500	2.813700	-8.416500	28.796002	0.000214	20.837694
2542.748181	-2.997100	2.811900	-8.426700	28.783666	0.000212	20.839019
2543.751915	-3.001600	2.808000	-8.427500	28.775789	0.000213	20.815912
2544.748292	-3.014300	2.806600	-8.459200	28.716746	0.000211	20.820449
2545.744773	-2.982700	2.805700	-8.367400	28.722099	0.000213	20.835798
2546.747384	-2.993300	2.802600	-8.387900	28.671554	0.000213	20.828036
2547.746207	-2.992100	2.799400	-8.375500	28.597047	0.000214	20.814160
2548.747559	-3.008000	2.797100	-8.413200	28.548704	0.000212	20.807198
2549.745895	-3.028500	2.793200	-8.457000	28.479567	0.000212	20.805851
2550.746216	-3.011200	2.791300	-8.402900	28.450717	0.000215	20.806197
2551.746713	-2.983100	2.790300	-8.322800	28.436021	0.000212	20.798510
2552.745886	-2.991400	2.788100	-8.339200	28.471510	0.000211	20.829031
2553.751479	-2.994100	2.784900	-8.337300	28.543123	0.000213	20.813432
2554.759969	-3.001700	2.782400	-8.351000	28.631015	0.000212	20.805224
2555.747862	-2.975200	2.779800	-8.269400	28.694665	0.000211	20.818597
2556.749304	-3.005600	2.776100	-8.343000	28.719390	0.000214	20.810311
2557.747686	-3.017900	2.772100	-8.364500	28.743893	0.000212	20.814603
2558.751126	-3.044900	2.769600	-8.431800	28.809496	0.000211	20.810512
2559.750008	-3.005500	2.766800	-8.314400	28.828072	0.000212	20.797930
2560.750006	-2.991200	2.766300	-8.272300	28.785933	0.000211	20.809535
2561.749523	-2.984100	2.761900	-8.240900	28.779889	0.000210	20.802498
2562.751838	-3.006500	2.759800	-8.296400	28.796389	0.000213	20.802523
2563.755055	-2.987800	2.755700	-8.232700	28.811299	0.000212	20.808534
2564.752597	-2.990500	2.752500	-8.230900	28.839590	0.000211	20.829446
2565.752502	-3.001400	2.750400	-8.254100	28.820613	0.000211	20.810330
2566.755484	-3.012200	2.746000	-8.270700	28.832134	0.000214	20.805340
2567.753018	-3.002500	2.743300	-8.235700	28.845459	0.000213	20.780832
2568.755027	-2.979600	2.741600	-8.167600	28.834113	0.000213	20.807809
2569.764722	-3.027600	2.737200	-8.286300	28.765535	0.000213	20.816488
2570.758313	-3.031300	2.732900	-8.282400	28.774952	0.000212	20.809379
2571.756536	-2.977500	2.731800	-8.132100	28.723967	0.000211	20.805912
2572.759342	-2.999400	2.728000	-8.181400	28.661800	0.000211	20.806832
2573.762429	-3.019700	2.724600	-8.225800	28.628176	0.000213	20.784820
2574.757545	-3.004600	2.719900	-8.171000	28.610580	0.000211	20.807875
2575.761523	-3.006500	2.717300	-8.168300	28.601685	0.000213	20.796072
2576.758512	-2.990000	2.714100	-8.113700	28.660111	0.000214	20.808450
2577.759162	-3.023200	2.710200	-8.192200	28.682857	0.000211	20.791057
2578.758578	-2.995400	2.708200	-8.110600	28.635927	0.000212	20.799265
2579.759971	-3.044900	2.703500	-8.230500	28.647749	0.000214	20.790309
2580.759822	-2.995100	2.701800	-8.091700	28.713502	0.000211	20.794423
2581.761376	-2.987000	2.697600	-8.057300	28.795059	0.000213	20.780795
2582.763378	-2.976800	2.694800	-8.021100	28.844235	0.000213	20.791927
2583.763268	-3.025500	2.688800	-8.134000	28.893777	0.000214	20.801058
2584.763883	-2.996700	2.686700	-8.050400	28.946936	0.000212	20.774006
2585.762583	-3.012200	2.681200	-8.075100	28.928702	0.000213	20.779345
2586.763819	-2.997300	2.679700	-8.031100	28.908764	0.000212	20.792448
2587.764971	-2.993200	2.673900	-8.002500	28.868683	0.000213	20.795692
2588.765493	-3.002600	2.670800	-8.018100	28.872966	0.000212	20.768712
2589.764423	-3.001400	2.666300	-8.001600	28.871329	0.000213	20.782711
2590.764630	-3.037200	2.662000	-8.084200	28.813806	0.000209	20.796835
2591.766481	-3.003100	2.658700	-7.983500	28.788142	0.000213	20.800380
2592.764685	-3.012100	2.655600	-7.997400	28.741591	0.000211	20.776249
2593.764100	-3.019100	2.650500	-8.001000	28.708739	0.000214	20.767814
2594.769958	-3.004300	2.645800	-7.947900	28.742557	0.000212	20.765842
2595.763746	-2.996700	2.641900	-7.914800	28.784327	0.000211	20.771881
2596.763652	-3.007600	2.637200	-7.930700	28.832288	0.000211	20.784633
2597.772059	-3.017700	2.632200	-7.942800	28.850669	0.000211	20.792244
2598.765813	-3.000200	2.628900	-7.885600	28.843980	0.000212	20.777919
2599.764771	-3.015200	2.622300	-7.906200	28.838282	0.000210	20.797784
2600.766616	-3.001000	2.620300	-7.861900	28.857134	0.000210	20.795438
2601.767099	-2.987600	2.613200	-7.806900	28.878661	0.000210	20.776346
2602.767319	-3.007900	2.607100	-7.841400	28.899766	0.000213	20.769633
2603.766914	-2.993700	2.604400	-7.795700	28.918988	0.000212	20.783782
2604.768571	-2.999000	2.598500	-7.792100	28.935881	0.000213	20.783258
2605.767736	-3.030600	2.592800	-7.856400	28.982374	0.000211	20.766087
2606.767282	-3.001000	2.589400	-7.769700	28.997957	0.000212	20.779417
2607.769781	-2.985800	2.583700	-7.712900	29.022946	0.000212	20.775671
2608.769048	-3.036500	2.576400	-7.822300	29.097769	0.000212	20.770455
2609.768735	-3.015700	2.571100	-7.751800	29.115750	0.000213	20.768185
2610.772411	-2.976700	2.566700	-7.638500	29.114588	0.000211	20.768910
2611.771529	-3.007500	2.559000	-7.695600	29.079096	0.000213	20.789098
2612.769773	-3.006900	2.554700	-7.680400	29.062451	0.000211	20.792242
2613.773382	-3.004300	2.550300	-7.661300	29.109386	0.000214	20.772678
2614.769402	-3.015700	2.542700	-7.667300	29.099430	0.000213	20.766913
2615.770315	-3.010800	2.536100	-7.634700	29.049720	0.000212	20.781311
2616.770536	-3.018300	2.531100	-7.638600	29.005558	0.000212	20.767161
2617.773210	-2.998800	2.524600	-7.570000	28.986042	0.000213	20.769783
2618.769985	-3.013800	2.519000	-7.591200	28.967837	0.000212	20.779891
2619.771584	-3.011500	2.513400	-7.568700	29.000659	0.000213	20.793045
2620.774476	-3.026300	2.506600	-7.584200	29.084172	0.000213	20.775247
2621.771440	-2.990900	2.501700	-7.480900	29.142796	0.000212	20.781213
2622.772517	-2.988900	2.494900	-7.456200	29.184228	0.000213	20.769384
