LabVIEW Measurement	
Writer_Version	2
Reader_Version	2
Separator	Tab
Decimal_Separator	.
Multi_Headings	No
X_Columns	One
Time_Pref	Absolute
Operator	admin
Description	Clolumns are: time, Current, Voltage, Power, Battery Temp, and Chamber Temp
Date	2024/08/16
Time	13:06:06.104549407958984375
***End_of_Header***	
	
Channels	6						
Samples	1	1	1	1	1	1	
Date	2024/09/09	2024/09/09	2024/09/09	2024/09/09	2024/09/09	2024/09/09	
Time	23:01:27.1292614936828613281	23:01:27.138896942138671875	23:01:27.1527414321899414062	23:01:27.1082081794738769531	23:01:27.1082081794738769531	23:01:27.1082081794738769531	
X_Dimension	Time	Time	Time	Time	Time	Time	
X0	0.0000000000000000E+0	0.0000000000000000E+0	0.0000000000000000E+0	0.0000000000000000E+0	0.0000000000000000E+0	0.0000000000000000E+0	
Delta_X	1.000000	1.000000	1.000000	1.000000	1.000000	1.000000	
***End_of_Header***							
X_Value	Untitled	Untitled 1	Untitled 2	Untitled 3	Untitled 4	Untitled 5	Comment
0.000000	0.022778	4.091200	0.093149	20.952277	0.000901	20.710940
0.997939	-3.005800	3.919300	-11.779000	20.962535	0.000900	20.703656
1.997297	-2.996600	3.912300	-11.723000	20.961007	0.000901	20.700704
3.004245	-3.009800	3.907400	-11.758000	20.942142	0.000900	20.692267
3.996401	-3.000000	3.903200	-11.708000	20.969761	0.000898	20.704245
5.000529	-3.008300	3.900000	-11.731000	20.972949	0.000898	20.703640
5.998502	-2.986700	3.897500	-11.640000	20.967040	0.000898	20.693461
6.999778	-3.023300	3.892600	-11.767000	20.966361	0.000898	20.704163
7.998571	-3.004600	3.892700	-11.695000	20.991602	0.000898	20.686258
9.002589	-3.000900	3.890900	-11.675000	20.975786	0.000896	20.688932
10.000517	-2.989500	3.890100	-11.629000	20.979824	0.000894	20.714309
10.997686	-3.004300	3.887400	-11.677000	20.986380	0.000896	20.692889
12.000218	-2.996600	3.884900	-11.640000	20.976122	0.000894	20.709184
12.997823	-3.009800	3.884500	-11.688000	20.970327	0.000892	20.688687
13.998793	-2.998700	3.883300	-11.645000	20.991039	0.000893	20.722208
15.006982	-3.014600	3.880500	-11.697000	20.989388	0.000891	20.690682
16.004524	-3.001900	3.880600	-11.648000	20.997717	0.000891	20.705178
16.997283	-2.994900	3.882300	-11.626000	21.001853	0.000892	20.703625
18.004849	-2.988000	3.879600	-11.591000	20.996614	0.000890	20.686529
18.998130	-3.019500	3.878300	-11.710000	21.005474	0.000888	20.719101
20.002053	-3.009400	3.877800	-11.669000	21.025753	0.000888	20.687699
21.000147	-2.994700	3.875700	-11.605000	21.014571	0.000888	20.713976
22.003482	-3.006500	3.874700	-11.647000	21.036680	0.000886	20.707165
23.001679	-3.023700	3.873600	-11.712000	21.052194	0.000888	20.697076
24.004721	-2.985100	3.873400	-11.560000	21.042639	0.000886	20.712177
25.001013	-2.993900	3.872900	-11.594000	21.047755	0.000886	20.720140
26.004066	-3.006100	3.871400	-11.637000	21.035970	0.000887	20.694599
27.003850	-3.010200	3.872300	-11.655000	21.049497	0.000886	20.716666
28.001205	-2.991900	3.870500	-11.579000	21.059648	0.000885	20.713068
29.006267	-2.976500	3.870700	-11.520000	21.081822	0.000885	20.706324
30.001460	-2.980900	3.869900	-11.535000	21.073567	0.000885	20.686685
31.002244	-2.998800	3.868600	-11.600000	21.089259	0.000886	20.700960
32.007100	-2.992400	3.868800	-11.576000	21.098005	0.000885	20.716347
33.006962	-3.003800	3.867700	-11.617000	21.084331	0.000885	20.715473
34.002899	-2.992400	3.869000	-11.576000	21.078185	0.000884	20.717859
35.003348	-3.023100	3.866000	-11.687000	21.101805	0.000882	20.717778
36.001523	-3.006000	3.867000	-11.623000	21.105164	0.000885	20.722561
37.001768	-3.006700	3.866100	-11.623000	21.119009	0.000883	20.726927
38.003557	-3.007500	3.866100	-11.626000	21.131832	0.000884	20.715571
39.008212	-3.008100	3.863800	-11.621000	21.146069	0.000883	20.708001
40.006939	-3.026600	3.862900	-11.690000	21.160968	0.000882	20.725750
41.004776	-3.017700	3.863000	-11.657000	21.141958	0.000883	20.719536
42.004326	-2.994600	3.864100	-11.571000	21.171093	0.000883	20.714541
43.007952	-2.994300	3.863700	-11.567000	21.170423	0.000883	20.697748
44.004342	-3.006900	3.862200	-11.611000	21.172270	0.000880	20.705760
45.006159	-3.022800	3.861000	-11.671000	21.180443	0.000881	20.729584
46.004554	-3.024400	3.862100	-11.680000	21.180549	0.000883	20.705981
47.006325	-3.019100	3.861300	-11.657000	21.204772	0.000881	20.722153
48.002639	-2.995000	3.860900	-11.562000	21.201805	0.000881	20.720607
49.003932	-3.014000	3.860600	-11.635000	21.211685	0.000884	20.723379
50.004672	-2.991900	3.859700	-11.546000	21.228299	0.000881	20.713445
51.004056	-3.008000	3.860100	-11.609000	21.240704	0.000880	20.717795
52.007053	-3.006900	3.859600	-11.605000	21.227506	0.000878	20.702694
53.006217	-3.004700	3.859800	-11.596000	21.239478	0.000882	20.708981
54.005583	-3.015600	3.858000	-11.633000	21.256696	0.000880	20.736639
55.007102	-3.002100	3.857400	-11.578000	21.239004	0.000882	20.707559
56.009332	-3.003500	3.857000	-11.583000	21.275875	0.000880	20.717893
57.006669	-3.012100	3.855700	-11.611000	21.270065	0.000882	20.736263
58.011115	-3.030800	3.855800	-11.685000	21.278580	0.000880	20.713960
59.012466	-2.998500	3.858100	-11.568000	21.274805	0.000881	20.712554
60.011665	-2.977300	3.858100	-11.485000	21.295168	0.000880	20.740040
61.014839	-2.995500	3.855700	-11.548000	21.303618	0.000880	20.717672
62.015059	-2.980700	3.855800	-11.492000	21.312876	0.000880	20.734521
63.014701	-3.004100	3.855200	-11.580000	21.311928	0.000880	20.724089
64.013316	-2.980500	3.855700	-11.491000	21.331964	0.000880	20.710469
65.014410	-3.001300	3.854200	-11.567000	21.319266	0.000881	20.728586
66.010262	-2.973100	3.854500	-11.459000	21.331465	0.000881	20.732731
67.019080	-3.009000	3.853300	-11.594000	21.349924	0.000881	20.725594
68.020185	-3.022000	3.854100	-11.646000	21.344294	0.000880	20.707631
69.014774	-2.994100	3.854300	-11.539000	21.334031	0.000880	20.742885
70.016700	-2.998600	3.853500	-11.555000	21.361969	0.000882	20.721048
71.019784	-3.005600	3.853300	-11.580000	21.379037	0.000881	20.748558
72.018697	-3.010100	3.853000	-11.596000	21.387119	0.000881	20.710174
73.021171	-2.988200	3.853800	-11.514000	21.387723	0.000880	20.714572
74.019149	-2.983600	3.853100	-11.495000	21.399325	0.000882	20.727604
75.015454	-2.994400	3.852500	-11.535000	21.421599	0.000882	20.732820
76.020620	-2.982000	3.852700	-11.487000	21.427539	0.000883	20.734970
77.023703	-3.011100	3.851600	-11.596000	21.429263	0.000880	20.733376
78.019816	-3.010000	3.852700	-11.595000	21.436371	0.000881	20.735747
79.017091	-2.979500	3.851800	-11.476000	21.444574	0.000880	20.729730
80.024086	-2.989800	3.851700	-11.515000	21.470866	0.000880	20.719052
81.014283	-2.998000	3.850400	-11.542000	21.477027	0.000881	20.737545
82.022630	-2.994100	3.850000	-11.525000	21.480646	0.000883	20.735951
83.024714	-2.996300	3.850200	-11.535000	21.485638	0.000879	20.746162
84.015953	-3.000700	3.849000	-11.549000	21.484992	0.000880	20.749309
85.018974	-3.016500	3.850100	-11.613000	21.506014	0.000882	20.730988
86.022794	-3.021600	3.848800	-11.629000	21.514854	0.000882	20.736515
87.020350	-3.011800	3.849800	-11.594000	21.526292	0.000881	20.751754
88.021963	-3.014900	3.848300	-11.601000	21.547501	0.000881	20.747846
89.021080	-3.001800	3.848300	-11.551000	21.534282	0.000881	20.732721
90.019645	-3.027000	3.847700	-11.645000	21.537754	0.000881	20.740937
91.019094	-3.016900	3.846800	-11.603000	21.532885	0.000884	20.741281
92.020432	-3.019700	3.847200	-11.616000	21.554911	0.000883	20.723491
93.015420	-3.008000	3.847700	-11.572000	21.545915	0.000883	20.727292
94.024817	-3.002900	3.847600	-11.552000	21.559281	0.000883	20.742564
95.022382	-3.021400	3.846300	-11.619000	21.543072	0.000881	20.760010
96.017186	-2.991500	3.847700	-11.510000	21.565269	0.000885	20.753772
97.022922	-3.002300	3.846900	-11.548000	21.577516	0.000882	20.732835
98.020977	-2.986800	3.846400	-11.487000	21.574697	0.000886	20.729066
99.018838	-3.006200	3.845900	-11.560000	21.566348	0.000884	20.742523
100.025699	-2.988200	3.845000	-11.489000	21.565898	0.000884	20.734012
101.017518	-2.986400	3.845000	-11.482000	21.586992	0.000886	20.756070
102.020310	-2.986700	3.845900	-11.486000	21.602064	0.000884	20.739857
103.024541	-3.001900	3.845800	-11.543000	21.603012	0.000883	20.721364
104.021583	-2.998200	3.844000	-11.523000	21.601689	0.000886	20.762716
105.020751	-2.987400	3.845900	-11.488000	21.632013	0.000885	20.744223
106.024156	-2.988500	3.844000	-11.487000	21.630314	0.000885	20.738255
107.022666	-3.014300	3.844300	-11.587000	21.646529	0.000887	20.741206
108.019567	-2.961200	3.844200	-11.382000	21.671714	0.000886	20.754083
109.018638	-2.997200	3.843300	-11.516000	21.648572	0.000886	20.732344
110.019768	-2.973200	3.843700	-11.426000	21.662867	0.000886	20.753764
111.017047	-3.009800	3.842200	-11.563000	21.692969	0.000888	20.743111
112.026786	-2.996600	3.843100	-11.516000	21.673642	0.000889	20.736096
113.023598	-2.993700	3.843200	-11.504000	21.700648	0.000886	20.756486
114.021023	-2.975700	3.843200	-11.435000	21.707853	0.000888	20.742833
115.024678	-2.986000	3.843000	-11.474000	21.718357	0.000889	20.743863
116.021938	-2.981700	3.842900	-11.458000	21.711406	0.000888	20.755398
117.026982	-2.978500	3.843400	-11.446000	21.716356	0.000889	20.759879
118.033198	-3.009500	3.840700	-11.557000	21.731132	0.000888	20.755701
119.026595	-2.993400	3.841100	-11.496000	21.750189	0.000889	20.752488
120.022238	-3.002900	3.841100	-11.533000	21.759485	0.000888	20.759895
121.027750	-3.012700	3.839900	-11.566000	21.752452	0.000890	20.758546
122.021566	-3.037200	3.838100	-11.656000	21.753236	0.000890	20.737044
123.039660	-3.007800	3.839400	-11.547000	21.785721	0.000891	20.751065
124.025428	-3.003300	3.839800	-11.531000	21.771892	0.000890	20.749552
125.027719	-3.010100	3.840000	-11.558000	21.803110	0.000891	20.770367
126.023568	-2.988800	3.840700	-11.478000	21.798356	0.000892	20.742374
127.026896	-2.979400	3.840100	-11.439000	21.799647	0.000890	20.764055
128.024711	-2.988100	3.839800	-11.473000	21.814504	0.000892	20.764227
129.022610	-3.004300	3.838500	-11.530000	21.805258	0.000893	20.774413
130.027175	-3.019600	3.837900	-11.586000	21.828373	0.000894	20.760564
131.022576	-3.020000	3.837900	-11.590000	21.856151	0.000892	20.776988
132.030396	-3.018000	3.836700	-11.578000	21.833380	0.000894	20.756567
133.025746	-3.013000	3.838400	-11.565000	21.843516	0.000893	20.764341
134.024935	-3.009000	3.836300	-11.542000	21.866369	0.000892	20.766827
135.029206	-2.991600	3.837900	-11.480000	21.884231	0.000896	20.768110
136.031065	-2.976900	3.839400	-11.428000	21.868900	0.000896	20.774576
137.027307	-2.970100	3.839100	-11.401000	21.877599	0.000894	20.764316
138.028067	-2.981600	3.837900	-11.441000	21.901308	0.000894	20.782359
139.029825	-2.992700	3.836900	-11.481000	21.927010	0.000895	20.761145
140.025354	-2.997000	3.836800	-11.498000	21.921081	0.000895	20.764218
141.029397	-2.993400	3.836300	-11.482000	21.913494	0.000896	20.771797
142.027941	-2.997900	3.837800	-11.505000	21.919211	0.000898	20.786528
143.030403	-3.017900	3.836700	-11.578000	21.910431	0.000896	20.765886
144.026377	-3.008000	3.836000	-11.537000	21.940527	0.000899	20.785106
145.030378	-3.011300	3.836000	-11.550000	21.934638	0.000897	20.779686
146.032100	-2.997900	3.835900	-11.498000	21.927762	0.000895	20.773751
147.030535	-3.011500	3.834100	-11.544000	21.920722	0.000900	20.772394
148.031020	-3.000800	3.835600	-11.508000	21.958845	0.000898	20.782106
149.028268	-2.979200	3.836400	-11.428000	21.966375	0.000898	20.772099
150.033459	-2.999200	3.834800	-11.501000	21.960633	0.000898	20.772042
151.033538	-3.016700	3.834000	-11.564000	21.968482	0.000900	20.768044
152.032462	-3.010300	3.832600	-11.536000	21.981214	0.000901	20.767039
153.030779	-3.008300	3.833700	-11.533000	21.984309	0.000899	20.779146
154.035270	-3.020200	3.832300	-11.572000	22.015668	0.000902	20.777822
155.034472	-3.012300	3.832200	-11.542000	22.028783	0.000901	20.787632
156.034928	-3.012900	3.832300	-11.545000	22.014353	0.000901	20.797368
157.033413	-3.005000	3.832300	-11.515000	22.009021	0.000902	20.765951
158.034256	-2.966200	3.834400	-11.373000	22.027591	0.000903	20.783593
159.033639	-2.997800	3.832000	-11.486000	22.044740	0.000903	20.783217
160.030825	-3.008600	3.831000	-11.524000	22.034932	0.000904	20.788097
161.040371	-3.011700	3.832000	-11.540000	22.065776	0.000903	20.777724
162.031089	-2.992200	3.832600	-11.468000	22.064943	0.000906	20.785898
163.037323	-3.011200	3.830700	-11.534000	22.078474	0.000904	20.759615
164.042167	-3.005100	3.831600	-11.514000	22.094079	0.000906	20.787092
165.034265	-2.986100	3.833600	-11.446000	22.104923	0.000905	20.782301
166.040195	-3.007700	3.830900	-11.520000	22.102629	0.000905	20.790910
167.037395	-3.007100	3.830700	-11.519000	22.107863	0.000906	20.774339
168.034859	-3.005300	3.829600	-11.508000	22.108418	0.000907	20.789594
169.033695	-3.003000	3.829000	-11.498000	22.119222	0.000907	20.795668
170.035566	-2.999900	3.830100	-11.489000	22.141155	0.000907	20.784436
171.038552	-2.983400	3.830500	-11.426000	22.145196	0.000910	20.805077
172.037049	-3.004500	3.829000	-11.503000	22.162197	0.000908	20.801235
173.036604	-2.979600	3.829300	-11.408000	22.176951	0.000909	20.810792
174.052032	-3.009600	3.827700	-11.519000	22.162744	0.000908	20.774756
175.037791	-3.007200	3.828100	-11.510000	22.174004	0.000910	20.804996
176.040048	-2.997600	3.828800	-11.475000	22.190726	0.000912	20.790919
177.045114	-3.000100	3.828400	-11.484000	22.176691	0.000910	20.795358
178.035993	-3.001500	3.829000	-11.492000	22.191747	0.000911	20.795734
179.040362	-3.006100	3.827500	-11.506000	22.205056	0.000912	20.790567
180.036880	-3.006900	3.826200	-11.504000	22.206705	0.000911	20.782735
181.040552	-2.991600	3.827600	-11.449000	22.230727	0.000912	20.803942
182.036822	-2.992900	3.827200	-11.453000	22.209294	0.000913	20.801448
183.038542	-3.001400	3.826500	-11.484000	22.227510	0.000912	20.794557
184.039153	-3.005800	3.826300	-11.500000	22.223648	0.000915	20.816768
185.040853	-3.013000	3.827100	-11.530000	22.218765	0.000915	20.793387
186.039634	-2.979100	3.827800	-11.401000	22.236157	0.000915	20.801317
187.040250	-2.997000	3.827000	-11.467000	22.244909	0.000915	20.791589
188.041828	-2.989800	3.828300	-11.444000	22.274065	0.000917	20.817463
189.037179	-2.984200	3.825800	-11.415000	22.276318	0.000916	20.809762
190.040769	-2.993100	3.826300	-11.451000	22.294876	0.000917	20.816964
191.041366	-2.962600	3.825800	-11.333000	22.289888	0.000915	20.822401
192.041690	-2.992100	3.825000	-11.444000	22.300363	0.000919	20.834785
193.046616	-2.993800	3.825200	-11.450000	22.299783	0.000918	20.813817
194.042186	-2.980100	3.826400	-11.401000	22.307515	0.000919	20.819188
195.040040	-3.010600	3.823900	-11.511000	22.309875	0.000920	20.807326
196.046136	-3.008000	3.823700	-11.499000	22.307050	0.000922	20.822516
197.042701	-2.970800	3.824600	-11.361000	22.311197	0.000919	20.793952
198.040326	-2.996900	3.824300	-11.460000	22.306103	0.000922	20.821093
199.043922	-3.003100	3.822100	-11.477000	22.321631	0.000922	20.824314
200.041731	-2.996400	3.824100	-11.457000	22.348875	0.000921	20.819826
201.045463	-2.984400	3.823000	-11.409000	22.342058	0.000921	20.820112
202.042462	-3.003900	3.822500	-11.482000	22.355423	0.000921	20.816425
203.048123	-3.006000	3.822600	-11.490000	22.359382	0.000921	20.804743
204.046022	-3.004700	3.821800	-11.483000	22.359856	0.000923	20.831770
205.042938	-3.004800	3.821800	-11.482000	22.370918	0.000924	20.819614
206.046929	-2.995800	3.822800	-11.451000	22.390854	0.000923	20.813025
207.042314	-3.009000	3.822300	-11.500000	22.379294	0.000925	20.837010
208.042803	-3.001700	3.821400	-11.470000	22.394119	0.000926	20.826726
209.046076	-3.003000	3.821600	-11.474000	22.404087	0.000926	20.804466
210.043862	-3.011400	3.820400	-11.503000	22.387245	0.000929	20.843549
211.045307	-3.005500	3.821300	-11.483000	22.416096	0.000929	20.825500
212.049372	-2.998300	3.821100	-11.456000	22.401467	0.000929	20.815118
213.042651	-2.995900	3.821500	-11.448000	22.427916	0.000928	20.817897
214.058722	-2.993500	3.819800	-11.434000	22.423802	0.000929	20.823260
215.054834	-2.993800	3.819900	-11.435000	22.423851	0.000929	20.816671
216.047961	-2.990400	3.820000	-11.421000	22.419892	0.000930	20.812706
217.048605	-2.989300	3.818000	-11.412000	22.418839	0.000930	20.809281
218.048022	-3.000800	3.820600	-11.464000	22.429435	0.000930	20.816573
219.048533	-2.996200	3.818800	-11.441000	22.436161	0.000930	20.813352
220.046173	-2.982300	3.819500	-11.390000	22.440578	0.000932	20.815878
221.050882	-3.002600	3.817800	-11.463000	22.443116	0.000931	20.805144
222.046014	-2.989500	3.818400	-11.414000	22.467484	0.000932	20.813899
223.048956	-2.989600	3.818300	-11.414000	22.452488	0.000933	20.795563
224.051608	-2.995400	3.817700	-11.435000	22.443394	0.000932	20.803999
225.048021	-3.001400	3.817200	-11.456000	22.453492	0.000935	20.791352
226.045828	-3.020200	3.816500	-11.526000	22.453190	0.000935	20.819499
227.046946	-3.006300	3.816100	-11.472000	22.431059	0.000933	20.811561
228.047812	-3.028800	3.814900	-11.554000	22.435467	0.000936	20.820243
229.047655	-3.025100	3.815200	-11.540000	22.441875	0.000935	20.797737
230.049227	-3.013600	3.816600	-11.501000	22.481630	0.000937	20.809100
231.045806	-3.009300	3.815800	-11.482000	22.479336	0.000935	20.805855
232.054220	-3.014100	3.815400	-11.498000	22.494389	0.000938	20.803386
233.049791	-3.011600	3.815400	-11.488000	22.511637	0.000937	20.801219
234.054795	-3.005900	3.815800	-11.470000	22.529048	0.000939	20.805381
235.051746	-2.993900	3.814600	-11.419000	22.533562	0.000936	20.801367
236.059478	-2.996300	3.815000	-11.430000	22.512984	0.000941	20.799723
237.052372	-3.006700	3.814700	-11.469000	22.537798	0.000941	20.788066
238.052340	-3.003700	3.814100	-11.455000	22.544451	0.000940	20.811324
239.055817	-3.010900	3.814900	-11.485000	22.563143	0.000939	20.793061
240.052018	-3.002600	3.814900	-11.454000	22.567934	0.000942	20.795488
241.054122	-3.004800	3.813400	-11.458000	22.582284	0.000941	20.817921
242.054391	-2.999700	3.813300	-11.437000	22.589344	0.000942	20.798914
243.054324	-3.018800	3.812400	-11.508000	22.604174	0.000943	20.780102
244.053036	-3.002000	3.813100	-11.446000	22.612606	0.000942	20.794238
245.057132	-3.004900	3.812700	-11.456000	22.620630	0.000944	20.792316
246.054476	-3.003500	3.812000	-11.447000	22.626547	0.000943	20.786863
247.051235	-2.997800	3.812600	-11.427000	22.603293	0.000943	20.796764
248.058885	-2.984600	3.813400	-11.380000	22.621119	0.000944	20.777159
249.051895	-3.001600	3.810800	-11.437000	22.608949	0.000945	20.795791
250.055927	-2.974700	3.813100	-11.341000	22.635566	0.000945	20.802061
251.060114	-2.999000	3.811600	-11.430000	22.637337	0.000944	20.796248
252.053567	-2.982000	3.812300	-11.367000	22.665585	0.000946	20.775704
253.053786	-2.999200	3.809600	-11.424000	22.679811	0.000947	20.784264
254.058843	-3.013000	3.809600	-11.476000	22.658745	0.000947	20.773121
255.056603	-2.996700	3.810900	-11.418000	22.675060	0.000949	20.786144
256.053926	-2.999800	3.809900	-11.428000	22.679998	0.000948	20.797728
257.061236	-3.003600	3.810500	-11.444000	22.673591	0.000947	20.784198
258.056142	-2.989500	3.809100	-11.387000	22.641475	0.000949	20.770995
259.059540	-2.999100	3.809200	-11.422000	22.662802	0.000948	20.771494
260.058462	-3.007700	3.808500	-11.454000	22.666099	0.000949	20.778116
261.059995	-2.991300	3.808500	-11.391000	22.685352	0.000952	20.779857
262.053556	-2.994200	3.807600	-11.399000	22.703593	0.000947	20.763989
263.060290	-3.006800	3.809000	-11.451000	22.693799	0.000951	20.776938
264.056352	-2.993900	3.809600	-11.405000	22.654958	0.000952	20.786397
265.058949	-2.993200	3.808200	-11.398000	22.663879	0.000951	20.756451
266.059917	-3.004300	3.806400	-11.434000	22.681753	0.000953	20.780994
267.057828	-3.000300	3.807300	-11.422000	22.675934	0.000952	20.786070
268.060493	-3.010400	3.807500	-11.461000	22.700826	0.000952	20.795831
269.058866	-2.995300	3.806600	-11.401000	22.701047	0.000953	20.759067
270.057885	-2.995000	3.806900	-11.401000	22.689620	0.000955	20.777968
271.058105	-3.021500	3.804700	-11.494000	22.674717	0.000954	20.772524
272.069711	-3.043100	3.804200	-11.574000	22.665470	0.000954	20.766106
273.057609	-2.999300	3.807300	-11.419000	22.646013	0.000955	20.774592
274.061633	-2.997700	3.806200	-11.409000	22.655782	0.000957	20.766360
275.061205	-3.014100	3.804400	-11.465000	22.686552	0.000956	20.778214
276.063187	-2.989700	3.805200	-11.376000	22.692673	0.000958	20.770120
277.062985	-3.016100	3.803800	-11.472000	22.700149	0.000958	20.784721
278.058782	-2.989600	3.805900	-11.376000	22.731595	0.000958	20.761692
279.065213	-2.993800	3.804600	-11.389000	22.747941	0.000960	20.781860
280.059806	-2.993500	3.805300	-11.390000	22.755564	0.000958	20.774796
281.062897	-2.998300	3.802900	-11.402000	22.755074	0.000958	20.763400
282.059637	-2.998500	3.802600	-11.401000	22.806284	0.000960	20.772499
283.067402	-3.005600	3.803200	-11.430000	22.775999	0.000959	20.765869
284.063779	-3.025000	3.803500	-11.504000	22.790394	0.000959	20.770333
285.061053	-3.013600	3.802100	-11.458000	22.795299	0.000961	20.754857
286.065671	-3.012400	3.802700	-11.455000	22.797372	0.000961	20.763097
287.060768	-3.001900	3.801900	-11.413000	22.796523	0.000962	20.766515
288.068287	-3.010200	3.801900	-11.443000	22.812796	0.000964	20.742986
289.064528	-3.002600	3.801700	-11.413000	22.794263	0.000964	20.748128
290.080240	-3.012400	3.801500	-11.450000	22.823486	0.000964	20.744212
291.065397	-2.983100	3.802100	-11.342000	22.823257	0.000964	20.744932
292.061728	-2.973800	3.801300	-11.303000	22.815994	0.000965	20.758519
293.066923	-3.003000	3.800900	-11.413000	22.836690	0.000965	20.748431
294.066497	-3.027400	3.801500	-11.508000	22.850293	0.000966	20.763481
295.066504	-2.995100	3.800700	-11.383000	22.852162	0.000966	20.761086
296.067558	-2.996100	3.800100	-11.385000	22.859563	0.000967	20.751431
297.071194	-2.996900	3.799500	-11.386000	22.883840	0.000968	20.750148
298.069604	-2.983200	3.800400	-11.336000	22.864239	0.000968	20.743787
299.068937	-3.014000	3.798700	-11.448000	22.859563	0.000969	20.752379
300.067518	-2.992600	3.799000	-11.368000	22.847625	0.000969	20.766024
301.068331	-3.019000	3.798500	-11.466000	22.864459	0.000969	20.737844
302.068035	-3.017000	3.798100	-11.458000	22.896773	0.000970	20.734655
303.066404	-2.996100	3.797300	-11.377000	22.869355	0.000970	20.746542
304.064677	-2.996600	3.797600	-11.379000	22.860558	0.000972	20.759541
305.068298	-2.995600	3.798400	-11.377000	22.846139	0.000971	20.736560
306.069970	-2.992100	3.799700	-11.367000	22.877067	0.000971	20.748578
307.067940	-2.994100	3.798100	-11.371000	22.903677	0.000972	20.741097
308.067967	-2.986500	3.797800	-11.342000	22.915158	0.000973	20.747384
309.066767	-2.991200	3.796200	-11.354000	22.942069	0.000973	20.742103
310.069462	-3.007200	3.794900	-11.411000	22.948319	0.000974	20.751684
311.069547	-2.998900	3.795600	-11.382000	22.966376	0.000973	20.739429
312.077522	-2.999500	3.797200	-11.388000	22.983144	0.000972	20.739634
313.066688	-3.013300	3.794500	-11.433000	22.985624	0.000974	20.751603
314.069905	-2.989100	3.795100	-11.343000	23.009449	0.000975	20.738015
315.067017	-2.985100	3.795500	-11.329000	22.998393	0.000975	20.733575
316.069155	-2.992300	3.794200	-11.353000	22.999438	0.000975	20.724190
317.070287	-3.011100	3.793700	-11.422000	23.002750	0.000976	20.731777
318.067223	-3.004100	3.793600	-11.394000	23.033592	0.000975	20.732807
319.069797	-2.985600	3.795500	-11.330000	23.043228	0.000975	20.747204
320.070129	-2.993800	3.794200	-11.359000	23.027065	0.000978	20.754243
321.071119	-3.004800	3.793600	-11.397000	23.046303	0.000977	20.749337
322.069291	-3.013900	3.793600	-11.432000	23.085180	0.000978	20.737557
323.069762	-3.014900	3.792200	-11.432000	23.083353	0.000978	20.732880
324.068917	-2.973000	3.793500	-11.276000	23.097263	0.000979	20.726904
325.071305	-2.994100	3.792300	-11.354000	23.080644	0.000980	20.730166
326.071137	-2.987800	3.792500	-11.329000	23.093502	0.000981	20.739257
327.068898	-2.999800	3.792900	-11.377000	23.098234	0.000981	20.716022
328.071868	-2.991400	3.793100	-11.345000	23.091935	0.000980	20.732471
329.073774	-3.007600	3.790300	-11.399000	23.091356	0.000980	20.731417
330.076122	-3.005000	3.792200	-11.394000	23.110765	0.000983	20.702974
331.077396	-2.991900	3.791300	-11.341000	23.105935	0.000981	20.725636
332.073670	-2.971300	3.790400	-11.261000	23.088027	0.000980	20.722391
333.072444	-2.996300	3.789600	-11.354000	23.092212	0.000981	20.714256
334.073195	-2.993600	3.791100	-11.347000	23.103961	0.000982	20.738358
335.073195	-3.005700	3.789900	-11.391000	23.127726	0.000981	20.723290
336.073847	-3.013900	3.789500	-11.420000	23.155073	0.000984	20.718924
337.079382	-3.011400	3.788200	-11.407000	23.130884	0.000984	20.727877
338.081175	-2.995000	3.788500	-11.345000	23.130166	0.000985	20.707715
339.081479	-2.970600	3.789500	-11.255000	23.157161	0.000984	20.731449
340.082896	-3.014200	3.786500	-11.412000	23.171976	0.000983	20.722113
341.075862	-3.001400	3.788400	-11.370000	23.162839	0.000984	20.739036
342.080770	-3.003000	3.787900	-11.374000	23.161722	0.000985	20.711362
343.080166	-3.005700	3.787200	-11.382000	23.146604	0.000986	20.710438
344.076853	-2.991700	3.787000	-11.329000	23.131365	0.000989	20.717453
345.081143	-2.997100	3.785800	-11.345000	23.115929	0.000986	20.706252
346.077991	-3.003700	3.786700	-11.373000	23.109370	0.000987	20.732872
347.079782	-2.984700	3.786400	-11.300000	23.108725	0.000987	20.700455
348.084017	-2.999100	3.786100	-11.354000	23.103846	0.000986	20.724492
349.081364	-2.998200	3.784900	-11.347000	23.132385	0.000986	20.727958
350.083670	-3.012600	3.784300	-11.400000	23.140723	0.000989	20.723037
351.086730	-2.987300	3.785000	-11.306000	23.150088	0.000988	20.729103
352.083897	-2.972100	3.785100	-11.248000	23.096545	0.000990	20.708165
353.080608	-2.984000	3.785300	-11.295000	23.087358	0.000990	20.730255
354.084532	-2.999500	3.786200	-11.355000	23.089545	0.000988	20.720592
355.080679	-3.010200	3.783400	-11.388000	23.124585	0.000990	20.713978
356.080412	-2.995000	3.784100	-11.332000	23.119682	0.000990	20.710961
357.092198	-2.995100	3.784800	-11.334000	23.135167	0.000991	20.720788
358.085861	-3.016700	3.783500	-11.412000	23.144859	0.000990	20.725759
359.085635	-3.027000	3.782000	-11.446000	23.178642	0.000993	20.709825
360.086408	-3.010000	3.782500	-11.383000	23.169137	0.000992	20.715948
361.087584	-2.989800	3.784000	-11.311000	23.179596	0.000993	20.704617
362.085361	-3.007400	3.781900	-11.372000	23.191596	0.000992	20.713324
363.085579	-3.013900	3.781400	-11.396000	23.192224	0.000992	20.700676
364.086040	-2.999700	3.783200	-11.347000	23.209478	0.000993	20.731245
365.082711	-3.002800	3.781900	-11.355000	23.239213	0.000994	20.701772
366.083529	-3.009000	3.781100	-11.377000	23.250494	0.000995	20.710708
367.088120	-2.983100	3.780500	-11.276000	23.224170	0.000994	20.722260
368.090302	-3.002000	3.780400	-11.347000	23.255821	0.000993	20.707985
369.089772	-2.999000	3.778500	-11.331000	23.256148	0.000997	20.706890
370.086205	-2.972200	3.780900	-11.235000	23.272430	0.000995	20.701396
371.086262	-2.988400	3.780300	-11.296000	23.269844	0.000996	20.695010
372.092526	-2.994300	3.780400	-11.319000	23.271638	0.000996	20.714354
373.090519	-2.977600	3.780500	-11.257000	23.263073	0.000996	20.692492
374.083877	-3.003100	3.778600	-11.345000	23.247109	0.000997	20.713005
375.085709	-2.987100	3.779400	-11.287000	23.243699	0.000996	20.709113
376.085051	-2.998600	3.778600	-11.330000	23.242728	0.000997	20.696286
377.090288	-2.995200	3.777900	-11.315000	23.246807	0.000995	20.713651
378.087063	-3.004100	3.777000	-11.345000	23.233437	0.000999	20.692190
379.085109	-3.010500	3.777400	-11.370000	23.261776	0.000998	20.695460
380.086945	-3.013900	3.778700	-11.387000	23.292088	0.000998	20.712089
381.091412	-2.998700	3.776700	-11.324000	23.303060	0.000999	20.703644
382.087855	-3.013400	3.776700	-11.379000	23.305752	0.000998	20.693065
383.087667	-3.003100	3.777700	-11.343000	23.320499	0.000999	20.686507
384.089544	-3.001400	3.775600	-11.332000	23.312750	0.000999	20.701028
385.084425	-3.017500	3.775400	-11.391000	23.330899	0.000999	20.702622
386.086266	-2.998300	3.776300	-11.320000	23.337180	0.001000	20.707495
387.089275	-3.007600	3.774900	-11.352000	23.341935	0.001000	20.701829
388.090324	-2.988600	3.774600	-11.280000	23.316829	0.001002	20.683303
389.088803	-3.011100	3.773400	-11.361000	23.303394	0.001001	20.687382
390.090475	-3.009700	3.775500	-11.360000	23.276761	0.001000	20.694356
391.086720	-2.989600	3.774100	-11.282000	23.266785	0.001003	20.707119
392.089855	-2.980100	3.774500	-11.246000	23.279225	0.001003	20.676909
393.084604	-2.978300	3.774200	-11.239000	23.285285	0.001005	20.701952
394.086716	-3.025600	3.773100	-11.414000	23.280448	0.001002	20.699949
395.087203	-3.004000	3.773800	-11.336000	23.299006	0.001003	20.707642
396.090763	-3.009200	3.771800	-11.349000	23.294201	0.001004	20.703301
397.090192	-3.012700	3.770100	-11.356000	23.327311	0.001004	20.702344
398.092544	-2.996900	3.772500	-11.304000	23.325026	0.001002	20.685829
399.092765	-3.016200	3.771900	-11.375000	23.363241	0.001004	20.687145
400.093323	-3.000200	3.772300	-11.317000	23.371308	0.001003	20.691438
401.093116	-3.019300	3.771000	-11.385000	23.380223	0.001004	20.691364
402.099056	-3.007700	3.770600	-11.340000	23.359130	0.001005	20.694406
403.090168	-3.005500	3.770800	-11.332000	23.344187	0.001004	20.694128
404.090490	-3.010100	3.769000	-11.344000	23.346699	0.001005	20.717510
405.094631	-3.014500	3.768600	-11.360000	23.362572	0.001006	20.685526
406.091530	-3.034400	3.768200	-11.433000	23.381740	0.001006	20.678659
407.093863	-3.031400	3.767800	-11.420000	23.401405	0.001007	20.710226
408.092255	-2.999500	3.768300	-11.302000	23.395704	0.001005	20.702140
409.093167	-2.982200	3.768600	-11.237000	23.419374	0.001005	20.691724
410.096306	-3.007300	3.768800	-11.333000	23.420254	0.001006	20.688339
411.093137	-2.993000	3.768500	-11.278000	23.426192	0.001006	20.711362
412.104741	-3.006500	3.766700	-11.324000	23.453156	0.001008	20.699033
413.103116	-2.996700	3.767300	-11.289000	23.450522	0.001007	20.693073
414.095848	-3.005400	3.767200	-11.321000	23.469656	0.001009	20.698976
415.099466	-3.001500	3.765800	-11.301000	23.484825	0.001007	20.689525
416.101295	-2.987700	3.767800	-11.256000	23.493837	0.001007	20.707095
417.096708	-3.002700	3.766500	-11.309000	23.471556	0.001008	20.696613
418.098849	-2.984000	3.766600	-11.237000	23.463710	0.001009	20.693490
419.099482	-2.990400	3.766700	-11.263000	23.462634	0.001010	20.677237
420.099956	-2.997700	3.765900	-11.288000	23.419790	0.001008	20.682183
421.100604	-2.997700	3.766100	-11.289000	23.454967	0.001008	20.688994
422.102316	-2.978600	3.766100	-11.216000	23.437244	0.001010	20.703473
423.097998	-2.996000	3.764300	-11.276000	23.441469	0.001008	20.690637
424.102775	-3.006800	3.763600	-11.315000	23.464624	0.001011	20.687293
425.102092	-2.999200	3.764700	-11.290000	23.476662	0.001009	20.705051
426.100366	-2.993400	3.764200	-11.267000	23.489042	0.001009	20.720307
427.105871	-3.016000	3.761900	-11.345000	23.508135	0.001011	20.678750
428.103396	-2.985600	3.762300	-11.232000	23.515499	0.001012	20.711739
429.107113	-3.020000	3.762500	-11.362000	23.482012	0.001011	20.714208
430.105419	-2.998800	3.762000	-11.281000	23.475064	0.001011	20.688275
431.108551	-2.982200	3.762400	-11.219000	23.497965	0.001011	20.694161
432.105039	-3.002500	3.762200	-11.295000	23.502288	0.001011	20.695176
433.102903	-2.978200	3.762100	-11.203000	23.494801	0.001013	20.700473
434.113223	-2.973700	3.762100	-11.186000	23.501195	0.001011	20.720635
435.106396	-2.996100	3.761500	-11.268000	23.484639	0.001012	20.685070
436.104591	-2.986700	3.761700	-11.233000	23.480398	0.001012	20.709271
437.103093	-2.988800	3.761000	-11.240000	23.487070	0.001012	20.707423
438.106853	-3.031400	3.759100	-11.393000	23.477381	0.001013	20.709091
439.106411	-2.992600	3.759500	-11.249000	23.493790	0.001012	20.703728
440.106518	-3.012100	3.758600	-11.321000	23.512450	0.001013	20.710105
441.105210	-2.996500	3.759000	-11.263000	23.519668	0.001012	20.710702
442.107020	-2.993700	3.758900	-11.252000	23.498561	0.001013	20.706614
443.106978	-2.993200	3.759400	-11.252000	23.531469	0.001013	20.698348
444.106112	-3.006000	3.757600	-11.294000	23.534128	0.001013	20.710972
445.109008	-2.993300	3.759300	-11.251000	23.567743	0.001015	20.720014
446.105903	-3.000400	3.757700	-11.275000	23.592306	0.001013	20.718085
447.108047	-3.005500	3.756600	-11.289000	23.566039	0.001014	20.714038
448.109161	-3.006800	3.756200	-11.293000	23.556555	0.001016	20.695994
449.106454	-3.011500	3.756700	-11.311000	23.591083	0.001011	20.706426
450.108725	-3.029800	3.754000	-11.372000	23.584176	0.001015	20.690492
451.109091	-2.994200	3.757100	-11.247000	23.598325	0.001013	20.714161
452.106175	-3.009800	3.755500	-11.302000	23.584608	0.001015	20.683812
453.105052	-2.988500	3.755500	-11.222000	23.622471	0.001015	20.699485
454.108277	-2.993100	3.755700	-11.240000	23.634597	0.001015	20.715910
455.106823	-2.989100	3.754500	-11.222000	23.629525	0.001014	20.699444
456.109207	-2.987900	3.753500	-11.213000	23.656672	0.001017	20.701529
457.107205	-3.016800	3.752300	-11.318000	23.652268	0.001014	20.708969
458.109251	-2.999500	3.753800	-11.259000	23.653059	0.001014	20.709288
459.113376	-3.016400	3.753400	-11.321000	23.621582	0.001016	20.693378
460.113266	-3.004400	3.753200	-11.276000	23.618410	0.001015	20.725288
461.109762	-3.007000	3.752700	-11.283000	23.615760	0.001015	20.710301
462.112707	-3.011700	3.752600	-11.301000	23.619014	0.001015	20.703132
463.117554	-3.015900	3.751500	-11.313000	23.652749	0.001016	20.699967
464.118042	-3.001100	3.752100	-11.259000	23.698853	0.001017	20.709680
465.114102	-2.992100	3.751300	-11.224000	23.695616	0.001015	20.719237
466.116428	-3.007200	3.751000	-11.278000	23.667443	0.001016	20.685300
467.111004	-3.000600	3.751100	-11.255000	23.680017	0.001017	20.705968
468.111395	-3.014000	3.749900	-11.301000	23.692313	0.001016	20.710710
469.118366	-2.999900	3.749700	-11.247000	23.683556	0.001016	20.709990
470.112678	-2.984800	3.750400	-11.193000	23.681566	0.001016	20.721747
471.114951	-2.983600	3.750700	-11.189000	23.682911	0.001016	20.713612
472.110738	-3.002500	3.749000	-11.256000	23.680359	0.001016	20.737607
473.113103	-3.006400	3.749100	-11.270000	23.683417	0.001016	20.703686
474.111302	-2.987600	3.748700	-11.197000	23.683009	0.001017	20.712287
475.112366	-2.984100	3.748900	-11.186000	23.734575	0.001017	20.703768
476.112335	-2.981200	3.749400	-11.177000	23.735774	0.001016	20.728205
477.119813	-3.005300	3.748600	-11.265000	23.712682	0.001017	20.727338
478.115999	-2.994000	3.748200	-11.222000	23.708808	0.001017	20.726300
479.113647	-3.008000	3.749000	-11.275000	23.707291	0.001018	20.713873
480.127411	-3.015700	3.747300	-11.299000	23.721284	0.001017	20.707986
481.114898	-2.999900	3.747800	-11.242000	23.687110	0.001017	20.722089
482.118659	-2.978100	3.747800	-11.160000	23.709713	0.001018	20.720094
483.119893	-3.000400	3.745500	-11.236000	23.738912	0.001018	20.715229
484.117255	-3.006700	3.745100	-11.259000	23.771877	0.001017	20.733109
485.115443	-2.994200	3.746800	-11.218000	23.762770	0.001016	20.741048
486.118454	-2.984800	3.746100	-11.180000	23.760462	0.001017	20.705541
487.121111	-3.012100	3.744600	-11.279000	23.778433	0.001017	20.730673
488.115450	-3.004000	3.745700	-11.250000	23.783145	0.001018	20.716431
489.117686	-2.999000	3.742800	-11.224000	23.801621	0.001020	20.724050
490.118273	-3.008000	3.742700	-11.257000	23.818221	0.001019	20.694699
491.122799	-3.018300	3.743400	-11.298000	23.837446	0.001017	20.721090
492.123418	-3.017900	3.742800	-11.295000	23.856834	0.001017	20.712081
493.122169	-3.012300	3.743400	-11.275000	23.860299	0.001017	20.711762
494.119582	-3.000000	3.742300	-11.225000	23.875373	0.001018	20.738258
495.120805	-3.010700	3.741700	-11.264000	23.875544	0.001017	20.725627
496.120488	-2.991600	3.742900	-11.195000	23.903728	0.001017	20.723068
497.118543	-2.987000	3.742400	-11.177000	23.884096	0.001019	20.704804
498.119178	-3.023100	3.740100	-11.305000	23.840127	0.001018	20.719986
499.124964	-3.005800	3.741300	-11.245000	23.849911	0.001018	20.708458
500.124922	-2.977500	3.741100	-11.138000	23.820029	0.001018	20.722119
501.122600	-2.979000	3.740500	-11.143000	23.814485	0.001020	20.708973
502.122521	-2.996100	3.741100	-11.207000	23.812284	0.001020	20.728103
503.124097	-2.992700	3.741100	-11.195000	23.781276	0.001019	20.726411
504.118155	-3.002300	3.739900	-11.226000	23.763990	0.001018	20.719510
505.123821	-2.979800	3.740300	-11.145000	23.778308	0.001017	20.712528
506.126365	-3.024600	3.739200	-11.307000	23.793669	0.001018	20.699006
507.122927	-2.970200	3.740400	-11.109000	23.824806	0.001018	20.734022
508.123873	-2.983600	3.738200	-11.152000	23.813424	0.001019	20.718815
509.126558	-3.005800	3.737400	-11.233000	23.847382	0.001019	20.714932
510.121983	-3.005800	3.737500	-11.233000	23.871352	0.001019	20.732329
511.119635	-2.999100	3.738300	-11.210000	23.883410	0.001020	20.737782
512.122337	-2.991400	3.736700	-11.177000	23.904452	0.001019	20.746554
513.119603	-2.988800	3.736200	-11.166000	23.889377	0.001020	20.730489
514.122787	-2.989500	3.738000	-11.174000	23.907199	0.001017	20.725126
515.123823	-2.993100	3.736200	-11.182000	23.913191	0.001020	20.726393
516.122754	-3.010500	3.735800	-11.246000	23.925884	0.001019	20.707826
517.123515	-2.986500	3.736400	-11.157000	23.950928	0.001018	20.717768
518.127779	-3.002700	3.734800	-11.213000	23.938447	0.001019	20.732279
519.122023	-3.016000	3.733500	-11.258000	23.913035	0.001018	20.738092
520.121567	-3.001700	3.735300	-11.211000	23.903905	0.001019	20.733203
521.128349	-2.991700	3.734200	-11.170000	23.879675	0.001017	20.719337
522.123695	-3.001600	3.733500	-11.205000	23.890086	0.001021	20.735942
523.122321	-3.009700	3.732600	-11.233000	23.925598	0.001017	20.714652
524.128247	-2.987800	3.734400	-11.157000	23.920283	0.001020	20.726867
525.124478	-3.011200	3.733600	-11.241000	23.944487	0.001018	20.736914
526.128263	-3.008600	3.731100	-11.224000	23.929756	0.001019	20.715503
527.131647	-3.020000	3.730200	-11.264000	23.949477	0.001019	20.740969
528.129230	-2.977700	3.732300	-11.113000	23.911804	0.001021	20.719787
529.126459	-2.989800	3.732900	-11.159000	23.888227	0.001021	20.736448
530.134783	-3.017100	3.730600	-11.255000	23.907173	0.001020	20.715143
531.126298	-2.970600	3.732500	-11.087000	23.906733	0.001019	20.727030
532.128381	-2.997100	3.731400	-11.182000	23.917943	0.001019	20.719304
533.148634	-2.984300	3.731600	-11.135000	23.933351	0.001020	20.736178
534.129378	-3.021300	3.729500	-11.266000	23.937672	0.001018	20.732925
535.129160	-3.009300	3.729300	-11.222000	23.914185	0.001020	20.728812
536.137170	-2.987400	3.730400	-11.143000	23.920568	0.001021	20.716247
537.130693	-2.971400	3.728500	-11.078000	23.947993	0.001018	20.737585
538.130582	-2.990400	3.729600	-11.152000	23.970697	0.001020	20.714358
539.136522	-3.021400	3.727400	-11.261000	23.954947	0.001019	20.743136
540.133415	-2.996200	3.728700	-11.170000	23.984148	0.001020	20.736383
541.132766	-3.008200	3.727900	-11.213000	23.987669	0.001020	20.734699
542.136822	-3.020300	3.728900	-11.261000	24.000957	0.001018	20.722893
543.134089	-3.003800	3.727500	-11.195000	24.001243	0.001018	20.735982
544.133743	-2.992300	3.726000	-11.148000	24.010625	0.001019	20.741599
545.139253	-3.008700	3.725500	-11.208000	24.016682	0.001019	20.731077
546.130622	-3.013900	3.726100	-11.229000	24.022160	0.001022	20.739416
547.131701	-3.002500	3.726200	-11.188000	24.044765	0.001019	20.725575
548.144042	-3.003400	3.727200	-11.193000	24.061321	0.001019	20.759724
549.133807	-3.002200	3.724200	-11.180000	24.046893	0.001018	20.727235
550.137306	-2.996700	3.726800	-11.166000	24.053764	0.001019	20.730334
551.140748	-2.991400	3.725100	-11.142000	24.081764	0.001020	20.734233
552.137117	-2.993200	3.724700	-11.148000	24.070793	0.001019	20.733661
553.132895	-3.002600	3.724500	-11.182000	24.080452	0.001019	20.740504
554.137179	-2.977700	3.724700	-11.090000	24.103724	0.001019	20.740136
555.136639	-2.988100	3.723900	-11.126000	24.119358	0.001020	20.747756
556.137336	-2.999400	3.722500	-11.165000	24.152247	0.001018	20.743758
557.144093	-3.003900	3.723300	-11.183000	24.118592	0.001019	20.748884
558.140782	-3.009500	3.722000	-11.199000	24.119374	0.001020	20.740185
559.135850	-3.009500	3.723100	-11.204000	24.115715	0.001018	20.724660
560.146543	-2.985200	3.721800	-11.109000	24.104727	0.001019	20.748255
561.138816	-2.998800	3.721800	-11.160000	24.090593	0.001019	20.749726
562.140575	-3.003900	3.721900	-11.179000	24.104042	0.001019	20.730498
563.140812	-2.999900	3.721200	-11.163000	24.113253	0.001017	20.738788
564.141378	-2.995300	3.720400	-11.142000	24.128275	0.001017	20.746742
565.139849	-3.020300	3.720400	-11.235000	24.111387	0.001017	20.749244
566.144157	-3.007300	3.720500	-11.187000	24.114671	0.001019	20.742107
567.142903	-3.012100	3.719600	-11.203000	24.120337	0.001021	20.718864
568.143267	-2.997400	3.720500	-11.151000	24.152418	0.001019	20.759104
569.146546	-3.013000	3.718600	-11.201000	24.148254	0.001018	20.740701
570.143263	-3.001800	3.719100	-11.163000	24.192471	0.001017	20.740006
571.141544	-3.016100	3.718300	-11.214000	24.213360	0.001018	20.777555
572.142679	-3.005400	3.718200	-11.174000	24.206172	0.001016	20.745688
573.143683	-3.005300	3.717100	-11.170000	24.223630	0.001015	20.740914
574.145479	-2.989500	3.719200	-11.118000	24.213956	0.001019	20.753496
575.149588	-2.995100	3.716500	-11.129000	24.214599	0.001020	20.745132
576.144625	-2.974700	3.718000	-11.059000	24.202732	0.001017	20.756463
577.144518	-2.998500	3.717200	-11.144000	24.227493	0.001019	20.743367
578.149467	-2.999200	3.716900	-11.147000	24.219865	0.001019	20.742353
579.143776	-2.982400	3.718100	-11.088000	24.233223	0.001017	20.758123
580.144829	-3.011200	3.715500	-11.187000	24.243818	0.001020	20.763061
581.145511	-3.004600	3.715300	-11.163000	24.265571	0.001019	20.769708
582.145369	-3.016900	3.715300	-11.207000	24.295097	0.001018	20.744323
583.147398	-2.995400	3.716700	-11.132000	24.292318	0.001018	20.757657
584.151709	-3.011000	3.715600	-11.187000	24.274658	0.001019	20.757486
585.146632	-2.975900	3.714600	-11.052000	24.285856	0.001018	20.773460
586.145049	-3.000900	3.713800	-11.144000	24.293671	0.001016	20.762334
587.144948	-2.982600	3.714500	-11.077000	24.256948	0.001019	20.766274
588.147278	-2.992000	3.713900	-11.109000	24.264691	0.001019	20.765980
589.145302	-2.996100	3.712700	-11.122000	24.244837	0.001018	20.758393
590.145477	-2.997500	3.714600	-11.133000	24.235685	0.001017	20.776714
591.146588	-3.030300	3.712500	-11.249000	24.230542	0.001018	20.771556
592.147512	-2.991700	3.712200	-11.104000	24.236084	0.001019	20.773321
593.148170	-3.020100	3.710700	-11.205000	24.241308	0.001017	20.753431
594.148711	-2.996200	3.712300	-11.122000	24.242091	0.001016	20.771760
595.148402	-2.976300	3.714300	-11.053000	24.232286	0.001016	20.762874
596.144520	-2.999900	3.710700	-11.130000	24.240436	0.001018	20.768204
597.150298	-3.013400	3.711100	-11.182000	24.237486	0.001017	20.748174
598.149788	-3.010600	3.711300	-11.172000	24.255677	0.001015	20.742239
599.145737	-3.017400	3.709200	-11.191000	24.241243	0.001015	20.769487
600.149448	-3.007200	3.708800	-11.151000	24.249931	0.001018	20.768245
601.150976	-2.989800	3.709800	-11.090000	24.248073	0.001018	20.766855
602.152049	-3.018300	3.709100	-11.193000	24.253737	0.001018	20.775856
603.149535	-2.989200	3.709800	-11.088000	24.249989	0.001015	20.767828
604.151251	-2.992600	3.708800	-11.098000	24.230004	0.001015	20.791405
605.154499	-2.992700	3.709200	-11.099000	24.261154	0.001017	20.769545
606.150583	-2.996900	3.707500	-11.110000	24.272596	0.001018	20.781971
607.151085	-3.007000	3.706900	-11.145000	24.264112	0.001015	20.768245
608.150337	-2.995000	3.708700	-11.107000	24.264487	0.001016	20.768147
609.154466	-3.006200	3.708600	-11.148000	24.275596	0.001015	20.785454
610.154856	-3.004200	3.707200	-11.136000	24.272197	0.001016	20.799588
611.155252	-3.003400	3.706300	-11.130000	24.291757	0.001015	20.792182
612.155415	-2.979900	3.708900	-11.051000	24.292009	0.001016	20.775366
613.155481	-3.009200	3.706300	-11.152000	24.308871	0.001013	20.802237
614.155249	-3.011800	3.705900	-11.161000	24.314845	0.001016	20.773142
615.158792	-2.987300	3.706500	-11.071000	24.312359	0.001014	20.787244
616.164638	-3.000700	3.705500	-11.118000	24.311560	0.001017	20.782650
617.159202	-3.001100	3.705900	-11.121000	24.300656	0.001015	20.787358
618.160326	-3.016000	3.703500	-11.169000	24.288970	0.001014	20.775635
619.156646	-2.982000	3.704600	-11.046000	24.312180	0.001016	20.785168
620.160468	-2.986700	3.705400	-11.066000	24.311479	0.001016	20.788258
621.157855	-3.011300	3.703200	-11.150000	24.318944	0.001013	20.785789
622.161559	-3.005000	3.704500	-11.131000	24.338829	0.001014	20.818064
623.160851	-2.997900	3.704200	-11.105000	24.337525	0.001014	20.775030
624.158403	-2.989000	3.704600	-11.072000	24.329098	0.001014	20.808303
625.160279	-2.996200	3.703100	-11.094000	24.319914	0.001014	20.792926
626.161956	-3.005200	3.703600	-11.129000	24.337158	0.001014	20.800741
627.160102	-3.003200	3.701600	-11.114000	24.315317	0.001013	20.785944
628.159379	-3.007600	3.701000	-11.130000	24.287519	0.001015	20.810216
629.161985	-3.003900	3.701700	-11.118000	24.274169	0.001013	20.810102
630.159440	-3.015800	3.699900	-11.158000	24.280013	0.001014	20.782298
631.167474	-2.986500	3.702900	-11.058000	24.276231	0.001014	20.778031
632.166407	-2.986500	3.700200	-11.050000	24.295261	0.001015	20.785266
633.160285	-3.012000	3.699600	-11.142000	24.305766	0.001012	20.777311
634.162349	-2.999800	3.700600	-11.100000	24.319400	0.001011	20.799049
635.174326	-3.012500	3.698600	-11.141000	24.331592	0.001014	20.813175
636.168775	-2.991000	3.699600	-11.064000	24.332008	0.001012	20.811221
637.164543	-3.016900	3.698500	-11.156000	24.378279	0.001011	20.805957
638.167382	-2.979500	3.699900	-11.022000	24.373007	0.001012	20.804461
639.160961	-2.998700	3.699300	-11.091000	24.361883	0.001011	20.789034
640.165266	-3.013900	3.697000	-11.141000	24.368305	0.001011	20.845262
641.168064	-2.995100	3.698600	-11.077000	24.346114	0.001010	20.804036
642.163096	-2.994200	3.698800	-11.072000	24.374800	0.001012	20.794406
643.168056	-2.977100	3.697900	-11.008000	24.369723	0.001011	20.806382
644.169300	-2.998800	3.696400	-11.083000	24.385067	0.001010	20.819879
645.168585	-2.998300	3.696000	-11.080000	24.384399	0.001009	20.812570
646.170366	-2.988600	3.695700	-11.045000	24.394830	0.001011	20.811181
647.174867	-3.002900	3.695100	-11.095000	24.415422	0.001010	20.811450
648.165482	-3.018100	3.696100	-11.153000	24.411617	0.001010	20.796253
649.168886	-3.003200	3.695600	-11.097000	24.405424	0.001009	20.813274
650.168871	-3.004700	3.694000	-11.098000	24.390519	0.001009	20.791683
651.168994	-3.011900	3.694200	-11.125000	24.386192	0.001008	20.808679
652.171533	-2.992100	3.694400	-11.052000	24.373887	0.001007	20.785429
653.170826	-3.005700	3.694900	-11.104000	24.336490	0.001006	20.803390
654.171741	-2.999100	3.694800	-11.080000	24.334868	0.001008	20.797021
655.171858	-3.000500	3.694600	-11.084000	24.330003	0.001007	20.785029
656.173038	-2.999300	3.693800	-11.077000	24.346644	0.001007	20.799826
657.168950	-3.006300	3.692800	-11.100000	24.344827	0.001007	20.805589
658.171648	-3.007200	3.694200	-11.107000	24.373064	0.001008	20.789819
659.172432	-3.008400	3.691900	-11.105000	24.372868	0.001007	20.794839
660.175590	-2.980100	3.693200	-11.005000	24.359911	0.001007	20.789427
661.172798	-2.964900	3.694300	-10.952000	24.383535	0.001006	20.814549
662.177505	-2.967700	3.692400	-10.957000	24.376226	0.001008	20.777344
663.171894	-2.989700	3.691600	-11.035000	24.327697	0.001006	20.790302
664.173909	-2.984700	3.691900	-11.018000	24.320485	0.001006	20.772635
665.175568	-3.003700	3.690400	-11.084000	24.321283	0.001006	20.794774
666.172165	-3.006500	3.691300	-11.097000	24.305237	0.001006	20.779151
667.177123	-2.995500	3.690000	-11.053000	24.320012	0.001005	20.783067
668.173949	-2.966300	3.691100	-10.948000	24.317404	0.001005	20.773339
669.179774	-3.002300	3.688300	-11.072000	24.322180	0.001006	20.778129
670.172692	-3.026400	3.688600	-11.163000	24.320688	0.001006	20.769995
671.173983	-3.008900	3.688000	-11.096000	24.321381	0.001006	20.779699
672.175574	-3.001500	3.688100	-11.069000	24.368851	0.001005	20.786542
673.172885	-2.998200	3.688200	-11.057000	24.404821	0.001005	20.772840
674.173055	-3.001100	3.688000	-11.066000	24.401415	0.001003	20.777009
675.171695	-3.010700	3.686400	-11.098000	24.432234	0.001004	20.781375
676.175532	-3.009300	3.686800	-11.093000	24.459051	0.001003	20.799270
677.173983	-2.988100	3.687900	-11.019000	24.454251	0.001004	20.770747
678.180226	-2.995600	3.687200	-11.044000	24.499100	0.001003	20.779233
679.175301	-3.002700	3.686500	-11.067000	24.477507	0.001002	20.775113
680.180569	-3.004300	3.686700	-11.074000	24.509155	0.001001	20.783157
681.174673	-3.004900	3.686800	-11.077000	24.517229	0.001002	20.764231
682.177223	-3.013600	3.685700	-11.107000	24.554221	0.001003	20.759146
683.177739	-3.031000	3.685000	-11.167000	24.546489	0.001001	20.787899
684.179914	-2.994200	3.684900	-11.032000	24.570484	0.001001	20.756023
685.180999	-2.996600	3.684400	-11.038000	24.530820	0.001001	20.767436
686.180847	-2.979500	3.685800	-10.980000	24.530951	0.001001	20.768990
687.177824	-2.977700	3.686000	-10.974000	24.506523	0.001001	20.784310
688.176547	-3.004500	3.684200	-11.068000	24.511722	0.001001	20.768663
689.181255	-3.003800	3.682800	-11.062000	24.494839	0.000999	20.773061
690.175949	-2.995400	3.684200	-11.034000	24.516154	0.001000	20.776429
691.179677	-3.019300	3.684200	-11.123000	24.522355	0.000999	20.773168
692.180978	-3.009300	3.682300	-11.079000	24.556275	0.001000	20.775906
693.176718	-3.003400	3.684500	-11.064000	24.566476	0.001001	20.754372
694.177559	-3.011700	3.682800	-11.090000	24.571649	0.001001	20.779953
695.180722	-2.984800	3.682200	-10.989000	24.575112	0.000999	20.756874
696.179513	-2.981100	3.683100	-10.979000	24.592817	0.000998	20.769897
697.176776	-2.987400	3.681500	-10.998000	24.602146	0.001000	20.769775
698.184689	-3.000000	3.680800	-11.042000	24.617618	0.000999	20.763488
699.175571	-2.986300	3.681900	-10.994000	24.612224	0.001000	20.754283
700.178749	-3.014400	3.678800	-11.088000	24.619736	0.000999	20.758975
701.179809	-3.012100	3.680400	-11.085000	24.634784	0.001000	20.757479
702.178811	-2.989900	3.681900	-11.008000	24.624910	0.001000	20.763693
703.182460	-2.984500	3.679200	-10.979000	24.622254	0.001000	20.760553
704.186129	-2.991900	3.680200	-11.010000	24.621251	0.000998	20.761919
705.180796	-2.993000	3.678200	-11.007000	24.601502	0.001000	20.757749
706.182450	-2.997900	3.679000	-11.028000	24.615508	0.000998	20.763742
707.187195	-3.006400	3.678000	-11.057000	24.592972	0.000998	20.739706
708.181706	-3.007700	3.678100	-11.062000	24.560096	0.001000	20.756032
709.182930	-3.027800	3.678100	-11.134000	24.553179	0.000997	20.752411
710.185491	-3.002900	3.678700	-11.046000	24.558670	0.000997	20.758395
711.184061	-2.985500	3.677300	-10.977000	24.574917	0.000996	20.743401
712.184968	-2.997500	3.677700	-11.023000	24.577532	0.000997	20.743655
713.189003	-3.000300	3.676200	-11.027000	24.566802	0.000997	20.743319
714.193235	-3.030800	3.675800	-11.138000	24.592426	0.000996	20.749590
715.187541	-2.991700	3.676300	-10.997000	24.611654	0.000995	20.776471
716.188473	-3.003600	3.676800	-11.042000	24.628592	0.000996	20.754111
717.184927	-3.003800	3.676100	-11.041000	24.638336	0.000995	20.737335
718.185820	-2.982800	3.675300	-10.961000	24.617072	0.000992	20.737335
719.187640	-3.011100	3.675800	-11.067000	24.620999	0.000994	20.747440
720.188582	-2.994600	3.675100	-11.005000	24.609886	0.000993	20.751936
721.186731	-2.998200	3.674000	-11.014000	24.597404	0.000992	20.751266
722.191428	-2.999500	3.673700	-11.018000	24.600459	0.000993	20.740581
723.191566	-3.013900	3.672800	-11.069000	24.609471	0.000993	20.749623
724.191422	-2.997900	3.671800	-11.007000	24.589591	0.000994	20.746745
725.192972	-3.009600	3.672500	-11.052000	24.564032	0.000993	20.718728
726.192853	-2.995700	3.672400	-10.999000	24.543507	0.000991	20.743181
727.194718	-3.006600	3.672200	-11.040000	24.562068	0.000992	20.734776
728.196524	-2.986900	3.672800	-10.970000	24.571112	0.000992	20.741006
729.188422	-2.982200	3.673000	-10.953000	24.588206	0.000994	20.745355
730.191929	-2.990400	3.671600	-10.978000	24.608949	0.000992	20.737245
731.193256	-3.008600	3.671000	-11.044000	24.656578	0.000992	20.738096
732.190737	-3.008400	3.670100	-11.041000	24.668611	0.000994	20.747800
733.193405	-3.015800	3.669700	-11.066000	24.663022	0.000990	20.756417
734.191770	-3.011900	3.671700	-11.058000	24.665083	0.000991	20.750424
735.194166	-3.023000	3.669100	-11.090000	24.695992	0.000989	20.730705
736.196358	-2.983000	3.670700	-10.949000	24.672668	0.000990	20.742862
737.192630	-2.982300	3.671000	-10.947000	24.683813	0.000989	20.754046
738.197483	-2.993000	3.671000	-10.986000	24.676473	0.000987	20.747628
739.192070	-3.005000	3.668800	-11.022000	24.686901	0.000989	20.740074
740.196028	-2.995900	3.669300	-10.991000	24.717980	0.000989	20.743761
741.192284	-2.993100	3.668200	-10.978000	24.675234	0.000989	20.742592
742.195701	-3.000900	3.668800	-11.009000	24.701589	0.000990	20.739641
743.196516	-2.991300	3.669100	-10.974000	24.689557	0.000988	20.743688
744.199101	-3.000900	3.669700	-11.011000	24.688831	0.000990	20.755289
745.198177	-3.010600	3.668100	-11.042000	24.708237	0.000989	20.761960
746.195374	-3.009300	3.666500	-11.033000	24.717752	0.000988	20.736420
747.196136	-3.013400	3.667400	-11.050000	24.712783	0.000988	20.734278
748.197709	-2.985200	3.667000	-10.946000	24.731960	0.000987	20.738823
749.199767	-2.979100	3.667500	-10.924000	24.737222	0.000986	20.748846
750.200293	-3.008100	3.665000	-11.022000	24.702526	0.000988	20.735839
751.201700	-2.998400	3.665400	-10.989000	24.667657	0.000987	20.743524
752.199759	-3.002500	3.665500	-11.005000	24.648259	0.000987	20.754405
753.198023	-3.003300	3.664500	-11.005000	24.635574	0.000987	20.746418
754.203423	-2.995600	3.664800	-10.977000	24.649351	0.000986	20.726576
755.200351	-2.989400	3.665000	-10.953000	24.675283	0.000986	20.734106
756.204956	-3.009400	3.663100	-11.023000	24.671975	0.000983	20.734106
757.200515	-3.001200	3.664000	-10.996000	24.711772	0.000986	20.744170
758.205838	-2.991000	3.664000	-10.958000	24.712114	0.000985	20.726494
759.215123	-3.011500	3.664200	-11.034000	24.719519	0.000984	20.714484
760.205310	-3.014700	3.662300	-11.039000	24.737499	0.000984	20.725889
761.210276	-2.989400	3.663100	-10.949000	24.738012	0.000985	20.714549
762.206820	-2.996000	3.661400	-10.969000	24.719764	0.000983	20.730377
763.203907	-3.023400	3.662600	-11.072000	24.685271	0.000983	20.711410
764.209109	-3.019100	3.661400	-11.053000	24.683478	0.000984	20.716724
765.205013	-3.000000	3.662600	-10.987000	24.696212	0.000984	20.744202
766.204957	-3.005800	3.661300	-11.004000	24.717368	0.000983	20.740302
767.212455	-2.990200	3.661600	-10.948000	24.712774	0.000981	20.716250
768.208031	-3.004800	3.660400	-10.998000	24.719910	0.000981	20.732421
769.211702	-2.980900	3.662100	-10.915000	24.729930	0.000982	20.716871
770.208803	-2.976100	3.662000	-10.898000	24.750997	0.000982	20.728530
771.208371	-2.975700	3.661600	-10.895000	24.750826	0.000982	20.721719
772.207311	-2.991700	3.661800	-10.954000	24.735185	0.000980	20.706971
773.206103	-2.984700	3.659800	-10.923000	24.701955	0.000982	20.736215
774.207225	-2.989200	3.659500	-10.938000	24.705613	0.000981	20.733721
775.205061	-2.966500	3.661000	-10.858000	24.709140	0.000979	20.723510
776.208354	-2.994700	3.658900	-10.956000	24.734957	0.000979	20.729502
777.214600	-2.985600	3.659500	-10.924000	24.792575	0.000979	20.720468
778.208446	-2.973400	3.659400	-10.880000	24.791532	0.000982	20.725112
779.204731	-2.993900	3.658000	-10.950000	24.801250	0.000979	20.704044
780.210520	-3.003400	3.657800	-10.983000	24.817819	0.000978	20.719725
781.208078	-2.997000	3.657700	-10.961000	24.809535	0.000977	20.730851
782.211344	-3.006000	3.657500	-10.992000	24.773978	0.000977	20.725513
783.210465	-2.993600	3.656700	-10.945000	24.740733	0.000976	20.742886
784.210714	-3.017900	3.655900	-11.032000	24.724391	0.000975	20.707044
785.211679	-3.013000	3.656300	-11.015000	24.741026	0.000975	20.721842
786.208496	-2.988300	3.656500	-10.926000	24.741621	0.000976	20.730500
787.212487	-2.997600	3.655500	-10.957000	24.761424	0.000975	20.718130
788.212934	-3.008700	3.655300	-10.996000	24.790416	0.000977	20.749598
789.212180	-3.011200	3.654900	-11.005000	24.787850	0.000975	20.713830
790.212379	-2.990700	3.656000	-10.933000	24.791337	0.000974	20.726813
791.213527	-3.004400	3.653400	-10.975000	24.816948	0.000975	20.721221
792.212849	-3.000500	3.654700	-10.965000	24.810659	0.000976	20.722022
793.210281	-2.994200	3.653600	-10.939000	24.824613	0.000975	20.699514
794.210136	-2.974100	3.655000	-10.868000	24.832221	0.000975	20.704305
795.214346	-3.003900	3.653600	-10.975000	24.839732	0.000973	20.706627
796.219169	-2.996600	3.652100	-10.943000	24.883204	0.000974	20.718965
797.220386	-2.991600	3.653300	-10.928000	24.873430	0.000972	20.702989
798.218607	-3.003700	3.652900	-10.971000	24.853042	0.000973	20.706235
799.218436	-3.008700	3.653300	-10.991000	24.858833	0.000973	20.728170
800.218457	-3.027300	3.650900	-11.049000	24.848374	0.000973	20.706767
801.220329	-3.004600	3.652200	-10.973000	24.856398	0.000974	20.717190
802.222961	-2.984800	3.651500	-10.899000	24.824947	0.000972	20.697479
803.213423	-3.007200	3.651700	-10.981000	24.788275	0.000972	20.697185
804.221152	-3.002800	3.652700	-10.967000	24.759201	0.000972	20.701673
805.215929	-3.011800	3.649200	-10.989000	24.765514	0.000970	20.706587
806.213412	-2.995900	3.650000	-10.934000	24.765139	0.000973	20.690562
807.220234	-3.010400	3.650800	-10.988000	24.746045	0.000971	20.711231
808.218687	-3.013300	3.649400	-10.996000	24.717613	0.000970	20.693129
809.216227	-3.002100	3.648900	-10.953000	24.726965	0.000970	20.690186
810.219122	-3.004400	3.650100	-10.965000	24.738004	0.000969	20.711696
811.223542	-3.005400	3.648700	-10.964000	24.768667	0.000968	20.694102
812.219944	-2.987200	3.649600	-10.900000	24.760268	0.000970	20.698951
813.217937	-3.000900	3.649400	-10.951000	24.759421	0.000967	20.699523
814.221876	-2.957800	3.649000	-10.791000	24.794351	0.000968	20.710396
815.215937	-2.997900	3.647500	-10.934000	24.816361	0.000968	20.680326
816.221051	-2.994300	3.649000	-10.924000	24.817331	0.000966	20.681299
817.221675	-3.002800	3.647500	-10.952000	24.800737	0.000967	20.695467
818.219938	-2.967200	3.648500	-10.823000	24.778931	0.000967	20.688755
819.220174	-2.998900	3.647000	-10.936000	24.789749	0.000967	20.685861
820.219584	-3.000100	3.647900	-10.942000	24.784780	0.000965	20.677554
821.220264	-3.027100	3.644300	-11.031000	24.782466	0.000965	20.706529
822.222511	-2.993000	3.645800	-10.911000	24.784796	0.000966	20.698435
823.219225	-3.008000	3.646000	-10.966000	24.766890	0.000965	20.679990
824.218774	-3.002300	3.644700	-10.940000	24.811653	0.000963	20.689826
825.221313	-2.988100	3.645400	-10.892000	24.821428	0.000964	20.685885
826.221674	-2.986500	3.646200	-10.888000	24.816703	0.000965	20.686360
827.221838	-2.989200	3.644800	-10.894000	24.807702	0.000963	20.685861
828.221025	-3.006900	3.645700	-10.962000	24.839789	0.000964	20.686294
829.221377	-2.985200	3.644000	-10.877000	24.818333	0.000963	20.711705
830.220695	-2.996100	3.645300	-10.920000	24.885469	0.000962	20.709383
831.219181	-2.997900	3.643700	-10.922000	24.872363	0.000961	20.689115
832.221652	-3.018900	3.642600	-10.996000	24.902671	0.000962	20.705311
833.220020	-2.989200	3.643100	-10.888000	24.918734	0.000962	20.687766
834.218462	-3.007100	3.641400	-10.949000	24.909831	0.000961	20.684046
835.219621	-3.001900	3.642400	-10.933000	24.943030	0.000961	20.665683
836.222823	-2.994000	3.643000	-10.907000	24.930699	0.000960	20.698354
837.225723	-3.005700	3.642100	-10.946000	24.922961	0.000961	20.687267
838.222541	-2.993000	3.642100	-10.898000	24.923433	0.000960	20.696751
839.224553	-2.986700	3.642100	-10.877000	24.932246	0.000961	20.691372
840.218646	-2.988400	3.642400	-10.883000	24.906825	0.000959	20.695255
841.223458	-3.010200	3.639600	-10.954000	24.900937	0.000959	20.684602
842.223773	-2.977800	3.641500	-10.843000	24.927221	0.000960	20.677317
843.226130	-3.017600	3.639600	-10.982000	24.933216	0.000959	20.691396
844.220329	-3.004600	3.641000	-10.938000	24.960346	0.000958	20.669313
845.219735	-2.993300	3.639500	-10.893000	24.945474	0.000959	20.701804
846.225552	-3.007400	3.639300	-10.943000	24.890055	0.000958	20.694070
847.222360	-2.995100	3.639500	-10.899000	24.920558	0.000958	20.673949
848.225392	-2.992300	3.638100	-10.884000	24.913048	0.000958	20.678266
849.225476	-2.987400	3.637400	-10.865000	24.941800	0.000959	20.680098
850.223081	-2.995300	3.639000	-10.899000	24.917528	0.000955	20.708843
851.224145	-2.993600	3.638000	-10.890000	24.868356	0.000956	20.690783
852.225937	-3.003000	3.636600	-10.919000	24.810489	0.000955	20.672061
853.232190	-3.006200	3.638300	-10.937000	24.804225	0.000954	20.701338
854.223104	-3.000100	3.637400	-10.912000	24.774288	0.000954	20.693105
855.223151	-3.008400	3.636400	-10.939000	24.777571	0.000953	20.654670
856.226438	-3.003400	3.636200	-10.920000	24.777897	0.000955	20.673966
857.224426	-3.016900	3.636200	-10.969000	24.805056	0.000954	20.696956
858.227911	-2.994500	3.635700	-10.887000	24.837248	0.000955	20.702712
859.235193	-3.028100	3.634900	-11.006000	24.860406	0.000953	20.665258
860.233099	-3.014500	3.634400	-10.956000	24.873683	0.000953	20.677163
861.232608	-3.003500	3.634400	-10.915000	24.898722	0.000953	20.707511
862.230047	-3.002000	3.635300	-10.912000	24.913244	0.000952	20.677514
863.233071	-2.979000	3.635300	-10.828000	24.952112	0.000953	20.679068
864.226456	-3.005300	3.631700	-10.913000	24.952650	0.000952	20.688617
865.228467	-3.017100	3.631700	-10.956000	25.002527	0.000952	20.677040
866.229516	-3.013200	3.632600	-10.944000	24.955688	0.000950	20.676966
867.228106	-2.987800	3.633800	-10.856000	24.927466	0.000950	20.693212
868.235676	-2.992700	3.632900	-10.871000	24.920282	0.000951	20.681733
869.233380	-2.982000	3.633400	-10.833000	24.964484	0.000949	20.685796
870.234480	-2.989200	3.632700	-10.858000	24.982940	0.000950	20.673500
871.230912	-2.977400	3.633400	-10.817000	25.001184	0.000949	20.677588
872.239710	-2.995700	3.632100	-10.880000	24.989521	0.000951	20.688167
873.228367	-3.007100	3.629700	-10.914000	24.967392	0.000948	20.690612
874.232616	-2.995300	3.631300	-10.876000	24.933908	0.000949	20.685927
875.229475	-2.993900	3.630300	-10.868000	24.921992	0.000947	20.676337
876.229036	-2.987300	3.630900	-10.845000	24.939414	0.000947	20.683867
877.232629	-2.999000	3.630800	-10.887000	24.927588	0.000948	20.695231
878.231779	-3.004900	3.631000	-10.910000	24.919809	0.000947	20.697856
879.231413	-3.002700	3.630000	-10.899000	24.949343	0.000946	20.694781
880.229512	-3.011200	3.627800	-10.921000	24.951061	0.000948	20.684178
881.229514	-2.996500	3.630400	-10.877000	24.975976	0.000945	20.692116
882.229501	-2.989800	3.631000	-10.856000	24.993976	0.000947	20.682681
883.230932	-2.974200	3.629500	-10.793000	24.983029	0.000945	20.689712
884.231922	-3.006600	3.629300	-10.910000	24.984300	0.000948	20.697627
885.231712	-3.003900	3.627600	-10.896000	24.995018	0.000943	20.680883
886.236416	-3.007700	3.626500	-10.906000	25.008986	0.000945	20.686369
887.233150	-2.980400	3.627400	-10.810000	25.023605	0.000946	20.687292
888.231439	-3.024900	3.625900	-10.965000	25.046132	0.000943	20.671022
889.237728	-3.000300	3.627100	-10.882000	25.076411	0.000944	20.692411
890.234687	-2.985700	3.627100	-10.829000	25.067787	0.000946	20.702246
891.234420	-2.983000	3.626000	-10.815000	25.063079	0.000942	20.697520
892.238603	-2.990600	3.627400	-10.847000	25.089987	0.000942	20.696081
893.233595	-2.997500	3.624900	-10.864000	25.048469	0.000943	20.679534
894.234806	-3.002900	3.624400	-10.883000	25.038208	0.000942	20.683458
895.240304	-3.004400	3.624800	-10.889000	25.030739	0.000942	20.687816
896.234795	-2.997200	3.624400	-10.862000	25.041954	0.000940	20.670148
897.238845	-3.025400	3.624200	-10.964000	25.056076	0.000940	20.699025
898.240392	-3.008000	3.624600	-10.901000	25.041612	0.000941	20.677392
899.241009	-3.016200	3.622800	-10.926000	25.021667	0.000940	20.685347
900.237336	-2.996200	3.623400	-10.854000	24.990693	0.000941	20.696458
901.237343	-3.002300	3.623500	-10.877000	24.983209	0.000940	20.698428
902.235666	-2.998700	3.623000	-10.863000	24.952104	0.000938	20.706089
903.237186	-2.996200	3.621600	-10.850000	24.956413	0.000939	20.694291
904.244039	-2.991200	3.622400	-10.835000	24.966773	0.000939	20.693784
905.244327	-2.988800	3.621400	-10.823000	24.952080	0.000939	20.698477
906.239419	-3.005600	3.620600	-10.881000	24.960982	0.000938	20.693187
907.240801	-3.009200	3.621400	-10.896000	24.942290	0.000939	20.698608
908.243572	-3.010300	3.621000	-10.899000	24.926725	0.000937	20.710013
909.239591	-3.004600	3.620100	-10.874000	24.976921	0.000936	20.703971
910.239092	-3.014000	3.620600	-10.911000	24.902973	0.000936	20.678111
911.239992	-3.003200	3.618700	-10.866000	24.902672	0.000937	20.682550
912.238534	-3.015400	3.620000	-10.915000	24.876550	0.000935	20.701854
913.240276	-3.014700	3.618700	-10.908000	24.864853	0.000935	20.699597
914.240644	-3.001500	3.619900	-10.865000	24.844937	0.000935	20.695730
915.244189	-3.012600	3.618100	-10.898000	24.844074	0.000934	20.692967
916.247400	-2.990700	3.618400	-10.820000	24.868641	0.000936	20.691544
917.243868	-2.997000	3.619600	-10.846000	24.915704	0.000934	20.702745
918.239042	-2.980100	3.617800	-10.781000	24.947641	0.000934	20.691176
919.243856	-3.004100	3.618100	-10.867000	24.985530	0.000932	20.700758
920.242342	-2.989400	3.618500	-10.816000	25.024835	0.000935	20.702753
921.243093	-3.024100	3.616300	-10.936000	25.031497	0.000931	20.699009
922.242468	-3.016600	3.616900	-10.909000	25.030536	0.000931	20.707054
923.248094	-3.010900	3.614900	-10.883000	25.037345	0.000929	20.708672
924.243454	-3.018700	3.617800	-10.920000	24.987672	0.000931	20.699115
925.244926	-3.015500	3.615500	-10.901000	25.015241	0.000930	20.686958
926.245507	-2.991300	3.616900	-10.818000	25.011218	0.000931	20.728915
927.246250	-2.990200	3.615300	-10.809000	25.041482	0.000931	20.702868
928.248287	-2.988300	3.615100	-10.803000	25.056931	0.000930	20.711738
929.242139	-2.981400	3.615400	-10.778000	25.024444	0.000927	20.697145
930.246095	-3.017100	3.614400	-10.904000	24.990857	0.000928	20.715115
931.243144	-2.989100	3.614600	-10.804000	24.995108	0.000927	20.707054
932.245762	-2.992800	3.615300	-10.819000	24.992543	0.000928	20.709220
933.243018	-2.999000	3.614000	-10.837000	25.051296	0.000925	20.712245
934.246612	-2.992300	3.614200	-10.814000	25.080703	0.000926	20.694349
935.245026	-2.997900	3.612200	-10.827000	25.048315	0.000926	20.709253
936.246196	-3.000400	3.612500	-10.838000	25.051923	0.000928	20.714298
937.255126	-3.014400	3.611200	-10.883000	25.041930	0.000928	20.706163
938.243739	-3.006900	3.612300	-10.860000	24.994294	0.000926	20.708607
939.247120	-3.001000	3.611600	-10.837000	24.988992	0.000926	20.699491
940.244894	-3.019200	3.610500	-10.899000	24.982028	0.000927	20.705304
941.247470	-2.998100	3.611800	-10.828000	24.981930	0.000926	20.701412
942.244585	-2.993300	3.611100	-10.808000	24.996973	0.000925	20.728368
943.247487	-3.020800	3.610000	-10.903000	24.975789	0.000925	20.716112
944.260678	-3.014100	3.612400	-10.887000	25.010884	0.000922	20.714354
945.251388	-3.011500	3.608900	-10.867000	25.041767	0.000923	20.710267
946.251995	-2.999200	3.610900	-10.829000	25.045790	0.000922	20.717150
947.250904	-2.992600	3.610900	-10.805000	25.053820	0.000922	20.743704
948.252602	-2.999800	3.610100	-10.829000	25.053470	0.000923	20.726282
949.245891	-3.023500	3.608900	-10.908000	25.024037	0.000922	20.733722
950.247833	-2.993300	3.607900	-10.797000	25.009352	0.000923	20.722301
951.245676	-3.002600	3.608500	-10.834000	24.982280	0.000920	20.736853
952.249256	-3.001700	3.607400	-10.826000	25.028100	0.000920	20.725473
953.250799	-2.983900	3.607300	-10.762000	25.044201	0.000921	20.709865
954.247692	-3.026200	3.607700	-10.917000	25.079750	0.000919	20.695762
955.248521	-2.976100	3.607900	-10.736000	25.073479	0.000917	20.720763
956.252089	-3.016200	3.605100	-10.872000	25.102536	0.000918	20.708205
957.251300	-2.987200	3.606800	-10.773000	25.124906	0.000919	20.721654
958.249671	-3.001200	3.606700	-10.822000	25.151804	0.000918	20.741071
959.248594	-2.985500	3.606800	-10.767000	25.121054	0.000917	20.742919
960.251482	-2.980300	3.606600	-10.747000	25.116950	0.000917	20.734057
961.251107	-2.988400	3.606800	-10.778000	25.074961	0.000918	20.726519
962.247649	-2.989700	3.605300	-10.778000	25.089294	0.000918	20.739485
963.250151	-3.012700	3.605000	-10.859000	25.098472	0.000915	20.744905
964.249800	-3.005400	3.604000	-10.830000	25.102153	0.000915	20.732479
965.250961	-3.006100	3.604200	-10.834000	25.119254	0.000916	20.734947
966.250174	-3.024200	3.603100	-10.896000	25.147268	0.000914	20.742207
967.250558	-3.007500	3.602600	-10.833000	25.185826	0.000914	20.725439
968.250527	-2.987000	3.604000	-10.765000	25.213829	0.000914	20.730794
969.250866	-2.998100	3.602700	-10.800000	25.207649	0.000913	20.737866
970.250340	-2.980500	3.602400	-10.737000	25.225417	0.000913	20.740057
971.251461	-2.994600	3.603100	-10.788000	25.214725	0.000911	20.711303
972.252054	-3.003900	3.600700	-10.815000	25.202153	0.000911	20.743254
973.248515	-2.981700	3.603300	-10.742000	25.226084	0.000910	20.742150
974.250231	-3.013400	3.601200	-10.851000	25.230319	0.000913	20.760152
975.251334	-3.007600	3.599900	-10.826000	25.217608	0.000910	20.739803
976.252882	-3.013300	3.600100	-10.847000	25.218055	0.000909	20.752107
977.255970	-2.994300	3.601000	-10.781000	25.224195	0.000910	20.744047
978.250562	-3.004000	3.599400	-10.812000	25.226491	0.000910	20.734971
979.255761	-3.018700	3.599500	-10.865000	25.235709	0.000910	20.742804
980.251983	-3.006100	3.598900	-10.817000	25.240391	0.000909	20.742763
981.252767	-3.001800	3.598400	-10.801000	25.198537	0.000908	20.737727
982.257470	-3.018600	3.597200	-10.856000	25.216036	0.000907	20.734906
983.256905	-3.021200	3.596700	-10.865000	25.163741	0.000906	20.740727
984.255033	-3.003500	3.598400	-10.807000	25.120671	0.000906	20.750121
985.253248	-3.010100	3.597000	-10.826000	25.093007	0.000906	20.739419
986.254531	-3.016300	3.598500	-10.853000	25.082053	0.000906	20.736958
987.251698	-2.990000	3.597900	-10.756000	25.087078	0.000906	20.743899
988.258721	-3.003600	3.595300	-10.796000	25.092363	0.000907	20.752050
989.250935	-3.015900	3.595900	-10.844000	25.092681	0.000905	20.749997
990.256440	-2.994000	3.596600	-10.767000	25.131509	0.000905	20.757208
991.254312	-2.985500	3.597600	-10.739000	25.172299	0.000903	20.763544
992.256251	-2.997700	3.594700	-10.775000	25.185727	0.000902	20.754739
993.256511	-2.976700	3.596200	-10.703000	25.201655	0.000902	20.752237
994.257274	-2.993000	3.594400	-10.757000	25.234853	0.000903	20.763756
995.260886	-3.011100	3.593900	-10.820000	25.232117	0.000902	20.736352
996.253983	-2.995400	3.594500	-10.766000	25.242434	0.000902	20.757142
997.256536	-2.977000	3.594800	-10.700000	25.277951	0.000902	20.734954
998.254766	-3.001500	3.593400	-10.784000	25.265591	0.000902	20.748149
999.256602	-2.965200	3.594400	-10.656000	25.309852	0.000898	20.746596
1000.255470	-3.005400	3.591800	-10.794000	25.332365	0.000902	20.766830
1001.257777	-3.011300	3.592800	-10.818000	25.305276	0.000901	20.752433
1002.256062	-3.000900	3.592500	-10.780000	25.313394	0.000898	20.772438
1003.255754	-3.003700	3.591800	-10.788000	25.311326	0.000898	20.735747
1004.262043	-3.005200	3.591700	-10.791000	25.266877	0.000900	20.761769
1005.256115	-3.010400	3.590900	-10.810000	25.287754	0.000898	20.763764
1006.262322	-2.990100	3.592600	-10.740000	25.281566	0.000897	20.761818
1007.257148	-2.983200	3.591300	-10.712000	25.290978	0.000898	20.761311
1008.255742	-2.989100	3.591400	-10.734000	25.263628	0.000896	20.765145
1009.256524	-2.994100	3.590000	-10.747000	25.260794	0.000895	20.786008
1010.259602	-3.007500	3.588900	-10.793000	25.261209	0.000895	20.767933
1011.257426	-2.994300	3.590300	-10.749000	25.258986	0.000893	20.750053
1012.258085	-3.013900	3.590500	-10.819000	25.293535	0.000895	20.775258
1013.262425	-3.005200	3.588300	-10.782000	25.302776	0.000894	20.772682
1014.257358	-3.013900	3.587900	-10.813000	25.329392	0.000896	20.772854
1015.259686	-2.975500	3.590200	-10.682000	25.339057	0.000892	20.757901
1016.259688	-3.005300	3.587600	-10.781000	25.354632	0.000893	20.776860
1017.258242	-2.986400	3.587800	-10.712000	25.346336	0.000893	20.776590
1018.259775	-2.986400	3.587400	-10.713000	25.352523	0.000892	20.769527
1019.261717	-3.007000	3.586400	-10.783000	25.357237	0.000892	20.760983
1020.263166	-2.988000	3.586900	-10.716000	25.367154	0.000892	20.774734
1021.263851	-3.017900	3.585300	-10.819000	25.372023	0.000889	20.782942
1022.260809	-3.010900	3.586400	-10.797000	25.371803	0.000892	20.782247
1023.262056	-3.011400	3.586100	-10.798000	25.396838	0.000890	20.759495
1024.261113	-3.004700	3.585400	-10.772000	25.395185	0.000891	20.791501
1025.262136	-3.014100	3.583800	-10.801000	25.415059	0.000891	20.778266
1026.263960	-3.015500	3.583000	-10.803000	25.417420	0.000889	20.774947
1027.271893	-2.997000	3.585800	-10.745000	25.422711	0.000889	20.791166
1028.268322	-3.000900	3.584300	-10.755000	25.418307	0.000888	20.783424
1029.264019	-2.974300	3.583800	-10.658000	25.416068	0.000889	20.791608
1030.262695	-2.989100	3.584400	-10.713000	25.413740	0.000888	20.799227
1031.265864	-2.990600	3.583400	-10.716000	25.400762	0.000887	20.788092
1032.263005	-3.005500	3.582600	-10.767000	25.391839	0.000886	20.797624
1033.267444	-2.967600	3.584200	-10.636000	25.377152	0.000887	20.783351
1034.274436	-3.018900	3.582300	-10.814000	25.376126	0.000887	20.782321
1035.262489	-3.014400	3.582100	-10.796000	25.375312	0.000885	20.789564
1036.267238	-3.006000	3.581800	-10.766000	25.386368	0.000884	20.782648
1037.270884	-3.004900	3.581800	-10.762000	25.367862	0.000883	20.788722
1038.264180	-3.002300	3.581400	-10.751000	25.351277	0.000882	20.768276
1039.267600	-3.000900	3.581800	-10.746000	25.360624	0.000883	20.789041
1040.272482	-2.998800	3.580900	-10.738000	25.345684	0.000882	20.782574
1041.264290	-3.016100	3.581100	-10.799000	25.368009	0.000883	20.795981
1042.269594	-3.004300	3.580400	-10.755000	25.372576	0.000882	20.806257
1043.273131	-3.012300	3.579500	-10.782000	25.367333	0.000881	20.784397
1044.273005	-2.994000	3.578400	-10.712000	25.364027	0.000881	20.793880
1045.269770	-2.975700	3.580800	-10.654000	25.390699	0.000881	20.791738
1046.271019	-2.976500	3.580500	-10.657000	25.394355	0.000880	20.780236
1047.276486	-3.010400	3.577600	-10.769000	25.392067	0.000879	20.813026
1048.267162	-3.007600	3.578800	-10.763000	25.352653	0.000879	20.798107
1049.284020	-3.006600	3.578100	-10.757000	25.346270	0.000878	20.780318
1050.270027	-3.026600	3.578800	-10.830000	25.340994	0.000877	20.799202
1051.270607	-3.018700	3.577000	-10.796000	25.367024	0.000877	20.804001
1052.278174	-3.010400	3.576600	-10.766000	25.395055	0.000875	20.809388
1053.275214	-3.006200	3.575700	-10.748000	25.396749	0.000876	20.785959
1054.271302	-3.003200	3.576600	-10.740000	25.388770	0.000874	20.809715
1055.275008	-2.989900	3.577000	-10.694000	25.386580	0.000875	20.803723
1056.274865	-3.008900	3.575900	-10.758000	25.398059	0.000876	20.830896
1057.267224	-3.022600	3.575000	-10.804000	25.390382	0.000874	20.814179
1058.276860	-2.993000	3.575700	-10.701000	25.366649	0.000875	20.811211
1059.270982	-3.004100	3.575200	-10.739000	25.393166	0.000873	20.810337
1060.273560	-3.004900	3.575000	-10.741000	25.411631	0.000876	20.815127
1061.278097	-3.010600	3.574900	-10.761000	25.445319	0.000872	20.818610
1062.276421	-2.982000	3.575100	-10.660000	25.461577	0.000874	20.805064
1063.274169	-2.994000	3.574200	-10.700000	25.483745	0.000872	20.826376
1064.279812	-2.999600	3.574600	-10.721000	25.506181	0.000871	20.825673
1065.274502	-2.990800	3.573600	-10.687000	25.494026	0.000872	20.803036
1066.277864	-2.991400	3.573900	-10.690000	25.472673	0.000871	20.821422
1067.277588	-3.016500	3.571500	-10.772000	25.524139	0.000869	20.796766
1068.273754	-2.998900	3.572900	-10.713000	25.521208	0.000870	20.830332
1069.274487	-2.982300	3.571800	-10.652000	25.527265	0.000871	20.819819
1070.277309	-3.029000	3.571000	-10.816000	25.529072	0.000867	20.834910
1071.276533	-3.018300	3.570100	-10.775000	25.513719	0.000869	20.848415
1072.272304	-2.990600	3.571400	-10.680000	25.534990	0.000868	20.822362
1073.278373	-2.996900	3.570700	-10.701000	25.566867	0.000867	20.817865
1074.276046	-2.998500	3.570200	-10.704000	25.554266	0.000865	20.808530
1075.275948	-2.974900	3.570500	-10.620000	25.600982	0.000866	20.803289
1076.280993	-2.995900	3.569900	-10.694000	25.590994	0.000868	20.825501
1077.276999	-3.010100	3.569100	-10.741000	25.569993	0.000866	20.848505
1078.276446	-3.015000	3.568700	-10.759000	25.538759	0.000867	20.829940
1079.276413	-2.971100	3.568600	-10.601000	25.551238	0.000865	20.825877
1080.278546	-3.000300	3.567000	-10.701000	25.520785	0.000863	20.812838
1081.276471	-2.996300	3.568000	-10.690000	25.521957	0.000863	20.823972
1082.277033	-2.985000	3.567500	-10.647000	25.500783	0.000863	20.811718
1083.280622	-2.980800	3.567400	-10.633000	25.481025	0.000862	20.828861
1084.276385	-3.003200	3.567100	-10.711000	25.473194	0.000861	20.835221
1085.278180	-3.007400	3.566300	-10.724000	25.496053	0.000861	20.811235
1086.276342	-2.985300	3.566000	-10.644000	25.497665	0.000861	20.830872
1087.278470	-2.985600	3.565500	-10.645000	25.532311	0.000861	20.839112
1088.274083	-2.979200	3.566000	-10.623000	25.508777	0.000860	20.836341
1089.284774	-3.001500	3.565200	-10.700000	25.537814	0.000860	20.841319
1090.280324	-3.002300	3.564000	-10.699000	25.515770	0.000861	20.824397
1091.279368	-3.031000	3.564300	-10.802000	25.570091	0.000860	20.847654
1092.278431	-2.990200	3.564000	-10.656000	25.560566	0.000859	20.836193
1093.278480	-3.004700	3.563400	-10.706000	25.535608	0.000859	20.834362
1094.276327	-3.000300	3.563100	-10.689000	25.513442	0.000857	20.832964
1095.280628	-3.013200	3.563300	-10.736000	25.488067	0.000858	20.833087
1096.281255	-2.999300	3.562100	-10.681000	25.502956	0.000856	20.831444
1097.277970	-3.016300	3.561700	-10.741000	25.544001	0.000855	20.849428
1098.281734	-2.997000	3.562700	-10.676000	25.556643	0.000855	20.852641
1099.279071	-2.987900	3.561900	-10.641000	25.566728	0.000852	20.851864
1100.283542	-2.995900	3.561600	-10.669000	25.551791	0.000852	20.857251
1101.281078	-2.990900	3.561500	-10.651000	25.551441	0.000853	20.855003
1102.282413	-3.029200	3.560400	-10.784000	25.528379	0.000853	20.844172
1103.278522	-3.012100	3.559700	-10.722000	25.507279	0.000853	20.837207
1104.279967	-3.013600	3.560200	-10.727000	25.457351	0.000852	20.838278
1105.281606	-2.980300	3.561700	-10.614000	25.483467	0.000852	20.834632
1106.283613	-2.983200	3.561000	-10.621000	25.471907	0.000851	20.841041
1107.285924	-2.992600	3.559300	-10.650000	25.493594	0.000850	20.835318
1108.278789	-3.010700	3.559100	-10.714000	25.516282	0.000850	20.846722
1109.288520	-2.986500	3.558400	-10.626000	25.522941	0.000850	20.814056
1110.284056	-2.988900	3.558800	-10.635000	25.482433	0.000850	20.843076
1111.280731	-2.983900	3.558800	-10.617000	25.529845	0.000848	20.848488
1112.284368	-3.012800	3.558600	-10.719000	25.541852	0.000849	20.833046
1113.291310	-3.015300	3.555100	-10.718000	25.529592	0.000847	20.837329
1114.280807	-2.991700	3.558200	-10.644000	25.504242	0.000847	20.818511
1115.284598	-3.006900	3.556100	-10.690000	25.525709	0.000848	20.830585
1116.285912	-3.010800	3.556100	-10.705000	25.517634	0.000848	20.839071
1117.284932	-2.973700	3.557700	-10.577000	25.497176	0.000848	20.834174
1118.282982	-3.013600	3.556100	-10.716000	25.459207	0.000847	20.839667
1119.286467	-3.001500	3.556800	-10.675000	25.433726	0.000845	20.846322
1120.283394	-3.021400	3.553900	-10.735000	25.421864	0.000845	20.837730
1121.285054	-3.007700	3.553700	-10.687000	25.438326	0.000844	20.839087
1122.286982	-2.997000	3.555800	-10.656000	25.472412	0.000841	20.824953
1123.283151	-3.003300	3.553700	-10.671000	25.499195	0.000843	20.836675
1124.293714	-3.019600	3.553900	-10.730000	25.530357	0.000843	20.828141
1125.284305	-2.991100	3.554300	-10.630000	25.526279	0.000842	20.827364
1126.283082	-3.003900	3.553300	-10.673000	25.542031	0.000842	20.838441
1127.283233	-2.987800	3.555000	-10.620000	25.563179	0.000842	20.823645
1128.287348	-3.016400	3.551800	-10.713000	25.570717	0.000841	20.836904
1129.286463	-3.001800	3.552300	-10.661000	25.580160	0.000841	20.828370
1130.286424	-3.018400	3.552000	-10.720000	25.596749	0.000840	20.842185
1131.296303	-3.006000	3.551000	-10.674000	25.593428	0.000841	20.821781
1132.290735	-3.005300	3.549300	-10.665000	25.596717	0.000839	20.825084
1133.285437	-2.997700	3.550000	-10.640000	25.567958	0.000837	20.829392
1134.289412	-2.986700	3.549700	-10.601000	25.575707	0.000838	20.813467
1135.284242	-2.997200	3.549200	-10.637000	25.600803	0.000836	20.822549
1136.286149	-3.005600	3.550500	-10.671000	25.600990	0.000837	20.807565
1137.297485	-2.994000	3.550600	-10.630000	25.593379	0.000836	20.820784
1138.294251	-2.980200	3.548800	-10.575000	25.602203	0.000836	20.823956
1139.289335	-3.004700	3.549000	-10.663000	25.600526	0.000833	20.823694
1140.291877	-3.014700	3.546600	-10.691000	25.593493	0.000836	20.811415
1141.286574	-3.019600	3.547700	-10.712000	25.587193	0.000836	20.835907
1142.287280	-3.018200	3.548700	-10.710000	25.579037	0.000833	20.831035
1143.292456	-3.011700	3.547500	-10.683000	25.564051	0.000833	20.826891
1144.286555	-2.993000	3.547300	-10.615000	25.528339	0.000833	20.812838
1145.289306	-3.004100	3.546500	-10.652000	25.537652	0.000834	20.808440
1146.293211	-2.987500	3.546000	-10.593000	25.555634	0.000831	20.798998
1147.292756	-2.988800	3.546400	-10.599000	25.574763	0.000834	20.803036
1148.294947	-3.022100	3.546300	-10.715000	25.564767	0.000830	20.800584
1149.296588	-2.999800	3.546400	-10.637000	25.613095	0.000831	20.799333
1150.294699	-3.006700	3.544800	-10.657000	25.598997	0.000830	20.799399
1151.294456	-2.984300	3.546600	-10.584000	25.572729	0.000831	20.808105
1152.296859	-2.985700	3.544700	-10.582000	25.562439	0.000830	20.818160
1153.298745	-2.985300	3.546100	-10.586000	25.575643	0.000831	20.823834
1154.292352	-3.001900	3.543800	-10.637000	25.522902	0.000827	20.812119
1155.298492	-3.022400	3.544300	-10.712000	25.511888	0.000828	20.825714
1156.294542	-2.987000	3.544300	-10.586000	25.486578	0.000826	20.815471
1157.293672	-2.985900	3.544200	-10.581000	25.506482	0.000825	20.797527
1158.297214	-3.011700	3.542200	-10.666000	25.518392	0.000825	20.805219
1159.292343	-2.993800	3.543400	-10.607000	25.550832	0.000824	20.802236
1160.298565	-3.012800	3.541800	-10.670000	25.563628	0.000825	20.813664
1161.316183	-2.988900	3.541300	-10.583000	25.567511	0.000822	20.807607
1162.296903	-2.977600	3.542100	-10.546000	25.588342	0.000822	20.821889
1163.299735	-3.008600	3.541500	-10.654000	25.564044	0.000821	20.808866
1164.298135	-2.995100	3.542000	-10.608000	25.563124	0.000824	20.815528
1165.295705	-3.012700	3.541000	-10.667000	25.520256	0.000821	20.806618
1166.298172	-3.006700	3.539900	-10.642000	25.526085	0.000821	20.824799
1167.301458	-3.010000	3.539300	-10.652000	25.544776	0.000820	20.789990
1168.296478	-3.016600	3.540500	-10.679000	25.577646	0.000819	20.818733
1169.298283	-3.019100	3.538800	-10.684000	25.578387	0.000818	20.819003
1170.304059	-2.994000	3.538600	-10.594000	25.562261	0.000819	20.795222
1171.301991	-3.006300	3.538800	-10.636000	25.519614	0.000818	20.801705
1172.300962	-2.983800	3.538700	-10.557000	25.505986	0.000816	20.786597
1173.302464	-2.995600	3.539200	-10.601000	25.512304	0.000817	20.816649
1174.302619	-2.981400	3.538500	-10.548000	25.537043	0.000816	20.789810
1175.299495	-3.026500	3.536300	-10.701000	25.565371	0.000815	20.788862
1176.300442	-3.002900	3.538500	-10.625000	25.594000	0.000812	20.787742
1177.302377	-3.005100	3.537000	-10.627000	25.627813	0.000813	20.800364
1178.303339	-2.994000	3.537600	-10.591000	25.621195	0.000814	20.812684
1179.304429	-2.996600	3.535700	-10.595000	25.606031	0.000812	20.796032
1180.310695	-3.016500	3.536800	-10.668000	25.627723	0.000811	20.792688
1181.304539	-2.990000	3.536100	-10.572000	25.585135	0.000812	20.797332
1182.310225	-2.998800	3.535600	-10.601000	25.543759	0.000812	20.817418
1183.308206	-2.989600	3.535900	-10.570000	25.570272	0.000813	20.806112
1184.306987	-3.004400	3.534100	-10.617000	25.576450	0.000812	20.784816
1185.308028	-2.991600	3.534100	-10.571000	25.621228	0.000810	20.811295
1186.311358	-3.001600	3.533000	-10.603000	25.625795	0.000810	20.802605
1187.308595	-3.000200	3.533600	-10.599000	25.614716	0.000811	20.803332
1188.309223	-2.988000	3.534700	-10.561000	25.601473	0.000807	20.814688
1189.307050	-3.018400	3.532300	-10.661000	25.577460	0.000809	20.796261
1190.304757	-3.000900	3.533200	-10.601000	25.558900	0.000807	20.797536
1191.312736	-2.989200	3.531800	-10.556000	25.533405	0.000807	20.781889
1192.308166	-2.999800	3.530000	-10.588000	25.524230	0.000807	20.799229
1193.302845	-2.995700	3.531400	-10.578000	25.545078	0.000805	20.801673
1194.310929	-3.005800	3.530100	-10.609000	25.526982	0.000804	20.793932
1195.312262	-2.998600	3.531900	-10.589000	25.552575	0.000804	20.795452
1196.303389	-3.010100	3.528700	-10.621000	25.564004	0.000805	20.756195
1197.312689	-3.010900	3.528400	-10.621000	25.621904	0.000804	20.801068
1198.308614	-2.998500	3.528900	-10.580000	25.628864	0.000803	20.807584
1199.305635	-2.981300	3.530300	-10.524000	25.633275	0.000801	20.801109
1200.309878	-2.983100	3.529700	-10.528000	25.643141	0.000801	20.794422
1201.310992	-3.009700	3.528600	-10.619000	25.609996	0.000803	20.795272
1202.309130	-3.010800	3.527400	-10.620000	25.593415	0.000802	20.792370
1203.313601	-2.994400	3.528700	-10.566000	25.596304	0.000800	20.780573
1204.309628	-2.973100	3.529400	-10.492000	25.559104	0.000801	20.777353
1205.307078	-2.977500	3.527900	-10.503000	25.550077	0.000798	20.818547
1206.309953	-3.005500	3.527800	-10.602000	25.564290	0.000799	20.774025
1207.308442	-2.981700	3.527000	-10.515000	25.531590	0.000800	20.777696
1208.318539	-3.012700	3.525700	-10.621000	25.544606	0.000797	20.778914
1209.313675	-3.010000	3.524700	-10.609000	25.538444	0.000796	20.772726
1210.310294	-2.961600	3.526300	-10.442000	25.567765	0.000797	20.768507
1211.309558	-2.999700	3.525800	-10.575000	25.590403	0.000795	20.777966
1212.312779	-3.005800	3.524100	-10.591000	25.601465	0.000795	20.779593
1213.311248	-2.979900	3.524900	-10.501000	25.638282	0.000795	20.783378
1214.313835	-2.984200	3.524400	-10.517000	25.648342	0.000795	20.783999
1215.323840	-3.001900	3.523400	-10.575000	25.654056	0.000795	20.769349
1216.311330	-2.986100	3.524100	-10.522000	25.653226	0.000792	20.792698
1217.310929	-3.008800	3.524000	-10.602000	25.656270	0.000793	20.785324
1218.314304	-3.003300	3.521300	-10.575000	25.651273	0.000794	20.794529
1219.313850	-3.005600	3.521500	-10.583000	25.653356	0.000790	20.775759
1220.317950	-3.002800	3.521500	-10.574000	25.664963	0.000792	20.783623
1221.318683	-3.030600	3.519500	-10.665000	25.671369	0.000791	20.786264
1222.315456	-3.001100	3.521400	-10.567000	25.699100	0.000792	20.780451
1223.312730	-3.009500	3.520700	-10.595000	25.713132	0.000793	20.760880
1224.313059	-2.986700	3.520600	-10.514000	25.733430	0.000790	20.769415
1225.314013	-3.015700	3.518500	-10.609000	25.692434	0.000788	20.772334
1226.313967	-2.976800	3.521500	-10.482000	25.663637	0.000789	20.770437
1227.313797	-2.986600	3.520200	-10.512000	25.671288	0.000788	20.787131
1228.315016	-3.013800	3.518300	-10.602000	25.629597	0.000787	20.774655
1229.316883	-3.013500	3.518900	-10.604000	25.643475	0.000786	20.765360
1230.318622	-3.008100	3.518300	-10.582000	25.628970	0.000789	20.778768
1231.314851	-3.012200	3.517300	-10.594000	25.589883	0.000787	20.764641
1232.316840	-3.000100	3.518200	-10.554000	25.598430	0.000786	20.764690
1233.316730	-2.995100	3.519100	-10.539000	25.606350	0.000787	20.762687
1234.317084	-2.987600	3.517700	-10.508000	25.621775	0.000786	20.773912
1235.316298	-3.002600	3.516600	-10.557000	25.648734	0.000785	20.774435
1236.321036	-3.001800	3.516900	-10.555000	25.667739	0.000785	20.781196
1237.320925	-2.992600	3.515600	-10.520000	25.703048	0.000785	20.752648
1238.316459	-2.980900	3.517600	-10.485000	25.722321	0.000784	20.769162
1239.320130	-2.997700	3.514900	-10.536000	25.712066	0.000783	20.756965
1240.319462	-2.980700	3.516800	-10.482000	25.712725	0.000783	20.756679
1241.321170	-3.003100	3.515100	-10.556000	25.725552	0.000783	20.752019
1242.319421	-3.009500	3.513700	-10.574000	25.770967	0.000783	20.751168
1243.319072	-3.013200	3.513300	-10.585000	25.790980	0.000779	20.755150
1244.318787	-3.011900	3.513900	-10.583000	25.750629	0.000781	20.764405
1245.320242	-3.004700	3.512600	-10.552000	25.763529	0.000781	20.753654
1246.322406	-3.011600	3.512700	-10.577000	25.780620	0.000779	20.757071
1247.319698	-3.014000	3.511000	-10.581000	25.779700	0.000779	20.749509
1248.322734	-2.994700	3.511600	-10.515000	25.761478	0.000778	20.765345
1249.319358	-3.023700	3.510100	-10.613000	25.754796	0.000779	20.750098
1250.334629	-2.991200	3.512100	-10.505000	25.746331	0.000777	20.734008
1251.324499	-3.008500	3.509500	-10.557000	25.739145	0.000778	20.755240
1252.325035	-2.990500	3.510200	-10.496000	25.774541	0.000775	20.735317
1253.322944	-3.008100	3.510600	-10.559000	25.780531	0.000777	20.762672
1254.326388	-3.005100	3.509600	-10.546000	25.769568	0.000775	20.763040
1255.323844	-3.001900	3.510100	-10.535000	25.774647	0.000773	20.750597
1256.326926	-3.015300	3.509400	-10.581000	25.752762	0.000774	20.772237
1257.323900	-3.020600	3.507100	-10.593000	25.741954	0.000775	20.761855
1258.324769	-2.993600	3.510000	-10.506000	25.676580	0.000770	20.742185
1259.328166	-3.009500	3.507900	-10.556000	25.640734	0.000773	20.748856
1260.331126	-3.003700	3.507400	-10.534000	25.601191	0.000771	20.754661
1261.326001	-3.006100	3.507500	-10.543000	25.592913	0.000769	20.757726
1262.329737	-2.998900	3.507000	-10.516000	25.625204	0.000770	20.733732
1263.329292	-2.979200	3.507100	-10.447000	25.665731	0.000770	20.755945
1264.327699	-2.998200	3.506800	-10.513000	25.670322	0.000770	20.760556
1265.328547	-3.005200	3.505200	-10.532000	25.703384	0.000769	20.756779
1266.324424	-2.994700	3.505300	-10.497000	25.704849	0.000769	20.735016
1267.328643	-2.995800	3.505800	-10.502000	25.682873	0.000766	20.743290
1268.328415	-3.009500	3.507600	-10.554000	25.689612	0.000766	20.743420
1269.326745	-2.986100	3.505400	-10.467000	25.680407	0.000766	20.760728
1270.333982	-2.984500	3.505500	-10.461000	25.685380	0.000764	20.764775
1271.328964	-3.004300	3.504500	-10.527000	25.671951	0.000766	20.738009
1272.330543	-3.035000	3.503000	-10.629000	25.656575	0.000763	20.732523
1273.328635	-3.002600	3.503400	-10.518000	25.656193	0.000764	20.749209
1274.333801	-3.023100	3.503000	-10.588000	25.623187	0.000766	20.744983
1275.334156	-2.986500	3.503100	-10.461000	25.621974	0.000764	20.737601
1276.331271	-2.970500	3.504000	-10.407000	25.649837	0.000762	20.747567
1277.333292	-3.011700	3.500100	-10.539000	25.666254	0.000761	20.756470
1278.331216	-2.994600	3.500600	-10.482000	25.643122	0.000762	20.756944
1279.336794	-2.978100	3.502100	-10.429000	25.660630	0.000760	20.752244
1280.330812	-2.990100	3.500000	-10.464000	25.669429	0.000761	20.717931
1281.334111	-2.963000	3.500300	-10.370000	25.692927	0.000759	20.764769
1282.335551	-3.004400	3.499900	-10.514000	25.698316	0.000759	20.740782
1283.331638	-3.013700	3.498600	-10.542000	25.685985	0.000760	20.744993
1284.331474	-2.982100	3.500000	-10.436000	25.704762	0.000759	20.760060
1285.340496	-3.011500	3.498500	-10.535000	25.718200	0.000756	20.748427
1286.334123	-2.985100	3.500200	-10.447000	25.747663	0.000757	20.733924
1287.334678	-3.016700	3.496600	-10.548000	25.760132	0.000756	20.730801
1288.333827	-3.009800	3.496200	-10.522000	25.815840	0.000756	20.731283
1289.332574	-3.027200	3.496400	-10.582000	25.784076	0.000757	20.740154
1290.334972	-2.992200	3.496700	-10.461000	25.754939	0.000755	20.750242
1291.337523	-3.021800	3.495800	-10.562000	25.735374	0.000755	20.734856
1292.337641	-2.985900	3.495000	-10.435000	25.768076	0.000753	20.737358
1293.333761	-3.002700	3.496700	-10.498000	25.804593	0.000753	20.746065
1294.340042	-3.004500	3.494100	-10.497000	25.821391	0.000753	20.737807
1295.340006	-2.982800	3.494400	-10.421000	25.852536	0.000752	20.741593
1296.342703	-3.023700	3.494200	-10.565000	25.834274	0.000752	20.746008
1297.339857	-3.007400	3.494100	-10.508000	25.840207	0.000751	20.712611
1298.336815	-2.984500	3.494800	-10.429000	25.836032	0.000751	20.738290
1299.339749	-3.018100	3.493300	-10.543000	25.834242	0.000750	20.730327
1300.336497	-2.996600	3.492100	-10.463000	25.817794	0.000749	20.728979
1301.336297	-3.009800	3.492000	-10.509000	25.824109	0.000750	20.719200
1302.337422	-3.002700	3.491100	-10.482000	25.821945	0.000751	20.719871
1303.341385	-2.996000	3.492000	-10.461000	25.806392	0.000749	20.726534
1304.340802	-2.970800	3.492200	-10.374000	25.816102	0.000749	20.727278
1305.345573	-2.980700	3.493100	-10.410000	25.808647	0.000748	20.725005
1306.344737	-3.018200	3.488900	-10.528000	25.791524	0.000746	20.731039
1307.342314	-3.002800	3.490200	-10.480000	25.807223	0.000747	20.722627
1308.340066	-3.010400	3.488900	-10.501000	25.840883	0.000745	20.719455
1309.346527	-2.992200	3.488900	-10.439000	25.825925	0.000748	20.718179
1310.343635	-2.989400	3.489600	-10.430000	25.836603	0.000746	20.722267
1311.338524	-2.960600	3.490100	-10.330000	25.852350	0.000744	20.733345
1312.342925	-3.002000	3.487600	-10.469000	25.814344	0.000743	20.730729
1313.338723	-2.991400	3.487400	-10.431000	25.780676	0.000744	20.738161
1314.340114	-3.006700	3.486900	-10.483000	25.768721	0.000743	20.733738
1315.340109	-2.988400	3.487900	-10.422000	25.766140	0.000743	20.734466
1316.344683	-2.996500	3.486500	-10.445000	25.778878	0.000743	20.724026
1317.341838	-3.020800	3.486400	-10.531000	25.791745	0.000743	20.743590
1318.338747	-2.999000	3.485000	-10.450000	25.809755	0.000740	20.715213
1319.342093	-3.028500	3.484300	-10.551000	25.816063	0.000741	20.726291
1320.339062	-2.996100	3.485700	-10.441000	25.801129	0.000741	20.734049
1321.341550	-2.995600	3.485900	-10.442000	25.801528	0.000739	20.729234
1322.343294	-3.004400	3.483900	-10.466000	25.786138	0.000740	20.735587
1323.342281	-3.002300	3.483400	-10.457000	25.777023	0.000740	20.741130
1324.342602	-2.990900	3.484500	-10.421000	25.761438	0.000739	20.714093
1325.343213	-3.025500	3.483400	-10.537000	25.755969	0.000738	20.717609
1326.342498	-3.016300	3.482900	-10.503000	25.728736	0.000738	20.719179
1327.337440	-3.004700	3.481900	-10.461000	25.741750	0.000738	20.731778
1328.342491	-2.977500	3.481800	-10.366000	25.762887	0.000738	20.722662
1329.338986	-2.992100	3.481400	-10.415000	25.748351	0.000736	20.723709
1330.340075	-2.989900	3.481400	-10.407000	25.747806	0.000736	20.737386
1331.342468	-3.012000	3.480200	-10.482000	25.776145	0.000735	20.729816
1332.342789	-3.021000	3.478700	-10.508000	25.759673	0.000734	20.730339
1333.344276	-3.009300	3.478800	-10.468000	25.778278	0.000735	20.723897
1334.343856	-2.997600	3.479700	-10.430000	25.779466	0.000734	20.710391
1335.345688	-2.997800	3.479300	-10.427000	25.793701	0.000734	20.720423
1336.344350	-3.000900	3.478900	-10.437000	25.820476	0.000733	20.727405
1337.348185	-3.010600	3.478400	-10.471000	25.803280	0.000732	20.741426
1338.343959	-2.998100	3.478500	-10.428000	25.768993	0.000732	20.728795
1339.348617	-3.021400	3.477300	-10.506000	25.776594	0.000733	20.741173
1340.345285	-3.002700	3.477600	-10.441000	25.754335	0.000733	20.734461
1341.350607	-3.002500	3.476300	-10.437000	25.720591	0.000731	20.743242
1342.345855	-3.027100	3.475900	-10.521000	25.726248	0.000729	20.733750
1343.349066	-3.046500	3.474900	-10.586000	25.750787	0.000730	20.742278
1344.351861	-2.988400	3.476700	-10.389000	25.746539	0.000730	20.720465
1345.347030	-2.986200	3.477000	-10.382000	25.743910	0.000727	20.726834
1346.350087	-2.996900	3.473600	-10.409000	25.747849	0.000728	20.730317
1347.350886	-2.997000	3.475000	-10.414000	25.771077	0.000727	20.747012
1348.353751	-2.989700	3.475300	-10.390000	25.764486	0.000729	20.732803
1349.355395	-3.012500	3.474300	-10.466000	25.752684	0.000727	20.741813
1350.357295	-3.001400	3.473100	-10.423000	25.746271	0.000726	20.742483
1351.350559	-3.007600	3.472600	-10.443000	25.763981	0.000726	20.746048
1352.356216	-3.012400	3.473500	-10.461000	25.746833	0.000724	20.748738
1353.357548	-3.012300	3.471500	-10.456000	25.716450	0.000724	20.751885
1354.356437	-3.006600	3.471400	-10.436000	25.742333	0.000725	20.728095
1355.360034	-3.004000	3.473200	-10.432000	25.770533	0.000724	20.743620
1356.357099	-3.015800	3.471200	-10.467000	25.781488	0.000724	20.741347
1357.355340	-2.995000	3.471600	-10.396000	25.774196	0.000724	20.742558
1358.359174	-3.010900	3.469100	-10.444000	25.763811	0.000722	20.738290
1359.357459	-3.012400	3.468400	-10.447000	25.787763	0.000721	20.751445
1360.355775	-3.013300	3.470400	-10.456000	25.773196	0.000722	20.756726
1361.361093	-3.013600	3.467700	-10.449000	25.783662	0.000721	20.750169
1362.356613	-3.005500	3.467700	-10.421000	25.813742	0.000721	20.760945
1363.356847	-3.001100	3.469500	-10.411000	25.819682	0.000720	20.740359
1364.361128	-2.987600	3.468600	-10.361000	25.840118	0.000721	20.745240
1365.355808	-3.001100	3.467500	-10.405000	25.851446	0.000719	20.750930
1366.357442	-2.985400	3.468200	-10.353000	25.889874	0.000719	20.734531
1367.362066	-2.990900	3.466800	-10.367000	25.898540	0.000718	20.744660
1368.363912	-3.014000	3.466200	-10.446000	25.884755	0.000718	20.743614
1369.357133	-3.004700	3.465900	-10.413000	25.858266	0.000717	20.740712
1370.361360	-3.017700	3.464600	-10.454000	25.822288	0.000716	20.772849
1371.362855	-3.010900	3.465700	-10.434000	25.760924	0.000717	20.752934
1372.361773	-2.982000	3.465700	-10.334000	25.728254	0.000715	20.758526
1373.363786	-2.991700	3.465100	-10.365000	25.716054	0.000714	20.744849
1374.363038	-3.018000	3.463300	-10.451000	25.718879	0.000716	20.744841
1375.361063	-2.995000	3.465200	-10.376000	25.729541	0.000714	20.763611
1376.362878	-2.998500	3.463300	-10.383000	25.710137	0.000713	20.759295
1377.363923	-3.008700	3.463600	-10.420000	25.684141	0.000713	20.742667
1378.361050	-2.998600	3.462100	-10.380000	25.681927	0.000713	20.749452
1379.365847	-2.987100	3.464000	-10.347000	25.666300	0.000712	20.772163
1380.365866	-2.990000	3.461300	-10.348000	25.661123	0.000712	20.752739
1381.356723	-3.021900	3.461500	-10.460000	25.699932	0.000710	20.757105
1382.367627	-3.017900	3.460900	-10.442000	25.748285	0.000712	20.750196
1383.366692	-2.990700	3.460600	-10.348000	25.741571	0.000709	20.745823
1384.359934	-2.990400	3.460100	-10.346000	25.761128	0.000710	20.752666
1385.366359	-3.022100	3.459600	-10.454000	25.725969	0.000708	20.753385
1386.366964	-2.992000	3.461200	-10.354000	25.717007	0.000707	20.758135
1387.360039	-2.984900	3.459300	-10.324000	25.740432	0.000707	20.770283
1388.361650	-2.981200	3.458600	-10.310000	25.767705	0.000707	20.762117
1389.364998	-2.977300	3.460000	-10.299000	25.794904	0.000709	20.773791
1390.358134	-3.009100	3.458100	-10.404000	25.804964	0.000707	20.767774
1391.362719	-3.008100	3.457000	-10.397000	25.795100	0.000708	20.754073
1392.364540	-3.014500	3.459200	-10.426000	25.790583	0.000706	20.766131
1393.366558	-2.998700	3.456500	-10.363000	25.796093	0.000706	20.767398
1394.361779	-2.994100	3.457400	-10.351000	25.796663	0.000707	20.764177
1395.366004	-2.985900	3.456900	-10.320000	25.838810	0.000706	20.770480
1396.360935	-3.015200	3.455400	-10.417000	25.851091	0.000706	20.770015
1397.367766	-3.003800	3.455500	-10.379000	25.868140	0.000704	20.755847
1398.362563	-3.008500	3.455400	-10.393000	25.866195	0.000704	20.764325
1399.363842	-3.005700	3.454400	-10.382000	25.883138	0.000704	20.783242
1400.367817	-3.004000	3.453400	-10.373000	25.901001	0.000702	20.766573
1401.361779	-2.992900	3.455400	-10.340000	25.934763	0.000702	20.781051
1402.364614	-2.988800	3.454400	-10.323000	25.910262	0.000703	20.789153
1403.364723	-3.006500	3.452100	-10.377000	25.940899	0.000702	20.774413
1404.360339	-2.992000	3.453100	-10.331000	25.943243	0.000700	20.742628
1405.362858	-3.010600	3.451700	-10.391000	25.973009	0.000701	20.778697
1406.364303	-2.989700	3.451900	-10.319000	25.973953	0.000700	20.764472
1407.369280	-2.984400	3.452000	-10.301000	25.976060	0.000700	20.772754
1408.361049	-2.993300	3.451300	-10.330000	25.994547	0.000701	20.758136
1409.370124	-2.982500	3.452000	-10.294000	25.993848	0.000698	20.749372
1410.365651	-3.016900	3.448500	-10.403000	26.002920	0.000701	20.771290
1411.364861	-3.002700	3.449200	-10.356000	25.985629	0.000700	20.774781
1412.369027	-3.005300	3.448800	-10.363000	25.971967	0.000699	20.773383
1413.362029	-3.031100	3.448000	-10.450000	25.945261	0.000696	20.762199
1414.365310	-2.993100	3.448900	-10.322000	25.942437	0.000695	20.795398
1415.368132	-2.985000	3.449500	-10.296000	25.915062	0.000695	20.782596
1416.365190	-2.980100	3.447800	-10.274000	25.881348	0.000698	20.794246
1417.361730	-3.010700	3.448200	-10.379000	25.851336	0.000695	20.766467
1418.370730	-2.989200	3.447600	-10.305000	25.812158	0.000694	20.774054
1419.367982	-3.004900	3.445400	-10.352000	25.808659	0.000693	20.767219
1420.363824	-2.963900	3.448400	-10.219000	25.814267	0.000695	20.771904
1421.367910	-3.006200	3.445900	-10.358000	25.836508	0.000694	20.769590
1422.366616	-2.979900	3.445600	-10.266000	25.840976	0.000693	20.777397
1423.367096	-3.009900	3.444300	-10.366000	25.886288	0.000692	20.782139
1424.370279	-3.002100	3.443800	-10.337000	25.908048	0.000692	20.786455
1425.368282	-3.003200	3.444600	-10.344000	25.947719	0.000694	20.764194
1426.367418	-3.005900	3.444200	-10.352000	25.990243	0.000693	20.783684
1427.371671	-2.989900	3.445500	-10.301000	26.016567	0.000691	20.794484
1428.365831	-3.012600	3.443200	-10.372000	26.030236	0.000691	20.793044
1429.373031	-2.999100	3.443000	-10.324000	26.021083	0.000691	20.793331
1430.367138	-2.997400	3.442100	-10.316000	26.033776	0.000688	20.774316
1431.370255	-3.016700	3.441100	-10.380000	26.066989	0.000689	20.798203
1432.372066	-2.999300	3.441500	-10.321000	26.066314	0.000688	20.784249
1433.369546	-3.004700	3.442100	-10.342000	26.066989	0.000688	20.799152
1434.369565	-2.993900	3.441700	-10.303000	26.050716	0.000686	20.786121
1435.370098	-3.016000	3.439800	-10.373000	26.009064	0.000686	20.767032
1436.369553	-3.010200	3.441500	-10.357000	25.956255	0.000686	20.775616
1437.367616	-2.979200	3.440200	-10.248000	25.937393	0.000683	20.792228
1438.371405	-3.001700	3.439800	-10.323000	25.917945	0.000685	20.811570
1439.366776	-2.993000	3.439300	-10.292000	25.894077	0.000684	20.776687
1440.373445	-2.995900	3.438200	-10.299000	25.931510	0.000681	20.783472
1441.369658	-2.997500	3.437800	-10.304000	25.912599	0.000683	20.792449
1442.370707	-2.991100	3.438200	-10.282000	25.910075	0.000683	20.797975
1443.371819	-3.023100	3.436100	-10.387000	25.959209	0.000681	20.805610
1444.369833	-3.019300	3.437300	-10.376000	25.965564	0.000683	20.789236
1445.365948	-3.010400	3.435800	-10.342000	25.985110	0.000683	20.768095
1446.375054	-3.022100	3.436100	-10.383000	26.011514	0.000682	20.794623
1447.371008	-2.996100	3.435000	-10.290000	26.018642	0.000680	20.796569
1448.366583	-3.006100	3.433600	-10.320000	26.017251	0.000679	20.784266
1449.369327	-3.015300	3.434600	-10.356000	25.947850	0.000678	20.792776
1450.370478	-2.995100	3.434900	-10.287000	25.955255	0.000679	20.809224
1451.370749	-2.992600	3.433700	-10.274000	25.911655	0.000678	20.783914
1452.378718	-2.979200	3.435000	-10.233000	25.899131	0.000680	20.790773
1453.372416	-2.978500	3.433900	-10.227000	25.909896	0.000676	20.778829
1454.370133	-3.013300	3.431800	-10.339000	25.926587	0.000676	20.795122
1455.375980	-2.988900	3.432900	-10.259000	25.951545	0.000676	20.812135
1456.368430	-3.000100	3.432600	-10.297000	25.925537	0.000675	20.796439
1457.367827	-2.963400	3.432700	-10.171000	25.928206	0.000677	20.776360
1458.372675	-3.015600	3.431300	-10.346000	25.904705	0.000676	20.810597
1459.370945	-2.996700	3.431100	-10.281000	25.949347	0.000676	20.807082
1460.368104	-2.972600	3.431300	-10.198000	25.977624	0.000674	20.799930
1461.372505	-2.996600	3.429500	-10.276000	25.996038	0.000674	20.805153
1462.375219	-2.986800	3.431300	-10.247000	26.018048	0.000675	20.804507
1463.372454	-3.022400	3.428800	-10.362000	26.003345	0.000672	20.811071
1464.373728	-2.988600	3.429000	-10.247000	26.029927	0.000673	20.810752
1465.373669	-3.006100	3.428500	-10.306000	25.984019	0.000672	20.812044
1466.369823	-2.996900	3.428300	-10.273000	25.989365	0.000670	20.806035
1467.375943	-3.000300	3.428600	-10.285000	26.011563	0.000672	20.802733
1468.371039	-3.007000	3.426500	-10.302000	26.002156	0.000671	20.805136
1469.374958	-2.978600	3.429600	-10.214000	26.048633	0.000672	20.793511
1470.376751	-3.011700	3.427200	-10.320000	26.065598	0.000671	20.802021
1471.372673	-2.957300	3.427700	-10.135000	26.067233	0.000668	20.813147
1472.375134	-3.005900	3.425800	-10.297000	26.072310	0.000669	20.803075
1473.373068	-2.995900	3.425800	-10.262000	26.054191	0.000670	20.800991
1474.374091	-2.988500	3.426900	-10.241000	26.025012	0.000667	20.811030
1475.371942	-3.019900	3.425200	-10.344000	25.939394	0.000666	20.807515
1476.380879	-3.004000	3.425600	-10.290000	25.955717	0.000669	20.809689
1477.374682	-2.965200	3.425700	-10.157000	25.974612	0.000666	20.826301
1478.376244	-3.003900	3.424300	-10.286000	25.999853	0.000666	20.804245
1479.382547	-3.002900	3.422600	-10.278000	26.028568	0.000665	20.807490
1480.380174	-3.005300	3.422300	-10.284000	26.044907	0.000665	20.807310
1481.379416	-2.970800	3.424500	-10.172000	26.056257	0.000666	20.818240
1482.381593	-3.010800	3.421600	-10.300000	26.078046	0.000664	20.833020
1483.379001	-2.989100	3.422600	-10.229000	26.066070	0.000663	20.816246
1484.376864	-3.000800	3.420600	-10.262000	26.033832	0.000662	20.833167
1485.381290	-2.996300	3.422700	-10.254000	26.053580	0.000662	20.809387
1486.378132	-3.005200	3.419600	-10.276000	26.050927	0.000664	20.820946
1487.378900	-2.976400	3.420200	-10.179000	26.061025	0.000662	20.823505
1488.383746	-2.986300	3.420700	-10.215000	26.106475	0.000664	20.831713
1489.385044	-3.004000	3.420000	-10.272000	26.086452	0.000662	20.831983
1490.379831	-2.965100	3.419800	-10.138000	26.083449	0.000660	20.842242
1491.383459	-3.012200	3.418100	-10.294000	26.071326	0.000661	20.834803
1492.384147	-2.993200	3.419000	-10.233000	26.073067	0.000660	20.820431
1493.378154	-2.984200	3.418700	-10.200000	26.031238	0.000659	20.821077
1494.382452	-3.012500	3.417700	-10.295000	26.008683	0.000661	20.808848
1495.382745	-2.985600	3.417500	-10.202000	25.991286	0.000658	20.846371
1496.378718	-2.997700	3.415600	-10.238000	26.021564	0.000657	20.823212
1497.381760	-2.991200	3.417800	-10.222000	26.011360	0.000659	20.816753
1498.385260	-3.014500	3.416700	-10.299000	26.039196	0.000658	20.823384
1499.380716	-3.000200	3.415100	-10.245000	26.078446	0.000655	20.831051
1500.385355	-2.996800	3.416200	-10.237000	26.092921	0.000654	20.812879
1501.388868	-3.020200	3.416100	-10.316000	26.113806	0.000655	20.831967
1502.384899	-3.000500	3.414600	-10.244000	26.125572	0.000657	20.818659
1503.386878	-2.999700	3.415300	-10.243000	26.167194	0.000652	20.839145
1504.392555	-3.005300	3.413000	-10.255000	26.160368	0.000654	20.837976
1505.387647	-3.008600	3.413600	-10.269000	26.167439	0.000655	20.829434
1506.387651	-3.040800	3.412900	-10.377000	26.153380	0.000653	20.825265
1507.391658	-3.004300	3.412100	-10.250000	26.134285	0.000652	20.845906
1508.383097	-3.002600	3.412000	-10.244000	26.148043	0.000651	20.863048
1509.386432	-3.025300	3.411900	-10.321000	26.131121	0.000653	20.836563
1510.388123	-2.973400	3.413500	-10.148000	26.155407	0.000651	20.842473
1511.389014	-3.004600	3.412700	-10.253000	26.167741	0.000651	20.842065
1512.396818	-3.007900	3.411100	-10.259000	26.162583	0.000652	20.864382
1513.391530	-2.984200	3.410500	-10.176000	26.185843	0.000650	20.831332
1514.389546	-2.994200	3.410700	-10.210000	26.191449	0.000651	20.843129
1515.392961	-3.004700	3.409000	-10.242000	26.178359	0.000650	20.853682
1516.389534	-3.029800	3.408100	-10.325000	26.196964	0.000649	20.823068
1517.390273	-3.011000	3.409200	-10.264000	26.184388	0.000649	20.866378
1518.392561	-2.988900	3.407300	-10.183000	26.194842	0.000648	20.865029
1519.393868	-2.986900	3.408800	-10.180000	26.223397	0.000647	20.836827
1520.394498	-2.990100	3.407700	-10.188000	26.230499	0.000647	20.844912
1521.394198	-2.998100	3.408700	-10.218000	26.217540	0.000647	20.849906
1522.395668	-2.988000	3.407000	-10.179000	26.195030	0.000646	20.858106
1523.393719	-2.995100	3.407600	-10.205000	26.180207	0.000646	20.846056
1524.395159	-3.001100	3.406000	-10.221000	26.214140	0.000647	20.869723
1525.394683	-3.000900	3.405900	-10.220000	26.223553	0.000646	20.855475
1526.392564	-3.001500	3.406100	-10.222000	26.245233	0.000644	20.875837
1527.396467	-2.994100	3.406000	-10.197000	26.259860	0.000645	20.835536
1528.396756	-2.966800	3.405300	-10.101000	26.259461	0.000643	20.839877
1529.397836	-2.986600	3.404200	-10.167000	26.230281	0.000641	20.865080
1530.396121	-2.976100	3.405500	-10.134000	26.232388	0.000641	20.847284
1531.397592	-2.997700	3.404300	-10.204000	26.260886	0.000642	20.877343
1532.400118	-2.991900	3.403300	-10.181000	26.269127	0.000640	20.865711
1533.399287	-2.996800	3.403400	-10.197000	26.259568	0.000642	20.882656
1534.401464	-3.014400	3.402600	-10.256000	26.245503	0.000641	20.862834
1535.397172	-3.002700	3.401500	-10.214000	26.245755	0.000641	20.846492
1536.400661	-2.979300	3.403800	-10.141000	26.258544	0.000638	20.877834
1537.402124	-3.033700	3.401000	-10.316000	26.255510	0.000638	20.859139
1538.400620	-2.986000	3.401200	-10.154000	26.239215	0.000638	20.865998
1539.402897	-3.005600	3.401500	-10.222000	26.259423	0.000638	20.873976
1540.412524	-2.976800	3.401400	-10.124000	26.198507	0.000638	20.862074
1541.403930	-2.987500	3.400900	-10.158000	26.232480	0.000638	20.848324
1542.401486	-3.018200	3.398900	-10.258000	26.245813	0.000636	20.869309
1543.403865	-2.986500	3.398900	-10.150000	26.260359	0.000636	20.878710
1544.404423	-2.998600	3.399300	-10.192000	26.231228	0.000637	20.887367
1545.405560	-3.024700	3.397900	-10.277000	26.215087	0.000635	20.870674
1546.406894	-3.014200	3.397300	-10.239000	26.221522	0.000636	20.897527
1547.406281	-2.991800	3.398200	-10.166000	26.203397	0.000633	20.860350
1548.406888	-3.010000	3.397200	-10.223000	26.208083	0.000632	20.897299
1549.403298	-3.012500	3.395800	-10.229000	26.180960	0.000633	20.878580
1550.409540	-3.001700	3.396100	-10.193000	26.129078	0.000632	20.867225
1551.410117	-3.000000	3.396400	-10.188000	26.079708	0.000632	20.853655
1552.407451	-3.012500	3.394300	-10.224000	26.080725	0.000633	20.874590
1553.407637	-2.988800	3.396200	-10.149000	26.052931	0.000631	20.882225
1554.407201	-2.992600	3.394900	-10.156000	26.033208	0.000629	20.866677
1555.407065	-3.016000	3.395100	-10.238000	26.034404	0.000629	20.883999
1556.403960	-3.004900	3.395100	-10.201000	26.017138	0.000630	20.857644
1557.408769	-2.999000	3.394000	-10.177000	26.011149	0.000631	20.864904
1558.405863	-2.997000	3.395900	-10.176000	25.999652	0.000629	20.895076
1559.410854	-3.002800	3.394000	-10.190000	25.974761	0.000628	20.870070
1560.407938	-3.001700	3.394700	-10.188000	25.985241	0.000628	20.892926
1561.409963	-2.999600	3.393100	-10.177000	26.018651	0.000628	20.874337
1562.408597	-3.011800	3.392500	-10.216000	26.044275	0.000627	20.858357
1563.405709	-2.988200	3.394000	-10.140000	26.092718	0.000626	20.887114
1564.415692	-3.001600	3.392400	-10.181000	26.134912	0.000627	20.876880
1565.407543	-3.001700	3.393000	-10.184000	26.178755	0.000628	20.844123
1566.407989	-2.980700	3.393100	-10.113000	26.153005	0.000626	20.864241
1567.409065	-3.012600	3.389900	-10.212000	26.157276	0.000626	20.879911
1568.412574	-3.022600	3.389700	-10.244000	26.137995	0.000625	20.875710
1569.405439	-2.996600	3.390600	-10.159000	26.142127	0.000624	20.886500
1570.413172	-2.995700	3.390100	-10.155000	26.169349	0.000625	20.857905
1571.405862	-3.012100	3.388600	-10.206000	26.175183	0.000624	20.862818
1572.408481	-3.006500	3.389000	-10.188000	26.171163	0.000623	20.849297
1573.411149	-3.015200	3.387500	-10.213000	26.192698	0.000626	20.876625
1574.406786	-3.000600	3.387400	-10.163000	26.180479	0.000622	20.871458
1575.408076	-2.997600	3.387500	-10.154000	26.176508	0.000624	20.872684
1576.409863	-2.993200	3.388100	-10.140000	26.183481	0.000621	20.858829
1577.408634	-2.984100	3.386500	-10.103000	26.201191	0.000621	20.853867
1578.409520	-3.002700	3.387500	-10.171000	26.208147	0.000620	20.864175
1579.413515	-3.009900	3.386000	-10.191000	26.207724	0.000620	20.864698
1580.413037	-3.006300	3.385100	-10.176000	26.219325	0.000620	20.875881
1581.412660	-3.006800	3.385000	-10.177000	26.192722	0.000617	20.857684
1582.416505	-2.989900	3.385600	-10.122000	26.214159	0.000618	20.867845
1583.412478	-3.004300	3.385100	-10.169000	26.223718	0.000616	20.851847
1584.409029	-2.983100	3.385400	-10.098000	26.216721	0.000616	20.868523
1585.413326	-2.986200	3.383800	-10.103000	26.237328	0.000618	20.863627
1586.412492	-2.998700	3.383600	-10.145000	26.269657	0.000616	20.850123
1587.411316	-2.988100	3.382800	-10.108000	26.242909	0.000614	20.852167
1588.417834	-2.996300	3.383400	-10.137000	26.255380	0.000615	20.852845
1589.413943	-3.007600	3.383100	-10.174000	26.282200	0.000616	20.843763
1590.415631	-2.963800	3.382600	-10.024000	26.280956	0.000615	20.844409
1591.418334	-3.010900	3.383100	-10.186000	26.260220	0.000613	20.859605
1592.415535	-3.007300	3.382100	-10.169000	26.216990	0.000614	20.853147
1593.413870	-3.007100	3.381300	-10.167000	26.181202	0.000612	20.842790
1594.418673	-3.010900	3.381100	-10.179000	26.134553	0.000612	20.844752
1595.417871	-3.029200	3.379600	-10.236000	26.101814	0.000612	20.840306
1596.414858	-3.033100	3.379200	-10.248000	26.075965	0.000610	20.831403
1597.420766	-3.002600	3.380600	-10.149000	26.093246	0.000611	20.821741
1598.418105	-3.008300	3.379400	-10.166000	26.123423	0.000611	20.832621
1599.416880	-3.001400	3.378200	-10.139000	26.152330	0.000610	20.850761
1600.420231	-2.997100	3.378300	-10.123000	26.170676	0.000611	20.833636
1601.416358	-3.002600	3.377700	-10.141000	26.210173	0.000610	20.851987
1602.418333	-3.001900	3.378800	-10.142000	26.229162	0.000608	20.850206
1603.428523	-3.011300	3.376400	-10.166000	26.216178	0.000607	20.824831
1604.418327	-3.003000	3.377000	-10.141000	26.240462	0.000608	20.847336
1605.417206	-2.988400	3.377100	-10.091000	26.240185	0.000606	20.850378
1606.421241	-2.997400	3.376700	-10.120000	26.265688	0.000608	20.845187
1607.420985	-3.007700	3.376400	-10.154000	26.265786	0.000607	20.848130
1608.422904	-3.000000	3.377300	-10.131000	26.307956	0.000606	20.844990
1609.425677	-3.007400	3.373900	-10.145000	26.325454	0.000604	20.842187
1610.420086	-3.016400	3.374600	-10.178000	26.319499	0.000605	20.839522
1611.421342	-3.007500	3.375100	-10.150000	26.280087	0.000605	20.844484
1612.426283	-3.002700	3.374700	-10.132000	26.280039	0.000604	20.840168
1613.422340	-2.992200	3.373300	-10.092000	26.301864	0.000602	20.834601
1614.419570	-3.004200	3.373500	-10.134000	26.293298	0.000601	20.827415
1615.422279	-3.011800	3.373300	-10.158000	26.311748	0.000600	20.820352
1616.419071	-2.993100	3.372000	-10.092000	26.346832	0.000600	20.812938
1617.425271	-3.011900	3.372200	-10.155000	26.340601	0.000600	20.832753
1618.425018	-3.016100	3.371200	-10.167000	26.366053	0.000600	20.812341
1619.419903	-2.986100	3.372700	-10.070000	26.334370	0.000599	20.817957
1620.422396	-2.998800	3.371200	-10.108000	26.308071	0.000600	20.837045
1621.428889	-3.029200	3.371800	-10.213000	26.280185	0.000599	20.822772
1622.423320	-2.999300	3.372600	-10.114000	26.274206	0.000598	20.823875
1623.423289	-3.017600	3.372000	-10.174000	26.304719	0.000599	20.813289
1624.424266	-3.021100	3.369200	-10.178000	26.305484	0.000596	20.827334
1625.422376	-3.003800	3.370400	-10.123000	26.310308	0.000597	20.845931
1626.422953	-2.988900	3.369900	-10.070000	26.320338	0.000596	20.821398
1627.426192	-2.993400	3.369600	-10.086000	26.295308	0.000596	20.824693
1628.427279	-3.000500	3.370300	-10.112000	26.241243	0.000597	20.820622
1629.424730	-3.001500	3.368700	-10.110000	26.184394	0.000595	20.826083
1630.427302	-3.007500	3.367300	-10.126000	26.138061	0.000594	20.816036
1631.425205	-2.994700	3.367700	-10.084000	26.102043	0.000594	20.786483
1632.426170	-3.005200	3.367900	-10.120000	26.067863	0.000595	20.809513
1633.424556	-3.010200	3.366400	-10.133000	26.057009	0.000593	20.813306
1634.422622	-3.024200	3.366900	-10.181000	26.042005	0.000592	20.807714
1635.425786	-2.983200	3.367100	-10.043000	26.037530	0.000592	20.799899
1636.427935	-2.977400	3.366800	-10.022000	26.060043	0.000590	20.830579
1637.426280	-2.988600	3.366400	-10.061000	26.080067	0.000589	20.807076
1638.423516	-2.976600	3.366500	-10.020000	26.126557	0.000592	20.817279
1639.423611	-3.003300	3.365800	-10.108000	26.156253	0.000588	20.821988
1640.427277	-2.982200	3.365000	-10.034000	26.170287	0.000588	20.797209
1641.424147	-3.003700	3.363800	-10.104000	26.193563	0.000588	20.832925
1642.432312	-3.012800	3.363500	-10.131000	26.205351	0.000590	20.805417
1643.430294	-2.993100	3.363500	-10.066000	26.185964	0.000587	20.816281
1644.427740	-2.988000	3.363700	-10.050000	26.201877	0.000590	20.806194
1645.431993	-3.005900	3.363400	-10.109000	26.149175	0.000586	20.837634
1646.429423	-3.022000	3.362400	-10.160000	26.159816	0.000587	20.804705
1647.424783	-2.993800	3.363000	-10.067000	26.177113	0.000587	20.800275
1648.432388	-2.985800	3.363200	-10.041000	26.195418	0.000588	20.803022
1649.424854	-2.994200	3.361500	-10.064000	26.264168	0.000585	20.784390
1650.424918	-3.020800	3.360600	-10.151000	26.260840	0.000586	20.805228
1651.429703	-2.984800	3.361600	-10.033000	26.275873	0.000584	20.789515
1652.430005	-2.991600	3.361400	-10.055000	26.305890	0.000584	20.809724
1653.427450	-2.995100	3.359000	-10.060000	26.326747	0.000583	20.801762
1654.434610	-2.999500	3.360500	-10.078000	26.319492	0.000582	20.804427
1655.430343	-2.984900	3.360700	-10.030000	26.341097	0.000584	20.795320
1656.432400	-2.980900	3.360400	-10.015000	26.367101	0.000583	20.784946
1657.433232	-2.987500	3.360900	-10.039000	26.391211	0.000582	20.802064
1658.432400	-3.009600	3.358900	-10.108000	26.379717	0.000579	20.807108
1659.430834	-2.994900	3.357800	-10.056000	26.380661	0.000582	20.808530
1660.435420	-2.994500	3.358700	-10.057000	26.374601	0.000579	20.803389
1661.434497	-3.016000	3.358200	-10.127000	26.348482	0.000580	20.811277
1662.434361	-2.996800	3.358300	-10.062000	26.329732	0.000580	20.786744
1663.440854	-2.995500	3.358000	-10.057000	26.317498	0.000579	20.814277
1664.433062	-3.001700	3.355400	-10.069000	26.276369	0.000579	20.784798
1665.434993	-3.013100	3.356100	-10.110000	26.270089	0.000578	20.816419
1666.436748	-2.992100	3.355400	-10.038000	26.268771	0.000576	20.800870
1667.439602	-3.037800	3.354700	-10.189000	26.268519	0.000576	20.796824
1668.433550	-2.998200	3.355200	-10.059000	26.269040	0.000577	20.784071
1669.443935	-3.019000	3.354300	-10.125000	26.237907	0.000576	20.771276
1670.438097	-2.975600	3.355200	-9.982700	26.214087	0.000575	20.804239
1671.436087	-3.027000	3.352800	-10.147000	26.196010	0.000574	20.800772
1672.442251	-3.002000	3.352700	-10.063000	26.248515	0.000574	20.803748
1673.443099	-3.016600	3.352900	-10.113000	26.227778	0.000573	20.779590
1674.439296	-2.995500	3.352600	-10.042000	26.192121	0.000573	20.796390
1675.438776	-2.995400	3.352400	-10.041000	26.181757	0.000571	20.805416
1676.438598	-2.998800	3.353700	-10.055000	26.162264	0.000573	20.799104
1677.438959	-3.012100	3.351500	-10.094000	26.174711	0.000571	20.791223
1678.442608	-3.018600	3.349600	-10.110000	26.200313	0.000571	20.789923
1679.443113	-2.991600	3.352700	-10.029000	26.197524	0.000570	20.792336
1680.439266	-2.988300	3.351800	-10.014000	26.194317	0.000570	20.803338
1681.448005	-2.983500	3.352100	-10.000000	26.229673	0.000571	20.804254
1682.440451	-2.975600	3.351400	-9.971400	26.193837	0.000569	20.790054
1683.443665	-3.008900	3.350800	-10.081000	26.198011	0.000568	20.807998
1684.449156	-3.000500	3.349200	-10.048000	26.230837	0.000566	20.796888
1685.448451	-3.005400	3.349300	-10.065000	26.248425	0.000568	20.790381
1686.440249	-2.986500	3.349300	-10.002000	26.267696	0.000566	20.792204
1687.450757	-3.000600	3.348900	-10.048000	26.238289	0.000566	20.793945
1688.447619	-2.999900	3.349400	-10.046000	26.227761	0.000565	20.772461
1689.445973	-2.984800	3.349400	-9.996000	26.194585	0.000563	20.777055
1690.448359	-2.995400	3.347300	-10.025000	26.169797	0.000564	20.796717
1691.448832	-3.011200	3.347800	-10.080000	26.197717	0.000564	20.781151
1692.442372	-2.982600	3.348200	-9.985500	26.220659	0.000561	20.778600
1693.445835	-2.991600	3.346800	-10.010000	26.251207	0.000563	20.781323
1694.447223	-2.988600	3.346400	-9.999900	26.285073	0.000562	20.764621
1695.444454	-3.007300	3.345800	-10.061000	26.283755	0.000561	20.765193
1696.448411	-3.011100	3.345800	-10.073000	26.311917	0.000559	20.788754
1697.449941	-3.004000	3.344800	-10.046000	26.337142	0.000561	20.765267
1698.448814	-2.989700	3.344800	-9.999000	26.319441	0.000559	20.765021
1699.449457	-3.002400	3.343600	-10.038000	26.311079	0.000562	20.760410
1700.449863	-3.002600	3.344700	-10.042000	26.324135	0.000557	20.761204
1701.452226	-2.983700	3.345400	-9.980400	26.349416	0.000557	20.780922
1702.451338	-2.993500	3.343500	-10.008000	26.352044	0.000559	20.774554
1703.450998	-2.988800	3.344300	-9.994300	26.365335	0.000559	20.786963
1704.445994	-2.996400	3.343600	-10.017000	26.371297	0.000556	20.783946
1705.458796	-3.000900	3.342300	-10.029000	26.383482	0.000556	20.770115
1706.448330	-3.003300	3.342000	-10.036000	26.340973	0.000554	20.774807
1707.454717	-2.989400	3.341900	-9.989200	26.335791	0.000555	20.787143
1708.448866	-3.013500	3.339700	-10.062000	26.303627	0.000554	20.773785
1709.451446	-2.993600	3.341500	-10.003000	26.313535	0.000552	20.769992
1710.452831	-2.977300	3.342400	-9.949800	26.306930	0.000554	20.773311
1711.453674	-2.984900	3.340600	-9.970600	26.298315	0.000552	20.770343
1712.453749	-3.026600	3.339100	-10.105000	26.320840	0.000552	20.762160
1713.448482	-3.009300	3.339800	-10.050000	26.309834	0.000553	20.757737
1714.460492	-3.002500	3.338600	-10.023000	26.294419	0.000551	20.775910
1715.448165	-3.006800	3.338000	-10.036000	26.275668	0.000550	20.744738
1716.448754	-3.000500	3.339200	-10.018000	26.261489	0.000551	20.775534
1717.452215	-2.997400	3.338200	-10.005000	26.276905	0.000550	20.740765
1718.451114	-2.997400	3.338300	-10.005000	26.306556	0.000548	20.773409
1719.450397	-2.990300	3.338000	-9.980900	26.317611	0.000549	20.755121
1720.450350	-2.990200	3.337300	-9.977600	26.321150	0.000547	20.764368
1721.447047	-3.005800	3.336600	-10.028000	26.390754	0.000546	20.743283
1722.450520	-3.006300	3.337300	-10.032000	26.399840	0.000546	20.758105
1723.448207	-2.993300	3.335800	-9.983800	26.401402	0.000547	20.768684
1724.448418	-2.995400	3.335200	-9.988400	26.435897	0.000546	20.756413
1725.447714	-3.006500	3.335200	-10.027000	26.454539	0.000545	20.756658
1726.449361	-3.001100	3.335800	-10.011000	26.480484	0.000543	20.780367
1727.448782	-3.027200	3.332800	-10.088000	26.501614	0.000544	20.744706
1728.450668	-2.993700	3.335800	-9.985200	26.489073	0.000544	20.767662
1729.451325	-2.998400	3.335700	-10.001000	26.463445	0.000543	20.766559
1730.453108	-2.994800	3.334400	-9.984800	26.452099	0.000544	20.750887
1731.452702	-2.992600	3.333800	-9.976200	26.419109	0.000543	20.757558
1732.448980	-3.002800	3.333500	-10.009000	26.401353	0.000540	20.746349
1733.449512	-3.004200	3.332000	-10.008000	26.410519	0.000540	20.768839
1734.449126	-3.011300	3.331600	-10.032000	26.452725	0.000538	20.740136
1735.449530	-2.979200	3.334000	-9.932000	26.459899	0.000539	20.751614
1736.452215	-3.007500	3.330900	-10.016000	26.445031	0.000538	20.762275
1737.452411	-2.999700	3.330400	-9.989900	26.474767	0.000539	20.748067
1738.453606	-3.010000	3.332000	-10.028000	26.481249	0.000537	20.742728
1739.454575	-3.002200	3.329000	-9.993300	26.503941	0.000537	20.759373
1740.458049	-2.983400	3.331000	-9.936800	26.489310	0.000536	20.750830
1741.453762	-2.992100	3.330600	-9.965200	26.510114	0.000535	20.742344
1742.458126	-2.996800	3.329800	-9.978200	26.491791	0.000536	20.744315
1743.453458	-2.992800	3.327600	-9.958400	26.472010	0.000534	20.769478
1744.454464	-3.007500	3.329400	-10.012000	26.491392	0.000534	20.757191
1745.461637	-3.015300	3.329300	-10.037000	26.502755	0.000533	20.750594
1746.457519	-2.997900	3.329400	-9.980300	26.492255	0.000532	20.740514
1747.458883	-3.015000	3.327700	-10.032000	26.491238	0.000533	20.747553
1748.457666	-3.012400	3.327600	-10.023000	26.504634	0.000532	20.758173
1749.458145	-3.006000	3.326600	-9.999800	26.519160	0.000530	20.751911
1750.460293	-2.993900	3.326200	-9.957400	26.491401	0.000532	20.748665
1751.459634	-3.001600	3.326300	-9.983000	26.465610	0.000532	20.738862
1752.457850	-3.010100	3.326500	-10.011000	26.438340	0.000530	20.750333
1753.454500	-2.999400	3.325200	-9.973100	26.394564	0.000528	20.726723
1754.455828	-2.986000	3.326000	-9.930800	26.375319	0.000529	20.752901
1755.455358	-3.008900	3.324300	-10.001000	26.364793	0.000527	20.744692
1756.456719	-2.999300	3.325300	-9.973300	26.366404	0.000528	20.737776
1757.459138	-2.980000	3.324800	-9.906900	26.398135	0.000525	20.725096
1758.458252	-2.987100	3.324900	-9.931000	26.447603	0.000525	20.734988
1759.459329	-3.003900	3.323300	-9.981400	26.472615	0.000526	20.743058
1760.460086	-3.008100	3.321600	-9.990900	26.497055	0.000526	20.726371
1761.459830	-3.019600	3.321700	-10.029000	26.534833	0.000525	20.752018
1762.461096	-3.007500	3.321700	-9.989300	26.542405	0.000525	20.748724
1763.457507	-2.972000	3.323000	-9.874900	26.577310	0.000525	20.742085
1764.458876	-3.025600	3.321200	-10.048000	26.579400	0.000525	20.737073
1765.458197	-3.033400	3.319900	-10.070000	26.606774	0.000523	20.731400
1766.461764	-3.019000	3.320000	-10.022000	26.605457	0.000521	20.739085
1767.460949	-2.997600	3.320500	-9.952600	26.569284	0.000522	20.733542
1768.460615	-2.999800	3.320800	-9.960300	26.568023	0.000519	20.746500
1769.462794	-3.003900	3.320900	-9.974400	26.560923	0.000522	20.740785
1770.459983	-2.969600	3.320000	-9.857800	26.577278	0.000520	20.717870
1771.461072	-2.974000	3.318000	-9.866900	26.581401	0.000521	20.731973
1772.462072	-2.967400	3.320500	-9.852500	26.585101	0.000520	20.707715
1773.461334	-2.999000	3.318500	-9.949800	26.590478	0.000520	20.725449
1774.458271	-2.981800	3.318500	-9.894200	26.575343	0.000518	20.750065
1775.458420	-2.977900	3.316900	-9.876500	26.530199	0.000517	20.728393
1776.462670	-3.024000	3.317100	-10.030000	26.517235	0.000518	20.727690
1777.461535	-2.995600	3.316800	-9.935100	26.544203	0.000516	20.743893
1778.466834	-3.006000	3.316500	-9.968200	26.511232	0.000517	20.725449
1779.466169	-3.023500	3.315000	-10.021000	26.462823	0.000516	20.726103
1780.463700	-2.986300	3.316300	-9.902600	26.437967	0.000515	20.723405
1781.465711	-2.982600	3.316800	-9.890600	26.433267	0.000514	20.711093
1782.464480	-2.998400	3.315100	-9.939300	26.471226	0.000514	20.730282
1783.468439	-2.988900	3.314900	-9.906500	26.490982	0.000512	20.715051
1784.466013	-2.999400	3.314400	-9.940000	26.513055	0.000513	20.731549
1785.463652	-2.998400	3.314600	-9.937500	26.479409	0.000513	20.714798
1786.469683	-3.013000	3.313200	-9.980200	26.464313	0.000513	20.743249
1787.469474	-2.975400	3.316000	-9.865800	26.473821	0.000511	20.744271
1788.468594	-3.007200	3.313600	-9.963400	26.483679	0.000510	20.716245
1789.467820	-3.003400	3.313100	-9.949600	26.515228	0.000510	20.711447
1790.472674	-2.981300	3.312900	-9.876100	26.521165	0.000510	20.741598
1791.469225	-3.006000	3.311900	-9.954500	26.556437	0.000509	20.747182
1792.466746	-2.994700	3.311700	-9.915300	26.545319	0.000509	20.722255
1793.470254	-2.999600	3.310300	-9.928100	26.531095	0.000506	20.738777
1794.465919	-3.009600	3.309900	-9.960400	26.510112	0.000506	20.724323
1795.466471	-2.999900	3.309800	-9.926800	26.480719	0.000504	20.736030
1796.468166	-2.993400	3.309800	-9.905700	26.520116	0.000504	20.741966
1797.469745	-3.013300	3.309800	-9.972000	26.503955	0.000507	20.743740
1798.470628	-3.000100	3.310000	-9.929100	26.537293	0.000505	20.713712
1799.473369	-3.023700	3.308100	-10.002000	26.507624	0.000504	20.738418
1800.469617	-3.017700	3.307400	-9.980000	26.509892	0.000503	20.729318
1801.470442	-2.993900	3.308500	-9.903900	26.482403	0.000502	20.746732
1802.473832	-3.006000	3.307900	-9.943100	26.465225	0.000501	20.720456
1803.476350	-3.024600	3.307400	-10.002000	26.466958	0.000503	20.729311
1804.478503	-3.012000	3.305800	-9.956700	26.469666	0.000502	20.753371
1805.476278	-3.016500	3.305400	-9.969400	26.471944	0.000501	20.725787
1806.476606	-2.953300	3.308800	-9.770800	26.530136	0.000500	20.720743
1807.473347	-2.999100	3.306600	-9.915400	26.556430	0.000500	20.750019
1808.479081	-3.012100	3.304800	-9.951600	26.587456	0.000499	20.696805
1809.477332	-3.002900	3.306700	-9.928400	26.589741	0.000499	20.728028
1810.474456	-2.997800	3.304600	-9.906000	26.589147	0.000497	20.730750
1811.486394	-2.992200	3.305700	-9.890600	26.576331	0.000497	20.735411
1812.477310	-2.968700	3.304600	-9.809600	26.582886	0.000498	20.714023
1813.476338	-3.000300	3.303100	-9.908800	26.601526	0.000496	20.749358
1814.478202	-2.977700	3.304100	-9.837600	26.579381	0.000496	20.735158
1815.483186	-3.011500	3.303700	-9.948000	26.570118	0.000495	20.739123
1816.476099	-2.992800	3.303200	-9.884700	26.515450	0.000496	20.719256
1817.481223	-3.008600	3.303200	-9.936700	26.520167	0.000496	20.733956
1818.482180	-2.990100	3.302000	-9.872200	26.513807	0.000494	20.716183
1819.479368	-2.998200	3.300700	-9.895300	26.543989	0.000496	20.729452
1820.484976	-2.980100	3.301800	-9.838700	26.580390	0.000494	20.734275
1821.482492	-2.989900	3.302400	-9.872700	26.591092	0.000493	20.734602
1822.477032	-2.981200	3.301900	-9.842300	26.585725	0.000489	20.748174
1823.490073	-2.978700	3.302200	-9.834300	26.573461	0.000491	20.738690
1824.483487	-3.006800	3.299100	-9.919100	26.553895	0.000491	20.744626
1825.480263	-2.981400	3.300100	-9.838000	26.572396	0.000491	20.731455
1826.487198	-2.992900	3.298400	-9.870900	26.578674	0.000490	20.731602
1827.482720	-3.029100	3.298400	-9.990100	26.544615	0.000489	20.733401
1828.481462	-3.004900	3.298200	-9.909400	26.563832	0.000490	20.742761
1829.486489	-2.987400	3.298800	-9.853400	26.506577	0.000488	20.734047
1830.483192	-3.003800	3.297900	-9.904900	26.510155	0.000489	20.747601
1831.478642	-2.993200	3.297600	-9.868600	26.503006	0.000489	20.736622
1832.485571	-3.006100	3.295700	-9.906500	26.560432	0.000487	20.734602
1833.497801	-2.970800	3.298900	-9.799300	26.579422	0.000488	20.753218
1834.481634	-3.015400	3.294100	-9.931400	26.607520	0.000485	20.732150
1835.486796	-3.002800	3.296000	-9.896300	26.635625	0.000485	20.738592
1836.483883	-2.997100	3.295200	-9.874600	26.668543	0.000484	20.744184
1837.488199	-3.008200	3.295100	-9.911300	26.690954	0.000482	20.726885
1838.495399	-3.007700	3.293900	-9.906400	26.721935	0.000482	20.747127
1839.495814	-2.997700	3.294400	-9.875000	26.718439	0.000482	20.741241
1840.485696	-3.003300	3.293900	-9.891300	26.726009	0.000481	20.745059
1841.488528	-3.008700	3.293500	-9.907800	26.737450	0.000479	20.759881
1842.485625	-2.975100	3.292900	-9.795300	26.749216	0.000480	20.765546
1843.486472	-2.996400	3.293600	-9.868700	26.742215	0.000480	20.730531
1844.494096	-3.025200	3.292600	-9.959100	26.729359	0.000479	20.734676
1845.488119	-3.000000	3.293000	-9.877500	26.718861	0.000478	20.751149
1846.489433	-3.001900	3.292900	-9.883900	26.701932	0.000478	20.749302
1847.484608	-2.997100	3.291500	-9.864500	26.648668	0.000476	20.745066
1848.489442	-3.016300	3.290500	-9.924300	26.638909	0.000475	20.724824
1849.488780	-3.018100	3.289600	-9.927300	26.587546	0.000476	20.748108
1850.491619	-3.002700	3.290800	-9.879400	26.606543	0.000475	20.741125
1851.491930	-2.994800	3.290800	-9.853800	26.653189	0.000474	20.751034
1852.492561	-2.992200	3.289500	-9.842300	26.668533	0.000474	20.746071
1853.491070	-3.018600	3.288600	-9.925600	26.670567	0.000473	20.768030
1854.490834	-2.972300	3.291600	-9.782100	26.635867	0.000475	20.760173
1855.490904	-3.005700	3.288400	-9.883100	26.623100	0.000472	20.738329
1856.492223	-2.974600	3.289800	-9.784500	26.650496	0.000473	20.749749
1857.493209	-2.993400	3.288600	-9.843600	26.677299	0.000471	20.754884
1858.489895	-2.996800	3.287300	-9.850100	26.682365	0.000471	20.746226
1859.491659	-2.977800	3.288600	-9.791700	26.678819	0.000470	20.745032
1860.488726	-3.001500	3.286300	-9.863500	26.673785	0.000473	20.763206
1861.492345	-3.012800	3.286100	-9.899200	26.666418	0.000471	20.755798
1862.490561	-3.000500	3.287700	-9.863600	26.713606	0.000470	20.748236
1863.495010	-2.989800	3.286400	-9.825200	26.715874	0.000469	20.736291
1864.493042	-2.999600	3.285700	-9.855800	26.702514	0.000467	20.731869
1865.493227	-3.003600	3.286200	-9.869100	26.749505	0.000468	20.762044
1866.494023	-2.985000	3.284300	-9.802200	26.775118	0.000468	20.755553
1867.494633	-2.990400	3.284900	-9.821300	26.802869	0.000467	20.760695
1868.493936	-3.004300	3.283600	-9.863900	26.814415	0.000466	20.759501
1869.491284	-3.006000	3.284100	-9.870600	26.822757	0.000467	20.742758
1870.497794	-2.993200	3.283400	-9.826600	26.862019	0.000466	20.743829
1871.493774	-2.985800	3.283100	-9.802100	26.829659	0.000463	20.749698
1872.495536	-3.017100	3.282700	-9.903600	26.859498	0.000464	20.734655
1873.501344	-3.018900	3.280900	-9.902800	26.889401	0.000464	20.738645
1874.495441	-3.015700	3.281500	-9.894200	26.901612	0.000464	20.776529
1875.493687	-2.997600	3.282100	-9.837100	26.927247	0.000463	20.744458
1876.496622	-2.982400	3.280800	-9.783200	26.945839	0.000460	20.752723
1877.493858	-3.033700	3.280800	-9.952400	26.937320	0.000460	20.761226
1878.495956	-2.995900	3.281000	-9.828700	26.979568	0.000461	20.767201
1879.494729	-2.990600	3.280300	-9.808100	26.954236	0.000457	20.743623
1880.494998	-2.994300	3.281000	-9.822800	26.983917	0.000459	20.758298
1881.497187	-2.995000	3.279600	-9.821500	26.978332	0.000459	20.774019
1882.499245	-3.005400	3.278800	-9.853100	26.933343	0.000458	20.744424
1883.496500	-2.985400	3.277800	-9.784100	26.920115	0.000457	20.761944
1884.497678	-3.012500	3.277100	-9.870500	26.897083	0.000456	20.765337
1885.495944	-3.008400	3.278500	-9.862100	26.899773	0.000457	20.773258
1886.494740	-3.002600	3.279000	-9.844200	26.929847	0.000455	20.763668
1887.497921	-3.003100	3.277500	-9.841600	26.940821	0.000453	20.760006
1888.503079	-3.013500	3.277300	-9.875400	26.900358	0.000452	20.758672
1889.496029	-2.998800	3.277800	-9.827900	26.888928	0.000453	20.762352
1890.499127	-2.990500	3.277200	-9.798700	26.853771	0.000453	20.774892
1891.495077	-3.018900	3.275500	-9.886400	26.808395	0.000453	20.763880
1892.501054	-3.003900	3.274100	-9.834400	26.781937	0.000452	20.761934
1893.500746	-2.986600	3.275300	-9.781000	26.739370	0.000451	20.755173
1894.495993	-2.999500	3.273900	-9.819400	26.768244	0.000451	20.784203
1895.505751	-2.996500	3.273400	-9.807600	26.819940	0.000450	20.769799
1896.501824	-3.011100	3.273900	-9.856600	26.832502	0.000449	20.782429
1897.513546	-3.005300	3.273300	-9.836400	26.840893	0.000446	20.761942
1898.501729	-2.985500	3.274000	-9.773700	26.838388	0.000448	20.777442
1899.502119	-3.000900	3.272100	-9.818200	26.835681	0.000445	20.768556
1900.502544	-2.995000	3.272700	-9.800900	26.834867	0.000446	20.774376
1901.500472	-3.005400	3.272700	-9.834800	26.831266	0.000448	20.770755
1902.503551	-3.035000	3.269300	-9.921200	26.819655	0.000447	20.765718
1903.500896	-3.001200	3.271500	-9.815700	26.860479	0.000445	20.754608
1904.499705	-3.007900	3.269100	-9.831700	26.895796	0.000444	20.779216
1905.514910	-3.017100	3.268700	-9.860800	26.874950	0.000445	20.783859
1906.501969	-2.995500	3.270100	-9.794200	26.875275	0.000444	20.761426
1907.505333	-2.983300	3.268000	-9.748400	26.895300	0.000442	20.768760
1908.508747	-2.985800	3.268800	-9.759000	26.898650	0.000440	20.770706
1909.505794	-2.978000	3.270400	-9.738800	26.944584	0.000441	20.776592
1910.500975	-2.969300	3.269400	-9.706700	26.906317	0.000440	20.776518
1911.504637	-2.988000	3.268700	-9.766300	26.943284	0.000439	20.773862
1912.501896	-3.002300	3.268700	-9.812600	26.924203	0.000439	20.788340
1913.502995	-3.016600	3.268300	-9.856800	26.888073	0.000437	20.761492
1914.509382	-3.008600	3.268100	-9.831300	26.849227	0.000438	20.763684
1915.506009	-2.987700	3.267100	-9.758900	26.843641	0.000437	20.786043
1916.509140	-2.983500	3.266100	-9.743800	26.862975	0.000437	20.768025
1917.510488	-2.992900	3.267800	-9.779100	26.926326	0.000435	20.790001
1918.506152	-3.000800	3.266000	-9.798900	26.903871	0.000434	20.781171
1919.511039	-2.995000	3.264800	-9.777900	26.955121	0.000434	20.772963
1920.509270	-3.012500	3.263400	-9.830100	26.942463	0.000433	20.789158
1921.508343	-2.997200	3.264900	-9.784200	26.958886	0.000433	20.780068
1922.503760	-3.004600	3.262500	-9.801300	26.954740	0.000432	20.776847
1923.514591	-3.023900	3.263200	-9.866000	26.964146	0.000430	20.778245
1924.508442	-2.996200	3.263800	-9.776200	26.970422	0.000432	20.801626
1925.506655	-3.013500	3.261600	-9.827800	27.019776	0.000432	20.803367
1926.507374	-2.978100	3.262900	-9.716000	27.038017	0.000432	20.793263
1927.508626	-2.986100	3.263100	-9.743200	27.035782	0.000428	20.791015
1928.504850	-2.987100	3.261800	-9.740600	27.061144	0.000428	20.781908
1929.510448	-3.013000	3.260100	-9.822200	27.074516	0.000429	20.790140
1930.509986	-3.002100	3.261200	-9.789300	27.102552	0.000428	20.805060
1931.507687	-3.009200	3.262100	-9.814500	27.115159	0.000428	20.788816
1932.509702	-3.004900	3.259200	-9.791600	27.129027	0.000426	20.801340
1933.507266	-3.008800	3.260000	-9.806800	27.124727	0.000426	20.794171
1934.509947	-2.979400	3.259300	-9.710100	27.115818	0.000425	20.784263
1935.509893	-3.015500	3.258700	-9.825300	27.048594	0.000422	20.805323
1936.506830	-2.988900	3.258800	-9.738800	27.011648	0.000423	20.790452
1937.507779	-2.985200	3.257700	-9.723500	27.013054	0.000422	20.805617
1938.506835	-3.014400	3.258400	-9.821700	27.026947	0.000422	20.797778
1939.507199	-3.002900	3.258600	-9.784000	27.039661	0.000422	20.799183
1940.512943	-2.979900	3.258800	-9.710600	27.014388	0.000420	20.798898
1941.509629	-2.993100	3.256300	-9.744600	26.988399	0.000419	20.773237
1942.514061	-2.991800	3.256000	-9.739900	26.977059	0.000420	20.789334
1943.517340	-2.975500	3.256100	-9.687900	26.939557	0.000420	20.812788
1944.513785	-2.995800	3.256400	-9.754000	26.929655	0.000419	20.813262
1945.513618	-3.001600	3.256700	-9.774400	26.895030	0.000415	20.796463
1946.512902	-2.995600	3.254600	-9.747800	26.868882	0.000415	20.792930
1947.514915	-2.996000	3.254600	-9.750100	26.859394	0.000414	20.803305
1948.513295	-2.983600	3.255100	-9.711000	26.883119	0.000417	20.813409
1949.517202	-3.023100	3.254000	-9.835800	26.923493	0.000415	20.797109
1950.512975	-2.980500	3.253700	-9.697000	26.930395	0.000414	20.785083
1951.514034	-2.999600	3.254300	-9.760700	26.961882	0.000412	20.807263
1952.515479	-3.026600	3.250900	-9.837700	27.008244	0.000412	20.800779
1953.517195	-3.018400	3.252700	-9.816200	27.056335	0.000410	20.822116
1954.517091	-2.994200	3.252500	-9.737100	27.069106	0.000412	20.826425
1955.517723	-3.003500	3.251400	-9.763700	27.068269	0.000409	20.796659
1956.516819	-3.003700	3.250100	-9.760500	27.084096	0.000410	20.816370
1957.518515	-2.998500	3.250200	-9.744500	27.106002	0.000407	20.806159
1958.515997	-3.003100	3.250700	-9.761000	27.133671	0.000408	20.793210
1959.521816	-3.006000	3.248600	-9.764900	27.158535	0.000408	20.808260
1960.516675	-3.002700	3.249000	-9.754700	27.168606	0.000406	20.804639
1961.517445	-3.001700	3.249600	-9.753600	27.172646	0.000405	20.797322
1962.516675	-2.997800	3.249800	-9.741400	27.158105	0.000405	20.830112
1963.515048	-3.008700	3.248800	-9.772300	27.154358	0.000404	20.815438
1964.518951	-3.012600	3.248500	-9.785200	27.173174	0.000406	20.827250
1965.516943	-2.982700	3.247700	-9.685300	27.173289	0.000404	20.811719
1966.517876	-2.991600	3.246600	-9.711100	27.128820	0.000403	20.844280
1967.520599	-2.990800	3.245400	-9.706400	27.078179	0.000402	20.831756
1968.522710	-3.010900	3.246300	-9.772600	27.029543	0.000404	20.806078
1969.521833	-2.997700	3.246100	-9.730000	26.992166	0.000404	20.814008
1970.516311	-3.009600	3.245100	-9.765200	26.984695	0.000400	20.793219
1971.521614	-3.003800	3.246300	-9.750400	26.970298	0.000400	20.781586
1972.520551	-3.027700	3.244000	-9.820500	26.957665	0.000397	20.812979
1973.520839	-3.034900	3.243000	-9.840500	26.935999	0.000399	20.817745
1974.520120	-3.014400	3.242800	-9.774900	26.968030	0.000398	20.834782
1975.524014	-2.988200	3.243100	-9.689800	26.950519	0.000398	20.812431
1976.522461	-2.989600	3.243300	-9.695100	26.913309	0.000398	20.829542
1977.524556	-2.983400	3.244500	-9.678100	26.862308	0.000396	20.828046
1978.527064	-3.017200	3.242700	-9.783000	26.842642	0.000395	20.823444
1979.518478	-3.024900	3.240600	-9.801600	26.873911	0.000394	20.820272
1980.521489	-3.022000	3.241000	-9.792500	26.905017	0.000393	20.821678
1981.533545	-2.995700	3.241500	-9.710100	26.959113	0.000392	20.831504
1982.527903	-3.013000	3.240400	-9.762900	27.027254	0.000394	20.812784
1983.518774	-3.003600	3.240300	-9.730900	27.032831	0.000392	20.835462
1984.523652	-2.978000	3.240700	-9.649600	27.060575	0.000391	20.851509
1985.523593	-2.980700	3.241700	-9.661800	27.075606	0.000391	20.832487
1986.524642	-2.989500	3.238600	-9.681600	27.056170	0.000389	20.828588
1987.521410	-2.998200	3.239800	-9.712300	27.055926	0.000390	20.833558
1988.521310	-3.028900	3.236200	-9.801200	27.033344	0.000388	20.843090
1989.525940	-2.991000	3.237700	-9.683500	27.025157	0.000385	20.841495
1990.521492	-3.013000	3.236500	-9.749000	27.049992	0.000387	20.845608
1991.525928	-3.008300	3.237100	-9.737700	27.078451	0.000386	20.845305
1992.521601	-3.012900	3.238900	-9.757600	27.103341	0.000384	20.850897
1993.525439	-3.006300	3.236700	-9.729400	27.127182	0.000385	20.845952
1994.522090	-3.009700	3.237500	-9.742700	27.161304	0.000383	20.837597
1995.526152	-3.009300	3.234900	-9.733400	27.231098	0.000383	20.845207
1996.526131	-3.004700	3.234000	-9.716400	27.252059	0.000384	20.848747
1997.522409	-3.008500	3.234700	-9.730700	27.244736	0.000380	20.850391
1998.526875	-3.006600	3.233900	-9.721700	27.248539	0.000380	20.846630
1999.525456	-3.010700	3.233300	-9.733400	27.239827	0.000380	20.859677
2000.527312	-2.990000	3.233900	-9.667300	27.265477	0.000380	20.857028
2001.528331	-2.995500	3.232700	-9.682800	27.287283	0.000378	20.866160
2002.532751	-2.985100	3.235200	-9.656600	27.287234	0.000377	20.854257
2003.527772	-2.992800	3.232400	-9.672600	27.275303	0.000379	20.838938
2004.530150	-2.992300	3.231900	-9.670300	27.284779	0.000375	20.840883
2005.529547	-3.004300	3.230400	-9.704400	27.289908	0.000377	20.858844
2006.533201	-3.006200	3.230800	-9.711600	27.332883	0.000374	20.849916
2007.528121	-3.002300	3.230400	-9.697500	27.352037	0.000373	20.854486
2008.531269	-3.026100	3.230100	-9.773500	27.387063	0.000374	20.834245
2009.531356	-2.993600	3.231500	-9.671500	27.412409	0.000372	20.840304
2010.529553	-3.014600	3.228800	-9.732500	27.416968	0.000371	20.837778
2011.534627	-3.033200	3.227800	-9.788600	27.442866	0.000371	20.854822
2012.530272	-3.010900	3.228800	-9.720900	27.449537	0.000371	20.844939
2013.536090	-2.980700	3.229700	-9.625900	27.437657	0.000369	20.844841
2014.536205	-3.004700	3.227200	-9.695800	27.449684	0.000369	20.875905
2015.536111	-3.005000	3.228200	-9.700100	27.454072	0.000368	20.887905
2016.540462	-2.992400	3.226600	-9.654100	27.470397	0.000368	20.879199
2017.536716	-3.004600	3.226800	-9.694100	27.423916	0.000366	20.859465
2018.535266	-3.002200	3.228200	-9.691300	27.414287	0.000366	20.870640
2019.532423	-2.995700	3.224800	-9.659000	27.362490	0.000366	20.853147
2020.539727	-2.992800	3.224900	-9.650300	27.409493	0.000364	20.859180
2021.534616	-2.975500	3.227300	-9.601900	27.399392	0.000367	20.875570
2022.534441	-2.987600	3.224800	-9.632500	27.422836	0.000362	20.867862
2023.535901	-2.995900	3.225400	-9.660700	27.429344	0.000361	20.864926
2024.535596	-3.005700	3.223500	-9.687600	27.436211	0.000361	20.866619
2025.536393	-3.006100	3.223000	-9.687700	27.429418	0.000361	20.865474
2026.538435	-3.003700	3.222000	-9.676000	27.403463	0.000362	20.867338
2027.536517	-2.981100	3.226100	-9.616200	27.385739	0.000360	20.865629
2028.542085	-3.011000	3.221600	-9.699100	27.379506	0.000358	20.891126
2029.539086	-2.974800	3.224200	-9.590600	27.352860	0.000357	20.870011
2030.538014	-3.004000	3.219400	-9.670300	27.347033	0.000358	20.876003
2031.538834	-3.012800	3.221100	-9.703100	27.345797	0.000356	20.879027
2032.538083	-2.981500	3.221100	-9.603000	27.369633	0.000358	20.852746
2033.537663	-3.005100	3.219300	-9.672000	27.385504	0.000355	20.859229
2034.536331	-2.986700	3.219300	-9.613200	27.387512	0.000353	20.875946
2035.541949	-2.990800	3.218600	-9.624600	27.447230	0.000355	20.883392
2036.538169	-3.004500	3.219000	-9.670000	27.456153	0.000352	20.889998
2037.536670	-3.011400	3.218800	-9.691700	27.467512	0.000350	20.870134
2038.545684	-2.996600	3.217300	-9.639800	27.483292	0.000350	20.881742
2039.544495	-3.015300	3.217000	-9.699400	27.473119	0.000351	20.871507
2040.541553	-2.961100	3.218400	-9.528000	27.461759	0.000351	20.888052
2041.546345	-2.995400	3.215300	-9.629900	27.473542	0.000350	20.878570
2042.543151	-3.005000	3.215900	-9.662800	27.469625	0.000350	20.887431
2043.540454	-2.967900	3.217200	-9.547600	27.510944	0.000348	20.893914
2044.546999	-2.986600	3.216200	-9.604500	27.550879	0.000349	20.903747
2045.546038	-3.001000	3.214400	-9.644900	27.571639	0.000347	20.890023
2046.539930	-2.993500	3.215700	-9.624100	27.569080	0.000347	20.879388
2047.546257	-2.977400	3.215000	-9.571100	27.521483	0.000345	20.889819
2048.543998	-3.009100	3.213100	-9.666900	27.517046	0.000344	20.868287
2049.545922	-3.017900	3.212200	-9.692300	27.521978	0.000345	20.872775
2050.545935	-3.000800	3.212500	-9.639600	27.537677	0.000344	20.897102
2051.545702	-3.000300	3.211800	-9.636200	27.536912	0.000343	20.890644
2052.544055	-3.002800	3.210700	-9.640400	27.573946	0.000342	20.880965
2053.549242	-3.014700	3.211300	-9.679200	27.586142	0.000341	20.859099
2054.551181	-3.021600	3.210500	-9.699600	27.598517	0.000342	20.870601
2055.548773	-3.004700	3.209800	-9.643700	27.609550	0.000341	20.899244
2056.544867	-2.997800	3.209400	-9.619300	27.594520	0.000339	20.858993
2057.543170	-2.999000	3.210000	-9.625600	27.613442	0.000338	20.877558
2058.545086	-3.024900	3.210000	-9.709200	27.612531	0.000339	20.860995
2059.549314	-2.974700	3.209100	-9.544900	27.598597	0.000337	20.866415
2060.548047	-3.005200	3.207000	-9.636900	27.607170	0.000337	20.851808
2061.548951	-3.021100	3.206300	-9.685600	27.630316	0.000336	20.855657
2062.548689	-2.995600	3.207400	-9.607200	27.637108	0.000337	20.862491
2063.546227	-2.980000	3.208200	-9.558000	27.564433	0.000334	20.869023
2064.545898	-3.005900	3.206900	-9.638200	27.542340	0.000334	20.856753
2065.551953	-3.023200	3.203500	-9.683700	27.563928	0.000332	20.850024
2066.553767	-3.011200	3.203800	-9.645600	27.603634	0.000331	20.870060
2067.549548	-3.019800	3.204300	-9.675800	27.616626	0.000333	20.858003
2068.551559	-2.978300	3.205200	-9.545500	27.640236	0.000332	20.859949
2069.547363	-3.006000	3.204400	-9.631100	27.650871	0.000331	20.863064
2070.550921	-3.003900	3.205300	-9.628200	27.644404	0.000330	20.866513
2071.556067	-3.004900	3.203800	-9.626000	27.613945	0.000329	20.866211
2072.548625	-2.990300	3.202200	-9.574500	27.611418	0.000327	20.865565
2073.553871	-3.001600	3.201200	-9.608200	27.622996	0.000327	20.855404
2074.564857	-2.984800	3.202200	-9.557300	27.609484	0.000327	20.834223
2075.557191	-2.993700	3.202100	-9.585400	27.638644	0.000327	20.859770
2076.554084	-2.977600	3.201200	-9.530700	27.635028	0.000324	20.858976
2077.553852	-3.000800	3.200600	-9.603200	27.623272	0.000325	20.836242
2078.563499	-2.988000	3.199700	-9.559600	27.578952	0.000324	20.846175
2079.554107	-3.010400	3.198700	-9.628700	27.590359	0.000324	20.861919
2080.566828	-2.997100	3.199200	-9.586800	27.598548	0.000322	20.855461
2081.555106	-2.997600	3.197500	-9.584500	27.613579	0.000323	20.846877
2082.555908	-3.011100	3.197000	-9.625200	27.633363	0.000320	20.844973
2083.555659	-2.995800	3.199300	-9.583100	27.663618	0.000320	20.861192
2084.556356	-2.978700	3.198100	-9.525200	27.703629	0.000321	20.852616
2085.555007	-3.001100	3.196200	-9.590400	27.672725	0.000318	20.832899
2086.554814	-3.033000	3.195700	-9.692300	27.639692	0.000318	20.830479
2087.559651	-2.985700	3.195700	-9.540500	27.612263	0.000317	20.843182
2088.568551	-3.005100	3.195400	-9.601800	27.626124	0.000316	20.841956
2089.559517	-2.995800	3.195400	-9.571800	27.632282	0.000316	20.842463
2090.557752	-3.011100	3.194500	-9.618400	27.655388	0.000316	20.832997
2091.556231	-2.984600	3.194900	-9.534600	27.667127	0.000315	20.827266
2092.556963	-3.006000	3.193200	-9.598400	27.679776	0.000314	20.837149
2093.559026	-3.003300	3.192900	-9.588600	27.661797	0.000313	20.843713
2094.560158	-2.980000	3.194800	-9.518500	27.651211	0.000314	20.848233
2095.557155	-3.006800	3.191300	-9.594300	27.614610	0.000311	20.838432
2096.561065	-3.001200	3.191200	-9.576600	27.555917	0.000310	20.817309
2097.555863	-3.014700	3.191100	-9.617900	27.580209	0.000309	20.832742
2098.564445	-3.007400	3.190100	-9.592500	27.635741	0.000309	20.839780
2099.560407	-2.986400	3.191100	-9.529300	27.656556	0.000309	20.845077
2100.558738	-3.007100	3.192300	-9.597800	27.701637	0.000307	20.811732
2101.571684	-3.004700	3.189900	-9.582100	27.721207	0.000307	20.836167
2102.558411	-3.021700	3.189300	-9.635900	27.744026	0.000307	20.821672
2103.555652	-2.992500	3.189100	-9.542300	27.737698	0.000308	20.817675
2104.559215	-2.990800	3.187500	-9.532200	27.784263	0.000304	20.838930
2105.569802	-2.995000	3.187200	-9.544700	27.779095	0.000305	20.826618
2106.557764	-2.992500	3.188700	-9.541300	27.768461	0.000303	20.822554
2107.559642	-3.053600	3.185600	-9.725200	27.797641	0.000303	20.815410
2108.560314	-2.998100	3.186700	-9.553700	27.786787	0.000304	20.825824
2109.557736	-3.000500	3.184900	-9.555600	27.781329	0.000304	20.824598
2110.560960	-3.016100	3.184300	-9.603600	27.782376	0.000300	20.842247
2111.559466	-3.007800	3.186400	-9.582800	27.734561	0.000300	20.824475
2112.560089	-3.011300	3.186100	-9.592900	27.722911	0.000301	20.814175
2113.564411	-3.023600	3.182800	-9.621900	27.694445	0.000300	20.830099
2114.562343	-2.987000	3.183300	-9.507600	27.699928	0.000299	20.827556
2115.559059	-2.989000	3.182700	-9.511700	27.718954	0.000300	20.791226
2116.565935	-2.997600	3.181600	-9.535800	27.709579	0.000298	20.789853
2117.561278	-2.992100	3.181900	-9.519000	27.757786	0.000297	20.829355
2118.562475	-3.003000	3.179800	-9.548000	27.795835	0.000297	20.826869
2119.565530	-2.992400	3.181200	-9.518100	27.778077	0.000295	20.810421
2120.562790	-3.009200	3.179500	-9.566500	27.796306	0.000294	20.832084
2121.562768	-3.045000	3.178400	-9.677000	27.800522	0.000293	20.810723
2122.562311	-3.002500	3.178600	-9.542900	27.812974	0.000293	20.805712
2123.560863	-2.982400	3.179400	-9.481100	27.799043	0.000292	20.812080
2124.561313	-2.995100	3.179100	-9.520600	27.745111	0.000291	20.795737
2125.566767	-2.978100	3.179700	-9.468700	27.686904	0.000290	20.805916
2126.561752	-2.986500	3.177500	-9.488100	27.715224	0.000290	20.808336
2127.564157	-2.992200	3.177000	-9.505500	27.729311	0.000289	20.802597
2128.564063	-3.001800	3.177700	-9.538300	27.709943	0.000289	20.811082
2129.566590	-2.994200	3.176300	-9.509900	27.709172	0.000287	20.814099
2130.567447	-2.994000	3.176100	-9.508200	27.758726	0.000288	20.812758
2131.564114	-2.976600	3.174500	-9.448400	27.783722	0.000288	20.801877
2132.561143	-2.980500	3.174500	-9.461200	27.828927	0.000289	20.820818
2133.563683	-2.983200	3.173600	-9.465800	27.823225	0.000284	20.816028
2134.560220	-3.009600	3.173900	-9.549500	27.803803	0.000286	20.796008
2135.562362	-2.992300	3.172800	-9.491400	27.781261	0.000285	20.808883
2136.564386	-2.974100	3.173300	-9.435700	27.781554	0.000284	20.808704
2137.561297	-2.986700	3.172800	-9.475800	27.784056	0.000284	20.791308
2138.567114	-3.002500	3.171000	-9.520700	27.793479	0.000283	20.793678
2139.572246	-3.019900	3.168300	-9.567600	27.807321	0.000282	20.805712
2140.567058	-3.032800	3.169200	-9.610300	27.810140	0.000282	20.813291
2141.564052	-3.017800	3.170700	-9.567400	27.859113	0.000282	20.793826
2142.563854	-3.002700	3.168900	-9.513300	27.839853	0.000279	20.783925
2143.560672	-2.989100	3.169000	-9.471400	27.809515	0.000281	20.800808
2144.564630	-2.990500	3.167900	-9.472400	27.758045	0.000278	20.796899
2145.565042	-3.001100	3.168200	-9.506300	27.774357	0.000279	20.792927
2146.565694	-2.984000	3.168400	-9.453600	27.801034	0.000279	20.790851
2147.565563	-3.007500	3.168500	-9.528100	27.796047	0.000279	20.791047
2148.567050	-3.031500	3.164700	-9.593000	27.804162	0.000275	20.818653
2149.566166	-2.974000	3.165500	-9.413300	27.840642	0.000275	20.793253
2150.570969	-2.973700	3.163900	-9.406700	27.857197	0.000275	20.799958
2151.566289	-2.968100	3.167900	-9.401400	27.882686	0.000272	20.775825
2152.564914	-2.979300	3.164900	-9.428200	27.891986	0.000272	20.779495
2153.571099	-3.005400	3.163400	-9.506100	27.868179	0.000273	20.796786
2154.564270	-3.000400	3.161800	-9.484500	27.817768	0.000274	20.786829
2155.564230	-3.003900	3.162300	-9.497800	27.828312	0.000273	20.797914
2156.571887	-2.995300	3.163600	-9.475100	27.813074	0.000272	20.788742
2157.568163	-3.006500	3.162000	-9.506000	27.818881	0.000270	20.782259
2158.571541	-2.998500	3.160700	-9.475200	27.796616	0.000269	20.787826
2159.575167	-3.006400	3.160500	-9.500600	27.805218	0.000271	20.796010
2160.570934	-3.000200	3.160100	-9.479500	27.781888	0.000270	20.782488
2161.572352	-2.992800	3.157700	-9.449600	27.791929	0.000268	20.784532
2162.577979	-2.980100	3.158100	-9.410900	27.796738	0.000268	20.789371
2163.576578	-2.978000	3.157600	-9.401800	27.827069	0.000266	20.789077
2164.571818	-3.002600	3.156100	-9.475500	27.865652	0.000266	20.773854
2165.574873	-3.008600	3.155000	-9.490900	27.874848	0.000265	20.783109
2166.571247	-3.042000	3.153000	-9.589300	27.909343	0.000263	20.783689
2167.575594	-3.020600	3.155500	-9.530900	27.957939	0.000261	20.791349
2168.577382	-2.971000	3.154300	-9.370800	27.938925	0.000263	20.801609
2169.575159	-3.001100	3.153800	-9.464100	27.964607	0.000260	20.794268
2170.577463	-3.005300	3.153700	-9.476200	27.937812	0.000261	20.798118
2171.576847	-3.014400	3.153200	-9.504100	27.903551	0.000260	20.768376
2172.572598	-2.986500	3.153700	-9.417200	27.891002	0.000260	20.793678
2173.580698	-3.002300	3.151200	-9.459700	27.864254	0.000259	20.763438
2174.577420	-2.984500	3.152100	-9.406000	27.834005	0.000259	20.770926
2175.573868	-3.004300	3.150900	-9.464500	27.821064	0.000258	20.780663
2176.578995	-2.990100	3.150500	-9.418600	27.801228	0.000257	20.781088
2177.579870	-2.989800	3.149300	-9.413600	27.846464	0.000257	20.787259
2178.579530	-3.010700	3.148800	-9.478900	27.897142	0.000259	20.791797
2179.580793	-2.988100	3.149900	-9.410900	27.908951	0.000256	20.774285
2180.583870	-3.030500	3.147000	-9.535900	27.930353	0.000256	20.777808
2181.583887	-2.997600	3.146400	-9.430400	27.884478	0.000254	20.763404
2182.581438	-3.014500	3.145400	-9.481000	27.866161	0.000256	20.777211
2183.589613	-2.999600	3.145200	-9.431600	27.877102	0.000255	20.783007
2184.579609	-3.005000	3.144400	-9.447700	27.897279	0.000253	20.771072
2185.584632	-3.007000	3.143100	-9.449300	27.921117	0.000251	20.784634
2186.587322	-3.012100	3.143100	-9.465100	27.933544	0.000253	20.759208
2187.584534	-2.993500	3.143300	-9.408300	27.986726	0.000251	20.762478
2188.582883	-2.966600	3.141600	-9.318500	27.932033	0.000250	20.774283
2189.587705	-2.995400	3.141300	-9.408400	27.917583	0.000249	20.755471
2190.584266	-2.970200	3.142900	-9.333900	27.899786	0.000248	20.766957
2191.583259	-2.980500	3.140900	-9.360000	27.918606	0.000250	20.744647
2192.586127	-2.995600	3.140500	-9.406600	27.906633	0.000248	20.744924
2193.584517	-3.019200	3.139100	-9.476000	27.917664	0.000248	20.798701
2194.581919	-3.007100	3.138000	-9.435800	27.923422	0.000246	20.760400
2195.582104	-3.001600	3.139500	-9.422500	27.929700	0.000246	20.756288
2196.585633	-3.007700	3.137200	-9.434200	27.913463	0.000247	20.759386
2197.583754	-3.007500	3.136300	-9.430800	27.855461	0.000244	20.772606
2198.586923	-2.983600	3.137400	-9.360100	27.841278	0.000245	20.752642
2199.587598	-3.005200	3.135400	-9.421400	27.793644	0.000243	20.761602
2200.582182	-2.991000	3.135900	-9.378400	27.825016	0.000244	20.761405
2201.588586	-3.014100	3.133500	-9.443400	27.849912	0.000243	20.770341
2202.587798	-3.003000	3.133000	-9.407500	27.895090	0.000242	20.771714
2203.581801	-3.008700	3.133400	-9.427000	27.904342	0.000242	20.760636
2204.588188	-2.994500	3.133300	-9.381000	27.910685	0.000240	20.758487
2205.585982	-3.012800	3.131100	-9.432200	27.848897	0.000240	20.748455
2206.592474	-2.987300	3.130800	-9.351700	27.843072	0.000243	20.770569
2207.590914	-3.008600	3.128800	-9.413000	27.837541	0.000237	20.757415
2208.589815	-3.006800	3.129000	-9.406600	27.883540	0.000239	20.748708
2209.588097	-2.996800	3.129500	-9.377400	27.846744	0.000240	20.773316
2210.588842	-3.006300	3.128300	-9.403400	27.865069	0.000239	20.753826
2211.590023	-3.014800	3.126400	-9.424500	27.800053	0.000238	20.754300
2212.588640	-3.016200	3.125700	-9.426900	27.796340	0.000235	20.754357
2213.590977	-3.023700	3.124500	-9.446500	27.782896	0.000235	20.747465
2214.587947	-2.998600	3.124900	-9.369000	27.738907	0.000234	20.754406
2215.588785	-2.986000	3.125300	-9.331400	27.696005	0.000232	20.741105
2216.595058	-2.997700	3.123100	-9.361300	27.660795	0.000234	20.744554
2217.591108	-3.019800	3.122600	-9.428800	27.646089	0.000233	20.749672
2218.588921	-3.017800	3.121300	-9.418700	27.648487	0.000232	20.749714
2219.591689	-2.981100	3.123300	-9.310400	27.660526	0.000232	20.742387
2220.599059	-3.001600	3.119700	-9.361700	27.721911	0.000233	20.732086
2221.587862	-2.996700	3.119800	-9.347700	27.785941	0.000230	20.742469
2222.595411	-2.983700	3.119000	-9.304200	27.809676	0.000228	20.751658
2223.589020	-2.984600	3.119000	-9.307500	27.799751	0.000229	20.748306
2224.587214	-2.992600	3.118200	-9.330300	27.835443	0.000230	20.754355
2225.586176	-2.998900	3.117500	-9.348600	27.803454	0.000228	20.749188
2226.589850	-3.019300	3.116000	-9.407000	27.850746	0.000228	20.751265
2227.589379	-2.991900	3.115200	-9.319600	27.875569	0.000230	20.757282
2228.589690	-2.986900	3.116700	-9.308200	27.911112	0.000228	20.721456
2229.590514	-3.006800	3.113200	-9.360900	27.951179	0.000227	20.752776
2230.590790	-2.997000	3.113700	-9.330700	27.948555	0.000226	20.726426
2231.591668	-2.987600	3.112100	-9.296200	27.936802	0.000225	20.743047
2232.590127	-2.978800	3.112300	-9.269700	27.974464	0.000225	20.744445
2233.588627	-2.997900	3.111500	-9.326800	27.969534	0.000224	20.738534
2234.587895	-2.994800	3.112100	-9.319700	27.999731	0.000225	20.763714
2235.591267	-3.050700	3.108100	-9.481100	28.030259	0.000225	20.742760
2236.590979	-3.005500	3.108400	-9.340500	28.035806	0.000224	20.734119
2237.590583	-2.994700	3.108700	-9.308900	28.030559	0.000221	20.735950
2238.594960	-3.012800	3.107100	-9.359800	28.015681	0.000222	20.731878
2239.592460	-3.022800	3.106300	-9.388800	28.022681	0.000222	20.737503
2240.592718	-2.990600	3.106400	-9.287300	28.017670	0.000221	20.722501
2241.593040	-2.989500	3.104300	-9.278900	28.008825	0.000221	20.720236
2242.590074	-2.989400	3.104900	-9.280800	27.991599	0.000222	20.733243
2243.594939	-2.992300	3.103100	-9.284700	27.978182	0.000220	20.716418
2244.593597	-3.026300	3.101700	-9.385700	27.998909	0.000219	20.731117
2245.593022	-3.009400	3.101000	-9.331600	28.010100	0.000221	20.708715
2246.596311	-2.965400	3.102200	-9.198500	28.011034	0.000221	20.738107
2247.598819	-2.963900	3.101900	-9.192000	27.984419	0.000218	20.752569
2248.598958	-2.983700	3.098900	-9.245100	27.941551	0.000219	20.727437
2249.594770	-2.988300	3.099100	-9.260200	27.910759	0.000221	20.715885
2250.601521	-2.994200	3.098400	-9.275700	27.885117	0.000222	20.727061
2251.597209	-2.990800	3.096900	-9.260800	27.895709	0.000219	20.722074
2252.597790	-2.997800	3.095900	-9.279900	27.915925	0.000218	20.727248
2253.600742	-2.995400	3.097000	-9.276000	27.944344	0.000217	20.732619
2254.597850	-3.021400	3.094000	-9.347500	27.964673	0.000216	20.713726
2255.598100	-2.993600	3.093900	-9.260600	27.909183	0.000216	20.725204
2256.595319	-2.982800	3.092900	-9.224800	27.899671	0.000215	20.733175
2257.597917	-3.017200	3.091700	-9.326500	27.893815	0.000218	20.727755
2258.596778	-3.003800	3.092000	-9.286100	27.892133	0.000216	20.720372
2259.600663	-2.998200	3.089700	-9.261300	27.891093	0.000217	20.737819
2260.599265	-2.977900	3.089500	-9.199400	27.944327	0.000216	20.718851
2261.597291	-3.017400	3.088100	-9.317200	27.959929	0.000215	20.726495
2262.597353	-2.984700	3.089800	-9.221600	28.019429	0.000215	20.731858
2263.597615	-2.995300	3.088200	-9.248800	28.069911	0.000215	20.721033
2264.597771	-3.012000	3.086300	-9.295200	28.051987	0.000216	20.720060
2265.600772	-2.989300	3.084700	-9.220200	28.067434	0.000216	20.722333
2266.600832	-2.985800	3.085600	-9.211900	28.035826	0.000214	20.733664
2267.599712	-3.021600	3.082500	-9.312900	28.066963	0.000214	20.704788
2268.602990	-3.021600	3.081500	-9.310000	28.083749	0.000214	20.736387
2269.600521	-3.016000	3.083400	-9.297600	28.093941	0.000215	20.720093
2270.601339	-3.023400	3.079600	-9.310200	28.074060	0.000214	20.716201
2271.602774	-3.009200	3.079600	-9.266000	28.055058	0.000212	20.716038
2272.601998	-3.000700	3.078500	-9.237100	28.107893	0.000212	20.705213
2273.600599	-3.015700	3.077000	-9.278600	28.132092	0.000212	20.736215
2274.606103	-2.981700	3.077800	-9.176000	28.169098	0.000212	20.739330
2275.602465	-3.007200	3.076600	-9.250900	28.212256	0.000211	20.709759
2276.600169	-2.978700	3.077700	-9.166400	28.254513	0.000211	20.728596
2277.617379	-3.015300	3.073800	-9.267600	28.266042	0.000212	20.731195
2278.602050	-2.994800	3.071900	-9.199200	28.277093	0.000214	20.704862
2279.602585	-3.000600	3.073400	-9.221400	28.274268	0.000211	20.717665
2280.607797	-3.015100	3.071400	-9.260200	28.243112	0.000211	20.704314
2281.608893	-2.988700	3.070600	-9.176200	28.235026	0.000210	20.731736
2282.607407	-2.994600	3.069700	-9.190900	28.189691	0.000209	20.719758
2283.609015	-3.000300	3.069000	-9.206900	28.150600	0.000210	20.738725
2284.611855	-2.975300	3.068800	-9.129300	28.130371	0.000210	20.709351
2285.606369	-3.000600	3.065400	-9.197100	28.114365	0.000208	20.713626
2286.609954	-2.997600	3.066600	-9.191000	28.176040	0.000207	20.712179
2287.607763	-3.023900	3.063600	-9.262300	28.182261	0.000209	20.703742
2288.607879	-3.016000	3.062600	-9.235900	28.216763	0.000206	20.727100
2289.607402	-3.036300	3.061700	-9.294700	28.271750	0.000208	20.733623
2290.609742	-2.987200	3.061100	-9.143100	28.316829	0.000207	20.733493
2291.606571	-2.999100	3.059900	-9.175200	28.316212	0.000208	20.712955
2292.615207	-3.005800	3.060100	-9.197400	28.339287	0.000206	20.726233
2293.611332	-2.997300	3.058400	-9.165200	28.361817	0.000207	20.711459
2294.606087	-2.999500	3.057100	-9.168800	28.373094	0.000207	20.738937
2295.611644	-2.983000	3.058100	-9.121000	28.342388	0.000205	20.710388
2296.607407	-2.999900	3.056200	-9.166500	28.321546	0.000205	20.727810
2297.609877	-2.986000	3.054600	-9.119600	28.306135	0.000208	20.702334
2298.611514	-2.984300	3.055000	-9.115700	28.324526	0.000204	20.728439
2299.610390	-2.981500	3.053200	-9.102200	28.354363	0.000206	20.740466
2300.608817	-3.014900	3.051500	-9.199000	28.328537	0.000206	20.730582
2301.611785	-3.008600	3.050800	-9.177300	28.285073	0.000202	20.736132
2302.621717	-3.010100	3.049200	-9.177200	28.294272	0.000206	20.725005
2303.610786	-3.004000	3.048400	-9.155900	28.313402	0.000204	20.719135
2304.612844	-3.002000	3.046800	-9.145600	28.347583	0.000207	20.723681
2305.609349	-3.002200	3.045200	-9.141300	28.371607	0.000205	20.731749
2306.612547	-3.007200	3.044800	-9.155500	28.401314	0.000202	20.705236
2307.609467	-2.965400	3.045100	-9.029200	28.451875	0.000203	20.719167
2308.612523	-2.992700	3.043400	-9.106800	28.438171	0.000203	20.735715
2309.609366	-3.024400	3.040400	-9.194900	28.427861	0.000205	20.726754
2310.617791	-2.996800	3.040500	-9.110400	28.427617	0.000204	20.714180
2311.614388	-2.994800	3.039900	-9.102400	28.393162	0.000204	20.705563
2312.614710	-2.995000	3.038200	-9.098200	28.343897	0.000200	20.719020
2313.618059	-2.994200	3.036800	-9.092200	28.381349	0.000203	20.724489
2314.615012	-3.003900	3.035800	-9.117700	28.408653	0.000200	20.718791
2315.614460	-3.023900	3.033200	-9.170100	28.429257	0.000201	20.707770
2316.612571	-3.016600	3.034100	-9.151300	28.440355	0.000202	20.715153
2317.615187	-2.984800	3.033100	-9.051300	28.408765	0.000203	20.737398
2318.612766	-3.005300	3.031300	-9.109000	28.378353	0.000200	20.724792
2319.616492	-2.991700	3.031000	-9.065700	28.359517	0.000202	20.718153
2320.615000	-2.992200	3.030000	-9.065400	28.314854	0.000203	20.731978
2321.617749	-2.975700	3.029500	-9.013000	28.221414	0.000200	20.744110
2322.617195	-2.998100	3.027300	-9.074300	28.192904	0.000202	20.737693
2323.619670	-3.011400	3.025500	-9.110000	28.161771	0.000200	20.720573
2324.618817	-3.010000	3.025100	-9.104200	28.178199	0.000201	20.732371
2325.616345	-3.006700	3.022800	-9.088200	28.218141	0.000199	20.737022
2326.620943	-2.995800	3.022100	-9.052600	28.250085	0.000200	20.730302
2327.618602	-2.990400	3.021600	-9.035600	28.268111	0.000199	20.712414
2328.621313	-2.990400	3.021800	-9.035000	28.302464	0.000199	20.728037
2329.623225	-3.019700	3.018500	-9.114200	28.322560	0.000200	20.722666
2330.620028	-2.994700	3.017600	-9.035800	28.355304	0.000197	20.716281
2331.619522	-2.997300	3.017800	-9.043600	28.365663	0.000196	20.745206
2332.622635	-3.018700	3.013900	-9.096400	28.407702	0.000200	20.729214
2333.622931	-2.977400	3.013500	-8.972000	28.435061	0.000199	20.724522
2334.617228	-3.010300	3.012300	-9.066900	28.471422	0.000199	20.736956
2335.622809	-2.979500	3.012800	-8.974500	28.539668	0.000199	20.739302
2336.623602	-2.997700	3.010400	-9.023600	28.556220	0.000199	20.727996
2337.620618	-2.995700	3.010500	-9.017500	28.549751	0.000195	20.727644
2338.622014	-3.001500	3.008000	-9.027800	28.509892	0.000198	20.746774
2339.621132	-2.978600	3.007800	-8.957700	28.434605	0.000197	20.744927
2340.621148	-3.014100	3.005700	-9.058800	28.433907	0.000197	20.733792
2341.619516	-2.984700	3.003900	-8.964200	28.413270	0.000197	20.742883
2342.621971	-2.994100	3.002400	-8.988900	28.426308	0.000198	20.733726
2343.619586	-3.034900	2.999300	-9.101800	28.423044	0.000197	20.732336
2344.624054	-2.977200	3.001600	-8.935100	28.431715	0.000196	20.763353
2345.619811	-2.995500	2.998200	-8.980100	28.430400	0.000195	20.741640
2346.621383	-3.028700	2.997000	-9.076300	28.455363	0.000196	20.740225
2347.634552	-3.000200	2.995700	-8.986600	28.454494	0.000196	20.729867
2348.623779	-3.011300	2.995700	-9.019100	28.505053	0.000197	20.752807
2349.628184	-2.989000	2.993600	-8.945600	28.497488	0.000197	20.740446
2350.630131	-3.003800	2.991300	-8.983900	28.479952	0.000196	20.748866
2351.635712	-2.998300	2.990500	-8.965900	28.515167	0.000196	20.727430
2352.627946	-2.988600	2.989500	-8.933100	28.551282	0.000196	20.745783
2353.628413	-3.029400	2.988600	-9.053000	28.536411	0.000197	20.738393
2354.623847	-3.036900	2.985300	-9.065400	28.517229	0.000195	20.737567
2355.631866	-2.993800	2.985500	-8.936400	28.539041	0.000196	20.743886
2356.626671	-3.023300	2.984000	-9.020300	28.571178	0.000194	20.735474
2357.630384	-2.997500	2.983200	-8.941100	28.567119	0.000195	20.743714
2358.632365	-3.008600	2.980300	-8.964200	28.572622	0.000196	20.752102
2359.630695	-3.019400	2.978400	-8.991300	28.555559	0.000195	20.761471
2360.631656	-2.952400	2.981300	-8.800200	28.569634	0.000195	20.745300
2361.631209	-2.980500	2.977300	-8.872600	28.575235	0.000194	20.753786
2362.628082	-2.987600	2.976500	-8.891200	28.558384	0.000197	20.735391
2363.633446	-2.985500	2.974400	-8.879400	28.590545	0.000193	20.745496
2364.630798	-2.970800	2.973500	-8.832400	28.618995	0.000194	20.753287
2365.628915	-2.967300	2.972400	-8.818900	28.612404	0.000197	20.746649
2366.633872	-3.018500	2.969300	-8.961700	28.599270	0.000194	20.751914
2367.627645	-2.987100	2.967900	-8.864400	28.620634	0.000196	20.730755
2368.632026	-3.002100	2.966900	-8.905300	28.659952	0.000195	20.743804
2369.632514	-3.017800	2.965000	-8.946600	28.642168	0.000197	20.744858
2370.630889	-2.994600	2.965300	-8.878600	28.717342	0.000195	20.739969
2371.632463	-3.034600	2.962200	-8.987600	28.705152	0.000195	20.741440
2372.641795	-2.995200	2.959900	-8.864000	28.758020	0.000195	20.773831
2373.635353	-3.007000	2.958600	-8.895400	28.775315	0.000198	20.761854
2374.631413	-3.027800	2.958100	-8.954500	28.769666	0.000195	20.749052
2375.634078	-3.000800	2.956400	-8.870500	28.757135	0.000196	20.742119
2376.630521	-3.003700	2.956000	-8.877300	28.680315	0.000196	20.754831
2377.631622	-2.975400	2.954000	-8.788400	28.619270	0.000195	20.745030
2378.632277	-2.970900	2.953900	-8.774500	28.596485	0.000197	20.759540
2379.634970	-3.017800	2.950000	-8.901700	28.584025	0.000195	20.760742
2380.632220	-2.993800	2.949000	-8.826300	28.610365	0.000195	20.755501
2381.636411	-2.969700	2.948400	-8.755400	28.605284	0.000194	20.767454
2382.636149	-2.988000	2.945500	-8.799500	28.586355	0.000195	20.766407
2383.637310	-2.991000	2.945100	-8.806600	28.546434	0.000196	20.762712
2384.636430	-2.981700	2.944500	-8.777700	28.492962	0.000195	20.769555
2385.633846	-3.001800	2.940000	-8.824400	28.430388	0.000195	20.751111
2386.638307	-2.976900	2.939400	-8.749000	28.409109	0.000194	20.756711
2387.636535	-2.997700	2.938300	-8.806900	28.424542	0.000194	20.757553
2388.637091	-3.007700	2.934800	-8.825700	28.448564	0.000195	20.750448
2389.637515	-2.993900	2.936400	-8.789900	28.471807	0.000196	20.764371
2390.642758	-3.021500	2.932200	-8.858200	28.475176	0.000196	20.767764
2391.635269	-3.013800	2.931900	-8.835100	28.501591	0.000195	20.778719
2392.637491	-3.049000	2.928100	-8.926500	28.491931	0.000193	20.751920
2393.638399	-3.025800	2.927600	-8.857200	28.500682	0.000194	20.792976
2394.635917	-2.990700	2.926100	-8.750300	28.499245	0.000194	20.773511
2395.642146	-2.995200	2.925500	-8.761500	28.516463	0.000193	20.754340
2396.636827	-2.968600	2.924100	-8.678900	28.546052	0.000194	20.764224
2397.640697	-3.028600	2.922100	-8.848800	28.581289	0.000196	20.754667
2398.639053	-2.992300	2.921200	-8.740300	28.628855	0.000194	20.760374
2399.640681	-2.980300	2.920100	-8.702200	28.671995	0.000195	20.777272
2400.637893	-2.995300	2.916800	-8.735100	28.657402	0.000195	20.762573
2401.640075	-2.995400	2.916600	-8.735200	28.699421	0.000193	20.777394
2402.649557	-3.010100	2.912700	-8.766600	28.727487	0.000195	20.777689
2403.641125	-2.991700	2.911700	-8.709400	28.728541	0.000194	20.785863
2404.641998	-2.997300	2.911700	-8.726100	28.744270	0.000194	20.763774
2405.640202	-3.012200	2.907600	-8.756900	28.753733	0.000193	20.788480
2406.642094	-3.018300	2.906900	-8.771900	28.736292	0.000194	20.767118
2407.640069	-2.988100	2.906200	-8.682900	28.716936	0.000195	20.765639
2408.644127	-2.996700	2.903300	-8.698500	28.732446	0.000195	20.775097
2409.643186	-2.974100	2.902300	-8.630500	28.748824	0.000194	20.777370
2410.646115	-2.994100	2.899700	-8.681100	28.733021	0.000193	20.777574
2411.641879	-2.987700	2.899300	-8.660400	28.692286	0.000193	20.766415
2412.645948	-2.981500	2.894800	-8.629700	28.659228	0.000195	20.772473
2413.646414	-2.994400	2.894400	-8.666200	28.690533	0.000195	20.776503
2414.644863	-2.975100	2.894100	-8.608900	28.721026	0.000191	20.783035
2415.646075	-3.004400	2.889600	-8.680400	28.749099	0.000193	20.788079
2416.644974	-3.014000	2.888400	-8.704700	28.782967	0.000193	20.759605
2417.651814	-3.011700	2.886200	-8.691500	28.815250	0.000192	20.781220
2418.649862	-3.022300	2.884800	-8.717200	28.839482	0.000193	20.789035
2419.649371	-2.989400	2.883100	-8.617500	28.834232	0.000194	20.788013
2420.650131	-2.974100	2.881400	-8.568400	28.822781	0.000193	20.800660
2421.650793	-2.988500	2.880600	-8.606700	28.871715	0.000194	20.793531
2422.647921	-2.981300	2.876500	-8.574200	28.879668	0.000192	20.778783
2423.648574	-3.011600	2.875500	-8.659200	28.846623	0.000190	20.786746
2424.656673	-3.006900	2.873500	-8.638300	28.803888	0.000194	20.788267
2425.648932	-2.978800	2.873600	-8.558200	28.740991	0.000192	20.792239
2426.649948	-3.020200	2.869200	-8.664700	28.734425	0.000193	20.763340
2427.652583	-3.020500	2.867000	-8.657800	28.723217	0.000194	20.785242
2428.648117	-2.997800	2.865800	-8.588900	28.757222	0.000193	20.797684
2429.653039	-3.002200	2.864700	-8.599400	28.796210	0.000193	20.780059
2430.650913	-3.018900	2.861100	-8.636600	28.828120	0.000192	20.791340
2431.648725	-2.974600	2.861000	-8.509100	28.821555	0.000193	20.804167
2432.654775	-2.998100	2.857700	-8.565500	28.819177	0.000192	20.786599
2433.657566	-3.003700	2.856500	-8.579500	28.800544	0.000193	20.812399
2434.650220	-2.974700	2.853700	-8.488500	28.774258	0.000193	20.788765
2435.655553	-3.010700	2.852300	-8.586800	28.723890	0.000190	20.805361
2436.650088	-2.970500	2.851700	-8.469700	28.719661	0.000194	20.791618
2437.652499	-2.972600	2.848100	-8.464700	28.731130	0.000193	20.779936
2438.654918	-2.991900	2.846300	-8.514500	28.727810	0.000193	20.800774
2439.658178	-2.981200	2.844600	-8.479000	28.746980	0.000195	20.810601
2440.654332	-2.992400	2.840400	-8.498400	28.764202	0.000193	20.797602
2441.656940	-3.011300	2.839200	-8.547400	28.789206	0.000194	20.795763
2442.653897	-2.988300	2.838000	-8.480000	28.805283	0.000193	20.807690
2443.652675	-2.992200	2.836200	-8.485300	28.816361	0.000194	20.813633
2444.658358	-2.981600	2.832800	-8.445200	28.814146	0.000193	20.806186
2445.655949	-3.002100	2.831100	-8.497900	28.856044	0.000193	20.798608
2446.653242	-2.978700	2.829800	-8.428200	28.899046	0.000193	20.801150
2447.652992	-3.008400	2.826300	-8.502000	28.873476	0.000192	20.797202
2448.656149	-2.997000	2.824800	-8.464900	28.855623	0.000192	20.804346
2449.650712	-2.969400	2.823600	-8.382800	28.890047	0.000193	20.821007
2450.656571	-2.991000	2.819700	-8.432700	28.891937	0.000192	20.807265
2451.653312	-3.012800	2.815200	-8.480300	28.890891	0.000192	20.808107
2452.650178	-3.027700	2.814300	-8.520000	28.892976	0.000192	20.818743
2453.659420	-2.979500	2.813200	-8.380100	28.899168	0.000192	20.818342
2454.659367	-2.997600	2.809900	-8.421800	28.943879	0.000191	20.801747
2455.653599	-2.959400	2.807500	-8.307000	28.958193	0.000193	20.816168
2456.657110	-2.989300	2.804900	-8.383700	28.944925	0.000190	20.825086
2457.657300	-3.014100	2.802900	-8.448000	28.923471	0.000193	20.819593
2458.654717	-2.974000	2.800200	-8.326800	28.944950	0.000193	20.812783
2459.656907	-2.986100	2.798900	-8.356400	28.943603	0.000190	20.818064
2460.655051	-2.961200	2.795200	-8.276900	28.992824	0.000194	20.815497
2461.653484	-3.006800	2.791300	-8.391400	29.039065	0.000192	20.808034
2462.655224	-2.991700	2.789300	-8.344000	29.039909	0.000191	20.809358
2463.655377	-2.984000	2.787600	-8.317400	29.076063	0.000193	20.830613
2464.657038	-2.993200	2.783700	-8.330900	29.096923	0.000193	20.823656
2465.653055	-3.015100	2.781700	-8.385500	29.156878	0.000192	20.821482
2466.658548	-3.016300	2.779900	-8.384900	29.179091	0.000193	20.815416
2467.655683	-2.996800	2.776400	-8.318600	29.202341	0.000193	20.843587
2468.660322	-2.994500	2.775000	-8.309300	29.212742	0.000190	20.837472
2469.659067	-2.975000	2.770200	-8.240300	29.145334	0.000190	20.824547
2470.656054	-2.987400	2.767900	-8.267900	29.085004	0.000191	20.824449
2471.655567	-3.002100	2.764600	-8.298500	29.044007	0.000192	20.833401
2472.654740	-2.982800	2.762700	-8.239500	29.034344	0.000192	20.845949
2473.658063	-3.015000	2.759100	-8.317200	29.019536	0.000193	20.826763
2474.653992	-2.975300	2.757800	-8.204000	28.996030	0.000191	20.826313
2475.657850	-2.990700	2.754700	-8.236700	28.951864	0.000191	20.824016
2476.658167	-2.977900	2.751500	-8.192100	28.913191	0.000192	20.824409
2477.656446	-2.995800	2.747000	-8.227500	28.896321	0.000192	20.831121
2478.658739	-2.955700	2.746200	-8.115800	28.927351	0.000192	20.817813
2479.659748	-2.983500	2.741100	-8.175800	28.985961	0.000193	20.824230
2480.660538	-2.998300	2.738400	-8.209700	28.962827	0.000194	20.834587
2481.661274	-3.041200	2.733400	-8.311900	28.960669	0.000190	20.849956
2482.658668	-3.007500	2.731300	-8.213600	29.031456	0.000192	20.835454
2483.659929	-2.990400	2.728000	-8.157600	29.062020	0.000191	20.821679
2484.655437	-2.983800	2.725400	-8.130800	29.139883	0.000195	20.841814
2485.657336	-2.985800	2.722000	-8.126600	29.156523	0.000191	20.858581
2486.662388	-2.983800	2.718600	-8.110800	29.188146	0.000191	20.842084
2487.663843	-3.026600	2.715400	-8.217100	29.221821	0.000191	20.851837
2488.659605	-2.998500	2.711100	-8.127900	29.186856	0.000192	20.850267
2489.662410	-3.006500	2.707200	-8.137300	29.165626	0.000192	20.850210
2490.671567	-2.993100	2.704800	-8.093700	29.181576	0.000192	20.836411
2491.657252	-2.994000	2.700100	-8.083000	29.187717	0.000192	20.851608
2492.663082	-3.008400	2.696700	-8.112000	29.145361	0.000191	20.842592
2493.661447	-2.970800	2.694900	-8.004900	29.192568	0.000193	20.852704
2494.659483	-2.992100	2.691400	-8.051100	29.196779	0.000191	20.823757
2495.667025	-3.018400	2.685000	-8.102500	29.228157	0.000192	20.852058
2496.665751	-3.004400	2.682000	-8.057100	29.254335	0.000193	20.833395
2497.665563	-3.047500	2.676600	-8.155600	29.311151	0.000192	20.861729
2498.664398	-3.018000	2.673000	-8.065800	29.349283	0.000191	20.865547
2499.662128	-3.003200	2.670200	-8.018100	29.372440	0.000192	20.865178
2500.668247	-2.985500	2.666600	-7.958600	29.337027	0.000192	20.866944
2501.670080	-2.998800	2.662200	-7.982500	29.316456	0.000192	20.857118
2502.664441	-2.992900	2.658700	-7.956400	29.308872	0.000191	20.847105
2503.666446	-2.979000	2.655200	-7.908800	29.320812	0.000193	20.866249
2504.667886	-3.000800	2.648600	-7.947400	29.331462	0.000191	20.866552
2505.664536	-2.975100	2.645700	-7.869900	29.305213	0.000192	20.863805
2506.665309	-2.966400	2.642000	-7.836900	29.289760	0.000192	20.860560
2507.668839	-3.059700	2.635600	-8.063300	29.320219	0.000191	20.850480
2508.670296	-2.950200	2.634700	-7.771700	29.323618	0.000191	20.870500
2509.666420	-2.983100	2.627000	-7.835700	29.355034	0.000193	20.866601
2510.669073	-3.000000	2.623700	-7.870500	29.367143	0.000192	20.856995
2511.669068	-3.002700	2.618500	-7.861700	29.422704	0.000192	20.864156
2512.666896	-3.000700	2.612700	-7.839100	29.390941	0.000190	20.862014
2513.670399	-3.000700	2.607700	-7.823800	29.317672	0.000191	20.854551
2514.668102	-2.991900	2.604800	-7.791400	29.290709	0.000193	20.856774
2515.669787	-3.001500	2.598700	-7.798400	29.295982	0.000191	20.871571
2516.670908	-3.006800	2.593400	-7.797100	29.284398	0.000192	20.868905
2517.670862	-2.965800	2.588800	-7.676600	29.339743	0.000193	20.859251
2518.674008	-2.975800	2.583700	-7.687900	29.331518	0.000192	20.864712
2519.678004	-2.997300	2.577400	-7.723700	29.358286	0.000191	20.866085
2520.673450	-3.005800	2.570900	-7.725800	29.389367	0.000193	20.875126
2521.678305	-3.020300	2.566300	-7.750300	29.388848	0.000192	20.877921
2522.677662	-3.022800	2.560700	-7.738600	29.372236	0.000192	20.878248
2523.673158	-3.006300	2.554500	-7.678400	29.401679	0.000193	20.883267
2524.672298	-3.007300	2.549300	-7.666000	29.387566	0.000194	20.882319
2525.681946	-3.050600	2.542200	-7.753900	29.320762	0.000192	20.871414
2526.676662	-2.986200	2.538800	-7.579500	29.290522	0.000194	20.873654
2527.678477	-2.966800	2.531500	-7.509100	29.328370	0.000194	20.886667
2528.681274	-2.993500	2.525400	-7.557900	29.297140	0.000194	20.866101
2529.676901	-2.992300	2.519300	-7.536900	29.292160	0.000193	20.857289
2530.679720	-2.986300	2.513900	-7.505900	29.315367	0.000194	20.843220
2531.681075	-3.013100	2.506300	-7.551200	29.359915	0.000192	20.875313
2532.682043	-3.014000	2.499100	-7.531400	29.378530	0.000195	20.858989
