LabVIEW Measurement	
Writer_Version	2
Reader_Version	2
Separator	Tab
Decimal_Separator	.
Multi_Headings	No
X_Columns	One
Time_Pref	Absolute
Operator	admin
Description	Clolumns are: time, Current, Voltage, Power, Battery Temp, and Chamber Temp
Date	2024/08/16
Time	13:06:06.104549407958984375
***End_of_Header***	
	
Channels	6						
Samples	1	1	1	1	1	1	
Date	2024/09/12	2024/09/12	2024/09/12	2024/09/12	2024/09/12	2024/09/12	
Time	23:03:02.736377716064453125	23:03:02.74301910400390625	23:03:02.7480134963989257813	23:03:02.7221522331237792969	23:03:02.7221522331237792969	23:03:02.7221522331237792969	
X_Dimension	Time	Time	Time	Time	Time	Time	
X0	0.0000000000000000E+0	0.0000000000000000E+0	0.0000000000000000E+0	0.0000000000000000E+0	0.0000000000000000E+0	0.0000000000000000E+0	
Delta_X	1.000000	1.000000	1.000000	1.000000	1.000000	1.000000	
***End_of_Header***							
X_Value	Untitled	Untitled 1	Untitled 2	Untitled 3	Untitled 4	Untitled 5	Comment
0.000000	0.023671	4.093300	0.096795	21.057257	0.000922	20.865726
1.000023	-2.998400	3.914600	-11.737000	21.061625	0.000922	20.857767
2.000405	-3.013300	3.908200	-11.776000	21.065392	0.000921	20.855846
3.005599	-2.981500	3.904700	-11.640000	21.069806	0.000920	20.863579
4.003536	-2.999900	3.899700	-11.697000	21.039022	0.000920	20.863134
5.005864	-3.002500	3.897300	-11.701000	21.071853	0.000918	20.853300
6.005622	-3.000200	3.893400	-11.680000	21.056261	0.000917	20.844817
7.002008	-2.987500	3.891000	-11.623000	21.054214	0.000918	20.846562
8.008576	-2.982000	3.889700	-11.598000	21.064093	0.000918	20.872089
9.004673	-3.010800	3.886300	-11.700000	21.073501	0.000919	20.846887
10.009565	-3.007100	3.884600	-11.679000	21.078042	0.000915	20.839102
11.007876	-3.018600	3.881100	-11.715000	21.090241	0.000916	20.831864
12.057346	-2.993800	3.882200	-11.622000	21.076445	0.000912	20.857892
13.031550	-2.985600	3.880200	-11.583000	21.081734	0.000915	20.864130
14.027730	-3.006800	3.879100	-11.663000	21.093510	0.000914	20.838452
15.039711	-3.002000	3.876200	-11.635000	21.105882	0.000910	20.865052
16.028751	-2.999400	3.876700	-11.626000	21.102566	0.000912	20.857467
17.031208	-2.996900	3.874700	-11.611000	21.109352	0.000912	20.846237
18.031103	-3.007200	3.873800	-11.646000	21.117284	0.000910	20.826672
19.042842	-3.003800	3.873100	-11.633000	21.137265	0.000909	20.858037
20.026812	-2.993200	3.872100	-11.588000	21.119128	0.000909	20.835154
21.030171	-3.006200	3.872000	-11.639000	21.142156	0.000909	20.840645
22.029439	-3.002200	3.870200	-11.618000	21.121598	0.000909	20.855642
23.028008	-3.013000	3.868500	-11.654000	21.151285	0.000907	20.843138
24.038103	-3.000300	3.867600	-11.603000	21.144723	0.000906	20.835627
25.054445	-3.002300	3.868600	-11.614000	21.140432	0.000907	20.824223
26.039669	-3.003200	3.867300	-11.613000	21.141954	0.000904	20.844236
27.015868	-3.003500	3.866400	-11.611000	21.156350	0.000905	20.844886
28.057148	-2.993400	3.865800	-11.570000	21.150412	0.000904	20.846058
29.033568	-3.009600	3.867600	-11.638000	21.174437	0.000904	20.850176
30.047261	-2.983300	3.864600	-11.528000	21.183093	0.000905	20.844610
31.037741	-3.002400	3.863900	-11.599000	21.165456	0.000906	20.834080
32.037775	-2.966400	3.863900	-11.460000	21.172864	0.000905	20.836275
33.033185	-3.005000	3.863400	-11.609000	21.197911	0.000903	20.845683
34.040698	-2.985900	3.864400	-11.537000	21.209262	0.000904	20.831434
35.056438	-3.002700	3.861700	-11.595000	21.209036	0.000905	20.821252
36.043029	-2.999700	3.862000	-11.585000	21.222780	0.000904	20.835474
37.042885	-2.991300	3.860800	-11.548000	21.221883	0.000906	20.856387
38.033244	-2.997600	3.859900	-11.569000	21.232433	0.000903	20.819527
39.042403	-3.007500	3.859000	-11.605000	21.235526	0.000902	20.847276
40.019397	-3.005700	3.858600	-11.596000	21.239543	0.000902	20.852717
41.039906	-2.989500	3.858600	-11.534000	21.257330	0.000903	20.841114
42.053117	-3.005800	3.857300	-11.593000	21.273644	0.000903	20.833252
43.034473	-2.995500	3.858000	-11.555000	21.278408	0.000905	20.825691
44.041115	-2.987200	3.857800	-11.523000	21.283245	0.000902	20.840487
45.050711	-2.995300	3.857600	-11.552000	21.297189	0.000905	20.838789
46.071054	-2.988600	3.856700	-11.526000	21.289206	0.000903	20.831277
47.060574	-2.987600	3.857100	-11.523000	21.309834	0.000902	20.830104
48.054972	-2.979900	3.856300	-11.490000	21.312204	0.000904	20.827259
49.058652	-2.995600	3.856600	-11.551000	21.307614	0.000900	20.844477
50.061649	-3.000000	3.856100	-11.567000	21.313848	0.000904	20.839808
51.069923	-2.998200	3.855600	-11.559000	21.342758	0.000903	20.825584
52.055000	-3.012000	3.853800	-11.606000	21.344128	0.000902	20.835964
53.056667	-3.018100	3.853300	-11.629000	21.343556	0.000902	20.844875
54.062002	-2.993600	3.854600	-11.537000	21.352460	0.000902	20.823911
55.071983	-2.978500	3.854700	-11.480000	21.366727	0.000901	20.830599
56.063238	-3.003400	3.852800	-11.570000	21.368050	0.000901	20.816275
57.047991	-2.995800	3.853600	-11.544000	21.378474	0.000903	20.828127
58.043599	-3.016500	3.853300	-11.622000	21.387727	0.000902	20.823160
59.048061	-2.977700	3.853100	-11.473000	21.386280	0.000899	20.811281
60.063422	-2.987700	3.852500	-11.508000	21.424366	0.000900	20.827576
61.055870	-3.012000	3.850400	-11.596000	21.403291	0.000900	20.841103
62.051264	-2.990700	3.852100	-11.520000	21.420950	0.000902	20.843124
63.069705	-2.989400	3.853000	-11.517000	21.433843	0.000901	20.823307
64.071993	-2.992000	3.850200	-11.517000	21.423740	0.000899	20.824579
65.074130	-3.001900	3.850500	-11.557000	21.425886	0.000900	20.822458
66.066995	-3.016200	3.849400	-11.610000	21.450677	0.000901	20.807909
67.052635	-2.972300	3.849600	-11.441000	21.452920	0.000899	20.817266
68.061059	-3.007100	3.849900	-11.575000	21.446437	0.000899	20.815994
69.071115	-2.992300	3.849500	-11.518000	21.433963	0.000899	20.814893
70.066886	-3.002800	3.849800	-11.559000	21.460975	0.000901	20.831962
71.061198	-3.015800	3.848400	-11.603000	21.478856	0.000902	20.832785
72.051022	-3.004300	3.846400	-11.555000	21.473670	0.000901	20.812423
73.050158	-2.982400	3.847100	-11.473000	21.482297	0.000903	20.827693
74.047219	-2.982700	3.847800	-11.475000	21.478008	0.000902	20.809651
75.056658	-2.987500	3.847600	-11.494000	21.500129	0.000902	20.816138
76.054381	-2.998200	3.847200	-11.534000	21.503595	0.000902	20.822451
77.052101	-2.997700	3.846400	-11.529000	21.518158	0.000902	20.800988
78.055970	-2.982000	3.846700	-11.470000	21.531900	0.000901	20.826592
79.054638	-3.000000	3.845700	-11.534000	21.541152	0.000900	20.798866
80.034883	-2.993700	3.844700	-11.508000	21.534394	0.000904	20.831458
81.032294	-2.986600	3.844800	-11.482000	21.553296	0.000902	20.821450
82.027942	-2.996000	3.845900	-11.520000	21.574195	0.000903	20.824818
83.035198	-3.018300	3.843400	-11.599000	21.571302	0.000901	20.818605
84.037958	-3.022800	3.845200	-11.621000	21.570129	0.000902	20.799887
85.046257	-2.989700	3.844400	-11.493000	21.574369	0.000902	20.809820
86.056464	-3.018200	3.842700	-11.597000	21.599931	0.000903	20.830183
87.058261	-3.019700	3.842400	-11.601000	21.591153	0.000903	20.812865
88.050451	-2.994200	3.843200	-11.506000	21.598632	0.000904	20.805176
89.032973	-2.996500	3.843500	-11.515000	21.607263	0.000904	20.810020
90.059015	-2.987000	3.843000	-11.478000	21.607686	0.000904	20.827986
91.067398	-3.006600	3.843300	-11.553000	21.595143	0.000903	20.807374
92.063270	-2.988600	3.843000	-11.483000	21.602823	0.000904	20.800362
93.052179	-2.979500	3.842700	-11.449000	21.629359	0.000904	20.826441
94.056294	-2.997100	3.841100	-11.511000	21.635595	0.000904	20.801862
95.054129	-2.989100	3.842700	-11.484000	21.636367	0.000904	20.805005
96.056663	-2.985400	3.842800	-11.472000	21.651777	0.000905	20.807625
97.077709	-3.005500	3.840400	-11.540000	21.656167	0.000905	20.802061
98.087262	-2.998100	3.839700	-11.509000	21.670731	0.000902	20.791980
99.077143	-2.998100	3.841500	-11.516000	21.691153	0.000904	20.800090
100.072025	-3.000300	3.839600	-11.519000	21.695566	0.000904	20.801661
101.071629	-2.995300	3.840200	-11.502000	21.700728	0.000904	20.795448
102.078695	-2.997900	3.838900	-11.507000	21.690804	0.000905	20.812068
103.078479	-2.996400	3.839800	-11.505000	21.690880	0.000906	20.808351
104.100254	-3.026300	3.838400	-11.615000	21.716739	0.000904	20.809101
105.071221	-3.004500	3.839400	-11.534000	21.703573	0.000905	20.785492
106.076709	-3.005100	3.838900	-11.535000	21.729930	0.000906	20.803810
107.077502	-2.995400	3.839100	-11.499000	21.717563	0.000907	20.810399
108.085163	-3.020800	3.837900	-11.592000	21.759604	0.000908	20.811223
109.073581	-2.999300	3.838000	-11.511000	21.747162	0.000909	20.781701
110.069147	-3.004100	3.838900	-11.532000	21.742575	0.000908	20.763834
111.084063	-2.994200	3.838100	-11.491000	21.761474	0.000907	20.787016
112.071573	-2.994700	3.838900	-11.495000	21.740628	0.000909	20.782274
113.070531	-2.998800	3.836800	-11.504000	21.746738	0.000909	20.791234
114.090406	-2.987300	3.837200	-11.461000	21.784938	0.000907	20.770197
115.081818	-3.006600	3.835800	-11.530000	21.773071	0.000910	20.782976
116.072344	-2.978800	3.836300	-11.427000	21.771824	0.000908	20.804961
117.043986	-2.993000	3.835100	-11.476000	21.812938	0.000909	20.793480
118.042698	-2.987400	3.836700	-11.460000	21.788430	0.000910	20.775114
119.044619	-3.003800	3.835200	-11.520000	21.798577	0.000910	20.791434
120.045161	-3.011600	3.835800	-11.551000	21.816107	0.000910	20.773892
121.043913	-3.021200	3.833900	-11.582000	21.820770	0.000912	20.788043
122.045220	-3.002400	3.834400	-11.511000	21.802121	0.000913	20.809205
123.043945	-2.998200	3.835100	-11.497000	21.813488	0.000913	20.789763
124.041559	-3.002900	3.834500	-11.514000	21.848770	0.000911	20.793782
125.041993	-3.009500	3.834200	-11.538000	21.853581	0.000910	20.801917
126.045867	-3.016100	3.834700	-11.564000	21.841016	0.000911	20.778435
127.046119	-2.977800	3.836200	-11.423000	21.844506	0.000914	20.792834
128.039476	-2.989400	3.833200	-11.458000	21.859514	0.000914	20.787467
129.043058	-2.992300	3.833500	-11.470000	21.883773	0.000913	20.783299
130.041386	-3.011100	3.832200	-11.539000	21.882826	0.000914	20.774764
131.045862	-2.996900	3.832300	-11.483000	21.893847	0.000914	20.799072
132.043635	-3.008600	3.834100	-11.534000	21.922992	0.000912	20.790314
133.042160	-3.029000	3.832800	-11.609000	21.905515	0.000914	20.787993
134.044114	-2.997400	3.832900	-11.488000	21.921296	0.000914	20.785297
135.042228	-3.002000	3.833100	-11.506000	21.975418	0.000914	20.783523
136.042199	-3.018000	3.831500	-11.562000	21.948445	0.000915	20.766954
137.043765	-3.008500	3.832100	-11.528000	21.956026	0.000916	20.797776
138.051109	-2.978900	3.832400	-11.416000	21.981702	0.000914	20.780330
139.045822	-2.984900	3.830500	-11.433000	21.968741	0.000916	20.808133
140.045887	-3.004000	3.829900	-11.503000	21.971659	0.000915	20.787346
141.075756	-3.008500	3.831000	-11.524000	22.006636	0.000918	20.791539
142.071556	-3.007800	3.829800	-11.517000	21.992674	0.000918	20.787520
143.062548	-2.996400	3.830100	-11.475000	21.994395	0.000916	20.812477
144.062250	-2.982900	3.831400	-11.428000	22.025509	0.000917	20.795734
145.094066	-3.006200	3.830300	-11.514000	22.026256	0.000918	20.796007
146.074599	-3.003600	3.828200	-11.497000	22.020276	0.000919	20.789073
147.085454	-3.017700	3.829100	-11.554000	22.036705	0.000921	20.773750
148.083473	-3.002900	3.829300	-11.498000	22.040045	0.000920	20.799380
149.085319	-3.011900	3.829100	-11.531000	22.025138	0.000920	20.799156
150.096338	-3.008900	3.828800	-11.519000	22.044608	0.000920	20.801577
151.092547	-3.007400	3.827500	-11.510000	22.047451	0.000921	20.782138
152.089468	-3.001300	3.829200	-11.490000	22.052934	0.000919	20.794740
153.099841	-3.013800	3.827000	-11.533000	22.084320	0.000923	20.789650
154.087546	-2.988700	3.829100	-11.443000	22.093244	0.000922	20.797636
155.089437	-3.002100	3.825800	-11.484000	22.115978	0.000922	20.797636
156.093565	-2.982900	3.827100	-11.415000	22.099501	0.000923	20.788252
157.081697	-2.993300	3.826100	-11.451000	22.093517	0.000923	20.791746
158.089488	-3.013400	3.824900	-11.525000	22.100075	0.000925	20.776500
159.107254	-3.009500	3.825700	-11.513000	22.085964	0.000923	20.810736
160.090145	-2.982900	3.827900	-11.416000	22.095290	0.000925	20.794942
161.097473	-2.997200	3.826400	-11.468000	22.098903	0.000925	20.810887
162.094262	-3.002600	3.825000	-11.484000	22.115903	0.000924	20.802777
163.106877	-2.978800	3.826200	-11.395000	22.139234	0.000924	20.785358
164.088314	-3.004500	3.824500	-11.489000	22.141677	0.000926	20.781639
165.087564	-2.989000	3.824900	-11.431000	22.170541	0.000926	20.802951
166.092257	-3.001300	3.825000	-11.478000	22.182281	0.000925	20.794317
167.101646	-3.019700	3.824300	-11.546000	22.181607	0.000924	20.791746
168.093640	-2.995300	3.824500	-11.454000	22.180635	0.000927	20.814480
169.099240	-2.977700	3.824800	-11.388000	22.197835	0.000926	20.788078
170.091986	-2.996100	3.825700	-11.461000	22.210396	0.000928	20.812035
171.087245	-3.022400	3.823700	-11.555000	22.228017	0.000929	20.802177
172.094684	-2.995600	3.824400	-11.455000	22.220242	0.000929	20.796288
173.086845	-3.003200	3.822600	-11.479000	22.213537	0.000931	20.781515
174.093049	-2.988100	3.822800	-11.421000	22.234124	0.000931	20.807817
175.090706	-2.996000	3.823800	-11.455000	22.246685	0.000930	20.817549
176.101329	-2.987400	3.822000	-11.416000	22.254212	0.000931	20.799955
177.071526	-3.011800	3.821500	-11.507000	22.264680	0.000933	20.800953
178.099620	-2.994800	3.821900	-11.445000	22.262386	0.000931	20.807666
179.114164	-2.985600	3.821700	-11.409000	22.256032	0.000933	20.810786
180.090470	-3.011300	3.821400	-11.506000	22.263534	0.000932	20.793642
181.093304	-3.017100	3.820300	-11.524000	22.272457	0.000931	20.801154
182.115067	-3.006500	3.821700	-11.488000	22.299147	0.000932	20.813180
183.103294	-3.002400	3.821200	-11.471000	22.297629	0.000933	20.811186
184.100810	-2.976900	3.822300	-11.378000	22.307821	0.000932	20.801951
185.100616	-3.006900	3.820300	-11.487000	22.282774	0.000933	20.818122
186.116308	-3.015100	3.821800	-11.522000	22.295660	0.000935	20.781239
187.111489	-3.026100	3.820200	-11.560000	22.331822	0.000935	20.796587
188.101653	-2.987400	3.820600	-11.413000	22.314103	0.000936	20.807767
189.100741	-2.989000	3.821400	-11.420000	22.336235	0.000934	20.812859
190.098116	-2.978800	3.820600	-11.379000	22.341071	0.000937	20.820072
191.101209	-2.998600	3.819000	-11.450000	22.341745	0.000934	20.804152
192.105084	-3.003000	3.818500	-11.466000	22.319365	0.000938	20.822045
193.115635	-2.994700	3.819800	-11.436000	22.334045	0.000936	20.826786
194.101496	-3.001300	3.818100	-11.459000	22.344886	0.000936	20.794495
195.108705	-2.991600	3.818900	-11.424000	22.366994	0.000937	20.806675
196.081257	-3.004000	3.817600	-11.467000	22.363480	0.000939	20.829235
197.081694	-2.978800	3.818300	-11.374000	22.354012	0.000937	20.836824
198.090938	-3.009500	3.817200	-11.486000	22.395207	0.000937	20.816910
199.090978	-3.011000	3.817200	-11.493000	22.353191	0.000940	20.809449
200.082858	-2.994700	3.817400	-11.431000	22.347436	0.000938	20.812696
201.089189	-3.040200	3.815200	-11.598000	22.373630	0.000940	20.806209
202.085835	-3.001400	3.816900	-11.456000	22.406502	0.000941	20.821108
203.087415	-2.995400	3.815800	-11.428000	22.388660	0.000939	20.816518
204.117411	-2.998600	3.815800	-11.441000	22.388887	0.000941	20.812952
205.089019	-2.994000	3.814900	-11.421000	22.398233	0.000941	20.821836
206.091901	-2.988300	3.815300	-11.400000	22.421061	0.000941	20.828102
207.090204	-2.973900	3.817100	-11.351000	22.417525	0.000942	20.809862
208.095307	-2.989100	3.816200	-11.406000	22.420393	0.000941	20.816527
209.106434	-2.999500	3.814800	-11.440000	22.423809	0.000944	20.816154
210.114233	-3.015900	3.813300	-11.499000	22.459993	0.000944	20.813036
211.106843	-3.000100	3.813200	-11.439000	22.471060	0.000946	20.818429
212.107977	-3.001300	3.814900	-11.448000	22.434430	0.000943	20.803083
213.119213	-3.007100	3.814200	-11.469000	22.470293	0.000944	20.812919
214.129008	-2.987300	3.815200	-11.395000	22.480808	0.000944	20.823450
215.114309	-3.005400	3.813100	-11.459000	22.479940	0.000946	20.832063
216.072586	-2.997500	3.814000	-11.430000	22.484102	0.000946	20.831964
217.089161	-2.976900	3.814200	-11.352000	22.509221	0.000947	20.799274
218.107897	-2.979400	3.814300	-11.363000	22.511915	0.000949	20.813826
219.084977	-2.987000	3.813400	-11.389000	22.524799	0.000949	20.796384
220.092479	-2.996000	3.812700	-11.422000	22.499682	0.000951	20.815325
221.072063	-2.974800	3.813800	-11.344000	22.504468	0.000948	20.788824
222.072954	-3.000800	3.812100	-11.437000	22.540925	0.000952	20.800680
223.072631	-3.005500	3.811200	-11.453000	22.522835	0.000952	20.815753
224.072082	-3.006100	3.811100	-11.455000	22.546907	0.000951	20.833224
225.070889	-3.002700	3.810100	-11.440000	22.565146	0.000952	20.809765
226.075026	-3.001500	3.811000	-11.436000	22.569808	0.000955	20.822969
227.127967	-3.008300	3.811200	-11.464000	22.605088	0.000954	20.815157
228.104829	-3.010100	3.809800	-11.466000	22.583065	0.000955	20.819652
229.103992	-3.003800	3.810100	-11.444000	22.599186	0.000954	20.822047
230.116296	-2.975700	3.811400	-11.339000	22.605514	0.000955	20.816057
231.132340	-2.994100	3.808500	-11.402000	22.646129	0.000956	20.811218
232.118868	-3.007800	3.809000	-11.455000	22.646703	0.000955	20.839768
233.121534	-3.012000	3.809600	-11.474000	22.625374	0.000956	20.814612
234.111393	-3.025900	3.808400	-11.523000	22.646825	0.000957	20.811442
235.091266	-3.003600	3.809300	-11.441000	22.620987	0.000957	20.845305
236.106271	-2.997400	3.808100	-11.413000	22.623131	0.000956	20.814262
237.105073	-3.002200	3.808100	-11.431000	22.619344	0.000960	20.816633
238.122304	-3.005800	3.806600	-11.440000	22.628688	0.000958	20.835474
239.120278	-3.001300	3.807900	-11.426000	22.658410	0.000962	20.834899
240.106390	-2.989500	3.808600	-11.384000	22.641943	0.000960	20.847802
241.111681	-3.008600	3.807700	-11.454000	22.658311	0.000962	20.821049
242.112827	-2.997700	3.806600	-11.410000	22.676125	0.000959	20.816608
243.121918	-3.016000	3.805500	-11.476000	22.657188	0.000961	20.825141
244.113328	-2.986500	3.807200	-11.369000	22.656068	0.000962	20.820225
245.109200	-2.993100	3.806200	-11.391000	22.663667	0.000962	20.822621
246.112722	-2.987100	3.806500	-11.368000	22.640520	0.000962	20.829783
247.124716	-2.987400	3.806200	-11.370000	22.634840	0.000964	20.826464
248.124115	-3.021500	3.804700	-11.495000	22.657587	0.000964	20.837394
249.118450	-2.996100	3.805700	-11.401000	22.663892	0.000966	20.843234
250.078684	-2.972200	3.805500	-11.310000	22.661250	0.000965	20.849597
251.079430	-2.992600	3.804800	-11.385000	22.682503	0.000965	20.846702
252.100125	-3.001900	3.804200	-11.419000	22.695133	0.000965	20.820474
253.100924	-2.992200	3.804400	-11.383000	22.718005	0.000966	20.833427
254.098156	-3.007400	3.804300	-11.439000	22.706892	0.000967	20.832253
255.105409	-2.990000	3.803700	-11.371000	22.703978	0.000968	20.840238
256.101893	-3.005600	3.803000	-11.429000	22.706493	0.000968	20.831379
257.096334	-3.012900	3.802200	-11.454000	22.735668	0.000968	20.859179
258.096889	-3.000700	3.802600	-11.410000	22.729638	0.000969	20.853614
259.102551	-2.982800	3.804800	-11.347000	22.745707	0.000970	20.838891
260.081379	-3.003800	3.803000	-11.422000	22.754153	0.000970	20.829333
261.092657	-2.988900	3.803100	-11.366000	22.766210	0.000973	20.849471
262.124193	-2.986000	3.803800	-11.356000	22.784073	0.000972	20.839864
263.121999	-3.029700	3.800100	-11.511000	22.794612	0.000973	20.835249
264.124135	-2.994600	3.801600	-11.382000	22.827095	0.000973	20.846452
265.119733	-2.984300	3.801600	-11.343000	22.829610	0.000973	20.839963
266.119781	-2.982000	3.799600	-11.329000	22.832450	0.000974	20.851342
267.130606	-3.020100	3.800200	-11.475000	22.829486	0.000975	20.845054
268.120722	-2.999700	3.800300	-11.399000	22.856215	0.000975	20.836269
269.105982	-3.001400	3.799200	-11.401000	22.845951	0.000975	20.839263
270.102970	-3.012900	3.798800	-11.444000	22.854073	0.000976	20.847874
271.096248	-3.010600	3.799400	-11.437000	22.875521	0.000977	20.851342
272.083971	-2.988400	3.801000	-11.358000	22.881101	0.000976	20.851717
273.081002	-2.997600	3.799300	-11.388000	22.865156	0.000977	20.859924
274.081947	-2.998700	3.800300	-11.395000	22.895297	0.000979	20.841758
275.086852	-3.003600	3.798700	-11.409000	22.906032	0.000978	20.852986
276.082867	-2.981100	3.799500	-11.326000	22.916618	0.000979	20.865962
277.083153	-2.992700	3.798200	-11.366000	22.908099	0.000981	20.882556
278.084001	-2.999200	3.798200	-11.391000	22.916940	0.000981	20.853009
279.084958	-2.981200	3.797000	-11.319000	22.922818	0.000980	20.865061
280.083059	-2.995000	3.798500	-11.376000	22.912904	0.000981	20.851811
281.084900	-2.999000	3.799000	-11.392000	22.895715	0.000983	20.859246
282.090038	-3.006600	3.798100	-11.417000	22.933999	0.000981	20.869151
283.081957	-3.010800	3.796900	-11.430000	22.940102	0.000980	20.843972
284.122916	-2.994700	3.796000	-11.367000	22.956341	0.000983	20.868302
285.110059	-3.005700	3.795200	-11.406000	22.951830	0.000986	20.853825
286.107613	-3.007600	3.795800	-11.415000	22.980597	0.000984	20.848034
287.116203	-2.989700	3.796900	-11.351000	22.985005	0.000984	20.871416
288.107475	-3.002700	3.796000	-11.396000	22.992203	0.000984	20.881472
289.086173	-2.979900	3.797500	-11.315000	22.994642	0.000983	20.857838
290.135814	-3.037600	3.793900	-11.524000	22.983981	0.000986	20.855691
291.143167	-2.974600	3.795500	-11.289000	23.007891	0.000986	20.858785
292.120686	-3.016400	3.794600	-11.445000	23.005124	0.000984	20.882089
293.134384	-3.008900	3.794900	-11.418000	23.008934	0.000986	20.876899
294.131089	-3.003300	3.794900	-11.396000	22.996479	0.000988	20.881963
295.120553	-3.006100	3.794600	-11.406000	23.014586	0.000989	20.886828
296.132317	-2.995600	3.794100	-11.364000	23.011272	0.000987	20.874974
297.122180	-3.013600	3.792900	-11.430000	23.032292	0.000989	20.882284
298.118064	-2.999400	3.792100	-11.373000	23.041182	0.000990	20.889295
299.124489	-2.996300	3.792200	-11.362000	23.044718	0.000990	20.873872
300.128732	-2.985800	3.793800	-11.327000	23.076225	0.000990	20.894061
301.134150	-3.010000	3.792100	-11.414000	23.077194	0.000992	20.883653
302.107113	-3.000300	3.792900	-11.378000	23.085212	0.000990	20.864187
303.113615	-2.990000	3.792700	-11.338000	23.097265	0.000992	20.877212
304.128665	-3.005300	3.792700	-11.397000	23.089271	0.000991	20.892908
305.133333	-3.002400	3.791700	-11.382000	23.109393	0.000991	20.875140
306.133760	-3.003900	3.792900	-11.392000	23.113003	0.000990	20.893455
307.130754	-2.979100	3.790700	-11.291000	23.124357	0.000993	20.883022
308.130555	-2.987000	3.790300	-11.320000	23.104008	0.000995	20.892029
309.126877	-3.011500	3.790100	-11.413000	23.098952	0.000992	20.892178
310.130556	-2.987400	3.789600	-11.319000	23.102114	0.000994	20.893923
311.094395	-3.017400	3.789600	-11.434000	23.085899	0.000993	20.885737
312.114710	-2.993100	3.789600	-11.341000	23.103207	0.000995	20.883640
313.122220	-2.991300	3.789500	-11.334000	23.106296	0.000994	20.907596
314.119616	-3.006600	3.789500	-11.393000	23.105995	0.000996	20.893071
315.119542	-2.994300	3.789100	-11.345000	23.135308	0.000996	20.901580
316.117693	-2.985000	3.788500	-11.308000	23.128832	0.000996	20.911211
317.146629	-3.002800	3.788700	-11.376000	23.146563	0.000996	20.896737
318.113870	-2.993800	3.788900	-11.342000	23.145567	0.000998	20.910911
319.115608	-3.013400	3.786300	-11.408000	23.129828	0.000996	20.894193
320.131155	-2.985300	3.788600	-11.309000	23.175026	0.000997	20.916723
321.124278	-3.021800	3.785600	-11.438000	23.151069	0.000997	20.917847
322.133893	-3.006800	3.786700	-11.385000	23.170990	0.000998	20.909361
323.129597	-2.975600	3.785900	-11.265000	23.173978	0.001000	20.910932
324.118762	-2.993600	3.786500	-11.334000	23.182346	0.000999	20.903197
325.114837	-3.007600	3.786100	-11.387000	23.181698	0.001000	20.912503
326.122408	-2.992500	3.786100	-11.329000	23.181923	0.001001	20.895661
327.132240	-2.996700	3.785400	-11.341000	23.163391	0.001001	20.917866
328.140591	-2.988100	3.786600	-11.314000	23.178034	0.001002	20.900773
329.135449	-3.008800	3.784800	-11.387000	23.202938	0.001001	20.915297
330.137513	-2.996500	3.783400	-11.336000	23.198630	0.001002	20.907187
331.157163	-2.995900	3.784700	-11.337000	23.225548	0.001003	20.913299
332.140316	-3.023300	3.783400	-11.437000	23.233294	0.001004	20.916793
333.142447	-2.986000	3.784900	-11.300000	23.225871	0.001003	20.920734
334.132246	-3.015100	3.782600	-11.404000	23.241358	0.001004	20.894531
335.139423	-2.998700	3.784600	-11.348000	23.235780	0.001003	20.931611
336.131766	-2.996100	3.782600	-11.332000	23.255600	0.001004	20.917337
337.141041	-3.015200	3.782200	-11.403000	23.273081	0.001005	20.912571
338.134917	-3.006900	3.782400	-11.373000	23.279806	0.001005	20.915042
339.138411	-3.011100	3.781100	-11.384000	23.257840	0.001005	20.932856
340.138136	-3.026100	3.781200	-11.441000	23.278732	0.001005	20.930086
341.122362	-3.001900	3.782500	-11.354000	23.301641	0.001005	20.925071
342.107363	-2.992200	3.780800	-11.312000	23.309209	0.001005	20.917958
343.103532	-3.002200	3.780200	-11.349000	23.340484	0.001007	20.922749
344.107848	-3.015300	3.779800	-11.396000	23.353257	0.001006	20.943135
345.102294	-2.993600	3.780600	-11.316000	23.342601	0.001008	20.933404
346.104664	-3.006700	3.780100	-11.362000	23.357614	0.001008	20.927589
347.103649	-3.000200	3.779200	-11.337000	23.354650	0.001007	20.937419
348.105229	-2.996300	3.779700	-11.323000	23.321731	0.001008	20.912965
349.105551	-2.988500	3.779100	-11.292000	23.332987	0.001008	20.917606
350.115171	-3.011200	3.779500	-11.380000	23.331144	0.001008	20.922871
351.107380	-2.988100	3.779800	-11.292000	23.327783	0.001008	20.935622
352.107834	-3.000700	3.778200	-11.335000	23.308038	0.001008	20.928163
353.106382	-2.996400	3.777000	-11.317000	23.312319	0.001008	20.935771
354.106388	-2.990800	3.776400	-11.293000	23.336274	0.001012	20.929434
355.110896	-3.014300	3.777400	-11.385000	23.305272	0.001011	20.943407
356.109984	-3.019200	3.775900	-11.399000	23.327283	0.001011	20.936070
357.158910	-3.013900	3.775600	-11.378000	23.331342	0.001010	20.911217
358.151147	-2.992800	3.776000	-11.300000	23.371307	0.001013	20.919977
359.145724	-2.996900	3.777600	-11.320000	23.392916	0.001014	20.918876
360.146813	-2.978600	3.776300	-11.246000	23.407308	0.001011	20.953686
361.154758	-3.001500	3.775100	-11.329000	23.399689	0.001012	20.922820
362.146348	-2.995900	3.775800	-11.310000	23.429889	0.001015	20.925114
363.152038	-2.984800	3.775700	-11.268000	23.421376	0.001014	20.923219
364.157381	-2.995000	3.775800	-11.307000	23.422345	0.001015	20.908071
365.150722	-3.000600	3.774700	-11.325000	23.417166	0.001015	20.912837
366.143218	-2.983000	3.773400	-11.254000	23.404367	0.001014	20.913284
367.153952	-3.015500	3.773300	-11.378000	23.419904	0.001014	20.911313
368.147985	-3.013900	3.772800	-11.370000	23.411911	0.001014	20.916104
369.124140	-3.012500	3.772500	-11.363000	23.417712	0.001014	20.906746
370.128622	-2.992700	3.773200	-11.292000	23.437805	0.001014	20.921669
371.123442	-3.000800	3.773200	-11.321000	23.439001	0.001014	20.918601
372.125717	-2.998400	3.773400	-11.312000	23.440544	0.001015	20.909243
373.125294	-2.995400	3.773800	-11.303000	23.451176	0.001014	20.907572
374.125342	-3.003500	3.773200	-11.331000	23.445502	0.001015	20.930805
375.131023	-3.021500	3.771700	-11.395000	23.402104	0.001014	20.895845
376.138921	-3.019000	3.771500	-11.384000	23.396456	0.001017	20.915786
377.134026	-3.023200	3.769500	-11.394000	23.389062	0.001014	20.909325
378.126328	-3.004600	3.771800	-11.330000	23.376839	0.001015	20.910349
379.113386	-2.994300	3.770100	-11.287000	23.374176	0.001017	20.896776
380.111645	-3.018500	3.769600	-11.377000	23.397432	0.001018	20.894008
381.134564	-3.012200	3.770000	-11.355000	23.395990	0.001015	20.902519
382.137985	-2.995800	3.770500	-11.295000	23.426095	0.001018	20.899502
383.126000	-3.002100	3.769200	-11.315000	23.431798	0.001019	20.897158
384.131631	-2.997600	3.768400	-11.296000	23.439144	0.001018	20.911158
385.131968	-3.020600	3.768000	-11.380000	23.471162	0.001017	20.904845
386.141611	-3.013800	3.769300	-11.359000	23.438401	0.001019	20.907095
387.138680	-2.978600	3.769800	-11.228000	23.480504	0.001019	20.875331
388.138728	-2.994800	3.769000	-11.287000	23.459244	0.001019	20.915183
389.128500	-3.011800	3.767400	-11.345000	23.473861	0.001018	20.897594
390.139056	-3.005600	3.767500	-11.323000	23.500154	0.001020	20.869424
391.173773	-2.991900	3.767600	-11.271000	23.546736	0.001022	20.895254
392.158176	-2.994500	3.765500	-11.275000	23.525081	0.001022	20.903891
393.151118	-3.015400	3.765600	-11.354000	23.560957	0.001019	20.881061
394.160254	-3.008300	3.765500	-11.326000	23.563202	0.001021	20.876199
395.156816	-2.991700	3.765600	-11.264000	23.557528	0.001019	20.867193
396.148219	-3.007600	3.765400	-11.324000	23.539058	0.001021	20.887557
397.160705	-3.009500	3.765100	-11.330000	23.550166	0.001020	20.875459
398.162691	-3.006300	3.765000	-11.317000	23.547005	0.001021	20.872766
399.168380	-3.005000	3.766400	-11.317000	23.530580	0.001021	20.867206
400.149114	-2.989100	3.765200	-11.254000	23.526201	0.001021	20.855231
401.154136	-2.977800	3.763500	-11.205000	23.546594	0.001021	20.877094
402.161565	-2.974500	3.763900	-11.194000	23.524864	0.001021	20.863373
403.152531	-3.005000	3.762900	-11.307000	23.546951	0.001022	20.862754
404.158038	-2.983300	3.763900	-11.227000	23.560399	0.001019	20.863433
405.152296	-3.002500	3.763900	-11.300000	23.527939	0.001023	20.867878
406.167054	-3.005700	3.762600	-11.308000	23.501927	0.001021	20.877365
407.181934	-3.014700	3.762600	-11.339000	23.534619	0.001024	20.852764
408.165427	-3.008600	3.762800	-11.320000	23.525933	0.001023	20.858282
409.157460	-3.012100	3.760300	-11.326000	23.553746	0.001025	20.870040
410.166001	-2.991000	3.761500	-11.250000	23.571129	0.001024	20.848112
411.165510	-2.988700	3.760900	-11.239000	23.573149	0.001023	20.849188
412.136656	-2.991000	3.760700	-11.245000	23.593366	0.001023	20.860919
413.144690	-3.020000	3.758500	-11.350000	23.601960	0.001023	20.866690
414.142084	-2.998100	3.760200	-11.272000	23.634624	0.001024	20.847754
415.142004	-3.018100	3.759500	-11.345000	23.626142	0.001024	20.858216
416.144677	-3.012100	3.759100	-11.322000	23.642973	0.001024	20.850433
417.145995	-3.013300	3.759800	-11.329000	23.632671	0.001027	20.847218
418.148537	-2.992200	3.759900	-11.250000	23.628294	0.001028	20.835718
419.148787	-3.016700	3.759100	-11.338000	23.642515	0.001027	20.854715
420.147676	-3.000800	3.758700	-11.277000	23.645954	0.001029	20.825921
421.147636	-2.979300	3.758700	-11.197000	23.649692	0.001027	20.826350
422.150237	-3.005700	3.756900	-11.291000	23.648926	0.001026	20.821315
423.147925	-3.004900	3.758000	-11.292000	23.656845	0.001030	20.811710
424.124632	-3.004400	3.756800	-11.287000	23.661504	0.001027	20.831080
425.131730	-3.018300	3.755900	-11.336000	23.646072	0.001028	20.838368
426.129726	-2.994600	3.757300	-11.251000	23.639883	0.001028	20.825051
427.129012	-3.028500	3.753800	-11.368000	23.627192	0.001028	20.854053
428.131581	-2.981400	3.755900	-11.197000	23.612408	0.001029	20.837810
429.125147	-2.986800	3.754700	-11.212000	23.607086	0.001026	20.825363
430.128427	-3.008500	3.754600	-11.295000	23.600716	0.001029	20.828935
431.126781	-2.991600	3.755200	-11.233000	23.641496	0.001029	20.810547
432.126884	-3.003100	3.754600	-11.274000	23.620613	0.001028	20.805259
433.124311	-3.008600	3.753600	-11.292000	23.634581	0.001027	20.802667
434.142054	-3.016300	3.752400	-11.317000	23.618455	0.001030	20.823959
435.152738	-2.985400	3.753900	-11.206000	23.644449	0.001028	20.820145
436.167884	-3.009300	3.754200	-11.297000	23.657273	0.001029	20.833950
437.161155	-3.034900	3.752400	-11.387000	23.662653	0.001030	20.818956
438.130222	-3.012100	3.751900	-11.301000	23.714583	0.001031	20.805111
439.127270	-3.002800	3.752000	-11.265000	23.716152	0.001031	20.797202
440.129077	-2.996600	3.752500	-11.243000	23.727109	0.001030	20.802022
441.131189	-2.984700	3.753200	-11.202000	23.742646	0.001027	20.821867
442.130351	-3.016500	3.752000	-11.316000	23.744664	0.001030	20.800182
443.171842	-2.995100	3.750800	-11.233000	23.786436	0.001030	20.799864
444.181090	-2.995600	3.751100	-11.235000	23.788005	0.001032	20.828464
445.167974	-3.008800	3.749400	-11.281000	23.791494	0.001030	20.809203
446.169678	-2.981200	3.751000	-11.182000	23.744604	0.001031	20.819088
447.175573	-2.993300	3.750800	-11.227000	23.731938	0.001031	20.824408
448.170128	-2.998200	3.749300	-11.241000	23.720566	0.001033	20.787402
449.175461	-3.002200	3.748700	-11.254000	23.719749	0.001031	20.825937
450.176294	-3.037000	3.749600	-11.386000	23.754948	0.001032	20.825666
451.174915	-3.003100	3.748800	-11.255000	23.746710	0.001033	20.793699
452.180305	-3.030200	3.747800	-11.355000	23.734270	0.001032	20.803038
453.181979	-3.005500	3.747700	-11.263000	23.742263	0.001033	20.813897
454.188456	-2.986900	3.748200	-11.194000	23.725114	0.001032	20.803815
455.176821	-3.000400	3.748000	-11.245000	23.711377	0.001031	20.806164
456.168581	-3.004000	3.747800	-11.258000	23.735176	0.001034	20.794938
457.174332	-2.993200	3.747200	-11.215000	23.717359	0.001031	20.803152
458.180413	-3.013900	3.745700	-11.289000	23.753001	0.001032	20.797162
459.176265	-2.992200	3.747200	-11.212000	23.751711	0.001033	20.794920
460.170313	-2.990600	3.747400	-11.206000	23.787754	0.001033	20.786013
461.176324	-2.997500	3.746100	-11.228000	23.773891	0.001033	20.781597
462.188578	-3.005000	3.745700	-11.254000	23.800203	0.001032	20.815565
463.178557	-2.999100	3.745100	-11.229000	23.816432	0.001033	20.792008
464.172445	-2.985800	3.744800	-11.180000	23.809718	0.001033	20.786224
465.181628	-3.010000	3.743600	-11.268000	23.813899	0.001034	20.795633
466.181700	-3.000500	3.743600	-11.231000	23.797551	0.001032	20.802949
467.173849	-2.993300	3.744700	-11.207000	23.779881	0.001034	20.798034
468.173956	-3.026200	3.742600	-11.325000	23.756933	0.001032	20.779293
469.185542	-3.001300	3.743000	-11.232000	23.783993	0.001033	20.766595
470.169954	-2.998900	3.742800	-11.223000	23.782530	0.001033	20.781724
471.172446	-2.987100	3.742800	-11.179000	23.802964	0.001033	20.798418
472.170921	-3.005100	3.742400	-11.246000	23.856405	0.001033	20.794630
473.179323	-2.995700	3.742600	-11.211000	23.847992	0.001035	20.763909
474.187175	-2.998900	3.739900	-11.215000	23.893865	0.001036	20.778139
475.181181	-3.008900	3.741800	-11.258000	23.901356	0.001033	20.783755
476.186038	-3.011400	3.740600	-11.264000	23.918112	0.001035	20.768313
477.185234	-3.010700	3.740700	-11.260000	23.891508	0.001033	20.776724
478.172812	-3.034000	3.739500	-11.345000	23.900223	0.001034	20.780721
479.184443	-2.989900	3.740400	-11.182000	23.896517	0.001035	20.799765
480.184035	-2.998500	3.738900	-11.210000	23.909163	0.001034	20.785892
481.182310	-2.976200	3.740500	-11.132000	23.928577	0.001037	20.786868
482.172085	-2.982600	3.738700	-11.151000	23.940876	0.001036	20.781658
483.189151	-3.004300	3.740200	-11.235000	23.963024	0.001034	20.773048
484.206571	-3.012600	3.739700	-11.265000	23.960267	0.001035	20.790198
485.195813	-2.991600	3.738500	-11.183000	23.958128	0.001035	20.767664
486.179326	-2.992100	3.738100	-11.184000	23.956489	0.001036	20.779297
487.175394	-2.988600	3.737500	-11.168000	23.908087	0.001035	20.786710
488.184797	-2.995800	3.737100	-11.195000	23.918096	0.001032	20.786790
489.180216	-3.036800	3.736300	-11.346000	23.909238	0.001036	20.773640
490.178119	-3.039200	3.735400	-11.351000	23.921985	0.001034	20.794958
491.175820	-2.993400	3.737100	-11.185000	23.921466	0.001035	20.775944
492.184754	-2.989200	3.737800	-11.172000	23.928336	0.001037	20.774298
493.173889	-2.988000	3.736400	-11.163000	23.922513	0.001036	20.779365
494.171490	-2.992400	3.735200	-11.176000	23.940585	0.001036	20.768090
495.199658	-3.014500	3.733900	-11.255000	23.947032	0.001034	20.779770
496.183064	-2.979600	3.736000	-11.131000	23.938548	0.001035	20.778849
497.187025	-2.990000	3.734200	-11.165000	23.959303	0.001036	20.765997
498.191353	-3.023900	3.733700	-11.288000	23.969161	0.001037	20.759761
499.179712	-2.979000	3.734000	-11.122000	23.970807	0.001037	20.762835
500.185600	-2.969000	3.734700	-11.087000	23.974169	0.001037	20.751507
501.176790	-2.997500	3.733300	-11.190000	23.980541	0.001036	20.770226
502.193347	-2.999500	3.733800	-11.198000	23.997612	0.001036	20.767430
503.194195	-3.003200	3.733000	-11.209000	24.010931	0.001037	20.768459
504.180925	-2.971500	3.732800	-11.089000	24.032534	0.001036	20.777796
505.194599	-3.014000	3.731800	-11.247000	24.034100	0.001038	20.779841
506.201739	-2.992500	3.731400	-11.165000	24.031143	0.001034	20.737993
507.184146	-3.011700	3.731600	-11.238000	24.043259	0.001036	20.759154
508.183512	-3.007800	3.730300	-11.220000	24.031192	0.001038	20.769812
509.184396	-2.994900	3.730600	-11.172000	24.023333	0.001036	20.750550
510.177781	-2.986800	3.730600	-11.141000	24.037643	0.001035	20.753996
511.174486	-2.990700	3.731000	-11.157000	24.065791	0.001037	20.750931
512.195797	-2.981200	3.731100	-11.123000	24.083135	0.001036	20.760739
513.189653	-2.995500	3.729900	-11.172000	24.064425	0.001035	20.768053
514.188487	-2.993600	3.729200	-11.163000	24.081772	0.001038	20.764588
515.181819	-2.982000	3.729200	-11.119000	24.055747	0.001036	20.769781
516.184997	-2.992400	3.728600	-11.156000	24.051195	0.001036	20.764268
517.191097	-3.004400	3.728900	-11.201000	24.063737	0.001038	20.764045
518.192218	-3.020400	3.728500	-11.259000	24.001133	0.001036	20.761952
519.196385	-2.999600	3.727700	-11.180000	23.990212	0.001036	20.763802
520.180706	-3.008200	3.727400	-11.212000	23.987075	0.001036	20.747380
521.211766	-2.999800	3.726900	-11.179000	23.979389	0.001036	20.756268
522.186769	-2.992100	3.726500	-11.149000	23.961900	0.001038	20.757221
523.190216	-2.989100	3.727300	-11.141000	23.970983	0.001035	20.733138
524.191720	-3.018200	3.726400	-11.247000	23.978050	0.001039	20.747812
525.199248	-3.009200	3.724700	-11.206000	24.021257	0.001036	20.765064
526.199213	-3.007400	3.726700	-11.207000	24.042110	0.001035	20.762269
527.182858	-3.000700	3.724000	-11.174000	24.055524	0.001036	20.748695
528.187214	-3.018500	3.725100	-11.243000	24.063014	0.001035	20.777070
529.178769	-2.991400	3.725800	-11.145000	24.074565	0.001036	20.727960
530.192892	-2.975300	3.726500	-11.087000	24.129480	0.001034	20.735622
531.185571	-2.997200	3.724900	-11.162000	24.135452	0.001035	20.754415
532.182110	-3.015200	3.722500	-11.223000	24.137423	0.001035	20.755443
533.183050	-3.005100	3.723200	-11.188000	24.133493	0.001036	20.743440
534.193521	-2.993800	3.722700	-11.144000	24.112345	0.001035	20.738351
535.195440	-3.006200	3.721500	-11.186000	24.126553	0.001036	20.735057
536.194047	-3.021300	3.721800	-11.243000	24.114539	0.001036	20.749560
537.194693	-3.009000	3.720000	-11.192000	24.077363	0.001038	20.746415
538.190855	-2.983500	3.722000	-11.102000	24.073061	0.001035	20.751584
539.196991	-2.988400	3.722600	-11.124000	24.103745	0.001034	20.711706
540.189099	-2.992600	3.722200	-11.139000	24.113349	0.001034	20.730822
541.190684	-2.990000	3.720800	-11.124000	24.087921	0.001036	20.732821
542.185207	-3.028800	3.719400	-11.264000	24.095711	0.001036	20.744902
543.197762	-3.012600	3.719600	-11.205000	24.082303	0.001035	20.741411
544.193412	-3.004300	3.720700	-11.177000	24.072448	0.001037	20.727261
545.192795	-2.974700	3.720900	-11.067000	24.077479	0.001035	20.739893
546.198262	-2.984300	3.719100	-11.099000	24.085912	0.001037	20.729858
547.194867	-3.015600	3.718800	-11.212000	24.070291	0.001033	20.739322
548.186377	-2.990600	3.719400	-11.123000	24.065813	0.001034	20.732934
549.200315	-3.000200	3.717800	-11.153000	24.063999	0.001037	20.732063
550.196995	-3.007600	3.718100	-11.182000	24.062037	0.001035	20.745743
551.195097	-3.006700	3.717400	-11.176000	24.080478	0.001034	20.738633
552.189668	-3.000100	3.718100	-11.154000	24.063807	0.001035	20.734241
553.187991	-3.012900	3.716600	-11.195000	24.060198	0.001035	20.743424
554.213838	-2.993000	3.717800	-11.127000	24.107080	0.001036	20.725483
555.197632	-3.022800	3.715200	-11.229000	24.122609	0.001034	20.732050
556.196134	-2.971600	3.717300	-11.046000	24.127362	0.001035	20.741084
557.190368	-2.997600	3.716500	-11.140000	24.139084	0.001035	20.738143
558.193729	-2.989200	3.716200	-11.108000	24.136847	0.001034	20.735424
559.199307	-3.007100	3.714900	-11.170000	24.151233	0.001034	20.738000
560.192442	-3.039100	3.714200	-11.286000	24.163250	0.001034	20.740569
561.191106	-3.007700	3.714000	-11.169000	24.166858	0.001036	20.729489
562.195573	-2.981000	3.715200	-11.073000	24.199702	0.001035	20.715490
563.196499	-2.996200	3.714500	-11.127000	24.191345	0.001033	20.716116
564.199426	-2.975600	3.714500	-11.052000	24.149098	0.001035	20.743919
565.206275	-2.991700	3.714000	-11.110000	24.156714	0.001034	20.731643
566.200307	-3.021700	3.711200	-11.212000	24.161444	0.001034	20.741603
567.205607	-3.026900	3.711200	-11.232000	24.182022	0.001033	20.729051
568.203087	-3.007300	3.712700	-11.165000	24.217177	0.001034	20.708835
569.206648	-3.006200	3.712200	-11.159000	24.210287	0.001034	20.720891
570.211837	-2.980700	3.712500	-11.063000	24.244053	0.001035	20.712560
571.204382	-3.000800	3.711100	-11.134000	24.277763	0.001033	20.749695
572.204146	-3.003700	3.712100	-11.148000	24.269708	0.001035	20.732131
573.201530	-2.999400	3.711400	-11.131000	24.293788	0.001033	20.728784
574.202780	-2.974700	3.711600	-11.040000	24.334290	0.001034	20.721523
575.214489	-3.015100	3.709300	-11.183000	24.311135	0.001035	20.739073
576.199073	-3.000300	3.710700	-11.132000	24.350119	0.001035	20.735032
577.198132	-3.015800	3.708800	-11.183000	24.348676	0.001033	20.727894
578.205467	-2.971100	3.710100	-11.022000	24.360072	0.001033	20.727947
579.197430	-3.001100	3.708000	-11.127000	24.378234	0.001032	20.724355
580.204576	-3.000300	3.709500	-11.129000	24.394579	0.001033	20.735062
581.201582	-3.001100	3.708300	-11.127000	24.377467	0.001031	20.726431
582.202276	-3.009700	3.707900	-11.158000	24.398613	0.001032	20.726307
583.201019	-2.977500	3.709100	-11.042000	24.341298	0.001032	20.730925
584.202121	-2.978800	3.709200	-11.048000	24.314958	0.001030	20.741961
585.212895	-2.995500	3.706400	-11.101000	24.302619	0.001033	20.727686
586.202374	-3.005000	3.706400	-11.136000	24.280906	0.001033	20.707801
587.202106	-3.003500	3.706700	-11.131000	24.266794	0.001034	20.742959
588.210042	-2.998500	3.705800	-11.111000	24.250129	0.001033	20.722922
589.209093	-2.995800	3.707400	-11.106000	24.244258	0.001032	20.731733
590.202706	-3.002000	3.704700	-11.120000	24.276158	0.001031	20.725798
591.213105	-2.999300	3.704100	-11.109000	24.312653	0.001031	20.732536
592.215899	-2.991100	3.704200	-11.078000	24.312730	0.001035	20.729768
593.198101	-2.984700	3.706100	-11.061000	24.310818	0.001033	20.748713
594.214540	-2.982500	3.704700	-11.048000	24.304024	0.001031	20.709180
595.216209	-3.022700	3.701000	-11.186000	24.307982	0.001031	20.741126
596.222141	-2.991500	3.704100	-11.079000	24.315946	0.001031	20.723510
597.211314	-3.027200	3.701900	-11.206000	24.331047	0.001032	20.728701
598.211728	-3.004500	3.702200	-11.122000	24.331970	0.001032	20.744802
599.207314	-3.025900	3.702700	-11.203000	24.338538	0.001030	20.739536
600.212059	-3.006100	3.702400	-11.129000	24.375606	0.001031	20.735470
601.215877	-2.997600	3.700400	-11.092000	24.387172	0.001033	20.720519
602.214900	-3.008500	3.700800	-11.133000	24.392424	0.001031	20.738117
603.221814	-2.992300	3.702000	-11.077000	24.420782	0.001028	20.740013
604.205155	-3.010200	3.701500	-11.142000	24.382378	0.001030	20.733254
605.213552	-3.004300	3.701200	-11.119000	24.425462	0.001030	20.729535
606.218510	-2.992600	3.700300	-11.071000	24.416358	0.001030	20.741265
607.214468	-2.993700	3.701200	-11.079000	24.423151	0.001029	20.740019
608.213134	-2.996500	3.699100	-11.083000	24.434021	0.001030	20.739071
609.207349	-3.025900	3.697700	-11.186000	24.454023	0.001029	20.738749
610.210797	-2.995300	3.699800	-11.081000	24.454671	0.001029	20.746038
611.207467	-3.014200	3.697700	-11.145000	24.433675	0.001030	20.742517
612.211295	-2.993700	3.698700	-11.072000	24.432134	0.001030	20.716313
613.207448	-2.988900	3.699000	-11.055000	24.452929	0.001030	20.741919
614.217169	-2.998600	3.697800	-11.087000	24.467435	0.001029	20.745567
615.209243	-2.994000	3.696700	-11.066000	24.454254	0.001029	20.742300
616.217491	-3.002600	3.697100	-11.100000	24.434451	0.001030	20.751356
617.215010	-3.010400	3.696300	-11.126000	24.443307	0.001029	20.730842
618.213139	-3.003000	3.697500	-11.102000	24.433060	0.001029	20.745219
619.211063	-3.011200	3.695100	-11.125000	24.429703	0.001028	20.774568
620.211890	-2.978000	3.698000	-11.012000	24.467039	0.001028	20.747067
621.207242	-3.012600	3.696700	-11.135000	24.450946	0.001029	20.749413
622.214922	-2.981900	3.696800	-11.022000	24.467466	0.001025	20.761245
623.215487	-3.017100	3.694100	-11.144000	24.459759	0.001029	20.751616
624.216397	-2.999500	3.693800	-11.078000	24.458211	0.001029	20.745322
625.220629	-2.993700	3.694500	-11.059000	24.483908	0.001028	20.773000
626.213667	-2.982700	3.696700	-11.025000	24.484655	0.001030	20.749093
627.219038	-3.030200	3.693700	-11.191000	24.464259	0.001026	20.760873
628.214404	-2.996200	3.694300	-11.067000	24.484359	0.001025	20.760650
629.236701	-3.010200	3.695200	-11.121000	24.487741	0.001028	20.767363
630.219048	-3.021300	3.691900	-11.154000	24.501944	0.001027	20.761223
631.224669	-3.000100	3.693100	-11.078000	24.521793	0.001026	20.758852
632.242154	-2.988500	3.692800	-11.034000	24.532539	0.001027	20.762048
633.234128	-3.008000	3.691700	-11.102000	24.543161	0.001028	20.753265
634.231438	-3.008400	3.690100	-11.100000	24.577084	0.001026	20.761223
635.226853	-2.993100	3.690700	-11.046000	24.583675	0.001027	20.762147
636.218813	-2.999300	3.689800	-11.066000	24.564624	0.001025	20.761524
637.216264	-3.003800	3.688700	-11.078000	24.554926	0.001026	20.750844
638.224229	-3.020400	3.688300	-11.138000	24.556118	0.001026	20.760576
639.210674	-2.996100	3.689000	-11.052000	24.534105	0.001026	20.764093
640.209974	-3.012800	3.689100	-11.112000	24.566718	0.001025	20.768367
641.208079	-2.999300	3.690000	-11.067000	24.514086	0.001027	20.763448
642.229007	-2.988800	3.688800	-11.024000	24.521947	0.001026	20.773706
643.221021	-3.001700	3.689500	-11.073000	24.539581	0.001024	20.758682
644.216718	-3.014300	3.690400	-11.123000	24.521725	0.001026	20.789605
645.226637	-3.007600	3.687800	-11.091000	24.535578	0.001024	20.761304
646.220856	-3.032000	3.686100	-11.176000	24.525057	0.001025	20.763551
647.226670	-3.009500	3.687900	-11.098000	24.523368	0.001026	20.778925
648.213685	-3.020800	3.687000	-11.137000	24.493496	0.001024	20.762704
649.224497	-2.979000	3.688900	-10.988000	24.493097	0.001025	20.761356
650.214123	-2.987600	3.688100	-11.018000	24.478425	0.001025	20.764180
651.217161	-3.001500	3.686800	-11.065000	24.462931	0.001023	20.758592
652.213448	-2.985100	3.686800	-11.004000	24.456710	0.001023	20.774162
653.218539	-3.004500	3.685500	-11.072000	24.482629	0.001023	20.785941
654.230173	-3.024600	3.683800	-11.140000	24.478799	0.001024	20.771193
655.227155	-2.994300	3.685900	-11.035000	24.497749	0.001022	20.759385
656.226373	-2.989200	3.684700	-11.013000	24.523519	0.001022	20.788560
657.225221	-2.999200	3.685300	-11.051000	24.526182	0.001022	20.777007
658.226322	-2.978800	3.686300	-10.979000	24.516977	0.001021	20.772513
659.225266	-3.002700	3.683700	-11.061000	24.504591	0.001022	20.769095
660.231843	-3.009700	3.685500	-11.091000	24.546302	0.001023	20.787711
661.215315	-2.997500	3.683700	-11.041000	24.562073	0.001020	20.771766
662.222847	-3.013300	3.682800	-11.097000	24.552248	0.001020	20.794625
663.227800	-3.000900	3.683300	-11.052000	24.576895	0.001021	20.790906
664.232329	-3.016300	3.682100	-11.105000	24.601965	0.001022	20.777180
665.219759	-2.997900	3.682200	-11.038000	24.587563	0.001022	20.775058
666.232665	-3.007700	3.681300	-11.071000	24.618656	0.001020	20.772591
667.225084	-2.997100	3.682900	-11.036000	24.605375	0.001019	20.771593
668.223602	-2.996900	3.681900	-11.033000	24.629796	0.001019	20.785666
669.225154	-3.012800	3.680200	-11.086000	24.628903	0.001019	20.781925
670.233150	-3.015200	3.679900	-11.094000	24.596594	0.001019	20.786964
671.242929	-3.011600	3.679100	-11.079000	24.582742	0.001021	20.783022
672.224326	-2.993600	3.681200	-11.019000	24.566798	0.001022	20.769395
673.232213	-3.004000	3.680400	-11.055000	24.572123	0.001019	20.801291
674.229011	-3.033500	3.676800	-11.152000	24.592320	0.001019	20.780304
675.236055	-2.985300	3.680100	-10.985000	24.603213	0.001022	20.782700
676.229771	-3.009400	3.678000	-11.068000	24.618406	0.001019	20.810746
677.225227	-3.011400	3.678400	-11.076000	24.623106	0.001020	20.788436
678.223541	-3.023600	3.677400	-11.118000	24.628156	0.001020	20.791607
679.219553	-3.013900	3.678400	-11.084000	24.652604	0.001017	20.787689
680.237504	-3.006900	3.677900	-11.058000	24.644071	0.001018	20.796670
681.228588	-2.968400	3.678600	-10.918000	24.665461	0.001016	20.783047
682.240396	-3.011300	3.677400	-11.072000	24.705897	0.001017	20.795174
683.236648	-3.007700	3.675600	-11.054000	24.685628	0.001016	20.795223
684.228061	-2.991000	3.677100	-10.997000	24.676604	0.001015	20.792806
685.233755	-3.017900	3.677000	-11.095000	24.682695	0.001018	20.781848
686.224686	-3.011500	3.675000	-11.066000	24.691873	0.001017	20.816662
687.229986	-3.001900	3.675800	-11.034000	24.698090	0.001016	20.802512
688.228634	-2.975700	3.676600	-10.939000	24.724924	0.001017	20.807154
689.220825	-3.005800	3.674900	-11.045000	24.737134	0.001016	20.808028
690.239924	-2.980700	3.675100	-10.954000	24.733080	0.001016	20.816287
691.240329	-2.994500	3.673600	-11.000000	24.725097	0.001017	20.805357
692.236802	-2.971000	3.677100	-10.923000	24.729998	0.001016	20.789013
693.233728	-3.008700	3.673800	-11.052000	24.715347	0.001015	20.800863
694.226446	-2.994600	3.675000	-11.004000	24.725072	0.001015	20.789760
695.238438	-2.975600	3.675900	-10.935000	24.689112	0.001016	20.791607
696.242540	-3.000500	3.673000	-11.020000	24.679337	0.001015	20.795549
697.237778	-2.999200	3.674100	-11.018000	24.628755	0.001015	20.816864
698.236269	-3.011400	3.673300	-11.060000	24.630096	0.001014	20.784070
699.242077	-3.020100	3.671300	-11.086000	24.648055	0.001014	20.820533
700.227245	-2.995600	3.672500	-10.999000	24.658747	0.001014	20.809500
701.224020	-2.992700	3.672700	-10.991000	24.684115	0.001015	20.797024
702.235366	-3.008000	3.669000	-11.035000	24.696227	0.001015	20.814868
703.241815	-2.994600	3.670600	-10.991000	24.681404	0.001014	20.811846
704.231377	-2.990800	3.670800	-10.977000	24.649297	0.001015	20.833682
705.239161	-3.006400	3.670400	-11.033000	24.662404	0.001013	20.839721
706.243101	-3.009400	3.670000	-11.043000	24.646335	0.001013	20.801787
707.246764	-3.009700	3.668600	-11.039000	24.624478	0.001013	20.811149
708.238571	-3.027400	3.668400	-11.104000	24.627711	0.001013	20.825299
709.244249	-3.027300	3.669000	-11.106000	24.620246	0.001011	20.836300
710.241692	-2.994700	3.668600	-10.985000	24.626590	0.001011	20.812795
711.248629	-3.000700	3.669100	-11.009000	24.622112	0.001011	20.826319
712.235389	-2.989500	3.668400	-10.964000	24.613307	0.001012	20.843087
713.241964	-2.991000	3.668200	-10.971000	24.621389	0.001013	20.824171
714.251713	-2.977700	3.668800	-10.924000	24.638277	0.001010	20.818831
715.245642	-3.036200	3.666200	-11.130000	24.641134	0.001010	20.830233
716.242514	-2.995900	3.668600	-10.989000	24.676027	0.001010	20.829210
717.248901	-2.996200	3.666600	-10.985000	24.685005	0.001011	20.827788
718.245587	-2.997200	3.666300	-10.988000	24.709473	0.001011	20.844754
719.243236	-3.030300	3.665400	-11.106000	24.726607	0.001010	20.837292
720.242875	-2.997000	3.666000	-10.986000	24.717778	0.001010	20.827484
721.242746	-2.986000	3.667000	-10.949000	24.731159	0.001007	20.825265
722.244858	-2.990600	3.665900	-10.961000	24.736628	0.001010	20.831227
723.236104	-2.999100	3.664800	-10.990000	24.753863	0.001009	20.840936
724.261226	-2.996200	3.665300	-10.980000	24.753613	0.001010	20.849694
725.248419	-3.002600	3.666300	-11.006000	24.741575	0.001009	20.843304
726.248214	-2.983800	3.664100	-10.930000	24.693927	0.001007	20.828680
727.242393	-2.992200	3.663500	-10.960000	24.717704	0.001008	20.841160
728.253613	-3.003000	3.664100	-11.003000	24.727524	0.001008	20.838213
729.255245	-2.986300	3.664700	-10.942000	24.747566	0.001009	20.845049
730.253429	-2.996100	3.664500	-10.978000	24.750973	0.001005	20.846096
731.235396	-3.015500	3.662300	-11.042000	24.782456	0.001007	20.826009
732.246433	-3.004800	3.661800	-11.002000	24.750451	0.001007	20.840831
733.245153	-3.002500	3.663000	-10.998000	24.746100	0.001006	20.855430
734.245815	-2.974800	3.665100	-10.902000	24.763683	0.001007	20.849843
735.248984	-3.013400	3.661800	-11.034000	24.791878	0.001006	20.843998
736.240434	-2.987100	3.662400	-10.939000	24.790510	0.001005	20.857324
737.237422	-3.017900	3.659300	-11.042000	24.774869	0.001005	20.842102
738.258016	-2.983000	3.662100	-10.923000	24.786884	0.001005	20.828556
739.250707	-2.971600	3.662500	-10.882000	24.774026	0.001005	20.846471
740.249412	-2.984100	3.661200	-10.924000	24.784022	0.001006	20.857451
741.256273	-2.991300	3.660200	-10.948000	24.772806	0.001005	20.862790
742.241353	-3.006600	3.659800	-11.003000	24.775644	0.001005	20.853310
743.236757	-3.012200	3.658600	-11.019000	24.771561	0.001005	20.849688
744.255442	-3.008900	3.657800	-11.004000	24.768631	0.001004	20.851488
745.241755	-3.012100	3.659200	-11.021000	24.760327	0.001004	20.836992
746.254991	-3.001300	3.658200	-10.978000	24.781536	0.001002	20.869180
747.247203	-2.984500	3.659200	-10.919000	24.788672	0.001000	20.842678
748.251863	-2.983500	3.659500	-10.917000	24.803220	0.001002	20.845424
749.255625	-2.978600	3.660100	-10.901000	24.824480	0.001002	20.870553
750.243114	-3.000100	3.657700	-10.973000	24.852327	0.001002	20.862465
751.249884	-3.000500	3.656800	-10.971000	24.871475	0.001003	20.837112
752.254524	-3.006500	3.659000	-10.999000	24.875131	0.001002	20.868281
753.250259	-3.009800	3.655800	-11.002000	24.905641	0.001002	20.864764
754.255661	-3.003700	3.657100	-10.983000	24.895918	0.001002	20.832247
755.253062	-2.991700	3.656700	-10.938000	24.913542	0.001002	20.855151
756.256052	-3.007700	3.654700	-10.990000	24.913891	0.000999	20.853131
757.261889	-2.996700	3.655700	-10.954000	24.911730	0.001000	20.864237
758.263793	-3.000600	3.654000	-10.963000	24.889004	0.001000	20.853757
759.258864	-2.985200	3.656200	-10.913000	24.880849	0.001000	20.883028
760.250662	-2.980300	3.656100	-10.893000	24.861276	0.000998	20.861963
761.254658	-3.000000	3.654900	-10.964000	24.822884	0.000999	20.883174
762.256135	-2.976400	3.655800	-10.879000	24.861625	0.000999	20.893605
763.245890	-3.012600	3.654100	-11.007000	24.827559	0.000997	20.884073
764.251517	-3.005400	3.653100	-10.978000	24.851203	0.000999	20.866078
765.256694	-3.023600	3.652800	-11.044000	24.842650	0.001000	20.885942
766.249154	-3.008100	3.653300	-10.988000	24.854137	0.000998	20.870444
767.249634	-2.987300	3.652900	-10.911000	24.860828	0.000998	20.899917
768.249927	-2.997700	3.651300	-10.944000	24.896532	0.001000	20.861312
769.247530	-2.986400	3.650900	-10.902000	24.893871	0.000997	20.888036
770.245686	-2.998900	3.652200	-10.952000	24.843221	0.000996	20.884618
771.255923	-3.010400	3.651800	-10.992000	24.849212	0.000999	20.887311
772.282650	-3.017700	3.650300	-11.014000	24.836283	0.000997	20.880500
773.252821	-2.979700	3.651400	-10.879000	24.838642	0.000996	20.895195
774.253661	-2.994200	3.650400	-10.929000	24.879420	0.000996	20.889180
775.252490	-3.011900	3.650700	-10.995000	24.906969	0.000997	20.872260
776.249325	-3.007600	3.649300	-10.974000	24.903338	0.000995	20.883314
777.256120	-3.011100	3.648000	-10.983000	24.914132	0.000996	20.901259
778.257974	-3.006400	3.648400	-10.967000	24.904332	0.000994	20.881941
779.262239	-3.016700	3.648800	-11.006000	24.906793	0.000993	20.877773
780.267824	-3.013600	3.648600	-10.993000	24.905870	0.000992	20.896760
781.259744	-2.995500	3.648300	-10.928000	24.928052	0.000994	20.892945
782.250926	-2.994800	3.648200	-10.925000	24.931383	0.000992	20.896763
783.275432	-2.995200	3.648900	-10.928000	24.925610	0.000993	20.895235
784.263477	-3.011100	3.649400	-10.986000	24.931556	0.000992	20.901677
785.262546	-2.966800	3.649200	-10.825000	24.927573	0.000993	20.914748
786.270520	-3.007900	3.647900	-10.972000	24.968450	0.000990	20.903621
787.254891	-3.014000	3.646100	-10.987000	24.965912	0.000992	20.897281
788.268402	-2.998600	3.647100	-10.935000	24.994999	0.000993	20.885226
789.270275	-3.005300	3.646000	-10.957000	25.027420	0.000992	20.904965
790.257906	-2.996100	3.646300	-10.922000	25.022051	0.000994	20.903370
791.261949	-3.016100	3.646200	-10.996000	25.036120	0.000991	20.886673
792.259766	-3.003100	3.645000	-10.945000	25.017723	0.000991	20.875793
793.270428	-2.963500	3.646800	-10.806000	24.989232	0.000992	20.879912
794.267303	-2.991900	3.645500	-10.907000	25.017596	0.000990	20.869029
795.266601	-2.978700	3.646500	-10.861000	25.018766	0.000991	20.892487
796.254114	-2.978600	3.646400	-10.859000	25.023039	0.000988	20.878759
797.257937	-3.007900	3.643900	-10.960000	24.993104	0.000988	20.877160
798.277606	-3.014300	3.643700	-10.981000	24.983357	0.000989	20.877808
799.271269	-3.020800	3.643300	-11.003000	25.002897	0.000989	20.883197
800.264166	-3.017700	3.643300	-10.993000	25.002027	0.000988	20.866677
801.263158	-2.987900	3.643300	-10.885000	24.986660	0.000989	20.872116
802.279547	-2.994400	3.642900	-10.907000	24.948224	0.000990	20.892803
803.259643	-3.023900	3.641100	-11.010000	24.958765	0.000989	20.879203
804.272766	-2.999400	3.642700	-10.925000	24.973582	0.000990	20.883169
805.283686	-3.006300	3.641300	-10.946000	24.962890	0.000988	20.867697
806.273476	-3.010700	3.641300	-10.962000	24.939767	0.000988	20.885264
807.266179	-2.993800	3.641200	-10.899000	24.925320	0.000985	20.868394
808.265361	-3.008600	3.641200	-10.954000	24.941706	0.000986	20.877728
809.273478	-2.985700	3.641400	-10.872000	24.959484	0.000986	20.873287
810.260850	-2.988100	3.640100	-10.876000	24.974301	0.000987	20.872038
811.282529	-3.028100	3.639100	-11.019000	24.951500	0.000985	20.854843
812.267288	-2.991700	3.640000	-10.889000	24.983971	0.000986	20.878425
813.277424	-2.984400	3.639400	-10.861000	24.967836	0.000984	20.887833
814.269594	-3.009300	3.639600	-10.951000	24.975144	0.000985	20.850126
815.260767	-2.983500	3.639500	-10.857000	24.977256	0.000984	20.860306
816.271026	-2.997700	3.639400	-10.909000	25.009353	0.000986	20.873083
817.284594	-3.002800	3.639000	-10.926000	25.047813	0.000984	20.864273
818.262969	-3.001900	3.639200	-10.923000	25.057708	0.000984	20.868989
819.274971	-2.974000	3.638900	-10.820000	25.084807	0.000983	20.846408
820.279009	-3.021700	3.636300	-10.987000	25.092538	0.000984	20.886882
821.267811	-2.996900	3.638200	-10.901000	25.092636	0.000983	20.862801
822.270205	-2.997200	3.636100	-10.896000	25.065339	0.000983	20.888977
823.267318	-2.993900	3.637700	-10.889000	25.032947	0.000982	20.857412
824.271462	-3.009500	3.634800	-10.937000	24.996871	0.000981	20.868140
825.277309	-2.998000	3.636800	-10.902000	24.985287	0.000982	20.847979
826.272016	-2.989800	3.635100	-10.867000	24.971832	0.000983	20.858655
827.270475	-3.013100	3.634200	-10.949000	24.985383	0.000982	20.840015
828.277596	-2.994600	3.636500	-10.888000	25.028245	0.000982	20.847951
829.270795	-2.994800	3.634600	-10.884000	25.058276	0.000978	20.870034
830.273146	-3.004600	3.635500	-10.922000	25.036973	0.000980	20.874254
831.269277	-3.005000	3.632800	-10.915000	25.073740	0.000980	20.856160
832.271286	-2.985900	3.634600	-10.851000	25.065386	0.000980	20.837818
833.280303	-2.984400	3.633800	-10.843000	25.086215	0.000980	20.851140
834.276632	-3.014000	3.633700	-10.950000	25.092881	0.000978	20.851667
835.293467	-2.987900	3.634300	-10.858000	25.092955	0.000978	20.860750
836.284093	-3.009200	3.631800	-10.928000	25.088901	0.000978	20.858577
837.268229	-3.007900	3.632700	-10.925000	25.098422	0.000976	20.859126
838.277949	-3.009100	3.632100	-10.928000	25.080053	0.000976	20.834998
839.278509	-2.977600	3.633300	-10.816000	25.109959	0.000977	20.847474
840.280269	-3.002700	3.630900	-10.902000	25.098200	0.000976	20.846575
841.272351	-2.998100	3.631400	-10.887000	25.095715	0.000975	20.858304
842.281291	-2.990600	3.632300	-10.862000	25.093526	0.000975	20.838090
843.276781	-3.015000	3.629700	-10.943000	25.091686	0.000976	20.850942
844.286124	-2.998300	3.632900	-10.890000	25.116651	0.000974	20.845184
845.286853	-3.016900	3.629500	-10.948000	25.126589	0.000973	20.841409
846.288620	-3.012400	3.629100	-10.931000	25.130867	0.000975	20.820101
847.280569	-2.986600	3.630000	-10.840000	25.132680	0.000974	20.852265
848.279293	-3.003200	3.629300	-10.898000	25.161691	0.000972	20.831130
849.287521	-3.005300	3.628400	-10.904000	25.163534	0.000972	20.841514
850.284245	-3.004000	3.628500	-10.899000	25.151152	0.000972	20.858955
851.275092	-3.006400	3.628600	-10.908000	25.163309	0.000971	20.833702
852.291018	-2.988900	3.628700	-10.845000	25.182349	0.000972	20.847601
853.289504	-2.993700	3.629300	-10.863000	25.193734	0.000971	20.823469
854.274233	-2.998600	3.628900	-10.881000	25.196941	0.000973	20.845655
855.283188	-3.011600	3.626300	-10.918000	25.175465	0.000971	20.848750
856.282323	-3.000100	3.626000	-10.877000	25.164751	0.000970	20.839417
857.288445	-3.022800	3.626500	-10.961000	25.167661	0.000972	20.824796
858.281033	-3.010600	3.627100	-10.918000	25.176286	0.000971	20.831083
859.283283	-2.989300	3.627800	-10.843000	25.177036	0.000968	20.843216
860.275424	-3.004900	3.626100	-10.895000	25.168060	0.000970	20.839419
861.283062	-3.008200	3.624700	-10.901000	25.161052	0.000971	20.829066
862.275103	-2.995800	3.624800	-10.858000	25.130947	0.000969	20.843414
863.272654	-2.991800	3.625600	-10.845000	25.161873	0.000970	20.846485
864.291803	-2.995400	3.624700	-10.856000	25.175768	0.000969	20.834356
865.279652	-2.986100	3.625400	-10.825000	25.190659	0.000967	20.824650
866.293823	-2.980000	3.625200	-10.802000	25.210298	0.000968	20.843891
867.290644	-2.968100	3.625100	-10.759000	25.233041	0.000966	20.831164
868.285710	-2.984500	3.624700	-10.816000	25.220067	0.000967	20.820509
869.287025	-3.001900	3.622400	-10.872000	25.202469	0.000966	20.836506
870.289511	-3.001200	3.623100	-10.872000	25.155563	0.000967	20.843944
871.278242	-2.989400	3.623900	-10.831000	25.171545	0.000966	20.820633
872.300457	-3.008700	3.622900	-10.899000	25.173881	0.000964	20.825350
873.283779	-2.971700	3.622900	-10.765000	25.167516	0.000966	20.815167
874.282025	-2.994100	3.622500	-10.844000	25.173533	0.000963	20.819784
875.298677	-3.001000	3.622500	-10.870000	25.218175	0.000964	20.821929
876.293161	-3.006400	3.621900	-10.887000	25.229337	0.000963	20.836454
877.288005	-3.003100	3.622100	-10.874000	25.250339	0.000963	20.821978
878.284390	-3.011600	3.619700	-10.899000	25.249620	0.000963	20.834532
879.287914	-2.999900	3.620900	-10.861000	25.274872	0.000963	20.804410
880.287279	-3.002100	3.619200	-10.863000	25.258167	0.000962	20.822725
881.275132	-2.964300	3.622300	-10.737000	25.269826	0.000963	20.832059
882.289894	-3.024000	3.618700	-10.941000	25.282972	0.000960	20.830086
883.274908	-2.984400	3.620300	-10.802000	25.285682	0.000961	20.828065
884.277131	-2.982400	3.620000	-10.795000	25.287120	0.000963	20.827139
885.280682	-3.012600	3.618400	-10.900000	25.290973	0.000960	20.827687
886.310131	-2.998600	3.618000	-10.847000	25.277277	0.000961	20.812989
887.280880	-2.988800	3.618700	-10.815000	25.310980	0.000959	20.816955
888.284513	-3.000600	3.618200	-10.854000	25.309390	0.000958	20.819627
889.288006	-3.047200	3.615400	-11.016000	25.270462	0.000957	20.840759
890.285332	-3.003600	3.618300	-10.867000	25.285624	0.000959	20.798609
891.283340	-3.003800	3.616200	-10.861000	25.268474	0.000957	20.823116
892.285276	-2.988500	3.617500	-10.810000	25.303468	0.000958	20.820318
893.289497	-3.015800	3.616300	-10.904000	25.292905	0.000958	20.822989
894.298074	-3.009600	3.614300	-10.876000	25.304736	0.000957	20.819221
895.297249	-2.978500	3.616400	-10.771000	25.342068	0.000956	20.818772
896.294109	-3.024100	3.616200	-10.935000	25.332672	0.000957	20.821666
897.299354	-2.994400	3.615500	-10.825000	25.332743	0.000956	20.826953
898.288404	-2.998300	3.614100	-10.835000	25.304909	0.000958	20.812282
899.293816	-3.013100	3.613700	-10.887000	25.299662	0.000955	20.825032
900.283088	-2.994600	3.614400	-10.822000	25.252137	0.000953	20.821412
901.294290	-3.002200	3.613400	-10.847000	25.220272	0.000954	20.821189
902.298031	-2.976300	3.614200	-10.755000	25.182115	0.000953	20.803745
903.287847	-2.980200	3.615100	-10.772000	25.181492	0.000952	20.819714
904.302921	-2.999500	3.614900	-10.842000	25.161183	0.000951	20.797429
905.297311	-2.989800	3.612400	-10.799000	25.146217	0.000954	20.833139
906.284266	-3.026900	3.611600	-10.931000	25.130930	0.000956	20.809732
907.296464	-3.008500	3.612900	-10.869000	25.149974	0.000952	20.790918
908.293022	-2.992400	3.613600	-10.812000	25.169808	0.000950	20.822683
909.296334	-2.990300	3.613200	-10.803000	25.225115	0.000951	20.811353
910.293824	-3.006200	3.611600	-10.856000	25.239262	0.000951	20.808486
911.289678	-2.988600	3.609700	-10.787000	25.247785	0.000952	20.814198
912.299525	-2.989800	3.612000	-10.799000	25.240574	0.000949	20.804588
913.298364	-2.985300	3.611300	-10.780000	25.231752	0.000951	20.821809
914.285851	-2.981000	3.610600	-10.761000	25.218726	0.000948	20.809206
915.308683	-2.994300	3.610400	-10.809000	25.294116	0.000948	20.817092
916.296556	-3.015700	3.609300	-10.883000	25.316657	0.000949	20.823129
917.295186	-3.000200	3.609500	-10.827000	25.327916	0.000947	20.794132
918.296921	-3.033800	3.606100	-10.939000	25.323713	0.000947	20.800343
919.294515	-3.029200	3.608600	-10.930000	25.350556	0.000947	20.796949
920.283690	-2.993400	3.608300	-10.799000	25.392210	0.000948	20.813169
921.298766	-3.008100	3.609000	-10.856000	25.363528	0.000947	20.803336
922.302785	-2.997800	3.608700	-10.815000	25.395562	0.000946	20.813690
923.297349	-2.991000	3.608000	-10.789000	25.387361	0.000947	20.809723
924.309390	-2.993700	3.607600	-10.799000	25.339714	0.000946	20.807399
925.306600	-3.022700	3.606000	-10.899000	25.309092	0.000944	20.810319
926.293866	-2.995800	3.606900	-10.804000	25.280881	0.000945	20.806175
927.300498	-2.991500	3.607100	-10.790000	25.252323	0.000945	20.798840
928.297612	-3.002400	3.607200	-10.830000	25.292264	0.000944	20.806225
929.292972	-2.973700	3.606900	-10.724000	25.321294	0.000944	20.796017
930.314184	-3.003700	3.604800	-10.826000	25.337995	0.000944	20.792397
931.305725	-2.998000	3.605800	-10.808000	25.374232	0.000940	20.803179
932.301561	-3.003700	3.605000	-10.828000	25.377362	0.000943	20.779294
933.290652	-3.015600	3.603900	-10.866000	25.400324	0.000942	20.792394
934.304689	-2.983700	3.605800	-10.758000	25.416953	0.000941	20.805299
935.289557	-2.987700	3.605200	-10.770000	25.450300	0.000942	20.796584
936.296716	-2.977600	3.605600	-10.736000	25.433304	0.000942	20.766241
937.299182	-2.989400	3.604100	-10.774000	25.429996	0.000940	20.798007
938.303319	-3.011500	3.601700	-10.844000	25.412302	0.000940	20.803473
939.299901	-2.998300	3.602600	-10.800000	25.419432	0.000939	20.793089
940.313148	-3.002500	3.601500	-10.813000	25.398905	0.000937	20.804245
941.294128	-2.979500	3.601300	-10.728000	25.374498	0.000938	20.786850
942.290872	-2.998800	3.601700	-10.800000	25.298917	0.000937	20.804369
943.296290	-3.000000	3.600100	-10.799000	25.288552	0.000937	20.783531
944.302866	-3.028600	3.599900	-10.901000	25.272619	0.000939	20.792664
945.300693	-3.005800	3.599600	-10.818000	25.295311	0.000937	20.779413
946.291931	-2.998100	3.601200	-10.794000	25.290092	0.000937	20.791242
947.299086	-3.005900	3.599800	-10.819000	25.307766	0.000935	20.793814
948.295423	-3.000900	3.599600	-10.801000	25.342884	0.000936	20.771228
949.292870	-3.010200	3.600200	-10.837000	25.331726	0.000936	20.771879
950.301394	-3.020000	3.598700	-10.868000	25.299164	0.000935	20.785651
951.305327	-3.011200	3.598400	-10.834000	25.335153	0.000935	20.795708
952.294229	-3.006300	3.598100	-10.816000	25.368878	0.000935	20.789742
953.291509	-3.004000	3.599000	-10.810000	25.363387	0.000934	20.793238
954.291436	-2.995500	3.597900	-10.775000	25.404492	0.000930	20.776664
955.294297	-2.985300	3.597700	-10.738000	25.383714	0.000930	20.771922
956.303723	-2.992600	3.598900	-10.768000	25.331548	0.000933	20.775492
957.315057	-2.996100	3.597100	-10.777000	25.315813	0.000933	20.788143
958.293736	-2.983800	3.596200	-10.729000	25.272467	0.000929	20.796780
959.294347	-2.985900	3.597300	-10.740000	25.289839	0.000931	20.774867
960.317665	-2.981300	3.596100	-10.719000	25.271320	0.000931	20.788515
961.307444	-3.021300	3.594600	-10.859000	25.290731	0.000929	20.790461
962.315861	-2.989100	3.595100	-10.744000	25.297590	0.000931	20.775536
963.319366	-3.015900	3.594600	-10.840000	25.302834	0.000928	20.788388
964.304513	-2.989600	3.595400	-10.747000	25.300896	0.000928	20.780278
965.302771	-3.017700	3.594200	-10.845000	25.312801	0.000929	20.773265
966.305693	-3.005300	3.593000	-10.797000	25.299031	0.000928	20.773664
967.308849	-3.003400	3.593300	-10.791000	25.284836	0.000927	20.765576
968.300654	-3.009300	3.593900	-10.814000	25.333002	0.000927	20.790704
969.319590	-3.011800	3.592300	-10.817000	25.359598	0.000927	20.773311
970.305488	-2.966100	3.593400	-10.657000	25.385073	0.000926	20.777080
971.301361	-2.986500	3.591400	-10.725000	25.426849	0.000925	20.767820
972.307648	-3.018300	3.591100	-10.838000	25.447870	0.000923	20.787032
973.295125	-3.003700	3.591500	-10.786000	25.423467	0.000926	20.786235
974.295778	-2.980600	3.592900	-10.707000	25.408730	0.000924	20.770488
975.305092	-2.991800	3.591800	-10.745000	25.390734	0.000922	20.770436
976.302955	-3.009600	3.590600	-10.806000	25.377361	0.000924	20.785457
977.315182	-3.002900	3.589400	-10.777000	25.340281	0.000922	20.776674
978.300317	-3.009900	3.590200	-10.805000	25.284007	0.000923	20.771381
979.304358	-3.019300	3.589400	-10.835000	25.269293	0.000922	20.780316
980.332223	-2.988600	3.590400	-10.729000	25.291014	0.000921	20.782210
981.299719	-2.998700	3.588500	-10.759000	25.307468	0.000921	20.790670
982.312821	-2.990800	3.588500	-10.731000	25.342188	0.000919	20.781435
983.308122	-3.016800	3.589600	-10.828000	25.349698	0.000922	20.783285
984.311462	-3.001400	3.587900	-10.767000	25.376759	0.000919	20.772999
985.309046	-2.975400	3.590300	-10.681000	25.393358	0.000920	20.780658
986.314734	-2.985700	3.588700	-10.714000	25.390278	0.000920	20.781832
987.311649	-2.994000	3.586600	-10.737000	25.386053	0.000918	20.758149
988.330044	-2.999000	3.587300	-10.757000	25.357667	0.000917	20.786546
989.313251	-2.985800	3.588000	-10.712000	25.394972	0.000918	20.769002
990.312466	-3.007000	3.587500	-10.787000	25.362241	0.000915	20.759370
991.313759	-2.976900	3.586000	-10.674000	25.392411	0.000916	20.771171
992.316689	-3.020700	3.585700	-10.830000	25.425567	0.000915	20.754204
993.324330	-2.991500	3.586000	-10.726000	25.423428	0.000916	20.771497
994.301842	-3.007000	3.585000	-10.779000	25.438834	0.000915	20.762785
995.312757	-3.000200	3.584100	-10.751000	25.479392	0.000916	20.758468
996.314575	-2.994200	3.584800	-10.731000	25.484262	0.000915	20.787541
997.316190	-2.997600	3.583000	-10.739000	25.515450	0.000915	20.770970
998.303362	-3.030700	3.583000	-10.857000	25.551009	0.000914	20.775386
999.313166	-2.989700	3.583700	-10.712000	25.559581	0.000914	20.770719
1000.328969	-3.005300	3.584000	-10.769000	25.551975	0.000913	20.753123
1001.316789	-3.004400	3.583300	-10.764000	25.560621	0.000913	20.758487
1002.310085	-3.020300	3.581700	-10.817000	25.565864	0.000913	20.750950
1003.324073	-2.988200	3.583000	-10.706000	25.552842	0.000912	20.771538
1004.312711	-3.020000	3.580700	-10.812000	25.571428	0.000912	20.779772
1005.313542	-3.011700	3.581400	-10.786000	25.535894	0.000911	20.795770
1006.306081	-2.986300	3.582400	-10.697000	25.549855	0.000911	20.757158
1007.303462	-2.987500	3.581100	-10.697000	25.546726	0.000908	20.759706
1008.319963	-2.981200	3.580700	-10.674000	25.549982	0.000909	20.760604
1009.314728	-3.019500	3.579700	-10.809000	25.564467	0.000908	20.768039
1010.313782	-2.999000	3.579800	-10.735000	25.560094	0.000908	20.765545
1011.307115	-2.990900	3.579900	-10.705000	25.535293	0.000908	20.774777
1012.327774	-3.003200	3.580400	-10.751000	25.533402	0.000907	20.760549
1013.323040	-3.003700	3.580600	-10.753000	25.527714	0.000908	20.756260
1014.314154	-2.973300	3.580100	-10.644000	25.542746	0.000907	20.772304
1015.306912	-3.001700	3.578500	-10.740000	25.576487	0.000906	20.760670
1016.321489	-3.004600	3.576900	-10.745000	25.583917	0.000905	20.745373
1017.341777	-2.970300	3.580300	-10.633000	25.578946	0.000905	20.778314
1018.312034	-2.997000	3.578100	-10.723000	25.536800	0.000905	20.750211
1019.310679	-2.996700	3.577300	-10.719000	25.503549	0.000902	20.752381
1020.321041	-3.007600	3.575900	-10.753000	25.495349	0.000906	20.767855
1021.315052	-3.005600	3.577000	-10.750000	25.493683	0.000903	20.763336
1022.315347	-2.978000	3.575800	-10.647000	25.462072	0.000904	20.768577
1023.312768	-3.016400	3.576400	-10.787000	25.448030	0.000900	20.781977
1024.335160	-3.009200	3.575500	-10.758000	25.455434	0.000901	20.764756
1025.304207	-3.012000	3.575600	-10.770000	25.461597	0.000900	20.777109
1026.312813	-2.998800	3.576300	-10.724000	25.488561	0.000900	20.768149
1027.315966	-3.001500	3.575600	-10.732000	25.500982	0.000899	20.772563
1028.315134	-2.995500	3.574800	-10.708000	25.531101	0.000899	20.762980
1029.307518	-2.990200	3.575700	-10.691000	25.571579	0.000900	20.771389
1030.322010	-2.958100	3.575300	-10.574000	25.558060	0.000897	20.740741
1031.321270	-2.995000	3.573200	-10.701000	25.527470	0.000897	20.776403
1032.314706	-2.995400	3.573100	-10.701000	25.506991	0.000898	20.777175
1033.311876	-2.998100	3.573700	-10.712000	25.466508	0.000899	20.770187
1034.308088	-3.000100	3.572000	-10.716000	25.436437	0.000895	20.791198
1035.318221	-3.010000	3.570500	-10.745000	25.429950	0.000896	20.758131
1036.319957	-3.005200	3.571300	-10.732000	25.427413	0.000897	20.765067
1037.308040	-3.011200	3.571800	-10.754000	25.444011	0.000895	20.772726
1038.318571	-2.992200	3.571400	-10.684000	25.450745	0.000895	20.763366
1039.317040	-2.971900	3.572200	-10.615000	25.468537	0.000895	20.757525
1040.313880	-2.987700	3.570400	-10.666000	25.443934	0.000895	20.773597
1041.318977	-2.990400	3.570200	-10.676000	25.472811	0.000892	20.775568
1042.323209	-3.008200	3.570500	-10.740000	25.492942	0.000893	20.761643
1043.314351	-3.011800	3.568400	-10.745000	25.477033	0.000892	20.775540
1044.327084	-3.001400	3.569900	-10.714000	25.483916	0.000890	20.770597
1045.331322	-2.998600	3.567700	-10.696000	25.474148	0.000892	20.747512
1046.319590	-2.991900	3.569000	-10.677000	25.443827	0.000892	20.742194
1047.318362	-2.990900	3.568800	-10.673000	25.434532	0.000891	20.776483
1048.327928	-2.991600	3.568100	-10.673000	25.450586	0.000890	20.762258
1049.329667	-2.994700	3.568500	-10.685000	25.503469	0.000890	20.771741
1050.316270	-3.013900	3.566900	-10.749000	25.459728	0.000889	20.750101
1051.320114	-2.980900	3.568100	-10.635000	25.465419	0.000889	20.779524
1052.323762	-3.007400	3.566300	-10.723000	25.463357	0.000887	20.761332
1053.316320	-3.004200	3.567600	-10.717000	25.445612	0.000885	20.763427
1054.324812	-3.004600	3.564800	-10.710000	25.458608	0.000887	20.760356
1055.322641	-2.994800	3.565400	-10.676000	25.449485	0.000885	20.773007
1056.321608	-2.986600	3.566400	-10.650000	25.442625	0.000886	20.762324
1057.316049	-3.007100	3.565000	-10.720000	25.476921	0.000887	20.776376
1058.324169	-2.991500	3.566000	-10.666000	25.505992	0.000887	20.785655
1059.326514	-3.016800	3.565100	-10.754000	25.533327	0.000883	20.788924
1060.332794	-3.018600	3.564000	-10.757000	25.544258	0.000883	20.770978
1061.322446	-3.002200	3.563500	-10.697000	25.533349	0.000884	20.786101
1062.322849	-3.009100	3.563400	-10.722000	25.505863	0.000882	20.786948
1063.326958	-3.023600	3.563500	-10.773000	25.481706	0.000882	20.785448
1064.327323	-3.007400	3.561700	-10.710000	25.456604	0.000882	20.773043
1065.319242	-2.990500	3.562800	-10.653000	25.413462	0.000881	20.796103
1066.321540	-3.021800	3.561400	-10.760000	25.396984	0.000881	20.787618
1067.326369	-3.019800	3.562600	-10.757000	25.403595	0.000880	20.788092
1068.321367	-3.015700	3.562000	-10.741000	25.371584	0.000878	20.803838
1069.328356	-3.026000	3.559900	-10.771000	25.370513	0.000880	20.784271
1070.319553	-2.985200	3.562200	-10.632000	25.370837	0.000878	20.775113
1071.315920	-2.988200	3.561800	-10.642000	25.384630	0.000880	20.781851
1072.320703	-3.012800	3.559500	-10.722000	25.429958	0.000876	20.800814
1073.320661	-2.985800	3.560300	-10.630000	25.489403	0.000877	20.801239
1074.318347	-3.016900	3.560700	-10.742000	25.512141	0.000876	20.795623
1075.319172	-2.991500	3.560800	-10.652000	25.546012	0.000876	20.795973
1076.342132	-3.008000	3.557500	-10.700000	25.573369	0.000876	20.783618
1077.329717	-3.010100	3.558000	-10.709000	25.611586	0.000875	20.777429
1078.319160	-2.996400	3.558500	-10.662000	25.594117	0.000876	20.803982
1079.339888	-3.003400	3.559100	-10.687000	25.532592	0.000873	20.791031
1080.322040	-2.990100	3.558600	-10.640000	25.527272	0.000873	20.787585
1081.329778	-2.984900	3.557800	-10.619000	25.495838	0.000874	20.796321
1082.320240	-2.993300	3.558200	-10.650000	25.456821	0.000873	20.799339
1083.323153	-3.012500	3.557100	-10.715000	25.481621	0.000871	20.792949
1084.322838	-2.995700	3.556700	-10.654000	25.508040	0.000873	20.793401
1085.322180	-3.000200	3.555500	-10.666000	25.515990	0.000873	20.795695
1086.329743	-2.985700	3.555500	-10.615000	25.524563	0.000871	20.787709
1087.328352	-3.007900	3.555500	-10.694000	25.585693	0.000869	20.787461
1088.325755	-2.990100	3.556900	-10.635000	25.586734	0.000869	20.791825
1089.349418	-3.005300	3.556600	-10.687000	25.611160	0.000870	20.805451
1090.322574	-3.014600	3.553100	-10.710000	25.623883	0.000869	20.803055
1091.333630	-3.025800	3.552800	-10.749000	25.626095	0.000866	20.816183
1092.336705	-2.989700	3.554300	-10.625000	25.658941	0.000866	20.801757
1093.322686	-3.000100	3.555400	-10.665000	25.692931	0.000868	20.789903
1094.321469	-3.001900	3.553500	-10.667000	25.713974	0.000867	20.810565
1095.340561	-2.985900	3.555600	-10.616000	25.688559	0.000867	20.798788
1096.330850	-2.989300	3.554600	-10.624000	25.673873	0.000864	20.781666
1097.322492	-2.992100	3.553400	-10.631000	25.672679	0.000864	20.787105
1098.342840	-3.005300	3.550400	-10.669000	25.639808	0.000862	20.801032
1099.325695	-3.002000	3.551800	-10.661000	25.646392	0.000866	20.809542
1100.329721	-2.995800	3.550700	-10.636000	25.648876	0.000865	20.794019
1101.331617	-3.023900	3.551900	-10.740000	25.692355	0.000864	20.796911
1102.325436	-3.011000	3.549900	-10.688000	25.702197	0.000862	20.810589
1103.329530	-3.000900	3.550000	-10.652000	25.694768	0.000862	20.785109
1104.335185	-2.991900	3.550100	-10.621000	25.716656	0.000861	20.814206
1105.325451	-3.013700	3.549200	-10.695000	25.725600	0.000860	20.806121
1106.335424	-2.997000	3.549100	-10.636000	25.760162	0.000860	20.809068
1107.331264	-3.015300	3.548300	-10.698000	25.777800	0.000859	20.799758
1108.329861	-3.011000	3.547700	-10.682000	25.790518	0.000859	20.803998
1109.331721	-3.001700	3.547500	-10.648000	25.772259	0.000858	20.811736
1110.327057	-3.030400	3.546000	-10.744000	25.794516	0.000859	20.813230
1111.333833	-3.034700	3.546300	-10.761000	25.763140	0.000858	20.803050
1112.333248	-2.976400	3.547200	-10.556000	25.748108	0.000859	20.790322
1113.328291	-2.989000	3.546100	-10.598000	25.737673	0.000858	20.802601
1114.325157	-2.989100	3.546500	-10.599000	25.740283	0.000856	20.811860
1115.333426	-2.988300	3.546300	-10.596000	25.715832	0.000856	20.825707
1116.341351	-2.986000	3.545400	-10.586000	25.744455	0.000855	20.817473
1117.332826	-3.006000	3.545500	-10.657000	25.730195	0.000853	20.832546
1118.333449	-2.993600	3.545300	-10.613000	25.696003	0.000854	20.821437
1119.336625	-3.001800	3.545800	-10.642000	25.703334	0.000854	20.806041
1120.330661	-2.990700	3.545200	-10.601000	25.697098	0.000854	20.814002
1121.330673	-3.015700	3.544900	-10.690000	25.674809	0.000854	20.819590
1122.339712	-3.023700	3.543600	-10.713000	25.670261	0.000851	20.829247
1123.341466	-2.993200	3.544900	-10.610000	25.681739	0.000851	20.826551
1124.335978	-2.987500	3.543400	-10.585000	25.674559	0.000851	20.825503
1125.334806	-2.995400	3.544100	-10.615000	25.666086	0.000850	20.827425
1126.332272	-3.016700	3.541900	-10.683000	25.663029	0.000851	20.828621
1127.354566	-2.993300	3.542000	-10.601000	25.666855	0.000848	20.821084
1128.337862	-2.973000	3.543900	-10.535000	25.678904	0.000848	20.813746
1129.340783	-3.004900	3.540800	-10.637000	25.716769	0.000850	20.828070
1130.340765	-3.001600	3.541700	-10.630000	25.736219	0.000847	20.832908
1131.345568	-3.027300	3.539400	-10.713000	25.753213	0.000848	20.817735
1132.360791	-3.032700	3.538800	-10.731000	25.774329	0.000845	20.835626
1133.351079	-2.992600	3.540400	-10.594000	25.755798	0.000846	20.841668
1134.336230	-3.002500	3.541200	-10.632000	25.768714	0.000846	20.821925
1135.343158	-3.031900	3.538900	-10.728000	25.770199	0.000845	20.807296
1136.334550	-3.002800	3.539200	-10.627000	25.740465	0.000844	20.822474
1137.347157	-3.010700	3.537600	-10.650000	25.759218	0.000842	20.830879
1138.345331	-3.008800	3.537500	-10.643000	25.767863	0.000843	20.807321
1139.344148	-3.000900	3.538700	-10.617000	25.733327	0.000842	20.848968
1140.344002	-2.980700	3.538100	-10.545000	25.722022	0.000842	20.818648
1141.340966	-2.992900	3.536700	-10.584000	25.715734	0.000843	20.831773
1142.333397	-2.988800	3.537700	-10.572000	25.686170	0.000841	20.816776
1143.333331	-2.990500	3.537200	-10.577000	25.662291	0.000839	20.843527
1144.357255	-3.009200	3.535400	-10.638000	25.625764	0.000841	20.861841
1145.349257	-3.028200	3.535700	-10.704000	25.586628	0.000840	20.837710
1146.343740	-2.993100	3.535100	-10.580000	25.599424	0.000840	20.837760
1147.350715	-3.012200	3.535800	-10.649000	25.612839	0.000838	20.835111
1148.340880	-2.992900	3.535000	-10.579000	25.600564	0.000839	20.844594
1149.351244	-3.006400	3.533800	-10.623000	25.584289	0.000837	20.826827
1150.339272	-2.994000	3.534000	-10.579000	25.618899	0.000838	20.823655
1151.345338	-3.016400	3.534700	-10.660000	25.657859	0.000837	20.857566
1152.349114	-2.999400	3.533400	-10.597000	25.656467	0.000836	20.847634
1153.348686	-2.986300	3.533700	-10.551000	25.662283	0.000836	20.846838
1154.338890	-2.994700	3.533500	-10.580000	25.726656	0.000837	20.848905
1155.338482	-2.994200	3.534700	-10.582000	25.747648	0.000835	20.833956
1156.348137	-2.987800	3.533500	-10.556000	25.765463	0.000833	20.839048
1157.340139	-3.007000	3.533200	-10.623000	25.776268	0.000833	20.838521
1158.343299	-3.011700	3.531100	-10.633000	25.797136	0.000833	20.850948
1159.340459	-2.987000	3.532500	-10.549000	25.815122	0.000832	20.854791
1160.345056	-3.018800	3.531200	-10.658000	25.834300	0.000831	20.854614
1161.342810	-2.987700	3.531100	-10.549000	25.862025	0.000831	20.840741
1162.342344	-2.997000	3.530700	-10.581000	25.860977	0.000832	20.852964
1163.340141	-2.999000	3.530600	-10.588000	25.846695	0.000830	20.842411
1164.344829	-3.006100	3.528600	-10.606000	25.845699	0.000832	20.871281
1165.344537	-3.015300	3.530600	-10.645000	25.821525	0.000831	20.861222
1166.352436	-2.999200	3.529100	-10.583000	25.795737	0.000829	20.876094
1167.339341	-3.004900	3.529900	-10.606000	25.805696	0.000831	20.842952
1168.341345	-3.005800	3.527400	-10.601000	25.824207	0.000830	20.836890
1169.353434	-2.968500	3.528800	-10.474000	25.819681	0.000828	20.843724
1170.339282	-2.992600	3.528300	-10.558000	25.809818	0.000826	20.847092
1171.348378	-2.994500	3.527200	-10.561000	25.774787	0.000826	20.863585
1172.356731	-3.004500	3.525900	-10.593000	25.755282	0.000825	20.862011
1173.354619	-2.980400	3.527300	-10.511000	25.759604	0.000825	20.868249
1174.340842	-3.016400	3.525300	-10.632000	25.749093	0.000825	20.860062
1175.343143	-2.985300	3.525200	-10.523000	25.777740	0.000823	20.862284
1176.343256	-3.006300	3.526500	-10.601000	25.798282	0.000823	20.850202
1177.348920	-2.988700	3.527000	-10.541000	25.779425	0.000821	20.861132
1178.343729	-2.976500	3.525500	-10.493000	25.779425	0.000823	20.857813
1179.356679	-3.011900	3.522800	-10.609000	25.773163	0.000822	20.862902
1180.345744	-3.008000	3.524900	-10.602000	25.747771	0.000822	20.858734
1181.344132	-3.012600	3.522000	-10.609000	25.765086	0.000820	20.872332
1182.352695	-3.007600	3.523700	-10.597000	25.783616	0.000820	20.867713
1183.349118	-3.002800	3.523300	-10.579000	25.776388	0.000819	20.871831
1184.344577	-2.993100	3.523600	-10.545000	25.772932	0.000819	20.865516
1185.346553	-2.984200	3.522400	-10.511000	25.752884	0.000818	20.884257
1186.355487	-3.005400	3.521000	-10.581000	25.731790	0.000819	20.884880
1187.348773	-2.979800	3.521700	-10.493000	25.750472	0.000816	20.873774
1188.360393	-3.019000	3.519500	-10.624000	25.766994	0.000816	20.886102
1189.360253	-2.998700	3.522200	-10.561000	25.782467	0.000817	20.853283
1190.353292	-2.972300	3.522100	-10.467000	25.817002	0.000815	20.881807
1191.357718	-3.015000	3.518800	-10.607000	25.817372	0.000815	20.880283
1192.350858	-2.994200	3.520600	-10.540000	25.793472	0.000818	20.882827
1193.355234	-3.023400	3.518000	-10.635000	25.791534	0.000814	20.887519
1194.345343	-3.006200	3.518000	-10.574000	25.775757	0.000816	20.881154
1195.351210	-3.012300	3.519000	-10.599000	25.766190	0.000814	20.876760
1196.345570	-3.002500	3.518100	-10.562000	25.786859	0.000812	20.866702
1197.350319	-2.998500	3.517400	-10.545000	25.762238	0.000813	20.898868
1198.356402	-3.002900	3.517500	-10.562000	25.788324	0.000811	20.883346
1199.352289	-2.981300	3.517600	-10.485000	25.796919	0.000813	20.855946
1200.361897	-3.019400	3.516700	-10.617000	25.788198	0.000812	20.876108
1201.350314	-3.014800	3.515900	-10.599000	25.800693	0.000811	20.887236
1202.361090	-2.991600	3.516200	-10.517000	25.821413	0.000809	20.879600
1203.362202	-2.968900	3.517400	-10.442000	25.854454	0.000810	20.876281
1204.349118	-3.001700	3.516200	-10.553000	25.881506	0.000809	20.874060
1205.366101	-3.009200	3.515300	-10.577000	25.908058	0.000809	20.902628
1206.361479	-3.032000	3.514900	-10.655000	25.935803	0.000809	20.894466
1207.368631	-3.013200	3.515300	-10.591000	25.897924	0.000807	20.895767
1208.394402	-2.994800	3.514000	-10.523000	25.874772	0.000807	20.914233
1209.365352	-2.987200	3.514400	-10.497000	25.869975	0.000805	20.902303
1210.366589	-2.993300	3.513800	-10.518000	25.916055	0.000808	20.885533
1211.360490	-2.984200	3.513800	-10.485000	25.908155	0.000806	20.897036
1212.351882	-3.014500	3.513200	-10.589000	25.956095	0.000806	20.901101
1213.364534	-3.013200	3.512800	-10.583000	25.965858	0.000805	20.912331
1214.354542	-3.000700	3.511500	-10.536000	25.992312	0.000802	20.909037
1215.370595	-2.996600	3.511300	-10.521000	26.007214	0.000804	20.908836
1216.350752	-3.019100	3.510700	-10.598000	25.960714	0.000805	20.882983
1217.358716	-2.989500	3.511000	-10.495000	25.911678	0.000802	20.919065
1218.387881	-3.013600	3.509600	-10.575000	25.887731	0.000801	20.903070
1219.354545	-2.986400	3.511700	-10.486000	25.908248	0.000801	20.908508
1220.361736	-2.997700	3.510000	-10.521000	25.901940	0.000800	20.899327
1221.368163	-3.010300	3.509100	-10.562000	25.907403	0.000798	20.913823
1222.373567	-2.984400	3.509100	-10.471000	25.892621	0.000800	20.907508
1223.357688	-3.005000	3.509700	-10.545000	25.869743	0.000800	20.918189
1224.354869	-2.995900	3.507300	-10.506000	25.903477	0.000799	20.898026
1225.362881	-2.999400	3.508800	-10.523000	25.886656	0.000799	20.909576
1226.362796	-2.979900	3.509500	-10.457000	25.899624	0.000799	20.889889
1227.356018	-2.986300	3.507500	-10.474000	25.914851	0.000796	20.902814
1228.376126	-2.995700	3.506700	-10.504000	25.881686	0.000796	20.913592
1229.366354	-3.034200	3.505200	-10.634000	25.905958	0.000796	20.915215
1230.360538	-2.969100	3.507000	-10.412000	25.923940	0.000796	20.906255
1231.361897	-3.000800	3.506200	-10.520000	25.940906	0.000798	20.901014
1232.365170	-3.020300	3.504700	-10.584000	25.917705	0.000795	20.888613
1233.363352	-3.009000	3.504500	-10.544000	25.890328	0.000794	20.884818
1234.355733	-2.987300	3.505400	-10.469000	25.895319	0.000794	20.901685
1235.370976	-3.021400	3.503700	-10.585000	25.894971	0.000793	20.904653
1236.365926	-3.002300	3.504100	-10.519000	25.910771	0.000793	20.911043
1237.372827	-2.995200	3.502700	-10.490000	25.937918	0.000791	20.901332
1238.363105	-3.005800	3.503900	-10.530000	25.974237	0.000794	20.897043
1239.380218	-3.013500	3.503000	-10.555000	25.972023	0.000791	20.893396
1240.370642	-2.987900	3.503800	-10.468000	25.955505	0.000792	20.895767
1241.364920	-2.986200	3.501000	-10.454000	25.968099	0.000789	20.900359
1242.358648	-2.994400	3.502400	-10.486000	25.997882	0.000789	20.880022
1243.357398	-2.982800	3.502700	-10.447000	26.018345	0.000788	20.881141
1244.355889	-3.021800	3.500100	-10.576000	26.041769	0.000789	20.880968
1245.366341	-2.997900	3.501100	-10.495000	26.047454	0.000789	20.888102
1246.366388	-3.031500	3.498300	-10.604000	26.033991	0.000789	20.890222
1247.364133	-3.032500	3.499000	-10.609000	26.040252	0.000786	20.891771
1248.363904	-3.011100	3.499500	-10.536000	26.001353	0.000788	20.881613
1249.358751	-3.003900	3.498700	-10.509000	25.957336	0.000787	20.888124
1250.363645	-3.005700	3.499900	-10.518000	25.962228	0.000783	20.884031
1251.375357	-2.967000	3.498300	-10.379000	25.973627	0.000785	20.884103
1252.360440	-2.991100	3.497800	-10.462000	25.964909	0.000783	20.902370
1253.363046	-3.005200	3.497700	-10.510000	25.975218	0.000785	20.862469
1254.363815	-3.015200	3.496300	-10.541000	25.981675	0.000784	20.875119
1255.362730	-2.977900	3.496600	-10.411000	25.992554	0.000783	20.886523
1256.378573	-3.027000	3.495600	-10.580000	26.020572	0.000783	20.866784
1257.382017	-2.995300	3.495300	-10.469000	26.013987	0.000780	20.873444
1258.367431	-3.024300	3.494600	-10.568000	26.005069	0.000781	20.861166
1259.373582	-3.024900	3.496100	-10.575000	26.029583	0.000781	20.864932
1260.362573	-3.014300	3.494000	-10.530000	26.028216	0.000781	20.872093
1261.363473	-2.991900	3.494800	-10.453000	26.021459	0.000780	20.857718
1262.367219	-3.025500	3.493200	-10.568000	26.047336	0.000780	20.882293
1263.378518	-3.019500	3.493300	-10.546000	26.029281	0.000779	20.867474
1264.380797	-2.993800	3.494000	-10.458000	26.031490	0.000778	20.874908
1265.361583	-2.981100	3.493200	-10.411000	26.038320	0.000778	20.864227
1266.363629	-2.981800	3.493100	-10.414000	26.021106	0.000779	20.858312
1267.376106	-3.034600	3.492700	-10.597000	26.044677	0.000778	20.858761
1268.371566	-3.005500	3.491800	-10.493000	26.040427	0.000777	20.870612
1269.374570	-2.988100	3.492000	-10.434000	26.065214	0.000775	20.873705
1270.374218	-3.004400	3.489700	-10.483000	26.090722	0.000776	20.879893
1271.381515	-2.992700	3.490300	-10.445000	26.090870	0.000778	20.857284
1272.365945	-3.004200	3.489800	-10.483000	26.079893	0.000775	20.858582
1273.375722	-3.009400	3.488500	-10.497000	26.101225	0.000774	20.871481
1274.363605	-2.983000	3.490100	-10.411000	26.115878	0.000772	20.862971
1275.368266	-3.001500	3.488900	-10.471000	26.127824	0.000774	20.865017
1276.372170	-2.969600	3.489300	-10.360000	26.137336	0.000772	20.847074
1277.366801	-3.013700	3.488200	-10.511000	26.155512	0.000775	20.844949
1278.371095	-3.014500	3.488100	-10.513000	26.168477	0.000771	20.847072
1279.376767	-3.032900	3.488000	-10.578000	26.141531	0.000773	20.844177
1280.382203	-2.998400	3.486900	-10.454000	26.172002	0.000771	20.837813
1281.378224	-3.006300	3.487600	-10.483000	26.164727	0.000770	20.862269
1282.375617	-3.010100	3.486400	-10.493000	26.144955	0.000770	20.857101
1283.370662	-3.004700	3.485900	-10.472000	26.107029	0.000770	20.839382
1284.375342	-3.030800	3.485100	-10.562000	26.065427	0.000768	20.868229
1285.378533	-3.000600	3.484400	-10.453000	26.028291	0.000769	20.838031
1286.368098	-3.000200	3.485400	-10.456000	25.999506	0.000769	20.857947
1287.373318	-2.988900	3.485900	-10.418000	26.001292	0.000767	20.838880
1288.370780	-3.016400	3.483400	-10.506000	25.999254	0.000767	20.850108
1289.378044	-3.006400	3.484000	-10.474000	25.974490	0.000766	20.864583
1290.381056	-2.996600	3.484900	-10.442000	25.985916	0.000766	20.832441
1291.383854	-3.017500	3.483500	-10.510000	25.976400	0.000765	20.856071
1292.376893	-3.005000	3.483000	-10.465000	26.014576	0.000762	20.832312
1293.391466	-3.001200	3.481800	-10.449000	26.019174	0.000764	20.851156
1294.372571	-3.011900	3.482000	-10.486000	26.068649	0.000764	20.851079
1295.375865	-3.022000	3.480600	-10.517000	26.077042	0.000763	20.841020
1296.394295	-2.978800	3.483400	-10.375000	26.098006	0.000764	20.829842
1297.380458	-3.021700	3.480300	-10.516000	26.087103	0.000763	20.859663
1298.384498	-3.013300	3.479200	-10.483000	26.094577	0.000763	20.837776
1299.376704	-2.982000	3.481100	-10.380000	26.083375	0.000761	20.847383
1300.384565	-3.010800	3.480300	-10.477000	26.072296	0.000760	20.854743
1301.385056	-2.992700	3.480800	-10.415000	26.084988	0.000759	20.823874
1302.383253	-2.996600	3.479200	-10.425000	26.069887	0.000759	20.849478
1303.397645	-2.990600	3.478800	-10.402000	26.087820	0.000759	20.837150
1304.392520	-3.003900	3.479000	-10.450000	26.094100	0.000760	20.844409
1305.376406	-2.998400	3.477800	-10.427000	26.115012	0.000758	20.841713
1306.385611	-3.003500	3.477600	-10.444000	26.100806	0.000757	20.832181
1307.381326	-3.008600	3.477700	-10.462000	26.060745	0.000759	20.831284
1308.377818	-2.990300	3.476800	-10.395000	26.054040	0.000758	20.842564
1309.375301	-2.977200	3.476500	-10.349000	26.054035	0.000757	20.849198
1310.382185	-3.008700	3.474900	-10.453000	26.075619	0.000756	20.832004
1311.380546	-3.011000	3.474700	-10.461000	26.077705	0.000756	20.828410
1312.386340	-3.005100	3.474200	-10.440000	26.107832	0.000753	20.849672
1313.385882	-2.959900	3.475500	-10.286000	26.116324	0.000755	20.846350
1314.385744	-2.995100	3.474900	-10.406000	26.131276	0.000754	20.820124
1315.377390	-3.029800	3.472600	-10.520000	26.099536	0.000752	20.814784
1316.384331	-3.015700	3.472000	-10.470000	26.090743	0.000752	20.835820
1317.375921	-2.992700	3.473200	-10.394000	26.047374	0.000753	20.831600
1318.384866	-3.012400	3.472300	-10.459000	26.031180	0.000751	20.829555
1319.378618	-2.987100	3.472500	-10.371000	26.003386	0.000752	20.830553
1320.384034	-2.999500	3.472000	-10.413000	25.978620	0.000751	20.816102
1321.399037	-3.001500	3.472900	-10.422000	25.979141	0.000750	20.820419
1322.390602	-2.997200	3.469900	-10.399000	25.962000	0.000750	20.823587
1323.377636	-3.000700	3.471100	-10.415000	25.950821	0.000749	20.826107
1324.389052	-3.020500	3.469700	-10.479000	25.983982	0.000748	20.833817
1325.387666	-2.999900	3.469400	-10.407000	26.013813	0.000747	20.823485
1326.383046	-2.993500	3.469400	-10.385000	26.010186	0.000747	20.807988
1327.385876	-2.995900	3.469600	-10.393000	25.983159	0.000747	20.825404
1328.386018	-3.013600	3.469200	-10.453000	26.002136	0.000747	20.840202
1329.384451	-2.992700	3.467600	-10.377000	25.984424	0.000745	20.817193
1330.379110	-3.016000	3.467500	-10.457000	26.013710	0.000746	20.828123
1331.385705	-3.006200	3.467700	-10.422000	26.038596	0.000746	20.833212
1332.390865	-3.006000	3.467700	-10.422000	26.066367	0.000745	20.815596
1333.389341	-2.976000	3.467800	-10.319000	26.060502	0.000743	20.816815
1334.394754	-2.994500	3.467600	-10.382000	26.056181	0.000744	20.807258
1335.390766	-3.022400	3.466100	-10.474000	26.057695	0.000742	20.812573
1336.387846	-2.996900	3.465000	-10.383000	26.063927	0.000742	20.818360
1337.389851	-3.013300	3.464900	-10.440000	26.030596	0.000742	20.817113
1338.388310	-2.993200	3.465200	-10.370000	26.030769	0.000742	20.827244
1339.395425	-2.999000	3.466100	-10.393000	26.001906	0.000740	20.819584
1340.394738	-2.997800	3.463900	-10.383000	25.967104	0.000740	20.806903
1341.401005	-2.988700	3.464700	-10.352000	25.975399	0.000738	20.825194
1342.391543	-2.982800	3.463800	-10.331000	25.966061	0.000739	20.801114
1343.391428	-2.991500	3.464000	-10.361000	25.988589	0.000740	20.843186
1344.391967	-3.004600	3.462500	-10.402000	25.988838	0.000736	20.817834
1345.387470	-3.009400	3.462500	-10.418000	26.032204	0.000739	20.827264
1346.395283	-3.007500	3.460800	-10.408000	26.068715	0.000737	20.808947
1347.395358	-2.992600	3.461500	-10.358000	26.065760	0.000737	20.825892
1348.386539	-2.989800	3.461400	-10.348000	26.113494	0.000736	20.816481
1349.389232	-3.012300	3.460200	-10.422000	26.138257	0.000735	20.807698
1350.391181	-3.003600	3.460200	-10.391000	26.172953	0.000735	20.800362
1351.388705	-3.012800	3.458400	-10.418000	26.168405	0.000735	20.819974
1352.385682	-3.022900	3.458600	-10.452000	26.125217	0.000734	20.804553
1353.401476	-2.985900	3.458500	-10.327000	26.127550	0.000734	20.821121
1354.395477	-3.022600	3.457100	-10.448000	26.083018	0.000732	20.808619
1355.392327	-3.003500	3.457200	-10.383000	26.039800	0.000735	20.823516
1356.389468	-3.008900	3.457500	-10.402000	26.049760	0.000733	20.816928
1357.391593	-2.993000	3.457100	-10.346000	26.032941	0.000733	20.826108
1358.394876	-3.002100	3.455500	-10.373000	26.060661	0.000732	20.815079
1359.386115	-3.037500	3.454100	-10.491000	26.087708	0.000730	20.821392
1360.390701	-2.996600	3.455900	-10.355000	26.119698	0.000730	20.801852
1361.387120	-2.999400	3.456300	-10.365000	26.144036	0.000730	20.822988
1362.407018	-3.012800	3.454300	-10.405000	26.188962	0.000729	20.805070
1363.399984	-3.009100	3.455800	-10.397000	26.214391	0.000727	20.795535
1364.391290	-2.989600	3.455300	-10.327000	26.210416	0.000727	20.801972
1365.385166	-2.981500	3.454000	-10.297000	26.204057	0.000727	20.793211
1366.402038	-2.970800	3.454400	-10.261000	26.130942	0.000729	20.797978
1367.393692	-3.005500	3.452700	-10.376000	26.081169	0.000729	20.816718
1368.387388	-2.988400	3.453300	-10.318000	26.037478	0.000726	20.808856
1369.394625	-2.991300	3.452800	-10.328000	26.039937	0.000728	20.811800
1370.388269	-3.014700	3.451400	-10.404000	26.015916	0.000726	20.816589
1371.410483	-2.982300	3.452700	-10.296000	25.960622	0.000725	20.798495
1372.398766	-2.987700	3.450600	-10.308000	25.943979	0.000724	20.784620
1373.403511	-2.999400	3.450000	-10.347000	25.907015	0.000725	20.793952
1374.403661	-2.995900	3.451100	-10.336000	25.889551	0.000723	20.797745
1375.401754	-3.003000	3.449200	-10.357000	25.864335	0.000723	20.804656
1376.394033	-2.965100	3.451100	-10.232000	25.898789	0.000723	20.797068
1377.391144	-2.999800	3.448400	-10.342000	25.952618	0.000723	20.790928
1378.390296	-2.996200	3.448000	-10.330000	26.011785	0.000721	20.795370
1379.391449	-2.977400	3.449600	-10.270000	26.013522	0.000720	20.798063
1380.394877	-3.006000	3.448200	-10.364000	26.069432	0.000721	20.794968
1381.407766	-2.996700	3.446100	-10.325000	26.067146	0.000719	20.787930
1382.406381	-3.016000	3.446200	-10.392000	26.060265	0.000720	20.808043
1383.399544	-3.010300	3.446500	-10.374000	26.079589	0.000719	20.783836
1384.401532	-2.994500	3.447400	-10.321000	26.068409	0.000719	20.796785
1385.409231	-3.013600	3.446700	-10.387000	26.055121	0.000718	20.796237
1386.400198	-2.992600	3.445500	-10.310000	26.070643	0.000719	20.796659
1387.412694	-3.019400	3.443900	-10.398000	26.079609	0.000719	20.785279
1388.399694	-3.006400	3.445700	-10.358000	26.103130	0.000718	20.797059
1389.401216	-3.003600	3.444100	-10.343000	26.105863	0.000716	20.786528
1390.407908	-3.000300	3.443600	-10.330000	26.115199	0.000716	20.795909
1391.404317	-2.995400	3.443600	-10.314000	26.138396	0.000715	20.791242
1392.409461	-3.000000	3.442700	-10.327000	26.153945	0.000715	20.794539
1393.404919	-3.016000	3.441800	-10.378000	26.159927	0.000715	20.777316
1394.403859	-2.984300	3.442700	-10.273000	26.109137	0.000712	20.773222
1395.395452	-2.978900	3.443800	-10.258000	26.105982	0.000713	20.764836
1396.395935	-2.999100	3.440000	-10.315000	26.056955	0.000713	20.797131
1397.405697	-2.977200	3.443200	-10.248000	26.025781	0.000713	20.770077
1398.404336	-2.993000	3.441700	-10.299000	26.029235	0.000713	20.802471
1399.402544	-2.991300	3.441900	-10.295000	26.032141	0.000711	20.775518
1400.407491	-2.978000	3.440800	-10.246000	26.055638	0.000713	20.771626
1401.402026	-2.984200	3.440100	-10.265000	26.097488	0.000711	20.783328
1402.405550	-2.993400	3.439300	-10.295000	26.116215	0.000712	20.773222
1403.403063	-2.994400	3.439000	-10.296000	26.126695	0.000709	20.784227
1404.410670	-3.024100	3.437300	-10.394000	26.116635	0.000707	20.767006
1405.397679	-2.998500	3.439100	-10.310000	26.134322	0.000711	20.783356
1406.404001	-2.991800	3.437900	-10.283000	26.113532	0.000709	20.767681
1407.420866	-2.992000	3.436600	-10.281000	26.114649	0.000707	20.780183
1408.404703	-3.012600	3.437500	-10.355000	26.104317	0.000708	20.784974
1409.416976	-3.015600	3.436700	-10.362000	26.069371	0.000707	20.783053
1410.405854	-2.997300	3.436500	-10.299000	26.013462	0.000706	20.765760
1411.413465	-2.995800	3.435300	-10.290000	25.987478	0.000706	20.793234
1412.405840	-3.002600	3.435500	-10.314000	25.982637	0.000707	20.794534
1413.413506	-3.020100	3.433400	-10.368000	25.959237	0.000702	20.762964
1414.405358	-2.977900	3.436800	-10.233000	25.972077	0.000703	20.788192
1415.424844	-2.995300	3.434700	-10.287000	25.966166	0.000703	20.771822
1416.406609	-2.995300	3.434000	-10.284000	26.027096	0.000703	20.762863
1417.404741	-2.986700	3.433800	-10.254000	25.997562	0.000704	20.764484
1418.411113	-3.022000	3.431200	-10.368000	26.019669	0.000701	20.764409
1419.404143	-2.994000	3.432000	-10.274000	26.018923	0.000700	20.766505
1420.407509	-2.992400	3.433600	-10.274000	26.052802	0.000700	20.760241
1421.406597	-2.986700	3.432300	-10.251000	26.048827	0.000701	20.755773
1422.406812	-3.006400	3.431200	-10.315000	26.088991	0.000700	20.771946
1423.404614	-3.019200	3.430800	-10.357000	26.092564	0.000701	20.757992
1424.409168	-2.996900	3.430500	-10.279000	26.071504	0.000701	20.760065
1425.407924	-3.004900	3.430500	-10.307000	26.041052	0.000701	20.764556
1426.405413	-3.002000	3.429700	-10.295000	26.025033	0.000699	20.763161
1427.405777	-2.989400	3.430300	-10.254000	26.023044	0.000698	20.761162
1428.427462	-3.008700	3.429800	-10.316000	26.062463	0.000695	20.766629
1429.410281	-3.025500	3.427100	-10.368000	26.070387	0.000698	20.752305
1430.407834	-2.986500	3.429400	-10.240000	26.027465	0.000696	20.763707
1431.421070	-2.996900	3.429100	-10.276000	26.027887	0.000697	20.751329
1432.407909	-3.011400	3.427300	-10.320000	25.992415	0.000696	20.749356
1433.408668	-3.014900	3.428000	-10.333000	25.987698	0.000694	20.768799
1434.413796	-3.000500	3.427500	-10.283000	26.004540	0.000694	20.748735
1435.406257	-3.003300	3.425300	-10.286000	25.995049	0.000692	20.766227
1436.424019	-2.996400	3.426300	-10.265000	26.004686	0.000695	20.763107
1437.452687	-2.987700	3.426100	-10.234000	26.002250	0.000694	20.769194
1438.425732	-3.016800	3.424500	-10.331000	25.971126	0.000693	20.747407
1439.420121	-3.004200	3.424800	-10.286000	25.929445	0.000691	20.742516
1440.419603	-2.996500	3.425000	-10.262000	25.962085	0.000691	20.762980
1441.413913	-2.998200	3.425800	-10.271000	25.996337	0.000691	20.741442
1442.410475	-3.001200	3.424000	-10.275000	25.977531	0.000690	20.737720
1443.408404	-2.998700	3.424300	-10.268000	25.974601	0.000690	20.732405
1444.406118	-2.974100	3.422600	-10.178000	25.991317	0.000689	20.743036
1445.419409	-3.006500	3.422300	-10.288000	26.027058	0.000688	20.751444
1446.407670	-3.000700	3.420500	-10.263000	26.044495	0.000688	20.749523
1447.420965	-2.999000	3.422500	-10.262000	26.059546	0.000690	20.749947
1448.409532	-3.008400	3.421400	-10.292000	26.058153	0.000686	20.743332
1449.408791	-2.985900	3.422000	-10.217000	26.046654	0.000688	20.766392
1450.415421	-3.026900	3.420400	-10.352000	26.069553	0.000688	20.763795
1451.411064	-3.028100	3.418800	-10.351000	26.048414	0.000686	20.768634
1452.415978	-2.992400	3.419100	-10.230000	26.037659	0.000685	20.771104
1453.412360	-2.970100	3.421600	-10.162000	26.015053	0.000686	20.752185
1454.431985	-3.010400	3.418300	-10.289000	26.009017	0.000685	20.740430
1455.421295	-3.016300	3.417700	-10.308000	25.994236	0.000685	20.768255
1456.415303	-3.005900	3.418400	-10.275000	26.003749	0.000684	20.776390
1457.419673	-3.026700	3.417600	-10.343000	26.037479	0.000683	20.752431
1458.415641	-3.013900	3.417900	-10.301000	26.019123	0.000684	20.746791
1459.416121	-3.004800	3.416900	-10.266000	26.008466	0.000682	20.743196
1460.417653	-2.994900	3.417200	-10.233000	26.003347	0.000681	20.731889
1461.419520	-2.996800	3.417400	-10.241000	26.004936	0.000681	20.766203
1462.426761	-3.002300	3.416500	-10.257000	26.034122	0.000681	20.733410
1463.415184	-2.989600	3.417200	-10.215000	26.029994	0.000683	20.747756
1464.426275	-2.981200	3.415100	-10.180000	26.031980	0.000679	20.754968
1465.418950	-2.999200	3.414100	-10.238000	26.083666	0.000680	20.743362
1466.416303	-2.987300	3.415600	-10.202000	26.102540	0.000677	20.740514
1467.425140	-3.007800	3.412700	-10.264000	26.096131	0.000678	20.748300
1468.428352	-2.987600	3.413200	-10.196000	26.110983	0.000678	20.759430
1469.416920	-3.004400	3.412200	-10.251000	26.161076	0.000677	20.759030
1470.423522	-2.994100	3.414000	-10.221000	26.151066	0.000678	20.747074
1471.427099	-3.000200	3.411600	-10.235000	26.134326	0.000678	20.744952
1472.427043	-2.992600	3.412600	-10.212000	26.129133	0.000678	20.746372
1473.425877	-3.013500	3.410600	-10.276000	26.091552	0.000676	20.747018
1474.420704	-3.004900	3.410800	-10.248000	26.096593	0.000675	20.735012
1475.425326	-2.997800	3.410100	-10.222000	26.091449	0.000673	20.762088
1476.429203	-2.986100	3.410600	-10.183000	26.102177	0.000675	20.758642
1477.418385	-2.996800	3.409100	-10.216000	26.122071	0.000675	20.761088
1478.426953	-2.996100	3.410100	-10.216000	26.164935	0.000674	20.753424
1479.417278	-2.980300	3.409700	-10.160000	26.195777	0.000673	20.756441
1480.435088	-2.986200	3.408900	-10.178000	26.175189	0.000674	20.767995
1481.423192	-2.992100	3.409100	-10.200000	26.217655	0.000672	20.756615
1482.421650	-3.006600	3.407900	-10.245000	26.205956	0.000671	20.787533
1483.426294	-3.012200	3.406200	-10.259000	26.178238	0.000670	20.753515
1484.419658	-3.015600	3.406600	-10.272000	26.160305	0.000670	20.754462
1485.425187	-2.995100	3.407300	-10.204000	26.157398	0.000670	20.762446
1486.418080	-3.017600	3.404600	-10.272000	26.174906	0.000670	20.757754
1487.426732	-2.992700	3.406800	-10.194000	26.185660	0.000669	20.763819
1488.424260	-3.010600	3.405600	-10.252000	26.182775	0.000670	20.769929
1489.429679	-2.985300	3.405400	-10.165000	26.206840	0.000668	20.762342
1490.440324	-2.993300	3.405900	-10.194000	26.183721	0.000667	20.749542
1491.424868	-2.973900	3.405600	-10.127000	26.224370	0.000665	20.759095
1492.425101	-2.992000	3.404200	-10.184000	26.229037	0.000666	20.754776
1493.421768	-2.989200	3.404700	-10.175000	26.249973	0.000665	20.746417
1494.433430	-2.999800	3.404400	-10.211000	26.294100	0.000665	20.759468
1495.438238	-3.009500	3.403100	-10.241000	26.286798	0.000667	20.773467
1496.423997	-2.992600	3.402700	-10.182000	26.274331	0.000663	20.755248
1497.430642	-3.018200	3.401200	-10.264000	26.260176	0.000664	20.775163
1498.430920	-3.001300	3.402200	-10.210000	26.262558	0.000664	20.769022
1499.426677	-2.989900	3.401700	-10.169000	26.253171	0.000662	20.771442
1500.422747	-3.000000	3.401400	-10.203000	26.224710	0.000661	20.746160
1501.446233	-2.995200	3.402200	-10.190000	26.203203	0.000663	20.783818
1502.423951	-3.021700	3.398800	-10.268000	26.247779	0.000662	20.760334
1503.427321	-3.018600	3.400200	-10.262000	26.254455	0.000662	20.766094
1504.425261	-3.003800	3.398900	-10.209000	26.212337	0.000661	20.772608
1505.427435	-3.009500	3.399100	-10.229000	26.202851	0.000661	20.784413
1506.423889	-3.003300	3.400000	-10.211000	26.151465	0.000657	20.756010
1507.423907	-2.985100	3.397700	-10.141000	26.122209	0.000660	20.781615
1508.425958	-2.997900	3.398700	-10.188000	26.075538	0.000658	20.757481
1509.442219	-3.002100	3.397000	-10.197000	26.065504	0.000659	20.772530
1510.431549	-3.020200	3.397500	-10.259000	26.081347	0.000660	20.776120
1511.434351	-3.014700	3.396000	-10.237000	26.128463	0.000655	20.780787
1512.443413	-2.983100	3.397700	-10.135000	26.147363	0.000656	20.794088
1513.428000	-2.998800	3.396000	-10.184000	26.181461	0.000656	20.782833
1514.446457	-2.978500	3.395000	-10.111000	26.149671	0.000657	20.780760
1515.432466	-3.035100	3.394100	-10.299000	26.153421	0.000656	20.766036
1516.431253	-3.001300	3.394300	-10.186000	26.170406	0.000653	20.776466
1517.429606	-2.993000	3.396000	-10.163000	26.122969	0.000656	20.785699
1518.444689	-2.991900	3.394600	-10.155000	26.099970	0.000654	20.776340
1519.431048	-3.007900	3.392800	-10.204000	26.120509	0.000653	20.772795
1520.432737	-2.993300	3.394900	-10.161000	26.117206	0.000653	20.767579
1521.441446	-2.987000	3.393900	-10.137000	26.147651	0.000654	20.776361
1522.436109	-3.013200	3.392200	-10.221000	26.161909	0.000652	20.766979
1523.430262	-3.005100	3.390700	-10.187000	26.204376	0.000652	20.779781
1524.446229	-2.997000	3.392700	-10.167000	26.236534	0.000651	20.789811
1525.437922	-3.003400	3.391900	-10.186000	26.249222	0.000650	20.770319
1526.438662	-3.015900	3.389800	-10.221000	26.264592	0.000650	20.787662
1527.456766	-2.997800	3.390000	-10.162000	26.291709	0.000649	20.800214
1528.439598	-3.002500	3.391500	-10.182000	26.307128	0.000647	20.782993
1529.444808	-3.003500	3.391000	-10.184000	26.321457	0.000650	20.773686
1530.441367	-2.985100	3.390500	-10.120000	26.339806	0.000647	20.769841
1531.452697	-3.031800	3.389600	-10.275000	26.371613	0.000646	20.776678
1532.435205	-3.006600	3.388500	-10.187000	26.367340	0.000647	20.791350
1533.442127	-2.999700	3.388800	-10.165000	26.367392	0.000647	20.780022
1534.440837	-3.016000	3.386800	-10.212000	26.373844	0.000644	20.791248
1535.437285	-2.981400	3.388600	-10.101000	26.348889	0.000647	20.800781
1536.437622	-2.965200	3.389400	-10.049000	26.377742	0.000644	20.796588
1537.434891	-3.007600	3.385800	-10.182000	26.350229	0.000643	20.777945
1538.440804	-3.004300	3.387600	-10.177000	26.387277	0.000646	20.795739
1539.455225	-2.995200	3.387800	-10.147000	26.396685	0.000643	20.791919
1540.442513	-2.972500	3.387600	-10.069000	26.439615	0.000640	20.791919
1541.443245	-2.989900	3.385400	-10.121000	26.456075	0.000642	20.788074
1542.439114	-3.001900	3.386600	-10.163000	26.454336	0.000643	20.786327
1543.437822	-3.000500	3.383300	-10.150000	26.441723	0.000641	20.802572
1544.451622	-2.996800	3.384700	-10.143000	26.376296	0.000641	20.782807
1545.439489	-2.980900	3.385600	-10.091000	26.368126	0.000640	20.804467
1546.437276	-2.990300	3.383000	-10.114000	26.372646	0.000640	20.803794
1547.446789	-2.993600	3.382800	-10.126000	26.382155	0.000639	20.786325
1548.439301	-2.970300	3.384600	-10.051000	26.400105	0.000640	20.795357
1549.438861	-2.992000	3.383200	-10.121000	26.399784	0.000641	20.803094
1550.443692	-2.997200	3.383000	-10.138000	26.352802	0.000639	20.792860
1551.463130	-3.007100	3.381800	-10.168000	26.343962	0.000638	20.791562
1552.445149	-3.007400	3.381900	-10.169000	26.296261	0.000637	20.798624
1553.444960	-2.995300	3.382900	-10.132000	26.301599	0.000636	20.793558
1554.448499	-2.984100	3.381300	-10.089000	26.239912	0.000637	20.821655
1555.441141	-2.989100	3.381500	-10.107000	26.201445	0.000636	20.790587
1556.447981	-3.000300	3.380500	-10.141000	26.223795	0.000635	20.818261
1557.443589	-3.016500	3.380100	-10.194000	26.209242	0.000636	20.787042
1558.444818	-2.973100	3.380800	-10.050000	26.222353	0.000636	20.811122
1559.445453	-3.007400	3.379300	-10.161000	26.275474	0.000632	20.795278
1560.444692	-3.021300	3.378200	-10.206000	26.322056	0.000635	20.803685
1561.440767	-2.991700	3.378700	-10.107000	26.346515	0.000633	20.788437
1562.458665	-2.987000	3.377700	-10.088000	26.383338	0.000632	20.794626
1563.447121	-3.019300	3.377500	-10.197000	26.418023	0.000630	20.798192
1564.444746	-2.995900	3.378300	-10.120000	26.382319	0.000631	20.796921
1565.459407	-2.967800	3.378000	-10.024000	26.355699	0.000632	20.792927
1566.442790	-3.002100	3.377300	-10.138000	26.338044	0.000631	20.811218
1567.443394	-3.009100	3.376300	-10.159000	26.344200	0.000631	20.836844
1568.446733	-2.992800	3.375600	-10.102000	26.349288	0.000630	20.793596
1569.447351	-3.020000	3.374600	-10.191000	26.403147	0.000629	20.815483
1570.444508	-3.014100	3.374000	-10.168000	26.362173	0.000628	20.821244
1571.450359	-2.991200	3.374800	-10.094000	26.385665	0.000627	20.811663
1572.444489	-3.026200	3.373200	-10.206000	26.379110	0.000628	20.836842
1573.446969	-2.999500	3.373700	-10.118000	26.354501	0.000629	20.822068
1574.460725	-2.995200	3.373600	-10.102000	26.319685	0.000628	20.835441
1575.448637	-3.001900	3.372600	-10.123000	26.304761	0.000625	20.817124
1576.453231	-3.010300	3.372700	-10.152000	26.277692	0.000627	20.799404
1577.454194	-2.978300	3.372700	-10.044000	26.271559	0.000624	20.811258
1578.461719	-2.987800	3.371600	-10.072000	26.290728	0.000625	20.827677
1579.460797	-2.978900	3.372800	-10.045000	26.296913	0.000624	20.807815
1580.457718	-3.000800	3.372600	-10.119000	26.329589	0.000623	20.806515
1581.448352	-3.003400	3.371600	-10.125000	26.358445	0.000622	20.827453
1582.449485	-3.021900	3.369400	-10.181000	26.320475	0.000622	20.816321
1583.467690	-3.012800	3.369400	-10.149000	26.311908	0.000622	20.818143
1584.452320	-2.994100	3.371200	-10.093000	26.327129	0.000621	20.819689
1585.448667	-2.982800	3.369800	-10.050000	26.342697	0.000620	20.835808
1586.457640	-3.003300	3.368300	-10.116000	26.325117	0.000620	20.818141
1587.457399	-2.977700	3.369400	-10.032000	26.300309	0.000620	20.837779
1588.450678	-3.004900	3.368100	-10.120000	26.280866	0.000621	20.822507
1589.466594	-3.006000	3.369300	-10.127000	26.283571	0.000619	20.828071
1590.462234	-3.000700	3.368500	-10.107000	26.320026	0.000619	20.818714
1591.454749	-3.002900	3.368400	-10.114000	26.321215	0.000617	20.828918
1592.452967	-3.020700	3.367300	-10.171000	26.361193	0.000618	20.832587
1593.456582	-3.012200	3.367200	-10.141000	26.413859	0.000618	20.821033
1594.456923	-2.988700	3.366200	-10.060000	26.436923	0.000617	20.817189
1595.453444	-3.023000	3.365200	-10.171000	26.472899	0.000617	20.823477
1596.482156	-2.983500	3.365700	-10.041000	26.469919	0.000615	20.826645
1597.475033	-3.017500	3.363900	-10.149000	26.454971	0.000614	20.844337
1598.463087	-3.005200	3.365800	-10.113000	26.484344	0.000615	20.834506
1599.463597	-3.008700	3.364900	-10.122000	26.455047	0.000615	20.845362
1600.453936	-2.966600	3.366100	-9.984500	26.483523	0.000614	20.836051
1601.464801	-2.997100	3.363100	-10.079000	26.468973	0.000613	20.851772
1602.457923	-2.989600	3.364900	-10.059000	26.459514	0.000612	20.826144
1603.460777	-2.998900	3.363100	-10.085000	26.511130	0.000612	20.829662
1604.457979	-2.999300	3.363500	-10.088000	26.538191	0.000613	20.830784
1605.457499	-3.016700	3.362400	-10.142000	26.513513	0.000610	20.845807
1606.466492	-3.015800	3.361900	-10.138000	26.498095	0.000610	20.815137
1607.460167	-3.003300	3.362000	-10.096000	26.479722	0.000610	20.847404
1608.465182	-2.992000	3.362100	-10.059000	26.486053	0.000611	20.850447
1609.461293	-2.981600	3.360800	-10.019000	26.507999	0.000609	20.839791
1610.462528	-3.017100	3.361400	-10.141000	26.523688	0.000609	20.834698
1611.464747	-2.978600	3.360100	-10.007000	26.563436	0.000609	20.849522
1612.462947	-2.978100	3.360800	-10.008000	26.575278	0.000608	20.843882
1613.467603	-2.982400	3.359600	-10.017000	26.585754	0.000606	20.852516
1614.465194	-2.997600	3.360200	-10.072000	26.626590	0.000607	20.832876
1615.469371	-3.015300	3.359600	-10.129000	26.636693	0.000606	20.857730
1616.474388	-2.987400	3.359300	-10.035000	26.646274	0.000607	20.853612
1617.487355	-3.002600	3.358600	-10.084000	26.649973	0.000605	20.832675
1618.462797	-3.004200	3.357300	-10.085000	26.611892	0.000605	20.867411
1619.467531	-3.002500	3.357400	-10.079000	26.633688	0.000602	20.833373
1620.466380	-2.994200	3.357900	-10.053000	26.625123	0.000603	20.855108
1621.465802	-3.010900	3.356200	-10.104000	26.657594	0.000603	20.850293
1622.468662	-3.001500	3.355400	-10.070000	26.673826	0.000602	20.840059
1623.464591	-2.995100	3.357100	-10.054000	26.615915	0.000601	20.854860
1624.474817	-2.994800	3.355400	-10.049000	26.629441	0.000603	20.851388
1625.471853	-2.974600	3.355700	-9.980800	26.628497	0.000602	20.875094
1626.469466	-2.994300	3.355300	-10.046000	26.601487	0.000599	20.862641
1627.471654	-3.010600	3.354300	-10.097000	26.601215	0.000599	20.855730
1628.468613	-2.988300	3.354300	-10.023000	26.619682	0.000599	20.861018
1629.468182	-2.998800	3.353200	-10.055000	26.600766	0.000601	20.853382
1630.493373	-3.003200	3.353700	-10.070000	26.609007	0.000598	20.858821
1631.473361	-2.989600	3.353000	-10.024000	26.597166	0.000597	20.863039
1632.477460	-2.996600	3.352300	-10.045000	26.597637	0.000597	20.855453
1633.472789	-2.982100	3.353700	-10.000000	26.599302	0.000597	20.846221
1634.480478	-3.012100	3.351600	-10.094000	26.583312	0.000597	20.871397
1635.473189	-3.002400	3.351900	-10.062000	26.570228	0.000595	20.846393
1636.469864	-2.995900	3.352800	-10.045000	26.537508	0.000595	20.856175
1637.469719	-2.989600	3.352800	-10.022000	26.525518	0.000595	20.869252
1638.478947	-3.003400	3.350300	-10.061000	26.564570	0.000594	20.866782
1639.480233	-3.012200	3.349500	-10.089000	26.606970	0.000595	20.862938
1640.469052	-3.025700	3.349300	-10.133000	26.562210	0.000594	20.855401
1641.471767	-3.008800	3.348600	-10.074000	26.532268	0.000592	20.857546
1642.473204	-3.020900	3.348000	-10.113000	26.512308	0.000593	20.867354
1643.471063	-3.005000	3.349200	-10.063000	26.496391	0.000595	20.854675
1644.472938	-3.002200	3.350100	-10.057000	26.445221	0.000593	20.868201
1645.472949	-2.987100	3.348900	-10.002000	26.427344	0.000590	20.864458
1646.474869	-3.011600	3.346900	-10.079000	26.401620	0.000591	20.859466
1647.474448	-2.980500	3.347500	-9.976400	26.375996	0.000589	20.847463
1648.472595	-3.026200	3.346300	-10.126000	26.348235	0.000589	20.870770
1649.482557	-3.001800	3.346600	-10.045000	26.344459	0.000587	20.859389
1650.472596	-3.028000	3.346400	-10.132000	26.346099	0.000587	20.867675
1651.474246	-2.992200	3.346300	-10.012000	26.364548	0.000588	20.882897
1652.472513	-2.991700	3.344700	-10.004000	26.382103	0.000588	20.883470
1653.473113	-3.013900	3.344300	-10.078000	26.360873	0.000585	20.882522
1654.476185	-2.994500	3.346400	-10.019000	26.319378	0.000587	20.857417
1655.482896	-3.009000	3.344500	-10.063000	26.365787	0.000588	20.880823
1656.472710	-3.004400	3.344700	-10.047000	26.381528	0.000584	20.881945
1657.474366	-2.989500	3.343700	-9.994500	26.420164	0.000585	20.890429
1658.481047	-3.005100	3.342200	-10.042000	26.457879	0.000584	20.882819
1659.480336	-2.996000	3.343900	-10.016000	26.492239	0.000584	20.890802
1660.491597	-3.021500	3.341900	-10.095000	26.498743	0.000582	20.893071
1661.477949	-2.991400	3.341800	-9.995400	26.530224	0.000584	20.876353
1662.486666	-3.005700	3.342100	-10.043000	26.539285	0.000582	20.882142
1663.484173	-2.993300	3.343600	-10.008000	26.519323	0.000583	20.889103
1664.476809	-2.995200	3.341800	-10.008000	26.494967	0.000580	20.883587
1665.495300	-3.010700	3.340800	-10.058000	26.508398	0.000581	20.879544
1666.481112	-2.988700	3.339600	-9.980000	26.525228	0.000581	20.872279
1667.483299	-2.988600	3.340800	-9.983000	26.511127	0.000581	20.890822
1668.494607	-2.983200	3.341900	-9.968800	26.506083	0.000578	20.902820
1669.478878	-2.979500	3.340500	-9.952400	26.514799	0.000579	20.883133
1670.481868	-2.986400	3.340400	-9.975100	26.495160	0.000577	20.907012
1671.483942	-2.996900	3.338700	-10.005000	26.477730	0.000578	20.888073
1672.480837	-2.998600	3.338500	-10.010000	26.537241	0.000575	20.899526
1673.479805	-2.994400	3.338400	-9.995700	26.531257	0.000576	20.899675
1674.480758	-3.020000	3.335700	-10.073000	26.527383	0.000577	20.900996
1675.480406	-2.985600	3.339000	-9.966800	26.529989	0.000574	20.887022
1676.482553	-2.991000	3.337700	-9.979900	26.517625	0.000575	20.885500
1677.479081	-3.019500	3.336300	-10.073000	26.537658	0.000574	20.904212
1678.480542	-3.002400	3.337300	-10.019000	26.583464	0.000574	20.908057
1679.481989	-2.999700	3.335900	-10.006000	26.577305	0.000574	20.899022
1680.480176	-2.981100	3.336600	-9.945400	26.616230	0.000572	20.896900
1681.483401	-2.992600	3.334000	-9.976600	26.646938	0.000571	20.903587
1682.484913	-3.007100	3.335400	-10.028000	26.670446	0.000571	20.902090
1683.481942	-2.991400	3.334400	-9.973800	26.685240	0.000572	20.911272
1684.482557	-2.991600	3.335400	-9.976600	26.710980	0.000571	20.904908
1685.481271	-3.007300	3.333600	-10.023000	26.716937	0.000569	20.923697
1686.483066	-2.981200	3.335000	-9.941500	26.736075	0.000569	20.886517
1687.481155	-2.993600	3.332900	-9.976400	26.717359	0.000569	20.914165
1688.492854	-3.011600	3.334600	-10.041000	26.695936	0.000570	20.908749
1689.482430	-2.993700	3.332400	-9.975500	26.660488	0.000570	20.894925
1690.482311	-3.016300	3.331500	-10.047000	26.644401	0.000566	20.914312
1691.482512	-2.990600	3.331100	-9.961000	26.633627	0.000567	20.924343
1692.483532	-3.021500	3.329500	-10.059000	26.633306	0.000567	20.894625
1693.483268	-3.021800	3.329600	-10.060000	26.629654	0.000565	20.928409
1694.483075	-2.996200	3.330400	-9.977800	26.644996	0.000564	20.905429
1695.481612	-3.013700	3.330500	-10.036000	26.669768	0.000565	20.927958
1696.485060	-2.993300	3.330400	-9.967900	26.657803	0.000565	20.930155
1697.485320	-2.985600	3.329600	-9.939300	26.665572	0.000563	20.931801
1698.486058	-2.996000	3.329500	-9.974000	26.665126	0.000562	20.928507
1699.486129	-2.991000	3.329100	-9.956000	26.642336	0.000563	20.911762
1700.483433	-2.983000	3.328700	-9.927200	26.625181	0.000563	20.917276
1701.485044	-2.972600	3.329200	-9.893900	26.643105	0.000562	20.918698
1702.489614	-3.004100	3.326600	-9.992200	26.672619	0.000560	20.920394
1703.489451	-2.994200	3.327400	-9.961900	26.682995	0.000561	20.933195
1704.490838	-3.014700	3.325800	-10.026000	26.669740	0.000559	20.936464
1705.485324	-2.996600	3.326800	-9.968200	26.661722	0.000560	20.935041
1706.486448	-3.011900	3.326200	-10.017000	26.639450	0.000559	20.914550
1707.487281	-3.002700	3.328000	-9.990400	26.667454	0.000559	20.923262
1708.488247	-2.987500	3.325000	-9.932600	26.668371	0.000556	20.915175
1709.486447	-3.005700	3.324200	-9.989600	26.726726	0.000557	20.921685
1710.490975	-3.003900	3.323400	-9.982500	26.752941	0.000558	20.932392
1711.488163	-3.008400	3.324700	-9.999900	26.776544	0.000556	20.948535
1712.493858	-3.034800	3.323800	-10.085000	26.801687	0.000558	20.911704
1713.492107	-3.019500	3.323000	-10.032000	26.791983	0.000553	20.931343
1714.489644	-3.027100	3.323300	-10.059000	26.777558	0.000555	20.941020
1715.488456	-3.014100	3.324000	-10.017000	26.752886	0.000555	20.928545
1716.489133	-2.997200	3.324200	-9.962200	26.774481	0.000554	20.941720
1717.491477	-3.011500	3.320200	-9.998200	26.762143	0.000551	20.914620
1718.491990	-2.997200	3.321800	-9.955400	26.760979	0.000551	20.932414
1719.495923	-2.996700	3.322200	-9.954300	26.767628	0.000551	20.939097
1720.492920	-2.979000	3.321800	-9.895000	26.758667	0.000552	20.912074
1721.492628	-3.005900	3.320400	-9.980400	26.772764	0.000552	20.932409
1722.491719	-3.000600	3.320000	-9.960000	26.811461	0.000551	20.909678
1723.492600	-3.030800	3.319000	-10.058000	26.809919	0.000550	20.943686
1724.496518	-3.008300	3.318300	-9.981700	26.809820	0.000551	20.925096
1725.495032	-3.018800	3.318600	-10.017000	26.817663	0.000550	20.933929
1726.497134	-2.989600	3.321400	-9.927600	26.829005	0.000548	20.915464
1727.493912	-2.999400	3.318400	-9.951600	26.833249	0.000546	20.914989
1728.494528	-2.990600	3.319000	-9.924300	26.866952	0.000549	20.921849
1729.495082	-3.003200	3.317100	-9.961200	26.853326	0.000547	20.915735
1730.493264	-2.990000	3.317100	-9.917100	26.833693	0.000545	20.914487
1731.498926	-2.974300	3.318300	-9.867200	26.850472	0.000544	20.917607
1732.494690	-2.974100	3.316600	-9.862300	26.829125	0.000545	20.919851
1733.496017	-2.987200	3.316300	-9.905800	26.822845	0.000545	20.915908
1734.498006	-2.991100	3.317600	-9.922600	26.843469	0.000543	20.900610
1735.497170	-3.014100	3.315000	-9.989200	26.882036	0.000544	20.918525
1736.496553	-2.989700	3.315400	-9.910500	26.875906	0.000543	20.907621
1737.498405	-3.004300	3.314000	-9.955500	26.878610	0.000541	20.907495
1738.496850	-2.965900	3.315200	-9.832000	26.896232	0.000542	20.901981
1739.496172	-2.997600	3.314200	-9.933000	26.909485	0.000541	20.902505
1740.500431	-2.979300	3.316300	-9.879300	26.919559	0.000541	20.920693
1741.498348	-2.995500	3.314200	-9.927200	26.898115	0.000540	20.895814
1742.498504	-2.980200	3.314700	-9.877700	26.868803	0.000541	20.908065
1743.502960	-3.010600	3.313100	-9.972900	26.871060	0.000539	20.895163
1744.499681	-2.998100	3.314200	-9.934900	26.886349	0.000538	20.906268
1745.502696	-3.007600	3.312100	-9.960700	26.863688	0.000538	20.900552
1746.501393	-3.008100	3.310600	-9.956900	26.874608	0.000537	20.896360
1747.501018	-3.002300	3.311800	-9.942200	26.849739	0.000536	20.891269
1748.499642	-3.009800	3.312000	-9.967500	26.815240	0.000537	20.899728
1749.500869	-2.992000	3.312000	-9.908500	26.780986	0.000535	20.904168
1750.505439	-3.007100	3.309800	-9.952400	26.783218	0.000535	20.903094
1751.501774	-2.993300	3.310300	-9.907800	26.777411	0.000536	20.893936
1752.506090	-2.999700	3.311200	-9.931700	26.773636	0.000534	20.903891
1753.501147	-3.011900	3.308800	-9.964100	26.769864	0.000534	20.914795
1754.502678	-3.001300	3.309000	-9.929300	26.752363	0.000532	20.904314
1755.504623	-2.974200	3.310400	-9.844600	26.706194	0.000532	20.894881
1756.503997	-3.005500	3.309200	-9.944100	26.685293	0.000532	20.918911
1757.503745	-3.018900	3.309100	-9.988500	26.706143	0.000529	20.905260
1758.506578	-2.999000	3.308200	-9.920600	26.736871	0.000532	20.891110
1759.504590	-3.008200	3.308200	-9.950800	26.747619	0.000531	20.886743
1760.505690	-3.018400	3.308100	-9.983800	26.793859	0.000529	20.903361
1761.509098	-3.045900	3.305500	-10.067000	26.825035	0.000529	20.872120
1762.505538	-2.995700	3.306000	-9.901800	26.840917	0.000530	20.889510
1763.510149	-3.006900	3.305200	-9.937400	26.867027	0.000528	20.898220
1764.508307	-2.986600	3.306400	-9.873200	26.837169	0.000528	20.890009
1765.507656	-3.009500	3.304600	-9.944300	26.876506	0.000525	20.903009
1766.507136	-3.000300	3.304500	-9.912600	26.828257	0.000526	20.873463
1767.512560	-2.994100	3.304900	-9.894400	26.821604	0.000526	20.889532
1768.509384	-2.996900	3.303400	-9.898300	26.812371	0.000525	20.877405
1769.515022	-2.991000	3.304300	-9.882700	26.832872	0.000525	20.882844
1770.509124	-3.000000	3.302500	-9.906700	26.857046	0.000524	20.881546
1771.510329	-2.999000	3.302100	-9.901800	26.831879	0.000524	20.881846
1772.513233	-2.999000	3.303300	-9.905800	26.811179	0.000525	20.880948
1773.510329	-3.048800	3.301600	-10.065000	26.824682	0.000523	20.892153
1774.512868	-2.995800	3.301900	-9.891400	26.850543	0.000521	20.880698
1775.510309	-2.986500	3.301900	-9.859000	26.852577	0.000522	20.894122
1776.511894	-2.956000	3.302600	-9.761100	26.905292	0.000521	20.893074
1777.511811	-2.988600	3.301800	-9.867500	26.888341	0.000521	20.860859
1778.510577	-2.989300	3.300300	-9.864400	26.893403	0.000519	20.874483
1779.512406	-3.002500	3.299800	-9.906700	26.885982	0.000518	20.885038
1780.509950	-3.003000	3.300800	-9.911900	26.869280	0.000520	20.859236
1781.512717	-2.982700	3.299400	-9.840100	26.885934	0.000519	20.880723
1782.511004	-3.017200	3.297600	-9.947800	26.896033	0.000517	20.879498
1783.513359	-3.018800	3.298700	-9.956700	26.865333	0.000518	20.874232
1784.512671	-2.988900	3.299400	-9.860600	26.903701	0.000516	20.882467
1785.511497	-2.989100	3.297900	-9.856400	26.900600	0.000516	20.878400
1786.512434	-3.016200	3.297500	-9.945300	26.904496	0.000514	20.870938
1787.512097	-2.981600	3.297700	-9.831400	26.884244	0.000514	20.863377
1788.515957	-3.013800	3.297700	-9.937100	26.834110	0.000514	20.861332
1789.514371	-2.995800	3.296100	-9.873000	26.816512	0.000513	20.872560
1790.515922	-2.994400	3.296600	-9.868900	26.810531	0.000513	20.866547
1791.514117	-2.998200	3.297200	-9.883900	26.794273	0.000513	20.882916
1792.513751	-2.983800	3.296200	-9.833300	26.785587	0.000512	20.870390
1793.521007	-3.015800	3.294100	-9.933100	26.800579	0.000510	20.878350
1794.519678	-2.992100	3.293800	-9.854600	26.815447	0.000510	20.883342
1795.520445	-3.008700	3.295600	-9.913900	26.805964	0.000511	20.871437
1796.516673	-3.022100	3.293400	-9.951600	26.795442	0.000508	20.847109
1797.518732	-2.996500	3.292800	-9.865300	26.778862	0.000508	20.854621
1798.515336	-2.998200	3.293000	-9.872800	26.819045	0.000509	20.864201
1799.519256	-2.995400	3.293700	-9.865700	26.803631	0.000506	20.870514
1800.515876	-2.990500	3.292100	-9.843300	26.817185	0.000506	20.873236
1801.520022	-3.008900	3.291200	-9.901500	26.788766	0.000507	20.856043
1802.527883	-3.024300	3.291500	-9.953000	26.774443	0.000504	20.869143
1803.516183	-2.982700	3.291900	-9.817800	26.772237	0.000505	20.864554
1804.516100	-2.996700	3.291100	-9.861400	26.771541	0.000505	20.856743
1805.516048	-3.003700	3.291400	-9.886400	26.804328	0.000504	20.875956
1806.521285	-2.997600	3.290400	-9.862100	26.807679	0.000503	20.854196
1807.516963	-3.008600	3.288100	-9.891200	26.830514	0.000502	20.883793
1808.515885	-2.998500	3.289200	-9.861500	26.841957	0.000501	20.867324
1809.517212	-3.011300	3.289000	-9.903300	26.859827	0.000501	20.869171
1810.519669	-2.989900	3.288800	-9.831500	26.880724	0.000501	20.862683
1811.516182	-3.000300	3.287400	-9.862200	26.885936	0.000500	20.831415
1812.517194	-2.980700	3.288500	-9.800800	26.868266	0.000500	20.854898
1813.517365	-2.981000	3.287500	-9.798400	26.831383	0.000499	20.836779
1814.516789	-2.982800	3.287200	-9.804400	26.809642	0.000498	20.853800
1815.523333	-3.005800	3.287400	-9.880400	26.784249	0.000498	20.839649
1816.518957	-2.987600	3.288600	-9.823800	26.743767	0.000496	20.853001
1817.520734	-2.971100	3.286500	-9.763200	26.740218	0.000498	20.842321
1818.521918	-3.004000	3.285900	-9.869800	26.801848	0.000495	20.859713
1819.520095	-2.988700	3.285400	-9.818500	26.840544	0.000494	20.850257
1820.531039	-2.987900	3.284300	-9.812500	26.853895	0.000495	20.832862
1821.523128	-2.999500	3.286000	-9.854900	26.897700	0.000494	20.855097
1822.527830	-2.982900	3.284600	-9.796500	26.913981	0.000495	20.843494
1823.522069	-3.009900	3.282700	-9.879500	26.912219	0.000491	20.868747
1824.521760	-3.003200	3.284300	-9.862400	26.931726	0.000492	20.862285
1825.523492	-2.991600	3.285000	-9.826200	26.945003	0.000492	20.836756
1826.526274	-3.003200	3.282400	-9.856500	26.942547	0.000490	20.845191
1827.524906	-3.004100	3.282700	-9.861400	26.970737	0.000491	20.850305
1828.530461	-2.985000	3.281800	-9.795200	26.982725	0.000492	20.860937
1829.523281	-3.021600	3.281500	-9.914700	27.008608	0.000489	20.856146
1830.521307	-2.977500	3.281600	-9.770400	27.035483	0.000488	20.862310
1831.525877	-3.031400	3.280300	-9.942600	27.025483	0.000490	20.834710
1832.523446	-3.011100	3.280700	-9.877200	27.045433	0.000489	20.850980
1833.527103	-2.978600	3.281300	-9.772800	27.044340	0.000485	20.858890
1834.529637	-2.991600	3.280000	-9.811700	27.027245	0.000487	20.845491
1835.525322	-3.017500	3.278700	-9.892800	27.041909	0.000488	20.861186
1836.525556	-3.003800	3.278800	-9.847600	27.055458	0.000486	20.832613
1837.528112	-2.985000	3.279200	-9.787200	27.081066	0.000486	20.839875
1838.526298	-2.987300	3.279600	-9.796600	27.047789	0.000487	20.853823
1839.525011	-3.006100	3.278600	-9.854900	27.030470	0.000483	20.837829
1840.526477	-2.990400	3.277700	-9.800800	27.062555	0.000485	20.834535
1841.526771	-2.985200	3.278000	-9.784800	27.064118	0.000483	20.831365
1842.530866	-3.017700	3.274700	-9.880800	27.005208	0.000484	20.842297
1843.528128	-2.995000	3.276600	-9.812600	27.011709	0.000484	20.850730
1844.531483	-2.994300	3.275200	-9.805900	26.999399	0.000482	20.832661
1845.529746	-2.988300	3.275300	-9.786600	26.982153	0.000483	20.846138
1846.529786	-3.004700	3.275700	-9.839800	27.010169	0.000481	20.846337
1847.530062	-2.985700	3.274900	-9.777000	27.047417	0.000481	20.838276
1848.530769	-2.987300	3.275100	-9.782100	27.075308	0.000480	20.834558
1849.531703	-3.001000	3.274600	-9.826000	27.114984	0.000479	20.833210
1850.531290	-3.021800	3.275000	-9.895600	27.181976	0.000478	20.830888
1851.531768	-3.017200	3.273600	-9.876200	27.178477	0.000479	20.830687
1852.533353	-3.000600	3.273800	-9.822500	27.149125	0.000476	20.838149
1853.533226	-3.006000	3.272600	-9.836400	27.211848	0.000476	20.838174
1854.534222	-3.002800	3.272500	-9.825000	27.190386	0.000473	20.837923
1855.535341	-2.980900	3.271200	-9.750300	27.177038	0.000475	20.834455
1856.534396	-2.993200	3.272600	-9.794500	27.178675	0.000472	20.818084
1857.533552	-3.020800	3.269000	-9.874200	27.172348	0.000473	20.843489
1858.534964	-2.985000	3.271100	-9.763200	27.195670	0.000473	20.818583
1859.533629	-3.001400	3.270000	-9.814000	27.220878	0.000473	20.821652
1860.534101	-2.985200	3.270200	-9.761400	27.252212	0.000472	20.833255
1861.538181	-3.001200	3.269400	-9.811600	27.243429	0.000471	20.836274
1862.533907	-3.026600	3.269500	-9.894600	27.263127	0.000470	20.818630
1863.535329	-3.000500	3.269600	-9.809600	27.265609	0.000469	20.829187
1864.534981	-3.011300	3.269600	-9.844800	27.253452	0.000470	20.825967
1865.537624	-2.986900	3.267800	-9.760100	27.231718	0.000468	20.828288
1866.534630	-2.999600	3.267900	-9.801900	27.205915	0.000467	20.830309
1867.536774	-3.008400	3.267800	-9.828900	27.201944	0.000466	20.836747
1868.537688	-2.996600	3.268000	-9.792200	27.184825	0.000466	20.839442
1869.535955	-2.974000	3.267100	-9.715000	27.159640	0.000464	20.827388
1870.536617	-2.990100	3.266100	-9.765400	27.142942	0.000462	20.813439
1871.536310	-2.988500	3.265600	-9.758400	27.137233	0.000463	20.827612
1872.537256	-3.004600	3.265200	-9.809400	27.162046	0.000463	20.826490
1873.537309	-2.990600	3.265700	-9.764800	27.202935	0.000464	20.816881
1874.538098	-2.973000	3.267300	-9.711700	27.173408	0.000463	20.818003
1875.538027	-2.990500	3.264800	-9.763300	27.192512	0.000461	20.830105
1876.537369	-2.992800	3.263800	-9.766700	27.189486	0.000461	20.807148
1877.540693	-2.989700	3.264200	-9.758200	27.228760	0.000461	20.805399
1878.538682	-2.979100	3.262800	-9.718300	27.215958	0.000459	20.811014
1879.537217	-2.966700	3.262600	-9.677800	27.151250	0.000460	20.799510
1880.540982	-2.983700	3.261900	-9.731500	27.103632	0.000461	20.838388
1881.538879	-3.011800	3.260600	-9.819200	27.052839	0.000457	20.804376
1882.536987	-3.007800	3.261600	-9.809600	27.028467	0.000458	20.820643
1883.541222	-3.000100	3.262700	-9.787400	26.995316	0.000456	20.820021
1884.538456	-3.033700	3.260100	-9.888600	27.051347	0.000453	20.808091
1885.538746	-2.994900	3.261000	-9.765400	27.042140	0.000456	20.804522
1886.538901	-3.008300	3.260300	-9.807700	27.024173	0.000455	20.820117
1887.538241	-2.998100	3.259800	-9.772000	27.001840	0.000452	20.820892
1888.538979	-3.030600	3.260000	-9.879100	26.970967	0.000453	20.805019
1889.538990	-3.000400	3.259500	-9.777700	27.019109	0.000452	20.817395
1890.539120	-3.012600	3.258100	-9.814800	27.017744	0.000449	20.806066
1891.539146	-3.014300	3.259200	-9.823700	27.054196	0.000451	20.819017
1892.538285	-3.000900	3.259300	-9.778900	27.054444	0.000451	20.810731
1893.539953	-2.993900	3.257800	-9.752900	27.105462	0.000449	20.806565
1894.543689	-3.021800	3.256600	-9.839300	27.150148	0.000447	20.793660
1895.541183	-3.014700	3.256800	-9.817400	27.205551	0.000447	20.805762
1896.540085	-3.022500	3.254000	-9.833600	27.211780	0.000448	20.793535
1897.538665	-2.997300	3.255700	-9.757500	27.191608	0.000447	20.819239
1898.540443	-3.003700	3.254400	-9.773900	27.146103	0.000445	20.816144
1899.539674	-3.014600	3.255400	-9.812400	27.119057	0.000446	20.808858
1900.542493	-3.014100	3.253600	-9.805800	27.134416	0.000444	20.822881
1901.541836	-2.989100	3.255100	-9.728800	27.178506	0.000444	20.812699
1902.540843	-3.020400	3.255300	-9.830900	27.222049	0.000444	20.805287
1903.540485	-3.012000	3.252800	-9.796400	27.247354	0.000444	20.789489
1904.542957	-3.001000	3.254400	-9.764400	27.244228	0.000444	20.815267
1905.543678	-2.974700	3.256100	-9.685100	27.222171	0.000440	20.792133
1906.543401	-3.002200	3.252500	-9.763700	27.252837	0.000443	20.812073
1907.545433	-2.991800	3.252800	-9.731100	27.270202	0.000439	20.800143
1908.543210	-2.987100	3.252500	-9.714400	27.291688	0.000439	20.796625
1909.543926	-2.965300	3.252900	-9.644600	27.285782	0.000439	20.797323
1910.547141	-2.994800	3.250700	-9.734500	27.299624	0.000440	20.810771
1911.548123	-2.997400	3.251600	-9.744600	27.305801	0.000437	20.813192
1912.547452	-3.015000	3.249400	-9.795500	27.359362	0.000437	20.812544
1913.546643	-3.015000	3.249200	-9.795400	27.326516	0.000437	20.803684
1914.545356	-3.008800	3.249400	-9.775200	27.295454	0.000436	20.801836
1915.545537	-3.011300	3.249600	-9.784100	27.231519	0.000435	20.788733
1916.546077	-3.013800	3.248400	-9.788600	27.190258	0.000435	20.784690
1917.548451	-3.009400	3.248400	-9.773400	27.149765	0.000434	20.787111
1918.546147	-3.003900	3.248300	-9.755700	27.115176	0.000433	20.776979
1919.548205	-3.017400	3.247700	-9.798100	27.119963	0.000431	20.806450
1920.547510	-3.005200	3.248800	-9.762200	27.104082	0.000432	20.811815
1921.548717	-3.001100	3.246700	-9.742500	27.136985	0.000431	20.807922
1922.550934	-3.007400	3.245500	-9.759200	27.165469	0.000431	20.803380
1923.547969	-2.998600	3.245200	-9.729900	27.202510	0.000429	20.781841
1924.548470	-3.000500	3.245000	-9.734800	27.224915	0.000429	20.793471
1925.552696	-2.983900	3.246500	-9.685000	27.168492	0.000429	20.795515
1926.550990	-2.989500	3.245900	-9.702900	27.159484	0.000429	20.778868
1927.550693	-3.008300	3.243500	-9.755200	27.145911	0.000426	20.793667
1928.556896	-3.006500	3.243200	-9.748600	27.122984	0.000424	20.779142
1929.551951	-3.007100	3.243700	-9.750800	27.136507	0.000426	20.788476
1930.554181	-3.003600	3.243500	-9.740600	27.150773	0.000425	20.796185
1931.557196	-2.980100	3.243700	-9.665600	27.141741	0.000425	20.795636
1932.555819	-2.974600	3.243400	-9.646300	27.136307	0.000424	20.784481
1933.554579	-3.000200	3.242900	-9.728000	27.162681	0.000422	20.798205
1934.557226	-3.012200	3.240800	-9.761000	27.169777	0.000420	20.793488
1935.555406	-3.004200	3.241900	-9.736900	27.145213	0.000421	20.786326
1936.556203	-3.017500	3.241400	-9.779800	27.125014	0.000421	20.791141
1937.558616	-3.027700	3.238800	-9.805300	27.058859	0.000418	20.792887
1938.557228	-2.982500	3.241400	-9.665900	27.003770	0.000418	20.784426
1939.557473	-2.985300	3.240000	-9.671200	26.989524	0.000419	20.795231
1940.558138	-3.000300	3.239500	-9.719000	26.971582	0.000420	20.786197
1941.557572	-2.987400	3.240300	-9.678700	27.009575	0.000418	20.782678
1942.559334	-2.981600	3.239000	-9.656900	27.071661	0.000417	20.765931
1943.558340	-2.985900	3.238400	-9.669300	27.115630	0.000416	20.781703
1944.557028	-3.001400	3.237800	-9.717000	27.112701	0.000416	20.819534
1945.558623	-3.023100	3.237400	-9.784300	27.095231	0.000414	20.802913
1946.559031	-3.021500	3.237500	-9.781100	27.099721	0.000412	20.778505
1947.557298	-2.999500	3.235700	-9.703400	27.072673	0.000414	20.763631
1948.558658	-3.024700	3.235900	-9.786300	27.086145	0.000413	20.775757
1949.560602	-3.014800	3.234500	-9.749900	27.040884	0.000412	20.769593
1950.558327	-3.003700	3.235200	-9.717200	27.032396	0.000413	20.787135
1951.559931	-3.010500	3.234000	-9.735200	27.040610	0.000411	20.783543
1952.562421	-3.003000	3.234500	-9.712200	27.103041	0.000410	20.755765
1953.560485	-3.005700	3.233200	-9.717000	27.124429	0.000408	20.783914
1954.562953	-2.994700	3.234100	-9.684600	27.117333	0.000409	20.781993
1955.562184	-3.020200	3.232700	-9.763100	27.100036	0.000409	20.763648
1956.564571	-2.999300	3.232900	-9.695000	27.091523	0.000407	20.789701
1957.565934	-3.006300	3.231400	-9.713700	27.058321	0.000405	20.786656
1958.566781	-2.990500	3.231400	-9.661900	27.076313	0.000406	20.776774
1959.566839	-2.993000	3.232500	-9.673900	27.118914	0.000405	20.762721
1960.564990	-3.007200	3.230300	-9.712600	27.173626	0.000403	20.767487
1961.566473	-2.986000	3.232600	-9.650500	27.218509	0.000402	20.777544
1962.565364	-3.000900	3.230300	-9.692600	27.202605	0.000401	20.795687
1963.566669	-3.009200	3.229900	-9.719100	27.192855	0.000401	20.767388
1964.566877	-3.004700	3.230100	-9.704400	27.211536	0.000401	20.771004
1965.564753	-2.999600	3.228000	-9.680900	27.186897	0.000400	20.775620
1966.567145	-3.015300	3.226700	-9.729100	27.209401	0.000399	20.778340
1967.567445	-2.981800	3.229500	-9.627300	27.191437	0.000399	20.770703
1968.564531	-3.040400	3.226200	-9.808100	27.150024	0.000400	20.777414
1969.565183	-3.011600	3.227600	-9.719300	27.205554	0.000397	20.759298
1970.566614	-2.999400	3.227700	-9.680500	27.240262	0.000395	20.769553
1971.564320	-3.001200	3.227700	-9.684700	27.274723	0.000396	20.772921
1972.564747	-2.998200	3.226800	-9.673800	27.306852	0.000395	20.784852
1973.567728	-3.019500	3.225900	-9.740100	27.321388	0.000394	20.771973
1974.567027	-3.010800	3.225300	-9.709300	27.257654	0.000394	20.784676
1975.566211	-3.022400	3.224900	-9.746800	27.233091	0.000391	20.748588
1976.565730	-3.021200	3.223200	-9.736600	27.174461	0.000393	20.788717
1977.566006	-3.010300	3.222600	-9.699500	27.160020	0.000391	20.776089
1978.566171	-2.989200	3.222200	-9.630100	27.212025	0.000391	20.762013
1979.568498	-2.988400	3.223100	-9.630600	27.226068	0.000388	20.794156
1980.567629	-2.979400	3.224100	-9.604500	27.219442	0.000388	20.779431
1981.567338	-3.011800	3.220800	-9.699200	27.228572	0.000391	20.764906
1982.568296	-3.008800	3.223000	-9.696100	27.219317	0.000388	20.773141
1983.569683	-3.022700	3.221900	-9.736500	27.266854	0.000387	20.763109
1984.568774	-2.997700	3.222100	-9.657900	27.294342	0.000385	20.771793
1985.568682	-3.022300	3.220700	-9.733200	27.350855	0.000385	20.768899
1986.569877	-3.006900	3.219700	-9.679900	27.393549	0.000384	20.769648
1987.569243	-2.999500	3.219900	-9.657000	27.414607	0.000384	20.795101
1988.571099	-3.010800	3.219700	-9.692800	27.379184	0.000383	20.769895
1989.567067	-2.975500	3.219500	-9.577800	27.329344	0.000383	20.783769
1990.569503	-2.993300	3.218300	-9.632100	27.297614	0.000383	20.762757
1991.568633	-2.983200	3.218900	-9.602000	27.281315	0.000384	20.779553
1992.571518	-2.998700	3.217400	-9.647400	27.321505	0.000378	20.775410
1993.568768	-2.991200	3.217500	-9.622700	27.361842	0.000381	20.771890
1994.572897	-2.996700	3.217900	-9.642500	27.374468	0.000381	20.767996
1995.569348	-3.007000	3.216500	-9.670500	27.439138	0.000378	20.777105
1996.571270	-3.007500	3.215000	-9.668500	27.470144	0.000377	20.771315
1997.573233	-2.998000	3.216800	-9.641400	27.517248	0.000376	20.771765
1998.569817	-2.980700	3.215400	-9.584000	27.514742	0.000377	20.769243
1999.570854	-2.980900	3.215600	-9.583900	27.547854	0.000375	20.777428
2000.569730	-2.989100	3.213600	-9.604800	27.577096	0.000373	20.770341
2001.570898	-2.973300	3.217100	-9.563400	27.617573	0.000373	20.779774
2002.571089	-2.995600	3.214000	-9.627700	27.635008	0.000372	20.764127
2003.570826	-3.000400	3.212300	-9.637400	27.639423	0.000373	20.773310
2004.571774	-3.017100	3.213700	-9.695300	27.625335	0.000372	20.766722
2005.570247	-2.993100	3.212100	-9.612900	27.584884	0.000371	20.757313
2006.574759	-3.000100	3.212100	-9.636100	27.577913	0.000371	20.781119
2007.570680	-3.006700	3.212100	-9.656000	27.596292	0.000370	20.793449
2008.572021	-3.020500	3.210000	-9.693600	27.583841	0.000367	20.777127
2009.573110	-3.004800	3.210200	-9.645400	27.538377	0.000367	20.769315
2010.571707	-3.006500	3.210700	-9.651800	27.494349	0.000368	20.784288
2011.572684	-3.002500	3.209200	-9.634300	27.535548	0.000367	20.787806
2012.575551	-2.989700	3.207500	-9.589400	27.562980	0.000366	20.769413
2013.571432	-3.005500	3.207900	-9.639800	27.561342	0.000364	20.776775
2014.573392	-2.996800	3.207700	-9.610900	27.632202	0.000364	20.785011
2015.574552	-3.008100	3.207200	-9.647000	27.659778	0.000362	20.764869
2016.572690	-3.009800	3.206200	-9.648600	27.691499	0.000363	20.792996
2017.574355	-3.015800	3.206700	-9.669700	27.665927	0.000362	20.766790
2018.576019	-3.015300	3.205000	-9.663100	27.616898	0.000358	20.787629
2019.573645	-3.021700	3.205100	-9.682900	27.580139	0.000361	20.788575
2020.575484	-2.992700	3.207100	-9.596500	27.537577	0.000359	20.786529
2021.579028	-2.971000	3.205700	-9.522400	27.502654	0.000359	20.801178
2022.577778	-2.982600	3.205000	-9.557400	27.487300	0.000358	20.792842
2023.577197	-2.980600	3.204100	-9.548800	27.496378	0.000358	20.798657
2024.581178	-2.997300	3.205300	-9.605900	27.521825	0.000356	20.787276
2025.578129	-3.035100	3.202700	-9.719700	27.539610	0.000354	20.788574
2026.578422	-3.018400	3.203700	-9.668800	27.539336	0.000354	20.784505
2027.580389	-3.006900	3.203500	-9.632100	27.534200	0.000354	20.794511
2028.577248	-2.993900	3.204100	-9.591300	27.554713	0.000355	20.798080
2029.581851	-2.997500	3.202700	-9.600000	27.600523	0.000352	20.792490
2030.579961	-3.001600	3.200300	-9.605500	27.634252	0.000350	20.792764
2031.578841	-3.013800	3.201900	-9.648900	27.638940	0.000351	20.785626
2032.579188	-3.003000	3.201300	-9.612200	27.661606	0.000349	20.806538
2033.580890	-2.988700	3.200100	-9.563600	27.643403	0.000350	20.794859
2034.580464	-2.997800	3.199200	-9.589700	27.638665	0.000350	20.801471
2035.579679	-3.004500	3.197900	-9.607000	27.631869	0.000348	20.783727
2036.581265	-3.004800	3.197500	-9.607600	27.698854	0.000346	20.793759
2037.579665	-3.009900	3.197900	-9.624600	27.739501	0.000347	20.795782
2038.579971	-2.974300	3.199400	-9.513500	27.781805	0.000345	20.781456
2039.582473	-2.993600	3.196700	-9.568300	27.809132	0.000345	20.799948
2040.581977	-3.026100	3.197000	-9.673600	27.825795	0.000345	20.796329
2041.581884	-2.994500	3.194700	-9.566300	27.780465	0.000345	20.797177
2042.584062	-2.990500	3.196500	-9.558500	27.780540	0.000344	20.773070
2043.582525	-3.009500	3.194600	-9.613100	27.764967	0.000342	20.811452
2044.582195	-2.963100	3.196000	-9.469300	27.752541	0.000342	20.795628
2045.584920	-2.986800	3.196600	-9.546300	27.767197	0.000340	20.796626
2046.584041	-2.993000	3.192400	-9.553700	27.748549	0.000341	20.800620
2047.582795	-2.989000	3.195400	-9.550500	27.717749	0.000342	20.786220
2048.584062	-3.006200	3.193000	-9.597900	27.701977	0.000338	20.791212
2049.584121	-2.994800	3.191300	-9.556200	27.737092	0.000338	20.794305
2050.583201	-3.001600	3.193000	-9.582200	27.724568	0.000338	20.793556
2051.584975	-2.988100	3.191700	-9.535900	27.704480	0.000336	20.787566
2052.583012	-2.996000	3.190800	-9.558300	27.680722	0.000336	20.809178
2053.584407	-3.000900	3.190000	-9.572300	27.717797	0.000338	20.807605
2054.585916	-3.011600	3.190800	-9.607100	27.708993	0.000335	20.803961
2055.583552	-3.019600	3.189800	-9.631200	27.732502	0.000332	20.813869
2056.584671	-2.996500	3.187900	-9.551800	27.762334	0.000330	20.812122
2057.585691	-2.991900	3.189000	-9.540400	27.801218	0.000332	20.795776
2058.584466	-2.977400	3.188700	-9.493900	27.810243	0.000330	20.810550
2059.585135	-3.007100	3.189900	-9.591500	27.813789	0.000330	20.818385
2060.589256	-2.991700	3.188400	-9.537800	27.811384	0.000332	20.802214
2061.589476	-3.001600	3.187800	-9.567300	27.835611	0.000330	20.807630
2062.586489	-2.990400	3.188400	-9.533800	27.885126	0.000328	20.797247
2063.589139	-3.008700	3.187200	-9.588500	27.826783	0.000327	20.822927
2064.587077	-3.009000	3.187700	-9.590600	27.842675	0.000328	20.817585
2065.586734	-2.993800	3.186700	-9.538500	27.777013	0.000325	20.803186
2066.588532	-2.997400	3.183800	-9.542000	27.763299	0.000326	20.808351
2067.587270	-2.981700	3.184500	-9.494400	27.696442	0.000325	20.825945
2068.587157	-3.012600	3.183200	-9.589000	27.642650	0.000325	20.807378
2069.589126	-2.994700	3.182600	-9.529400	27.630151	0.000324	20.809499
2070.587148	-3.003600	3.183300	-9.560200	27.680719	0.000321	20.814390
2071.585738	-2.998500	3.181300	-9.538200	27.758737	0.000321	20.807079
2072.590089	-3.008400	3.180800	-9.568400	27.783162	0.000321	20.812693
2073.586939	-2.987200	3.181600	-9.502900	27.794916	0.000320	20.814090
2074.589799	-2.999500	3.182600	-9.546500	27.791122	0.000319	20.827341
2075.591622	-3.012600	3.179900	-9.578800	27.798114	0.000319	20.820628
2076.589665	-3.004500	3.179900	-9.551800	27.853311	0.000319	20.829711
2077.588473	-3.010200	3.180100	-9.572400	27.907635	0.000319	20.831281
2078.591836	-2.994100	3.178400	-9.515700	27.937786	0.000318	20.809946
2079.590899	-3.000100	3.177300	-9.530400	27.941728	0.000315	20.821974
2080.589350	-2.993100	3.177200	-9.509000	27.959778	0.000315	20.819753
2081.591691	-3.011900	3.175700	-9.563600	27.992033	0.000318	20.817132
2082.589684	-2.994200	3.177200	-9.512100	28.005496	0.000314	20.808872
2083.590002	-2.994400	3.176000	-9.509500	27.962752	0.000312	20.829385
2084.590864	-3.002400	3.174700	-9.529800	27.904089	0.000312	20.819652
2085.591057	-2.986400	3.175700	-9.482900	27.873418	0.000311	20.800162
2086.591168	-2.995100	3.174600	-9.506700	27.839347	0.000314	20.815658
2087.592782	-3.010200	3.174300	-9.554500	27.857944	0.000310	20.805451
2088.591261	-3.011900	3.174000	-9.559100	27.813780	0.000312	20.816480
2089.591320	-2.984700	3.174900	-9.475500	27.774651	0.000309	20.813137
2090.592237	-2.987100	3.175800	-9.485200	27.794117	0.000309	20.827985
2091.592486	-3.001200	3.172700	-9.521300	27.841900	0.000308	20.829132
2092.591981	-3.023200	3.173100	-9.592300	27.855910	0.000309	20.822370
2093.593681	-2.997000	3.171700	-9.504400	27.876415	0.000308	20.828308
2094.594349	-3.016000	3.169900	-9.559700	27.910804	0.000305	20.824514
2095.594423	-2.995300	3.170500	-9.495600	27.922160	0.000306	20.833098
2096.593778	-2.986100	3.170400	-9.466200	27.911251	0.000306	20.820696
2097.592412	-3.015000	3.168600	-9.550900	27.911152	0.000305	20.840036
2098.596027	-2.990500	3.168300	-9.473900	27.937186	0.000304	20.819298
2099.594943	-3.008900	3.167900	-9.531300	27.957464	0.000300	20.819795
2100.597526	-2.972000	3.168200	-9.415100	27.948838	0.000302	20.820121
2101.597420	-2.985500	3.166200	-9.452000	27.976483	0.000301	20.851265
2102.599170	-3.000300	3.164900	-9.494900	28.010398	0.000299	20.847945
2103.602545	-3.008900	3.168800	-9.533200	27.999017	0.000299	20.820843
2104.601142	-3.011000	3.165400	-9.530400	28.015974	0.000298	20.821316
2105.601088	-3.030800	3.163300	-9.585300	28.045427	0.000299	20.812557
2106.600349	-2.991600	3.164700	-9.466000	28.056460	0.000297	20.832672
2107.598889	-3.011600	3.163400	-9.525800	28.020511	0.000296	20.842478
2108.600433	-2.999500	3.164100	-9.489400	28.033576	0.000295	20.841404
2109.600893	-2.999500	3.165200	-9.492500	28.044509	0.000296	20.858572
2110.603264	-3.007300	3.163300	-9.511400	28.026956	0.000294	20.837586
2111.602928	-2.997200	3.160300	-9.471000	28.002189	0.000292	20.836363
2112.603965	-3.027800	3.161000	-9.569400	27.948164	0.000292	20.851210
2113.601562	-3.008800	3.159900	-9.506100	27.904055	0.000294	20.837160
2114.602558	-2.998900	3.160900	-9.478900	27.903310	0.000293	20.855851
2115.603057	-2.975900	3.158200	-9.397100	27.893838	0.000292	20.851058
2116.602394	-3.002600	3.159100	-9.485000	27.901326	0.000293	20.854802
2117.604147	-3.008100	3.158400	-9.500000	27.942162	0.000291	20.838058
2118.607702	-2.976100	3.161000	-9.405900	27.942038	0.000289	20.841251
2119.604904	-3.002100	3.157100	-9.477100	27.975337	0.000289	20.851534
2120.604203	-2.987400	3.158100	-9.433500	28.004614	0.000289	20.838330
2121.605158	-2.998900	3.158100	-9.470000	28.051521	0.000286	20.846191
2122.606661	-3.012200	3.155600	-9.503600	28.057397	0.000288	20.847839
2123.605624	-2.976900	3.158000	-9.399100	28.026406	0.000286	20.840351
2124.604544	-2.991200	3.156000	-9.439500	28.029381	0.000286	20.845716
2125.603280	-2.999100	3.153400	-9.456000	28.022737	0.000285	20.847089
2126.605906	-2.990200	3.153000	-9.427600	28.064486	0.000285	20.844544
2127.604938	-2.988600	3.151700	-9.418100	28.106158	0.000282	20.846664
2128.606052	-2.998000	3.150900	-9.443800	28.150629	0.000284	20.855397
2129.605508	-2.981700	3.151300	-9.395200	28.111091	0.000284	20.853526
2130.606505	-2.990500	3.150300	-9.420100	28.125889	0.000282	20.851354
2131.608117	-2.991700	3.150400	-9.424300	28.087192	0.000280	20.855072
2132.607660	-3.001800	3.147900	-9.448900	28.055409	0.000281	20.866700
2133.607825	-3.014400	3.148900	-9.491200	28.066242	0.000280	20.860061
2134.606829	-3.013500	3.148000	-9.485300	28.132705	0.000276	20.849681
2135.606432	-2.985300	3.148500	-9.398500	28.164162	0.000278	20.869968
2136.607975	-2.992700	3.146600	-9.414800	28.150529	0.000280	20.855296
2137.608180	-2.973300	3.148300	-9.359500	28.128861	0.000276	20.846759
2138.622606	-2.978300	3.146300	-9.369800	28.144950	0.000275	20.860111
2139.607800	-2.990500	3.145500	-9.405400	28.162227	0.000276	20.860434
2140.607262	-2.971300	3.146400	-9.347900	28.104715	0.000275	20.867969
2141.608334	-2.982200	3.143600	-9.373100	28.057168	0.000275	20.877004
2142.609323	-3.024300	3.142800	-9.502500	28.002824	0.000275	20.866399
2143.608983	-3.021400	3.144900	-9.501200	27.974436	0.000275	20.874333
2144.608973	-2.999400	3.143400	-9.427500	27.952841	0.000271	20.855917
2145.608880	-3.004600	3.141500	-9.438100	27.926485	0.000272	20.873959
2146.609507	-2.998600	3.140900	-9.416600	27.961470	0.000271	20.857016
2147.609726	-3.005100	3.143500	-9.445000	27.969551	0.000272	20.881270
2148.611167	-3.012000	3.139500	-9.455200	28.032847	0.000272	20.875282
2149.610822	-2.982100	3.141300	-9.367200	28.061654	0.000270	20.868719
2150.610633	-3.000600	3.138000	-9.414900	28.111260	0.000269	20.861756
2151.610763	-2.997800	3.138400	-9.407100	28.142346	0.000269	20.878350
2152.610369	-2.998200	3.137200	-9.403500	28.157739	0.000267	20.870140
2153.609237	-3.023000	3.135200	-9.476700	28.178264	0.000267	20.889854
2154.610834	-3.018000	3.136100	-9.462300	28.224320	0.000264	20.873634
2155.611505	-2.999300	3.135400	-9.401400	28.207142	0.000265	20.875779
2156.610231	-3.001500	3.135400	-9.409800	28.110441	0.000263	20.885587
2157.610416	-2.994500	3.134100	-9.382900	28.095913	0.000263	20.889927
2158.610278	-2.995100	3.133000	-9.382900	28.097970	0.000263	20.855016
2159.610707	-2.977800	3.133100	-9.328500	28.130347	0.000263	20.898512
2160.610960	-3.017400	3.132100	-9.449400	28.150128	0.000263	20.900882
2161.610470	-3.001600	3.132200	-9.401100	28.227244	0.000261	20.880844
2162.614100	-2.993300	3.130800	-9.370000	28.224072	0.000263	20.890452
2163.610399	-2.990100	3.131400	-9.362600	28.227541	0.000259	20.877825
2164.612131	-3.032700	3.129500	-9.490300	28.270049	0.000260	20.882216
2165.611822	-2.986800	3.129300	-9.345600	28.299445	0.000259	20.875777
2166.611828	-2.984500	3.128200	-9.335100	28.336423	0.000258	20.899258
2167.613149	-2.988900	3.127400	-9.346300	28.405099	0.000257	20.879270
2168.613941	-3.021700	3.126000	-9.444600	28.421134	0.000260	20.885459
2169.613964	-3.005800	3.125400	-9.392700	28.439448	0.000256	20.887305
2170.616834	-3.004800	3.125200	-9.388000	28.406512	0.000254	20.882115
2171.615313	-2.987600	3.126100	-9.337100	28.405396	0.000255	20.902326
2172.615901	-2.974200	3.124400	-9.292100	28.417440	0.000257	20.887903
2173.614683	-2.986900	3.123000	-9.327800	28.383959	0.000256	20.874579
2174.614950	-2.991300	3.124200	-9.344600	28.349211	0.000255	20.880841
2175.617493	-3.032200	3.120200	-9.459000	28.280928	0.000251	20.897435
2176.619166	-3.015700	3.121600	-9.410800	28.260330	0.000254	20.884758
2177.617672	-3.021200	3.120400	-9.425900	28.274880	0.000253	20.880915
2178.620246	-3.011300	3.119700	-9.393100	28.227883	0.000252	20.908512
2179.621079	-2.994000	3.119300	-9.338200	28.183266	0.000252	20.889200
2180.619155	-3.012300	3.119300	-9.395100	28.122780	0.000252	20.905119
2181.620700	-2.994100	3.118400	-9.335600	28.045086	0.000248	20.902772
2182.621829	-3.022300	3.115500	-9.414500	27.971997	0.000249	20.913127
2183.621870	-2.997500	3.116600	-9.340400	27.988807	0.000248	20.903969
2184.622376	-2.994400	3.115500	-9.328100	27.981121	0.000247	20.907138
2185.623618	-2.993200	3.115900	-9.324100	27.992699	0.000246	20.906939
2186.621966	-2.989400	3.114800	-9.309900	28.026242	0.000246	20.891391
2187.625157	-2.979300	3.113600	-9.275000	28.080783	0.000247	20.916894
2188.623511	-3.004400	3.113800	-9.354000	28.118884	0.000248	20.894560
2189.625480	-2.991000	3.112900	-9.309400	28.122628	0.000247	20.900224
2190.625906	-3.027700	3.111300	-9.418700	28.142036	0.000244	20.903167
2191.624748	-2.994500	3.112700	-9.320500	28.132766	0.000243	20.917541
2192.625771	-2.996600	3.110900	-9.320300	28.154356	0.000243	20.899923
2193.626753	-2.991200	3.110600	-9.303300	28.144144	0.000242	20.904815
2194.633182	-3.014600	3.108100	-9.367500	28.172452	0.000242	20.898226
2195.625236	-2.987900	3.108200	-9.285700	28.191340	0.000242	20.908706
2196.627354	-3.019400	3.107200	-9.380900	28.180136	0.000243	20.918288
2197.629117	-3.017600	3.105800	-9.370400	28.181821	0.000241	20.911924
2198.626734	-2.996100	3.105200	-9.302300	28.205121	0.000243	20.920682
2199.627481	-2.995800	3.104800	-9.300000	28.201972	0.000241	20.915142
2200.627782	-3.002800	3.103800	-9.319100	28.174556	0.000240	20.917412
2201.626680	-3.003400	3.103300	-9.318700	28.120044	0.000241	20.913744
2202.631865	-3.024800	3.101600	-9.381200	28.092255	0.000240	20.911847
2203.629854	-3.027200	3.099600	-9.381500	28.099666	0.000241	20.917885
2204.629616	-3.016000	3.100400	-9.349800	28.118209	0.000238	20.916637
2205.634471	-3.009800	3.099600	-9.328400	28.175000	0.000240	20.915014
2206.633408	-2.990500	3.098100	-9.264200	28.202392	0.000237	20.918883
2207.632605	-2.975700	3.100600	-9.225400	28.155813	0.000236	20.929836
2208.631952	-3.010900	3.098600	-9.328500	28.164986	0.000237	20.931958
2209.632186	-2.997100	3.097600	-9.282300	28.132610	0.000237	20.914065
2210.630946	-3.006200	3.095900	-9.306000	28.085087	0.000235	20.910322
2211.636945	-3.019100	3.096100	-9.346700	28.057421	0.000235	20.939841
2212.632480	-3.020500	3.095000	-9.347800	28.085385	0.000235	20.946653
2213.634712	-3.007800	3.094300	-9.306000	28.167908	0.000234	20.926366
2214.633859	-2.997900	3.091800	-9.267800	28.191308	0.000233	20.908673
2215.631594	-2.986500	3.093500	-9.237400	28.256076	0.000233	20.941161
2216.633152	-3.000300	3.090300	-9.271400	28.312935	0.000234	20.929184
2217.633718	-2.987200	3.092100	-9.236100	28.339653	0.000232	20.910569
2218.634778	-3.012200	3.090400	-9.307800	28.361189	0.000232	20.934622
2219.635653	-3.007900	3.088500	-9.288700	28.331919	0.000234	20.929807
2220.635992	-3.018200	3.088900	-9.321300	28.328796	0.000232	20.903905
2221.634634	-2.992300	3.088300	-9.239100	28.257438	0.000232	20.917879
2222.636995	-2.999100	3.087600	-9.259300	28.248638	0.000231	20.927984
2223.637462	-2.990400	3.084700	-9.223600	28.282123	0.000231	20.920447
2224.637463	-2.994000	3.085400	-9.236500	28.301382	0.000231	20.928931
2225.635765	-2.990700	3.084500	-9.223100	28.364210	0.000230	20.937190
2226.639249	-2.993100	3.083700	-9.229000	28.346885	0.000232	20.922117
2227.636664	-3.022000	3.082300	-9.313800	28.321085	0.000231	20.914632
2228.637467	-2.979700	3.082000	-9.182600	28.309634	0.000230	20.923490
2229.637451	-3.002400	3.079700	-9.244800	28.314888	0.000230	20.920246
2230.637022	-2.981400	3.080900	-9.184500	28.360490	0.000229	20.906420
2231.637184	-3.002900	3.079100	-9.244900	28.364431	0.000229	20.911336
2232.637985	-2.979600	3.079400	-9.173600	28.401432	0.000227	20.921566
2233.637187	-2.990000	3.076900	-9.198800	28.404033	0.000228	20.908065
2234.637218	-2.995500	3.077200	-9.216600	28.413600	0.000228	20.889725
2235.639819	-3.002400	3.075900	-9.234100	28.403562	0.000226	20.898109
2236.638113	-3.002300	3.074300	-9.228800	28.408790	0.000226	20.905269
2237.640097	-2.991600	3.074300	-9.196700	28.373300	0.000225	20.901301
2238.638675	-2.993000	3.074000	-9.199600	28.330150	0.000225	20.922810
2239.640704	-3.006200	3.072000	-9.234700	28.357016	0.000226	20.894863
2240.638505	-3.009600	3.070400	-9.239400	28.365714	0.000225	20.925903
2241.640838	-2.999600	3.069600	-9.205800	28.378107	0.000226	20.894289
2242.639303	-2.999500	3.069000	-9.204800	28.345465	0.000223	20.912628
2243.639445	-3.006300	3.067800	-9.221600	28.348413	0.000225	20.903743
2244.640765	-3.021700	3.066400	-9.264500	28.310246	0.000226	20.906564
2245.639267	-3.001000	3.066100	-9.200300	28.274529	0.000224	20.899527
2246.640593	-3.006900	3.065000	-9.214700	28.207406	0.000225	20.894062
2247.639678	-3.019000	3.063600	-9.248400	28.210182	0.000222	20.903494
2248.641436	-3.022100	3.063700	-9.256300	28.228052	0.000223	20.913424
2249.645493	-3.006700	3.063300	-9.209200	28.240696	0.000223	20.890120
2250.640609	-2.987600	3.063600	-9.151700	28.217395	0.000223	20.886576
2251.641908	-3.009800	3.059400	-9.207200	28.207876	0.000223	20.906388
2252.642647	-2.993900	3.061000	-9.163800	28.218584	0.000221	20.880660
2253.644921	-3.029100	3.057400	-9.260200	28.259308	0.000224	20.896056
2254.643429	-2.994700	3.058300	-9.157500	28.261067	0.000220	20.878862
2255.643981	-3.016000	3.056500	-9.217900	28.357878	0.000222	20.903790
2256.644422	-2.975200	3.056700	-9.092900	28.409601	0.000222	20.878113
2257.646700	-2.998300	3.054900	-9.158500	28.460255	0.000221	20.884077
2258.646218	-3.000900	3.054400	-9.165000	28.482484	0.000218	20.896029
2259.646361	-3.001400	3.053200	-9.162800	28.540818	0.000222	20.875118
2260.644124	-2.977500	3.052800	-9.089200	28.523248	0.000221	20.875442
2261.646121	-3.015700	3.050900	-9.199600	28.508007	0.000220	20.881904
2262.647021	-2.982900	3.048700	-9.092600	28.528748	0.000218	20.892360
2263.646112	-3.002700	3.047700	-9.150300	28.543442	0.000219	20.886769
2264.646650	-2.986100	3.048400	-9.100600	28.511872	0.000220	20.894804
2265.646081	-3.001100	3.046100	-9.141600	28.476237	0.000220	20.881678
2266.647058	-2.979300	3.045600	-9.072100	28.479929	0.000219	20.878759
2267.647712	-3.005500	3.044300	-9.148900	28.513111	0.000217	20.867131
2268.648158	-2.982800	3.044300	-9.079500	28.510063	0.000218	20.898672
2269.649666	-2.988300	3.042600	-9.091500	28.523518	0.000218	20.884248
2270.649786	-2.971100	3.043300	-9.040700	28.531843	0.000218	20.899269
2271.651338	-2.986100	3.042100	-9.082100	28.522873	0.000217	20.871746
2272.651425	-2.997300	3.039400	-9.109300	28.559671	0.000217	20.869924
2273.652425	-3.012000	3.038500	-9.151000	28.580014	0.000214	20.875713
2274.650625	-2.995500	3.037300	-9.097500	28.519379	0.000215	20.841202
2275.654270	-2.987700	3.036200	-9.069700	28.441194	0.000217	20.866305
2276.655730	-2.998100	3.033900	-9.095000	28.422260	0.000215	20.874266
2277.651704	-2.994300	3.033800	-9.083600	28.381913	0.000214	20.888164
2278.655173	-2.996200	3.033000	-9.086200	28.386250	0.000218	20.864558
2279.654385	-3.004900	3.032400	-9.110100	28.427662	0.000214	20.859792
2280.653483	-3.004000	3.030700	-9.103100	28.479604	0.000214	20.868949
2281.654229	-3.007500	3.028300	-9.106100	28.533007	0.000213	20.882898
2282.655872	-3.001500	3.028400	-9.088900	28.564005	0.000215	20.866228
2283.653024	-3.006700	3.027500	-9.101700	28.597780	0.000214	20.858993
2284.655362	-2.985600	3.025700	-9.032800	28.612671	0.000215	20.867826
2285.654434	-2.945700	3.025300	-8.909900	28.622459	0.000213	20.859666
2286.653067	-2.982900	3.023600	-9.018100	28.642850	0.000212	20.876410
2287.654284	-3.002700	3.023800	-9.078100	28.654396	0.000213	20.876659
2288.655710	-3.016400	3.019700	-9.106800	28.642033	0.000212	20.859940
2289.653894	-2.970700	3.020300	-8.970800	28.670799	0.000214	20.864731
2290.655762	-2.995100	3.018300	-9.039000	28.683981	0.000214	20.853353
2291.654683	-3.006500	3.016300	-9.066700	28.698003	0.000214	20.840451
2292.654304	-3.023000	3.014400	-9.111600	28.674441	0.000215	20.850857
2293.655101	-3.011900	3.014300	-9.077100	28.635938	0.000212	20.855699
2294.655059	-2.997500	3.013800	-9.032900	28.614530	0.000215	20.866379
2295.653638	-3.011900	3.012800	-9.073500	28.591139	0.000215	20.859891
2296.654568	-3.033100	3.009800	-9.127800	28.611605	0.000213	20.846365
2297.655406	-3.013900	3.010300	-9.070900	28.646418	0.000212	20.861986
2298.654546	-2.992900	3.007800	-9.001200	28.702315	0.000213	20.831518
2299.655521	-2.986100	3.009300	-8.984300	28.739007	0.000214	20.855673
2300.664985	-3.002000	3.005500	-9.021600	28.740568	0.000214	20.843021
2301.656702	-2.984600	3.005000	-8.966600	28.666016	0.000214	20.857544
2302.659910	-2.976900	3.003100	-8.938100	28.576667	0.000212	20.861912
2303.660237	-2.979600	3.003600	-8.948100	28.534691	0.000212	20.845242
2304.656454	-2.971900	3.001500	-8.918700	28.466618	0.000212	20.853028
2305.657549	-3.020500	3.000100	-9.060100	28.426322	0.000212	20.855123
2306.659837	-2.980200	2.999400	-8.938600	28.457795	0.000212	20.866902
2307.660021	-2.986500	2.996800	-8.948700	28.427759	0.000210	20.860364
2308.660099	-2.978100	2.996900	-8.924100	28.458662	0.000213	20.841223
2309.660795	-2.994300	2.995500	-8.968900	28.469814	0.000212	20.842970
2310.658071	-2.991300	2.993700	-8.953200	28.527627	0.000211	20.857568
2311.658792	-2.994800	2.992800	-8.962300	28.566184	0.000210	20.843768
2312.659977	-3.007900	2.990400	-8.994400	28.578550	0.000211	20.831092
2313.655862	-2.972600	2.989400	-8.884900	28.566655	0.000213	20.848984
2314.661945	-3.000100	2.989900	-8.968900	28.518384	0.000209	20.835458
2315.662484	-3.005100	2.987700	-8.977600	28.476826	0.000210	20.860936
2316.658920	-2.989800	2.986300	-8.927400	28.423817	0.000209	20.825576
2317.662004	-2.977600	2.985000	-8.887400	28.462006	0.000211	20.843643
2318.662436	-2.986800	2.983400	-8.910500	28.440074	0.000211	20.850954
2319.659619	-2.979300	2.982400	-8.884500	28.408849	0.000209	20.852228
2320.663185	-2.992400	2.978900	-8.912500	28.377175	0.000210	20.823179
2321.661539	-2.974000	2.979800	-8.860500	28.309735	0.000210	20.843941
2322.660105	-2.972200	2.977300	-8.848400	28.272805	0.000210	20.836629
2323.662478	-2.981800	2.976100	-8.873300	28.250200	0.000210	20.855595
2324.664130	-2.977900	2.974400	-8.855600	28.229279	0.000209	20.828843
2325.659462	-3.009200	2.972000	-8.942400	28.301011	0.000210	20.847485
2326.662286	-3.032000	2.971200	-9.007000	28.337569	0.000210	20.840671
2327.663838	-2.975500	2.971700	-8.840900	28.341979	0.000210	20.855543
2328.659049	-3.017400	2.968300	-8.955300	28.338311	0.000209	20.842367
2329.662023	-2.984800	2.967400	-8.855300	28.319102	0.000209	20.838199
2330.664852	-3.026400	2.967100	-8.977700	28.368325	0.000208	20.837027
2331.660701	-3.000000	2.963900	-8.890900	28.456056	0.000208	20.835754
2332.662096	-3.009400	2.962600	-8.914500	28.475262	0.000209	20.840870
2333.663906	-3.003800	2.961000	-8.893500	28.526605	0.000208	20.829039
2334.663055	-3.008500	2.959700	-8.903800	28.550916	0.000208	20.838349
2335.662392	-3.026900	2.957100	-8.949600	28.557532	0.000208	20.849753
2336.662484	-3.002700	2.955800	-8.874700	28.541276	0.000208	20.830537
2337.660131	-3.010600	2.953500	-8.890400	28.563651	0.000207	20.843114
2338.664966	-3.012800	2.954700	-8.901000	28.603670	0.000208	20.848805
2339.663407	-3.001500	2.952400	-8.860700	28.631421	0.000209	20.823649
2340.661558	-3.002100	2.949900	-8.854400	28.692991	0.000209	20.842040
2341.663734	-3.012300	2.949000	-8.881800	28.724309	0.000209	20.833283
2342.663110	-2.983600	2.948600	-8.796600	28.774824	0.000207	20.833431
2343.662809	-3.002100	2.945900	-8.842900	28.807773	0.000209	20.830586
2344.667169	-3.002700	2.945100	-8.842700	28.834850	0.000208	20.816611
2345.669610	-2.991000	2.942700	-8.800900	28.841638	0.000208	20.833406
2346.662479	-2.995100	2.942000	-8.811200	28.849218	0.000207	20.818283
2347.666045	-2.985500	2.940000	-8.776500	28.841712	0.000210	20.812145
2348.668530	-2.990100	2.936500	-8.779800	28.811985	0.000209	20.837673
2349.664592	-3.009100	2.936500	-8.835800	28.791744	0.000207	20.809224
2350.666032	-2.997300	2.934900	-8.795100	28.826180	0.000209	20.825421
2351.665161	-3.009400	2.932100	-8.822300	28.854494	0.000208	20.833081
2352.665946	-2.991300	2.933200	-8.773000	28.885087	0.000206	20.819805
2353.667646	-3.016800	2.929900	-8.838300	28.899578	0.000207	20.818282
2354.666487	-2.995700	2.928800	-8.772300	28.941962	0.000205	20.827316
2355.667490	-2.991200	2.926700	-8.753000	28.930343	0.000208	20.832680
2356.676184	-2.985100	2.925600	-8.732300	28.929303	0.000206	20.821675
2357.667671	-2.980200	2.923400	-8.711200	28.933068	0.000205	20.839693
2358.666833	-2.994100	2.921700	-8.747100	28.901410	0.000206	20.815386
2359.670758	-2.992500	2.921200	-8.740600	28.876565	0.000208	20.824495
2360.670600	-3.007300	2.919300	-8.777400	28.855135	0.000208	20.823295
2361.667510	-3.009900	2.916100	-8.776000	28.828356	0.000206	20.823346
2362.671934	-3.007300	2.913800	-8.762000	28.842723	0.000206	20.817430
2363.669684	-2.997500	2.915000	-8.736000	28.830436	0.000206	20.818803
2364.669684	-2.981500	2.913500	-8.686000	28.787504	0.000206	20.807324
2365.673430	-2.991100	2.911500	-8.707300	28.781880	0.000207	20.812090
2366.670846	-3.035300	2.907400	-8.823900	28.825976	0.000206	20.820000
2367.669266	-3.005200	2.907300	-8.736300	28.838858	0.000208	20.821123
2368.673291	-3.003700	2.906200	-8.728000	28.880500	0.000206	20.833675
2369.669147	-3.000900	2.904100	-8.713500	28.915676	0.000205	20.818378
2370.669393	-3.001500	2.899800	-8.702900	28.977725	0.000204	20.835846
2371.672857	-2.995600	2.900800	-8.688700	28.999423	0.000206	20.809818
2372.670835	-2.982400	2.899100	-8.645200	29.010716	0.000206	20.825937
2373.670266	-2.985400	2.897500	-8.648200	28.950750	0.000208	20.817203
2374.674452	-3.019500	2.894600	-8.739100	28.857238	0.000206	20.801232
2375.676003	-2.994300	2.892300	-8.659700	28.821812	0.000207	20.806796
2376.672190	-3.019600	2.891100	-8.727500	28.820622	0.000206	20.810339
2377.675084	-3.017900	2.887500	-8.712700	28.832513	0.000207	20.809990
2378.672616	-3.015100	2.885000	-8.696900	28.871133	0.000205	20.811437
2379.673312	-2.986700	2.884400	-8.614300	28.901405	0.000205	20.821545
2380.675941	-2.962900	2.885200	-8.547900	28.935489	0.000205	20.814157
2381.672616	-2.976300	2.882000	-8.576300	28.920825	0.000205	20.813134
2382.672409	-2.989500	2.879600	-8.607200	28.953719	0.000204	20.821618
2383.677643	-2.978500	2.877500	-8.570100	28.982725	0.000206	20.794891
2384.674843	-2.989000	2.876000	-8.596000	28.994267	0.000205	20.806994
2385.674121	-3.001500	2.874000	-8.623900	28.990898	0.000204	20.813083
2386.674565	-3.018600	2.872800	-8.670200	29.011358	0.000204	20.807144
2387.674077	-3.010200	2.869500	-8.636900	28.962785	0.000203	20.800405
2388.674729	-3.004300	2.868100	-8.615000	29.021388	0.000204	20.810138
2389.676579	-3.017000	2.865700	-8.645100	29.027234	0.000205	20.792794
2390.674761	-2.999600	2.863100	-8.587400	29.074788	0.000206	20.810363
2391.674495	-2.995400	2.861900	-8.572000	29.067382	0.000204	20.803848
2392.678093	-3.013300	2.859100	-8.613800	29.115801	0.000204	20.809488
2393.677643	-2.989300	2.858100	-8.542600	29.110204	0.000205	20.797210
2394.675206	-3.000000	2.855800	-8.566000	29.112978	0.000205	20.809488
2395.675726	-2.974300	2.854100	-8.487800	29.119268	0.000205	20.779317
2396.675276	-3.016600	2.850500	-8.596600	29.015864	0.000202	20.782760
2397.675753	-3.021700	2.848700	-8.605200	28.986636	0.000203	20.787452
2398.674801	-3.019600	2.846800	-8.595100	28.926891	0.000204	20.796486
2399.677857	-2.989000	2.845600	-8.504100	28.884309	0.000205	20.786778
2400.676932	-3.001200	2.843000	-8.531100	28.882302	0.000202	20.774325
2401.680040	-2.984000	2.841600	-8.476600	28.911384	0.000204	20.790347
2402.677660	-3.017800	2.838500	-8.564900	28.911458	0.000204	20.779990
2403.675224	-3.007600	2.837300	-8.533000	28.964988	0.000205	20.786030
2404.676557	-3.056300	2.833000	-8.657400	28.967910	0.000205	20.781862
2405.676657	-3.015800	2.832200	-8.540700	28.933876	0.000205	20.791669
2406.676128	-3.025500	2.828700	-8.557600	28.917229	0.000204	20.808089
2407.676363	-3.007000	2.828600	-8.503600	28.873285	0.000204	20.812182
2408.676185	-2.976600	2.826600	-8.413300	28.917972	0.000207	20.793664
2409.679407	-2.994800	2.824200	-8.456800	28.940910	0.000207	20.797807
2410.676929	-2.981900	2.821400	-8.412500	28.994982	0.000205	20.794912
2411.678178	-2.997000	2.819600	-8.449800	29.022054	0.000206	20.785204
2412.676190	-3.010300	2.817100	-8.479400	29.098982	0.000205	20.806765
2413.675313	-3.008400	2.815300	-8.468500	29.118423	0.000203	20.784155
2414.679130	-2.994100	2.811900	-8.418100	29.157652	0.000205	20.789071
2415.682349	-2.995200	2.810400	-8.415800	29.135165	0.000205	20.801499
2416.678342	-3.009300	2.807700	-8.447900	29.036616	0.000205	20.788022
2417.683336	-3.009200	2.803500	-8.434200	28.980888	0.000205	20.767909
2418.681930	-3.023500	2.802000	-8.470500	29.010882	0.000205	20.793388
2419.678143	-2.977700	2.800200	-8.337400	29.042784	0.000204	20.790918
2420.682297	-3.014100	2.796300	-8.427400	29.059229	0.000202	20.793263
2421.686675	-3.020900	2.794400	-8.440500	29.085954	0.000205	20.786999
2422.681950	-2.984500	2.791700	-8.330300	29.109580	0.000204	20.788995
2423.683001	-2.981200	2.789100	-8.313700	29.102992	0.000205	20.795633
2424.685654	-3.029200	2.786600	-8.440100	29.108565	0.000205	20.782282
2425.680453	-3.003100	2.784400	-8.361100	29.123548	0.000204	20.796905
2426.682756	-2.994600	2.782100	-8.330200	29.126049	0.000204	20.777140
2427.685515	-3.007500	2.778800	-8.356200	29.145440	0.000205	20.778662
2428.679934	-2.987200	2.776300	-8.291800	29.173077	0.000207	20.788019
2429.684101	-3.007300	2.772300	-8.336400	29.142690	0.000205	20.777314
2430.688275	-3.014400	2.769200	-8.345500	29.076836	0.000203	20.779709
2431.681445	-2.970600	2.767900	-8.219500	29.082680	0.000206	20.779908
2432.684065	-2.998100	2.765500	-8.289700	29.105069	0.000203	20.774966
2433.685318	-3.009900	2.762300	-8.312100	29.098951	0.000203	20.775440
2434.681326	-3.009700	2.758900	-8.301200	29.101651	0.000204	20.778635
2435.685949	-3.007600	2.758100	-8.294800	29.091967	0.000204	20.760816
2436.688662	-3.017600	2.753700	-8.308700	29.117080	0.000203	20.772370
2437.684499	-3.006500	2.749800	-8.265400	29.084116	0.000203	20.788941
2438.686445	-2.976500	2.746600	-8.174800	29.039460	0.000203	20.795155
2439.688010	-2.990500	2.744000	-8.204700	29.031261	0.000204	20.790687
2440.684065	-3.002300	2.740400	-8.226900	29.004758	0.000204	20.766355
2441.688451	-3.014200	2.738600	-8.253300	29.004263	0.000203	20.758269
2442.686072	-3.005400	2.735200	-8.219900	29.020313	0.000203	20.780605
2443.684057	-2.992000	2.733000	-8.176100	29.053427	0.000203	20.774615
2444.687592	-3.018400	2.726600	-8.229300	29.062270	0.000203	20.770248
2445.686374	-2.987900	2.726100	-8.144800	29.096028	0.000205	20.762536
2446.687597	-2.991400	2.721700	-8.140400	29.124087	0.000202	20.779430
2447.692697	-2.977400	2.719300	-8.094000	29.127158	0.000204	20.768300
2448.687826	-2.999600	2.713900	-8.138800	29.136024	0.000204	20.777708
2449.690845	-2.974100	2.710700	-8.060500	29.176416	0.000204	20.770047
2450.689683	-2.979500	2.707300	-8.066100	29.226044	0.000203	20.761737
2451.690726	-3.008900	2.704100	-8.134900	29.297460	0.000204	20.767801
2452.689823	-3.008600	2.700500	-8.123900	29.336286	0.000202	20.762360
2453.688937	-2.991900	2.697000	-8.067800	29.368103	0.000205	20.765978
2454.690734	-2.960100	2.694100	-7.973900	29.367459	0.000203	20.770071
2455.689451	-3.015000	2.689100	-8.106600	29.361393	0.000203	20.773440
2456.689384	-2.991300	2.687100	-8.036900	29.377760	0.000203	20.765279
2457.689349	-3.022500	2.681200	-8.102800	29.405069	0.000203	20.769571
2458.693007	-3.005900	2.677900	-8.049000	29.459069	0.000204	20.765204
2459.692235	-3.018900	2.674500	-8.072700	29.481301	0.000202	20.771967
2460.690203	-3.011700	2.669400	-8.038600	29.469814	0.000204	20.786466
2461.690131	-3.025300	2.666000	-8.063800	29.462906	0.000204	20.754373
2462.690700	-2.974900	2.662900	-7.921300	29.527349	0.000204	20.771916
2463.690300	-3.017300	2.658000	-8.019000	29.572901	0.000205	20.773265
2464.691542	-3.004900	2.655700	-7.979300	29.572083	0.000204	20.775759
2465.694027	-2.978700	2.649100	-7.890400	29.533762	0.000203	20.780752
2466.691646	-3.003200	2.646000	-7.945300	29.510242	0.000205	20.767948
2467.690190	-2.993000	2.640600	-7.901700	29.493135	0.000202	20.771567
2468.693294	-2.990500	2.636900	-7.884800	29.477760	0.000202	20.774088
2469.692641	-3.003000	2.632200	-7.903600	29.424580	0.000204	20.763158
2470.692607	-2.995700	2.628200	-7.872500	29.394842	0.000203	20.773014
2471.694731	-2.982400	2.624500	-7.826400	29.379764	0.000204	20.765403
2472.692011	-2.991900	2.620700	-7.839900	29.409128	0.000205	20.776508
2473.693462	-3.011100	2.615100	-7.873000	29.406208	0.000203	20.774038
2474.695894	-2.969900	2.610900	-7.752800	29.409550	0.000204	20.774562
2475.696585	-3.001300	2.604300	-7.815500	29.370231	0.000204	20.760062
2476.693357	-3.010400	2.599200	-7.823100	29.370083	0.000204	20.754697
2477.691681	-3.035600	2.592900	-7.870500	29.342722	0.000204	20.765527
2478.697459	-2.978200	2.587900	-7.705600	29.388703	0.000202	20.785792
2479.692811	-2.942700	2.584200	-7.603100	29.355425	0.000202	20.765054
2480.693121	-2.990700	2.577600	-7.707300	29.321402	0.000202	20.765852
2481.699557	-3.026300	2.571100	-7.780100	29.329722	0.000204	20.751477
2482.697581	-2.985000	2.567800	-7.663700	29.346436	0.000205	20.774960
2483.694616	-3.005500	2.561500	-7.697000	29.399201	0.000202	20.769820
2484.698121	-2.982200	2.556300	-7.623000	29.480854	0.000206	20.794750
2485.698515	-3.031300	2.548400	-7.723300	29.494396	0.000204	20.773313
2486.695435	-2.964700	2.545800	-7.547100	29.504967	0.000203	20.753148
2487.697578	-3.000200	2.538700	-7.615600	29.548242	0.000202	20.786340
2488.695172	-2.990500	2.530500	-7.566300	29.543514	0.000204	20.784418
2489.696029	-3.033200	2.522200	-7.649600	29.589411	0.000204	20.769519
2490.699035	-2.979200	2.519800	-7.505800	29.600575	0.000205	20.764653
2491.694954	-2.988700	2.511400	-7.504700	29.530492	0.000203	20.779826
2492.695813	-2.969600	2.507100	-7.443400	29.548340	0.000205	20.770317
2493.696106	-2.992000	2.499700	-7.477300	29.586142	0.000204	20.760534
