LabVIEW Measurement	
Writer_Version	2
Reader_Version	2
Separator	Tab
Decimal_Separator	.
Multi_Headings	No
X_Columns	One
Time_Pref	Absolute
Operator	admin
Description	Clolumns are: time, Current, Voltage, Power, Battery Temp, and Chamber Temp
Date	2024/08/16
Time	13:06:06.104549407958984375
***End_of_Header***	
	
Channels	6						
Samples	1	1	1	1	1	1	
Date	2024/08/23	2024/08/23	2024/08/23	2024/08/23	2024/08/23	2024/08/23	
Time	02:16:46.2652297019958496094	02:16:46.2702279090881347656	02:16:46.275226593017578125	02:16:46.2350344657897949219	02:16:46.2350344657897949219	02:16:46.2350344657897949219	
X_Dimension	Time	Time	Time	Time	Time	Time	
X0	0.0000000000000000E+0	0.0000000000000000E+0	0.0000000000000000E+0	0.0000000000000000E+0	0.0000000000000000E+0	0.0000000000000000E+0	
Delta_X	1.000000	1.000000	1.000000	1.000000	1.000000	1.000000	
***End_of_Header***							
X_Value	Untitled	Untitled 1	Untitled 2	Untitled 3	Untitled 4	Untitled 5	Comment
0.000000	0.021920	4.108400	0.089971	21.090356	0.000974	20.753743
0.998727	-2.988600	3.952900	-11.813000	21.092051	0.000975	20.783415
2.004397	-3.005700	3.946200	-11.860000	21.093099	0.000973	20.769289
3.003114	-3.002300	3.940500	-11.829000	21.097417	0.000972	20.750374
4.007398	-2.992200	3.937300	-11.780000	21.069848	0.000972	20.747455
5.002219	-3.009900	3.932700	-11.836000	21.113411	0.000971	20.738398
6.013422	-3.000000	3.930400	-11.791000	21.111689	0.000971	20.758487
7.012934	-2.998700	3.928200	-11.778000	21.111215	0.000970	20.778876
8.005702	-2.999500	3.926700	-11.776000	21.092229	0.000970	20.764152
9.006614	-2.990200	3.925500	-11.737000	21.087065	0.000969	20.767521
10.005857	-3.003600	3.922800	-11.780000	21.111592	0.000968	20.773089
11.002904	-2.997200	3.922000	-11.754000	21.113732	0.000966	20.757211
12.003301	-3.012300	3.919700	-11.806000	21.110491	0.000965	20.769616
13.002913	-2.980000	3.918200	-11.674000	21.116456	0.000965	20.754720
14.000548	-3.003800	3.917000	-11.765000	21.116405	0.000964	20.750875
15.001750	-3.005800	3.914800	-11.766000	21.111265	0.000964	20.735302
16.015906	-3.006400	3.914300	-11.767000	21.107197	0.000965	20.758735
17.008126	-3.009500	3.912200	-11.773000	21.126759	0.000963	20.737050
18.002825	-3.000700	3.912100	-11.738000	21.126610	0.000964	20.746384
19.009248	-2.991000	3.911400	-11.698000	21.142250	0.000962	20.740692
20.015421	-3.022500	3.908800	-11.813000	21.126583	0.000963	20.743986
21.006928	-2.994100	3.909200	-11.703000	21.157319	0.000962	20.753395
22.016251	-2.999300	3.907900	-11.720000	21.150532	0.000961	20.773633
23.005463	-2.954200	3.908400	-11.545000	21.143123	0.000959	20.759584
24.004251	-2.986900	3.907400	-11.671000	21.164301	0.000959	20.764173
25.004274	-2.995200	3.907000	-11.701000	21.172609	0.000957	20.743560
26.007669	-2.995800	3.904600	-11.696000	21.162752	0.000959	20.725638
27.022297	-3.012400	3.902800	-11.755000	21.158662	0.000956	20.768016
28.012109	-2.976100	3.904100	-11.617000	21.185604	0.000958	20.757033
29.011414	-3.006800	3.903000	-11.734000	21.175327	0.000956	20.779470
30.005858	-2.994900	3.903200	-11.687000	21.191468	0.000954	20.745829
31.015218	-3.013400	3.901100	-11.755000	21.181313	0.000953	20.749896
32.018591	-3.014000	3.900000	-11.753000	21.211975	0.000952	20.736472
33.010249	-3.006400	3.900300	-11.725000	21.197578	0.000955	20.733923
34.006907	-3.027100	3.898000	-11.799000	21.205834	0.000955	20.738389
35.015314	-3.012700	3.899100	-11.746000	21.191691	0.000953	20.727086
36.039546	-2.976200	3.898900	-11.603000	21.207082	0.000955	20.735844
37.010085	-2.984000	3.897800	-11.629000	21.204863	0.000951	20.746902
38.012137	-2.998800	3.897800	-11.687000	21.215539	0.000952	20.750944
39.014559	-2.974300	3.899100	-11.596000	21.215314	0.000953	20.754037
40.015034	-2.983900	3.896100	-11.624000	21.228985	0.000953	20.741160
41.011105	-2.990700	3.898000	-11.656000	21.229457	0.000949	20.749219
42.010015	-2.997400	3.895700	-11.676000	21.233874	0.000949	20.717126
43.012626	-2.988500	3.895700	-11.641000	21.230879	0.000949	20.744477
44.019571	-2.990100	3.896000	-11.648000	21.270742	0.000950	20.732198
45.018760	-2.981000	3.894800	-11.608000	21.248440	0.000949	20.746398
46.018234	-3.008500	3.894400	-11.716000	21.264131	0.000949	20.735542
47.017784	-3.004900	3.893300	-11.699000	21.270593	0.000948	20.737739
48.015124	-3.003700	3.893600	-11.695000	21.290873	0.000949	20.738588
49.017639	-2.991600	3.893100	-11.646000	21.279496	0.000947	20.746173
50.014068	-2.987000	3.894500	-11.632000	21.283040	0.000948	20.739760
51.020083	-3.006800	3.893300	-11.705000	21.271017	0.000950	20.757605
52.015793	-3.010800	3.892200	-11.718000	21.286030	0.000946	20.757926
53.015493	-3.012300	3.891400	-11.721000	21.302745	0.000946	20.754259
54.024854	-2.997500	3.890900	-11.662000	21.313244	0.000945	20.749589
55.020593	-2.986800	3.892000	-11.624000	21.325742	0.000946	20.732695
56.016443	-3.002000	3.889900	-11.676000	21.319904	0.000946	20.723534
57.015549	-3.002900	3.890000	-11.680000	21.327737	0.000947	20.743226
58.013573	-3.006200	3.890600	-11.696000	21.349687	0.000947	20.752859
59.020063	-2.986500	3.890800	-11.619000	21.350310	0.000946	20.748740
60.020550	-2.999100	3.889200	-11.662000	21.351705	0.000945	20.746817
61.015863	-3.010400	3.888700	-11.705000	21.354822	0.000945	20.746142
62.018109	-2.982000	3.891100	-11.603000	21.353224	0.000947	20.744543
63.025410	-3.002500	3.887700	-11.672000	21.366442	0.000945	20.752552
64.024142	-3.014400	3.886200	-11.713000	21.379590	0.000944	20.728721
65.020193	-2.985900	3.888800	-11.610000	21.374151	0.000945	20.762162
66.030027	-3.021800	3.887300	-11.744000	21.397921	0.000942	20.763659
67.028299	-3.002100	3.888200	-11.671000	21.384575	0.000943	20.754573
68.024781	-3.000600	3.886700	-11.661000	21.410814	0.000944	20.750480
69.023240	-3.012400	3.886100	-11.705000	21.397344	0.000946	20.746960
70.023412	-3.006400	3.885400	-11.679000	21.417921	0.000941	20.769444
71.026659	-2.984900	3.886900	-11.601000	21.419942	0.000942	20.735430
72.020274	-2.990900	3.886600	-11.623000	21.433884	0.000941	20.763131
73.018318	-3.008500	3.885700	-11.688000	21.430441	0.000942	20.772014
74.027041	-3.005000	3.885100	-11.674000	21.420439	0.000944	20.749204
75.026621	-2.992900	3.885500	-11.628000	21.438097	0.000944	20.765924
76.022302	-2.990700	3.885000	-11.617000	21.455132	0.000942	20.746933
77.028825	-2.989200	3.884900	-11.612000	21.456556	0.000943	20.771117
78.019900	-2.997400	3.883700	-11.640000	21.448897	0.000943	20.763454
79.030357	-3.027500	3.881900	-11.751000	21.461916	0.000944	20.757988
80.024161	-3.002200	3.883500	-11.659000	21.466057	0.000942	20.755493
81.021702	-3.007700	3.883600	-11.680000	21.482092	0.000940	20.790978
82.027825	-3.010100	3.883200	-11.687000	21.482019	0.000941	20.751076
83.018964	-2.990600	3.883900	-11.614000	21.498930	0.000941	20.755194
84.019796	-3.002900	3.883900	-11.662000	21.503991	0.000942	20.747931
85.025895	-3.005100	3.883200	-11.668000	21.510722	0.000943	20.768892
86.033559	-2.996400	3.882400	-11.632000	21.510652	0.000942	20.788736
87.028113	-3.008000	3.881600	-11.674000	21.514017	0.000943	20.738522
88.033625	-2.989800	3.881900	-11.605000	21.515865	0.000941	20.776882
89.032553	-3.007600	3.880700	-11.671000	21.538009	0.000940	20.741667
90.027713	-2.997500	3.881400	-11.633000	21.519482	0.000941	20.747310
91.033260	-2.997000	3.881600	-11.631000	21.535067	0.000943	20.770018
92.038242	-3.020900	3.880700	-11.722000	21.559335	0.000941	20.786715
93.032209	-3.005800	3.881300	-11.664000	21.524468	0.000942	20.786914
94.037402	-2.992200	3.881000	-11.612000	21.532598	0.000942	20.753797
95.034651	-3.002800	3.879400	-11.648000	21.555043	0.000938	20.768670
96.024878	-3.013200	3.879000	-11.687000	21.564545	0.000941	20.742615
97.034444	-3.004900	3.879100	-11.656000	21.575296	0.000939	20.772341
98.033745	-3.000000	3.879100	-11.636000	21.575071	0.000941	20.764055
99.027388	-2.980400	3.880700	-11.565000	21.577266	0.000940	20.760562
100.026999	-2.978300	3.879700	-11.554000	21.616320	0.000940	20.765978
101.038370	-3.001100	3.880500	-11.645000	21.605921	0.000940	20.766477
102.030086	-3.004100	3.878500	-11.650000	21.617568	0.000940	20.763433
103.030489	-3.008000	3.878000	-11.664000	21.613751	0.000942	20.775261
104.027123	-2.994900	3.878800	-11.615000	21.616844	0.000943	20.764605
105.032024	-2.973600	3.878400	-11.532000	21.616072	0.000942	20.769523
106.031747	-3.001500	3.877500	-11.636000	21.628565	0.000941	20.781551
107.034725	-2.997200	3.878400	-11.623000	21.646793	0.000941	20.790309
108.034418	-2.995200	3.877600	-11.613000	21.663552	0.000942	20.781951
109.032722	-2.984600	3.877100	-11.570000	21.656246	0.000942	20.786019
110.043931	-2.998500	3.877000	-11.624000	21.667742	0.000940	20.779505
111.030606	-2.982900	3.876900	-11.563000	21.672854	0.000941	20.777035
112.032986	-3.002300	3.875500	-11.634000	21.658365	0.000942	20.772018
113.045683	-2.985400	3.877000	-11.572000	21.698337	0.000942	20.767925
114.034324	-2.992900	3.875100	-11.597000	21.687192	0.000941	20.778582
115.035619	-2.993500	3.876000	-11.602000	21.699811	0.000942	20.798797
116.039205	-3.011800	3.874200	-11.667000	21.709388	0.000941	20.780880
117.030849	-2.995300	3.876200	-11.608000	21.711007	0.000943	20.773492
118.035170	-2.997900	3.875800	-11.617000	21.698340	0.000942	20.771720
119.044935	-3.006400	3.875000	-11.649000	21.690310	0.000941	20.782176
120.035048	-2.998000	3.875700	-11.618000	21.707768	0.000941	20.779259
121.038857	-3.002300	3.875500	-11.634000	21.710933	0.000942	20.794281
122.033985	-2.985700	3.874600	-11.566000	21.733800	0.000943	20.773070
123.040136	-2.996300	3.874100	-11.607000	21.740311	0.000942	20.775319
124.041758	-2.984100	3.874500	-11.561000	21.762799	0.000942	20.767479
125.032269	-3.007700	3.872700	-11.647000	21.759359	0.000942	20.755027
126.036809	-3.015900	3.874000	-11.683000	21.751179	0.000942	20.794730
127.033996	-2.997100	3.875100	-11.612000	21.763771	0.000943	20.781255
128.035957	-2.974400	3.875500	-11.527000	21.764473	0.000945	20.774370
129.046393	-2.998800	3.873400	-11.615000	21.782002	0.000943	20.797130
130.042157	-3.005000	3.873800	-11.639000	21.774620	0.000944	20.794484
131.047852	-3.000800	3.871800	-11.618000	21.800778	0.000943	20.769929
132.054787	-3.022400	3.872400	-11.702000	21.815013	0.000944	20.796979
133.047874	-3.021200	3.871200	-11.694000	21.828230	0.000943	20.770378
134.043584	-2.984200	3.872400	-11.555000	21.819280	0.000943	20.792715
135.043213	-3.003000	3.872100	-11.627000	21.823844	0.000944	20.784481
136.044724	-2.997200	3.872200	-11.604000	21.823794	0.000941	20.774948
137.050761	-2.993400	3.872600	-11.591000	21.833941	0.000944	20.767560
138.042727	-3.000000	3.871900	-11.615000	21.838805	0.000946	20.779066
139.046514	-2.996900	3.870700	-11.599000	21.860072	0.000944	20.785655
140.046373	-3.016200	3.871400	-11.676000	21.859775	0.000945	20.790572
141.043472	-2.999200	3.871600	-11.611000	21.843420	0.000945	20.782263
142.049071	-3.010300	3.870900	-11.651000	21.842745	0.000946	20.791546
143.043367	-2.982900	3.871700	-11.547000	21.862842	0.000947	20.808342
144.051479	-2.986700	3.871000	-11.560000	21.867979	0.000946	20.807793
145.044784	-2.994800	3.869900	-11.588000	21.854640	0.000948	20.819098
146.045662	-3.021500	3.869100	-11.689000	21.886505	0.000947	20.799784
147.048999	-3.003700	3.869200	-11.620000	21.908070	0.000947	20.791498
148.045194	-3.007300	3.870600	-11.638000	21.899221	0.000948	20.786433
149.044470	-3.001800	3.869400	-11.614000	21.920038	0.000948	20.773132
150.046053	-2.994200	3.869200	-11.584000	21.903860	0.000948	20.789181
151.050061	-2.997900	3.869500	-11.599000	21.908699	0.000947	20.798292
152.048845	-3.011500	3.866800	-11.644000	21.921164	0.000950	20.788958
153.052256	-2.995500	3.869200	-11.589000	21.927746	0.000949	20.798391
154.049006	-2.978000	3.868500	-11.518000	21.929343	0.000950	20.809947
155.044218	-3.001800	3.867500	-11.608000	21.953850	0.000948	20.789434
156.058055	-3.020900	3.867000	-11.681000	21.967063	0.000948	20.790807
157.048982	-2.995500	3.868300	-11.586000	21.962004	0.000947	20.793803
158.044994	-3.002700	3.868400	-11.614000	21.939567	0.000948	20.793629
159.046830	-3.003000	3.866700	-11.610000	21.942809	0.000950	20.805882
160.044373	-3.013900	3.867100	-11.654000	21.962205	0.000951	20.804435
161.048426	-2.983300	3.867700	-11.537000	21.967192	0.000948	20.798047
162.052926	-2.988300	3.868000	-11.556000	21.961956	0.000951	20.815566
163.049198	-3.002100	3.866100	-11.606000	21.960986	0.000950	20.797051
164.058050	-2.987000	3.868500	-11.554000	22.001298	0.000952	20.804213
165.050920	-3.010300	3.867800	-11.643000	22.003666	0.000952	20.794256
166.058733	-3.004600	3.865700	-11.614000	21.992623	0.000953	20.807383
167.050086	-2.990200	3.865500	-11.556000	21.980407	0.000950	20.816966
168.057084	-3.003500	3.865600	-11.609000	22.003418	0.000952	20.812026
169.048491	-2.981700	3.865800	-11.525000	22.000352	0.000953	20.796629
170.046946	-3.003400	3.864500	-11.604000	22.031314	0.000952	20.814821
171.053463	-3.031600	3.866000	-11.718000	22.019348	0.000954	20.804739
172.056032	-2.990800	3.865100	-11.557000	22.030193	0.000954	20.812750
173.052400	-2.997600	3.865000	-11.583000	22.016132	0.000953	20.807209
174.059215	-2.990000	3.865400	-11.557000	22.026153	0.000951	20.803491
175.052132	-2.992900	3.864200	-11.564000	22.027524	0.000952	20.792061
176.068446	-2.986400	3.864200	-11.539000	22.018502	0.000953	20.803418
177.053105	-2.996400	3.866300	-11.584000	22.025754	0.000956	20.809729
178.055749	-3.023600	3.863600	-11.680000	22.069306	0.000956	20.809232
179.062158	-3.004200	3.864700	-11.609000	22.078129	0.000956	20.806212
180.054239	-3.002500	3.863100	-11.598000	22.084859	0.000955	20.810104
181.056831	-3.012300	3.863300	-11.636000	22.082441	0.000957	20.824279
182.056044	-2.999600	3.863200	-11.586000	22.103432	0.000955	20.821111
183.056129	-3.009700	3.863500	-11.627000	22.136810	0.000956	20.812328
184.058709	-2.993800	3.863400	-11.566000	22.117838	0.000957	20.815620
185.055782	-3.000600	3.863600	-11.592000	22.113102	0.000957	20.808508
186.059724	-3.000000	3.863900	-11.591000	22.135064	0.000956	20.811529
187.056104	-3.009100	3.861600	-11.619000	22.140596	0.000955	20.814222
188.066706	-2.995800	3.861800	-11.568000	22.132919	0.000958	20.813175
189.056985	-2.994800	3.861700	-11.564000	22.153760	0.000958	20.805590
190.065063	-3.005300	3.861100	-11.603000	22.155404	0.000957	20.798702
191.056601	-3.004300	3.861300	-11.599000	22.167742	0.000959	20.816270
192.069780	-2.992600	3.860400	-11.551000	22.150891	0.000960	20.829745
193.055675	-2.977500	3.863900	-11.504000	22.181600	0.000957	20.823032
194.057782	-2.993900	3.861900	-11.561000	22.192317	0.000961	20.817641
195.065594	-2.996800	3.861700	-11.571000	22.169163	0.000961	20.836658
196.058616	-3.023100	3.859400	-11.667000	22.169012	0.000961	20.812800
197.061898	-3.008900	3.862400	-11.621000	22.168813	0.000960	20.822084
198.065791	-2.992900	3.860000	-11.552000	22.201687	0.000961	20.818488
199.062385	-2.984900	3.860800	-11.523000	22.206549	0.000962	20.829993
200.067661	-3.005700	3.860900	-11.604000	22.193187	0.000963	20.818038
201.065434	-3.003500	3.860700	-11.594000	22.203831	0.000962	20.844816
202.060812	-3.001200	3.859200	-11.581000	22.229057	0.000963	20.829296
203.060303	-3.021400	3.858400	-11.656000	22.221703	0.000962	20.821459
204.064694	-2.970000	3.860700	-11.465000	22.234764	0.000964	20.814148
205.061128	-3.024000	3.856500	-11.661000	22.250392	0.000966	20.839751
206.065322	-2.995500	3.859100	-11.558000	22.244682	0.000966	20.842095
207.060052	-3.006800	3.858600	-11.601000	22.279028	0.000963	20.832389
208.066175	-2.991400	3.858600	-11.542000	22.252433	0.000967	20.840373
209.065346	-2.985800	3.860100	-11.525000	22.243485	0.000965	20.837577
210.062659	-2.979400	3.858100	-11.494000	22.293133	0.000966	20.829442
211.059630	-2.979400	3.858400	-11.495000	22.291362	0.000966	20.820084
212.070040	-3.009200	3.857900	-11.608000	22.292012	0.000967	20.851079
213.065933	-3.017200	3.856400	-11.635000	22.303029	0.000968	20.840300
214.066941	-3.020600	3.857000	-11.650000	22.302851	0.000968	20.828268
215.067732	-3.003700	3.856500	-11.582000	22.317258	0.000969	20.840797
216.061398	-2.976600	3.857200	-11.480000	22.303625	0.000969	20.842319
217.063834	-3.006300	3.856900	-11.592000	22.314144	0.000970	20.852377
218.063497	-2.996900	3.857100	-11.558000	22.301931	0.000969	20.831140
219.061578	-2.999900	3.855200	-11.564000	22.316061	0.000970	20.823477
220.068121	-3.007500	3.855800	-11.595000	22.326106	0.000970	20.833062
221.077287	-2.993800	3.855600	-11.540000	22.324760	0.000971	20.841671
222.073182	-2.983100	3.856400	-11.504000	22.336149	0.000971	20.844540
223.061788	-3.013000	3.854700	-11.613000	22.355714	0.000971	20.855597
224.062059	-2.985700	3.855300	-11.509000	22.372810	0.000972	20.842845
225.070371	-2.983200	3.855600	-11.500000	22.373631	0.000974	20.875907
226.062486	-2.998600	3.854100	-11.556000	22.369121	0.000974	20.844366
227.068643	-3.022900	3.854400	-11.651000	22.370066	0.000973	20.839623
228.086113	-2.974600	3.854400	-11.463000	22.381755	0.000974	20.849431
229.072430	-2.998100	3.855100	-11.558000	22.389682	0.000973	20.845990
230.080881	-2.989900	3.855800	-11.528000	22.395389	0.000974	20.852652
231.067178	-2.999600	3.854200	-11.560000	22.395238	0.000974	20.850605
232.070742	-2.979200	3.855700	-11.485000	22.407325	0.000974	20.853226
233.065198	-3.004600	3.851900	-11.573000	22.415524	0.000975	20.856220
234.071613	-2.992000	3.854300	-11.530000	22.399601	0.000978	20.846439
235.079754	-2.995400	3.853100	-11.540000	22.446922	0.000977	20.861584
236.066361	-3.004100	3.853300	-11.574000	22.418811	0.000977	20.860934
237.067740	-3.000300	3.851900	-11.555000	22.416222	0.000977	20.840325
238.069199	-3.000000	3.853100	-11.558000	22.436605	0.000978	20.855520
239.069877	-3.021600	3.852300	-11.639000	22.438724	0.000979	20.849582
240.071296	-2.999100	3.852400	-11.553000	22.444354	0.000978	20.870866
241.070044	-2.994600	3.853000	-11.537000	22.436905	0.000979	20.861984
242.074632	-2.990200	3.851500	-11.515000	22.488636	0.000978	20.853100
243.077958	-2.995000	3.851800	-11.535000	22.481413	0.000982	20.852977
244.081222	-3.002500	3.853300	-11.569000	22.483778	0.000981	20.852501
245.074780	-2.997000	3.851500	-11.542000	22.487315	0.000981	20.875957
246.070284	-3.005100	3.851200	-11.572000	22.510016	0.000980	20.856967
247.072990	-2.979800	3.852000	-11.478000	22.493420	0.000982	20.864528
248.076385	-2.984100	3.852100	-11.494000	22.489259	0.000983	20.857990
249.085629	-2.993600	3.851800	-11.530000	22.513429	0.000984	20.848532
250.081245	-3.001800	3.850800	-11.558000	22.477945	0.000984	20.870841
251.069253	-3.009600	3.849800	-11.585000	22.512906	0.000985	20.853698
252.067882	-3.005500	3.850100	-11.570000	22.494665	0.000985	20.877154
253.077814	-2.991300	3.850300	-11.517000	22.515172	0.000986	20.874932
254.069653	-3.021900	3.848500	-11.627000	22.537798	0.000985	20.857290
255.102265	-2.983600	3.849500	-11.484000	22.525588	0.000985	20.867820
256.083429	-2.980500	3.849500	-11.472000	22.507196	0.000987	20.874056
257.071100	-2.983800	3.850000	-11.486000	22.531740	0.000989	20.867344
258.078439	-2.974000	3.850100	-11.448000	22.534583	0.000989	20.879673
259.090236	-2.994000	3.849100	-11.523000	22.535852	0.000988	20.875729
260.082244	-3.017900	3.847800	-11.609000	22.522770	0.000988	20.858835
261.074156	-2.995500	3.847600	-11.525000	22.526508	0.000989	20.865897
262.073243	-2.986900	3.847100	-11.488000	22.521997	0.000991	20.884137
263.069307	-2.980600	3.847600	-11.467000	22.547812	0.000990	20.879646
264.072327	-2.994500	3.846400	-11.516000	22.558027	0.000992	20.868541
265.075680	-3.011800	3.847000	-11.585000	22.567771	0.000989	20.886359
266.075607	-2.991100	3.847600	-11.508000	22.562662	0.000990	20.867967
267.075726	-3.006600	3.847800	-11.567000	22.572255	0.000992	20.873307
268.078410	-3.016300	3.847500	-11.604000	22.554138	0.000993	20.871284
269.077364	-2.991600	3.848600	-11.513000	22.563009	0.000992	20.863574
270.075660	-2.991200	3.846900	-11.505000	22.564479	0.000994	20.911035
271.078134	-3.006900	3.847200	-11.566000	22.549503	0.000994	20.878969
272.073269	-2.997400	3.846000	-11.527000	22.548360	0.000993	20.902004
273.076954	-3.011400	3.846900	-11.584000	22.572726	0.000993	20.886580
274.076560	-3.032300	3.845400	-11.659000	22.592086	0.000994	20.905495
275.079122	-2.987500	3.846500	-11.491000	22.578355	0.000994	20.891743
276.076199	-2.994400	3.845400	-11.513000	22.605840	0.000995	20.905520
277.078273	-2.979300	3.846100	-11.457000	22.595824	0.000997	20.902601
278.075405	-3.011800	3.844900	-11.578000	22.599210	0.000998	20.887975
279.078949	-3.001900	3.844200	-11.540000	22.606264	0.000998	20.896936
280.075833	-3.020800	3.844400	-11.612000	22.631230	0.000997	20.884485
281.078398	-2.992000	3.844700	-11.502000	22.594226	0.000997	20.872079
282.078188	-2.979100	3.845800	-11.455000	22.610723	0.000999	20.902824
283.084361	-2.991000	3.844200	-11.497000	22.621758	0.000999	20.891118
284.080794	-3.013400	3.842800	-11.580000	22.651158	0.000999	20.884530
285.079489	-3.008800	3.843400	-11.563000	22.640966	0.001000	20.895184
286.091938	-3.013900	3.842900	-11.580000	22.647395	0.001003	20.907313
287.081067	-2.993000	3.843200	-11.502000	22.647619	0.001002	20.891416
288.081582	-2.993500	3.844500	-11.508000	22.660077	0.001002	20.888249
289.084729	-3.003300	3.843500	-11.541000	22.668747	0.001003	20.869907
290.081861	-3.001900	3.842300	-11.532000	22.661746	0.001002	20.886127
291.083826	-2.984000	3.842100	-11.464000	22.660574	0.001004	20.894909
292.089541	-2.974100	3.843000	-11.429000	22.657436	0.001005	20.879439
293.095274	-3.025500	3.840300	-11.619000	22.665979	0.001002	20.890841
294.095612	-2.998200	3.841800	-11.517000	22.656063	0.001004	20.876642
295.082230	-2.982400	3.841500	-11.456000	22.686857	0.001005	20.888046
296.080776	-3.009300	3.840600	-11.556000	22.709153	0.001005	20.889042
297.087230	-2.999300	3.840900	-11.519000	22.716005	0.001004	20.887845
298.080168	-2.978500	3.842400	-11.443000	22.739745	0.001007	20.880331
299.103304	-2.987900	3.841000	-11.475000	22.721458	0.001008	20.908004
300.090694	-2.991300	3.841900	-11.491000	22.761596	0.001008	20.893209
301.084318	-3.005600	3.840100	-11.540000	22.762315	0.001010	20.871646
302.097864	-3.021800	3.840300	-11.604000	22.762290	0.001009	20.863087
303.082127	-2.989900	3.840900	-11.483000	22.775570	0.001009	20.893458
304.083431	-3.014800	3.839700	-11.575000	22.781573	0.001010	20.865808
305.097781	-3.012400	3.838700	-11.562000	22.771831	0.001009	20.884023
306.082794	-2.980800	3.838200	-11.440000	22.811343	0.001011	20.893731
307.088831	-2.994800	3.839100	-11.496000	22.799981	0.001012	20.875712
308.086765	-2.990000	3.837700	-11.473000	22.807779	0.001011	20.901540
309.082666	-2.999100	3.840600	-11.517000	22.800702	0.001012	20.878806
310.086316	-3.009600	3.837300	-11.547000	22.798660	0.001013	20.867278
311.097505	-3.004400	3.838000	-11.529000	22.824970	0.001013	20.863762
312.083479	-3.014900	3.837000	-11.568000	22.836674	0.001013	20.862685
313.087322	-2.987800	3.837700	-11.465000	22.855259	0.001015	20.884621
314.096889	-3.002500	3.837200	-11.520000	22.828928	0.001014	20.869623
315.093371	-3.009700	3.836800	-11.545000	22.836951	0.001015	20.862015
316.087202	-2.990300	3.838100	-11.476000	22.855034	0.001014	20.869224
317.099051	-2.994800	3.837600	-11.491000	22.855732	0.001015	20.872294
318.097037	-2.999000	3.837200	-11.507000	22.848308	0.001017	20.860116
319.096367	-3.013900	3.835800	-11.559000	22.879695	0.001016	20.849360
320.095262	-2.998400	3.835900	-11.500000	22.884851	0.001018	20.860215
321.088399	-3.013000	3.836500	-11.557000	22.881687	0.001018	20.868899
322.094467	-2.998400	3.835500	-11.499000	22.896906	0.001019	20.858068
323.092905	-2.990200	3.835300	-11.467000	22.894441	0.001019	20.858443
324.084514	-2.994900	3.835100	-11.485000	22.883803	0.001018	20.851580
325.092287	-2.972800	3.835900	-11.402000	22.904977	0.001020	20.851929
326.089084	-2.987700	3.835500	-11.458000	22.887989	0.001019	20.862884
327.091653	-2.989300	3.834200	-11.460000	22.897479	0.001021	20.858168
328.092156	-3.008000	3.835000	-11.535000	22.886145	0.001021	20.848710
329.100920	-3.002700	3.833600	-11.509000	22.889706	0.001020	20.850381
330.088551	-2.980000	3.834200	-11.424000	22.890055	0.001021	20.875385
331.095942	-2.992800	3.834600	-11.476000	22.898351	0.001022	20.849559
332.109231	-3.001200	3.832800	-11.502000	22.894987	0.001023	20.849033
333.087198	-2.991800	3.834500	-11.471000	22.894989	0.001023	20.859940
334.088853	-2.978300	3.833300	-11.415000	22.911502	0.001023	20.857992
335.101110	-3.022100	3.831600	-11.578000	22.906196	0.001022	20.840349
336.100125	-3.015700	3.833200	-11.558000	22.923435	0.001024	20.865205
337.091869	-2.994400	3.832000	-11.473000	22.941520	0.001024	20.847764
338.091947	-3.005200	3.831700	-11.515000	22.956739	0.001026	20.827450
339.094916	-3.012600	3.832900	-11.546000	22.970436	0.001026	20.848286
340.090433	-3.021000	3.830900	-11.572000	22.951533	0.001027	20.845942
341.093494	-2.994900	3.832600	-11.477000	22.958357	0.001026	20.845666
342.097541	-2.998800	3.832200	-11.491000	22.942215	0.001030	20.826649
343.096219	-3.005800	3.832100	-11.517000	22.948993	0.001030	20.864259
344.096035	-2.995500	3.831000	-11.474000	22.949816	0.001027	20.835687
345.093857	-3.020100	3.829900	-11.565000	22.930261	0.001029	20.840277
346.094753	-3.012500	3.829500	-11.536000	22.932129	0.001030	20.847364
347.100265	-2.990400	3.830100	-11.452000	22.921368	0.001030	20.837532
348.098029	-2.964700	3.831300	-11.357000	22.902239	0.001029	20.834488
349.099098	-3.024200	3.828600	-11.577000	22.922391	0.001031	20.839031
350.095332	-3.013800	3.829400	-11.538000	22.902739	0.001032	20.828825
351.097857	-2.990300	3.830500	-11.452000	22.917784	0.001030	20.829200
352.091330	-2.997200	3.828400	-11.474000	22.928597	0.001032	20.822964
353.097762	-3.010200	3.829900	-11.528000	22.914848	0.001032	20.843801
354.092935	-3.002200	3.827000	-11.487000	22.945982	0.001034	20.838484
355.095229	-2.993700	3.829700	-11.464000	22.936692	0.001033	20.831548
356.118652	-2.980100	3.827600	-11.405000	22.944515	0.001033	20.821367
357.096451	-3.012500	3.828000	-11.531000	22.945087	0.001035	20.860820
358.097814	-3.014400	3.829100	-11.541000	22.981181	0.001035	20.821119
359.099773	-2.987700	3.827500	-11.434000	22.987035	0.001035	20.849743
360.104270	-2.998500	3.827300	-11.475000	23.004919	0.001036	20.833997
361.094826	-3.021800	3.825400	-11.559000	22.998219	0.001037	20.824914
362.096007	-2.992100	3.827000	-11.450000	23.013140	0.001035	20.830854
363.094431	-2.999200	3.827700	-11.479000	23.002580	0.001036	20.825016
364.099695	-3.008100	3.825900	-11.508000	23.032495	0.001038	20.804255
365.118450	-2.987100	3.826800	-11.429000	23.033714	0.001038	20.827761
366.106187	-2.984500	3.825600	-11.416000	23.044052	0.001039	20.838120
367.098577	-3.024100	3.825100	-11.566000	23.025597	0.001038	20.812990
368.109713	-3.011800	3.825700	-11.521000	23.050928	0.001039	20.826991
369.100441	-2.993900	3.825200	-11.452000	23.063355	0.001039	20.826167
370.102641	-2.992500	3.826300	-11.449000	23.053019	0.001039	20.829086
371.107811	-3.002500	3.825600	-11.486000	23.058303	0.001040	20.817311
372.100739	-2.997700	3.825200	-11.466000	23.066744	0.001037	20.821028
373.098849	-2.999500	3.824500	-11.470000	23.057778	0.001039	20.823423
374.123846	-2.993800	3.823700	-11.446000	23.038576	0.001040	20.820779
375.109826	-2.982700	3.825000	-11.406000	23.027343	0.001043	20.815688
376.097770	-3.006700	3.823100	-11.494000	23.037603	0.001040	20.815537
377.099405	-2.990900	3.823400	-11.433000	23.028463	0.001043	20.811595
378.106237	-3.010700	3.823300	-11.509000	23.045051	0.001041	20.809723
379.096965	-3.019800	3.823000	-11.542000	23.058253	0.001043	20.804934
380.099322	-2.976900	3.824100	-11.381000	23.045974	0.001041	20.798795
381.097200	-3.013200	3.821300	-11.512000	23.039151	0.001043	20.820407
382.099890	-2.984500	3.822600	-11.408000	23.006748	0.001042	20.814493
383.126723	-3.005200	3.821000	-11.482000	23.032974	0.001046	20.827968
384.101585	-3.007900	3.822900	-11.496000	23.049489	0.001044	20.813222
385.103292	-2.989000	3.820900	-11.420000	23.066374	0.001043	20.812597
386.118251	-2.989900	3.822000	-11.426000	23.090532	0.001044	20.816415
387.109801	-2.993800	3.820800	-11.438000	23.086449	0.001045	20.799047
388.114991	-2.993500	3.821400	-11.439000	23.092078	0.001045	20.796627
389.113288	-3.009700	3.818900	-11.492000	23.124429	0.001048	20.805336
390.100455	-3.019800	3.818700	-11.531000	23.097135	0.001047	20.807383
391.102218	-3.008600	3.820200	-11.492000	23.098331	0.001047	20.815694
392.106949	-2.990900	3.820500	-11.425000	23.114866	0.001045	20.822780
393.118982	-2.992000	3.819500	-11.427000	23.124730	0.001046	20.800422
394.110076	-3.012700	3.817300	-11.499000	23.148712	0.001048	20.812125
395.104684	-2.980900	3.820700	-11.388000	23.137033	0.001047	20.794258
396.102486	-2.994200	3.819200	-11.435000	23.133620	0.001049	20.787519
397.102465	-2.999700	3.818700	-11.454000	23.169754	0.001049	20.784373
398.113681	-3.022300	3.817900	-11.538000	23.161264	0.001048	20.802418
399.105110	-3.000900	3.816700	-11.452000	23.163331	0.001050	20.803541
400.106299	-3.004800	3.816900	-11.468000	23.178571	0.001053	20.804114
401.117997	-3.005400	3.817800	-11.473000	23.160192	0.001052	20.798973
402.111065	-2.980700	3.816700	-11.374000	23.144428	0.001051	20.782703
403.107367	-2.990100	3.817000	-11.412000	23.158874	0.001051	20.793859
404.115498	-2.980700	3.817100	-11.377000	23.156805	0.001052	20.793209
405.122734	-3.012400	3.816100	-11.495000	23.178596	0.001052	20.795604
406.112428	-2.995600	3.815900	-11.430000	23.187588	0.001052	20.783752
407.108638	-3.001200	3.814600	-11.447000	23.186243	0.001054	20.790465
408.120941	-3.007800	3.815000	-11.472000	23.175682	0.001051	20.789366
409.110854	-2.985900	3.814700	-11.389000	23.206514	0.001054	20.806038
410.108705	-3.002800	3.814100	-11.452000	23.210797	0.001054	20.792312
411.115649	-3.017400	3.812900	-11.503000	23.212041	0.001052	20.793558
412.114925	-3.004100	3.813200	-11.454000	23.215750	0.001055	20.798223
413.105556	-3.007000	3.813200	-11.465000	23.220979	0.001054	20.792084
414.111499	-3.027800	3.813200	-11.544000	23.227204	0.001056	20.804961
415.117206	-3.008300	3.813600	-11.471000	23.235198	0.001058	20.799695
416.108436	-3.007700	3.812700	-11.465000	23.250987	0.001055	20.794182
417.123360	-2.984600	3.814400	-11.383000	23.240128	0.001054	20.791834
418.110390	-3.000700	3.812400	-11.439000	23.246477	0.001058	20.802464
419.117253	-3.014300	3.812500	-11.491000	23.248345	0.001060	20.800068
420.108632	-2.965600	3.815000	-11.312000	23.262189	0.001057	20.789761
421.118743	-2.990700	3.812300	-11.400000	23.265974	0.001056	20.787390
422.113694	-3.011800	3.811900	-11.479000	23.262762	0.001060	20.807404
423.111583	-3.011100	3.811600	-11.476000	23.264109	0.001059	20.790262
424.113373	-3.000400	3.811400	-11.434000	23.276433	0.001057	20.811622
425.122425	-3.003000	3.810200	-11.440000	23.285670	0.001059	20.790059
426.112330	-3.009500	3.811100	-11.468000	23.267989	0.001060	20.788461
427.117218	-2.987000	3.810600	-11.382000	23.278897	0.001061	20.752925
428.119638	-2.996600	3.811400	-11.420000	23.257654	0.001061	20.789009
429.115869	-2.958200	3.811000	-11.272000	23.244084	0.001062	20.770194
430.113487	-3.014300	3.809800	-11.483000	23.223789	0.001059	20.774985
431.122040	-2.993000	3.809700	-11.400000	23.234322	0.001060	20.795024
432.115446	-2.998200	3.808800	-11.419000	23.257256	0.001062	20.787661
433.115829	-3.027500	3.809000	-11.530000	23.265846	0.001061	20.792477
434.127404	-3.020200	3.808400	-11.501000	23.288856	0.001063	20.778553
435.114526	-3.016700	3.808200	-11.487000	23.291194	0.001063	20.788009
436.118914	-3.007500	3.807200	-11.449000	23.253865	0.001064	20.788531
437.122439	-2.996400	3.808300	-11.410000	23.242661	0.001065	20.786311
438.126835	-3.007100	3.807500	-11.448000	23.244254	0.001064	20.778425
439.115414	-3.007800	3.806800	-11.450000	23.232822	0.001064	20.772658
440.122277	-3.022100	3.806600	-11.502000	23.274534	0.001064	20.795494
441.114366	-2.986700	3.807100	-11.370000	23.278540	0.001065	20.799035
442.117455	-2.997300	3.807000	-11.410000	23.292409	0.001066	20.785908
443.117373	-2.987400	3.807300	-11.373000	23.294700	0.001066	20.787255
444.114212	-2.988300	3.806200	-11.373000	23.308493	0.001066	20.803923
445.116918	-2.993800	3.806100	-11.394000	23.293353	0.001066	20.770732
446.117084	-3.018000	3.805200	-11.484000	23.311183	0.001065	20.773902
447.120753	-3.003200	3.805500	-11.428000	23.325026	0.001067	20.778294
448.121682	-3.018000	3.803500	-11.478000	23.348582	0.001067	20.789574
449.127751	-2.997400	3.803800	-11.400000	23.347309	0.001067	20.789247
450.118777	-3.009900	3.804200	-11.450000	23.362671	0.001066	20.761970
451.117717	-3.009900	3.803900	-11.446000	23.352239	0.001066	20.764790
452.120178	-2.998100	3.804400	-11.405000	23.358713	0.001067	20.782659
453.123089	-3.002200	3.803600	-11.417000	23.338492	0.001066	20.789419
454.118734	-3.005700	3.803400	-11.432000	23.332716	0.001070	20.773198
455.124552	-3.008400	3.802800	-11.440000	23.345165	0.001069	20.770977
456.125471	-3.000800	3.802800	-11.410000	23.357938	0.001070	20.763864
457.134900	-3.022000	3.800700	-11.483000	23.331146	0.001068	20.781582
458.129333	-2.982900	3.802800	-11.342000	23.347630	0.001070	20.776292
459.128637	-3.020700	3.799700	-11.477000	23.336224	0.001070	20.754903
460.135053	-3.023900	3.801100	-11.494000	23.303803	0.001069	20.750859
461.125205	-2.984100	3.800700	-11.341000	23.315083	0.001070	20.775915
462.126400	-3.009100	3.800600	-11.436000	23.267621	0.001071	20.776238
463.144633	-2.996000	3.801900	-11.389000	23.283409	0.001069	20.768353
464.129048	-3.015800	3.800600	-11.461000	23.325068	0.001069	20.761265
465.131062	-3.002400	3.802200	-11.415000	23.271059	0.001071	20.766881
466.129494	-3.015600	3.798600	-11.454000	23.306243	0.001071	20.779857
467.125270	-2.990000	3.799900	-11.360000	23.293419	0.001069	20.787868
468.123976	-2.977100	3.800700	-11.313000	23.285027	0.001070	20.759543
469.140754	-3.000100	3.798900	-11.396000	23.322925	0.001072	20.784723
470.131824	-2.992200	3.799400	-11.367000	23.320535	0.001072	20.760516
471.122554	-2.976000	3.799900	-11.307000	23.336870	0.001071	20.761715
472.125868	-2.986900	3.798000	-11.343000	23.359500	0.001073	20.770171
473.123288	-2.992200	3.798100	-11.364000	23.385947	0.001074	20.763013
474.127407	-3.004000	3.797100	-11.405000	23.391099	0.001074	20.741624
475.130285	-2.993400	3.796800	-11.364000	23.393016	0.001073	20.767254
476.124423	-3.006000	3.797400	-11.415000	23.421898	0.001073	20.760640
477.130665	-2.999000	3.797800	-11.387000	23.404368	0.001072	20.762036
478.129306	-2.982700	3.797300	-11.325000	23.431609	0.001074	20.762787
479.125072	-2.998000	3.796800	-11.382000	23.431461	0.001074	20.780657
480.133735	-2.990000	3.795400	-11.348000	23.422497	0.001075	20.750809
481.127798	-3.000500	3.795400	-11.387000	23.428670	0.001074	20.770747
482.125561	-3.004400	3.795000	-11.401000	23.453917	0.001075	20.756224
483.131649	-3.023400	3.793500	-11.468000	23.447718	0.001075	20.762812
484.136573	-3.002200	3.794900	-11.392000	23.467460	0.001075	20.752728
485.129553	-2.973900	3.794500	-11.283000	23.472291	0.001075	20.766581
486.137050	-3.028900	3.793500	-11.489000	23.463824	0.001075	20.775637
487.127133	-2.988100	3.794300	-11.336000	23.459368	0.001074	20.778758
488.129370	-2.989000	3.794000	-11.339000	23.427874	0.001074	20.763785
489.133300	-3.020100	3.792600	-11.453000	23.423790	0.001074	20.760640
490.156210	-2.975900	3.794200	-11.289000	23.441345	0.001076	20.744096
491.134591	-3.008400	3.792800	-11.408000	23.438680	0.001076	20.757073
492.132565	-3.001100	3.791800	-11.377000	23.467387	0.001076	20.753130
493.137770	-3.019500	3.792700	-11.452000	23.465470	0.001078	20.751683
494.127461	-2.984400	3.792600	-11.318000	23.465621	0.001080	20.761317
495.139179	-3.007700	3.792400	-11.406000	23.435646	0.001079	20.742176
496.135564	-2.977800	3.793100	-11.293000	23.444609	0.001078	20.760644
497.138015	-3.006200	3.792200	-11.399000	23.436840	0.001079	20.757124
498.149928	-3.009600	3.791300	-11.408000	23.420708	0.001079	20.758973
499.136213	-3.013800	3.791300	-11.426000	23.426061	0.001079	20.734940
500.136414	-3.017700	3.788300	-11.431000	23.422276	0.001079	20.755803
501.133866	-3.005600	3.789700	-11.389000	23.440079	0.001080	20.752310
502.131189	-3.014700	3.789400	-11.423000	23.453299	0.001078	20.743276
503.134630	-3.002200	3.788800	-11.374000	23.470953	0.001078	20.748169
504.129485	-3.004300	3.790500	-11.387000	23.493510	0.001079	20.783582
505.133790	-2.989300	3.790700	-11.330000	23.472176	0.001080	20.747498
506.135345	-2.993000	3.788100	-11.338000	23.486292	0.001079	20.740785
507.132837	-2.980600	3.788700	-11.292000	23.495678	0.001080	20.741659
508.131499	-2.993300	3.787500	-11.336000	23.506781	0.001081	20.764168
509.150901	-3.021500	3.787700	-11.443000	23.480965	0.001082	20.736393
510.133983	-2.994100	3.787800	-11.340000	23.484227	0.001082	20.742982
511.135233	-2.999300	3.786800	-11.357000	23.513135	0.001081	20.751097
512.150263	-3.011200	3.786500	-11.400000	23.531033	0.001080	20.756710
513.139628	-3.017400	3.784700	-11.419000	23.546868	0.001081	20.768316
514.139492	-2.998100	3.785700	-11.349000	23.562204	0.001081	20.738170
515.149444	-2.996000	3.786200	-11.342000	23.572585	0.001079	20.748103
516.136508	-3.002300	3.784900	-11.362000	23.584137	0.001080	20.731233
517.141152	-2.999700	3.786700	-11.358000	23.553890	0.001081	20.740267
518.139254	-2.976500	3.786000	-11.268000	23.552946	0.001081	20.737899
519.137862	-2.972000	3.784400	-11.246000	23.558199	0.001083	20.758338
520.145872	-3.013900	3.784400	-11.404000	23.572315	0.001082	20.762057
521.139997	-3.008500	3.785100	-11.386000	23.586754	0.001083	20.749030
522.139830	-2.983600	3.784000	-11.289000	23.589020	0.001083	20.747508
523.139749	-2.974800	3.785100	-11.258000	23.610180	0.001083	20.733633
524.143588	-3.001500	3.783500	-11.355000	23.613415	0.001081	20.750153
525.145576	-2.989800	3.783600	-11.310000	23.612048	0.001083	20.742144
526.144802	-2.997300	3.783400	-11.339000	23.599998	0.001084	20.750453
527.149576	-3.001000	3.783500	-11.353000	23.597135	0.001082	20.736203
528.152445	-3.017900	3.781900	-11.412000	23.581603	0.001083	20.742444
529.143761	-3.012000	3.781400	-11.388000	23.554766	0.001082	20.744465
530.141881	-2.999400	3.783400	-11.347000	23.575328	0.001083	20.739947
531.147017	-2.986600	3.780900	-11.290000	23.557579	0.001084	20.756294
532.157292	-2.987700	3.781700	-11.297000	23.576724	0.001083	20.756520
533.143094	-3.011000	3.780600	-11.383000	23.585013	0.001084	20.754397
534.160378	-3.003300	3.781200	-11.355000	23.592058	0.001084	20.731587
535.142629	-2.989900	3.781000	-11.304000	23.615086	0.001083	20.773165
536.144613	-3.007100	3.778800	-11.362000	23.604606	0.001085	20.733260
537.145831	-2.971800	3.781300	-11.237000	23.603885	0.001084	20.759566
538.154964	-2.983200	3.779500	-11.274000	23.603608	0.001087	20.747434
539.154197	-3.044200	3.777500	-11.498000	23.601444	0.001084	20.745738
540.146479	-2.991500	3.780000	-11.307000	23.619615	0.001085	20.753998
541.151337	-3.015500	3.777600	-11.390000	23.595917	0.001085	20.744939
542.155820	-2.987600	3.778400	-11.287000	23.619739	0.001083	20.751277
543.163553	-2.982200	3.778600	-11.267000	23.625692	0.001084	20.748710
544.145170	-3.016600	3.777500	-11.394000	23.635473	0.001085	20.749507
545.148093	-2.993500	3.776600	-11.304000	23.609237	0.001084	20.755921
546.145798	-3.023600	3.775000	-11.412000	23.610629	0.001086	20.756843
547.146530	-3.014900	3.776900	-11.386000	23.593750	0.001087	20.739922
548.141957	-3.002500	3.775400	-11.334000	23.627457	0.001085	20.754273
549.153621	-3.021600	3.774600	-11.404000	23.631464	0.001084	20.747858
550.143797	-2.990500	3.775500	-11.290000	23.616403	0.001085	20.759787
551.146887	-3.009700	3.775100	-11.361000	23.629399	0.001086	20.759539
552.147288	-2.993100	3.774400	-11.296000	23.619318	0.001086	20.768873
553.158782	-2.989500	3.776200	-11.288000	23.568134	0.001087	20.769246
554.156910	-2.986900	3.773400	-11.270000	23.607266	0.001085	20.755843
555.152686	-3.022700	3.773700	-11.405000	23.620061	0.001086	20.759187
556.165408	-3.009600	3.773300	-11.355000	23.640773	0.001086	20.760984
557.145987	-3.008200	3.772800	-11.349000	23.664419	0.001085	20.754344
558.163573	-2.995500	3.774100	-11.304000	23.664096	0.001086	20.769194
559.158576	-2.982100	3.774600	-11.255000	23.676517	0.001086	20.750826
560.154867	-3.003500	3.772900	-11.330000	23.680350	0.001086	20.738073
561.149372	-3.018700	3.771000	-11.381000	23.702678	0.001085	20.777054
562.169777	-2.985200	3.772100	-11.259000	23.694964	0.001085	20.756044
563.152051	-2.989600	3.771600	-11.274000	23.695262	0.001086	20.740694
564.159381	-2.993200	3.772700	-11.292000	23.737152	0.001085	20.762305
565.154388	-2.991600	3.772200	-11.283000	23.732848	0.001086	20.771741
566.166165	-3.008900	3.771700	-11.347000	23.743201	0.001085	20.772637
567.153922	-2.981200	3.771100	-11.241000	23.738947	0.001086	20.739922
568.152326	-3.022500	3.770200	-11.395000	23.740863	0.001086	20.738524
569.150187	-2.975700	3.770600	-11.219000	23.733197	0.001088	20.765927
570.150737	-2.990700	3.769700	-11.273000	23.696631	0.001087	20.751550
571.162369	-2.978800	3.770500	-11.230000	23.675400	0.001088	20.770569
572.164964	-3.025700	3.768700	-11.402000	23.657079	0.001085	20.760261
573.168622	-3.018400	3.768400	-11.373000	23.651480	0.001086	20.757019
574.161680	-3.012900	3.769400	-11.356000	23.650784	0.001086	20.764856
575.161538	-3.002700	3.768000	-11.313000	23.640653	0.001086	20.776037
576.167199	-3.018300	3.767500	-11.369000	23.657081	0.001087	20.794877
577.171004	-3.018300	3.767300	-11.370000	23.668184	0.001086	20.765231
578.158248	-3.005800	3.767500	-11.323000	23.702657	0.001086	20.773714
579.166885	-3.000700	3.766300	-11.300000	23.713413	0.001087	20.770747
580.171924	-3.007000	3.767300	-11.327000	23.733949	0.001085	20.784224
581.156172	-3.012600	3.764700	-11.339000	23.745599	0.001085	20.776464
582.159708	-3.011800	3.765900	-11.341000	23.739201	0.001087	20.774791
583.174806	-2.982400	3.765500	-11.229000	23.752943	0.001086	20.772447
584.166760	-2.993900	3.766000	-11.274000	23.754834	0.001085	20.787146
585.158698	-3.003900	3.765400	-11.310000	23.755181	0.001087	20.764260
586.176712	-3.020000	3.765100	-11.369000	23.740921	0.001087	20.784576
587.161063	-2.985200	3.765000	-11.238000	23.730218	0.001086	20.770051
588.162157	-2.998400	3.764900	-11.288000	23.737760	0.001085	20.760543
589.158801	-3.007900	3.765600	-11.326000	23.741295	0.001084	20.751760
590.167468	-2.997900	3.763900	-11.283000	23.741471	0.001086	20.773747
591.164709	-3.014900	3.763400	-11.345000	23.744732	0.001084	20.774646
592.161853	-2.994400	3.764100	-11.270000	23.776840	0.001087	20.781709
593.174942	-2.994800	3.763500	-11.269000	23.787046	0.001085	20.770604
594.163688	-2.999400	3.762700	-11.284000	23.779007	0.001085	20.771553
595.158129	-3.009000	3.761900	-11.317000	23.778383	0.001086	20.780885
596.173861	-3.009600	3.761100	-11.319000	23.813978	0.001085	20.783384
597.165177	-2.980100	3.762500	-11.211000	23.853228	0.001085	20.769633
598.164468	-2.997700	3.762200	-11.277000	23.859949	0.001085	20.778744
599.168715	-2.992300	3.760700	-11.252000	23.819878	0.001086	20.779816
600.169553	-3.014200	3.760600	-11.334000	23.823988	0.001085	20.780618
601.172196	-2.990600	3.761300	-11.248000	23.816969	0.001086	20.763622
602.188267	-3.002000	3.761100	-11.289000	23.801913	0.001086	20.770812
603.167131	-3.010600	3.760500	-11.320000	23.799399	0.001087	20.776827
604.174778	-3.020000	3.758100	-11.349000	23.841511	0.001085	20.771162
605.163146	-2.988300	3.760200	-11.236000	23.872649	0.001085	20.763503
606.162958	-3.013800	3.757900	-11.324000	23.864162	0.001085	20.763053
607.174922	-3.010700	3.758400	-11.314000	23.864936	0.001086	20.776158
608.169081	-3.003100	3.759400	-11.289000	23.887186	0.001085	20.754371
609.166850	-3.025100	3.757800	-11.367000	23.890198	0.001086	20.780626
610.167193	-3.005700	3.757400	-11.292000	23.892637	0.001087	20.782123
611.168961	-2.988800	3.757400	-11.228000	23.890649	0.001085	20.775862
612.184338	-3.005700	3.756600	-11.290000	23.895202	0.001087	20.783273
613.175157	-3.001500	3.756400	-11.274000	23.902247	0.001086	20.787493
614.162957	-3.016500	3.755100	-11.326000	23.906228	0.001084	20.773941
615.172314	-2.991000	3.756400	-11.235000	23.867332	0.001087	20.784724
616.169702	-3.011100	3.756000	-11.309000	23.882364	0.001085	20.765659
617.179601	-2.999400	3.754700	-11.260000	23.894783	0.001084	20.786172
618.167349	-2.987600	3.754900	-11.217000	23.902799	0.001085	20.785201
619.166836	-3.004600	3.754500	-11.280000	23.926218	0.001085	20.793986
620.165750	-3.006200	3.753600	-11.283000	23.924054	0.001087	20.780911
621.168753	-2.989200	3.755200	-11.224000	23.939012	0.001085	20.775995
622.169844	-2.993900	3.752800	-11.234000	23.921616	0.001084	20.793164
623.189941	-2.986600	3.755000	-11.213000	23.922685	0.001086	20.792814
624.167302	-3.008100	3.752600	-11.287000	23.941900	0.001087	20.793591
625.181511	-2.988100	3.751700	-11.210000	23.935754	0.001086	20.764193
626.178567	-2.995200	3.752000	-11.236000	23.959323	0.001084	20.793993
627.178069	-2.999700	3.752300	-11.254000	23.952803	0.001085	20.780816
628.176132	-3.001200	3.752700	-11.262000	23.974280	0.001084	20.776275
629.176548	-3.017000	3.751900	-11.317000	23.968831	0.001087	20.787881
630.184333	-2.989300	3.752000	-11.215000	23.968309	0.001085	20.782141
631.166906	-2.994800	3.751700	-11.235000	23.946683	0.001087	20.782265
632.180397	-3.008200	3.751200	-11.283000	23.960669	0.001086	20.796291
633.177179	-2.998800	3.750900	-11.247000	23.957684	0.001085	20.790452
634.171872	-2.997700	3.749300	-11.238000	23.921325	0.001084	20.790028
635.167666	-3.006600	3.750700	-11.276000	23.937327	0.001085	20.790902
636.175096	-3.025500	3.749100	-11.342000	23.934914	0.001083	20.785636
637.175653	-2.986300	3.751200	-11.202000	23.970054	0.001085	20.794322
638.169653	-3.004200	3.749300	-11.262000	23.972916	0.001084	20.775855
639.179294	-3.007300	3.750000	-11.277000	23.974012	0.001086	20.782170
640.174692	-3.001500	3.749600	-11.253000	23.948727	0.001082	20.792850
641.177514	-3.001400	3.747700	-11.247000	23.985657	0.001084	20.804279
642.174314	-3.002900	3.747600	-11.252000	23.968638	0.001084	20.779626
643.175677	-3.012700	3.748400	-11.291000	23.972497	0.001084	20.801514
644.181399	-3.010000	3.747100	-11.276000	23.994942	0.001083	20.823548
645.172297	-2.986200	3.747500	-11.190000	23.958560	0.001082	20.800814
646.193372	-2.994100	3.747400	-11.219000	23.953334	0.001083	20.813591
647.175225	-3.006900	3.747200	-11.267000	23.974960	0.001086	20.791181
648.183710	-2.991900	3.747700	-11.211000	23.980859	0.001084	20.813692
649.184104	-2.987700	3.747400	-11.195000	23.969883	0.001083	20.796521
650.178428	-2.993700	3.747000	-11.216000	23.974514	0.001082	20.797847
651.176119	-2.988400	3.747600	-11.197000	23.975561	0.001085	20.797474
652.184214	-2.992600	3.746000	-11.209000	23.976009	0.001082	20.792708
653.183808	-2.984400	3.745200	-11.176000	23.999301	0.001084	20.809427
654.184218	-2.995900	3.743900	-11.215000	24.009007	0.001085	20.813945
655.184105	-3.012400	3.745100	-11.280000	24.001442	0.001083	20.776013
656.186627	-3.012800	3.743000	-11.276000	23.994647	0.001083	20.798122
657.183751	-3.024600	3.743700	-11.323000	23.993132	0.001083	20.794232
658.181472	-3.006000	3.742600	-11.249000	24.003957	0.001083	20.797501
659.190794	-2.996900	3.742900	-11.216000	23.959264	0.001084	20.794408
660.184065	-3.000600	3.742000	-11.227000	23.952568	0.001084	20.797650
661.180916	-3.009500	3.742400	-11.262000	23.976853	0.001082	20.792606
662.181500	-2.989000	3.742000	-11.184000	24.009930	0.001083	20.814397
663.197875	-3.013500	3.740800	-11.270000	24.006848	0.001081	20.790917
664.176867	-3.005800	3.742200	-11.247000	24.036184	0.001082	20.805639
665.182954	-3.003700	3.741600	-11.238000	24.045118	0.001082	20.801796
666.183408	-3.007000	3.741700	-11.251000	24.037206	0.001082	20.804767
667.192097	-2.980400	3.740900	-11.148000	24.066717	0.001083	20.824406
668.185739	-2.989500	3.740900	-11.183000	24.064180	0.001082	20.816171
669.185222	-2.984300	3.741100	-11.164000	24.092821	0.001081	20.810757
670.188543	-3.001900	3.740400	-11.226000	24.092772	0.001081	20.827777
671.195763	-2.978100	3.739600	-11.136000	24.086529	0.001081	20.816774
672.185530	-3.021300	3.738900	-11.296000	24.102653	0.001082	20.804970
673.194774	-3.007800	3.736900	-11.239000	24.124845	0.001081	20.814900
674.187976	-2.972500	3.739200	-11.114000	24.122632	0.001081	20.824060
675.187657	-3.006500	3.738200	-11.238000	24.139005	0.001080	20.797808
676.183737	-2.976600	3.738400	-11.126000	24.127808	0.001081	20.806018
677.199410	-2.985300	3.737500	-11.157000	24.133083	0.001082	20.816998
678.188735	-3.003400	3.737300	-11.223000	24.105640	0.001082	20.796587
679.186534	-3.005400	3.738000	-11.233000	24.123904	0.001083	20.822017
680.196339	-2.997300	3.736800	-11.200000	24.154334	0.001081	20.807018
681.185933	-3.012400	3.736600	-11.256000	24.156173	0.001082	20.821191
682.189448	-2.999900	3.736000	-11.207000	24.157046	0.001081	20.807368
683.204851	-2.996900	3.736600	-11.196000	24.176852	0.001079	20.822491
684.192720	-3.020200	3.736300	-11.283000	24.139829	0.001080	20.815704
685.203812	-3.003100	3.735400	-11.217000	24.160752	0.001081	20.810610
686.190813	-3.009200	3.735800	-11.240000	24.174216	0.001080	20.833597
687.197079	-2.993200	3.735300	-11.179000	24.197803	0.001079	20.828332
688.190655	-3.011600	3.735300	-11.248000	24.182302	0.001079	20.828905
689.185459	-2.975900	3.735000	-11.114000	24.200936	0.001079	20.819147
690.194148	-2.964900	3.735800	-11.075000	24.169439	0.001080	20.826910
691.195750	-2.989600	3.733500	-11.161000	24.186084	0.001080	20.843130
692.195978	-3.004200	3.734800	-11.218000	24.185512	0.001079	20.816478
693.191202	-2.999300	3.733600	-11.197000	24.160707	0.001079	20.813884
694.192739	-3.009200	3.733700	-11.234000	24.153316	0.001080	20.835394
695.188832	-3.002500	3.732900	-11.207000	24.139980	0.001077	20.823916
696.204926	-3.016900	3.732600	-11.259000	24.125921	0.001077	20.846324
697.202817	-3.005700	3.732100	-11.217000	24.112961	0.001079	20.844706
698.210605	-2.997000	3.733200	-11.187000	24.108357	0.001077	20.831554
699.187334	-2.996800	3.731000	-11.180000	24.087209	0.001077	20.845904
700.201617	-3.030300	3.729100	-11.299000	24.112563	0.001077	20.840987
701.202875	-3.021100	3.730200	-11.268000	24.102587	0.001076	20.853267
702.192393	-2.987500	3.731300	-11.147000	24.143094	0.001078	20.850271
703.195025	-3.007200	3.730000	-11.216000	24.157726	0.001077	20.847878
704.200046	-2.980000	3.730300	-11.116000	24.163003	0.001078	20.834205
705.200889	-2.996600	3.730300	-11.176000	24.178430	0.001077	20.850625
706.201626	-2.993500	3.730000	-11.165000	24.188555	0.001077	20.848928
707.201507	-3.013000	3.729400	-11.235000	24.202938	0.001077	20.842965
708.200124	-2.986500	3.730300	-11.139000	24.181118	0.001077	20.839097
709.203437	-3.004600	3.728700	-11.201000	24.192515	0.001078	20.849580
710.201742	-3.008800	3.728700	-11.218000	24.193112	0.001076	20.866773
711.202823	-2.992300	3.729200	-11.158000	24.209709	0.001077	20.831739
712.204445	-2.983300	3.727500	-11.119000	24.218740	0.001076	20.849806
713.192120	-3.010500	3.728200	-11.223000	24.209013	0.001077	20.830093
714.197003	-3.021400	3.726200	-11.258000	24.208018	0.001076	20.820087
715.201915	-3.006600	3.726900	-11.205000	24.223247	0.001077	20.840576
716.201428	-3.019000	3.726800	-11.250000	24.222153	0.001077	20.838056
717.200898	-3.001800	3.726200	-11.184000	24.227352	0.001075	20.877883
718.213825	-2.999000	3.726400	-11.174000	24.219591	0.001074	20.855401
719.197826	-3.001000	3.726000	-11.181000	24.211532	0.001074	20.849689
720.198289	-3.002700	3.725500	-11.186000	24.223796	0.001075	20.844920
721.207029	-3.004700	3.724900	-11.191000	24.257111	0.001073	20.844198
722.202314	-3.005100	3.725000	-11.194000	24.234072	0.001074	20.857123
723.203026	-2.973600	3.725600	-11.077000	24.237955	0.001074	20.861492
724.218458	-3.005900	3.723000	-11.190000	24.232431	0.001072	20.856426
725.199760	-3.010700	3.723600	-11.210000	24.207926	0.001075	20.857925
726.205010	-3.007100	3.723700	-11.197000	24.185087	0.001074	20.862991
727.212073	-3.002500	3.723300	-11.178000	24.170929	0.001073	20.878662
728.203297	-3.012100	3.722800	-11.211000	24.147045	0.001074	20.860871
729.226294	-3.017300	3.721700	-11.228000	24.150802	0.001072	20.857528
730.201998	-3.011200	3.722500	-11.209000	24.161405	0.001074	20.873377
731.216534	-2.981800	3.721800	-11.097000	24.160135	0.001071	20.874000
732.208265	-3.008500	3.722200	-11.196000	24.157499	0.001072	20.889847
733.209329	-3.007100	3.721200	-11.190000	24.178174	0.001070	20.867911
734.203792	-2.986200	3.722200	-11.114000	24.195368	0.001071	20.851493
735.216445	-3.008200	3.719400	-11.188000	24.214898	0.001071	20.875822
736.203174	-3.015000	3.722000	-11.220000	24.236219	0.001071	20.868760
737.203481	-2.992600	3.721300	-11.136000	24.238036	0.001071	20.866789
738.198729	-2.986200	3.721700	-11.113000	24.208230	0.001070	20.860126
739.204529	-3.020700	3.720000	-11.235000	24.191264	0.001070	20.852592
740.205550	-3.011700	3.720500	-11.204000	24.222387	0.001069	20.888549
741.217580	-3.008700	3.719700	-11.191000	24.196117	0.001070	20.884959
742.200603	-3.012200	3.720500	-11.206000	24.236519	0.001069	20.868586
743.198918	-3.000600	3.719500	-11.160000	24.252915	0.001068	20.877920
744.213956	-2.999400	3.718300	-11.152000	24.269014	0.001069	20.873680
745.230070	-2.999300	3.717700	-11.149000	24.247965	0.001068	20.886704
746.211680	-2.991500	3.718400	-11.122000	24.265428	0.001069	20.876247
747.220315	-3.012500	3.718600	-11.201000	24.286105	0.001070	20.870435
748.220316	-3.012000	3.718000	-11.198000	24.294613	0.001068	20.892719
749.223262	-3.010700	3.716900	-11.190000	24.289463	0.001068	20.871433
750.216207	-2.979900	3.718300	-11.079000	24.300384	0.001069	20.870535
751.211890	-2.992900	3.717300	-11.124000	24.296581	0.001068	20.882839
752.213545	-3.002300	3.718500	-11.163000	24.273218	0.001068	20.869837
753.209050	-2.987500	3.717900	-11.105000	24.311531	0.001068	20.877448
754.221035	-2.995200	3.716500	-11.131000	24.329242	0.001066	20.863448
755.216053	-3.010700	3.715900	-11.186000	24.345387	0.001067	20.862100
756.216896	-2.983900	3.715500	-11.085000	24.331358	0.001069	20.879319
757.215570	-3.008200	3.715600	-11.177000	24.348844	0.001068	20.882162
758.208040	-3.001300	3.714600	-11.148000	24.370611	0.001068	20.894514
759.214087	-3.023300	3.714200	-11.227000	24.380215	0.001067	20.911259
760.216613	-3.003500	3.715600	-11.159000	24.376781	0.001068	20.879841
761.206367	-3.013400	3.714200	-11.191000	24.373074	0.001066	20.888924
762.213881	-2.981000	3.715100	-11.074000	24.348944	0.001065	20.879416
763.215850	-3.002200	3.714800	-11.152000	24.335808	0.001065	20.872404
764.210220	-2.978300	3.714900	-11.064000	24.374888	0.001064	20.896433
765.211637	-3.008800	3.713300	-11.171000	24.334489	0.001067	20.871555
766.213987	-3.002100	3.714600	-11.150000	24.357102	0.001064	20.863895
767.217679	-3.012100	3.712400	-11.181000	24.370557	0.001067	20.874547
768.217285	-3.017400	3.713100	-11.202000	24.347897	0.001065	20.885478
769.225185	-3.005300	3.712100	-11.154000	24.353740	0.001066	20.907459
770.229779	-2.985400	3.712400	-11.082000	24.343740	0.001065	20.886050
771.216174	-2.991900	3.711500	-11.103000	24.345979	0.001064	20.864590
772.221809	-3.013400	3.711300	-11.183000	24.382992	0.001066	20.872323
773.216607	-3.007300	3.711500	-11.160000	24.373539	0.001065	20.866633
774.209325	-2.981700	3.712200	-11.068000	24.392121	0.001064	20.867730
775.215834	-2.990900	3.711700	-11.100000	24.392020	0.001063	20.895602
776.221704	-2.985800	3.710800	-11.078000	24.390154	0.001063	20.865283
777.221045	-3.009500	3.710400	-11.165000	24.361295	0.001064	20.872368
778.229682	-3.012500	3.708900	-11.171000	24.325400	0.001063	20.869076
779.233434	-3.001000	3.709800	-11.132000	24.311839	0.001060	20.847887
780.219349	-3.003800	3.709900	-11.142000	24.290321	0.001062	20.864233
781.218548	-2.991300	3.708300	-11.092000	24.286490	0.001060	20.874140
782.225825	-2.993500	3.710300	-11.106000	24.304226	0.001061	20.851156
783.226744	-2.976800	3.709500	-11.042000	24.325296	0.001062	20.872765
784.221129	-3.008700	3.708100	-11.155000	24.304526	0.001062	20.863310
785.224570	-2.985700	3.706700	-11.065000	24.300569	0.001062	20.861237
786.221588	-3.008200	3.705200	-11.143000	24.327514	0.001060	20.865506
787.229784	-3.015300	3.707300	-11.178000	24.310770	0.001059	20.860564
788.220427	-3.001600	3.706100	-11.123000	24.299250	0.001060	20.869396
789.229690	-3.013100	3.707300	-11.169000	24.323232	0.001059	20.854100
790.222530	-2.988100	3.706900	-11.076000	24.310918	0.001059	20.852653
791.232446	-3.029700	3.705900	-11.227000	24.329503	0.001059	20.852330
792.222221	-3.009100	3.705000	-11.146000	24.361520	0.001060	20.855999
793.224946	-2.993600	3.706700	-11.095000	24.365077	0.001060	20.845342
794.224445	-2.999500	3.707100	-11.118000	24.370301	0.001057	20.860065
795.228210	-2.986900	3.704900	-11.065000	24.382938	0.001060	20.855674
796.237968	-3.017200	3.704600	-11.176000	24.396920	0.001059	20.856423
797.233829	-3.003900	3.705800	-11.131000	24.372988	0.001057	20.843796
798.231513	-3.004500	3.705300	-11.132000	24.349355	0.001059	20.828149
799.241308	-3.001300	3.703400	-11.114000	24.342490	0.001059	20.859194
800.232040	-2.994800	3.703300	-11.090000	24.364134	0.001060	20.854353
801.236333	-2.994800	3.704700	-11.094000	24.371919	0.001057	20.848887
802.228593	-2.993500	3.704700	-11.089000	24.380751	0.001056	20.852057
803.222095	-3.020500	3.704800	-11.190000	24.367643	0.001057	20.848390
804.220712	-2.996700	3.703700	-11.098000	24.366101	0.001057	20.832146
805.223609	-2.986500	3.703200	-11.059000	24.343240	0.001057	20.814903
806.227961	-2.986300	3.702700	-11.056000	24.340577	0.001057	20.827878
807.222017	-3.008000	3.702000	-11.134000	24.306146	0.001054	20.834117
808.233930	-2.998500	3.701300	-11.097000	24.319258	0.001054	20.852958
809.219225	-2.989300	3.702800	-11.068000	24.309631	0.001055	20.834293
810.232966	-2.993100	3.701400	-11.077000	24.261916	0.001053	20.840484
811.232096	-3.015600	3.700300	-11.158000	24.298289	0.001053	20.848519
812.230196	-3.003900	3.700500	-11.114000	24.300080	0.001053	20.831825
813.233420	-2.999900	3.701400	-11.103000	24.310556	0.001053	20.820997
814.232450	-2.991600	3.699700	-11.067000	24.319336	0.001052	20.823166
815.242778	-3.001500	3.700300	-11.105000	24.327248	0.001053	20.832051
816.229801	-2.991200	3.699800	-11.065000	24.316975	0.001054	20.830281
817.231515	-2.979700	3.700400	-11.025000	24.296328	0.001052	20.834225
818.238793	-3.000800	3.699000	-11.100000	24.309563	0.001052	20.835174
819.235057	-3.005800	3.697900	-11.114000	24.298271	0.001054	20.837122
820.239602	-3.029700	3.697700	-11.201000	24.309491	0.001053	20.829886
821.232354	-3.001900	3.699400	-11.104000	24.299216	0.001050	20.833329
822.232354	-3.021500	3.698100	-11.173000	24.300285	0.001051	20.836298
823.244579	-3.019500	3.697400	-11.164000	24.303520	0.001051	20.832904
824.241797	-3.011700	3.696900	-11.133000	24.298744	0.001050	20.827639
825.237768	-3.000600	3.698400	-11.096000	24.321808	0.001050	20.829913
826.227743	-3.006200	3.697400	-11.114000	24.304693	0.001052	20.835503
827.244102	-3.023100	3.696600	-11.174000	24.333949	0.001051	20.825497
828.242210	-3.007200	3.696300	-11.113000	24.344971	0.001050	20.818062
829.242182	-3.017700	3.696500	-11.154000	24.347582	0.001050	20.834905
830.241980	-3.026100	3.695400	-11.182000	24.368955	0.001048	20.819837
831.245615	-3.001900	3.695700	-11.093000	24.374897	0.001047	20.831013
832.262998	-2.989400	3.696500	-11.048000	24.408954	0.001047	20.814445
833.246668	-3.013600	3.694900	-11.134000	24.457313	0.001049	20.831665
834.255858	-3.027300	3.695200	-11.185000	24.446940	0.001046	20.824578
835.236467	-2.989800	3.696600	-11.051000	24.428134	0.001047	20.832264
836.246271	-3.003300	3.695500	-11.098000	24.442189	0.001046	20.822657
837.259588	-2.994200	3.694800	-11.062000	24.448160	0.001046	20.824379
838.253119	-3.007000	3.695000	-11.110000	24.468334	0.001046	20.808583
839.235727	-2.999500	3.695000	-11.081000	24.450127	0.001047	20.821611
840.265081	-2.994100	3.695200	-11.063000	24.446744	0.001045	20.811580
841.247889	-2.986200	3.694300	-11.031000	24.443661	0.001047	20.809435
842.253896	-2.972200	3.693400	-10.976000	24.452616	0.001045	20.817470
843.249344	-2.993000	3.692400	-11.049000	24.448835	0.001044	20.804668
844.245619	-2.985400	3.693800	-11.026000	24.434607	0.001043	20.821688
845.236371	-2.998600	3.692700	-11.072000	24.425182	0.001046	20.794215
846.248660	-2.996700	3.693300	-11.066000	24.403888	0.001044	20.798931
847.255924	-3.008000	3.691400	-11.103000	24.400954	0.001043	20.812108
848.235501	-2.991700	3.692600	-11.046000	24.428089	0.001043	20.804718
849.249782	-2.995500	3.692400	-11.060000	24.410231	0.001043	20.813354
850.250578	-3.026600	3.690900	-11.169000	24.417521	0.001044	20.801228
851.242730	-2.995600	3.692000	-11.059000	24.435458	0.001042	20.812585
852.246041	-3.019700	3.690500	-11.142000	24.400283	0.001043	20.810961
853.245833	-3.010500	3.690500	-11.109000	24.386007	0.001042	20.807071
854.251053	-2.997800	3.690700	-11.063000	24.415857	0.001042	20.794818
855.247817	-3.007100	3.690800	-11.096000	24.418768	0.001042	20.818125
856.249081	-3.003500	3.690500	-11.084000	24.445460	0.001040	20.810291
857.251281	-2.991300	3.689200	-11.034000	24.444512	0.001041	20.833047
858.248128	-3.006300	3.690200	-11.093000	24.472973	0.001041	20.807548
859.267002	-3.005200	3.688200	-11.083000	24.511575	0.001040	20.839164
860.252982	-2.998400	3.689200	-11.061000	24.502200	0.001039	20.785662
861.262564	-2.993000	3.689100	-11.041000	24.527992	0.001041	20.796841
862.250110	-3.007800	3.688300	-11.092000	24.513292	0.001039	20.798214
863.251776	-2.991300	3.688400	-11.032000	24.501155	0.001040	20.814012
864.249489	-2.986700	3.689300	-11.018000	24.497248	0.001037	20.786385
865.254783	-2.979700	3.688200	-10.989000	24.507173	0.001040	20.821472
866.252979	-3.001800	3.687700	-11.069000	24.493718	0.001040	20.797067
867.246821	-2.996900	3.687400	-11.050000	24.472651	0.001036	20.795845
868.256448	-3.007000	3.686900	-11.085000	24.470384	0.001039	20.796416
869.246793	-3.006200	3.686000	-11.080000	24.450935	0.001036	20.800612
870.248794	-2.993600	3.687800	-11.039000	24.429690	0.001036	20.804427
871.257006	-2.991900	3.686400	-11.028000	24.416609	0.001039	20.773761
872.252423	-3.010700	3.686400	-11.097000	24.398125	0.001039	20.788408
873.252459	-3.005200	3.684400	-11.072000	24.396759	0.001037	20.796995
874.264122	-3.021800	3.683900	-11.131000	24.387927	0.001036	20.807101
875.250415	-2.998700	3.685300	-11.050000	24.416013	0.001033	20.792129
876.264953	-3.003200	3.683700	-11.062000	24.450641	0.001035	20.778031
877.270247	-2.997200	3.685800	-11.046000	24.473027	0.001035	20.798593
878.260760	-3.024000	3.682900	-11.136000	24.473502	0.001036	20.791957
879.260708	-2.985600	3.683900	-10.997000	24.456364	0.001036	20.788988
880.271057	-2.993700	3.683600	-11.027000	24.484570	0.001036	20.786940
881.262220	-2.998500	3.682700	-11.041000	24.500492	0.001035	20.783000
882.269196	-3.007000	3.683800	-11.075000	24.517107	0.001035	20.811524
883.260509	-2.981800	3.683200	-10.982000	24.511809	0.001035	20.783924
884.249973	-2.990900	3.682600	-11.013000	24.518351	0.001033	20.804238
885.270324	-2.992800	3.682300	-11.020000	24.538848	0.001032	20.789716
886.276002	-2.996600	3.681100	-11.030000	24.564939	0.001033	20.784125
887.264654	-2.992300	3.682200	-11.017000	24.538922	0.001033	20.791213
888.270111	-3.003500	3.682000	-11.058000	24.537903	0.001031	20.797776
889.273514	-2.996300	3.682100	-11.032000	24.553399	0.001033	20.776814
890.262634	-2.976500	3.682200	-10.959000	24.555094	0.001032	20.791791
891.270157	-2.977900	3.682300	-10.963000	24.587253	0.001030	20.780910
892.267817	-3.003100	3.680600	-11.052000	24.577952	0.001031	20.796234
893.256519	-2.987500	3.680600	-10.994000	24.574694	0.001031	20.787749
894.262812	-3.002400	3.679600	-11.047000	24.595264	0.001033	20.793216
895.274569	-2.996300	3.679200	-11.023000	24.604668	0.001031	20.768512
896.257133	-2.986400	3.681200	-10.993000	24.584521	0.001030	20.797610
897.253524	-2.993900	3.680400	-11.018000	24.600016	0.001027	20.770009
898.257316	-2.994500	3.679400	-11.016000	24.560918	0.001031	20.763969
899.263890	-2.993300	3.678300	-11.009000	24.567709	0.001028	20.795914
900.266518	-3.003800	3.679300	-11.051000	24.549578	0.001029	20.774877
901.268262	-2.996400	3.677400	-11.017000	24.542166	0.001030	20.784984
902.260953	-3.001100	3.677000	-11.033000	24.548134	0.001028	20.798558
903.266997	-3.004100	3.677900	-11.048000	24.544430	0.001028	20.779669
904.274546	-2.993000	3.677600	-11.006000	24.545251	0.001030	20.775277
905.262125	-3.013000	3.677500	-11.078000	24.562365	0.001027	20.789129
906.264935	-3.001100	3.676100	-11.031000	24.572885	0.001025	20.775503
907.259795	-3.007600	3.677800	-11.061000	24.554109	0.001026	20.770888
908.259003	-3.017600	3.677000	-11.093000	24.555002	0.001025	20.770361
909.263740	-2.995900	3.675400	-11.010000	24.564923	0.001025	20.778420
910.275973	-3.022600	3.675300	-11.107000	24.546622	0.001024	20.765746
911.261310	-2.993800	3.677000	-11.007000	24.516151	0.001026	20.784961
912.278216	-3.029500	3.674000	-11.130000	24.511351	0.001027	20.773033
913.270926	-3.010400	3.673500	-11.057000	24.514733	0.001025	20.773107
914.273214	-3.001000	3.673500	-11.022000	24.495233	0.001023	20.783415
915.270313	-3.016500	3.673700	-11.081000	24.491552	0.001024	20.763599
916.261020	-3.012500	3.675400	-11.071000	24.506103	0.001024	20.765396
917.257788	-2.999100	3.673900	-11.018000	24.525454	0.001023	20.766320
918.272195	-3.003500	3.674200	-11.034000	24.544905	0.001023	20.776826
919.266884	-3.013200	3.672700	-11.066000	24.550476	0.001023	20.773882
920.265153	-2.967500	3.674900	-10.904000	24.560997	0.001023	20.755039
921.265512	-2.981900	3.673300	-10.953000	24.576121	0.001020	20.774008
922.271295	-2.996700	3.672600	-11.004000	24.576695	0.001020	20.768420
923.267365	-3.005500	3.671800	-11.034000	24.599301	0.001022	20.782568
924.282045	-3.001000	3.672400	-11.020000	24.625841	0.001021	20.788335
925.261885	-3.022100	3.670900	-11.092000	24.584180	0.001018	20.758860
926.268074	-3.025300	3.671800	-11.107000	24.572093	0.001019	20.775657
927.271617	-2.983400	3.672400	-10.955000	24.564582	0.001021	20.760533
928.277727	-3.002400	3.671300	-11.021000	24.541102	0.001019	20.764001
929.268489	-3.019700	3.669800	-11.081000	24.531949	0.001018	20.755766
930.274634	-2.994100	3.670900	-10.989000	24.508894	0.001018	20.769145
931.273656	-3.011400	3.670300	-11.052000	24.502426	0.001018	20.752224
932.260479	-3.011800	3.669500	-11.051000	24.505809	0.001019	20.759885
933.272172	-3.018000	3.670000	-11.075000	24.496980	0.001016	20.753398
934.265800	-2.961600	3.670000	-10.869000	24.526204	0.001017	20.760908
935.262305	-2.987600	3.670000	-10.963000	24.559237	0.001016	20.764180
936.273464	-2.995400	3.669100	-10.989000	24.556625	0.001016	20.745436
937.270102	-2.983000	3.671200	-10.950000	24.575280	0.001016	20.759887
938.268248	-2.979600	3.669000	-10.931000	24.578687	0.001016	20.751452
939.270969	-3.000400	3.669000	-11.008000	24.590201	0.001015	20.762057
940.263868	-3.006600	3.668400	-11.029000	24.616939	0.001015	20.748582
941.269223	-3.004600	3.666800	-11.015000	24.618134	0.001016	20.755945
942.270453	-3.028700	3.666000	-11.102000	24.633453	0.001014	20.758515
943.269859	-2.998900	3.668400	-11.000000	24.616766	0.001014	20.756469
944.262949	-2.995200	3.667300	-10.984000	24.596570	0.001012	20.761809
945.284969	-2.987900	3.667500	-10.957000	24.625793	0.001013	20.742768
946.274617	-3.032400	3.665700	-11.115000	24.606521	0.001014	20.740973
947.261202	-2.993300	3.667700	-10.977000	24.612117	0.001013	20.748011
948.291839	-3.033400	3.664400	-11.115000	24.618656	0.001013	20.757891
949.274585	-3.009400	3.665300	-11.029000	24.642382	0.001013	20.741869
950.271138	-3.021700	3.665100	-11.073000	24.641736	0.001011	20.744066
951.268121	-3.015000	3.665300	-11.050000	24.649994	0.001011	20.752353
952.271690	-3.000800	3.665600	-10.999000	24.648950	0.001010	20.738977
953.276707	-3.014200	3.664500	-11.045000	24.635816	0.001011	20.733383
954.283875	-3.006300	3.665600	-11.018000	24.649796	0.001010	20.738403
955.276839	-2.989700	3.664600	-10.955000	24.649920	0.001011	20.750382
956.271111	-2.976900	3.665400	-10.911000	24.656088	0.001009	20.744716
957.269000	-3.028600	3.662700	-11.092000	24.669865	0.001009	20.724401
958.275558	-2.994000	3.663800	-10.968000	24.674939	0.001009	20.748460
959.287605	-2.981100	3.664000	-10.921000	24.646837	0.001008	20.754875
960.277204	-3.011200	3.661500	-11.024000	24.626617	0.001009	20.749284
961.284791	-3.015800	3.662300	-11.044000	24.610375	0.001008	20.743892
962.276471	-2.996300	3.663400	-10.975000	24.579360	0.001008	20.749756
963.276977	-3.004000	3.661700	-10.999000	24.583590	0.001008	20.725076
964.282595	-2.987300	3.662600	-10.939000	24.551456	0.001004	20.749734
965.283356	-3.007700	3.661700	-11.012000	24.533149	0.001006	20.739900
966.271872	-3.008800	3.662400	-11.018000	24.500667	0.001006	20.733388
967.293071	-3.011800	3.660700	-11.024000	24.479820	0.001004	20.733810
968.279736	-3.018000	3.659000	-11.042000	24.495592	0.001004	20.733038
969.276455	-3.005300	3.661300	-11.002000	24.471492	0.001005	20.733515
970.288280	-2.986300	3.659800	-10.928000	24.478900	0.001006	20.728619
971.282594	-3.003700	3.661300	-10.996000	24.518175	0.001004	20.732462
972.281906	-3.012100	3.659000	-11.020000	24.539567	0.001004	20.731166
973.283792	-2.994600	3.660500	-10.960000	24.590731	0.001002	20.733664
974.285959	-2.998900	3.658900	-10.972000	24.586277	0.001003	20.748636
975.282727	-2.990400	3.658900	-10.941000	24.608836	0.001002	20.748512
976.295762	-3.000300	3.658200	-10.975000	24.631244	0.001003	20.731640
977.285240	-2.991100	3.659200	-10.943000	24.635125	0.001001	20.726052
978.280637	-2.975900	3.660500	-10.892000	24.634977	0.001000	20.724006
979.275166	-3.011300	3.658100	-11.015000	24.620724	0.001001	20.744319
980.277604	-2.998700	3.657000	-10.965000	24.626595	0.001001	20.752581
981.282828	-2.999000	3.658000	-10.967000	24.584239	0.001001	20.738056
982.297093	-2.970900	3.659000	-10.869000	24.560286	0.001001	20.727298
983.287821	-2.982100	3.658800	-10.909000	24.532978	0.001002	20.726926
984.279598	-3.009000	3.656400	-11.001000	24.547082	0.000999	20.741077
985.299746	-2.984700	3.658000	-10.916000	24.519375	0.001001	20.752159
986.277975	-3.017200	3.654900	-11.026000	24.540787	0.000999	20.742348
987.288301	-2.974100	3.656200	-10.873000	24.533303	0.000999	20.717293
988.294405	-3.009200	3.655800	-11.000000	24.525744	0.000995	20.747643
989.288673	-3.007000	3.655100	-10.989000	24.501592	0.000998	20.738110
990.291485	-3.009800	3.655600	-11.002000	24.546488	0.000999	20.738584
991.285726	-3.035800	3.653200	-11.089000	24.546908	0.000998	20.749438
992.283363	-3.013600	3.654500	-11.012000	24.572726	0.000999	20.730771
993.286963	-3.009000	3.654500	-10.995000	24.572952	0.000997	20.731946
994.303466	-3.024100	3.653200	-11.045000	24.603170	0.000996	20.755155
995.308156	-3.006500	3.653200	-10.982000	24.606451	0.000996	20.707236
996.292734	-3.022100	3.651900	-11.035000	24.659826	0.000993	20.731397
997.296650	-2.990200	3.652900	-10.922000	24.655575	0.000996	20.725235
998.297396	-2.993500	3.652300	-10.932000	24.643188	0.000994	20.735091
999.291090	-2.991900	3.652400	-10.927000	24.654878	0.000994	20.754882
1000.295102	-3.023600	3.651400	-11.040000	24.703995	0.000996	20.727830
1001.291681	-3.001000	3.651700	-10.956000	24.685193	0.000993	20.735042
1002.288499	-3.016300	3.651000	-11.011000	24.735155	0.000992	20.714528
1003.306630	-2.998500	3.651400	-10.947000	24.743289	0.000995	20.731226
1004.291066	-3.023800	3.649800	-11.035000	24.743712	0.000993	20.732599
1005.294930	-3.005700	3.651500	-10.974000	24.735902	0.000993	20.729503
1006.285309	-3.004100	3.650100	-10.964000	24.741772	0.000991	20.726385
1007.285248	-2.992000	3.651000	-10.922000	24.696709	0.000991	20.726208
1008.299310	-3.012200	3.649900	-10.991000	24.687311	0.000989	20.716303
1009.286639	-2.991600	3.650900	-10.920000	24.699621	0.000991	20.722966
1010.283122	-3.010100	3.648000	-10.980000	24.731998	0.000991	20.758303
1011.284453	-2.994700	3.649700	-10.929000	24.727175	0.000991	20.736866
1012.290750	-3.011400	3.649000	-10.986000	24.709670	0.000989	20.737792
1013.293628	-3.018400	3.647900	-11.010000	24.753238	0.000992	20.744530
1014.285265	-2.981800	3.649500	-10.881000	24.755279	0.000992	20.723343
1015.292149	-3.015500	3.647900	-10.999000	24.765572	0.000988	20.742683
1016.288961	-2.987200	3.648100	-10.897000	24.780444	0.000989	20.736745
1017.283352	-3.009900	3.647300	-10.977000	24.767962	0.000988	20.738917
1018.297482	-3.004500	3.647600	-10.958000	24.777362	0.000988	20.738393
1019.289614	-3.011300	3.646800	-10.981000	24.790663	0.000991	20.738465
1020.290557	-3.007000	3.645900	-10.962000	24.767240	0.000988	20.743408
1021.302132	-2.973400	3.646400	-10.841000	24.777236	0.000988	20.735895
1022.299982	-2.995500	3.645600	-10.919000	24.765426	0.000988	20.736372
1023.288556	-3.011900	3.646700	-10.982000	24.773332	0.000987	20.733875
1024.290874	-3.007100	3.645900	-10.963000	24.763435	0.000986	20.741012
1025.289498	-2.966800	3.646300	-10.817000	24.750205	0.000986	20.724416
1026.296606	-2.993700	3.645800	-10.913000	24.746077	0.000983	20.734498
1027.294077	-3.008100	3.645800	-10.966000	24.736107	0.000984	20.743934
1028.288520	-3.010100	3.645300	-10.972000	24.754235	0.000986	20.734150
1029.300356	-2.996900	3.644100	-10.921000	24.775846	0.000985	20.734500
1030.301029	-3.001000	3.645200	-10.938000	24.797305	0.000983	20.758882
1031.303114	-2.984900	3.644700	-10.878000	24.784249	0.000983	20.737718
1032.297863	-3.014100	3.642800	-10.979000	24.769080	0.000983	20.758532
1033.298872	-3.012100	3.643700	-10.974000	24.739459	0.000982	20.749195
1034.299557	-3.024900	3.641500	-11.012000	24.708425	0.000979	20.746027
1035.296112	-3.002000	3.644000	-10.937000	24.692761	0.000980	20.734101
1036.302067	-3.005200	3.642500	-10.945000	24.720985	0.000981	20.744406
1037.292548	-3.009300	3.642500	-10.960000	24.710790	0.000980	20.737020
1038.301526	-2.980300	3.642300	-10.855000	24.721284	0.000979	20.729058
1039.301804	-3.022000	3.641000	-11.002000	24.706961	0.000979	20.735074
1040.297157	-3.001200	3.641900	-10.929000	24.704250	0.000978	20.749897
1041.294279	-3.011500	3.641300	-10.964000	24.668388	0.000980	20.735722
1042.292959	-2.993900	3.640500	-10.898000	24.632228	0.000978	20.759182
1043.303400	-2.990500	3.641300	-10.888000	24.637626	0.000980	20.743261
1044.299121	-3.013300	3.639900	-10.966000	24.629168	0.000978	20.744731
1045.307826	-2.974000	3.640200	-10.825000	24.636432	0.000976	20.743959
1046.298957	-2.988800	3.640600	-10.881000	24.667844	0.000978	20.752720
1047.307250	-3.002000	3.639500	-10.924000	24.695769	0.000976	20.762251
1048.302458	-2.989600	3.638800	-10.878000	24.704875	0.000976	20.743413
1049.311202	-2.991900	3.640100	-10.888000	24.751526	0.000975	20.748976
1050.314553	-2.987200	3.638900	-10.869000	24.735984	0.000974	20.733852
1051.301928	-2.995600	3.638100	-10.898000	24.758564	0.000975	20.747504
1052.305322	-2.976800	3.639000	-10.832000	24.760231	0.000973	20.760557
1053.307134	-2.980100	3.639200	-10.844000	24.760034	0.000974	20.760359
1054.315857	-2.991100	3.637000	-10.878000	24.776073	0.000975	20.764602
1055.305167	-2.966200	3.638200	-10.790000	24.774233	0.000973	20.755642
1056.308171	-3.000200	3.637900	-10.913000	24.769609	0.000974	20.756218
1057.314318	-2.999400	3.637900	-10.910000	24.781498	0.000974	20.752501
1058.308371	-3.016600	3.635700	-10.967000	24.773488	0.000972	20.752524
1059.302258	-2.997300	3.636700	-10.900000	24.773664	0.000972	20.759338
1060.317740	-3.009200	3.634600	-10.936000	24.771897	0.000973	20.786490
1061.307646	-2.997700	3.636300	-10.899000	24.774408	0.000970	20.750128
1062.310098	-2.990900	3.635600	-10.873000	24.773466	0.000970	20.757243
1063.307448	-2.976800	3.637000	-10.826000	24.791620	0.000973	20.772143
1064.309093	-2.997400	3.635500	-10.896000	24.807236	0.000972	20.756047
1065.311080	-2.995600	3.634700	-10.887000	24.797191	0.000970	20.726524
1066.319683	-3.007900	3.635600	-10.935000	24.758027	0.000969	20.725627
1067.309124	-3.003600	3.633900	-10.914000	24.780259	0.000969	20.755051
1068.313094	-3.020900	3.632700	-10.974000	24.784486	0.000970	20.768303
1069.318761	-3.024100	3.633000	-10.986000	24.781627	0.000968	20.761640
1070.317841	-2.995400	3.633500	-10.882000	24.776753	0.000967	20.767181
1071.316811	-2.979000	3.632100	-10.820000	24.752709	0.000965	20.745895
1072.306734	-3.006900	3.633300	-10.924000	24.759794	0.000966	20.791887
1073.311708	-3.016000	3.632600	-10.954000	24.748083	0.000966	20.751211
1074.311718	-2.996600	3.632100	-10.883000	24.744503	0.000965	20.750463
1075.307493	-2.997800	3.632800	-10.889000	24.734927	0.000965	20.752233
1076.313727	-2.973900	3.631300	-10.798000	24.766062	0.000965	20.771625
1077.322563	-2.997500	3.632200	-10.886000	24.757087	0.000965	20.768308
1078.312094	-3.002300	3.631800	-10.904000	24.789317	0.000965	20.779790
1079.311458	-3.000700	3.630900	-10.894000	24.837681	0.000965	20.773325
1080.312354	-2.983400	3.632200	-10.835000	24.845886	0.000963	20.778715
1081.308084	-2.995800	3.629900	-10.873000	24.855087	0.000963	20.747171
1082.309227	-3.021900	3.627700	-10.961000	24.870928	0.000963	20.759751
1083.324115	-2.986900	3.630300	-10.842000	24.895791	0.000962	20.737762
1084.323294	-3.001600	3.628700	-10.891000	24.863789	0.000963	20.762543
1085.310354	-2.997500	3.629000	-10.876000	24.841463	0.000961	20.754835
1086.321961	-2.984100	3.628700	-10.828000	24.862773	0.000962	20.771955
1087.328760	-2.996200	3.628700	-10.871000	24.831366	0.000962	20.763194
1088.321858	-3.012800	3.627500	-10.928000	24.817940	0.000960	20.755409
1089.326602	-2.997500	3.626500	-10.869000	24.806576	0.000959	20.770083
1090.321856	-2.992000	3.627200	-10.851000	24.786908	0.000959	20.777372
1091.317889	-2.982700	3.626900	-10.816000	24.825746	0.000960	20.753286
1092.332976	-2.993500	3.628800	-10.862000	24.832286	0.000959	20.776446
1093.317308	-3.003800	3.627200	-10.894000	24.832061	0.000959	20.779065
1094.332996	-3.006000	3.627700	-10.904000	24.859589	0.000958	20.768286
1095.330409	-2.989400	3.626500	-10.839000	24.856903	0.000959	20.771754
1096.317019	-2.993500	3.626200	-10.853000	24.843996	0.000957	20.780611
1097.315433	-2.999800	3.624700	-10.872000	24.838327	0.000957	20.788198
1098.335673	-2.974800	3.627100	-10.789000	24.838005	0.000957	20.758951
1099.321869	-2.973600	3.626500	-10.783000	24.843425	0.000955	20.776719
1100.326278	-3.002000	3.625900	-10.884000	24.840266	0.000958	20.783506
1101.329599	-2.997900	3.624200	-10.864000	24.859290	0.000956	20.783633
1102.322889	-2.982700	3.625100	-10.811000	24.867717	0.000955	20.763167
1103.328329	-3.010000	3.624000	-10.905000	24.852849	0.000953	20.791867
1104.323294	-2.996000	3.624000	-10.856000	24.859114	0.000953	20.767335
1105.324279	-2.998400	3.624500	-10.867000	24.851605	0.000954	20.763117
1106.331786	-3.020000	3.623100	-10.941000	24.870102	0.000955	20.782155
1107.323490	-2.998900	3.622100	-10.860000	24.880297	0.000952	20.775793
1108.321153	-3.000000	3.624300	-10.871000	24.901062	0.000954	20.762968
1109.333300	-3.016000	3.624200	-10.929000	24.897854	0.000953	20.787250
1110.321615	-3.007500	3.623400	-10.897000	24.901757	0.000953	20.787848
1111.325798	-3.016200	3.621900	-10.923000	24.909315	0.000952	20.773149
1112.325599	-3.004000	3.621100	-10.876000	24.928910	0.000951	20.787600
1113.333490	-3.013900	3.619900	-10.908000	24.931121	0.000952	20.777017
1114.338295	-3.010800	3.621200	-10.902000	24.937410	0.000949	20.789494
1115.318263	-2.987200	3.621900	-10.819000	24.967097	0.000950	20.769979
1116.325050	-3.019100	3.621900	-10.933000	24.997379	0.000948	20.797530
1117.322202	-3.012900	3.620700	-10.907000	25.005014	0.000949	20.779589
1118.321646	-2.992300	3.620500	-10.832000	25.013740	0.000949	20.771751
1119.324917	-3.009400	3.620100	-10.892000	25.001408	0.000949	20.770753
1120.317046	-3.041100	3.618500	-11.003000	25.030097	0.000950	20.784851
1121.316326	-2.995300	3.620200	-10.843000	25.034299	0.000948	20.800449
1122.323521	-3.012400	3.619300	-10.901000	25.037907	0.000947	20.790795
1123.320430	-2.999600	3.618400	-10.853000	25.016524	0.000946	20.778814
1124.318031	-2.993100	3.618900	-10.831000	25.028707	0.000946	20.783930
1125.320089	-3.002200	3.619000	-10.864000	25.019955	0.000946	20.784628
1126.337087	-3.004200	3.617700	-10.867000	25.007426	0.000945	20.793863
1127.329665	-2.975200	3.617100	-10.761000	24.988209	0.000945	20.790695
1128.338853	-3.000500	3.616000	-10.848000	24.970582	0.000945	20.799555
1129.323543	-2.981100	3.617300	-10.782000	25.001386	0.000943	20.786378
1130.322429	-2.968500	3.618300	-10.740000	25.005289	0.000942	20.792192
1131.328361	-2.981300	3.617300	-10.783000	25.026249	0.000943	20.797584
1132.340658	-2.990300	3.616400	-10.813000	25.026128	0.000941	20.781815
1133.321829	-3.010800	3.616200	-10.887000	25.041268	0.000943	20.799384
1134.327785	-3.001500	3.615500	-10.850000	25.047458	0.000942	20.799434
1135.343864	-2.987800	3.617200	-10.806000	25.018124	0.000939	20.794645
1136.324428	-3.007700	3.614800	-10.870000	25.020036	0.000939	20.809840
1137.323142	-2.995300	3.614100	-10.824000	25.034037	0.000939	20.789755
1138.335048	-2.984000	3.615600	-10.787000	25.059717	0.000939	20.780445
1139.330554	-3.002800	3.614100	-10.851000	25.048608	0.000939	20.788734
1140.323209	-3.008100	3.613500	-10.869000	25.072228	0.000938	20.798220
1141.330647	-2.984200	3.614500	-10.786000	25.050646	0.000937	20.809272
1142.325387	-3.007200	3.614400	-10.868000	25.033369	0.000936	20.806154
1143.332719	-2.995800	3.613100	-10.823000	25.017509	0.000938	20.801139
1144.352015	-2.977800	3.613400	-10.758000	25.001374	0.000937	20.811496
1145.324457	-3.014000	3.612000	-10.886000	24.941680	0.000938	20.805633
1146.339173	-3.002200	3.611300	-10.841000	24.958040	0.000936	20.800243
1147.332204	-2.992100	3.611900	-10.806000	24.966244	0.000936	20.780976
1148.328319	-2.994500	3.611800	-10.814000	24.929399	0.000936	20.823653
1149.328237	-2.993600	3.613100	-10.814000	24.925994	0.000936	20.812174
1150.339959	-2.991500	3.611400	-10.803000	24.939669	0.000933	20.808830
1151.325650	-2.989700	3.610600	-10.793000	24.970550	0.000935	20.811377
1152.327577	-3.002500	3.608600	-10.834000	24.992354	0.000934	20.820460
1153.331942	-3.018200	3.610100	-10.894000	25.024899	0.000934	20.779159
1154.329852	-3.001400	3.609100	-10.831000	25.028430	0.000933	20.831068
1155.332361	-2.984300	3.610500	-10.772000	25.010357	0.000931	20.813874
1156.340135	-2.990500	3.609700	-10.794000	25.010206	0.000931	20.798076
1157.335792	-2.983500	3.609500	-10.768000	24.987460	0.000929	20.811280
1158.327953	-2.981600	3.608900	-10.760000	24.998649	0.000931	20.818718
1159.341162	-3.005800	3.607700	-10.843000	24.992332	0.000929	20.816171
1160.337800	-3.001800	3.608200	-10.830000	25.017118	0.000930	20.807859
1161.336715	-2.992600	3.607800	-10.795000	25.034771	0.000928	20.814200
1162.347408	-3.000200	3.607200	-10.821000	25.030819	0.000927	20.834888
1163.344161	-3.013700	3.606900	-10.868000	25.040566	0.000928	20.797731
1164.336123	-2.998800	3.607700	-10.818000	25.066246	0.000928	20.822560
1165.339812	-2.985600	3.607400	-10.769000	25.074724	0.000927	20.828225
1166.335902	-3.011900	3.605000	-10.857000	25.067910	0.000927	20.826602
1167.335128	-3.009000	3.605200	-10.847000	25.056154	0.000927	20.811956
1168.336045	-3.026900	3.603200	-10.904000	25.051826	0.000927	20.809508
1169.338850	-2.973400	3.605800	-10.720000	25.065527	0.000925	20.824683
1170.341422	-3.001600	3.604700	-10.819000	25.093793	0.000927	20.814651
1171.347016	-2.991900	3.603900	-10.781000	25.068437	0.000924	20.832820
1172.349137	-2.964100	3.606400	-10.689000	25.056453	0.000926	20.813678
1173.346220	-2.993700	3.604400	-10.789000	25.024085	0.000924	20.826706
1174.338290	-3.014900	3.603300	-10.862000	24.996215	0.000924	20.827180
1175.334744	-3.005300	3.603500	-10.829000	24.974510	0.000921	20.818196
1176.334119	-3.003000	3.603800	-10.821000	24.963049	0.000924	20.814753
1177.338809	-3.024200	3.601400	-10.889000	24.971602	0.000922	20.838510
1178.336067	-3.019600	3.602600	-10.878000	24.944801	0.000922	20.823938
1179.339228	-3.021800	3.600700	-10.880000	24.952560	0.000921	20.844053
1180.341120	-3.020800	3.601000	-10.877000	24.935328	0.000921	20.829129
1181.352350	-3.012000	3.600800	-10.845000	24.950819	0.000921	20.848469
1182.352124	-2.986800	3.602200	-10.758000	24.922502	0.000918	20.830954
1183.341115	-2.989400	3.601300	-10.764000	24.925334	0.000920	20.821943
1184.356007	-3.014100	3.601000	-10.853000	24.933540	0.000920	20.831127
1185.338545	-2.999900	3.601700	-10.803000	24.953779	0.000918	20.850493
1186.343486	-2.999400	3.601600	-10.801000	25.003454	0.000919	20.821645
1187.350387	-3.005300	3.600500	-10.820000	25.041966	0.000919	20.827111
1188.350837	-3.002600	3.600300	-10.809000	25.056386	0.000918	20.847275
1189.339506	-2.985500	3.599900	-10.747000	25.087633	0.000917	20.837865
1190.354449	-2.986000	3.599100	-10.745000	25.104964	0.000917	20.836296
1191.338204	-2.960200	3.600500	-10.657000	25.122885	0.000918	20.821570
1192.342617	-2.982200	3.599800	-10.734000	25.138026	0.000917	20.846253
1193.352844	-2.981300	3.599300	-10.730000	25.130244	0.000916	20.851716
1194.339333	-2.981500	3.596600	-10.723000	25.131414	0.000915	20.855735
1195.343867	-2.981500	3.596800	-10.722000	25.144043	0.000913	20.848025
1196.350695	-2.998500	3.597100	-10.785000	25.183667	0.000912	20.843708
1197.341923	-2.985300	3.597300	-10.738000	25.174842	0.000916	20.837219
1198.346880	-2.982100	3.597400	-10.726000	25.139248	0.000912	20.844160
1199.347740	-3.007500	3.595500	-10.811000	25.119658	0.000912	20.825443
1200.353171	-3.007700	3.594400	-10.809000	25.108423	0.000911	20.846881
1201.345553	-3.019400	3.595200	-10.855000	25.112254	0.000911	20.835554
1202.345770	-2.977900	3.596500	-10.709000	25.130598	0.000912	20.846382
1203.346814	-3.016600	3.595000	-10.842000	25.127764	0.000909	20.853968
1204.353431	-2.968100	3.595900	-10.672000	25.151382	0.000909	20.852548
1205.350084	-2.999200	3.594800	-10.781000	25.147552	0.000909	20.863875
1206.350375	-2.991100	3.593600	-10.748000	25.113298	0.000909	20.846084
1207.344670	-2.998200	3.594000	-10.774000	25.140846	0.000908	20.849083
1208.359264	-2.999700	3.593900	-10.780000	25.101618	0.000908	20.840998
1209.347372	-3.013800	3.592900	-10.826000	25.118993	0.000909	20.854646
1210.351914	-2.974100	3.593600	-10.686000	25.135351	0.000908	20.844515
1211.346782	-2.978300	3.594200	-10.704000	25.166175	0.000906	20.863605
1212.355260	-2.995700	3.592300	-10.761000	25.164137	0.000906	20.856818
1213.343214	-2.988800	3.592300	-10.736000	25.179726	0.000907	20.866777
1214.351593	-3.017100	3.591200	-10.833000	25.199785	0.000905	20.845665
1215.346977	-3.007200	3.592400	-10.802000	25.188376	0.000905	20.883520
1216.354706	-2.975700	3.592700	-10.690000	25.148284	0.000903	20.869352
1217.349205	-2.996700	3.590100	-10.756000	25.144701	0.000905	20.866229
1218.347186	-2.993800	3.591700	-10.752000	25.086731	0.000903	20.856399
1219.348176	-3.002000	3.589600	-10.775000	25.086481	0.000905	20.867053
1220.354563	-3.019500	3.589600	-10.837000	25.089041	0.000903	20.843071
1221.351256	-3.031500	3.588900	-10.879000	25.099113	0.000901	20.857449
1222.359823	-3.003900	3.588500	-10.778000	25.092424	0.000903	20.864484
1223.359797	-2.987300	3.589300	-10.722000	25.086506	0.000900	20.860440
1224.368717	-3.015600	3.587600	-10.817000	25.139283	0.000901	20.857471
1225.362150	-3.014700	3.587500	-10.813000	25.160886	0.000901	20.865407
1226.350178	-2.993400	3.589000	-10.741000	25.166380	0.000901	20.860018
1227.338236	-3.025400	3.585800	-10.847000	25.211394	0.000899	20.875810
1228.334319	-3.004900	3.587000	-10.778000	25.222185	0.000900	20.854877
1229.339808	-3.001800	3.586000	-10.763000	25.201924	0.000898	20.880527
1230.338292	-3.007200	3.587500	-10.787000	25.217210	0.000898	20.892079
1231.342970	-2.993500	3.586800	-10.736000	25.211567	0.000901	20.883096
1232.339707	-2.998500	3.586700	-10.753000	25.225165	0.000899	20.897694
1233.371585	-3.009600	3.586100	-10.791000	25.228946	0.000896	20.879206
1234.341967	-3.000300	3.586400	-10.758000	25.218728	0.000899	20.865156
1235.341660	-2.983600	3.585600	-10.696000	25.197500	0.000897	20.871819
1236.361219	-3.000100	3.584300	-10.752000	25.165903	0.000897	20.879452
1237.356001	-3.024100	3.582900	-10.834000	25.173336	0.000896	20.895922
1238.357141	-3.013100	3.583200	-10.795000	25.177389	0.000895	20.890508
1239.362837	-3.005300	3.584900	-10.773000	25.215692	0.000895	20.859263
1240.342252	-2.996600	3.583700	-10.737000	25.165752	0.000895	20.890679
1241.344499	-2.988000	3.584500	-10.709000	25.166897	0.000892	20.889932
1242.344244	-3.012000	3.581600	-10.787000	25.190787	0.000893	20.875510
1243.345283	-2.990200	3.582900	-10.713000	25.214797	0.000891	20.865951
1244.343851	-3.016900	3.580300	-10.800000	25.201647	0.000891	20.892102
1245.345032	-3.012900	3.581400	-10.789000	25.206694	0.000890	20.889582
1246.344079	-3.020200	3.580000	-10.810000	25.261678	0.000892	20.887887
1247.347139	-2.979100	3.582600	-10.672000	25.262971	0.000891	20.890607
1248.344988	-2.989200	3.580900	-10.703000	25.270105	0.000889	20.889235
1249.350140	-2.993500	3.580800	-10.718000	25.237271	0.000889	20.876185
1250.348629	-2.996000	3.579900	-10.723000	25.223177	0.000887	20.890957
1251.345212	-2.979100	3.581500	-10.669000	25.182708	0.000887	20.874986
1252.350257	-3.001700	3.580100	-10.746000	25.173314	0.000887	20.879306
1253.349368	-3.013500	3.579000	-10.784000	25.174978	0.000886	20.879080
1254.349673	-2.999000	3.579800	-10.735000	25.195863	0.000886	20.892934
1255.346983	-3.002500	3.579000	-10.744000	25.196805	0.000886	20.877285
1256.352527	-2.995600	3.578800	-10.720000	25.229420	0.000886	20.875416
1257.349774	-2.994300	3.578200	-10.712000	25.236131	0.000884	20.888316
1258.351210	-2.991600	3.578000	-10.703000	25.265662	0.000884	20.890464
1259.351138	-3.008400	3.578300	-10.764000	25.304139	0.000886	20.885474
1260.351757	-3.012000	3.577300	-10.774000	25.297108	0.000882	20.872725
1261.348303	-3.009400	3.577500	-10.766000	25.295592	0.000884	20.867885
1262.350222	-3.004100	3.576000	-10.742000	25.292212	0.000883	20.853112
1263.354261	-3.012200	3.576700	-10.773000	25.269472	0.000884	20.852092
1264.353465	-2.986100	3.575700	-10.677000	25.279140	0.000881	20.846152
1265.372204	-2.981400	3.576600	-10.662000	25.284038	0.000882	20.843483
1266.382064	-2.974700	3.577800	-10.642000	25.246084	0.000882	20.858482
1267.377139	-2.994600	3.574600	-10.704000	25.229727	0.000878	20.872405
1268.378838	-2.995400	3.575200	-10.708000	25.265274	0.000879	20.857360
1269.354644	-2.994000	3.575400	-10.704000	25.289609	0.000878	20.857137
1270.356708	-2.972800	3.573900	-10.623000	25.272086	0.000878	20.849975
1271.371780	-2.991200	3.574200	-10.690000	25.287624	0.000879	20.845187
1272.355849	-2.995100	3.573600	-10.702000	25.282327	0.000878	20.877800
1273.368449	-3.013700	3.573800	-10.768000	25.292297	0.000877	20.866947
1274.375887	-3.015100	3.573200	-10.773000	25.295602	0.000879	20.872162
1275.376595	-2.983800	3.573900	-10.662000	25.286358	0.000877	20.849605
1276.371971	-2.983300	3.573000	-10.658000	25.275820	0.000874	20.856094
1277.378747	-2.983400	3.572100	-10.656000	25.306118	0.000876	20.843841
1278.379356	-2.980500	3.571700	-10.645000	25.264809	0.000874	20.832713
1279.381035	-3.012600	3.570900	-10.756000	25.246863	0.000874	20.849308
1280.378120	-3.020300	3.571600	-10.785000	25.229040	0.000873	20.844216
1281.374897	-2.997300	3.571900	-10.705000	25.184475	0.000874	20.865855
1282.382109	-2.991900	3.570800	-10.683000	25.172494	0.000873	20.853828
1283.383917	-2.999200	3.569900	-10.705000	25.166478	0.000873	20.842099
1284.381981	-3.011000	3.570400	-10.750000	25.149524	0.000871	20.847838
1285.379419	-3.010800	3.568600	-10.743000	25.150892	0.000871	20.831668
1286.376274	-2.986700	3.568300	-10.656000	25.168216	0.000870	20.837206
1287.393933	-2.983300	3.569800	-10.649000	25.151043	0.000870	20.865957
1288.378870	-2.988300	3.569200	-10.665000	25.164690	0.000870	20.831770
1289.378541	-3.014800	3.567700	-10.755000	25.163595	0.000870	20.842523
1290.363713	-3.000400	3.569200	-10.707000	25.153132	0.000869	20.835340
1291.361010	-2.976600	3.568800	-10.622000	25.172269	0.000868	20.820413
1292.360731	-3.005000	3.567300	-10.718000	25.173291	0.000868	20.833766
1293.383276	-3.034000	3.565600	-10.817000	25.185271	0.000868	20.832517
1294.380281	-3.010200	3.566500	-10.735000	25.188034	0.000868	20.829600
1295.387554	-3.012200	3.567000	-10.742000	25.200261	0.000867	20.842824
1296.381312	-2.995100	3.566500	-10.681000	25.188330	0.000868	20.827053
1297.386713	-3.023500	3.563700	-10.775000	25.193449	0.000866	20.844993
1298.378375	-2.985200	3.566000	-10.645000	25.198048	0.000864	20.842025
1299.382933	-3.006600	3.564400	-10.716000	25.203045	0.000864	20.830921
1300.386605	-3.003700	3.564500	-10.705000	25.189374	0.000864	20.814351
1301.364885	-3.008300	3.564300	-10.722000	25.172667	0.000864	20.837881
1302.362545	-2.971100	3.564500	-10.590000	25.167099	0.000863	20.814274
1303.362895	-2.987800	3.565100	-10.650000	25.176743	0.000862	20.821584
1304.362154	-2.999200	3.564500	-10.689000	25.186911	0.000863	20.829895
1305.364488	-3.035400	3.563200	-10.815000	25.199113	0.000862	20.833612
1306.367586	-3.016300	3.562700	-10.745000	25.249724	0.000860	20.826102
1307.363522	-2.990300	3.562400	-10.652000	25.278483	0.000861	20.856872
1308.380261	-2.994100	3.562600	-10.666000	25.285861	0.000862	20.824925
1309.391719	-2.988800	3.563400	-10.648000	25.310517	0.000860	20.819335
1310.379778	-2.998800	3.562400	-10.682000	25.294136	0.000859	20.836079
1311.382769	-2.989700	3.562900	-10.651000	25.306341	0.000861	20.836953
1312.383910	-3.007900	3.561700	-10.713000	25.339845	0.000859	20.829342
1313.365195	-3.004200	3.561200	-10.697000	25.325079	0.000857	20.840594
1314.366938	-3.026700	3.558500	-10.768000	25.347919	0.000856	20.813268
1315.364796	-3.006000	3.558400	-10.694000	25.302159	0.000858	20.819005
1316.391974	-3.004500	3.559300	-10.693000	25.318764	0.000857	20.836625
1317.365802	-2.998000	3.560400	-10.673000	25.321947	0.000857	20.821802
1318.367999	-3.011600	3.559000	-10.717000	25.317897	0.000855	20.808727
1319.364786	-3.000400	3.559700	-10.680000	25.340188	0.000854	20.797919
1320.366716	-2.988500	3.561000	-10.639000	25.355398	0.000855	20.832156
1321.366012	-2.994300	3.557400	-10.651000	25.375083	0.000854	20.832482
1322.383406	-2.999300	3.559600	-10.675000	25.374561	0.000853	20.813466
1323.397400	-2.995400	3.558100	-10.657000	25.367426	0.000853	20.836173
1324.381732	-2.993000	3.558400	-10.649000	25.370737	0.000852	20.838075
1325.390715	-3.027500	3.557300	-10.768000	25.377197	0.000851	20.832708
1326.390771	-2.996500	3.557300	-10.659000	25.347422	0.000851	20.821303
1327.389431	-2.995400	3.556500	-10.652000	25.319687	0.000851	20.827120
1328.400385	-3.005600	3.556800	-10.689000	25.286728	0.000851	20.810150
1329.397282	-3.018000	3.554900	-10.728000	25.270919	0.000846	20.821303
1330.388981	-2.998600	3.557400	-10.666000	25.263011	0.000849	20.829959
1331.390438	-3.002400	3.555900	-10.675000	25.252028	0.000849	20.824148
1332.390421	-2.993800	3.556300	-10.646000	25.236443	0.000846	20.814665
1333.372816	-2.996200	3.555200	-10.650000	25.207906	0.000848	20.828214
1334.372834	-3.037700	3.553300	-10.793000	25.206390	0.000847	20.811520
1335.372239	-3.002000	3.554700	-10.670000	25.168681	0.000847	20.822500
1336.373215	-3.004000	3.554100	-10.676000	25.167986	0.000847	20.806630
1337.374778	-3.004400	3.555000	-10.680000	25.148646	0.000846	20.815663
1338.375371	-3.010000	3.552800	-10.692000	25.148720	0.000843	20.827591
1339.382159	-2.987300	3.552800	-10.612000	25.195426	0.000845	20.798616
1340.397104	-2.983300	3.554300	-10.602000	25.196945	0.000845	20.817210
1341.399367	-2.972200	3.553200	-10.560000	25.204551	0.000843	20.824372
1342.403844	-2.990000	3.553200	-10.622000	25.215638	0.000844	20.802313
1343.375677	-2.994800	3.551200	-10.634000	25.249093	0.000842	20.823098
1344.377761	-2.992500	3.551500	-10.627000	25.263934	0.000841	20.823299
1345.376744	-2.993200	3.550800	-10.627000	25.292892	0.000840	20.801640
1346.376580	-3.007100	3.549900	-10.672000	25.294680	0.000842	20.786365
1347.379242	-2.969300	3.552100	-10.546000	25.278997	0.000841	20.804758
1348.378295	-2.988500	3.550500	-10.609000	25.253668	0.000839	20.811096
1349.379759	-3.020500	3.550400	-10.723000	25.268956	0.000838	20.825022
1350.377318	-3.005700	3.549300	-10.667000	25.282849	0.000837	20.806255
1351.377062	-2.984500	3.551000	-10.597000	25.284340	0.000839	20.814390
1352.379728	-2.984700	3.550300	-10.595000	25.297514	0.000837	20.803435
1353.379433	-2.998100	3.551100	-10.644000	25.339244	0.000836	20.817833
1354.382897	-3.008100	3.548800	-10.673000	25.338549	0.000836	20.796273
1355.380069	-2.988600	3.547100	-10.600000	25.325178	0.000837	20.813667
1356.383114	-3.015100	3.547100	-10.692000	25.324431	0.000836	20.819556
1357.394085	-2.988700	3.549600	-10.606000	25.299304	0.000836	20.804758
1358.425809	-2.981800	3.549400	-10.583000	25.286676	0.000835	20.812468
1359.397974	-2.976700	3.547300	-10.558000	25.278003	0.000834	20.789535
1360.422109	-3.005800	3.545700	-10.657000	25.274348	0.000833	20.800091
1361.383133	-3.003400	3.545800	-10.649000	25.282476	0.000834	20.811096
1362.384799	-3.020000	3.547100	-10.711000	25.306039	0.000833	20.802037
1363.386961	-3.005500	3.545800	-10.656000	25.305020	0.000833	20.789635
1364.384049	-2.985600	3.546700	-10.589000	25.292020	0.000832	20.815462
1365.385188	-2.996100	3.546700	-10.625000	25.286676	0.000830	20.805830
1366.384314	-2.992400	3.545500	-10.608000	25.249791	0.000829	20.819057
1367.409430	-2.987500	3.543900	-10.585000	25.229013	0.000830	20.801042
1368.404238	-2.993700	3.544000	-10.609000	25.250562	0.000829	20.772890
1369.406022	-2.987900	3.543600	-10.586000	25.259063	0.000830	20.787115
1370.410157	-3.002200	3.543600	-10.638000	25.304550	0.000830	20.801965
1371.407862	-2.999100	3.543200	-10.626000	25.327070	0.000827	20.801342
1372.387810	-3.011900	3.543000	-10.669000	25.314245	0.000827	20.805535
1373.390487	-2.991600	3.542700	-10.597000	25.350882	0.000826	20.780681
1374.389386	-3.003300	3.542400	-10.638000	25.322001	0.000826	20.777287
1375.392638	-2.998300	3.541600	-10.618000	25.287104	0.000825	20.811950
1376.392743	-3.018400	3.540000	-10.684000	25.245798	0.000825	20.792289
1377.418194	-2.974100	3.542700	-10.536000	25.239411	0.000826	20.780661
1378.393596	-2.988200	3.541300	-10.581000	25.252036	0.000824	20.774370
1379.389988	-2.995100	3.540900	-10.604000	25.256737	0.000825	20.795685
1380.389003	-2.998600	3.540600	-10.616000	25.292381	0.000823	20.777893
1381.394021	-2.989700	3.540000	-10.583000	25.292208	0.000823	20.787677
1382.389849	-2.983500	3.539500	-10.559000	25.266064	0.000824	20.796515
1383.388031	-3.003800	3.540600	-10.634000	25.301208	0.000822	20.813308
1384.392174	-2.996500	3.538300	-10.601000	25.294575	0.000821	20.777725
1385.391582	-2.967800	3.540100	-10.504000	25.318882	0.000819	20.767516
1386.411446	-2.989400	3.538400	-10.576000	25.315131	0.000821	20.782243
1387.410005	-2.986500	3.539100	-10.568000	25.338869	0.000819	20.799439
1388.411146	-2.988400	3.538000	-10.572000	25.333326	0.000818	20.792451
1389.393365	-2.998600	3.536800	-10.603000	25.320081	0.000819	20.799067
1390.412020	-3.021800	3.537100	-10.687000	25.361489	0.000819	20.774736
1391.394718	-3.014100	3.536200	-10.657000	25.367282	0.000817	20.781975
1392.393586	-3.004300	3.536700	-10.624000	25.387689	0.000818	20.792509
1393.400413	-3.014500	3.535500	-10.657000	25.368128	0.000816	20.767651
1394.395046	-3.030500	3.534600	-10.710000	25.322201	0.000816	20.765159
1395.414457	-3.006300	3.534700	-10.626000	25.333685	0.000819	20.787122
1396.419904	-2.986900	3.536800	-10.563000	25.320438	0.000815	20.785675
1397.393589	-2.980000	3.535500	-10.535000	25.314474	0.000816	20.777316
1398.394780	-2.986600	3.535000	-10.556000	25.314079	0.000813	20.776445
1399.395798	-2.998100	3.534200	-10.595000	25.338262	0.000816	20.762319
1400.396471	-3.002100	3.532800	-10.605000	25.332996	0.000814	20.763196
1401.396509	-2.991000	3.533600	-10.568000	25.320520	0.000812	20.762049
1402.414482	-2.998900	3.532300	-10.592000	25.336079	0.000810	20.796638
1403.420169	-2.986800	3.533400	-10.553000	25.345675	0.000811	20.764072
1404.415898	-2.990100	3.533500	-10.564000	25.388076	0.000813	20.770611
1405.415952	-3.011900	3.532100	-10.637000	25.378036	0.000812	20.761004
1406.412466	-2.990000	3.531600	-10.559000	25.368146	0.000810	20.764825
1407.416665	-3.008900	3.532400	-10.628000	25.347989	0.000810	20.763551
1408.422684	-3.006700	3.531200	-10.616000	25.367303	0.000810	20.757814
1409.420454	-3.009900	3.530200	-10.625000	25.385349	0.000810	20.752700
1410.426580	-2.991600	3.531000	-10.561000	25.391886	0.000809	20.780128
1411.407565	-3.000100	3.529400	-10.587000	25.396506	0.000808	20.760111
1412.405223	-3.005200	3.529100	-10.604000	25.410549	0.000807	20.755245
1413.399397	-3.001400	3.530500	-10.595000	25.379710	0.000808	20.751780
1414.399094	-3.003200	3.531500	-10.604000	25.342229	0.000805	20.768199
1415.402465	-2.981600	3.529900	-10.523000	25.362340	0.000806	20.761365
1416.402277	-2.984000	3.528800	-10.528000	25.369423	0.000806	20.739079
1417.402770	-3.010000	3.528400	-10.618000	25.405261	0.000806	20.753255
1418.400135	-2.998100	3.529200	-10.579000	25.389530	0.000806	20.751209
1419.401874	-2.993900	3.528700	-10.563000	25.415081	0.000802	20.774495
1420.402877	-3.012500	3.527100	-10.624000	25.397808	0.000804	20.770427
1421.411735	-3.008300	3.526500	-10.608000	25.369972	0.000803	20.740579
1422.419688	-3.000200	3.527000	-10.580000	25.405291	0.000803	20.743327
1423.417577	-3.003900	3.526900	-10.593000	25.409665	0.000804	20.758625
1424.403068	-2.998100	3.526700	-10.572000	25.433975	0.000803	20.767388
1425.430352	-2.984600	3.527000	-10.525000	25.431608	0.000802	20.768806
1426.425873	-2.998100	3.525500	-10.568000	25.395224	0.000801	20.783954
1427.431249	-2.962100	3.526600	-10.445000	25.356105	0.000801	20.757001
1428.432810	-2.971900	3.527600	-10.482000	25.350512	0.000801	20.757550
1429.428988	-2.982200	3.525100	-10.511000	25.323622	0.000799	20.773225
1430.431495	-2.995400	3.524000	-10.555000	25.320363	0.000799	20.773746
1431.407218	-3.003200	3.524400	-10.584000	25.309032	0.000798	20.760472
1432.407003	-2.980400	3.523700	-10.501000	25.305702	0.000798	20.745748
1433.406782	-3.009100	3.523800	-10.602000	25.291957	0.000797	20.763242
1434.405652	-3.019400	3.520700	-10.629000	25.279278	0.000798	20.768530
1435.406026	-2.996600	3.522300	-10.554000	25.304757	0.000797	20.742903
1436.405595	-2.990300	3.523400	-10.535000	25.325734	0.000796	20.742627
1437.408973	-2.998100	3.524000	-10.564000	25.335030	0.000797	20.757652
1438.407129	-3.008900	3.521700	-10.595000	25.343431	0.000795	20.740956
1439.411041	-2.985600	3.522900	-10.517000	25.345595	0.000793	20.743603
1440.405811	-2.976700	3.522000	-10.482000	25.310600	0.000793	20.743079
1441.406781	-2.995100	3.521200	-10.545000	25.305205	0.000792	20.755680
1442.412258	-3.000500	3.520500	-10.562000	25.285222	0.000792	20.753635
1443.414273	-3.009800	3.521300	-10.598000	25.292256	0.000793	20.761646
1444.404738	-2.996200	3.520600	-10.548000	25.315696	0.000794	20.751041
1445.407310	-2.998700	3.520900	-10.557000	25.329338	0.000792	20.762843
1446.407893	-2.998000	3.518600	-10.548000	25.380166	0.000792	20.753186
1447.407038	-2.991500	3.519800	-10.528000	25.394384	0.000790	20.731426
1448.409435	-3.006500	3.517600	-10.574000	25.402436	0.000792	20.737141
1449.408798	-3.005400	3.518100	-10.572000	25.447023	0.000789	20.748248
1450.406388	-3.013700	3.516600	-10.597000	25.432434	0.000788	20.758729
1451.407669	-3.031200	3.516600	-10.658000	25.441480	0.000789	20.746475
1452.407799	-3.028200	3.515400	-10.644000	25.442647	0.000788	20.748595
1453.409041	-3.025000	3.518000	-10.641000	25.413448	0.000787	20.737767
1454.407855	-2.994800	3.516000	-10.529000	25.416904	0.000788	20.746927
1455.408698	-3.004100	3.515800	-10.561000	25.421950	0.000786	20.742037
1456.410029	-3.009300	3.515500	-10.578000	25.383433	0.000787	20.742241
1457.409853	-3.017100	3.516100	-10.608000	25.342569	0.000786	20.740565
1458.412742	-3.014500	3.514700	-10.593000	25.321297	0.000785	20.765674
1459.411945	-3.032400	3.514100	-10.655000	25.309839	0.000785	20.746583
1460.408247	-2.997300	3.514900	-10.534000	25.324127	0.000785	20.752394
1461.409517	-2.973500	3.515100	-10.451000	25.317096	0.000784	20.753869
1462.409970	-3.001100	3.513200	-10.543000	25.257891	0.000785	20.740893
1463.410545	-2.991300	3.513400	-10.508000	25.244023	0.000785	20.733606
1464.413464	-3.005900	3.512400	-10.558000	25.221674	0.000783	20.743413
1465.413640	-3.009700	3.513000	-10.573000	25.226946	0.000783	20.728316
1466.415090	-2.991200	3.514100	-10.511000	25.252721	0.000782	20.730486
1467.414180	-3.001300	3.512700	-10.542000	25.295178	0.000782	20.747509
1468.411798	-3.015700	3.511800	-10.589000	25.294107	0.000782	20.744537
1469.433373	-3.005200	3.511000	-10.550000	25.274747	0.000781	20.743592
1470.426963	-3.012300	3.510400	-10.573000	25.291622	0.000781	20.725446
1471.431781	-3.026800	3.509600	-10.620000	25.249492	0.000781	20.757117
1472.431562	-2.997600	3.510400	-10.521000	25.271241	0.000779	20.746710
1473.413200	-2.987100	3.510200	-10.484000	25.277106	0.000779	20.738847
1474.434900	-3.002100	3.508500	-10.531000	25.256529	0.000779	20.735732
1475.432808	-3.012200	3.508700	-10.567000	25.290433	0.000777	20.755074
1476.432310	-3.016800	3.509500	-10.586000	25.319561	0.000776	20.749706
1477.429185	-3.002400	3.508700	-10.533000	25.316805	0.000778	20.736981
1478.431323	-2.992200	3.507500	-10.494000	25.330324	0.000775	20.737753
1479.434042	-3.011200	3.507500	-10.561000	25.341531	0.000776	20.744264
1480.443374	-3.003900	3.507600	-10.534000	25.392484	0.000775	20.750856
1481.442679	-3.010500	3.506900	-10.556000	25.319287	0.000773	20.747060
1482.415904	-2.984800	3.508000	-10.470000	25.304752	0.000774	20.753803
1483.436135	-3.014400	3.505600	-10.566000	25.288819	0.000775	20.770523
1484.437222	-3.011700	3.506200	-10.557000	25.305150	0.000774	20.755625
1485.442479	-3.000900	3.505100	-10.517000	25.285886	0.000772	20.749560
1486.440556	-3.006900	3.506200	-10.541000	25.287180	0.000773	20.732840
1487.440981	-3.001700	3.506100	-10.523000	25.303656	0.000773	20.752703
1488.439202	-3.015000	3.504500	-10.565000	25.325731	0.000771	20.727925
1489.438670	-3.018400	3.503600	-10.574000	25.328515	0.000771	20.742574
1490.454619	-3.006300	3.504200	-10.533000	25.338830	0.000770	20.768105
1491.434901	-3.007400	3.503000	-10.534000	25.360132	0.000769	20.756778
1492.419117	-3.006100	3.503200	-10.529000	25.397289	0.000769	20.752361
1493.435631	-2.982500	3.503300	-10.448000	25.399452	0.000770	20.757379
1494.434552	-2.991900	3.502900	-10.480000	25.413022	0.000770	20.750616
1495.438647	-2.999700	3.503400	-10.508000	25.418065	0.000768	20.748568
1496.442521	-2.994100	3.504000	-10.490000	25.427012	0.000767	20.747120
1497.443131	-2.983200	3.502000	-10.446000	25.380166	0.000767	20.752711
1498.439697	-3.018300	3.500200	-10.564000	25.404078	0.000768	20.735944
1499.427306	-2.998400	3.500400	-10.495000	25.399309	0.000765	20.776676
1500.450267	-3.017700	3.501100	-10.564000	25.421327	0.000766	20.750895
1501.440405	-2.993900	3.499900	-10.477000	25.426793	0.000769	20.745477
1502.426098	-2.982500	3.500500	-10.439000	25.402044	0.000764	20.758559
1503.423176	-3.002700	3.499200	-10.505000	25.403263	0.000766	20.761679
1504.422439	-2.996400	3.498800	-10.482000	25.428091	0.000764	20.752472
1505.450922	-3.004900	3.498600	-10.512000	25.420039	0.000763	20.762878
1506.448457	-3.002800	3.498400	-10.503000	25.405923	0.000762	20.749651
1507.445267	-2.994400	3.499000	-10.475000	25.371951	0.000762	20.761059
1508.441150	-2.998000	3.499300	-10.490000	25.375531	0.000763	20.748058
1509.446816	-3.025200	3.497500	-10.579000	25.340911	0.000762	20.749332
1510.448709	-2.993100	3.497700	-10.467000	25.311432	0.000763	20.751027
1511.426682	-2.998200	3.496100	-10.481000	25.320580	0.000762	20.760213
1512.430617	-3.002700	3.497700	-10.501000	25.311487	0.000759	20.760566
1513.430971	-2.983800	3.496000	-10.430000	25.275373	0.000761	20.756549
1514.429314	-3.003000	3.496000	-10.497000	25.279300	0.000760	20.756224
1515.434665	-2.998100	3.495400	-10.479000	25.301718	0.000760	20.763559
1516.429943	-3.016600	3.494000	-10.538000	25.265036	0.000759	20.765136
1517.428959	-3.000100	3.494700	-10.483000	25.276793	0.000760	20.757500
1518.433039	-3.014500	3.493300	-10.530000	25.255195	0.000758	20.762369
1519.429605	-2.999700	3.494400	-10.481000	25.267002	0.000759	20.754308
1520.429733	-3.000600	3.494800	-10.484000	25.247765	0.000757	20.755383
1521.432215	-3.011700	3.492200	-10.515000	25.268767	0.000757	20.758925
1522.430017	-2.998400	3.493000	-10.472000	25.312020	0.000757	20.763471
1523.430677	-2.978200	3.494400	-10.406000	25.321390	0.000755	20.767665
1524.435963	-3.003500	3.493600	-10.492000	25.348258	0.000754	20.746751
1525.431223	-3.016400	3.491900	-10.531000	25.372591	0.000755	20.759331
1526.431389	-2.997700	3.491900	-10.466000	25.392501	0.000755	20.776478
1527.443042	-2.988600	3.492200	-10.435000	25.385267	0.000752	20.769688
1528.431971	-3.010200	3.490500	-10.505000	25.364795	0.000752	20.770468
1529.431260	-3.020100	3.490000	-10.539000	25.334223	0.000753	20.775808
1530.436026	-3.022500	3.489900	-10.547000	25.337776	0.000753	20.760409
1531.433836	-3.003400	3.489900	-10.480000	25.355227	0.000752	20.761809
1532.436194	-3.012500	3.488400	-10.508000	25.365044	0.000752	20.765029
1533.437593	-3.002900	3.489200	-10.477000	25.369668	0.000752	20.761137
1534.434151	-2.994400	3.488900	-10.444000	25.379683	0.000751	20.761236
1535.435835	-2.999000	3.488800	-10.462000	25.405457	0.000750	20.738751
1536.447393	-3.007800	3.488100	-10.490000	25.421512	0.000749	20.769573
1537.434783	-3.035000	3.487900	-10.585000	25.391491	0.000749	20.760290
1538.435289	-3.006200	3.488400	-10.485000	25.396537	0.000749	20.767728
1539.439690	-2.981800	3.488100	-10.398000	25.381923	0.000747	20.788616
1540.437545	-2.987100	3.487800	-10.417000	25.368526	0.000748	20.748136
1541.435903	-2.995600	3.487500	-10.446000	25.351880	0.000747	20.775045
1542.441028	-2.999400	3.485900	-10.454000	25.306867	0.000748	20.763039
1543.438864	-2.994200	3.486100	-10.437000	25.362692	0.000744	20.768831
1544.437558	-3.010700	3.485500	-10.491000	25.360553	0.000748	20.775693
1545.440434	-3.020200	3.483600	-10.520000	25.380263	0.000746	20.789319
1546.440458	-2.993100	3.485100	-10.430000	25.356405	0.000745	20.781485
1547.439815	-3.017200	3.484900	-10.513000	25.394827	0.000747	20.761269
1548.441154	-3.004600	3.483500	-10.464000	25.382725	0.000744	20.782783
1549.443090	-3.018400	3.482800	-10.512000	25.371963	0.000744	20.783357
1550.443874	-3.002700	3.483200	-10.457000	25.365130	0.000745	20.770805
1551.444798	-2.987600	3.483500	-10.406000	25.390953	0.000744	20.767811
1552.453715	-2.989200	3.482400	-10.409000	25.385833	0.000745	20.783533
1553.444014	-3.007300	3.483200	-10.475000	25.410511	0.000742	20.784605
1554.444374	-3.035400	3.479200	-10.559000	25.438025	0.000742	20.752963
1555.445326	-2.984400	3.481400	-10.389000	25.447839	0.000743	20.787949
1556.448031	-3.003600	3.480800	-10.453000	25.470578	0.000741	20.762419
1557.445294	-2.994900	3.480500	-10.422000	25.517100	0.000741	20.767886
1558.443923	-2.945800	3.481700	-10.255000	25.502765	0.000741	20.775302
1559.441676	-3.010500	3.478500	-10.471000	25.533403	0.000739	20.772878
1560.445545	-3.028400	3.477700	-10.531000	25.550897	0.000739	20.767687
1561.448246	-3.004200	3.479900	-10.454000	25.569162	0.000740	20.792669
1562.442853	-2.992000	3.480300	-10.412000	25.541830	0.000739	20.786083
1563.440085	-2.994200	3.480500	-10.420000	25.534223	0.000738	20.789350
1564.443098	-3.004200	3.478700	-10.449000	25.508681	0.000736	20.773182
1565.441104	-3.005000	3.478700	-10.453000	25.517824	0.000738	20.786158
1566.443109	-2.986600	3.478500	-10.388000	25.540166	0.000736	20.775878
1567.441930	-2.983000	3.477900	-10.374000	25.543296	0.000736	20.791823
1568.442727	-2.965900	3.478500	-10.315000	25.555300	0.000736	20.796766
1569.444470	-2.979900	3.478300	-10.364000	25.544465	0.000736	20.790626
1570.442227	-2.975100	3.477800	-10.346000	25.546826	0.000733	20.795842
1571.444721	-2.994500	3.476700	-10.410000	25.537759	0.000735	20.798116
1572.442747	-2.971700	3.476600	-10.330000	25.538006	0.000735	20.788407
1573.443516	-2.999300	3.476200	-10.425000	25.496904	0.000734	20.781744
1574.451341	-3.019300	3.474800	-10.491000	25.469966	0.000735	20.806850
1575.446589	-3.025200	3.474500	-10.510000	25.435225	0.000734	20.784292
1576.444349	-3.032000	3.473700	-10.531000	25.424241	0.000734	20.784167
1577.444238	-2.999700	3.474000	-10.420000	25.392703	0.000733	20.783318
1578.446102	-3.002800	3.472500	-10.425000	25.374484	0.000731	20.783991
1579.443830	-2.997100	3.473200	-10.409000	25.374061	0.000732	20.795420
1580.448170	-3.010200	3.473500	-10.454000	25.419420	0.000732	20.789758
1581.444321	-2.993300	3.471500	-10.389000	25.397499	0.000729	20.808049
1582.448512	-2.983900	3.473700	-10.364000	25.390267	0.000729	20.797943
1583.448162	-3.007300	3.470800	-10.437000	25.377691	0.000729	20.807599
1584.446889	-2.998300	3.472700	-10.410000	25.391758	0.000731	20.815561
1585.447458	-3.012000	3.471400	-10.454000	25.381993	0.000729	20.798169
1586.451212	-2.985900	3.471600	-10.365000	25.383632	0.000729	20.787012
1587.448738	-2.993700	3.470700	-10.389000	25.378416	0.000729	20.795051
1588.451378	-3.002700	3.470500	-10.419000	25.346079	0.000727	20.807627
1589.448896	-2.994900	3.470300	-10.393000	25.349014	0.000727	20.822428
1590.450943	-2.986100	3.471500	-10.365000	25.334249	0.000727	20.787214
1591.454325	-3.000700	3.467500	-10.404000	25.383162	0.000727	20.794128
1592.449872	-3.003100	3.468800	-10.416000	25.432148	0.000724	20.799219
1593.447765	-2.976000	3.467500	-10.317000	25.452677	0.000726	20.807506
1594.450180	-3.007000	3.466800	-10.423000	25.469324	0.000724	20.786290
1595.451103	-3.008900	3.466500	-10.428000	25.490722	0.000726	20.807305
1596.451657	-2.987900	3.467300	-10.358000	25.491145	0.000724	20.834281
1597.449169	-2.994900	3.465600	-10.378000	25.485507	0.000722	20.823878
1598.451807	-3.000600	3.466500	-10.401000	25.487593	0.000723	20.801791
1599.449574	-3.002800	3.467000	-10.409000	25.510279	0.000723	20.810348
1600.453747	-2.999700	3.465600	-10.395000	25.527452	0.000721	20.809576
1601.448786	-2.974500	3.466200	-10.309000	25.539632	0.000723	20.820385
1602.448516	-2.988600	3.465000	-10.355000	25.534488	0.000722	20.807633
1603.449778	-2.992400	3.464400	-10.365000	25.536102	0.000721	20.807831
1604.448837	-2.996300	3.465400	-10.383000	25.516247	0.000721	20.813970
1605.452872	-3.011300	3.463700	-10.428000	25.495722	0.000722	20.816592
1606.452521	-3.000700	3.464200	-10.393000	25.467691	0.000718	20.809780
1607.450885	-3.008000	3.464900	-10.422000	25.488688	0.000720	20.807159
1608.455497	-2.983700	3.463000	-10.330000	25.491025	0.000719	20.826574
1609.453482	-2.989800	3.463100	-10.352000	25.455065	0.000718	20.824603
1610.449233	-3.022200	3.462500	-10.463000	25.441570	0.000717	20.797301
1611.454405	-2.987800	3.463300	-10.347000	25.437693	0.000718	20.821857
1612.455822	-2.995400	3.461800	-10.368000	25.431978	0.000716	20.839825
1613.459864	-3.026000	3.460700	-10.471000	25.449899	0.000717	20.826527
1614.451756	-2.996900	3.460800	-10.371000	25.471268	0.000716	20.813846
1615.458003	-3.005800	3.459800	-10.398000	25.493212	0.000715	20.814073
1616.455856	-3.000100	3.459700	-10.377000	25.481060	0.000715	20.820360
1617.452898	-2.985000	3.461100	-10.330000	25.484788	0.000715	20.819363
1618.456429	-2.991500	3.459600	-10.348000	25.543656	0.000713	20.825849
1619.452642	-2.979500	3.459800	-10.307000	25.538391	0.000714	20.828622
1620.452049	-2.971400	3.459800	-10.279000	25.540280	0.000714	20.805389
1621.460252	-2.989000	3.457200	-10.333000	25.567713	0.000712	20.834836
1622.452914	-2.997600	3.458400	-10.365000	25.544156	0.000713	20.802643
1623.454855	-2.971300	3.458000	-10.272000	25.543708	0.000712	20.818789
1624.455969	-2.998800	3.457400	-10.367000	25.560258	0.000711	20.832564
1625.455346	-3.026500	3.455900	-10.458000	25.557499	0.000712	20.839751
1626.452795	-2.992600	3.455900	-10.341000	25.582074	0.000711	20.823655
1627.461063	-2.999200	3.456800	-10.367000	25.591915	0.000711	20.815046
1628.456917	-2.977400	3.457300	-10.292000	25.585755	0.000708	20.842524
1629.455737	-2.977600	3.456300	-10.290000	25.595942	0.000711	20.827624
1630.458941	-2.999300	3.455100	-10.362000	25.595294	0.000709	20.832189
1631.455023	-2.998500	3.455200	-10.359000	25.600465	0.000711	20.814150
1632.456911	-3.034400	3.452700	-10.475000	25.626379	0.000710	20.836382
1633.462422	-3.003800	3.453500	-10.372000	25.627249	0.000709	20.828247
1634.458939	-2.994200	3.454500	-10.343000	25.648543	0.000708	20.843469
1635.459576	-2.994200	3.454400	-10.342000	25.640419	0.000708	20.845741
1636.463342	-2.990700	3.452000	-10.323000	25.574002	0.000708	20.850160
1637.462508	-2.992000	3.452600	-10.328000	25.581306	0.000706	20.837107
1638.466340	-2.982700	3.452100	-10.296000	25.538687	0.000705	20.829394
1639.458942	-2.994500	3.451800	-10.335000	25.558718	0.000706	20.849035
1640.461347	-2.992900	3.452400	-10.332000	25.550941	0.000706	20.820837
1641.459894	-2.995900	3.451300	-10.338000	25.577877	0.000705	20.837457
1642.462171	-3.020700	3.451300	-10.425000	25.600487	0.000704	20.838353
1643.460039	-2.995900	3.450900	-10.338000	25.599768	0.000704	20.843795
1644.461249	-3.000800	3.449200	-10.349000	25.622426	0.000704	20.842843
1645.461358	-2.986600	3.449300	-10.301000	25.629437	0.000702	20.838031
1646.470920	-2.999900	3.450400	-10.350000	25.628295	0.000701	20.861539
1647.469397	-3.012900	3.448300	-10.388000	25.650407	0.000703	20.866203
1648.465519	-2.997300	3.448400	-10.335000	25.635799	0.000702	20.852481
1649.464716	-2.999200	3.448100	-10.340000	25.622679	0.000701	20.858269
1650.462845	-3.004900	3.448400	-10.359000	25.633587	0.000700	20.857845
1651.465635	-2.997700	3.448200	-10.335000	25.631674	0.000699	20.838381
1652.462021	-3.023200	3.446700	-10.419000	25.628418	0.000699	20.860240
1653.469046	-3.011600	3.447000	-10.380000	25.630381	0.000699	20.856522
1654.463841	-2.991600	3.448000	-10.313000	25.643399	0.000698	20.853950
1655.462348	-3.002600	3.446700	-10.348000	25.650160	0.000699	20.848886
1656.463730	-2.995000	3.445200	-10.318000	25.614080	0.000698	20.852478
1657.468785	-3.002300	3.446000	-10.345000	25.590153	0.000697	20.864483
1658.463604	-2.982300	3.445900	-10.276000	25.588613	0.000697	20.853928
1659.466640	-3.013600	3.445500	-10.382000	25.560406	0.000697	20.844566
1660.467210	-2.996000	3.444300	-10.318000	25.557850	0.000696	20.870448
1661.464429	-2.996500	3.444800	-10.320000	25.550716	0.000695	20.860439
1662.464418	-2.967600	3.446700	-10.227000	25.598750	0.000695	20.861263
1663.466381	-3.003400	3.444400	-10.344000	25.605807	0.000693	20.853652
1664.473891	-3.043200	3.442100	-10.473000	25.651450	0.000695	20.860138
1665.466495	-2.991600	3.444000	-10.302000	25.668473	0.000693	20.871545
1666.466646	-2.998400	3.442400	-10.320000	25.682385	0.000693	20.871768
1667.469689	-3.010000	3.441300	-10.358000	25.694585	0.000692	20.871220
1668.471128	-2.994000	3.441600	-10.302000	25.719802	0.000692	20.863832
1669.472894	-2.998200	3.443000	-10.322000	25.684474	0.000691	20.877185
1670.471444	-3.010900	3.442100	-10.363000	25.685316	0.000691	20.883720
1671.468486	-3.023700	3.439900	-10.400000	25.692746	0.000691	20.885967
1672.467398	-3.007500	3.440600	-10.346000	25.678883	0.000691	20.864932
1673.473187	-3.007900	3.439700	-10.345000	25.681713	0.000690	20.875512
1674.470665	-2.980600	3.441700	-10.255000	25.669216	0.000689	20.874188
1675.471717	-2.985000	3.439200	-10.265000	25.701642	0.000690	20.893478
1676.473904	-2.990600	3.439900	-10.287000	25.700250	0.000691	20.872642
1677.473404	-2.977300	3.438700	-10.237000	25.728003	0.000689	20.872069
1678.471437	-2.995100	3.439200	-10.300000	25.744624	0.000687	20.879754
1679.473076	-3.011100	3.438300	-10.352000	25.744997	0.000690	20.891033
1680.470952	-2.981000	3.439000	-10.251000	25.748872	0.000689	20.865530
1681.470698	-2.984800	3.437500	-10.259000	25.748551	0.000687	20.896974
1682.470079	-3.002100	3.438000	-10.320000	25.698837	0.000686	20.884972
1683.468450	-3.000600	3.435500	-10.308000	25.699256	0.000686	20.884920
1684.471748	-3.001700	3.436800	-10.315000	25.721521	0.000687	20.892583
1685.470798	-2.975700	3.438600	-10.231000	25.696748	0.000686	20.878133
1686.471346	-3.000800	3.436100	-10.310000	25.645787	0.000685	20.882899
1687.468262	-2.989100	3.434400	-10.264000	25.643550	0.000685	20.901988
1688.472339	-2.985500	3.434700	-10.253000	25.630384	0.000682	20.882601
1689.470747	-2.996400	3.434700	-10.290000	25.594056	0.000684	20.899694
1690.470402	-2.983200	3.436700	-10.251000	25.552284	0.000683	20.887141
1691.477633	-2.997100	3.434900	-10.294000	25.551166	0.000683	20.873692
1692.481823	-2.983300	3.434200	-10.244000	25.537771	0.000682	20.885843
1693.470597	-2.986000	3.434300	-10.254000	25.554867	0.000685	20.897795
1694.472911	-3.008000	3.435300	-10.332000	25.585555	0.000681	20.895424
1695.473502	-3.000800	3.432300	-10.299000	25.622929	0.000683	20.874166
1696.472754	-2.997100	3.431900	-10.285000	25.655257	0.000681	20.890038
1697.472026	-2.989500	3.433400	-10.264000	25.666211	0.000681	20.888712
1698.470244	-2.985000	3.433600	-10.248000	25.687378	0.000681	20.881998
1699.471105	-2.995100	3.430900	-10.275000	25.683255	0.000680	20.872168
1700.474813	-2.986700	3.431700	-10.249000	25.692499	0.000680	20.866754
1701.470302	-3.010000	3.430200	-10.323000	25.689639	0.000680	20.865304
1702.471348	-2.988100	3.431200	-10.252000	25.688896	0.000679	20.872617
1703.470487	-2.980600	3.430600	-10.224000	25.657189	0.000679	20.864006
1704.473113	-2.980700	3.430200	-10.223000	25.663551	0.000679	20.862335
1705.472763	-2.986100	3.428800	-10.238000	25.630057	0.000679	20.867101
1706.474418	-3.005300	3.428900	-10.304000	25.597731	0.000678	20.849809
1707.478944	-3.000800	3.428800	-10.287000	25.595868	0.000678	20.851257
1708.474066	-3.006000	3.428800	-10.306000	25.578745	0.000678	20.879103
1709.474871	-2.993700	3.427700	-10.260000	25.573477	0.000677	20.869072
1710.471941	-3.012200	3.427600	-10.323000	25.594050	0.000677	20.854647
1711.475194	-2.983300	3.428700	-10.227000	25.615619	0.000676	20.866826
1712.478660	-2.997600	3.428500	-10.276000	25.629560	0.000675	20.858542
1713.478608	-3.014300	3.427200	-10.330000	25.671574	0.000677	20.865177
1714.478499	-3.016000	3.425500	-10.330000	25.667449	0.000674	20.862456
1715.479139	-3.002300	3.424300	-10.280000	25.657837	0.000677	20.858967
1716.477145	-2.989500	3.425600	-10.239000	25.662654	0.000673	20.860485
1717.478502	-2.991600	3.424600	-10.244000	25.647744	0.000673	20.851201
1718.479905	-2.968600	3.426700	-10.171000	25.604983	0.000673	20.867049
1719.476655	-2.995200	3.426000	-10.260000	25.585105	0.000674	20.852775
1720.478421	-3.006100	3.422600	-10.287000	25.593430	0.000673	20.855921
1721.481994	-3.006000	3.423500	-10.289000	25.584728	0.000673	20.862354
1722.476707	-3.004700	3.423900	-10.286000	25.647522	0.000671	20.857142
1723.481987	-2.982800	3.423600	-10.210000	25.656585	0.000671	20.851546
1724.476254	-2.993600	3.422400	-10.244000	25.696440	0.000671	20.847954
1725.478951	-2.998600	3.422100	-10.260000	25.722305	0.000672	20.860182
1726.480869	-2.989000	3.423000	-10.231000	25.709856	0.000672	20.852894
1727.484038	-3.012000	3.421200	-10.304000	25.699075	0.000672	20.854393
1728.478744	-3.006500	3.422000	-10.287000	25.697755	0.000668	20.847852
1729.481709	-3.014200	3.420400	-10.309000	25.693706	0.000670	20.849950
1730.482718	-2.998100	3.420500	-10.253000	25.701408	0.000669	20.848676
1731.486964	-3.017500	3.420100	-10.319000	25.714999	0.000669	20.855689
1732.482564	-3.002000	3.420600	-10.268000	25.720988	0.000668	20.852695
1733.483295	-3.000100	3.420600	-10.261000	25.734178	0.000668	20.872107
1734.480335	-3.037300	3.417100	-10.378000	25.717733	0.000667	20.835676
1735.486142	-3.016100	3.417800	-10.307000	25.711297	0.000665	20.864772
1736.484149	-2.963300	3.419200	-10.131000	25.692287	0.000664	20.857533
1737.481687	-2.983200	3.417600	-10.194000	25.650744	0.000666	20.851843
1738.483298	-2.987900	3.417800	-10.210000	25.638019	0.000664	20.841434
1739.484996	-2.984400	3.418400	-10.202000	25.658769	0.000664	20.843783
1740.486050	-2.991800	3.417100	-10.221000	25.653030	0.000663	20.840390
1741.486085	-2.977300	3.418100	-10.175000	25.659711	0.000662	20.841410
1742.486849	-2.994800	3.416500	-10.230000	25.629052	0.000662	20.848075
1743.487683	-2.982500	3.418600	-10.195000	25.663145	0.000663	20.840591
1744.485705	-2.988500	3.416000	-10.208000	25.683864	0.000661	20.837694
1745.487718	-3.030400	3.414800	-10.347000	25.661374	0.000661	20.847347
1746.485873	-3.007000	3.416500	-10.273000	25.669504	0.000660	20.852193
1747.491817	-3.003900	3.414700	-10.256000	25.688511	0.000659	20.843309
1748.484442	-3.001300	3.416200	-10.252000	25.707591	0.000658	20.830706
1749.489944	-2.989100	3.414600	-10.205000	25.717082	0.000658	20.840238
1750.482812	-2.983700	3.415200	-10.189000	25.708585	0.000657	20.817479
1751.487837	-2.997500	3.414800	-10.235000	25.736711	0.000658	20.850945
1752.485837	-2.999500	3.412500	-10.233000	25.699316	0.000656	20.835670
1753.495171	-2.982000	3.414200	-10.180000	25.674299	0.000655	20.833777
1754.486018	-3.016100	3.412100	-10.290000	25.692312	0.000656	20.822472
1755.484328	-2.998600	3.411700	-10.229000	25.718251	0.000655	20.844731
1756.484856	-2.991400	3.412500	-10.207000	25.697702	0.000657	20.817929
1757.487122	-2.971700	3.413600	-10.144000	25.668409	0.000654	20.843507
1758.485156	-3.003100	3.411300	-10.242000	25.671960	0.000655	20.834747
1759.484347	-2.987600	3.411300	-10.191000	25.637399	0.000655	20.838915
1760.493619	-2.982900	3.412700	-10.178000	25.613096	0.000656	20.823516
1761.483614	-2.983100	3.410300	-10.172000	25.585269	0.000653	20.836346
1762.485257	-2.996100	3.410400	-10.217000	25.576345	0.000652	20.813159
1763.489094	-3.003300	3.411500	-10.245000	25.552788	0.000653	20.833597
1764.492950	-2.999300	3.409800	-10.226000	25.567152	0.000652	20.822893
1765.489815	-3.002100	3.409700	-10.235000	25.617271	0.000650	20.835769
1766.491712	-2.997300	3.409900	-10.220000	25.619333	0.000651	20.843055
1767.486621	-3.000900	3.409600	-10.230000	25.625368	0.000650	20.848643
1768.485542	-3.011900	3.409400	-10.268000	25.609890	0.000651	20.801805
1769.486805	-2.993900	3.409300	-10.206000	25.578008	0.000650	20.797286
1770.487073	-2.996500	3.408500	-10.212000	25.591478	0.000649	20.832624
1771.488470	-2.999700	3.407200	-10.219000	25.582505	0.000650	20.825509
1772.492418	-3.005600	3.407900	-10.241000	25.564517	0.000649	20.836368
1773.484779	-2.980900	3.408200	-10.158000	25.545061	0.000648	20.804027
1774.485663	-3.003900	3.406900	-10.233000	25.584890	0.000648	20.814155
1775.489715	-3.013500	3.406000	-10.263000	25.627581	0.000650	20.806295
1776.490330	-3.005000	3.405300	-10.232000	25.666268	0.000649	20.836616
1777.490118	-3.009900	3.406500	-10.252000	25.673892	0.000647	20.816299
1778.490223	-3.012500	3.406400	-10.261000	25.669100	0.000648	20.838038
1779.487136	-3.003000	3.405400	-10.224000	25.663710	0.000646	20.820771
1780.491429	-3.007800	3.404200	-10.238000	25.644626	0.000647	20.819621
1781.493559	-3.004000	3.404800	-10.227000	25.650315	0.000646	20.837663
1782.489903	-3.033400	3.403400	-10.323000	25.661871	0.000644	20.803277
1783.489796	-3.005200	3.404300	-10.229000	25.653420	0.000645	20.806643
1784.496133	-2.998300	3.402800	-10.202000	25.666367	0.000641	20.815853
1785.497577	-2.984500	3.403000	-10.155000	25.577487	0.000643	20.805772
1786.494430	-2.994700	3.403500	-10.191000	25.558500	0.000643	20.813730
1787.492107	-2.986600	3.402500	-10.161000	25.542324	0.000644	20.824985
1788.487952	-2.987400	3.402400	-10.163000	25.525823	0.000643	20.803199
1789.492688	-3.001400	3.401300	-10.208000	25.473985	0.000643	20.807566
1790.502684	-3.009400	3.400600	-10.232000	25.542250	0.000643	20.821592
1791.502234	-3.018300	3.399300	-10.259000	25.557284	0.000642	20.810612
1792.500946	-3.000400	3.400200	-10.201000	25.569458	0.000640	20.810984
1793.497856	-3.018800	3.399500	-10.262000	25.593240	0.000641	20.796936
1794.496082	-3.002400	3.400100	-10.207000	25.609986	0.000639	20.804746
1795.494856	-3.008600	3.399200	-10.225000	25.639232	0.000639	20.824161
1796.500675	-2.999700	3.398900	-10.194000	25.675457	0.000639	20.823086
1797.492009	-2.998600	3.398100	-10.188000	25.658637	0.000637	20.816150
1798.493348	-3.007700	3.399600	-10.224000	25.650016	0.000640	20.803698
1799.496430	-2.999400	3.397800	-10.190000	25.653966	0.000638	20.803872
1800.502027	-2.984200	3.397900	-10.139000	25.639926	0.000636	20.790246
1801.498756	-3.008900	3.398400	-10.225000	25.624150	0.000636	20.786254
1802.498753	-3.026800	3.396100	-10.278000	25.637470	0.000636	20.807693
1803.500418	-3.011600	3.397800	-10.232000	25.603053	0.000635	20.803472
1804.497265	-3.025900	3.396600	-10.277000	25.623554	0.000635	20.797984
1805.500329	-2.993100	3.396400	-10.165000	25.616846	0.000636	20.806893
1806.496987	-3.016700	3.396700	-10.246000	25.635831	0.000633	20.813634
1807.500054	-2.985700	3.395700	-10.137000	25.624597	0.000633	20.816101
1808.499797	-2.998900	3.396300	-10.183000	25.648400	0.000635	20.810609
1809.494408	-3.008500	3.395300	-10.213000	25.672704	0.000635	20.791398
1810.497981	-2.988200	3.395600	-10.146000	25.696281	0.000635	20.826932
1811.501722	-3.005300	3.395900	-10.205000	25.718989	0.000632	20.790946
1812.499735	-3.000800	3.395400	-10.187000	25.760903	0.000634	20.794166
1813.502824	-2.996800	3.393900	-10.170000	25.771464	0.000634	20.787230
1814.503257	-3.028000	3.393400	-10.275000	25.782296	0.000631	20.796214
1815.499310	-3.028800	3.392300	-10.273000	25.793798	0.000631	20.783586
1816.499667	-3.014900	3.392900	-10.228000	25.729501	0.000630	20.783960
1817.507895	-3.012200	3.391400	-10.213000	25.695191	0.000630	20.795966
1818.502545	-3.022100	3.391100	-10.247000	25.656777	0.000631	20.797686
1819.498065	-3.002500	3.393000	-10.187000	25.668403	0.000631	20.776173
1820.502095	-3.010200	3.391900	-10.209000	25.692581	0.000628	20.789077
1821.504876	-2.993400	3.390300	-10.148000	25.722544	0.000629	20.789300
1822.501153	-3.014600	3.391100	-10.221000	25.772408	0.000628	20.793394
1823.505311	-2.963300	3.392300	-10.052000	25.731164	0.000628	20.799381
1824.506106	-2.978600	3.391400	-10.100000	25.715984	0.000626	20.778918
1825.501908	-2.984700	3.390600	-10.119000	25.716879	0.000626	20.799257
1826.505319	-2.964800	3.390700	-10.051000	25.703735	0.000626	20.785107
1827.505989	-3.009900	3.388900	-10.200000	25.695164	0.000625	20.758954
1828.503022	-2.996500	3.388400	-10.152000	25.689597	0.000627	20.787977
1829.509264	-2.976500	3.388500	-10.085000	25.670689	0.000625	20.802651
1830.510443	-2.993900	3.389500	-10.147000	25.632400	0.000626	20.778419
1831.509185	-3.019100	3.386600	-10.223000	25.630564	0.000623	20.778472
1832.513661	-2.988500	3.389400	-10.129000	25.620548	0.000622	20.781215
1833.506847	-3.008700	3.386100	-10.187000	25.617595	0.000623	20.784413
1834.503922	-2.970400	3.388800	-10.065000	25.633446	0.000622	20.769987
1835.508453	-3.027500	3.385500	-10.249000	25.625497	0.000622	20.779547
1836.505737	-2.988600	3.387400	-10.122000	25.606388	0.000621	20.786907
1837.508420	-2.996900	3.385400	-10.144000	25.584868	0.000621	20.783313
1838.511376	-2.990900	3.387200	-10.130000	25.569214	0.000623	20.780867
1839.503656	-3.022300	3.384700	-10.229000	25.618613	0.000617	20.783539
1840.505640	-2.996300	3.384500	-10.139000	25.642814	0.000617	20.771335
1841.509000	-3.004900	3.385400	-10.172000	25.671365	0.000617	20.803329
1842.506325	-3.017900	3.385000	-10.215000	25.713130	0.000617	20.783638
1843.504688	-2.979200	3.385000	-10.084000	25.715243	0.000615	20.792873
1844.515809	-2.998600	3.384800	-10.149000	25.739392	0.000615	20.782516
1845.508748	-2.999800	3.384100	-10.151000	25.766126	0.000614	20.779972
1846.503833	-2.983400	3.384800	-10.097000	25.758055	0.000614	20.792727
1847.510484	-2.999300	3.383200	-10.146000	25.744264	0.000614	20.769391
1848.507034	-3.009700	3.383400	-10.183000	25.794948	0.000616	20.787112
1849.517613	-3.017900	3.383200	-10.209000	25.787815	0.000615	20.763351
1850.512311	-2.986500	3.382500	-10.101000	25.777757	0.000614	20.784542
1851.505820	-2.992000	3.381700	-10.117000	25.762723	0.000614	20.767070
1852.505589	-3.008300	3.382200	-10.173000	25.772364	0.000613	20.771065
1853.510753	-3.000400	3.380500	-10.141000	25.779618	0.000611	20.772187
1854.511865	-2.992700	3.381500	-10.119000	25.784937	0.000611	20.778003
1855.515121	-2.994200	3.381100	-10.123000	25.789133	0.000610	20.788857
1856.512534	-3.011000	3.380100	-10.177000	25.802402	0.000610	20.777055
1857.511145	-3.008000	3.380000	-10.166000	25.767073	0.000611	20.776181
1858.510958	-3.017900	3.379900	-10.199000	25.765808	0.000610	20.780126
1859.516439	-2.991900	3.380100	-10.112000	25.788367	0.000610	20.771018
1860.513108	-2.999100	3.378900	-10.133000	25.800989	0.000608	20.763781
1861.510123	-3.023500	3.377700	-10.212000	25.767150	0.000608	20.778629
1862.514156	-3.026200	3.377500	-10.220000	25.799773	0.000608	20.779630
1863.512196	-3.000300	3.378200	-10.135000	25.821535	0.000609	20.752178
1864.514983	-2.986800	3.377300	-10.086000	25.827524	0.000607	20.753926
1865.514386	-3.013300	3.377100	-10.175000	25.827298	0.000608	20.760812
1866.517141	-2.987600	3.378000	-10.090000	25.829862	0.000606	20.770026
1867.512849	-2.987100	3.377600	-10.088000	25.841039	0.000606	20.752804
1868.515218	-3.009500	3.377900	-10.164000	25.838929	0.000604	20.754003
1869.513566	-3.014200	3.377700	-10.180000	25.837291	0.000604	20.756625
1870.509399	-3.018600	3.375100	-10.187000	25.824648	0.000605	20.773323
1871.515225	-2.988900	3.375300	-10.088000	25.780749	0.000603	20.768581
1872.515252	-3.005400	3.375600	-10.144000	25.750936	0.000604	20.768981
1873.512240	-3.029400	3.374700	-10.223000	25.750091	0.000602	20.773348
1874.519698	-3.006700	3.374800	-10.146000	25.744775	0.000602	20.750938
1875.514782	-2.980600	3.374900	-10.058000	25.781622	0.000600	20.765191
1876.522513	-3.004400	3.374600	-10.137000	25.804206	0.000601	20.767487
1877.518656	-3.005100	3.372900	-10.135000	25.814914	0.000601	20.780615
1878.520347	-2.987200	3.374000	-10.078000	25.822516	0.000601	20.757904
1879.514490	-3.010100	3.374500	-10.156000	25.789054	0.000599	20.748474
1880.516655	-3.015000	3.372500	-10.167000	25.786666	0.000600	20.745127
1881.519025	-2.998700	3.373700	-10.116000	25.785747	0.000597	20.739461
1882.514279	-3.013700	3.372500	-10.163000	25.777377	0.000599	20.749072
1883.522245	-3.016900	3.372000	-10.173000	25.762318	0.000598	20.761447
1884.518598	-3.017000	3.370800	-10.168000	25.721675	0.000596	20.742907
1885.517857	-3.025800	3.371200	-10.200000	25.717722	0.000598	20.751740
1886.519575	-2.997900	3.371900	-10.108000	25.702641	0.000596	20.741333
1887.522449	-3.010700	3.371400	-10.149000	25.701499	0.000597	20.768637
1888.518507	-3.023100	3.371000	-10.190000	25.707213	0.000595	20.744029
1889.525187	-3.015600	3.369100	-10.158000	25.730915	0.000594	20.749345
1890.527083	-3.016600	3.368800	-10.162000	25.755613	0.000593	20.765618
1891.520202	-3.000900	3.370500	-10.114000	25.755786	0.000594	20.731177
1892.524419	-2.992700	3.369600	-10.083000	25.761401	0.000592	20.752465
1893.521177	-2.994800	3.370300	-10.092000	25.784257	0.000593	20.734645
1894.521874	-2.983100	3.369000	-10.050000	25.819930	0.000593	20.752462
1895.524611	-2.986700	3.368800	-10.061000	25.842266	0.000594	20.741234
1896.522430	-2.953200	3.370100	-9.951700	25.802046	0.000591	20.755360
1897.523201	-2.991200	3.369000	-10.076000	25.806670	0.000594	20.746254
1898.524955	-2.995300	3.367200	-10.084000	25.794916	0.000592	20.753888
1899.524709	-2.992800	3.368300	-10.080000	25.797572	0.000590	20.744228
1900.524876	-3.019000	3.366000	-10.159000	25.799760	0.000589	20.751641
1901.531813	-2.984100	3.366100	-10.044000	25.826446	0.000589	20.752369
1902.527130	-2.990300	3.367200	-10.067000	25.843583	0.000587	20.731177
1903.530034	-3.028200	3.364600	-10.186000	25.877546	0.000588	20.743484
1904.537728	-3.003500	3.365600	-10.107000	25.877000	0.000588	20.759057
1905.528537	-3.008500	3.364300	-10.121000	25.927650	0.000589	20.737868
1906.530034	-3.006200	3.365500	-10.117000	25.919953	0.000587	20.756689
1907.529857	-3.007500	3.364600	-10.119000	25.943972	0.000586	20.740041
1908.530513	-3.008700	3.365300	-10.124000	25.957063	0.000586	20.727114
1909.529316	-3.008300	3.364000	-10.119000	25.955425	0.000584	20.754867
1910.529570	-3.006800	3.363800	-10.113000	25.972042	0.000585	20.752595
1911.529309	-3.000800	3.362600	-10.089000	25.965561	0.000584	20.740868
1912.531766	-2.985400	3.364300	-10.042000	25.977706	0.000584	20.740741
1913.532202	-3.003400	3.362900	-10.099000	25.945042	0.000584	20.734477
1914.529953	-2.994200	3.363000	-10.068000	25.919682	0.000582	20.755468
1915.528355	-3.005400	3.362900	-10.106000	25.883539	0.000583	20.748557
1916.532452	-2.981800	3.363100	-10.026000	25.839196	0.000583	20.732934
1917.535188	-3.001800	3.362100	-10.091000	25.835519	0.000582	20.743939
1918.531475	-3.017100	3.360500	-10.137000	25.842898	0.000582	20.751826
1919.533167	-2.978900	3.361000	-10.011000	25.860038	0.000582	20.770468
1920.529778	-3.001500	3.361000	-10.087000	25.873754	0.000582	20.743468
1921.537145	-2.985700	3.360700	-10.033000	25.878770	0.000580	20.739024
1922.533148	-2.996800	3.360400	-10.070000	25.904606	0.000583	20.728468
1923.531465	-2.983000	3.359500	-10.020000	25.926866	0.000577	20.743245
1924.531209	-2.989000	3.359700	-10.041000	25.863570	0.000578	20.736082
1925.537634	-2.993100	3.359000	-10.052000	25.860044	0.000578	20.761464
1926.538246	-2.994600	3.359700	-10.061000	25.808866	0.000578	20.747986
1927.535139	-2.980600	3.359000	-10.011000	25.798482	0.000577	20.746090
1928.539843	-2.990600	3.357900	-10.041000	25.808098	0.000577	20.745792
1929.539230	-3.012900	3.357400	-10.114000	25.793737	0.000577	20.750332
1930.537466	-3.004200	3.357500	-10.085000	25.807749	0.000577	20.726000
1931.531210	-2.978800	3.357800	-10.001000	25.808943	0.000575	20.747115
1932.537704	-2.981600	3.356300	-10.006000	25.824792	0.000575	20.745966
1933.538889	-2.997300	3.356300	-10.058000	25.846307	0.000574	20.754776
1934.535097	-2.993200	3.356700	-10.047000	25.865165	0.000573	20.740055
1935.537487	-2.978100	3.356000	-9.993700	25.876765	0.000575	20.773046
1936.541008	-2.981500	3.355900	-10.004000	25.869438	0.000576	20.764263
1937.541130	-2.992900	3.356700	-10.045000	25.893408	0.000573	20.739029
1938.541615	-2.965500	3.357000	-9.954500	25.921828	0.000572	20.744822
1939.539442	-2.984000	3.354600	-10.010000	25.924185	0.000573	20.749086
1940.539545	-2.997200	3.354700	-10.053000	25.934149	0.000571	20.760045
1941.535793	-2.996300	3.355100	-10.051000	25.945374	0.000572	20.735760
1942.534994	-2.975300	3.355200	-9.981400	25.941774	0.000571	20.759171
1943.538954	-3.007800	3.352000	-10.081000	25.968084	0.000570	20.740557
1944.536599	-3.002600	3.353100	-10.067000	25.957352	0.000569	20.753958
1945.541038	-3.017700	3.352800	-10.117000	25.897535	0.000570	20.745547
1946.538207	-3.021500	3.352000	-10.128000	25.921359	0.000569	20.754308
1947.538886	-3.011200	3.352100	-10.092000	25.898454	0.000569	20.740306
1948.541384	-3.005200	3.352600	-10.074000	25.903026	0.000567	20.764814
1949.541494	-3.022800	3.351500	-10.130000	25.884890	0.000569	20.762716
1950.536977	-3.003400	3.351800	-10.066000	25.857591	0.000568	20.767535
1951.543846	-3.010200	3.350700	-10.085000	25.882758	0.000568	20.755833
1952.543159	-2.982400	3.350700	-9.992600	25.913536	0.000568	20.751190
1953.542642	-2.997500	3.351300	-10.044000	25.925558	0.000567	20.748094
1954.545688	-3.002600	3.350500	-10.060000	25.934004	0.000565	20.733345
1955.545215	-3.011700	3.349900	-10.087000	25.954820	0.000564	20.762319
1956.546294	-2.998600	3.351300	-10.047000	25.937533	0.000568	20.769608
1957.541680	-3.008000	3.348800	-10.072000	25.898454	0.000563	20.758799
1958.550898	-2.996600	3.348500	-10.033000	25.901684	0.000565	20.760621
1959.548125	-3.015600	3.348500	-10.097000	25.900296	0.000564	20.760175
1960.554851	-3.001100	3.349200	-10.050000	25.866935	0.000563	20.766491
1961.550860	-2.993500	3.348100	-10.021000	25.838291	0.000561	20.761898
1962.546544	-3.009200	3.348000	-10.074000	25.802396	0.000563	20.769463
1963.548100	-2.980100	3.347600	-9.974400	25.815955	0.000561	20.778342
1964.549990	-2.992300	3.348300	-10.018000	25.830072	0.000560	20.757909
1965.545019	-2.994900	3.346700	-10.022000	25.823187	0.000562	20.760001
1966.545999	-2.990200	3.347300	-10.008000	25.841049	0.000559	20.762772
1967.549626	-2.993700	3.347600	-10.020000	25.887450	0.000559	20.761969
1968.548002	-3.003100	3.346000	-10.047000	25.880324	0.000560	20.760026
1969.549838	-3.015300	3.345400	-10.086000	25.915921	0.000559	20.758802
1970.549029	-3.012200	3.344800	-10.075000	25.933134	0.000558	20.764715
1971.547781	-3.015800	3.343500	-10.081000	25.966347	0.000557	20.761098
1972.560260	-2.985200	3.344700	-9.984100	25.967464	0.000557	20.751788
1973.548479	-3.003600	3.343900	-10.043000	25.943169	0.000557	20.752511
1974.559947	-3.016200	3.343600	-10.084000	25.976107	0.000558	20.769481
1975.550317	-2.997300	3.344500	-10.023000	25.968824	0.000556	20.784925
1976.560830	-3.014500	3.342900	-10.076000	26.020417	0.000553	20.772274
1977.553882	-3.005700	3.341100	-10.040000	25.999155	0.000554	20.773672
1978.555400	-2.991600	3.342100	-9.997200	26.019921	0.000554	20.774620
1979.561225	-2.997700	3.343400	-10.022000	25.980009	0.000554	20.774824
1980.552117	-2.990100	3.342900	-9.995100	26.002163	0.000551	20.752985
1981.554793	-2.980000	3.342400	-9.959100	25.958271	0.000551	20.766262
1982.557497	-2.996700	3.341200	-10.011000	25.925332	0.000552	20.776318
1983.554983	-2.991100	3.341700	-9.993600	25.900564	0.000554	20.754755
1984.552534	-3.006200	3.341800	-10.044000	25.891449	0.000551	20.763615
1985.561599	-2.992200	3.341900	-9.998800	25.935491	0.000551	20.760445
1986.554449	-3.004300	3.342000	-10.039000	25.972328	0.000551	20.768056
1987.556196	-3.001300	3.340600	-10.024000	25.947790	0.000550	20.769007
1988.558529	-2.995100	3.340200	-10.003000	25.960702	0.000549	20.763488
1989.554692	-2.983200	3.339900	-9.963100	25.963312	0.000549	20.758997
1990.560112	-2.971100	3.341000	-9.925600	25.925107	0.000546	20.780834
1991.556702	-3.007900	3.338800	-10.041000	25.932933	0.000549	20.788222
1992.553338	-3.009700	3.338300	-10.046000	25.936015	0.000546	20.776619
1993.562533	-3.004400	3.338500	-10.028000	25.957127	0.000546	20.771750
1994.562309	-2.978800	3.339500	-9.947200	25.989121	0.000547	20.762168
1995.557169	-2.986000	3.338500	-9.967600	25.973025	0.000546	20.771127
1996.558372	-2.975600	3.338100	-9.931200	26.000769	0.000546	20.745894
1997.558589	-2.983200	3.338100	-9.956500	25.978587	0.000545	20.782879
1998.560554	-3.008700	3.336900	-10.039000	25.973001	0.000544	20.784379
1999.556757	-2.998500	3.336900	-10.004000	25.953398	0.000544	20.794082
2000.555401	-3.009800	3.335100	-10.037000	25.912040	0.000545	20.795207
2001.557767	-3.016900	3.336100	-10.063000	25.913706	0.000543	20.757999
2002.560488	-2.987300	3.337800	-9.969200	25.924709	0.000543	20.785175
2003.560833	-2.995700	3.335100	-9.989800	25.967785	0.000542	20.783406
2004.558041	-3.001500	3.334800	-10.008000	25.988548	0.000542	20.790041
2005.555871	-3.007200	3.333900	-10.025000	25.975407	0.000540	20.791064
2006.561967	-2.973300	3.334700	-9.915000	26.008218	0.000540	20.791312
2007.561919	-2.987000	3.334400	-9.959200	25.980176	0.000542	20.780682
2008.559431	-3.018600	3.335000	-10.065000	25.956153	0.000538	20.783574
2009.557911	-3.005500	3.332900	-10.016000	25.943487	0.000540	20.796927
2010.561383	-2.974900	3.334200	-9.917900	25.895021	0.000537	20.773368
2011.558807	-3.020900	3.332000	-10.063000	25.900660	0.000538	20.793258
2012.560694	-3.003800	3.332200	-10.007000	25.907589	0.000537	20.781252
2013.561633	-2.987400	3.333000	-9.956200	25.941346	0.000539	20.787190
2014.560688	-2.989700	3.331600	-9.959400	25.973118	0.000535	20.771221
2015.562030	-2.985000	3.333300	-9.947700	25.983526	0.000539	20.811074
2016.563778	-3.000400	3.331300	-9.994400	25.961144	0.000533	20.783372
2017.562473	-3.003000	3.329100	-9.996800	25.960795	0.000535	20.784919
2018.564413	-3.018600	3.331300	-10.055000	25.922316	0.000534	20.803634
2019.564109	-2.978200	3.330100	-9.916500	25.900855	0.000533	20.804833
2020.561463	-2.986500	3.329300	-9.941500	25.911439	0.000533	20.803138
2021.563833	-2.987000	3.330200	-9.945700	25.940180	0.000531	20.788864
2022.568492	-3.012500	3.328600	-10.026000	25.953642	0.000532	20.802388
2023.562949	-3.021200	3.328400	-10.055000	25.947087	0.000532	20.792009
2024.564790	-3.011000	3.327100	-10.017000	25.963457	0.000530	20.775265
2025.564194	-3.020100	3.328200	-10.051000	25.977712	0.000529	20.803336
2026.566706	-2.989200	3.328700	-9.949400	26.019020	0.000529	20.794578
2027.563719	-3.002500	3.327100	-9.988900	26.026272	0.000532	20.804235
2028.566545	-2.987300	3.326600	-9.935600	26.028906	0.000529	20.799295
2029.564738	-2.979600	3.327000	-9.911900	26.053693	0.000529	20.788163
2030.565228	-2.979400	3.327300	-9.912300	26.111367	0.000527	20.815766
2031.564324	-2.987500	3.325900	-9.935000	26.103397	0.000528	20.800172
2032.569717	-2.998500	3.326300	-9.972800	26.087973	0.000526	20.810278
2033.567203	-3.010500	3.326400	-10.013000	26.086335	0.000529	20.810055
2034.567144	-3.002600	3.325800	-9.984300	26.096072	0.000526	20.792337
2035.566329	-3.007200	3.325900	-10.000000	26.106997	0.000525	20.801892
2036.565808	-3.001700	3.325400	-9.980900	26.116064	0.000525	20.798675
2037.569670	-3.008400	3.325500	-10.003000	26.134792	0.000525	20.814647
2038.569789	-2.990800	3.324700	-9.942600	26.153269	0.000525	20.806187
2039.565788	-2.984000	3.324000	-9.917700	26.131016	0.000523	20.805638
2040.569519	-3.002800	3.323400	-9.978500	26.141472	0.000521	20.813299
2041.569122	-3.002100	3.322300	-9.972300	26.144676	0.000524	20.808933
2042.567351	-2.990600	3.324100	-9.940500	26.142292	0.000523	20.787571
2043.568416	-2.973300	3.324000	-9.882000	26.152155	0.000521	20.815025
2044.568029	-3.010000	3.321400	-9.997000	26.140161	0.000520	20.825732
2045.566193	-2.989100	3.322100	-9.929500	26.154888	0.000522	20.815400
2046.571441	-2.973300	3.322700	-9.878200	26.169765	0.000520	20.816599
2047.570036	-2.998700	3.323600	-9.965300	26.173069	0.000519	20.806168
2048.567428	-2.990400	3.320600	-9.929300	26.204535	0.000518	20.790846
2049.573624	-3.035400	3.319300	-10.074000	26.228772	0.000520	20.829426
2050.572088	-2.977400	3.321200	-9.887100	26.209627	0.000518	20.802127
2051.566162	-3.019000	3.319900	-10.022000	26.201257	0.000516	20.806518
2052.570437	-3.000700	3.319400	-9.959400	26.214172	0.000517	20.816178
2053.568629	-2.977700	3.320800	-9.887200	26.244719	0.000517	20.837864
2054.570370	-2.997000	3.319600	-9.946900	26.260440	0.000517	20.820947
2055.573383	-3.030900	3.319300	-10.060000	26.273549	0.000513	20.817526
2056.571601	-3.011700	3.317600	-9.990600	26.278567	0.000514	20.844378
2057.566148	-2.998100	3.317300	-9.945100	26.285126	0.000515	20.830582
2058.572795	-3.020300	3.319100	-10.023000	26.292844	0.000515	20.796614
2059.570746	-2.995100	3.318000	-9.936500	26.274545	0.000515	20.819001
2060.569470	-3.017600	3.318100	-10.011000	26.263120	0.000513	20.813209
2061.569049	-2.993700	3.317600	-9.931000	26.279535	0.000511	20.816903
2062.569704	-3.014400	3.315300	-9.992400	26.265655	0.000513	20.813385
2063.569718	-2.999900	3.317000	-9.950000	26.287806	0.000511	20.812886
2064.571320	-2.960500	3.316400	-9.817300	26.284676	0.000513	20.805474
2065.567533	-3.005500	3.314900	-9.962100	26.298635	0.000511	20.831356
2066.571549	-2.975700	3.316000	-9.865300	26.287408	0.000511	20.824340
2067.570521	-3.026200	3.314100	-10.028000	26.248394	0.000510	20.821644
2068.571621	-3.007500	3.314400	-9.967200	26.241665	0.000510	20.804925
2069.568995	-2.979400	3.313600	-9.871100	26.251401	0.000507	20.830830
2070.568580	-3.019300	3.313000	-10.002000	26.259521	0.000508	20.832351
2071.571840	-2.971800	3.315000	-9.849400	26.303899	0.000509	20.813413
2072.568192	-3.006400	3.312500	-9.957900	26.295802	0.000507	20.825189
2073.570368	-3.003400	3.311700	-9.946200	26.301266	0.000506	20.841586
2074.574844	-2.981200	3.313000	-9.875900	26.314625	0.000506	20.843157
2075.569438	-2.999800	3.312800	-9.936400	26.329102	0.000506	20.843008
2076.573866	-2.977500	3.312100	-9.860800	26.357311	0.000503	20.836271
2077.570144	-2.980600	3.312300	-9.871700	26.372855	0.000504	20.840988
2078.569681	-2.987300	3.311200	-9.890100	26.385719	0.000503	20.830210
2079.569733	-2.990300	3.310600	-9.898100	26.378939	0.000503	20.846154
2080.577590	-2.998800	3.312100	-9.931600	26.390462	0.000503	20.821700
2081.572833	-2.998100	3.309800	-9.922000	26.368560	0.000502	20.842835
2082.577162	-3.029900	3.309300	-10.025000	26.400295	0.000502	20.842013
2083.572497	-3.010700	3.310100	-9.963700	26.400319	0.000501	20.837771
2084.571834	-3.009600	3.309200	-9.958700	26.395506	0.000501	20.831511
2085.574135	-3.001800	3.310500	-9.935900	26.386490	0.000500	20.845682
2086.570383	-2.996000	3.309600	-9.915000	26.406727	0.000499	20.844210
2087.572075	-3.021800	3.307600	-9.993700	26.402410	0.000499	20.833234
2088.579023	-2.994200	3.307700	-9.903300	26.380755	0.000498	20.853668
2089.574718	-3.003100	3.307300	-9.929800	26.355899	0.000496	20.851921
2090.573649	-2.984200	3.307800	-9.869200	26.341551	0.000499	20.844613
2091.577277	-2.991500	3.308400	-9.896200	26.350860	0.000497	20.832633
2092.572983	-2.996600	3.307400	-9.909200	26.361862	0.000497	20.844638
2093.574213	-2.991200	3.307000	-9.891500	26.336487	0.000495	20.845688
2094.576026	-2.998100	3.306100	-9.910700	26.321365	0.000495	20.844241
2095.574406	-2.982500	3.307900	-9.864600	26.286001	0.000493	20.849953
2096.573568	-3.004400	3.305100	-9.929600	26.221983	0.000495	20.851527
2097.581641	-3.002700	3.305500	-9.924900	26.221064	0.000492	20.849655
2098.581972	-3.014700	3.304600	-9.960200	26.178255	0.000493	20.856423
2099.578641	-3.014800	3.304700	-9.961700	26.156595	0.000492	20.844616
2100.582885	-3.011900	3.303800	-9.949900	26.175300	0.000491	20.859618
2101.572390	-3.017400	3.302000	-9.962000	26.189426	0.000490	20.835406
2102.576487	-3.008200	3.303000	-9.934600	26.246300	0.000491	20.846091
2103.585298	-3.002800	3.302500	-9.915900	26.272050	0.000490	20.853950
2104.575849	-3.012900	3.302300	-9.948500	26.285810	0.000488	20.848812
2105.576216	-2.983200	3.301900	-9.849600	26.319481	0.000488	20.839977
2106.578876	-3.007900	3.301300	-9.929000	26.323952	0.000487	20.838307
2107.581782	-2.991300	3.302300	-9.876500	26.335377	0.000487	20.858322
2108.583362	-3.002800	3.300500	-9.909900	26.365596	0.000487	20.854080
2109.584906	-2.999900	3.300000	-9.899000	26.356037	0.000488	20.866757
2110.584010	-3.012800	3.299600	-9.940300	26.357798	0.000486	20.858096
2111.576004	-2.997800	3.300400	-9.892900	26.389533	0.000487	20.846844
2112.580183	-3.003900	3.300900	-9.914700	26.377316	0.000486	20.847368
2113.576571	-3.033200	3.298900	-10.005000	26.389135	0.000484	20.871099
2114.580073	-2.944300	3.300600	-9.716400	26.397978	0.000484	20.860073
2115.583355	-2.993900	3.299700	-9.878000	26.398774	0.000484	20.876044
2116.583434	-2.995700	3.299800	-9.884400	26.388047	0.000484	20.865738
2117.580340	-2.978200	3.297700	-9.820400	26.389314	0.000482	20.856106
2118.581530	-2.976600	3.298100	-9.815500	26.405628	0.000481	20.866813
2119.580618	-2.984600	3.296900	-9.839100	26.398478	0.000480	20.862471
2120.577471	-3.007400	3.297600	-9.916100	26.427801	0.000480	20.888148
2121.586081	-3.003300	3.294900	-9.894800	26.445604	0.000480	20.868111
2122.591086	-2.994400	3.297600	-9.873500	26.447839	0.000479	20.862772
2123.582976	-2.980100	3.296700	-9.823100	26.451490	0.000478	20.882087
2124.586275	-2.991500	3.295300	-9.856800	26.441062	0.000478	20.872081
2125.583214	-2.991300	3.297400	-9.861900	26.390757	0.000480	20.864668
2126.590881	-3.032000	3.294900	-9.989700	26.398354	0.000477	20.874201
2127.592309	-2.996200	3.294900	-9.870300	26.398009	0.000479	20.876698
2128.583267	-3.000900	3.295600	-9.888000	26.400565	0.000477	20.878319
2129.581598	-3.001000	3.295800	-9.889100	26.368087	0.000477	20.875548
2130.585724	-3.010500	3.293400	-9.912800	26.350233	0.000474	20.887002
2131.582920	-2.985000	3.294600	-9.833200	26.327464	0.000473	20.902049
2132.584402	-3.000300	3.293600	-9.881300	26.327513	0.000475	20.868911
2133.586940	-3.005200	3.292600	-9.893500	26.345491	0.000473	20.879391
2134.589029	-3.005300	3.292200	-9.893600	26.353042	0.000475	20.879394
2135.585577	-2.952600	3.295100	-9.728000	26.328358	0.000473	20.878768
2136.589962	-3.020500	3.291900	-9.941200	26.299353	0.000473	20.891343
2137.592537	-3.009400	3.290200	-9.899800	26.268984	0.000473	20.870308
2138.584791	-3.002000	3.291000	-9.879000	26.254854	0.000471	20.876497
2139.590634	-3.003800	3.290300	-9.882600	26.262823	0.000468	20.888297
2140.587972	-3.024500	3.290200	-9.950400	26.306106	0.000470	20.894811
2141.591043	-2.986800	3.291300	-9.829800	26.336450	0.000471	20.897330
2142.592033	-2.987000	3.289800	-9.825500	26.382191	0.000469	20.888300
2143.588831	-2.988900	3.290200	-9.833400	26.407685	0.000468	20.877414
2144.592409	-3.011500	3.289000	-9.903300	26.441950	0.000470	20.879137
2145.587681	-3.005600	3.289500	-9.886300	26.452776	0.000465	20.890017
2146.589414	-3.008800	3.288600	-9.894000	26.442496	0.000466	20.881108
2147.585456	-2.993800	3.288800	-9.845000	26.445447	0.000466	20.877910
2148.591144	-2.984500	3.288600	-9.812800	26.440162	0.000467	20.880659
2149.594207	-3.002300	3.287300	-9.868200	26.472413	0.000463	20.885573
2150.592098	-3.018700	3.286900	-9.921000	26.483161	0.000464	20.900169
2151.592001	-2.994400	3.285700	-9.837200	26.522712	0.000465	20.892509
2152.591447	-2.978000	3.286800	-9.787100	26.548058	0.000462	20.889537
2153.592419	-2.978400	3.286600	-9.787900	26.562952	0.000462	20.868474
2154.589285	-2.989800	3.285900	-9.823400	26.561984	0.000462	20.885518
2155.592474	-2.990200	3.285000	-9.821000	26.579707	0.000461	20.886265
2156.586122	-3.004500	3.284200	-9.866200	26.577599	0.000460	20.895524
2157.592044	-3.011800	3.283900	-9.889800	26.571541	0.000459	20.853401
2158.593610	-3.011700	3.283500	-9.887900	26.575314	0.000460	20.867625
2159.588014	-2.996600	3.285300	-9.844000	26.605625	0.000460	20.863956
2160.593749	-2.976700	3.284700	-9.776300	26.567940	0.000458	20.875385
2161.591724	-2.993700	3.284000	-9.830000	26.543042	0.000459	20.885443
2162.591298	-2.992800	3.282900	-9.824200	26.551332	0.000460	20.862958
2163.592181	-3.020700	3.281600	-9.911500	26.509301	0.000458	20.869072
2164.597396	-2.998600	3.282500	-9.842000	26.515334	0.000455	20.868025
2165.591014	-3.002000	3.282500	-9.852900	26.471735	0.000455	20.880625
2166.596354	-3.021300	3.280900	-9.911200	26.479582	0.000455	20.870021
2167.596841	-2.985700	3.281900	-9.797700	26.487826	0.000454	20.872617
2168.593229	-3.008800	3.279900	-9.867700	26.491526	0.000454	20.858319
2169.596518	-2.991500	3.281900	-9.816600	26.521343	0.000455	20.863634
2170.596925	-2.976100	3.281200	-9.763800	26.521019	0.000454	20.859990
2171.592169	-2.999700	3.280100	-9.837900	26.536015	0.000451	20.869373
2172.595449	-2.986600	3.279400	-9.793600	26.510793	0.000452	20.872943
2173.598857	-3.020100	3.279500	-9.901900	26.509849	0.000451	20.861090
2174.597238	-3.000300	3.278800	-9.836500	26.516056	0.000451	20.862586
2175.599426	-2.997900	3.278500	-9.827500	26.552580	0.000448	20.870851
2176.600386	-3.002800	3.278300	-9.843000	26.585374	0.000452	20.870151
2177.594863	-3.026400	3.277800	-9.918100	26.608264	0.000448	20.857126
2178.597250	-2.993100	3.277600	-9.808600	26.625814	0.000450	20.850587
2179.596317	-3.003600	3.278000	-9.845200	26.590269	0.000450	20.845201
2180.600577	-2.978200	3.277800	-9.761200	26.595307	0.000447	20.846472
2181.592914	-2.987600	3.275900	-9.785900	26.604395	0.000446	20.848495
2182.600497	-2.999200	3.276300	-9.824800	26.647119	0.000447	20.843082
2183.594728	-3.001300	3.277200	-9.834900	26.655112	0.000446	20.870556
2184.603242	-3.016700	3.274600	-9.877500	26.626018	0.000443	20.861223
2185.604953	-2.979600	3.277000	-9.762000	26.609833	0.000444	20.846376
2186.602976	-2.982100	3.276600	-9.770300	26.611127	0.000442	20.862375
2187.603072	-3.005100	3.272400	-9.831500	26.583644	0.000443	20.840912
2188.603849	-2.981000	3.274900	-9.762200	26.569545	0.000443	20.846180
2189.598170	-2.981700	3.274100	-9.761600	26.566765	0.000442	20.857135
2190.598886	-2.954900	3.274200	-9.673400	26.581510	0.000441	20.849673
2191.599251	-3.011700	3.273300	-9.857200	26.590198	0.000441	20.832328
2192.601297	-3.015800	3.273800	-9.870800	26.623862	0.000438	20.852893
2193.611862	-2.996000	3.272100	-9.802000	26.641514	0.000438	20.836973
2194.601208	-3.006800	3.272600	-9.838600	26.633918	0.000437	20.852570
2195.601085	-2.989700	3.271500	-9.778600	26.678602	0.000438	20.860032
2196.601450	-2.998200	3.271400	-9.808200	26.694265	0.000437	20.824097
2197.602121	-2.993900	3.270400	-9.790500	26.654224	0.000437	20.833630
2198.601150	-3.004300	3.269700	-9.822500	26.637867	0.000437	20.813867
2199.601758	-3.011000	3.269500	-9.843500	26.637223	0.000433	20.823177
2200.601009	-2.993200	3.269600	-9.785900	26.656015	0.000434	20.819783
2201.602122	-3.019100	3.269600	-9.870300	26.675973	0.000434	20.850751
2202.608798	-2.967400	3.268800	-9.699100	26.649039	0.000433	20.836952
2203.602064	-3.011500	3.270400	-9.847300	26.672600	0.000433	20.831714
2204.606719	-2.985900	3.269000	-9.759700	26.670911	0.000431	20.819111
2205.608470	-3.015400	3.266500	-9.848500	26.689850	0.000431	20.834832
2206.602558	-2.987400	3.266900	-9.758600	26.679006	0.000429	20.843844
2207.605982	-3.009900	3.265700	-9.828300	26.681981	0.000430	20.852050
2208.604297	-3.012600	3.265200	-9.834800	26.665627	0.000428	20.830868
2209.605772	-3.013800	3.265000	-9.839300	26.639785	0.000428	20.827648
2210.607012	-3.007400	3.265600	-9.819600	26.665279	0.000428	20.831466
2211.612051	-2.979600	3.267000	-9.732700	26.655648	0.000427	20.843596
2212.603889	-3.015000	3.264500	-9.841300	26.657313	0.000428	20.826303
2213.612035	-3.009300	3.263600	-9.820400	26.673198	0.000425	20.826626
2214.605534	-2.990900	3.263600	-9.759800	26.648552	0.000425	20.831720
2215.611050	-3.003000	3.265600	-9.805500	26.643734	0.000426	20.824506
2216.606472	-2.991600	3.263500	-9.762700	26.676129	0.000424	20.822935
2217.605521	-2.998500	3.263400	-9.783800	26.658105	0.000426	20.835160
2218.612033	-2.993600	3.262800	-9.764700	26.663222	0.000422	20.820391
2219.608637	-2.992100	3.262100	-9.759700	26.697033	0.000423	20.838259
2220.604781	-2.983800	3.261700	-9.731700	26.710910	0.000421	20.824710
2221.605249	-3.008200	3.261900	-9.810900	26.734541	0.000420	20.819544
2222.610409	-2.991400	3.261300	-9.754500	26.758966	0.000421	20.827506
2223.613145	-2.972100	3.261400	-9.692300	26.756679	0.000418	20.843224
2224.614037	-2.991400	3.260200	-9.751300	26.700957	0.000419	20.832247
2225.614317	-3.009300	3.259400	-9.807700	26.644310	0.000419	20.818922
2226.611920	-2.998300	3.260700	-9.775100	26.629738	0.000419	20.806643
2227.611613	-3.004600	3.259000	-9.790900	26.596496	0.000418	20.816374
2228.616454	-3.016000	3.259200	-9.828700	26.585699	0.000417	20.810263
2229.611197	-2.980600	3.258900	-9.711800	26.589396	0.000415	20.820617
2230.608294	-3.012100	3.257000	-9.809600	26.625789	0.000415	20.811682
2231.608414	-3.009500	3.258800	-9.806100	26.639942	0.000415	20.818798
2232.608525	-2.956400	3.259500	-9.634400	26.603571	0.000413	20.823961
2233.609355	-3.004100	3.255500	-9.779200	26.612486	0.000413	20.826759
2234.617280	-3.014800	3.256400	-9.817200	26.658534	0.000413	20.798133
2235.610730	-2.999500	3.256400	-9.766600	26.614768	0.000411	20.821940
2236.615745	-2.992600	3.255400	-9.741200	26.610942	0.000413	20.804344
2237.609407	-2.996900	3.256300	-9.758400	26.581704	0.000409	20.827109
2238.615130	-3.016500	3.255500	-9.819000	26.620280	0.000410	20.826533
2239.623409	-2.987700	3.256300	-9.727800	26.677769	0.000410	20.819368
2240.618406	-3.013400	3.255100	-9.807800	26.697831	0.000408	20.820096
2241.618981	-3.005900	3.254500	-9.780500	26.722852	0.000410	20.800681
2242.618938	-2.995200	3.254200	-9.746000	26.743652	0.000408	20.818748
2243.621897	-3.015500	3.253400	-9.809200	26.766687	0.000406	20.807768
2244.619125	-2.974900	3.253400	-9.677400	26.746035	0.000406	20.817824
2245.623325	-3.010800	3.252300	-9.790800	26.767754	0.000408	20.806470
2246.620368	-2.997100	3.253200	-9.748800	26.763435	0.000406	20.821568
2247.624645	-2.964600	3.253100	-9.641500	26.791411	0.000404	20.808918
2248.623461	-3.010900	3.251700	-9.789200	26.788328	0.000404	20.797284
2249.622095	-2.999400	3.251900	-9.752200	26.800818	0.000405	20.796565
2250.623974	-3.008300	3.250500	-9.777400	26.823204	0.000407	20.815754
2251.625811	-2.972600	3.250700	-9.661900	26.847254	0.000401	20.814332
2252.622860	-2.969300	3.251500	-9.653000	26.849609	0.000403	20.799630
2253.626545	-2.981100	3.250700	-9.689000	26.857281	0.000402	20.809240
2254.621602	-2.973400	3.249200	-9.659400	26.840206	0.000400	20.799658
2255.622225	-3.003300	3.247700	-9.752800	26.810099	0.000399	20.820595
2256.624668	-2.999000	3.248400	-9.740400	26.790760	0.000399	20.812531
2257.627318	-3.017500	3.248100	-9.799900	26.739186	0.000399	20.815680
2258.624284	-3.033100	3.246200	-9.844300	26.710861	0.000398	20.801428
2259.627818	-2.987800	3.246600	-9.699700	26.728138	0.000398	20.811685
2260.623827	-2.984300	3.246900	-9.689300	26.748590	0.000396	20.805221
2261.626841	-2.989200	3.247600	-9.705700	26.768151	0.000398	20.799757
2262.627369	-3.001200	3.246700	-9.743300	26.792724	0.000396	20.792695
2263.633135	-3.003800	3.245800	-9.748100	26.784312	0.000395	20.814583
2264.621884	-3.018300	3.243800	-9.790100	26.782025	0.000396	20.796162
2265.623364	-2.987500	3.245500	-9.695100	26.826058	0.000394	20.801081
2266.627542	-3.008900	3.245000	-9.762700	26.851499	0.000393	20.782564
2267.624568	-2.984100	3.244700	-9.681100	26.866095	0.000394	20.817629
2268.634665	-2.991400	3.245800	-9.708200	26.885007	0.000393	20.786385
2269.628528	-3.007700	3.244700	-9.758400	26.901138	0.000394	20.805924
2270.632291	-3.016300	3.242300	-9.779400	26.877761	0.000391	20.799013
2271.627409	-3.004800	3.243300	-9.744400	26.884736	0.000393	20.803656
2272.626729	-2.977000	3.242300	-9.651300	26.863642	0.000390	20.784342
2273.627570	-2.978400	3.242400	-9.655400	26.892481	0.000389	20.789158
2274.625955	-3.007100	3.242000	-9.747900	26.846018	0.000388	20.779898
2275.634749	-3.022900	3.239600	-9.791300	26.800602	0.000390	20.780227
2276.626053	-2.995900	3.239700	-9.705000	26.775083	0.000388	20.799615
2277.628550	-2.992000	3.240100	-9.693500	26.724276	0.000387	20.774137
2278.636030	-3.008700	3.238500	-9.742700	26.751531	0.000385	20.770719
2279.630007	-2.987900	3.239700	-9.678300	26.769874	0.000386	20.786791
2280.625844	-2.995200	3.239100	-9.701000	26.797054	0.000385	20.797523
2281.634873	-3.017100	3.238300	-9.769200	26.822020	0.000385	20.793227
2282.634105	-2.986100	3.239400	-9.672800	26.847014	0.000384	20.800340
2283.632210	-2.982300	3.236600	-9.651400	26.890696	0.000384	20.790683
2284.635130	-2.979300	3.236300	-9.640900	26.932592	0.000382	20.787293
2285.630710	-3.024000	3.236900	-9.787100	26.946288	0.000384	20.786840
2286.636661	-3.027600	3.234600	-9.791900	26.966317	0.000382	20.781376
2287.632953	-3.031300	3.236000	-9.808200	26.992225	0.000383	20.778507
2288.629611	-2.994200	3.235700	-9.686600	26.996786	0.000382	20.788309
2289.630462	-2.991100	3.233400	-9.670800	27.022497	0.000382	20.783819
2290.629697	-3.012400	3.233200	-9.739500	27.032795	0.000382	20.797495
2291.631771	-3.032000	3.234200	-9.804200	27.049596	0.000379	20.781200
2292.628469	-3.004200	3.232300	-9.709500	27.051307	0.000378	20.784817
2293.631554	-2.982500	3.233900	-9.644000	26.995301	0.000378	20.788238
2294.630136	-3.001700	3.233200	-9.704500	26.998004	0.000377	20.775309
2295.639010	-2.978800	3.232300	-9.627300	26.972095	0.000378	20.788610
2296.629909	-2.979500	3.233100	-9.632500	26.970336	0.000377	20.800117
2297.637627	-3.019100	3.231300	-9.754000	26.978274	0.000375	20.779650
2298.636178	-2.987300	3.231000	-9.651300	26.978749	0.000373	20.763058
2299.635701	-2.979400	3.232400	-9.630000	26.957608	0.000376	20.779257
2300.635771	-2.991700	3.230000	-9.662300	26.962366	0.000374	20.774084
2301.632756	-3.011600	3.229900	-9.726400	26.980237	0.000373	20.777831
2302.636064	-2.996400	3.228800	-9.674300	26.990339	0.000373	20.778033
2303.633691	-3.006900	3.228000	-9.705400	26.976690	0.000373	20.781376
2304.632889	-2.983900	3.227500	-9.630100	26.977140	0.000371	20.765233
2305.637745	-3.003200	3.228400	-9.693000	26.981405	0.000372	20.783273
2306.634973	-2.995900	3.227700	-9.668600	26.980561	0.000371	20.786217
2307.633741	-2.989800	3.229200	-9.653000	26.992127	0.000371	20.776985
2308.634731	-3.008900	3.226900	-9.708400	26.994087	0.000369	20.776585
2309.634190	-3.008200	3.225700	-9.702800	27.017714	0.000369	20.783750
2310.631570	-2.981700	3.227300	-9.622100	27.032305	0.000367	20.790364
2311.635482	-2.980700	3.225200	-9.611800	27.022379	0.000366	20.771373
2312.634406	-2.983600	3.226300	-9.624400	26.985205	0.000365	20.777137
2313.634717	-3.007400	3.224600	-9.696100	26.996570	0.000365	20.766281
2314.639610	-2.999600	3.223500	-9.668100	26.962326	0.000364	20.776415
2315.636153	-3.003000	3.222300	-9.675700	26.940516	0.000366	20.770604
2316.642650	-3.011500	3.222100	-9.701600	26.984413	0.000364	20.763064
2317.642109	-2.997400	3.223400	-9.661000	26.999652	0.000362	20.747568
2318.635890	-3.002900	3.221600	-9.673200	27.018016	0.000364	20.766036
2319.632969	-2.991000	3.223500	-9.641000	27.020644	0.000361	20.746868
2320.652351	-3.000300	3.221400	-9.664400	27.019430	0.000361	20.754182
2321.636382	-2.991400	3.221300	-9.635300	27.023476	0.000360	20.758725
2322.637324	-3.016200	3.220200	-9.712000	27.022857	0.000358	20.769008
2323.643387	-3.001500	3.220800	-9.666900	27.037519	0.000360	20.756252
2324.642970	-2.996800	3.219000	-9.645400	27.046456	0.000360	20.750066
2325.643672	-2.997200	3.219800	-9.649400	27.058342	0.000357	20.777193
2326.640433	-2.999000	3.219600	-9.654700	27.020949	0.000356	20.762348
2327.645465	-3.040200	3.217800	-9.781400	26.998117	0.000357	20.761198
2328.640039	-3.002800	3.218200	-9.662900	27.003205	0.000357	20.766789
2329.646982	-2.999200	3.218300	-9.650600	27.025886	0.000355	20.766838
2330.649011	-3.000100	3.216400	-9.648700	27.054052	0.000357	20.756283
2331.650471	-2.995600	3.216700	-9.635000	27.034598	0.000356	20.744304
2332.642750	-3.028400	3.214600	-9.733100	26.981368	0.000356	20.745777
2333.639493	-3.015300	3.214300	-9.690000	26.942183	0.000355	20.764220
2334.647831	-2.994300	3.216400	-9.629600	26.898506	0.000352	20.761077
2335.638788	-3.019200	3.212600	-9.698200	26.937745	0.000353	20.769714
2336.643570	-2.992900	3.213100	-9.616000	26.953278	0.000352	20.763522
2337.641840	-3.007000	3.212500	-9.658800	26.934789	0.000354	20.760578
2338.650202	-2.981400	3.213900	-9.581100	26.962239	0.000352	20.739343
2339.641475	-2.979800	3.213100	-9.573500	26.972736	0.000350	20.750847
2340.645448	-2.982200	3.214300	-9.585000	27.024404	0.000350	20.751597
2341.644025	-2.997200	3.211500	-9.624500	27.042222	0.000350	20.755765
2342.638752	-3.005000	3.211400	-9.649200	26.991895	0.000349	20.744509
2343.645741	-2.994600	3.210600	-9.613900	26.995717	0.000350	20.745033
2344.642369	-2.989900	3.210400	-9.597400	27.001251	0.000349	20.726890
2345.647073	-3.013700	3.211500	-9.677400	26.996638	0.000349	20.740743
2346.644642	-3.008700	3.210300	-9.657100	26.950208	0.000348	20.754745
2347.642872	-2.995500	3.210000	-9.614600	26.888807	0.000347	20.744686
2348.642295	-2.996700	3.209200	-9.615500	26.856322	0.000348	20.745687
2349.646891	-2.985800	3.207600	-9.576700	26.868930	0.000347	20.737976
2350.645031	-3.003600	3.206300	-9.628800	26.906577	0.000345	20.728889
2351.639612	-2.978000	3.208500	-9.553700	26.875754	0.000345	20.744837
2352.647638	-3.013900	3.208200	-9.668100	26.840886	0.000344	20.751504
2353.643098	-2.977300	3.207400	-9.548800	26.844261	0.000343	20.756794
2354.647731	-2.988200	3.206200	-9.580100	26.823586	0.000344	20.747859
2355.643954	-3.009100	3.204200	-9.640500	26.794496	0.000343	20.745637
2356.648924	-3.005300	3.203100	-9.625400	26.811423	0.000341	20.749381
2357.642605	-2.975600	3.205200	-9.536300	26.835052	0.000341	20.746585
2358.649377	-2.993100	3.206800	-9.597500	26.862800	0.000343	20.733708
2359.651987	-2.983300	3.203500	-9.555900	26.877545	0.000341	20.742845
2360.644382	-3.019700	3.202300	-9.669100	26.929264	0.000341	20.739848
2361.651574	-3.011500	3.201800	-9.640800	26.946063	0.000341	20.730188
2362.651160	-3.015300	3.202000	-9.654000	26.989270	0.000337	20.750878
2363.647069	-2.994700	3.202100	-9.588800	27.016891	0.000338	20.734557
2364.649110	-3.005100	3.200700	-9.617200	27.052872	0.000340	20.735655
2365.660978	-3.008900	3.199400	-9.626100	27.093865	0.000338	20.769770
2366.656031	-3.032300	3.199800	-9.702000	27.125674	0.000338	20.723998
2367.647001	-3.006100	3.199100	-9.616100	27.147141	0.000336	20.723304
2368.643305	-2.993500	3.198900	-9.574200	27.148180	0.000336	20.712494
2369.647030	-2.939400	3.201600	-9.409700	27.130019	0.000336	20.733110
2370.656394	-2.986500	3.199600	-9.555200	27.152028	0.000336	20.728219
2371.647478	-3.004500	3.197500	-9.605900	27.154632	0.000334	20.737477
2372.649652	-2.992900	3.198200	-9.570900	27.079724	0.000334	20.727098
2373.645053	-2.977700	3.197400	-9.519900	27.059777	0.000333	20.723633
2374.653401	-3.031900	3.195400	-9.686900	27.060893	0.000331	20.742773
2375.655263	-3.005900	3.196400	-9.607400	27.065336	0.000332	20.726379
2376.657248	-2.982600	3.196300	-9.532200	27.075980	0.000333	20.721435
2377.652154	-3.002900	3.194900	-9.593500	27.086106	0.000332	20.736361
2378.657065	-2.988500	3.196000	-9.550100	27.060819	0.000331	20.727999
2379.649997	-2.990800	3.193500	-9.550300	27.038761	0.000332	20.718618
2380.654908	-2.997100	3.193400	-9.569400	27.059408	0.000330	20.730848
2381.658089	-2.977500	3.194400	-9.510000	27.052511	0.000329	20.737189
2382.649172	-2.989100	3.192200	-9.541000	27.040650	0.000328	20.734743
2383.648834	-3.006600	3.192100	-9.595200	27.054147	0.000329	20.719867
2384.649958	-3.008500	3.190600	-9.598500	27.026804	0.000326	20.748795
2385.651399	-3.000300	3.190700	-9.572400	27.048718	0.000327	20.716303
2386.657819	-2.972300	3.190700	-9.482600	27.052440	0.000327	20.737117
2387.647472	-3.017400	3.190200	-9.625200	27.088571	0.000328	20.736944
2388.662190	-3.003900	3.189100	-9.578400	27.117628	0.000327	20.741986
2389.651006	-3.002400	3.189300	-9.574800	27.143459	0.000326	20.721497
2390.660028	-2.996400	3.189000	-9.554300	27.113783	0.000325	20.737170
2391.651975	-2.983800	3.188100	-9.511400	27.098847	0.000325	20.723096
2392.662508	-3.010800	3.188200	-9.596900	27.135124	0.000326	20.715959
2393.659487	-2.979600	3.186600	-9.493600	27.112470	0.000326	20.715934
2394.653339	-3.020800	3.185300	-9.621400	27.123908	0.000323	20.726016
2395.662717	-3.020300	3.185400	-9.620200	27.129073	0.000323	20.740694
2396.654161	-3.009000	3.185600	-9.584400	27.146614	0.000323	20.749328
2397.651652	-2.995200	3.184800	-9.538500	27.180012	0.000321	20.752099
2398.652393	-3.009100	3.184500	-9.581900	27.193239	0.000323	20.724624
2399.663305	-3.031900	3.182800	-9.648100	27.234150	0.000321	20.743489
2400.658341	-2.988300	3.183100	-9.511500	27.231473	0.000322	20.727045
2401.658368	-2.982300	3.184100	-9.494900	27.208821	0.000321	20.734133
2402.662407	-2.990100	3.182200	-9.514300	27.191973	0.000319	20.729989
2403.655362	-2.993500	3.181600	-9.522500	27.186590	0.000320	20.717462
2404.668301	-2.993000	3.182200	-9.522900	27.177436	0.000321	20.706357
2405.658110	-3.014500	3.179900	-9.584900	27.189021	0.000319	20.751203
2406.656433	-2.961300	3.183200	-9.425300	27.220033	0.000317	20.726444
2407.667115	-2.984500	3.180100	-9.490000	27.211895	0.000318	20.750029
2408.662722	-2.986400	3.179700	-9.495500	27.272086	0.000317	20.733284
2409.664797	-2.997700	3.178200	-9.526700	27.282629	0.000317	20.715912
2410.660509	-3.013900	3.177000	-9.574300	27.271017	0.000317	20.733631
2411.660330	-3.005500	3.177200	-9.548000	27.187653	0.000316	20.724221
2412.654957	-3.008300	3.176500	-9.555100	27.147631	0.000314	20.735651
2413.662023	-2.982500	3.177100	-9.474700	27.143515	0.000315	20.733408
2414.667870	-2.984900	3.177400	-9.482000	27.127110	0.000317	20.748677
2415.660794	-3.013200	3.174500	-9.564500	27.114455	0.000316	20.722672
2416.667198	-2.983500	3.175300	-9.472200	27.141031	0.000315	20.731858
2417.663270	-2.994300	3.173000	-9.498900	27.168001	0.000316	20.737173
2418.659920	-2.982400	3.174500	-9.466000	27.179094	0.000314	20.742640
2419.658033	-3.004300	3.173300	-9.532900	27.223055	0.000314	20.739442
2420.671505	-3.006100	3.171400	-9.533100	27.226681	0.000316	20.728390
2421.658758	-3.012200	3.172100	-9.554300	27.270317	0.000314	20.736246
2422.663352	-3.003200	3.171000	-9.522600	27.278503	0.000312	20.760603
2423.667825	-2.979000	3.170800	-9.444600	27.298252	0.000311	20.750596
2424.666586	-2.982600	3.170000	-9.452800	27.318597	0.000314	20.743561
2425.663117	-2.963900	3.172200	-9.400800	27.356007	0.000312	20.738518
2426.663610	-3.007900	3.168200	-9.527800	27.357867	0.000311	20.750822
2427.660445	-2.997000	3.168400	-9.492800	27.377168	0.000311	20.743210
2428.670759	-3.005000	3.168000	-9.517800	27.395201	0.000311	20.732428
2429.664281	-2.991300	3.167300	-9.472900	27.386668	0.000310	20.744707
2430.660086	-2.992200	3.167500	-9.476600	27.410755	0.000310	20.738593
2431.664533	-3.025000	3.165000	-9.572200	27.397558	0.000308	20.738593
2432.665758	-3.014300	3.165500	-9.541000	27.383070	0.000309	20.742984
2433.669109	-3.012500	3.163700	-9.529700	27.334223	0.000308	20.737467
2434.671245	-3.012000	3.162700	-9.524500	27.349978	0.000310	20.746204
2435.664882	-2.978500	3.164500	-9.424500	27.329510	0.000309	20.755960
2436.660390	-2.990600	3.162700	-9.456400	27.312716	0.000308	20.748550
2437.657567	-3.006400	3.162900	-9.507900	27.265998	0.000307	20.738066
2438.665709	-2.974500	3.163300	-9.408200	27.230151	0.000304	20.739466
2439.662037	-3.003200	3.161500	-9.493600	27.221934	0.000307	20.736417
2440.662488	-2.992100	3.160400	-9.454600	27.191246	0.000307	20.744906
2441.668131	-2.985200	3.160500	-9.433300	27.223868	0.000303	20.745476
2442.662604	-3.003800	3.159300	-9.488900	27.209406	0.000304	20.750844
2443.662423	-3.007400	3.158700	-9.498600	27.192038	0.000303	20.749495
2444.672660	-2.995700	3.158700	-9.459600	27.162064	0.000305	20.738788
2445.661466	-3.021500	3.156000	-9.534400	27.145638	0.000304	20.752139
2446.658882	-3.033400	3.155700	-9.571300	27.146060	0.000302	20.748770
2447.677554	-2.996400	3.156200	-9.456300	27.152688	0.000303	20.763497
2448.662624	-3.023900	3.155700	-9.541200	27.183749	0.000303	20.752539
2449.663769	-3.020400	3.155500	-9.529000	27.225381	0.000303	20.769283
2450.667461	-2.993300	3.154600	-9.441500	27.189209	0.000303	20.747125
2451.667606	-3.038500	3.151400	-9.575000	27.211020	0.000301	20.763848
2452.668834	-2.987800	3.154700	-9.424400	27.199679	0.000302	20.756707
2453.664509	-2.989200	3.153400	-9.425200	27.183897	0.000302	20.749843
2454.677545	-3.000600	3.151400	-9.454400	27.184245	0.000302	20.753038
2455.664402	-3.001900	3.151500	-9.458900	27.202880	0.000300	20.763721
2456.669094	-3.020900	3.150200	-9.515600	27.231808	0.000300	20.761997
2457.674326	-3.006700	3.148500	-9.464600	27.270065	0.000299	20.739786
2458.678254	-2.976600	3.148700	-9.370700	27.288670	0.000298	20.754234
2459.667721	-2.998100	3.148700	-9.439600	27.311595	0.000300	20.769234
2460.670556	-3.006100	3.147400	-9.460200	27.364186	0.000299	20.740108
2461.670550	-3.011500	3.147300	-9.477100	27.370538	0.000298	20.760724
2462.667657	-3.014000	3.146400	-9.482400	27.378277	0.000297	20.744800
2463.670321	-3.010700	3.145100	-9.468400	27.371703	0.000295	20.751938
2464.667960	-2.988300	3.144000	-9.394300	27.330625	0.000296	20.772255
2465.673642	-3.009500	3.144400	-9.460800	27.313730	0.000296	20.781339
2466.675996	-3.016400	3.142100	-9.476600	27.331096	0.000297	20.763246
2467.677646	-2.984300	3.144800	-9.383500	27.331019	0.000298	20.757953
2468.682070	-3.008600	3.142000	-9.451600	27.302713	0.000296	20.753187
2469.676066	-3.033500	3.139500	-9.523100	27.329186	0.000295	20.762747
2470.679516	-2.996800	3.141500	-9.411600	27.326974	0.000294	20.769057
2471.669994	-2.992500	3.141300	-9.398600	27.292568	0.000295	20.759103
2472.697714	-3.001200	3.141500	-9.427300	27.302611	0.000293	20.745498
2473.676956	-3.001900	3.138100	-9.419600	27.297774	0.000293	20.760073
2474.675580	-3.014500	3.136100	-9.453200	27.326506	0.000294	20.757680
2475.677639	-2.968400	3.138400	-9.314600	27.387879	0.000292	20.761099
2476.679400	-3.008700	3.136400	-9.434900	27.389318	0.000293	20.758278
2477.685147	-3.002900	3.135700	-9.414900	27.404674	0.000292	20.777047
2478.687303	-2.986300	3.134000	-9.357800	27.419384	0.000291	20.766714
2479.672758	-2.986800	3.134300	-9.361100	27.437167	0.000292	20.769432
2480.674908	-2.982400	3.133500	-9.344200	27.443199	0.000290	20.787354
2481.692084	-2.998000	3.132500	-9.390200	27.443621	0.000291	20.776399
2482.676384	-2.985200	3.131400	-9.346800	27.459740	0.000293	20.775547
2483.678342	-3.015600	3.131500	-9.441000	27.414772	0.000290	20.787205
2484.685273	-3.005500	3.129600	-9.404100	27.455030	0.000289	20.763222
2485.677993	-3.016100	3.130100	-9.439700	27.465695	0.000290	20.777744
2486.678373	-2.977100	3.128900	-9.314500	27.504220	0.000288	20.769562
2487.679897	-2.998600	3.127100	-9.375900	27.541099	0.000290	20.778218
2488.679018	-3.006500	3.125800	-9.396300	27.525227	0.000289	20.792595
2489.677176	-2.989900	3.126300	-9.346400	27.515774	0.000289	20.775023
2490.683579	-2.981800	3.125600	-9.319000	27.519421	0.000288	20.776322
2491.683034	-2.978200	3.124800	-9.305300	27.500819	0.000289	20.759028
2492.681417	-3.001000	3.122300	-9.369200	27.412859	0.000287	20.773901
2493.687292	-3.017300	3.122700	-9.421700	27.405641	0.000288	20.780865
2494.682055	-2.990500	3.123500	-9.339800	27.397182	0.000289	20.768561
2495.684797	-2.991600	3.120900	-9.334900	27.395445	0.000287	20.768710
2496.687597	-3.023400	3.120500	-9.433900	27.414171	0.000289	20.790394
2497.687664	-3.011700	3.119200	-9.392600	27.456891	0.000287	20.775525
2498.682836	-2.998400	3.118600	-9.349800	27.464182	0.000286	20.778593
2499.684785	-2.998600	3.118600	-9.350200	27.451183	0.000288	20.767412
2500.688595	-2.980300	3.117000	-9.288000	27.463461	0.000287	20.784506
2501.682482	-3.008500	3.116700	-9.374300	27.457384	0.000287	20.793091
2502.686131	-3.023900	3.113100	-9.411800	27.456417	0.000286	20.794488
2503.687674	-3.017800	3.113700	-9.396200	27.478592	0.000285	20.780763
2504.686166	-3.000800	3.114700	-9.345500	27.490771	0.000285	20.779740
2505.688330	-2.988100	3.112800	-9.300200	27.477203	0.000286	20.780787
2506.679972	-3.007300	3.111200	-9.355600	27.479658	0.000285	20.810284
2507.680550	-2.981800	3.112000	-9.278000	27.481469	0.000286	20.786502
2508.683858	-3.010200	3.109300	-9.357900	27.437167	0.000285	20.799304
2509.694590	-3.004000	3.109100	-9.339400	27.446073	0.000284	20.782185
2510.699240	-3.010200	3.107700	-9.354200	27.430692	0.000285	20.788523
2511.691045	-2.996000	3.107100	-9.306600	27.389318	0.000284	20.790521
2512.692766	-2.981700	3.107900	-9.266000	27.363370	0.000284	20.788126
2513.687381	-2.989100	3.106100	-9.282400	27.314817	0.000283	20.777217
2514.686031	-2.988500	3.104800	-9.277100	27.323453	0.000285	20.784956
2515.692240	-3.003600	3.104000	-9.321700	27.326875	0.000283	20.794563
2516.683534	-2.987100	3.103300	-9.269000	27.365997	0.000284	20.785554
2517.686767	-3.006500	3.104400	-9.331600	27.384881	0.000282	20.790800
2518.687366	-2.987700	3.103500	-9.271100	27.375674	0.000282	20.787701
2519.692505	-3.001200	3.099800	-9.302500	27.362824	0.000283	20.799905
2520.699473	-2.995200	3.100600	-9.286300	27.338240	0.000282	20.796038
2521.687010	-3.012500	3.098800	-9.334400	27.340003	0.000281	20.788327
2522.687239	-3.010400	3.098500	-9.327500	27.340819	0.000283	20.795787
2523.686440	-2.986000	3.097500	-9.248100	27.348142	0.000280	20.804576
2524.688866	-3.006700	3.096800	-9.310200	27.375329	0.000280	20.802053
2525.688731	-2.987600	3.095700	-9.247500	27.389197	0.000279	20.792771
2526.689224	-2.982400	3.095600	-9.231700	27.388403	0.000279	20.805248
2527.688519	-3.001900	3.093500	-9.285500	27.432087	0.000282	20.804151
2528.690785	-3.003900	3.093200	-9.291200	27.488221	0.000281	20.794718
2529.691463	-2.986100	3.092100	-9.232600	27.500872	0.000280	20.791798
2530.696939	-3.006200	3.090100	-9.288300	27.554842	0.000282	20.816702
2531.702613	-2.998100	3.091200	-9.266600	27.597430	0.000281	20.785585
2532.692046	-3.014300	3.088600	-9.308400	27.629646	0.000280	20.793819
2533.703159	-2.971300	3.088400	-9.175800	27.647802	0.000281	20.804975
2534.700162	-2.971200	3.087800	-9.173000	27.683364	0.000279	20.795716
2535.697247	-3.006300	3.086500	-9.277600	27.734850	0.000279	20.812438
2536.696028	-3.007000	3.083800	-9.272300	27.736959	0.000280	20.799862
2537.701826	-2.991400	3.084100	-9.224000	27.749280	0.000281	20.795192
2538.699083	-3.000900	3.085100	-9.257000	27.761509	0.000280	20.796593
2539.696488	-2.992900	3.082700	-9.225400	27.753151	0.000278	20.801458
2540.692613	-3.010700	3.081400	-9.276100	27.764931	0.000278	20.813786
2541.691366	-3.010500	3.079800	-9.270600	27.768651	0.000278	20.824167
2542.704627	-3.010700	3.078000	-9.265600	27.728974	0.000279	20.838293
2543.703484	-3.015600	3.078100	-9.281300	27.716720	0.000278	20.809367
2544.696198	-2.997800	3.077300	-9.224100	27.714019	0.000280	20.802382
2545.703341	-2.995300	3.077000	-9.215900	27.716474	0.000278	20.817653
2546.708274	-2.972900	3.076900	-9.146200	27.705738	0.000280	20.812066
2547.694957	-2.986800	3.073900	-9.179500	27.707623	0.000279	20.825342
2548.693495	-2.985000	3.074000	-9.175200	27.719747	0.000279	20.809094
2549.699499	-3.004000	3.072400	-9.228300	27.761112	0.000279	20.827012
2550.697001	-2.994600	3.071600	-9.196700	27.771108	0.000278	20.812416
2551.699066	-2.989400	3.070100	-9.176100	27.778720	0.000277	20.817706
2552.705056	-3.008700	3.070000	-9.235600	27.807165	0.000277	20.825469
2553.700299	-3.001900	3.067400	-9.206800	27.814925	0.000277	20.809097
2554.701558	-3.010000	3.065900	-9.227500	27.824326	0.000278	20.806231
2555.700045	-2.992000	3.067400	-9.177100	27.821749	0.000279	20.803163
2556.701148	-2.989100	3.066000	-9.163300	27.775080	0.000280	20.819259
2557.706802	-3.012100	3.064400	-9.228800	27.683820	0.000277	20.798071
2558.706833	-2.994900	3.061600	-9.168500	27.613039	0.000275	20.834481
2559.702213	-2.989800	3.061200	-9.151400	27.551134	0.000278	20.819135
2560.711028	-2.965600	3.061500	-9.078400	27.506339	0.000278	20.818636
2561.700998	-3.022000	3.058600	-9.241600	27.527275	0.000277	20.811251
2562.699082	-3.008100	3.058800	-9.199800	27.562145	0.000278	20.833058
2563.711314	-3.002600	3.057500	-9.179200	27.568669	0.000278	20.816389
2564.704936	-2.998500	3.056300	-9.163300	27.557461	0.000275	20.814595
2565.701339	-3.005500	3.055500	-9.181400	27.535586	0.000277	20.830517
2566.704218	-3.003400	3.053500	-9.170100	27.513014	0.000276	20.819188
2567.704061	-2.993900	3.054800	-9.144500	27.534123	0.000278	20.811502
2568.704457	-2.990600	3.052400	-9.127500	27.585092	0.000277	20.801145
2569.707319	-2.979300	3.052200	-9.091300	27.628691	0.000277	20.820833
2570.708165	-3.002000	3.051100	-9.157800	27.630555	0.000275	20.839777
2571.703701	-3.000600	3.049400	-9.149000	27.670977	0.000278	20.843468
2572.711884	-2.994200	3.048500	-9.125700	27.657636	0.000275	20.825776
2573.708652	-2.995000	3.045800	-9.120900	27.615947	0.000277	20.844518
2574.713417	-3.021300	3.045300	-9.199600	27.609424	0.000275	20.846963
2575.705909	-2.973200	3.045900	-9.055700	27.606673	0.000277	20.843722
2576.707952	-3.014000	3.043900	-9.173100	27.613092	0.000276	20.828844
2577.708337	-3.009500	3.042100	-9.154000	27.646823	0.000277	20.836706
2578.712264	-3.005000	3.041100	-9.137700	27.680552	0.000276	20.847413
2579.707054	-2.985100	3.041000	-9.077200	27.711978	0.000275	20.835888
2580.712385	-2.998400	3.039600	-9.112700	27.754454	0.000275	20.834537
2581.714851	-2.993700	3.037200	-9.091500	27.756265	0.000276	20.839678
2582.712989	-2.991800	3.037300	-9.084500	27.790265	0.000273	20.816048
2583.708505	-2.958600	3.036000	-8.981100	27.835744	0.000275	20.844274
2584.707916	-2.958000	3.035000	-8.976700	27.808190	0.000276	20.840725
2585.706902	-3.010100	3.032800	-9.127700	27.835319	0.000275	20.846217
2586.711242	-3.015100	3.031500	-9.139000	27.840603	0.000276	20.853431
2587.714676	-3.040400	3.028300	-9.205700	27.855180	0.000273	20.847713
2588.709748	-3.019400	3.029400	-9.145800	27.859023	0.000276	20.849210
2589.708655	-2.994500	3.029600	-9.070800	27.861006	0.000275	20.855473
2590.716201	-2.985400	3.027500	-9.036900	27.811762	0.000273	20.849061
2591.710346	-2.970300	3.028700	-8.994700	27.762562	0.000273	20.855024
2592.713252	-3.014600	3.024700	-9.117300	27.744784	0.000274	20.846142
2593.716339	-2.999000	3.023200	-9.066100	27.807544	0.000274	20.860936
2594.715716	-2.988300	3.022800	-9.032200	27.798075	0.000276	20.839080
2595.712040	-2.997100	3.020500	-9.052200	27.835889	0.000274	20.838730
2596.716455	-2.987700	3.021000	-9.025100	27.801249	0.000275	20.835163
2597.713818	-3.020700	3.018300	-9.116500	27.791475	0.000274	20.851404
2598.716598	-3.006300	3.016800	-9.068800	27.824927	0.000274	20.855197
2599.714977	-3.007800	3.015700	-9.069300	27.817662	0.000273	20.851206
2600.710151	-2.992000	3.016300	-9.023900	27.830010	0.000273	20.878330
2601.716085	-3.004200	3.014500	-9.054800	27.855125	0.000274	20.859985
2602.718488	-3.020500	3.010900	-9.093700	27.873920	0.000272	20.864677
2603.718696	-3.002600	3.011000	-9.039700	27.928568	0.000273	20.851875
2604.718697	-3.004800	3.010400	-9.044800	27.911587	0.000273	20.853276
2605.719969	-2.992700	3.008000	-9.000700	27.924054	0.000273	20.860608
2606.715976	-2.986900	3.009100	-8.986500	27.940468	0.000275	20.869542
2607.715565	-2.997400	3.007600	-9.014000	27.962039	0.000274	20.864701
2608.717006	-2.988900	3.006100	-8.984500	27.959807	0.000273	20.847757
2609.718406	-3.000000	3.003900	-9.010700	27.962335	0.000275	20.855990
2610.714747	-2.998900	3.003200	-9.005500	27.966525	0.000273	20.855467
2611.716554	-2.997400	3.002200	-8.997800	27.951553	0.000273	20.868370
2612.721152	-3.010000	3.001200	-9.033000	27.886511	0.000273	20.842262
2613.722116	-3.001700	2.998900	-9.000900	27.818177	0.000274	20.872585
2614.716481	-3.001800	2.997800	-8.997500	27.775453	0.000276	20.887909
2615.722044	-2.998900	2.996400	-8.984000	27.818623	0.000275	20.868767
2616.715998	-3.011600	2.995400	-9.019900	27.807439	0.000275	20.871262
2617.715990	-3.011500	2.993300	-9.013700	27.840246	0.000273	20.869192
2618.721006	-2.968800	2.996000	-8.893700	27.870496	0.000274	20.858386
2619.718778	-3.000500	2.992300	-8.978100	27.942177	0.000275	20.857512
2620.714178	-2.997400	2.990700	-8.963400	27.940989	0.000275	20.877651
2621.718065	-2.991300	2.989800	-8.942400	27.951873	0.000272	20.900459
2622.716778	-2.993300	2.989200	-8.946100	27.918303	0.000275	20.870939
2623.720610	-3.019400	2.985900	-9.015000	27.838910	0.000273	20.894871
2624.726480	-2.993400	2.985900	-8.936900	27.782200	0.000273	20.871466
2625.718437	-3.002200	2.983900	-8.956900	27.777636	0.000274	20.873037
2626.716670	-3.008400	2.982700	-8.972500	27.773174	0.000273	20.874237
2627.722400	-3.020100	2.980000	-8.999200	27.837696	0.000274	20.883694
2628.719682	-3.002300	2.979500	-8.944000	27.822248	0.000273	20.866725
2629.721486	-3.009800	2.979600	-8.966600	27.868221	0.000274	20.865104
2630.718628	-2.985500	2.979100	-8.893200	27.904296	0.000275	20.873911
2631.716311	-2.995800	2.975600	-8.913500	27.910944	0.000273	20.885343
2632.724350	-2.980200	2.975300	-8.866600	27.905266	0.000275	20.886266
2633.722087	-3.012600	2.973400	-8.957100	27.927232	0.000275	20.871392
2634.719749	-3.013500	2.971000	-8.952300	27.919894	0.000276	20.868748
2635.717557	-3.012500	2.969000	-8.942900	27.866958	0.000276	20.888962
2636.727598	-3.012400	2.967800	-8.938300	27.873206	0.000274	20.882923
2637.724918	-3.010000	2.967100	-8.929700	27.854512	0.000273	20.883549
2638.724162	-2.974900	2.966800	-8.824700	27.870875	0.000272	20.880577
2639.720473	-2.972300	2.967300	-8.817300	27.877868	0.000274	20.883821
2640.723660	-3.002000	2.963600	-8.896100	27.900807	0.000273	20.868030
2641.734880	-2.985600	2.962600	-8.844300	27.940629	0.000274	20.888668
2642.720401	-3.003600	2.960600	-8.891100	27.937352	0.000275	20.871621
2643.731604	-3.002000	2.958800	-8.881100	27.970824	0.000273	20.870698
2644.722229	-3.025300	2.955900	-8.940900	27.991403	0.000274	20.871971
2645.723864	-2.993800	2.956400	-8.849400	27.984140	0.000272	20.893582
2646.726404	-2.967600	2.956100	-8.772100	28.004990	0.000275	20.861466
2647.724868	-2.988700	2.952800	-8.824700	28.034268	0.000273	20.869127
2648.726466	-2.994700	2.952400	-8.840200	28.027923	0.000272	20.874119
2649.725480	-2.995900	2.950500	-8.838900	28.044831	0.000273	20.884026
2650.725924	-3.008200	2.948100	-8.867500	28.024032	0.000273	20.876840
2651.723976	-2.989800	2.948000	-8.813000	27.987437	0.000271	20.853756
2652.729345	-2.993100	2.946900	-8.819500	28.018798	0.000271	20.865882
2653.723246	-2.986300	2.945300	-8.794200	28.032187	0.000273	20.871773
2654.730641	-2.989100	2.944900	-8.802200	28.001748	0.000271	20.846824
2655.734272	-3.011300	2.942000	-8.857600	27.983225	0.000272	20.878439
2656.727319	-3.014400	2.940000	-8.861700	27.988804	0.000271	20.889743
2657.731918	-3.003900	2.937100	-8.822000	27.994334	0.000271	20.864965
2658.739416	-2.989900	2.937600	-8.781700	28.022151	0.000272	20.870205
2659.727482	-2.971200	2.937900	-8.727600	28.047587	0.000273	20.876843
2660.729028	-2.993100	2.933700	-8.779100	28.035167	0.000274	20.870506
2661.740972	-2.985000	2.932100	-8.750000	27.999417	0.000273	20.851116
2662.736018	-2.996600	2.930000	-8.779500	27.947027	0.000272	20.871401
2663.731785	-2.993500	2.929600	-8.768900	27.920227	0.000270	20.870980
2664.728100	-2.996800	2.928100	-8.774300	27.921172	0.000274	20.841587
2665.738649	-2.989800	2.926000	-8.747000	27.925209	0.000271	20.850865
2666.743940	-2.996600	2.923600	-8.760300	27.927617	0.000272	20.858978
2667.736896	-2.987700	2.923500	-8.733100	27.945444	0.000271	20.858429
2668.730444	-2.966500	2.921800	-8.666400	27.962825	0.000272	20.852216
2669.738431	-2.982100	2.920800	-8.708600	27.951691	0.000271	20.853338
2670.736189	-3.001000	2.918000	-8.755000	27.957049	0.000270	20.847351
2671.728907	-2.999000	2.917400	-8.748200	27.968949	0.000269	20.864069
2672.746553	-2.999000	2.914200	-8.738600	27.990867	0.000272	20.869536
2673.737971	-3.035700	2.912500	-8.839600	28.028478	0.000270	20.843858
2674.741853	-2.995700	2.912700	-8.724700	28.057931	0.000271	20.862126
2675.728380	-2.998200	2.910200	-8.724700	28.055773	0.000272	20.868962
2676.740008	-2.993000	2.907500	-8.701100	28.057984	0.000271	20.837050
2677.734795	-2.986500	2.907100	-8.681100	28.092836	0.000272	20.843211
2678.738836	-3.020900	2.905000	-8.774700	28.118548	0.000270	20.864826
2679.733824	-3.003700	2.902900	-8.717900	28.140934	0.000271	20.850379
2680.731237	-3.004100	2.902000	-8.717200	28.161732	0.000271	20.831962
2681.737476	-3.001100	2.900900	-8.703600	28.170631	0.000272	20.829067
2682.734546	-2.986700	2.898600	-8.656300	28.146983	0.000270	20.828968
2683.734543	-3.008200	2.896700	-8.712800	28.110917	0.000272	20.841971
2684.734657	-2.994900	2.893900	-8.665800	28.084466	0.000271	20.835733
2685.741596	-3.001800	2.893100	-8.683300	28.060838	0.000270	20.834233
2686.745873	-3.048100	2.890900	-8.810200	28.055016	0.000272	20.829322
2687.739185	-2.997300	2.889500	-8.659200	28.105812	0.000272	20.834463
2688.736108	-3.019100	2.886100	-8.712000	28.143591	0.000272	20.844519
2689.733302	-3.004800	2.884200	-8.665200	28.135412	0.000272	20.842449
2690.743117	-3.018300	2.882700	-8.699300	28.154578	0.000272	20.842777
2691.737769	-2.967100	2.881100	-8.546200	28.166697	0.000272	20.845495
2692.735641	-2.972500	2.881300	-8.563300	28.184939	0.000271	20.842049
2693.744566	-3.015000	2.877800	-8.675800	28.182510	0.000271	20.829173
2694.735056	-2.956600	2.876900	-8.503900	28.189951	0.000270	20.827180
2695.733788	-3.016300	2.873100	-8.665000	28.209085	0.000270	20.838857
2696.749960	-2.981100	2.873000	-8.562300	28.227455	0.000270	20.827481
2697.740689	-3.026100	2.869300	-8.682100	28.192881	0.000270	20.834872
2698.734816	-3.012200	2.868200	-8.638400	28.218932	0.000270	20.853512
2699.747297	-3.019400	2.866400	-8.653200	28.193820	0.000270	20.831550
2700.740784	-3.001600	2.863700	-8.594400	28.209313	0.000270	20.802577
2701.751074	-2.986300	2.863700	-8.550500	28.213555	0.000269	20.828184
2702.742759	-2.995300	2.860600	-8.567100	28.239756	0.000271	20.849347
2703.745481	-3.012200	2.857900	-8.607900	28.275003	0.000270	20.812290
2704.749929	-2.991000	2.858400	-8.548700	28.286253	0.000269	20.828832
2705.744445	-2.973800	2.855800	-8.492000	28.309630	0.000271	20.811593
2706.747711	-2.989800	2.853700	-8.530900	28.327103	0.000269	20.819229
2707.749741	-2.983300	2.850000	-8.501500	28.363538	0.000271	20.819405
2708.745440	-3.016700	2.847800	-8.590200	28.388172	0.000270	20.795846
2709.749463	-2.995800	2.846100	-8.525200	28.378610	0.000269	20.819883
2710.750163	-3.006500	2.844700	-8.551800	28.385848	0.000269	20.843766
2711.746480	-3.017400	2.840600	-8.569100	28.386689	0.000272	20.816164
2712.750502	-3.004300	2.839700	-8.529800	28.415985	0.000270	20.835232
2713.760455	-3.016300	2.838000	-8.558000	28.350682	0.000270	20.812625
2714.746462	-3.012500	2.836700	-8.544500	28.287183	0.000272	20.843044
2715.746781	-3.037600	2.832600	-8.603000	28.234191	0.000271	20.831891
2716.745219	-3.011500	2.831500	-8.526000	28.169296	0.000269	20.813973
2717.742492	-3.003700	2.828500	-8.495000	28.116098	0.000270	20.823481
2718.752770	-2.967200	2.828900	-8.392500	28.076139	0.000269	20.810282
2719.755298	-2.996100	2.825000	-8.462700	28.007343	0.000272	20.798404
2720.753551	-2.993700	2.821700	-8.446000	27.998765	0.000270	20.793089
2721.751863	-2.980300	2.820800	-8.405700	28.031419	0.000268	20.816948
2722.744537	-3.002400	2.819600	-8.465400	28.025446	0.000271	20.805246
2723.751669	-2.991000	2.816000	-8.421800	28.033651	0.000270	20.816824
2724.751438	-2.993600	2.813800	-8.422300	28.001718	0.000270	20.820717
2725.743909	-2.998000	2.811400	-8.427500	28.017315	0.000270	20.795165
2726.754205	-2.991400	2.809100	-8.401600	27.988707	0.000271	20.803827
2727.753071	-2.991600	2.804900	-8.390300	27.945790	0.000269	20.808519
2728.755095	-2.987600	2.805600	-8.381300	27.945270	0.000269	20.819375
2729.750605	-3.003200	2.801700	-8.412400	27.952712	0.000268	20.816908
2730.749559	-2.992700	2.800000	-8.377800	27.982762	0.000269	20.787886
2731.753346	-3.009200	2.795400	-8.410900	28.034750	0.000267	20.808448
2732.757349	-3.014800	2.793700	-8.420800	28.080166	0.000269	20.811491
2733.749502	-3.033400	2.791100	-8.465000	28.101861	0.000269	20.802510
2734.755692	-2.995400	2.789900	-8.356100	28.143112	0.000270	20.809898
2735.752861	-2.997600	2.786300	-8.350800	28.201862	0.000268	20.810249
2736.756522	-3.023300	2.783300	-8.414000	28.248736	0.000269	20.805758
2737.756289	-2.995900	2.780900	-8.329900	28.241127	0.000269	20.797623
2738.753816	-2.984300	2.778100	-8.289500	28.264628	0.000268	20.789516
2739.760166	-2.987300	2.774600	-8.287200	28.331822	0.000268	20.797902
2740.757936	-2.977900	2.772900	-8.256200	28.379879	0.000269	20.807884
2741.749343	-3.031200	2.768500	-8.389600	28.374351	0.000267	20.809905
2742.759201	-3.017300	2.766100	-8.343700	28.385533	0.000267	20.803146
2743.755124	-2.981100	2.764800	-8.241700	28.421267	0.000268	20.820163
2744.751082	-2.996800	2.761600	-8.274700	28.418617	0.000267	20.789994
2745.758549	-2.973500	2.759000	-8.202700	28.432251	0.000268	20.800878
2746.754684	-2.983900	2.756300	-8.222700	28.398271	0.000265	20.789420
2747.752180	-2.993900	2.752400	-8.238800	28.363970	0.000270	20.805616
2748.756004	-2.991000	2.748500	-8.220000	28.352099	0.000268	20.788921
2749.756155	-2.982600	2.746300	-8.189600	28.369526	0.000268	20.808839
2750.751764	-2.982300	2.743100	-8.180000	28.369129	0.000269	20.817922
2751.752666	-3.005200	2.739000	-8.230400	28.358569	0.000268	20.782634
2752.752862	-3.011000	2.736300	-8.238800	28.305036	0.000269	20.795588
2753.750229	-3.014800	2.732100	-8.235700	28.300003	0.000270	20.792417
2754.752510	-2.972700	2.730700	-8.116800	28.334057	0.000270	20.801575
2755.751026	-3.009200	2.725900	-8.201200	28.328828	0.000269	20.790620
2756.760632	-3.012600	2.721300	-8.196900	28.339613	0.000270	20.790574
2757.760908	-3.033800	2.717900	-8.244400	28.376487	0.000267	20.796409
2758.756742	-3.027100	2.715500	-8.218500	28.354506	0.000268	20.810785
2759.754065	-3.005400	2.713200	-8.152300	28.354559	0.000269	20.784286
2760.757628	-3.035600	2.707400	-8.216300	28.334728	0.000268	20.786129
2761.758093	-3.018700	2.706200	-8.168600	28.320899	0.000268	20.797336
2762.755795	-3.007300	2.701500	-8.123500	28.319040	0.000270	20.786929
2763.755954	-3.002900	2.698400	-8.102200	28.368858	0.000267	20.787778
2764.758183	-3.029400	2.693600	-8.158900	28.357880	0.000269	20.774353
2765.759961	-2.995000	2.689600	-8.054200	28.386404	0.000267	20.809713
2766.755707	-3.000900	2.686600	-8.060900	28.428536	0.000269	20.788128
2767.759839	-2.987200	2.683500	-8.015500	28.458844	0.000269	20.771232
2768.760879	-2.988400	2.679400	-8.006500	28.506550	0.000269	20.778496
2769.760917	-3.029600	2.673900	-8.099500	28.539357	0.000268	20.782138
2770.758500	-3.008000	2.670700	-8.032500	28.567581	0.000268	20.786855
2771.758797	-3.020900	2.665900	-8.052100	28.536236	0.000268	20.766667
2772.761661	-3.026000	2.663000	-8.057800	28.517825	0.000267	20.781791
2773.762718	-3.021600	2.659500	-8.034300	28.513018	0.000267	20.780743
2774.761612	-3.008600	2.654900	-7.986700	28.505556	0.000268	20.774650
2775.765954	-2.963700	2.651400	-7.856600	28.490861	0.000268	20.767913
2776.756629	-3.004000	2.646100	-7.947000	28.519434	0.000269	20.753539
2777.767470	-3.033800	2.640500	-8.009400	28.513908	0.000267	20.778320
2778.763628	-3.012600	2.637400	-7.944600	28.482137	0.000269	20.769084
2779.762581	-3.012200	2.633400	-7.931200	28.453317	0.000268	20.776098
2780.766138	-3.005500	2.628200	-7.898100	28.429281	0.000268	20.785085
2781.761491	-3.021500	2.623800	-7.925600	28.387145	0.000268	20.782011
2782.765195	-3.020400	2.618200	-7.906900	28.383403	0.000269	20.786303
2783.760460	-2.988600	2.614700	-7.812700	28.450165	0.000268	20.778614
2784.763885	-2.964600	2.609700	-7.735500	28.504786	0.000269	20.771505
2785.765533	-2.995700	2.605200	-7.803400	28.548447	0.000270	20.783232
2786.763629	-2.992500	2.599600	-7.778600	28.608241	0.000269	20.775174
2787.768919	-2.971400	2.594500	-7.708600	28.650931	0.000269	20.782135
2788.764662	-2.961100	2.590800	-7.670100	28.703902	0.000269	20.763890
2789.763641	-3.019400	2.582100	-7.795200	28.747431	0.000270	20.772174
2790.760814	-3.008400	2.578000	-7.754100	28.747905	0.000269	20.772177
2791.765001	-2.986600	2.572700	-7.681600	28.749616	0.000270	20.773900
2792.763880	-2.995000	2.566100	-7.684300	28.745576	0.000269	20.750864
2793.766817	-2.999100	2.560700	-7.678500	28.715200	0.000268	20.763416
2794.767008	-3.012600	2.554700	-7.694600	28.679057	0.000269	20.750245
2795.762161	-2.986400	2.551600	-7.619700	28.679352	0.000269	20.768086
2796.764399	-2.981100	2.544800	-7.585100	28.694290	0.000268	20.770804
2797.770748	-2.994700	2.538800	-7.602200	28.763519	0.000269	20.770361
2798.768397	-3.014900	2.531000	-7.629700	28.771493	0.000269	20.776497
2799.769010	-3.040100	2.526400	-7.679200	28.794927	0.000267	20.763593
2800.770172	-3.035500	2.519800	-7.647500	28.828694	0.000269	20.761098
2801.765509	-3.006300	2.514700	-7.559000	28.837662	0.000269	20.779141
2802.774238	-3.000300	2.507600	-7.522000	28.869025	0.000268	20.774700
2803.773893	-3.011400	2.501800	-7.533700	28.889384	0.000268	20.753957
2804.767660	-2.981800	2.495500	-7.440500	28.926218	0.000270	20.769255
