LabVIEW Measurement	
Writer_Version	2
Reader_Version	2
Separator	Tab
Decimal_Separator	.
Multi_Headings	No
X_Columns	One
Time_Pref	Absolute
Operator	admin
Description	Clolumns are: time, Current, Voltage, Power, Battery Temp, and Chamber Temp
Date	2024/08/16
Time	13:06:06.104549407958984375
***End_of_Header***	
	
Channels	6						
Samples	1	1	1	1	1	1	
Date	2024/08/31	2024/08/31	2024/08/31	2024/08/31	2024/08/31	2024/08/31	
Time	16:34:24.861461639404296875	16:34:24.8676047325134277344	16:34:24.8734784126281738281	16:34:24.8460950851440429687	16:34:24.8460950851440429687	16:34:24.8460950851440429687	
X_Dimension	Time	Time	Time	Time	Time	Time	
X0	0.0000000000000000E+0	0.0000000000000000E+0	0.0000000000000000E+0	0.0000000000000000E+0	0.0000000000000000E+0	0.0000000000000000E+0	
Delta_X	1.000000	1.000000	1.000000	1.000000	1.000000	1.000000	
***End_of_Header***							
X_Value	Untitled	Untitled 1	Untitled 2	Untitled 3	Untitled 4	Untitled 5	Comment
0.000000	0.024935	4.103400	0.102220	21.021590	0.000938	20.675947
1.002779	-2.980300	3.938500	-11.737000	21.000109	0.000939	20.677222
2.004468	-3.022300	3.931200	-11.880000	21.011320	0.000938	20.686065
3.003069	-3.011600	3.927300	-11.827000	21.009849	0.000937	20.681748
4.000915	-3.011100	3.922300	-11.810000	21.014546	0.000937	20.667479
5.002784	-3.012700	3.919200	-11.806000	21.014380	0.000937	20.677745
6.002440	-3.003500	3.916900	-11.763000	21.011387	0.000934	20.644877
7.000962	-3.005800	3.913300	-11.761000	21.013561	0.000934	20.674080
7.999911	-2.994300	3.912800	-11.715000	21.027511	0.000933	20.680448
9.005113	-2.995400	3.910000	-11.711000	21.003993	0.000931	20.673045
10.002380	-2.987600	3.908600	-11.676000	21.017267	0.000932	20.676839
11.001894	-2.991800	3.907300	-11.688000	21.030848	0.000929	20.675250
12.001049	-3.006400	3.903900	-11.735000	21.043382	0.000929	20.681150
13.001102	-3.013200	3.902800	-11.759000	21.021323	0.000930	20.679949
14.001468	-2.984600	3.902800	-11.647000	21.008591	0.000928	20.690448
15.004187	-3.022900	3.899600	-11.786000	21.049859	0.000927	20.682412
16.002036	-3.010700	3.900600	-11.743000	21.048369	0.000928	20.675705
17.001722	-2.989400	3.900100	-11.658000	21.039140	0.000929	20.673586
18.003792	-3.002300	3.898600	-11.704000	21.053768	0.000927	20.667828
19.005908	-2.978600	3.897800	-11.608000	21.048756	0.000926	20.686999
20.006310	-3.000900	3.896800	-11.693000	21.031894	0.000925	20.673925
21.005671	-3.008900	3.894100	-11.716000	21.044280	0.000925	20.665451
22.007538	-3.007600	3.892300	-11.706000	21.043012	0.000924	20.688366
23.007043	-2.989300	3.893600	-11.638000	21.059339	0.000925	20.680988
24.006570	-3.002800	3.891300	-11.684000	21.074539	0.000924	20.678174
25.008251	-3.003000	3.892100	-11.687000	21.095624	0.000924	20.660382
26.007484	-3.006000	3.889800	-11.691000	21.085072	0.000925	20.655991
27.007706	-3.007700	3.891200	-11.702000	21.097631	0.000922	20.651957
28.006270	-3.002100	3.890800	-11.679000	21.072009	0.000921	20.660942
29.007952	-3.008900	3.889300	-11.700000	21.104434	0.000922	20.653071
30.006160	-2.996500	3.888600	-11.651000	21.099816	0.000923	20.681647
31.006399	-3.009600	3.887000	-11.697000	21.110645	0.000922	20.657388
32.007879	-2.999900	3.887600	-11.662000	21.119381	0.000920	20.647633
33.006468	-3.021600	3.887100	-11.744000	21.122883	0.000919	20.660147
34.007590	-2.972800	3.886800	-11.554000	21.141130	0.000919	20.666546
35.006721	-3.010700	3.885800	-11.698000	21.139628	0.000918	20.673579
36.007247	-3.032000	3.883200	-11.772000	21.135546	0.000918	20.688464
37.007550	-3.023400	3.885000	-11.745000	21.155763	0.000918	20.671226
38.010688	-2.997500	3.885100	-11.645000	21.176022	0.000916	20.682958
39.018174	-3.009600	3.884700	-11.690000	21.150826	0.000915	20.674349
40.008112	-3.016700	3.884300	-11.717000	21.164701	0.000917	20.662149
41.010735	-2.992500	3.883300	-11.621000	21.178878	0.000917	20.660209
42.012030	-3.001100	3.884200	-11.656000	21.181593	0.000916	20.688057
43.009326	-2.985000	3.882300	-11.586000	21.207939	0.000917	20.673160
44.009240	-2.993300	3.881600	-11.617000	21.204449	0.000915	20.654494
45.012115	-3.023000	3.880000	-11.727000	21.195000	0.000916	20.679657
46.016285	-2.996000	3.882300	-11.631000	21.204184	0.000917	20.667032
47.009799	-3.006800	3.879000	-11.662000	21.235147	0.000916	20.671454
48.015107	-3.005200	3.880600	-11.660000	21.211282	0.000915	20.658484
49.013376	-2.988800	3.881100	-11.597000	21.235104	0.000915	20.663824
50.012691	-3.001600	3.879500	-11.643000	21.248024	0.000916	20.674379
51.015450	-2.989100	3.879400	-11.595000	21.228092	0.000917	20.662974
52.014191	-2.996800	3.878600	-11.623000	21.250265	0.000916	20.664292
53.012804	-3.008400	3.877800	-11.665000	21.250012	0.000918	20.659297
54.018959	-2.997700	3.877800	-11.623000	21.258365	0.000918	20.653428
55.016938	-3.011500	3.878300	-11.679000	21.274751	0.000919	20.658441
56.015330	-2.995800	3.876400	-11.610000	21.285775	0.000918	20.657142
57.020373	-2.990800	3.878400	-11.599000	21.282876	0.000916	20.674158
58.022936	-2.994500	3.877700	-11.611000	21.292767	0.000918	20.653231
59.017687	-3.002500	3.876800	-11.639000	21.286926	0.000916	20.680107
60.021656	-3.021100	3.876100	-11.709000	21.304554	0.000917	20.684941
61.023388	-2.991000	3.876700	-11.594000	21.333206	0.000916	20.684683
62.019726	-3.008300	3.874700	-11.655000	21.318976	0.000916	20.668548
63.021150	-3.006900	3.875800	-11.654000	21.331711	0.000917	20.659476
64.018572	-3.017800	3.874300	-11.691000	21.323026	0.000916	20.691094
65.021357	-2.997800	3.874500	-11.614000	21.326609	0.000914	20.673339
66.024023	-3.007400	3.875500	-11.654000	21.333114	0.000915	20.682220
67.023546	-3.035200	3.872900	-11.753000	21.341362	0.000914	20.668185
68.024337	-2.997500	3.874500	-11.613000	21.360289	0.000914	20.689019
69.028703	-2.995100	3.872400	-11.597000	21.339553	0.000913	20.691507
70.023278	-3.004800	3.873300	-11.638000	21.375990	0.000910	20.681494
71.025212	-3.005300	3.873000	-11.638000	21.367859	0.000913	20.681420
72.022540	-3.017100	3.872400	-11.683000	21.376802	0.000912	20.680884
73.028142	-2.985800	3.873300	-11.563000	21.400270	0.000912	20.696305
74.025800	-2.996700	3.871700	-11.602000	21.409244	0.000910	20.694377
75.024972	-3.021400	3.870800	-11.694000	21.435616	0.000911	20.705117
76.027406	-3.007000	3.871400	-11.640000	21.429344	0.000913	20.703110
77.026239	-3.004400	3.871200	-11.630000	21.429191	0.000910	20.678772
78.025663	-2.995600	3.872000	-11.598000	21.419762	0.000911	20.689254
79.024724	-3.014200	3.871000	-11.667000	21.438386	0.000912	20.694612
80.025356	-3.025600	3.869400	-11.706000	21.430089	0.000910	20.686784
81.027615	-2.989800	3.869700	-11.567000	21.437345	0.000910	20.704951
82.026365	-2.968300	3.871000	-11.489000	21.428963	0.000910	20.700357
83.027989	-3.008900	3.869200	-11.641000	21.434083	0.000911	20.692678
84.028580	-3.004100	3.867900	-11.617000	21.439986	0.000911	20.712335
85.027807	-3.008100	3.869200	-11.639000	21.474536	0.000911	20.685737
86.026877	-3.012800	3.868200	-11.653000	21.464185	0.000913	20.700511
87.027182	-3.002900	3.868300	-11.615000	21.478549	0.000911	20.711091
88.027902	-2.984600	3.870000	-11.550000	21.488180	0.000910	20.715039
89.030840	-3.013400	3.866600	-11.649000	21.488432	0.000910	20.693004
90.028574	-3.018700	3.866800	-11.671000	21.488131	0.000910	20.694599
91.029178	-3.004100	3.867300	-11.618000	21.508734	0.000912	20.707630
92.028298	-2.998100	3.868100	-11.597000	21.523676	0.000910	20.687018
93.030743	-3.004200	3.867000	-11.617000	21.541492	0.000912	20.692043
94.033754	-2.994500	3.867500	-11.580000	21.532359	0.000913	20.707088
95.035409	-2.983300	3.866800	-11.535000	21.553442	0.000912	20.713012
96.034564	-3.014200	3.865300	-11.649000	21.575294	0.000913	20.692203
97.032327	-3.005600	3.865600	-11.617000	21.548630	0.000911	20.704403
98.033643	-3.011700	3.864700	-11.639000	21.569756	0.000912	20.702783
99.036423	-2.991600	3.865700	-11.562000	21.573633	0.000911	20.715672
100.036579	-2.995700	3.865400	-11.579000	21.592783	0.000911	20.699273
101.034977	-3.007100	3.864400	-11.619000	21.574956	0.000912	20.723161
102.037977	-2.965400	3.867000	-11.465000	21.611797	0.000913	20.703128
103.039528	-2.998300	3.864600	-11.586000	21.588057	0.000912	20.706872
104.036561	-3.000200	3.865700	-11.596000	21.597687	0.000911	20.711294
105.038961	-2.977000	3.866900	-11.511000	21.591583	0.000913	20.703762
106.038403	-3.006200	3.865300	-11.618000	21.618018	0.000912	20.697499
107.037102	-3.036100	3.862600	-11.726000	21.634429	0.000912	20.707759
108.038320	-3.017600	3.863000	-11.655000	21.652514	0.000912	20.710209
109.043282	-3.000900	3.863600	-11.594000	21.642872	0.000910	20.705301
110.039364	-3.011700	3.862600	-11.632000	21.650631	0.000911	20.710696
111.040063	-3.016000	3.862300	-11.647000	21.645019	0.000911	20.693699
112.043766	-2.997700	3.862600	-11.577000	21.679662	0.000913	20.707980
113.041741	-2.969200	3.864100	-11.472000	21.665245	0.000912	20.712519
114.040996	-3.011200	3.861900	-11.628000	21.664236	0.000913	20.722415
115.047273	-2.966300	3.862900	-11.457000	21.692928	0.000913	20.717464
116.045365	-3.004800	3.861700	-11.602000	21.694927	0.000913	20.691014
117.047706	-3.000700	3.862100	-11.588000	21.685212	0.000914	20.724441
118.046393	-3.015200	3.861800	-11.644000	21.720598	0.000913	20.708171
119.046666	-2.980300	3.863000	-11.512000	21.708316	0.000915	20.713898
120.046098	-2.999300	3.860600	-11.579000	21.728239	0.000913	20.715819
121.043850	-3.001000	3.860800	-11.586000	21.739019	0.000917	20.716176
122.046470	-3.012400	3.860400	-11.627000	21.725378	0.000911	20.716275
123.044809	-2.989500	3.861600	-11.543000	21.729624	0.000914	20.704876
124.046061	-3.005100	3.860300	-11.599000	21.754315	0.000914	20.711570
125.044554	-3.011700	3.860200	-11.624000	21.750377	0.000913	20.731338
126.045151	-3.022300	3.858700	-11.662000	21.768362	0.000915	20.705239
127.049999	-2.986100	3.860100	-11.526000	21.769912	0.000912	20.711533
128.045348	-3.015400	3.858100	-11.632000	21.767396	0.000915	20.739362
129.045549	-2.997000	3.859500	-11.566000	21.771942	0.000915	20.720678
130.047430	-2.994500	3.860300	-11.559000	21.794455	0.000915	20.730882
131.046014	-2.998400	3.860200	-11.574000	21.792769	0.000916	20.724927
132.045733	-2.966000	3.860400	-11.449000	21.795716	0.000915	20.704168
133.044825	-2.990300	3.858300	-11.536000	21.802650	0.000916	20.719643
134.045347	-2.993400	3.858500	-11.549000	21.815797	0.000917	20.725217
135.045794	-2.999400	3.858800	-11.574000	21.810463	0.000916	20.728887
136.045338	-2.985700	3.859300	-11.520000	21.808175	0.000918	20.689135
137.045215	-2.987600	3.858100	-11.524000	21.827130	0.000919	20.714273
138.045675	-3.005100	3.857600	-11.591000	21.826866	0.000918	20.731079
139.046502	-2.992500	3.858200	-11.545000	21.833652	0.000917	20.730759
140.049372	-3.005400	3.857400	-11.591000	21.844104	0.000917	20.705658
141.047535	-3.009700	3.857400	-11.608000	21.842037	0.000919	20.728721
142.046081	-2.991700	3.856000	-11.535000	21.844068	0.000917	20.718424
143.049997	-3.006900	3.856700	-11.596000	21.871771	0.000916	20.717230
144.046466	-2.996400	3.857500	-11.558000	21.859633	0.000917	20.706976
145.046887	-2.973200	3.857200	-11.467000	21.861860	0.000918	20.715370
146.050059	-2.996000	3.855300	-11.550000	21.883755	0.000920	20.726855
147.046374	-2.992800	3.856100	-11.539000	21.922451	0.000920	20.738088
148.046278	-3.001500	3.853900	-11.566000	21.909544	0.000919	20.718055
149.047837	-3.009600	3.854600	-11.599000	21.920962	0.000920	20.716208
150.048205	-2.990700	3.856600	-11.534000	21.928628	0.000920	20.740951
151.047638	-2.989800	3.856500	-11.529000	21.955886	0.000920	20.730778
152.046636	-3.007900	3.854600	-11.593000	21.954342	0.000921	20.728284
153.047386	-2.993300	3.855200	-11.539000	21.954674	0.000921	20.717236
154.047582	-2.976900	3.855400	-11.475000	21.964572	0.000921	20.743741
155.046773	-3.001900	3.854700	-11.570000	21.970410	0.000922	20.714022
156.053874	-2.997200	3.854600	-11.552000	21.984756	0.000920	20.728857
157.050365	-2.989800	3.854100	-11.522000	21.987302	0.000922	20.733303
158.050236	-2.985700	3.854900	-11.508000	22.001248	0.000922	20.742522
159.054866	-3.013700	3.853300	-11.612000	22.017457	0.000923	20.724134
160.050261	-2.996800	3.852700	-11.544000	22.012025	0.000922	20.728180
161.053944	-2.974200	3.854100	-11.462000	22.025897	0.000924	20.740170
162.050996	-3.007700	3.852100	-11.585000	22.024549	0.000924	20.724596
163.048729	-2.992100	3.853400	-11.529000	22.026057	0.000925	20.736537
164.049738	-2.993200	3.852200	-11.529000	22.018411	0.000926	20.740263
165.051453	-3.003500	3.851800	-11.567000	22.037308	0.000925	20.752542
166.050948	-3.000600	3.852800	-11.560000	22.040525	0.000925	20.726364
167.050928	-2.994500	3.851800	-11.534000	22.065419	0.000926	20.750338
168.051510	-3.000300	3.850900	-11.553000	22.054427	0.000926	20.726531
169.053606	-3.011500	3.851200	-11.597000	22.049918	0.000926	20.726759
170.052664	-3.002200	3.850300	-11.558000	22.055257	0.000928	20.737794
171.053910	-3.002400	3.850400	-11.559000	22.068974	0.000929	20.747734
172.056655	-3.007200	3.850300	-11.577000	22.053769	0.000926	20.724450
173.055558	-2.977400	3.851300	-11.466000	22.053474	0.000930	20.762088
174.053397	-2.995800	3.851100	-11.535000	22.081892	0.000928	20.734112
175.053989	-3.012000	3.850100	-11.595000	22.077463	0.000928	20.740110
176.054384	-3.012100	3.848300	-11.591000	22.099323	0.000928	20.754884
177.054297	-2.993700	3.849400	-11.523000	22.101901	0.000929	20.748455
178.055900	-3.019300	3.847400	-11.615000	22.111595	0.000930	20.739193
179.055619	-2.984900	3.847900	-11.484000	22.116884	0.000929	20.725048
180.057652	-2.989900	3.848800	-11.504000	22.120452	0.000930	20.749958
181.055466	-3.005400	3.848900	-11.567000	22.148591	0.000931	20.743990
182.059644	-2.990100	3.848200	-11.506000	22.142834	0.000932	20.749132
183.056273	-3.004100	3.847200	-11.556000	22.129955	0.000933	20.754730
184.055039	-2.997200	3.846900	-11.527000	22.148050	0.000933	20.782804
185.059500	-2.998100	3.848100	-11.536000	22.153045	0.000932	20.756510
186.056508	-3.011100	3.847200	-11.583000	22.156729	0.000932	20.763518
187.056382	-2.994700	3.846800	-11.519000	22.166908	0.000933	20.760433
188.061403	-2.987700	3.847000	-11.492000	22.153352	0.000934	20.752551
189.057627	-2.982400	3.847200	-11.473000	22.182943	0.000933	20.748985
190.057350	-2.984400	3.848600	-11.485000	22.185476	0.000935	20.766221
191.060329	-2.998900	3.845700	-11.531000	22.183170	0.000932	20.743997
192.059562	-2.992300	3.846800	-11.509000	22.188085	0.000936	20.749866
193.057722	-3.019800	3.845200	-11.611000	22.190723	0.000936	20.757250
194.062609	-2.980700	3.847000	-11.465000	22.212489	0.000937	20.753438
195.060734	-3.002700	3.845300	-11.546000	22.222434	0.000934	20.765292
196.061225	-3.000400	3.846400	-11.540000	22.207858	0.000937	20.749275
197.060555	-2.980600	3.846200	-11.462000	22.193159	0.000939	20.764905
198.061457	-3.010000	3.843900	-11.568000	22.234188	0.000936	20.765206
199.062137	-3.002000	3.845600	-11.543000	22.227053	0.000938	20.756166
200.061988	-3.004400	3.844500	-11.547000	22.243954	0.000939	20.769295
201.065541	-3.000700	3.843500	-11.531000	22.236359	0.000939	20.759319
202.061675	-2.974300	3.846900	-11.440000	22.270454	0.000939	20.768329
203.060442	-3.003700	3.844200	-11.546000	22.275270	0.000940	20.764616
204.061931	-3.014100	3.844100	-11.585000	22.255984	0.000940	20.759055
205.061516	-3.015100	3.843500	-11.587000	22.268991	0.000939	20.764492
206.061246	-3.014200	3.841900	-11.579000	22.271267	0.000940	20.753020
207.061145	-2.999300	3.844300	-11.529000	22.257313	0.000941	20.758015
208.062789	-3.005100	3.844700	-11.553000	22.263573	0.000943	20.774715
209.061323	-3.026100	3.843000	-11.628000	22.289403	0.000941	20.768336
210.065347	-3.013800	3.841700	-11.577000	22.292263	0.000943	20.793485
211.062536	-2.988100	3.843100	-11.482000	22.304009	0.000942	20.771107
212.063606	-3.013000	3.843300	-11.579000	22.309126	0.000945	20.772438
213.062917	-2.992600	3.843400	-11.501000	22.296839	0.000943	20.754444
214.065497	-2.994600	3.844000	-11.510000	22.332132	0.000944	20.794052
215.064143	-3.009200	3.841000	-11.557000	22.343103	0.000944	20.765683
216.063809	-3.010500	3.841000	-11.563000	22.343380	0.000944	20.777340
217.063781	-2.994600	3.842200	-11.505000	22.375241	0.000946	20.781743
218.063518	-3.007400	3.841200	-11.551000	22.372221	0.000946	20.771133
219.063708	-3.006200	3.841000	-11.546000	22.371982	0.000947	20.775635
220.063969	-2.994900	3.840600	-11.501000	22.384625	0.000946	20.775019
221.066508	-3.015100	3.839900	-11.576000	22.396617	0.000946	20.779915
222.063572	-2.990900	3.840500	-11.486000	22.387676	0.000946	20.767642
223.068088	-2.996000	3.840700	-11.506000	22.414345	0.000949	20.783444
224.069362	-2.997200	3.840200	-11.508000	22.410859	0.000949	20.784694
225.064329	-3.009500	3.839800	-11.554000	22.412022	0.000949	20.786333
226.067533	-3.004200	3.839800	-11.535000	22.427376	0.000949	20.790329
227.068684	-2.991500	3.839900	-11.485000	22.436674	0.000949	20.765501
228.069076	-2.969800	3.840500	-11.404000	22.454697	0.000949	20.789714
229.071567	-2.986900	3.839600	-11.466000	22.468679	0.000951	20.786173
230.073373	-2.999900	3.838800	-11.514000	22.459893	0.000952	20.784961
231.066854	-3.002300	3.836800	-11.517000	22.460822	0.000950	20.779727
232.071038	-3.002900	3.837500	-11.523000	22.489801	0.000951	20.804956
233.067217	-2.980100	3.838700	-11.439000	22.474338	0.000952	20.786624
234.066652	-2.994100	3.837100	-11.487000	22.501903	0.000955	20.795264
235.071080	-3.018500	3.836900	-11.580000	22.512872	0.000952	20.787284
236.068675	-3.006900	3.836200	-11.534000	22.512553	0.000953	20.777481
237.067333	-2.997200	3.837600	-11.501000	22.512479	0.000955	20.788312
238.067462	-3.023500	3.836100	-11.598000	22.502193	0.000955	20.769001
239.070307	-2.997500	3.836400	-11.499000	22.501775	0.000956	20.780911
240.073349	-2.989400	3.837200	-11.470000	22.516230	0.000955	20.783535
241.070365	-2.994100	3.835800	-11.484000	22.507063	0.000956	20.792371
242.073790	-2.998500	3.836200	-11.502000	22.522963	0.000957	20.805925
243.072537	-2.995400	3.835900	-11.489000	22.531387	0.000957	20.805826
244.070107	-2.990000	3.836000	-11.468000	22.517166	0.000957	20.798222
245.074047	-2.984300	3.836000	-11.447000	22.517787	0.000959	20.809749
246.071464	-2.988300	3.835600	-11.460000	22.547244	0.000961	20.814596
247.073034	-2.987400	3.834700	-11.455000	22.536436	0.000960	20.803296
248.072798	-3.002900	3.834500	-11.514000	22.568155	0.000961	20.799503
249.073181	-2.992900	3.835500	-11.478000	22.584805	0.000960	20.796739
250.071512	-3.005800	3.834200	-11.523000	22.572103	0.000961	20.787810
251.074492	-3.012400	3.833700	-11.547000	22.609282	0.000961	20.816512
252.073905	-2.966200	3.834700	-11.373000	22.598768	0.000963	20.810724
253.070520	-2.972900	3.834500	-11.398000	22.618756	0.000961	20.797078
254.074535	-2.982000	3.834800	-11.434000	22.614895	0.000963	20.810755
255.071090	-2.990500	3.833000	-11.461000	22.611680	0.000963	20.813698
256.071259	-3.001500	3.831800	-11.501000	22.657925	0.000963	20.797903
257.073104	-2.992700	3.832100	-11.466000	22.630892	0.000964	20.816346
258.076851	-3.002700	3.833300	-11.509000	22.632793	0.000963	20.805447
259.074073	-2.997500	3.831800	-11.485000	22.629762	0.000963	20.807153
260.072490	-2.997600	3.831100	-11.482000	22.651962	0.000966	20.812320
261.077317	-2.965700	3.833700	-11.369000	22.641068	0.000965	20.808046
262.074865	-2.995200	3.832100	-11.477000	22.660090	0.000965	20.799598
263.073037	-2.975100	3.832900	-11.402000	22.637743	0.000967	20.799974
264.078031	-2.993200	3.831000	-11.465000	22.657551	0.000967	20.803693
265.074296	-3.003600	3.830500	-11.504000	22.646147	0.000969	20.799383
266.078885	-3.008400	3.830000	-11.520000	22.645803	0.000969	20.806151
267.076046	-2.998600	3.830900	-11.486000	22.635585	0.000968	20.804925
268.075993	-2.979300	3.831800	-11.414000	22.649296	0.000969	20.812494
269.075248	-2.977200	3.830900	-11.404000	22.652665	0.000969	20.822507
270.077788	-2.977400	3.830600	-11.404000	22.640960	0.000971	20.778066
271.077185	-3.007300	3.829700	-11.516000	22.676912	0.000971	20.788947
272.075329	-2.985500	3.830000	-11.434000	22.672658	0.000971	20.795592
273.074853	-3.000700	3.829300	-11.490000	22.668798	0.000970	20.795518
274.075017	-3.006700	3.829000	-11.512000	22.654351	0.000970	20.807600
275.078423	-3.015300	3.828700	-11.543000	22.673636	0.000973	20.802735
276.073975	-3.017700	3.827800	-11.550000	22.643789	0.000973	20.788960
277.076364	-3.002900	3.828400	-11.495000	22.663124	0.000974	20.797895
278.077287	-2.976500	3.828600	-11.395000	22.658323	0.000972	20.781707
279.078788	-2.999900	3.827200	-11.480000	22.695326	0.000974	20.780365
280.079929	-2.983400	3.827500	-11.418000	22.700435	0.000974	20.783111
281.076852	-3.003100	3.826800	-11.491000	22.681237	0.000977	20.786166
282.079217	-3.016500	3.828100	-11.547000	22.701044	0.000975	20.794627
283.078036	-3.008900	3.825800	-11.511000	22.683204	0.000976	20.794301
284.078929	-2.998500	3.827300	-11.475000	22.709940	0.000976	20.766079
285.077085	-3.007900	3.826800	-11.510000	22.710045	0.000978	20.764762
286.078380	-2.978100	3.828100	-11.399000	22.730799	0.000976	20.789344
287.079838	-2.985400	3.825600	-11.420000	22.716654	0.000978	20.783236
288.079217	-2.995600	3.825000	-11.457000	22.700886	0.000979	20.797787
289.080444	-3.003800	3.826200	-11.492000	22.715511	0.000979	20.763124
290.082829	-2.972800	3.826800	-11.375000	22.690804	0.000981	20.767669
291.078470	-3.012000	3.825100	-11.520000	22.698249	0.000979	20.773335
292.079485	-2.995200	3.825400	-11.456000	22.723964	0.000978	20.772066
293.080689	-2.982200	3.825700	-11.408000	22.738325	0.000980	20.781236
294.081796	-3.001700	3.824000	-11.475000	22.764107	0.000979	20.769604
295.082346	-2.983600	3.825300	-11.412000	22.728034	0.000981	20.783410
296.082745	-2.977700	3.825800	-11.391000	22.756190	0.000982	20.770682
297.082801	-2.983900	3.823700	-11.408000	22.795360	0.000983	20.765350
298.081565	-3.010700	3.823600	-11.511000	22.787731	0.000984	20.778570
299.084175	-2.997100	3.823100	-11.456000	22.805577	0.000983	20.770368
300.083772	-3.004900	3.822800	-11.486000	22.808693	0.000984	20.765904
301.084313	-3.024700	3.822400	-11.560000	22.818910	0.000986	20.772820
302.086497	-3.015900	3.821100	-11.522000	22.819064	0.000986	20.772026
303.084018	-2.995900	3.823800	-11.455000	22.836331	0.000985	20.760874
304.084039	-3.007700	3.821800	-11.494000	22.828488	0.000987	20.763922
305.089998	-3.000100	3.821800	-11.465000	22.824339	0.000987	20.762137
306.086117	-2.996800	3.822800	-11.455000	22.826177	0.000987	20.764927
307.086728	-3.013900	3.820800	-11.515000	22.831765	0.000988	20.767680
308.086125	-3.018700	3.821700	-11.535000	22.818782	0.000988	20.780279
309.087459	-3.008000	3.822300	-11.496000	22.817874	0.000987	20.764195
310.086663	-3.002000	3.820600	-11.467000	22.826541	0.000988	20.765291
311.087156	-3.008800	3.820300	-11.493000	22.836880	0.000990	20.765217
312.091279	-2.997500	3.820000	-11.450000	22.846801	0.000991	20.745284
313.087869	-3.017400	3.819300	-11.524000	22.880184	0.000991	20.773513
314.098254	-3.019500	3.819300	-11.531000	22.853336	0.000993	20.768427
315.092305	-3.009300	3.820900	-11.498000	22.879668	0.000993	20.744546
316.089325	-2.987500	3.821000	-11.414000	22.882459	0.000993	20.762989
317.090617	-2.989400	3.819500	-11.417000	22.880843	0.000994	20.767534
318.090964	-2.983900	3.819300	-11.396000	22.882171	0.000992	20.732828
319.089175	-2.987300	3.818900	-11.407000	22.885238	0.000993	20.763877
320.091777	-3.007500	3.819000	-11.484000	22.894742	0.000992	20.763915
321.095474	-3.033300	3.816700	-11.576000	22.873641	0.000993	20.767431
322.092314	-2.998500	3.818300	-11.448000	22.875719	0.000995	20.746753
323.091549	-2.997700	3.816900	-11.441000	22.894675	0.000994	20.751520
324.094046	-3.019800	3.816800	-11.525000	22.891842	0.000995	20.747733
325.094213	-3.013400	3.815700	-11.497000	22.890983	0.000995	20.748295
326.093297	-2.997500	3.818300	-11.444000	22.906625	0.000994	20.750690
327.094762	-2.972000	3.818700	-11.347000	22.906902	0.000996	20.762822
328.094337	-3.021000	3.815700	-11.526000	22.915754	0.000997	20.752723
329.097613	-3.007100	3.816000	-11.475000	22.938797	0.000997	20.734083
330.093827	-3.018600	3.815100	-11.515000	22.914218	0.000997	20.739804
331.096464	-3.008600	3.816200	-11.481000	22.951441	0.000997	20.742010
332.095366	-2.983900	3.815900	-11.385000	22.958116	0.000999	20.749646
333.094977	-3.001000	3.815200	-11.448000	22.987064	0.000999	20.739294
334.097102	-3.014100	3.814200	-11.495000	22.949537	0.001000	20.726351
335.094163	-2.988200	3.816000	-11.402000	22.931055	0.000999	20.731542
336.096578	-2.995700	3.814300	-11.425000	22.916384	0.000999	20.734387
337.097213	-3.007100	3.814700	-11.471000	22.916569	0.001003	20.747376
338.096541	-2.999600	3.813800	-11.438000	22.927461	0.001001	20.736002
339.096606	-3.015200	3.813000	-11.496000	22.921087	0.001003	20.734358
340.095767	-3.015700	3.813300	-11.498000	22.908912	0.001002	20.729272
341.096717	-3.019100	3.811900	-11.507000	22.921943	0.001000	20.721464
342.097403	-3.014800	3.813500	-11.496000	22.920855	0.001001	20.764947
343.098103	-3.004600	3.812400	-11.453000	22.948711	0.001004	20.729791
344.099846	-3.010500	3.811600	-11.473000	22.964059	0.001002	20.745168
345.099303	-3.003500	3.812800	-11.452000	22.965934	0.001004	20.728080
346.099013	-3.014500	3.811900	-11.489000	22.972941	0.001004	20.723247
347.101610	-3.018500	3.812200	-11.506000	22.992197	0.001005	20.733531
348.100523	-3.003700	3.810700	-11.446000	23.006303	0.001004	20.738655
349.100215	-2.994000	3.811500	-11.411000	23.022424	0.001005	20.742954
350.101678	-2.992800	3.810800	-11.404000	23.021397	0.001007	20.721062
351.099271	-3.003700	3.811100	-11.446000	23.035828	0.001006	20.762550
352.099681	-3.013900	3.809800	-11.481000	23.032940	0.001009	20.725989
353.105795	-3.001000	3.810000	-11.432000	23.049614	0.001009	20.725627
354.100926	-3.008800	3.810500	-11.464000	23.047672	0.001009	20.719888
355.101542	-3.013500	3.810100	-11.481000	23.069773	0.001007	20.745353
356.104542	-3.011300	3.808600	-11.468000	23.062804	0.001009	20.717506
357.100980	-3.000900	3.809700	-11.432000	23.072545	0.001009	20.723473
358.101756	-3.021200	3.808600	-11.505000	23.059025	0.001009	20.719409
359.106274	-3.002400	3.808300	-11.433000	23.073148	0.001010	20.731664
360.103581	-3.021400	3.809200	-11.507000	23.067802	0.001010	20.704969
361.101938	-2.993500	3.808300	-11.400000	23.058443	0.001011	20.747277
362.101826	-3.010900	3.807300	-11.462000	23.049077	0.001012	20.731727
363.102049	-3.002900	3.808000	-11.434000	23.050128	0.001012	20.734677
364.102153	-2.992100	3.807700	-11.392000	23.043037	0.001011	20.715717
365.101418	-2.981900	3.808100	-11.354000	23.056368	0.001011	20.721962
366.101943	-3.012800	3.805900	-11.464000	23.101003	0.001012	20.730178
367.101771	-2.987900	3.807200	-11.374000	23.104389	0.001012	20.725035
368.106628	-2.983300	3.806200	-11.354000	23.125633	0.001013	20.730202
369.106452	-3.003500	3.806300	-11.431000	23.103246	0.001014	20.711087
370.105134	-2.984900	3.807400	-11.364000	23.111445	0.001014	20.708871
371.103197	-2.989200	3.806200	-11.376000	23.082408	0.001017	20.725769
372.101771	-2.990000	3.805800	-11.379000	23.109135	0.001014	20.707978
373.104177	-3.001200	3.806600	-11.423000	23.067721	0.001015	20.720535
374.105036	-2.989300	3.804200	-11.371000	23.077241	0.001014	20.722488
375.105926	-3.001500	3.804900	-11.420000	23.068649	0.001015	20.718621
376.106125	-3.020100	3.804500	-11.490000	23.075071	0.001018	20.718892
377.107774	-3.027900	3.803400	-11.515000	23.086810	0.001017	20.718800
378.107093	-3.010500	3.804100	-11.451000	23.120193	0.001016	20.720482
379.107694	-3.002500	3.803700	-11.418000	23.114059	0.001018	20.720500
380.107133	-2.981200	3.804100	-11.339000	23.105745	0.001018	20.727342
381.111266	-3.001400	3.803800	-11.415000	23.117599	0.001018	20.719306
382.109896	-3.015800	3.801300	-11.462000	23.100368	0.001017	20.723851
383.108809	-3.002100	3.802700	-11.415000	23.100073	0.001019	20.695104
384.108943	-3.023200	3.801700	-11.492000	23.112204	0.001019	20.735712
385.109046	-3.012100	3.802300	-11.452000	23.112635	0.001021	20.701529
386.112037	-2.985200	3.801900	-11.348000	23.108051	0.001019	20.725860
387.109514	-3.020300	3.801700	-11.481000	23.122474	0.001020	20.714707
388.111535	-2.996800	3.802500	-11.393000	23.157114	0.001020	20.690622
389.110225	-3.007200	3.800900	-11.429000	23.162123	0.001022	20.705125
390.113118	-2.964400	3.801600	-11.268000	23.158621	0.001021	20.715368
391.111110	-2.975400	3.801100	-11.309000	23.161835	0.001022	20.709105
392.112468	-3.005400	3.799100	-11.417000	23.201777	0.001022	20.715940
393.113018	-2.980400	3.800000	-11.324000	23.209354	0.001022	20.701721
394.111809	-2.993800	3.799800	-11.375000	23.206239	0.001023	20.708557
395.112983	-3.020500	3.797800	-11.470000	23.224772	0.001023	20.720018
396.114532	-2.994300	3.798800	-11.374000	23.236078	0.001023	20.701475
397.110864	-3.020700	3.798300	-11.472000	23.263446	0.001024	20.724163
398.110571	-3.006300	3.797900	-11.417000	23.248036	0.001024	20.704925
399.115605	-2.983000	3.798500	-11.330000	23.280338	0.001026	20.703632
400.119138	-2.992000	3.796600	-11.358000	23.296922	0.001026	20.693224
401.113793	-3.009900	3.796900	-11.427000	23.289408	0.001026	20.698971
402.117083	-2.997500	3.797500	-11.381000	23.306293	0.001025	20.708307
403.112955	-3.034800	3.797600	-11.524000	23.272548	0.001027	20.712894
404.114362	-3.009200	3.796700	-11.424000	23.276241	0.001026	20.703319
405.112798	-3.004400	3.798300	-11.410000	23.283608	0.001029	20.703590
406.114765	-3.024300	3.796100	-11.478000	23.299627	0.001027	20.703997
407.112284	-3.017700	3.795500	-11.453000	23.297244	0.001026	20.701608
408.114390	-3.003200	3.794300	-11.394000	23.308714	0.001027	20.715476
409.116651	-2.980100	3.796400	-11.312000	23.341740	0.001028	20.698314
410.115289	-3.022600	3.795100	-11.470000	23.325459	0.001028	20.697643
411.113363	-3.023000	3.793900	-11.468000	23.313466	0.001028	20.721661
412.115861	-3.009200	3.794500	-11.417000	23.293792	0.001028	20.715693
413.112585	-3.001000	3.794900	-11.387000	23.303506	0.001027	20.698876
414.113319	-2.999900	3.794500	-11.382000	23.318278	0.001031	20.680013
415.112872	-3.017900	3.793400	-11.447000	23.323156	0.001030	20.704819
416.118966	-2.990600	3.794700	-11.346000	23.335414	0.001029	20.718528
417.114682	-3.010200	3.794100	-11.420000	23.321621	0.001030	20.720825
418.115345	-3.016700	3.791200	-11.436000	23.329867	0.001032	20.702535
419.116137	-3.009700	3.791900	-11.412000	23.339718	0.001030	20.700554
420.116581	-2.989800	3.793500	-11.340000	23.365037	0.001030	20.681358
421.113859	-3.020000	3.792200	-11.452000	23.353234	0.001030	20.711731
422.116111	-3.010300	3.792700	-11.415000	23.337303	0.001032	20.690547
423.114486	-3.010200	3.792700	-11.416000	23.352523	0.001030	20.693473
424.113693	-2.996700	3.792300	-11.363000	23.349162	0.001032	20.701011
425.115167	-2.995200	3.791100	-11.354000	23.353721	0.001031	20.689932
426.116693	-2.991400	3.790500	-11.338000	23.354145	0.001032	20.676131
427.116641	-3.029000	3.790500	-11.479000	23.375416	0.001033	20.691762
428.117483	-3.010900	3.790800	-11.413000	23.360334	0.001034	20.683757
429.117554	-3.007600	3.789600	-11.396000	23.338922	0.001033	20.690747
430.117831	-3.017400	3.790400	-11.436000	23.329362	0.001032	20.702503
431.118706	-2.992100	3.789500	-11.336000	23.306839	0.001035	20.688464
432.119095	-2.989600	3.790400	-11.330000	23.309001	0.001034	20.709124
433.119406	-3.005500	3.788900	-11.387000	23.297359	0.001033	20.664262
434.117861	-2.994300	3.790100	-11.348000	23.313543	0.001033	20.696606
435.122112	-2.999300	3.787900	-11.360000	23.318126	0.001033	20.681284
436.120306	-2.988300	3.788200	-11.319000	23.337254	0.001033	20.698559
437.119304	-2.957000	3.790000	-11.206000	23.343908	0.001037	20.694323
438.124372	-2.990400	3.788100	-11.327000	23.360565	0.001036	20.665495
439.121623	-2.978800	3.787500	-11.281000	23.370832	0.001034	20.686219
440.121830	-2.988200	3.787200	-11.316000	23.392895	0.001035	20.677985
441.127554	-2.982300	3.788700	-11.298000	23.378458	0.001035	20.686275
442.125886	-3.000400	3.787100	-11.362000	23.379908	0.001035	20.678245
443.127343	-3.007200	3.786500	-11.386000	23.400005	0.001034	20.679422
444.126491	-3.000500	3.786500	-11.360000	23.411636	0.001037	20.676380
445.125515	-3.008200	3.786500	-11.389000	23.453997	0.001036	20.679485
446.125402	-3.000300	3.785900	-11.358000	23.445433	0.001037	20.692714
447.124924	-3.009400	3.785400	-11.391000	23.446256	0.001036	20.682633
448.124317	-3.009700	3.784600	-11.390000	23.475967	0.001038	20.669264
449.125537	-2.999400	3.784900	-11.351000	23.459932	0.001037	20.673106
450.125385	-2.999000	3.783900	-11.347000	23.447787	0.001037	20.686539
451.126340	-2.977000	3.784400	-11.265000	23.461734	0.001037	20.676809
452.125911	-2.991700	3.784300	-11.321000	23.436613	0.001037	20.677708
453.126395	-3.003900	3.783600	-11.364000	23.422323	0.001036	20.658641
454.128468	-2.981400	3.784900	-11.283000	23.422078	0.001037	20.689693
455.126569	-2.992900	3.783600	-11.323000	23.434987	0.001037	20.672759
456.126061	-2.994800	3.783100	-11.329000	23.436504	0.001039	20.667167
457.126341	-2.978300	3.783900	-11.269000	23.439889	0.001039	20.681466
458.133513	-2.995400	3.782900	-11.329000	23.433095	0.001039	20.679872
459.130508	-3.002200	3.781900	-11.352000	23.453068	0.001039	20.661483
460.132956	-2.987300	3.781700	-11.296000	23.428095	0.001039	20.660633
461.131001	-3.013800	3.780900	-11.394000	23.450458	0.001039	20.667402
462.132215	-3.006000	3.780700	-11.363000	23.448835	0.001040	20.656291
463.134989	-3.015900	3.780800	-11.402000	23.447497	0.001039	20.676289
464.139910	-2.994200	3.780200	-11.317000	23.443369	0.001038	20.690645
465.136809	-3.003000	3.778200	-11.345000	23.434780	0.001040	20.669232
466.133333	-3.030000	3.779800	-11.450000	23.403811	0.001039	20.662846
467.137074	-2.981100	3.780800	-11.269000	23.382456	0.001040	20.664202
468.136149	-2.990000	3.779500	-11.300000	23.396771	0.001039	20.655789
469.134671	-2.986600	3.780100	-11.289000	23.364984	0.001039	20.666131
470.134542	-2.990700	3.779000	-11.300000	23.387317	0.001040	20.646312
471.137143	-2.991500	3.778000	-11.301000	23.391133	0.001041	20.639705
472.135115	-2.972800	3.778100	-11.230000	23.430421	0.001042	20.663914
473.141360	-2.980100	3.779100	-11.261000	23.437721	0.001041	20.646572
474.140399	-2.972700	3.778400	-11.231000	23.451569	0.001042	20.654764
475.135305	-2.970900	3.778500	-11.224000	23.433046	0.001042	20.663226
476.142098	-2.975200	3.777700	-11.238000	23.455956	0.001043	20.659162
477.144892	-3.020100	3.775400	-11.402000	23.464919	0.001043	20.652972
478.138332	-3.006100	3.776500	-11.351000	23.489787	0.001043	20.657985
479.140181	-3.006700	3.776800	-11.355000	23.517979	0.001043	20.659218
480.141417	-3.008900	3.774900	-11.357000	23.546840	0.001041	20.642153
481.147492	-3.020400	3.775900	-11.403000	23.540309	0.001043	20.667378
482.138913	-2.998800	3.776000	-11.322000	23.523133	0.001043	20.666282
483.146990	-2.990600	3.774300	-11.286000	23.511511	0.001043	20.657950
484.140242	-3.013700	3.774200	-11.372000	23.541906	0.001042	20.650485
485.138699	-3.011300	3.773800	-11.363000	23.531949	0.001043	20.643822
486.142032	-3.008700	3.773500	-11.352000	23.514258	0.001046	20.652168
487.141041	-2.994300	3.773600	-11.298000	23.528995	0.001044	20.659829
488.140419	-3.010700	3.772600	-11.357000	23.529966	0.001046	20.638514
489.140367	-2.998100	3.772500	-11.309000	23.525228	0.001046	20.658898
490.147198	-2.986300	3.773000	-11.267000	23.538203	0.001045	20.661947
491.144597	-3.001400	3.772500	-11.322000	23.531010	0.001045	20.649994
492.139870	-3.017400	3.772500	-11.383000	23.522282	0.001046	20.657367
493.143535	-3.004300	3.771300	-11.329000	23.519812	0.001047	20.649674
494.150718	-3.013700	3.771600	-11.364000	23.550631	0.001045	20.641686
495.143025	-3.007900	3.772100	-11.345000	23.536521	0.001046	20.646035
496.145956	-3.012300	3.771200	-11.360000	23.550908	0.001045	20.631057
497.147622	-3.002600	3.771400	-11.323000	23.516802	0.001046	20.626265
498.146801	-2.982800	3.770900	-11.248000	23.533210	0.001046	20.652200
499.147577	-3.015000	3.769700	-11.365000	23.557887	0.001047	20.621931
500.145145	-3.002400	3.770600	-11.320000	23.571898	0.001046	20.646411
501.143734	-3.017700	3.768300	-11.370000	23.589049	0.001045	20.637049
502.145252	-3.017800	3.769800	-11.374000	23.620525	0.001047	20.634938
503.144118	-3.008700	3.767900	-11.335000	23.627122	0.001046	20.627801
504.149357	-3.007400	3.768700	-11.333000	23.624130	0.001047	20.623378
505.145310	-3.003400	3.768000	-11.316000	23.657588	0.001046	20.632739
506.143950	-2.995700	3.768500	-11.287000	23.630310	0.001047	20.643327
507.140364	-3.006600	3.766600	-11.323000	23.599990	0.001049	20.649442
508.149899	-2.982200	3.766800	-11.232000	23.606423	0.001048	20.638346
509.147910	-2.995800	3.767100	-11.285000	23.611594	0.001048	20.644005
510.144174	-2.984600	3.766600	-11.242000	23.620728	0.001047	20.637987
511.149557	-3.005500	3.766900	-11.318000	23.637166	0.001049	20.634078
512.143241	-2.986000	3.765600	-11.243000	23.652228	0.001049	20.656766
513.152606	-3.009600	3.764300	-11.328000	23.682374	0.001047	20.628665
514.145057	-3.019900	3.765400	-11.370000	23.675280	0.001045	20.629139
515.154610	-2.990100	3.764100	-11.253000	23.676976	0.001047	20.657395
516.145989	-3.020200	3.763700	-11.366000	23.688628	0.001047	20.645368
517.151183	-3.008100	3.764000	-11.322000	23.684248	0.001049	20.646668
518.145366	-3.030500	3.762700	-11.401000	23.698770	0.001049	20.640837
519.144413	-3.013500	3.764200	-11.342000	23.700728	0.001047	20.642800
520.147234	-3.015900	3.762900	-11.347000	23.718812	0.001050	20.629635
521.149148	-3.008300	3.763700	-11.321000	23.727871	0.001049	20.639667
522.146813	-3.001000	3.763400	-11.293000	23.712713	0.001050	20.620674
523.148878	-3.001100	3.763200	-11.292000	23.702911	0.001048	20.655896
524.146082	-2.997800	3.763500	-11.281000	23.719260	0.001050	20.629136
525.145141	-2.989000	3.762600	-11.246000	23.708341	0.001049	20.636681
526.145606	-2.975700	3.762900	-11.197000	23.726158	0.001049	20.637475
527.144901	-2.984300	3.762700	-11.228000	23.726158	0.001051	20.641743
528.150107	-3.002300	3.762000	-11.293000	23.718167	0.001049	20.636102
529.145343	-2.983000	3.761900	-11.220000	23.711431	0.001050	20.616543
530.152982	-3.011400	3.760200	-11.322000	23.705209	0.001050	20.643974
531.144557	-2.988400	3.760900	-11.238000	23.715792	0.001050	20.648895
532.144085	-2.981500	3.761400	-11.214000	23.704841	0.001048	20.641708
533.144964	-3.009400	3.759000	-11.312000	23.685303	0.001050	20.627808
534.147189	-2.982200	3.759900	-11.212000	23.693196	0.001050	20.627661
535.148310	-2.984400	3.760700	-11.222000	23.710100	0.001049	20.625641
536.148403	-3.007600	3.759500	-11.306000	23.726253	0.001051	20.653219
537.151710	-2.988000	3.759700	-11.233000	23.741793	0.001050	20.663111
538.151705	-3.028700	3.756300	-11.376000	23.747468	0.001049	20.655524
539.149649	-2.994900	3.758600	-11.254000	23.745576	0.001050	20.630865
540.152875	-3.004200	3.757200	-11.286000	23.751724	0.001051	20.648885
541.151288	-2.990100	3.757600	-11.235000	23.752155	0.001050	20.642204
542.151182	-3.005500	3.757600	-11.292000	23.733540	0.001051	20.643929
543.153506	-3.004000	3.756500	-11.284000	23.754699	0.001051	20.623889
544.149975	-3.003200	3.756400	-11.279000	23.731876	0.001049	20.651270
545.152557	-2.992000	3.754500	-11.233000	23.740967	0.001050	20.630510
546.152420	-2.987700	3.756400	-11.222000	23.720484	0.001049	20.641744
547.151498	-3.005200	3.754900	-11.283000	23.699682	0.001051	20.658349
548.151385	-3.011200	3.754700	-11.305000	23.688632	0.001049	20.643950
549.153998	-2.989800	3.755900	-11.228000	23.689701	0.001051	20.649289
550.151244	-3.008700	3.753800	-11.293000	23.729280	0.001050	20.652461
551.151851	-2.978000	3.755100	-11.182000	23.746908	0.001050	20.653540
552.157049	-3.013300	3.754200	-11.311000	23.754647	0.001053	20.657980
553.153064	-3.001600	3.753800	-11.266000	23.768116	0.001051	20.630704
554.152150	-3.005400	3.753300	-11.280000	23.779466	0.001051	20.643982
555.155115	-3.010700	3.751200	-11.292000	23.796350	0.001051	20.640522
556.153056	-3.001100	3.753600	-11.263000	23.803966	0.001050	20.652427
557.153538	-3.001400	3.752600	-11.262000	23.818054	0.001051	20.646164
558.154336	-3.022700	3.751700	-11.338000	23.807055	0.001051	20.650783
559.153854	-2.982800	3.751900	-11.190000	23.791131	0.001051	20.643350
560.154622	-2.992800	3.752500	-11.229000	23.796578	0.001049	20.659719
561.154354	-3.004400	3.750600	-11.266000	23.816912	0.001053	20.649286
562.158188	-3.005100	3.750200	-11.268000	23.804193	0.001050	20.654552
563.154106	-3.000100	3.751300	-11.254000	23.864208	0.001052	20.654510
564.160302	-2.999900	3.748800	-11.245000	23.835411	0.001051	20.632271
565.159305	-3.006600	3.750000	-11.273000	23.843002	0.001050	20.656955
566.160056	-3.006700	3.750500	-11.275000	23.853665	0.001051	20.642040
567.158015	-2.995700	3.749800	-11.232000	23.857514	0.001052	20.631200
568.162860	-2.986700	3.750100	-11.199000	23.821232	0.001050	20.665473
569.162062	-3.012900	3.748200	-11.292000	23.829019	0.001051	20.667117
570.158577	-3.002800	3.748100	-11.253000	23.833022	0.001051	20.652638
571.165870	-3.000100	3.748200	-11.244000	23.858491	0.001051	20.672488
572.159073	-2.999000	3.748100	-11.239000	23.865977	0.001053	20.648696
573.161806	-2.979400	3.747700	-11.164000	23.870110	0.001049	20.648099
574.160453	-2.983600	3.748400	-11.182000	23.898628	0.001050	20.659628
575.163302	-2.978500	3.747400	-11.160000	23.913042	0.001052	20.645156
576.159323	-3.003300	3.746600	-11.251000	23.931612	0.001052	20.666151
577.161205	-2.992800	3.746400	-11.211000	23.921879	0.001050	20.663977
578.160066	-2.991500	3.747100	-11.207000	23.928915	0.001050	20.689053
579.159572	-2.989000	3.745300	-11.192000	23.949156	0.001050	20.654345
580.161074	-2.993400	3.745500	-11.210000	23.928352	0.001052	20.662407
581.161183	-3.019000	3.744100	-11.302000	23.928768	0.001051	20.653814
582.160956	-3.012600	3.744000	-11.278000	23.903585	0.001049	20.665073
583.160984	-3.015200	3.743400	-11.286000	23.910303	0.001051	20.673232
584.161100	-3.009400	3.744100	-11.267000	23.861875	0.001052	20.658335
585.159572	-3.003700	3.743600	-11.244000	23.884793	0.001052	20.658557
586.163057	-2.995500	3.745200	-11.216000	23.877431	0.001051	20.665399
587.163005	-3.007200	3.744200	-11.259000	23.854432	0.001052	20.683591
588.163599	-3.000900	3.742800	-11.231000	23.864320	0.001052	20.656519
589.163129	-3.002500	3.743200	-11.237000	23.841647	0.001052	20.667925
590.163774	-3.001800	3.742800	-11.234000	23.877455	0.001051	20.660682
591.162167	-3.039100	3.740600	-11.367000	23.861034	0.001053	20.664131
592.162120	-2.983300	3.743400	-11.165000	23.904310	0.001051	20.670068
593.167372	-2.990100	3.741700	-11.187000	23.899182	0.001051	20.690058
594.166542	-3.009400	3.741100	-11.257000	23.936040	0.001051	20.674385
595.167511	-3.011200	3.740800	-11.262000	23.966609	0.001052	20.690817
596.168159	-2.984400	3.742000	-11.166000	23.973026	0.001052	20.665006
597.166225	-3.033100	3.739600	-11.341000	23.978895	0.001051	20.661409
598.165359	-3.002900	3.741300	-11.234000	23.983869	0.001053	20.677304
599.172842	-2.998700	3.739900	-11.214000	24.005415	0.001053	20.689903
600.169128	-2.999300	3.741100	-11.220000	24.032414	0.001050	20.679994
601.162366	-2.982800	3.739900	-11.153000	24.017162	0.001051	20.672284
602.168867	-3.012700	3.739400	-11.265000	23.975025	0.001050	20.682660
603.169554	-2.987900	3.739200	-11.171000	23.986944	0.001050	20.667584
604.166458	-2.983700	3.739000	-11.154000	24.005873	0.001051	20.664756
605.170865	-3.006400	3.738000	-11.236000	23.989374	0.001049	20.683299
606.164635	-2.994200	3.738000	-11.191000	23.990988	0.001052	20.672589
607.164879	-2.992500	3.735900	-11.179000	23.973291	0.001051	20.673334
608.167346	-2.996800	3.737200	-11.198000	23.981003	0.001050	20.682965
609.165236	-3.007500	3.736400	-11.236000	23.994568	0.001049	20.688982
610.164567	-3.004300	3.736800	-11.226000	23.981371	0.001051	20.674798
611.168642	-2.982200	3.736500	-11.142000	23.988316	0.001051	20.682238
612.164625	-2.999200	3.735400	-11.202000	23.990746	0.001049	20.691314
613.166582	-3.008900	3.734900	-11.238000	23.984004	0.001050	20.694985
614.164551	-2.985500	3.736500	-11.155000	23.982954	0.001049	20.688241
615.168861	-2.990300	3.735900	-11.171000	23.997439	0.001051	20.684749
616.168292	-3.001900	3.734800	-11.210000	23.971133	0.001046	20.673066
617.165630	-2.978800	3.736100	-11.128000	24.004906	0.001049	20.675641
618.168012	-2.998200	3.733700	-11.194000	23.973122	0.001050	20.683597
619.172381	-3.016700	3.734400	-11.265000	23.951250	0.001049	20.720935
620.168551	-3.006600	3.733500	-11.225000	23.939397	0.001050	20.682968
621.172793	-2.998900	3.734300	-11.198000	23.929744	0.001050	20.708852
622.171163	-2.990400	3.732600	-11.161000	23.951267	0.001048	20.681595
623.170438	-3.011500	3.732800	-11.240000	23.966814	0.001048	20.700032
624.172858	-2.997900	3.733100	-11.191000	23.983290	0.001049	20.708020
625.171617	-2.990700	3.732600	-11.161000	23.969024	0.001048	20.692290
626.171583	-2.996700	3.731100	-11.180000	23.975938	0.001048	20.667927
627.170169	-2.991800	3.732900	-11.167000	23.969718	0.001047	20.692512
628.172572	-3.002100	3.732900	-11.206000	23.974894	0.001049	20.694384
629.171320	-2.991100	3.732300	-11.162000	23.977430	0.001048	20.731068
630.172491	-2.976500	3.732000	-11.106000	23.991548	0.001047	20.689747
631.176371	-2.986300	3.731300	-11.142000	24.031250	0.001049	20.703485
632.175051	-2.976900	3.730500	-11.104000	24.061361	0.001047	20.715666
633.175866	-3.018000	3.729400	-11.254000	24.073272	0.001048	20.713386
634.178723	-2.988200	3.729300	-11.143000	24.072302	0.001047	20.704352
635.176147	-2.992300	3.730200	-11.161000	24.072725	0.001049	20.719477
636.176058	-3.003000	3.728300	-11.195000	24.060016	0.001047	20.710050
637.179566	-2.976000	3.728200	-11.095000	24.057327	0.001047	20.722526
638.176060	-3.016700	3.728400	-11.246000	24.052606	0.001047	20.701195
639.176119	-3.004900	3.727500	-11.200000	24.033263	0.001047	20.705979
640.177748	-2.987800	3.728800	-11.140000	24.084699	0.001046	20.695448
641.175343	-2.994800	3.727900	-11.163000	24.090397	0.001045	20.694050
642.177372	-3.012500	3.726600	-11.226000	24.099901	0.001046	20.727292
643.176470	-3.026600	3.726800	-11.279000	24.128813	0.001046	20.717882
644.180596	-3.007200	3.726800	-11.206000	24.144365	0.001045	20.696021
645.177677	-2.970300	3.727200	-11.070000	24.107522	0.001045	20.700794
646.177196	-2.997600	3.725800	-11.167000	24.110757	0.001045	20.700246
647.176985	-2.985500	3.726700	-11.125000	24.116185	0.001045	20.708062
648.177022	-2.977300	3.726000	-11.092000	24.079204	0.001046	20.711750
649.175849	-3.000700	3.725600	-11.179000	24.080605	0.001045	20.716474
650.178319	-3.005300	3.724200	-11.191000	24.100959	0.001045	20.720292
651.177451	-3.011000	3.723400	-11.210000	24.094788	0.001045	20.726906
652.178584	-2.998200	3.724200	-11.165000	24.102580	0.001044	20.721919
653.179622	-3.004200	3.724700	-11.189000	24.124026	0.001045	20.711184
654.180453	-2.994700	3.723500	-11.149000	24.107438	0.001044	20.724420
655.178647	-3.030600	3.721200	-11.275000	24.143294	0.001042	20.725294
656.182342	-3.002200	3.723500	-11.177000	24.163916	0.001042	20.722744
657.179871	-2.987700	3.724000	-11.126000	24.184128	0.001046	20.704135
658.181137	-2.986400	3.722200	-11.115000	24.196346	0.001045	20.722080
659.183589	-2.975800	3.723400	-11.079000	24.185995	0.001043	20.721181
660.187994	-3.001200	3.720900	-11.166000	24.193761	0.001042	20.725178
661.184323	-2.985100	3.722600	-11.111000	24.187290	0.001044	20.740026
662.185246	-2.993500	3.721700	-11.140000	24.159430	0.001043	20.714926
663.189572	-2.988400	3.721000	-11.119000	24.155102	0.001043	20.730500
664.187303	-2.991900	3.720300	-11.130000	24.146992	0.001042	20.729478
665.183959	-3.000800	3.720700	-11.164000	24.163065	0.001043	20.733745
666.187022	-2.992200	3.718800	-11.126000	24.174908	0.001042	20.720493
667.187165	-2.984900	3.719800	-11.101000	24.196392	0.001043	20.737300
668.184880	-3.015600	3.720100	-11.217000	24.201315	0.001042	20.724220
669.185534	-3.015200	3.717600	-11.208000	24.198282	0.001045	20.727817
670.186574	-3.000600	3.720100	-11.162000	24.208633	0.001043	20.744838
671.188298	-3.009600	3.719200	-11.193000	24.203825	0.001042	20.741912
672.185851	-3.005600	3.719000	-11.176000	24.220028	0.001042	20.698417
673.186718	-3.002300	3.717800	-11.160000	24.233621	0.001040	20.743349
674.186478	-3.017600	3.717700	-11.217000	24.209488	0.001042	20.724831
675.187051	-3.000000	3.718200	-11.154000	24.220907	0.001041	20.732018
676.190991	-3.007700	3.716500	-11.176000	24.210262	0.001045	20.711382
677.189414	-2.996600	3.716300	-11.135000	24.180750	0.001042	20.723507
678.186573	-2.996600	3.716300	-11.133000	24.178337	0.001041	20.759969
679.187482	-3.008100	3.715200	-11.175000	24.176022	0.001042	20.730146
680.191089	-2.984600	3.716900	-11.091000	24.153411	0.001043	20.754410
681.188599	-3.011300	3.715500	-11.187000	24.176225	0.001040	20.739833
682.187273	-2.994100	3.715900	-11.123000	24.174692	0.001040	20.733079
683.190529	-3.013400	3.714900	-11.193000	24.170339	0.001040	20.732981
684.189020	-2.984300	3.715000	-11.085000	24.187529	0.001040	20.737894
685.188500	-2.982900	3.715400	-11.082000	24.174089	0.001040	20.744329
686.190519	-3.007200	3.715700	-11.173000	24.186339	0.001037	20.730536
687.189275	-2.993800	3.715100	-11.120000	24.249171	0.001041	20.747567
688.188768	-3.003400	3.714100	-11.154000	24.254060	0.001042	20.765748
689.189280	-3.006900	3.712600	-11.161000	24.243146	0.001039	20.759541
690.188337	-3.018100	3.712600	-11.203000	24.238110	0.001040	20.737894
691.192727	-3.001400	3.713000	-11.142000	24.253464	0.001040	20.747132
692.191034	-2.980300	3.713200	-11.065000	24.281410	0.001038	20.750033
693.193198	-2.994900	3.711400	-11.115000	24.303552	0.001039	20.748063
694.193278	-3.001600	3.712900	-11.144000	24.317586	0.001040	20.732268
695.190608	-2.974700	3.713600	-11.046000	24.310096	0.001038	20.745144
696.195190	-2.992000	3.711300	-11.102000	24.263276	0.001039	20.750336
697.195963	-2.991300	3.711200	-11.100000	24.259330	0.001039	20.756335
698.191453	-3.008200	3.710100	-11.159000	24.227984	0.001040	20.747652
699.195329	-2.998700	3.710000	-11.123000	24.247674	0.001037	20.766929
700.194245	-2.986700	3.710800	-11.082000	24.269631	0.001038	20.738692
701.192741	-3.013100	3.710500	-11.179000	24.259988	0.001039	20.770272
702.196110	-2.998400	3.708500	-11.118000	24.266361	0.001038	20.742525
703.193760	-2.979700	3.710700	-11.055000	24.277233	0.001038	20.743947
704.196679	-3.001100	3.710200	-11.134000	24.271414	0.001037	20.766560
705.194721	-3.035000	3.706900	-11.249000	24.274803	0.001037	20.750045
706.198773	-3.026300	3.709000	-11.224000	24.260801	0.001037	20.755914
707.197385	-2.996900	3.707900	-11.111000	24.271624	0.001038	20.764400
708.199594	-2.971600	3.709200	-11.021000	24.258900	0.001037	20.757801
709.196713	-2.972700	3.709200	-11.025000	24.277703	0.001037	20.760540
710.197718	-2.995600	3.707400	-11.106000	24.292363	0.001033	20.767660
711.196961	-3.009600	3.707200	-11.156000	24.293733	0.001037	20.752437
712.196249	-2.998100	3.708100	-11.117000	24.276047	0.001036	20.755560
713.196247	-2.997500	3.706600	-11.110000	24.312223	0.001036	20.746804
714.198148	-2.991000	3.706500	-11.084000	24.321775	0.001033	20.753066
715.197253	-2.993500	3.706700	-11.095000	24.348104	0.001035	20.760513
716.197424	-2.992900	3.706300	-11.092000	24.351959	0.001035	20.745413
717.196847	-2.996000	3.706900	-11.104000	24.344201	0.001032	20.771296
718.197602	-3.005000	3.705900	-11.136000	24.365820	0.001033	20.774018
719.201913	-2.990300	3.706700	-11.083000	24.348339	0.001033	20.765016
720.201190	-2.999800	3.705400	-11.115000	24.337272	0.001034	20.764819
721.198665	-3.028100	3.702800	-11.211000	24.356049	0.001032	20.773698
722.201437	-3.005000	3.703200	-11.126000	24.358713	0.001032	20.759776
723.200521	-2.999200	3.704500	-11.110000	24.377798	0.001031	20.782241
724.200095	-2.989400	3.704700	-11.073000	24.412879	0.001034	20.766225
725.200759	-2.985400	3.704600	-11.058000	24.385931	0.001032	20.780916
726.200732	-2.997200	3.704700	-11.102000	24.400370	0.001032	20.789711
727.201173	-3.000300	3.702600	-11.108000	24.396508	0.001031	20.764500
728.204256	-3.001000	3.701600	-11.106000	24.379581	0.001032	20.769804
729.200918	-3.019300	3.701500	-11.175000	24.393606	0.001035	20.759218
730.200283	-2.986800	3.701800	-11.055000	24.428255	0.001032	20.764107
731.204564	-3.010300	3.701900	-11.142000	24.450304	0.001032	20.784331
732.201904	-2.994100	3.702500	-11.084000	24.425899	0.001032	20.774071
733.200310	-3.011000	3.700900	-11.143000	24.402446	0.001029	20.782311
734.205637	-3.018600	3.699800	-11.166000	24.407400	0.001030	20.790126
735.202896	-3.004600	3.699400	-11.114000	24.411108	0.001029	20.772509
736.201645	-3.004500	3.701500	-11.120000	24.424016	0.001030	20.774079
737.207314	-2.991900	3.700400	-11.069000	24.466177	0.001029	20.788402
738.203848	-2.995500	3.700900	-11.085000	24.450833	0.001029	20.788181
739.203810	-3.007000	3.699400	-11.123000	24.465165	0.001028	20.779326
740.205858	-3.003000	3.699600	-11.109000	24.481381	0.001030	20.790854
741.205386	-2.996000	3.699900	-11.083000	24.505963	0.001028	20.798447
742.203887	-2.997600	3.699400	-11.089000	24.475962	0.001030	20.769769
743.207881	-2.999100	3.699000	-11.093000	24.506975	0.001032	20.761529
744.204152	-3.009100	3.698800	-11.128000	24.521909	0.001027	20.792160
745.204190	-2.987500	3.698900	-11.049000	24.501955	0.001028	20.797745
746.207359	-2.997800	3.697200	-11.082000	24.490049	0.001029	20.801921
747.203783	-2.988700	3.697600	-11.050000	24.470330	0.001027	20.797784
748.205770	-3.020700	3.697100	-11.166000	24.488257	0.001029	20.778786
749.203848	-3.001900	3.697300	-11.098000	24.486146	0.001027	20.788048
750.203998	-3.019000	3.695900	-11.157000	24.502474	0.001028	20.793524
751.202974	-2.991400	3.696800	-11.057000	24.496999	0.001027	20.788031
752.203814	-3.001800	3.696700	-11.096000	24.520733	0.001027	20.781498
753.205633	-3.004500	3.694400	-11.099000	24.500787	0.001027	20.792779
754.205588	-2.983300	3.696000	-11.025000	24.494097	0.001027	20.804559
755.201946	-3.020000	3.695300	-11.159000	24.498651	0.001027	20.804387
756.206686	-3.009800	3.692800	-11.113000	24.471436	0.001026	20.796523
757.206099	-3.017900	3.694700	-11.149000	24.479821	0.001024	20.797349
758.204676	-3.003700	3.695600	-11.100000	24.487341	0.001024	20.791143
759.205288	-3.015400	3.694500	-11.140000	24.487341	0.001025	20.795410
760.204801	-3.004000	3.694400	-11.097000	24.500353	0.001025	20.819371
761.205973	-2.996800	3.693800	-11.067000	24.507743	0.001026	20.802604
762.206550	-3.000500	3.693300	-11.080000	24.520755	0.001027	20.774881
763.207335	-2.996600	3.693300	-11.065000	24.520055	0.001024	20.796464
764.208378	-3.002400	3.694600	-11.091000	24.539732	0.001024	20.799611
765.209099	-3.004800	3.691100	-11.090000	24.495186	0.001023	20.817980
766.206046	-3.004000	3.691800	-11.089000	24.497427	0.001024	20.823547
767.207311	-2.989900	3.692200	-11.038000	24.488122	0.001024	20.829384
768.207141	-2.996100	3.692000	-11.060000	24.506259	0.001027	20.809650
769.207454	-3.017000	3.691200	-11.135000	24.483802	0.001025	20.808456
770.209308	-2.985400	3.692700	-11.023000	24.474823	0.001024	20.818413
771.207447	-3.002400	3.690900	-11.080000	24.484821	0.001023	20.808529
772.216300	-2.997100	3.691600	-11.063000	24.462356	0.001023	20.821078
773.209462	-2.995600	3.692100	-11.059000	24.462087	0.001024	20.813696
774.208002	-2.977800	3.692300	-10.993000	24.437063	0.001022	20.797599
775.210299	-2.990200	3.691800	-11.038000	24.465917	0.001021	20.820383
776.207532	-3.016300	3.688800	-11.125000	24.482987	0.001022	20.816646
777.208251	-3.002500	3.688400	-11.072000	24.472509	0.001024	20.811824
778.211366	-3.013400	3.688600	-11.114000	24.453709	0.001020	20.811929
779.213001	-2.997100	3.689300	-11.056000	24.432091	0.001021	20.815845
780.208647	-3.016100	3.689200	-11.126000	24.440329	0.001021	20.808937
781.208055	-2.992900	3.690300	-11.043000	24.464913	0.001021	20.792349
782.213442	-3.007200	3.688900	-11.092000	24.489113	0.001021	20.809517
783.212214	-3.010500	3.689100	-11.105000	24.475107	0.001020	20.804473
784.209515	-3.017000	3.687600	-11.125000	24.457473	0.001023	20.822817
785.213176	-3.000900	3.689000	-11.068000	24.463365	0.001021	20.809762
786.212072	-2.990000	3.687300	-11.024000	24.493286	0.001020	20.798530
787.210306	-2.988100	3.687900	-11.018000	24.486971	0.001019	20.801677
788.211100	-2.995200	3.687000	-11.043000	24.514927	0.001019	20.798906
789.215179	-2.990300	3.687400	-11.026000	24.543314	0.001018	20.799886
790.214123	-3.013900	3.686500	-11.109000	24.566169	0.001019	20.816654
791.212898	-2.998600	3.686400	-11.053000	24.564279	0.001018	20.807645
792.218338	-2.989700	3.686700	-11.020000	24.563610	0.001018	20.797491
793.216517	-2.977700	3.685600	-10.974000	24.577689	0.001018	20.779375
794.213775	-2.995300	3.685400	-11.036000	24.586171	0.001017	20.777928
795.215869	-3.004700	3.685800	-11.073000	24.552447	0.001017	20.800989
796.214179	-2.994700	3.684500	-11.032000	24.554484	0.001018	20.800188
797.216426	-2.993200	3.683900	-11.026000	24.531556	0.001017	20.781925
798.219306	-2.992200	3.683900	-11.021000	24.505588	0.001019	20.785269
799.214166	-2.987800	3.684700	-11.008000	24.506614	0.001016	20.770176
800.216655	-3.009200	3.683400	-11.083000	24.497236	0.001016	20.792061
801.216570	-2.976100	3.685000	-10.966000	24.502476	0.001017	20.794000
802.220141	-3.012200	3.682100	-11.090000	24.471659	0.001016	20.763081
803.216517	-2.988300	3.682900	-11.005000	24.476588	0.001016	20.796002
804.217782	-2.982000	3.682900	-10.981000	24.494596	0.001014	20.796525
805.218374	-3.014300	3.680100	-11.092000	24.524141	0.001016	20.774960
806.218020	-2.995000	3.681600	-11.025000	24.507079	0.001015	20.786291
807.218465	-2.984300	3.683500	-10.991000	24.518607	0.001015	20.761347
808.220119	-3.001100	3.681700	-11.048000	24.505343	0.001012	20.770798
809.220956	-3.001400	3.681000	-11.047000	24.496966	0.001014	20.768083
810.219203	-3.012300	3.679300	-11.082000	24.513409	0.001013	20.780313
811.220181	-2.994400	3.680300	-11.019000	24.502970	0.001013	20.780746
812.220141	-3.021000	3.680400	-11.118000	24.520718	0.001011	20.765361
813.221090	-2.993000	3.680200	-11.013000	24.554426	0.001013	20.775947
814.219153	-3.028300	3.679800	-11.142000	24.577329	0.001013	20.768108
815.231114	-3.015200	3.678300	-11.089000	24.582503	0.001010	20.782782
816.222607	-3.024700	3.678500	-11.126000	24.602553	0.001011	20.779193
817.221122	-3.013500	3.678000	-11.081000	24.605567	0.001011	20.779846
818.220519	-2.990800	3.679800	-11.003000	24.643508	0.001013	20.789467
819.220692	-2.986800	3.679700	-10.989000	24.613902	0.001010	20.759285
820.226050	-3.008100	3.678100	-11.062000	24.615621	0.001010	20.755320
821.221526	-2.991100	3.678600	-11.001000	24.626783	0.001011	20.740915
822.226106	-2.998900	3.677800	-11.029000	24.619727	0.001008	20.771294
823.223534	-3.005100	3.677700	-11.051000	24.598543	0.001009	20.743399
824.221951	-2.986200	3.678300	-10.983000	24.590135	0.001009	20.753455
825.224367	-2.983900	3.677700	-10.973000	24.531201	0.001006	20.758809
826.223379	-2.998400	3.676700	-11.023000	24.585620	0.001008	20.773581
827.224053	-3.004500	3.675500	-11.042000	24.560647	0.001008	20.740937
828.227513	-3.022800	3.674500	-11.107000	24.581562	0.001008	20.756708
829.224195	-2.998700	3.677200	-11.026000	24.601043	0.001009	20.738795
830.224289	-2.984400	3.674900	-10.967000	24.608302	0.001009	20.753666
831.227791	-2.997100	3.674400	-11.012000	24.598484	0.001008	20.765626
832.226284	-3.020400	3.672700	-11.092000	24.583183	0.001006	20.766395
833.228277	-2.997900	3.674900	-11.016000	24.604309	0.001006	20.758194
834.227710	-2.986500	3.675800	-10.977000	24.590499	0.001007	20.747183
835.231352	-3.004300	3.674600	-11.039000	24.556734	0.001007	20.743176
836.232404	-2.975400	3.674200	-10.931000	24.519979	0.001007	20.743755
837.233017	-2.988800	3.673900	-10.978000	24.503879	0.001005	20.745146
838.232425	-2.994000	3.673100	-10.996000	24.488584	0.001003	20.746871
839.231226	-3.005200	3.672900	-11.036000	24.500098	0.001006	20.750362
840.230985	-2.995300	3.673000	-11.000000	24.513786	0.001004	20.750345
841.231506	-2.992400	3.673600	-10.992000	24.508465	0.001003	20.755438
842.229687	-2.991600	3.671900	-10.984000	24.526056	0.001003	20.751276
843.230897	-3.010000	3.671100	-11.049000	24.539785	0.001006	20.752723
844.229814	-3.004000	3.672400	-11.030000	24.517598	0.001004	20.746583
845.231409	-3.004200	3.671200	-11.028000	24.561489	0.001003	20.738937
846.234190	-3.025500	3.669900	-11.102000	24.586332	0.001004	20.756752
847.234046	-3.013900	3.671300	-11.063000	24.570745	0.001003	20.748224
848.234059	-3.017700	3.669600	-11.073000	24.607051	0.001002	20.748618
849.233798	-2.995900	3.671000	-10.997000	24.625390	0.001002	20.740940
850.235255	-3.018600	3.670200	-11.078000	24.666573	0.001001	20.725366
851.233975	-2.989400	3.669700	-10.969000	24.684186	0.001002	20.736876
852.235781	-2.993700	3.670500	-10.988000	24.697116	0.001001	20.764550
853.232580	-3.011900	3.668600	-11.049000	24.697172	0.001002	20.748485
854.232881	-2.993700	3.668700	-10.982000	24.689962	0.001001	20.738879
855.232635	-2.992500	3.668500	-10.977000	24.705327	0.000999	20.731063
856.233844	-3.003200	3.669200	-11.018000	24.708813	0.001001	20.741674
857.236875	-3.015300	3.666800	-11.056000	24.722295	0.000998	20.734341
858.234007	-2.989300	3.668100	-10.964000	24.724707	0.001000	20.744348
859.234383	-3.004100	3.667600	-11.017000	24.731403	0.000998	20.743954
860.235539	-2.996100	3.668000	-10.988000	24.727207	0.000999	20.727889
861.235361	-2.994100	3.668800	-10.983000	24.715362	0.000998	20.747298
862.236852	-3.003900	3.666400	-11.011000	24.749357	0.000998	20.718823
863.237170	-3.005600	3.666600	-11.020000	24.758587	0.000999	20.718128
864.236241	-3.016800	3.666300	-11.060000	24.768925	0.000997	20.728977
865.236285	-2.989500	3.666500	-10.960000	24.750537	0.000998	20.723801
866.237557	-2.996500	3.666900	-10.987000	24.742130	0.000996	20.722951
867.239085	-2.987800	3.665700	-10.951000	24.691695	0.000997	20.742041
868.237986	-2.991800	3.664800	-10.963000	24.673568	0.000996	20.702511
869.236920	-2.984600	3.665200	-10.938000	24.644678	0.000995	20.722835
870.237494	-2.978000	3.664700	-10.913000	24.622168	0.000996	20.716368
871.240327	-2.991200	3.665600	-10.963000	24.627586	0.000995	20.726547
872.240219	-3.013000	3.664500	-11.040000	24.619014	0.000996	20.727430
873.238222	-3.016500	3.663000	-11.047000	24.644132	0.000995	20.712329
874.242224	-3.006400	3.662100	-11.009000	24.629141	0.000995	20.720521
875.237910	-3.005000	3.663300	-11.008000	24.642022	0.000997	20.737240
876.238367	-3.025000	3.662500	-11.077000	24.665330	0.000994	20.730282
877.240221	-3.038800	3.662300	-11.127000	24.667497	0.000994	20.729137
878.240369	-3.002300	3.662100	-10.993000	24.679537	0.000994	20.714192
879.239748	-3.003000	3.661400	-10.995000	24.702610	0.000992	20.716956
880.238472	-2.989100	3.662700	-10.947000	24.679758	0.000994	20.719629
881.238239	-2.979600	3.662300	-10.912000	24.653605	0.000992	20.713774
882.239267	-3.000700	3.660800	-10.984000	24.666664	0.000991	20.722138
883.242456	-2.995700	3.661400	-10.968000	24.645800	0.000991	20.714003
884.241689	-2.990900	3.660000	-10.945000	24.689450	0.000993	20.728408
885.251967	-2.988300	3.660900	-10.938000	24.684701	0.000989	20.715580
886.242139	-2.982600	3.659800	-10.915000	24.688407	0.000990	20.730680
887.244136	-2.989000	3.660500	-10.941000	24.708302	0.000991	20.713659
888.241906	-2.991600	3.660100	-10.949000	24.662598	0.000991	20.717582
889.241189	-3.006600	3.659100	-11.001000	24.685702	0.000988	20.709946
890.248558	-2.984400	3.659100	-10.918000	24.696937	0.000988	20.723118
891.244084	-2.983100	3.659200	-10.914000	24.689776	0.000989	20.704077
892.241965	-3.001800	3.658900	-10.982000	24.683291	0.000989	20.710846
893.248041	-3.003700	3.659100	-10.990000	24.682573	0.000989	20.720558
894.244364	-3.007100	3.657700	-10.998000	24.700382	0.000989	20.689588
895.243621	-3.009300	3.657800	-11.006000	24.707470	0.000989	20.702865
896.244045	-3.010900	3.658200	-11.014000	24.760592	0.000989	20.703069
897.245012	-3.011500	3.656900	-11.012000	24.784020	0.000988	20.713305
898.243202	-2.990100	3.658000	-10.936000	24.779817	0.000990	20.711932
899.244731	-3.000700	3.656900	-10.972000	24.782750	0.000988	20.701598
900.244268	-3.002400	3.656000	-10.976000	24.760624	0.000989	20.724440
901.243839	-2.994800	3.657900	-10.953000	24.773699	0.000986	20.711956
902.245867	-3.005100	3.656500	-10.986000	24.777454	0.000986	20.710035
903.244557	-3.000900	3.655700	-10.969000	24.754905	0.000987	20.713484
904.251865	-2.980900	3.655200	-10.895000	24.755182	0.000984	20.707124
905.249758	-3.020400	3.654400	-11.037000	24.763882	0.000985	20.717278
906.247958	-3.006400	3.654300	-10.985000	24.769724	0.000986	20.714605
907.249047	-3.016800	3.653300	-11.020000	24.761300	0.000986	20.716583
908.246372	-3.001000	3.654800	-10.967000	24.799700	0.000984	20.698220
909.247421	-3.006100	3.655500	-10.988000	24.815511	0.000984	20.694173
910.245523	-3.019600	3.653900	-11.032000	24.801435	0.000983	20.707549
911.248140	-3.010900	3.654600	-11.003000	24.789208	0.000984	20.702863
912.247756	-2.990800	3.653400	-10.925000	24.810640	0.000983	20.696397
913.245347	-3.010800	3.653300	-10.998000	24.793386	0.000983	20.719860
914.247886	-3.007200	3.651600	-10.981000	24.818077	0.000983	20.707180
915.246927	-2.988700	3.652900	-10.916000	24.836681	0.000980	20.719688
916.250470	-3.004300	3.652400	-10.972000	24.833546	0.000980	20.721283
917.247728	-3.003900	3.651500	-10.966000	24.803700	0.000979	20.703183
918.246763	-3.026100	3.651500	-11.048000	24.802388	0.000983	20.700917
919.248761	-2.964000	3.651400	-10.822000	24.827061	0.000979	20.700075
920.248903	-2.992300	3.652000	-10.927000	24.820968	0.000980	20.697279
921.244654	-2.994200	3.652300	-10.934000	24.835443	0.000981	20.705642
922.249460	-2.983800	3.649900	-10.890000	24.855114	0.000981	20.711635
923.249099	-2.994600	3.649700	-10.928000	24.859138	0.000979	20.696232
924.249281	-3.012400	3.649600	-10.993000	24.825896	0.000981	20.701750
925.251036	-2.995900	3.649400	-10.931000	24.825350	0.000979	20.702151
926.251667	-2.997900	3.650200	-10.943000	24.820723	0.000977	20.689920
927.250465	-2.981800	3.649500	-10.881000	24.826172	0.000976	20.702028
928.253111	-3.001800	3.649400	-10.952000	24.852622	0.000977	20.686846
929.250030	-2.990700	3.649400	-10.913000	24.856108	0.000979	20.698881
930.259627	-2.995000	3.649100	-10.928000	24.835989	0.000977	20.692913
931.252530	-2.996300	3.647600	-10.928000	24.847604	0.000975	20.688923
932.249130	-2.995000	3.648300	-10.926000	24.821017	0.000976	20.698276
933.250091	-3.009000	3.647400	-10.973000	24.798388	0.000974	20.704964
934.250689	-3.026900	3.646700	-11.037000	24.796131	0.000976	20.679937
935.247672	-3.001500	3.646400	-10.943000	24.803739	0.000975	20.695161
936.250651	-3.011100	3.646100	-10.978000	24.827786	0.000975	20.681360
937.249001	-3.014100	3.647100	-10.991000	24.862722	0.000973	20.676119
938.250217	-3.003400	3.645400	-10.947000	24.838432	0.000973	20.698210
939.250184	-2.995700	3.645300	-10.919000	24.845340	0.000974	20.701824
940.252482	-3.010700	3.645800	-10.975000	24.855317	0.000971	20.690974
941.253026	-2.995600	3.646200	-10.922000	24.833186	0.000972	20.696264
942.250067	-3.007500	3.645000	-10.961000	24.841470	0.000969	20.700311
943.254851	-3.016300	3.644500	-10.991000	24.813759	0.000972	20.688146
944.251170	-2.998200	3.644700	-10.927000	24.814687	0.000973	20.696190
945.248746	-3.013900	3.643700	-10.981000	24.823663	0.000971	20.684810
946.252802	-3.024300	3.644100	-11.020000	24.839923	0.000971	20.694016
947.252139	-2.999100	3.644600	-10.929000	24.858478	0.000971	20.690353
948.254838	-3.014100	3.643000	-10.979000	24.860945	0.000969	20.691407
949.253924	-2.992500	3.643400	-10.901000	24.862233	0.000970	20.688431
950.252226	-2.986900	3.642500	-10.878000	24.886988	0.000971	20.714227
951.252394	-2.992500	3.643400	-10.902000	24.879517	0.000968	20.690131
952.253508	-3.003600	3.643200	-10.941000	24.863209	0.000968	20.674711
953.254852	-3.023600	3.642800	-11.014000	24.868553	0.000967	20.691456
954.254552	-3.000100	3.641000	-10.923000	24.873963	0.000965	20.675072
955.254982	-2.989000	3.643200	-10.889000	24.859635	0.000967	20.672072
956.255509	-3.008800	3.641900	-10.957000	24.886645	0.000966	20.702502
957.258327	-3.013400	3.639800	-10.966000	24.890571	0.000965	20.673724
958.255337	-2.988100	3.641600	-10.880000	24.881815	0.000966	20.695284
959.256886	-3.000500	3.640800	-10.923000	24.870582	0.000965	20.670257
960.257673	-3.005700	3.639100	-10.937000	24.850936	0.000965	20.694163
961.259830	-2.987800	3.641700	-10.879000	24.830197	0.000966	20.685677
962.259934	-2.989700	3.640700	-10.883000	24.808089	0.000965	20.688146
963.261131	-3.003200	3.640300	-10.931000	24.742692	0.000965	20.678466
964.264225	-2.996000	3.639200	-10.902000	24.773232	0.000968	20.700581
965.263023	-2.984800	3.639500	-10.862000	24.766911	0.000965	20.663414
966.260941	-3.003000	3.640100	-10.930000	24.799064	0.000964	20.656325
967.264485	-2.999400	3.639700	-10.916000	24.796001	0.000965	20.664633
968.261419	-3.003000	3.638100	-10.923000	24.786796	0.000963	20.677682
969.261591	-3.013400	3.638900	-10.964000	24.791301	0.000961	20.677935
970.264714	-3.001500	3.637700	-10.917000	24.782023	0.000962	20.657716
971.261680	-2.978500	3.638900	-10.837000	24.779132	0.000964	20.656711
972.262117	-2.997700	3.637600	-10.903000	24.797467	0.000964	20.673692
973.265906	-2.983500	3.637400	-10.852000	24.829563	0.000963	20.686937
974.262795	-2.993800	3.636800	-10.887000	24.872670	0.000962	20.676146
975.263969	-3.038700	3.635300	-11.044000	24.901096	0.000961	20.682866
976.271553	-2.999600	3.636900	-10.907000	24.913901	0.000961	20.682441
977.263602	-3.006600	3.635000	-10.927000	24.910765	0.000961	20.669809
978.263898	-3.020100	3.635000	-10.977000	24.880481	0.000961	20.673554
979.266623	-2.989000	3.636100	-10.868000	24.835372	0.000959	20.674748
980.268222	-3.005100	3.635900	-10.925000	24.854343	0.000962	20.659647
981.264993	-3.017500	3.633600	-10.962000	24.833083	0.000958	20.674822
982.266610	-3.022700	3.634700	-10.985000	24.807293	0.000959	20.674070
983.266001	-2.984000	3.634400	-10.844000	24.811276	0.000960	20.652934
984.263970	-3.024800	3.632500	-10.986000	24.853195	0.000959	20.649959
985.267201	-2.985300	3.634800	-10.850000	24.830591	0.000956	20.650981
986.265007	-3.001900	3.633900	-10.907000	24.876564	0.000958	20.677684
987.270004	-2.980100	3.633500	-10.827000	24.870080	0.000958	20.664062
988.267367	-2.990400	3.634800	-10.867000	24.899339	0.000957	20.672566
989.268318	-2.992100	3.632400	-10.868000	24.911989	0.000954	20.667718
990.269881	-2.995400	3.632300	-10.879000	24.937107	0.000956	20.658789
991.270899	-3.022300	3.631700	-10.975000	24.919344	0.000955	20.654711
992.269393	-2.986500	3.632400	-10.846000	24.928555	0.000953	20.668699
993.270228	-2.984900	3.631700	-10.839000	24.889239	0.000954	20.658160
994.274230	-2.990000	3.630800	-10.855000	24.868721	0.000955	20.660327
995.269214	-2.998600	3.632600	-10.893000	24.867157	0.000953	20.684364
996.270113	-2.982800	3.630600	-10.828000	24.874684	0.000953	20.668210
997.270903	-2.986900	3.631700	-10.845000	24.879832	0.000955	20.675748
998.273715	-3.000900	3.631000	-10.895000	24.889697	0.000955	20.664784
999.269205	-3.000300	3.629800	-10.890000	24.931945	0.000952	20.667834
1000.272593	-2.970200	3.630600	-10.782000	24.932239	0.000950	20.665757
1001.271816	-2.989300	3.629700	-10.850000	24.946631	0.000951	20.659814
1002.272289	-3.005600	3.628400	-10.904000	24.950386	0.000950	20.668325
1003.275066	-2.991200	3.629900	-10.857000	24.925569	0.000951	20.665227
1004.271203	-2.995600	3.627800	-10.866000	24.904954	0.000950	20.677254
1005.279377	-2.998800	3.628800	-10.880000	24.922206	0.000951	20.668490
1006.273740	-3.001600	3.627600	-10.888000	24.957261	0.000949	20.656733
1007.272733	-3.004100	3.627400	-10.897000	24.973648	0.000948	20.655163
1008.273012	-3.004200	3.627600	-10.896000	24.954143	0.000949	20.680632
1009.276237	-3.003200	3.628500	-10.895000	24.961001	0.000948	20.656693
1010.273109	-2.999700	3.626200	-10.876000	24.963713	0.000948	20.650406
1011.275784	-2.992400	3.626300	-10.850000	24.979001	0.000947	20.681875
1012.276943	-3.015200	3.625900	-10.932000	24.997571	0.000947	20.662580
1013.276206	-3.014500	3.625400	-10.928000	25.012313	0.000947	20.663153
1014.275439	-2.987700	3.626200	-10.833000	24.988840	0.000947	20.669465
1015.276068	-2.985400	3.625200	-10.821000	24.999632	0.000947	20.662278
1016.275574	-2.997000	3.625300	-10.863000	24.976982	0.000945	20.643334
1017.276255	-3.003300	3.625400	-10.886000	24.962607	0.000946	20.685809
1018.279018	-3.009600	3.622900	-10.902000	24.972821	0.000945	20.652909
1019.277627	-2.986800	3.623900	-10.823000	24.938084	0.000946	20.656450
1020.279203	-2.982400	3.623000	-10.804000	24.929255	0.000943	20.676040
1021.282008	-3.022000	3.623200	-10.947000	24.904983	0.000943	20.675386
1022.278824	-3.009600	3.623700	-10.905000	24.894264	0.000943	20.661782
1023.277930	-2.987200	3.624100	-10.824000	24.866016	0.000943	20.672787
1024.282568	-2.993700	3.623300	-10.846000	24.919995	0.000943	20.641612
1025.278121	-2.985700	3.622200	-10.812000	24.923970	0.000941	20.663148
1026.278971	-2.996900	3.622500	-10.855000	24.952493	0.000942	20.669018
1027.280653	-2.980100	3.623500	-10.797000	24.969492	0.000943	20.669484
1028.279716	-2.986200	3.621700	-10.814000	24.988608	0.000941	20.679190
1029.277509	-2.977200	3.621500	-10.780000	24.988534	0.000941	20.661570
1030.279901	-2.994300	3.622100	-10.845000	24.994073	0.000939	20.658595
1031.281246	-3.000200	3.619800	-10.858000	25.010281	0.000941	20.659217
1032.278156	-2.990000	3.621200	-10.826000	25.021968	0.000939	20.667629
1033.277694	-3.010400	3.620000	-10.896000	25.023011	0.000939	20.690015
1034.281984	-2.990900	3.618900	-10.821000	25.009353	0.000940	20.688160
1035.278570	-2.984200	3.621100	-10.805000	24.998415	0.000939	20.680499
1036.281905	-2.986500	3.618900	-10.807000	25.011789	0.000938	20.663575
1037.282778	-3.017900	3.618300	-10.917000	25.002040	0.000936	20.666593
1038.280670	-2.979900	3.620300	-10.787000	25.012831	0.000937	20.668416
1039.280725	-2.982400	3.620000	-10.795000	25.033461	0.000936	20.684384
1040.286884	-2.977800	3.619300	-10.776000	25.032313	0.000937	20.654779
1041.281376	-3.017600	3.617300	-10.914000	25.082897	0.000936	20.661460
1042.280400	-2.986400	3.618300	-10.804000	25.101227	0.000934	20.656627
1043.284964	-2.986900	3.618700	-10.807000	25.066690	0.000935	20.674116
1044.281634	-2.998800	3.616700	-10.844000	25.066316	0.000936	20.692708
1045.282815	-3.000800	3.617300	-10.853000	25.027876	0.000934	20.669767
1046.288463	-2.991900	3.616200	-10.818000	25.011889	0.000934	20.680273
1047.284607	-3.000500	3.615400	-10.847000	24.992497	0.000934	20.650374
1048.285594	-2.983700	3.617200	-10.792000	24.989362	0.000934	20.679472
1049.286333	-3.005000	3.616400	-10.867000	25.008950	0.000933	20.665941
1050.287137	-2.976500	3.614500	-10.757000	25.054150	0.000933	20.690927
1051.286815	-3.019100	3.613900	-10.909000	25.085122	0.000930	20.674126
1052.290023	-3.016900	3.613200	-10.900000	25.102679	0.000930	20.678475
1053.287101	-2.993100	3.614200	-10.817000	25.110474	0.000931	20.665910
1054.289622	-3.002800	3.613400	-10.849000	25.122600	0.000930	20.661013
1055.294684	-2.997700	3.614700	-10.835000	25.119367	0.000931	20.683848
1056.289920	-2.968300	3.612800	-10.723000	25.102615	0.000928	20.683153
1057.288656	-2.981100	3.613500	-10.771000	25.118258	0.000929	20.675148
1058.293804	-3.010300	3.612100	-10.872000	25.099554	0.000930	20.677234
1059.291484	-3.005500	3.613400	-10.859000	25.103861	0.000931	20.684878
1060.289698	-2.997500	3.611900	-10.824000	25.115050	0.000930	20.688998
1061.290245	-3.009500	3.611800	-10.868000	25.127144	0.000928	20.666524
1062.294070	-3.000100	3.612400	-10.837000	25.104529	0.000928	20.688868
1063.288738	-2.992500	3.611400	-10.806000	25.081783	0.000927	20.674568
1064.292322	-3.023400	3.610900	-10.917000	25.085611	0.000927	20.692637
1065.291759	-3.005700	3.611700	-10.855000	25.088445	0.000929	20.685050
1066.289130	-3.001700	3.609300	-10.832000	25.115295	0.000926	20.696357
1067.292352	-2.994800	3.610500	-10.810000	25.096622	0.000926	20.683300
1068.297685	-3.007200	3.610000	-10.854000	25.054566	0.000924	20.685180
1069.291854	-2.988600	3.608500	-10.783000	25.091776	0.000927	20.691713
1070.295401	-2.975000	3.609300	-10.736000	25.121166	0.000926	20.682809
1071.296745	-2.969100	3.611200	-10.721000	25.124888	0.000923	20.695082
1072.293131	-2.994500	3.608800	-10.805000	25.140874	0.000923	20.699750
1073.295863	-2.997100	3.608100	-10.813000	25.152990	0.000924	20.672082
1074.297948	-3.001200	3.607600	-10.826000	25.155351	0.000924	20.681566
1075.294856	-3.011000	3.608500	-10.864000	25.191596	0.000922	20.698988
1076.298326	-3.004100	3.606800	-10.834000	25.201091	0.000922	20.693821
1077.297774	-3.032400	3.604800	-10.929000	25.205391	0.000922	20.690551
1078.294606	-3.006800	3.606600	-10.843000	25.234249	0.000921	20.699610
1079.296654	-3.006100	3.606700	-10.841000	25.256673	0.000922	20.690354
1080.296935	-2.993100	3.607000	-10.795000	25.235991	0.000919	20.698040
1081.296385	-2.994100	3.606900	-10.799000	25.252594	0.000918	20.685784
1082.298437	-2.992200	3.604800	-10.785000	25.266534	0.000918	20.701678
1083.297167	-3.017500	3.604200	-10.874000	25.281426	0.000918	20.708570
1084.294660	-2.979600	3.604900	-10.740000	25.283071	0.000917	20.699789
1085.297162	-2.994200	3.605600	-10.795000	25.267031	0.000920	20.694116
1086.298951	-3.012100	3.604400	-10.856000	25.270271	0.000918	20.700214
1087.296713	-3.020200	3.603200	-10.881000	25.278845	0.000918	20.702659
1088.301070	-3.023300	3.602400	-10.889000	25.237481	0.000918	20.697165
1089.305460	-3.023700	3.602500	-10.892000	25.210733	0.000918	20.675524
1090.297446	-3.015500	3.602600	-10.862000	25.207573	0.000915	20.710288
1091.298976	-2.983500	3.602400	-10.747000	25.188535	0.000915	20.689750
1092.299407	-2.982800	3.603300	-10.746000	25.214469	0.000914	20.709150
1093.297717	-2.984400	3.601600	-10.748000	25.219486	0.000915	20.715609
1094.300455	-3.002500	3.601500	-10.812000	25.229176	0.000917	20.701155
1095.299258	-2.994500	3.601600	-10.784000	25.210317	0.000914	20.694548
1096.297681	-3.019000	3.600100	-10.866000	25.194780	0.000916	20.713565
1097.302286	-2.998500	3.600100	-10.794000	25.151010	0.000916	20.700917
1098.301340	-3.027200	3.599600	-10.895000	25.134472	0.000912	20.692848
1099.298926	-3.002300	3.600500	-10.808000	25.139023	0.000913	20.708324
1100.300763	-3.016600	3.599600	-10.857000	25.160050	0.000912	20.696715
1101.302726	-3.008300	3.598900	-10.825000	25.150212	0.000912	20.693003
1102.299623	-3.014900	3.598200	-10.846000	25.182623	0.000913	20.701833
1103.302375	-3.007000	3.599900	-10.823000	25.185806	0.000911	20.704555
1104.302578	-2.990900	3.598500	-10.761000	25.192475	0.000911	20.707931
1105.300944	-3.010400	3.598300	-10.831000	25.210446	0.000911	20.700843
1106.302110	-3.033700	3.596700	-10.910000	25.250086	0.000910	20.707924
1107.304156	-2.982600	3.598400	-10.732000	25.211758	0.000909	20.715437
1108.302563	-2.990700	3.599200	-10.763000	25.240298	0.000908	20.705683
1109.306443	-2.997500	3.597300	-10.781000	25.250671	0.000909	20.718943
1110.304739	-2.995700	3.597000	-10.775000	25.263268	0.000906	20.709305
1111.302481	-3.019300	3.595600	-10.855000	25.252486	0.000908	20.706066
1112.304224	-2.988600	3.598000	-10.751000	25.254970	0.000906	20.728476
1113.302693	-2.997800	3.596800	-10.781000	25.236901	0.000906	20.724560
1114.307989	-3.013300	3.595800	-10.834000	25.243041	0.000906	20.715076
1115.301981	-3.016900	3.595200	-10.845000	25.270041	0.000907	20.707570
1116.304026	-3.048300	3.593000	-10.951000	25.284461	0.000904	20.695494
1117.303470	-3.012200	3.595400	-10.829000	25.261361	0.000902	20.716400
1118.304292	-2.985700	3.596200	-10.736000	25.270807	0.000904	20.727781
1119.304076	-2.989600	3.593800	-10.744000	25.243692	0.000901	20.729481
1120.305205	-2.969900	3.595400	-10.676000	25.238179	0.000901	20.722049
1121.305340	-3.014000	3.594300	-10.832000	25.239449	0.000902	20.725221
1122.304543	-3.009900	3.593500	-10.815000	25.229629	0.000900	20.701135
1123.304758	-3.016700	3.592600	-10.837000	25.217724	0.000901	20.740869
1124.305851	-3.018100	3.592400	-10.840000	25.217822	0.000899	20.726741
1125.306662	-3.006100	3.592300	-10.799000	25.205574	0.000899	20.727248
1126.305586	-3.005700	3.592300	-10.796000	25.222943	0.000902	20.712916
1127.305766	-3.018800	3.590800	-10.838000	25.192822	0.000900	20.724877
1128.305161	-3.006500	3.590300	-10.793000	25.209303	0.000898	20.708705
1129.309063	-2.998900	3.591400	-10.769000	25.209181	0.000899	20.718540
1130.310215	-2.991800	3.591200	-10.743000	25.214621	0.000898	20.728744
1131.307256	-2.999800	3.591500	-10.772000	25.204515	0.000897	20.727132
1132.309759	-3.005700	3.590700	-10.791000	25.206103	0.000899	20.719717
1133.307199	-2.987500	3.589300	-10.722000	25.202716	0.000897	20.733387
1134.309629	-2.977900	3.590300	-10.690000	25.193904	0.000896	20.721221
1135.308212	-2.995200	3.588000	-10.747000	25.214009	0.000896	20.728604
1136.308661	-2.987800	3.589400	-10.723000	25.210948	0.000894	20.733591
1137.309338	-3.024200	3.587600	-10.849000	25.199099	0.000895	20.733075
1138.308910	-2.995200	3.588100	-10.745000	25.248461	0.000893	20.744227
1139.314488	-2.985700	3.588200	-10.713000	25.261212	0.000893	20.715776
1140.312072	-2.992400	3.587600	-10.735000	25.262279	0.000893	20.718744
1141.312205	-2.992700	3.587700	-10.736000	25.301036	0.000892	20.725415
1142.314406	-2.974900	3.586900	-10.669000	25.283384	0.000893	20.734719
1143.316125	-2.985600	3.586500	-10.706000	25.327303	0.000891	20.740883
1144.319139	-2.998700	3.585200	-10.749000	25.299294	0.000893	20.740736
1145.313265	-3.040900	3.585100	-10.900000	25.318957	0.000890	20.734400
1146.317963	-2.982600	3.586800	-10.696000	25.354024	0.000891	20.734048
1147.314037	-3.013300	3.584000	-10.799000	25.348529	0.000890	20.746075
1148.315506	-3.029800	3.584500	-10.858000	25.360701	0.000889	20.743124
1149.318364	-3.020300	3.584900	-10.826000	25.307591	0.000889	20.747645
1150.315078	-3.014000	3.584500	-10.802000	25.284671	0.000891	20.736011
1151.314726	-3.007700	3.583900	-10.779000	25.262034	0.000888	20.722292
1152.318746	-2.998600	3.584200	-10.746000	25.242989	0.000887	20.724508
1153.315639	-2.965500	3.584000	-10.626000	25.237476	0.000887	20.735569
1154.317153	-2.992100	3.583800	-10.720000	25.235759	0.000886	20.740957
1155.319179	-2.987900	3.583300	-10.706000	25.250000	0.000885	20.733918
1156.316614	-2.976900	3.583000	-10.665000	25.268614	0.000885	20.755927
1157.316220	-2.993300	3.582000	-10.721000	25.261163	0.000885	20.735643
1158.329083	-3.006400	3.581700	-10.766000	25.297715	0.000887	20.760963
1159.317484	-2.976400	3.582600	-10.662000	25.300304	0.000885	20.734164
1160.317336	-2.992100	3.581900	-10.716000	25.276024	0.000885	20.746770
1161.321058	-3.004100	3.580200	-10.754000	25.229692	0.000883	20.759049
1162.317066	-3.018200	3.581200	-10.806000	25.193326	0.000882	20.760472
1163.316269	-3.009200	3.580500	-10.774000	25.216437	0.000882	20.740050
1164.320788	-2.982800	3.579800	-10.678000	25.224147	0.000881	20.756801
1165.319003	-3.014100	3.581000	-10.791000	25.248884	0.000883	20.754136
1166.318513	-3.008000	3.580100	-10.767000	25.259893	0.000882	20.736264
1167.319938	-2.987500	3.578900	-10.690000	25.254576	0.000880	20.773601
1168.322055	-3.015500	3.578600	-10.790000	25.228552	0.000880	20.769759
1169.319081	-3.018400	3.578500	-10.800000	25.216566	0.000879	20.759148
1170.323299	-3.009300	3.578300	-10.767000	25.204661	0.000880	20.753359
1171.317844	-2.995400	3.579200	-10.720000	25.207316	0.000881	20.763137
1172.322723	-3.023000	3.575700	-10.808000	25.231329	0.000877	20.762590
1173.323538	-2.995100	3.578300	-10.716000	25.269184	0.000879	20.760292
1174.320090	-3.005300	3.577500	-10.751000	25.265935	0.000878	20.731424
1175.319232	-2.992000	3.577800	-10.703000	25.269640	0.000877	20.757904
1176.324148	-3.003700	3.577800	-10.744000	25.311670	0.000876	20.752689
1177.320201	-2.986800	3.576800	-10.682000	25.305002	0.000876	20.753106
1178.319969	-2.990500	3.576500	-10.694000	25.307518	0.000875	20.752313
1179.320612	-2.997700	3.575900	-10.718000	25.296551	0.000875	20.754104
1180.322873	-3.009300	3.574300	-10.756000	25.347381	0.000873	20.758673
1181.321568	-3.010800	3.574200	-10.760000	25.352926	0.000874	20.759973
1182.324347	-3.014100	3.574900	-10.774000	25.368257	0.000872	20.767307
1183.325916	-3.000200	3.574800	-10.723000	25.400888	0.000873	20.752657
1184.330369	-2.994200	3.574500	-10.702000	25.431133	0.000873	20.776864
1185.323977	-2.999300	3.573900	-10.718000	25.433225	0.000871	20.769955
1186.325130	-3.013800	3.573800	-10.770000	25.420843	0.000871	20.762263
1187.324123	-3.018600	3.573300	-10.785000	25.434285	0.000872	20.782873
1188.327407	-3.022900	3.571300	-10.794000	25.437793	0.000872	20.771223
1189.322502	-2.988700	3.572600	-10.676000	25.424873	0.000870	20.778637
1190.323790	-3.008800	3.571800	-10.745000	25.435611	0.000871	20.768083
1191.323436	-3.001800	3.572500	-10.722000	25.407996	0.000868	20.752207
1192.324458	-3.002800	3.572000	-10.725000	25.436474	0.000868	20.786020
1193.325009	-3.003000	3.572000	-10.726000	25.468167	0.000869	20.751937
1194.325320	-3.007800	3.570700	-10.738000	25.471024	0.000869	20.773773
1195.325225	-3.030600	3.569700	-10.816000	25.466050	0.000868	20.778262
1196.325866	-3.002200	3.571600	-10.721000	25.469412	0.000866	20.793017
1197.326037	-2.997000	3.569800	-10.698000	25.487778	0.000868	20.788700
1198.324845	-2.996400	3.570400	-10.697000	25.512379	0.000867	20.777370
1199.325456	-3.003100	3.570600	-10.722000	25.475176	0.000867	20.780313
1200.327347	-2.985700	3.570400	-10.659000	25.481485	0.000865	20.771476
1201.325884	-2.990500	3.569300	-10.673000	25.450102	0.000866	20.786902
1202.327274	-2.982900	3.569900	-10.646000	25.478611	0.000866	20.791349
1203.330275	-2.991900	3.568800	-10.676000	25.497326	0.000863	20.794970
1204.327919	-2.995400	3.569200	-10.688000	25.498987	0.000862	20.776249
1205.328308	-3.018200	3.567500	-10.766000	25.515740	0.000865	20.784064
1206.328610	-3.018300	3.567900	-10.768000	25.491489	0.000863	20.784841
1207.328482	-3.017200	3.567200	-10.762000	25.480052	0.000863	20.798486
1208.329278	-2.998000	3.566800	-10.692000	25.481997	0.000862	20.790956
1209.329674	-2.994900	3.568100	-10.684000	25.475533	0.000861	20.778775
1210.329907	-2.987800	3.567800	-10.658000	25.472025	0.000859	20.808443
1211.329974	-3.011500	3.567000	-10.740000	25.429497	0.000858	20.807463
1212.329664	-3.002000	3.566400	-10.705000	25.407042	0.000862	20.782070
1213.330966	-2.972700	3.566700	-10.602000	25.381990	0.000861	20.798166
1214.330863	-2.991100	3.564900	-10.662000	25.371178	0.000860	20.797267
1215.331186	-3.021100	3.564900	-10.768000	25.336951	0.000858	20.813160
1216.330864	-2.981900	3.565100	-10.630000	25.339931	0.000856	20.805721
1217.330565	-2.985100	3.563700	-10.637000	25.350540	0.000857	20.807364
1218.330401	-2.972100	3.565600	-10.597000	25.348350	0.000856	20.799002
1219.330133	-2.999900	3.564100	-10.689000	25.345191	0.000856	20.790140
1220.329892	-2.993100	3.564300	-10.667000	25.357917	0.000853	20.800547
1221.332573	-2.974500	3.562600	-10.596000	25.356777	0.000854	20.806988
1222.330559	-3.008200	3.562500	-10.716000	25.363657	0.000853	20.793508
1223.330560	-3.016600	3.562000	-10.744000	25.387715	0.000852	20.802967
1224.331484	-3.018200	3.560700	-10.746000	25.391021	0.000853	20.813398
1225.330262	-3.011400	3.561800	-10.724000	25.416072	0.000852	20.794457
1226.331898	-2.997600	3.561700	-10.675000	25.419255	0.000852	20.815671
1227.333637	-2.994900	3.559600	-10.659000	25.417653	0.000852	20.808372
1228.331514	-2.997200	3.560800	-10.670000	25.407597	0.000849	20.812025
1229.330049	-2.994600	3.561200	-10.663000	25.399733	0.000850	20.804603
1230.330142	-2.999900	3.558800	-10.674000	25.386120	0.000852	20.819857
1231.332681	-2.991000	3.560100	-10.646000	25.382206	0.000849	20.810236
1232.333094	-2.992000	3.559700	-10.650000	25.352260	0.000849	20.802927
1233.333137	-2.994600	3.559100	-10.657000	25.323160	0.000849	20.814012
1234.332814	-3.001300	3.558500	-10.678000	25.294175	0.000849	20.831376
1235.331529	-3.006700	3.558300	-10.698000	25.283198	0.000847	20.822726
1236.331333	-3.007500	3.557500	-10.698000	25.272434	0.000846	20.812867
1237.331770	-3.009000	3.557600	-10.703000	25.282816	0.000847	20.811912
1238.331288	-2.981800	3.559200	-10.612000	25.302700	0.000845	20.829030
1239.331527	-3.006900	3.557100	-10.695000	25.325962	0.000845	20.828205
1240.332986	-2.987600	3.557300	-10.626000	25.332003	0.000844	20.832374
1241.332823	-2.983800	3.557000	-10.613000	25.364937	0.000845	20.813285
1242.334146	-3.002000	3.557200	-10.678000	25.415162	0.000845	20.805871
1243.334442	-2.989000	3.557500	-10.633000	25.413672	0.000843	20.842780
1244.334941	-2.987800	3.555100	-10.621000	25.391111	0.000844	20.824868
1245.343133	-2.991900	3.555600	-10.636000	25.365017	0.000841	20.826642
1246.337295	-3.000000	3.555900	-10.667000	25.387050	0.000842	20.835963
1247.337262	-2.982700	3.555600	-10.603000	25.386106	0.000842	20.813678
1248.337119	-2.980500	3.555600	-10.597000	25.380512	0.000841	20.814700
1249.336287	-2.982500	3.554300	-10.599000	25.396372	0.000838	20.832995
1250.336466	-2.999800	3.553200	-10.657000	25.438324	0.000843	20.824861
1251.340600	-3.002400	3.553300	-10.667000	25.430475	0.000840	20.817928
1252.337997	-3.001100	3.551900	-10.658000	25.452416	0.000839	20.810089
1253.337635	-3.010100	3.552700	-10.692000	25.461908	0.000839	20.810612
1254.336537	-3.013300	3.553200	-10.706000	25.466875	0.000840	20.813229
1255.337387	-3.001100	3.553500	-10.663000	25.455778	0.000838	20.809671
1256.335956	-3.013400	3.551200	-10.700000	25.465987	0.000838	20.796216
1257.337551	-2.991400	3.551700	-10.622000	25.467046	0.000837	20.819564
1258.337454	-3.004000	3.551900	-10.668000	25.482285	0.000838	20.798832
1259.336962	-2.979800	3.551600	-10.583000	25.492575	0.000837	20.791622
1260.338205	-3.023800	3.550900	-10.736000	25.460834	0.000839	20.805740
1261.338854	-2.994500	3.549000	-10.626000	25.465434	0.000836	20.798980
1262.338595	-3.015100	3.548500	-10.697000	25.474870	0.000835	20.793282
1263.339164	-3.004400	3.550000	-10.663000	25.485576	0.000837	20.784593
1264.339573	-2.987300	3.548700	-10.600000	25.494589	0.000834	20.786057
1265.339047	-3.002300	3.549600	-10.655000	25.471428	0.000835	20.817801
1266.339110	-2.995400	3.547700	-10.624000	25.466951	0.000834	20.782011
1267.340294	-2.997600	3.547800	-10.633000	25.455807	0.000834	20.785993
1268.340629	-3.015100	3.548400	-10.699000	25.460211	0.000832	20.820287
1269.338972	-3.019500	3.546800	-10.708000	25.475631	0.000832	20.792150
1270.340397	-2.994800	3.547200	-10.623000	25.452918	0.000829	20.789730
1271.340764	-3.013600	3.546800	-10.687000	25.418017	0.000831	20.776969
1272.341045	-3.011300	3.545500	-10.676000	25.446569	0.000832	20.794260
1273.341722	-3.005000	3.545900	-10.655000	25.448132	0.000829	20.807210
1274.344148	-2.991400	3.546900	-10.609000	25.441693	0.000830	20.776562
1275.342332	-3.006900	3.545100	-10.659000	25.442084	0.000830	20.782171
1276.344595	-3.001900	3.544600	-10.639000	25.461143	0.000828	20.792300
1277.344779	-3.000100	3.544300	-10.632000	25.449226	0.000828	20.789342
1278.341979	-2.994100	3.545300	-10.614000	25.512186	0.000827	20.797565
1279.343279	-3.004500	3.545300	-10.649000	25.539189	0.000825	20.786750
1280.344198	-3.004200	3.543700	-10.644000	25.559638	0.000825	20.802070
1281.344610	-3.019500	3.544000	-10.700000	25.567468	0.000822	20.818943
1282.347054	-3.017900	3.542300	-10.689000	25.568577	0.000825	20.792081
1283.347383	-3.004700	3.542500	-10.643000	25.544970	0.000825	20.784969
1284.347311	-3.011100	3.543700	-10.668000	25.515728	0.000825	20.807286
1285.348079	-2.991600	3.542600	-10.597000	25.445872	0.000823	20.790715
1286.349237	-2.998100	3.541800	-10.618000	25.418079	0.000821	20.785092
1287.348698	-2.994900	3.542600	-10.609000	25.465427	0.000821	20.794231
1288.351369	-2.998200	3.540200	-10.613000	25.437788	0.000822	20.783072
1289.350795	-3.012400	3.542200	-10.670000	25.450513	0.000820	20.794902
1290.350428	-2.992000	3.542100	-10.597000	25.463986	0.000819	20.779033
1291.350644	-2.975200	3.540600	-10.534000	25.474391	0.000820	20.784741
1292.354239	-2.987100	3.541400	-10.577000	25.468138	0.000818	20.771823
1293.350989	-2.986000	3.541700	-10.575000	25.439205	0.000818	20.787340
1294.351326	-2.967600	3.540300	-10.505000	25.433490	0.000819	20.773540
1295.350885	-2.980200	3.540000	-10.548000	25.430485	0.000819	20.762462
1296.351062	-3.011700	3.537300	-10.652000	25.425658	0.000818	20.779901
1297.351625	-3.024100	3.538200	-10.698000	25.450391	0.000816	20.780080
1298.350732	-3.003200	3.538800	-10.627000	25.478973	0.000816	20.771324
1299.354697	-2.990700	3.539200	-10.584000	25.499822	0.000815	20.783252
1300.352085	-3.006000	3.538500	-10.636000	25.515127	0.000813	20.755947
1301.352004	-3.029700	3.535800	-10.711000	25.516575	0.000814	20.756927
1302.352350	-3.004700	3.536200	-10.623000	25.470450	0.000816	20.773670
1303.351771	-2.997900	3.536200	-10.598000	25.423256	0.000814	20.782704
1304.352068	-3.021100	3.535600	-10.680000	25.430713	0.000815	20.766010
1305.352062	-3.006400	3.537300	-10.634000	25.407845	0.000815	20.750158
1306.355512	-3.002300	3.534400	-10.610000	25.402154	0.000813	20.759617
1307.355175	-3.009100	3.536100	-10.639000	25.368585	0.000812	20.759101
1308.356998	-3.009500	3.534900	-10.637000	25.379267	0.000813	20.748490
1309.355241	-2.997500	3.534700	-10.595000	25.397855	0.000812	20.752930
1310.355703	-2.991600	3.534100	-10.571000	25.425788	0.000810	20.775289
1311.357079	-2.983000	3.535600	-10.545000	25.432619	0.000811	20.770295
1312.356306	-3.014000	3.533300	-10.648000	25.423403	0.000809	20.748237
1313.358324	-2.980600	3.534500	-10.534000	25.425805	0.000810	20.757288
1314.361954	-2.998700	3.533700	-10.594000	25.437561	0.000810	20.760084
1315.356356	-2.994500	3.533100	-10.578000	25.434818	0.000809	20.759227
1316.357506	-2.966400	3.533800	-10.482000	25.397816	0.000808	20.758581
1317.360353	-2.999100	3.531400	-10.590000	25.424227	0.000808	20.753333
1318.356383	-3.006100	3.532200	-10.616000	25.427337	0.000809	20.779215
1319.359258	-2.997300	3.530800	-10.582000	25.450043	0.000809	20.778309
1320.357009	-2.996600	3.531500	-10.581000	25.466937	0.000808	20.762082
1321.358826	-3.010400	3.531900	-10.632000	25.501821	0.000807	20.754913
1322.357079	-3.010800	3.531300	-10.631000	25.535606	0.000807	20.757072
1323.357675	-3.013800	3.530200	-10.638000	25.549445	0.000805	20.773342
1324.362800	-2.985400	3.530700	-10.540000	25.540516	0.000805	20.785237
1325.358711	-3.021400	3.528400	-10.660000	25.525994	0.000803	20.754058
1326.358145	-2.996500	3.529900	-10.576000	25.557694	0.000804	20.767401
1327.357565	-3.007500	3.528500	-10.610000	25.543180	0.000804	20.762308
1328.359614	-2.989700	3.528400	-10.548000	25.535643	0.000801	20.757110
1329.363434	-2.973600	3.529100	-10.492000	25.572316	0.000802	20.746523
1330.359425	-2.990900	3.528100	-10.551000	25.592585	0.000799	20.764510
1331.367960	-2.992500	3.528600	-10.558000	25.605496	0.000799	20.760881
1332.364050	-2.985900	3.528000	-10.534000	25.614183	0.000800	20.778615
1333.360606	-3.030500	3.525400	-10.682000	25.568111	0.000798	20.757474
1334.359938	-3.011100	3.526900	-10.619000	25.560606	0.000799	20.767955
1335.362546	-2.982700	3.528300	-10.523000	25.565474	0.000796	20.770473
1336.365170	-2.964500	3.526500	-10.453000	25.565159	0.000797	20.759725
1337.360650	-3.003200	3.525300	-10.586000	25.537432	0.000797	20.766493
1338.363386	-2.994700	3.525500	-10.556000	25.519581	0.000795	20.757101
1339.363884	-2.995900	3.526200	-10.563000	25.530269	0.000793	20.762145
1340.361792	-3.004000	3.524100	-10.585000	25.527006	0.000793	20.758868
1341.364810	-2.989300	3.524800	-10.536000	25.544468	0.000794	20.757438
1342.366938	-3.003800	3.523500	-10.582000	25.515268	0.000793	20.753244
1343.364730	-2.998100	3.524400	-10.565000	25.486963	0.000794	20.775555
1344.365371	-2.996500	3.523900	-10.558000	25.517451	0.000793	20.764445
1345.366243	-3.017600	3.522100	-10.627000	25.514244	0.000793	20.760750
1346.365183	-3.022100	3.522000	-10.642000	25.527310	0.000792	20.739732
1347.368630	-3.014600	3.522400	-10.617000	25.523386	0.000792	20.753809
1348.370148	-2.990500	3.524200	-10.536000	25.581794	0.000791	20.749879
1349.366564	-3.008000	3.521800	-10.593000	25.577577	0.000790	20.755126
1350.366282	-3.002200	3.522400	-10.574000	25.576877	0.000790	20.741147
1351.369463	-3.008100	3.521100	-10.589000	25.537235	0.000790	20.750648
1352.367415	-3.022900	3.519800	-10.639000	25.534549	0.000789	20.750321
1353.367284	-3.002200	3.521400	-10.571000	25.515939	0.000789	20.739693
1354.366939	-2.999000	3.521000	-10.559000	25.518520	0.000790	20.741811
1355.366927	-3.013400	3.521200	-10.609000	25.535420	0.000790	20.768266
1356.366714	-2.999400	3.518900	-10.553000	25.529471	0.000788	20.740005
1357.369811	-2.993500	3.520100	-10.536000	25.520703	0.000787	20.741157
1358.370151	-3.026900	3.518600	-10.649000	25.538865	0.000787	20.767458
1359.372652	-2.989600	3.518700	-10.518000	25.535168	0.000786	20.739088
1360.375336	-3.013000	3.517000	-10.596000	25.553648	0.000785	20.758596
1361.371189	-3.000700	3.518400	-10.556000	25.531034	0.000786	20.734937
1362.371667	-2.991100	3.518000	-10.522000	25.555008	0.000786	20.732460
1363.374527	-2.988200	3.518000	-10.511000	25.529512	0.000786	20.754746
1364.372191	-2.991400	3.518700	-10.524000	25.503519	0.000782	20.754722
1365.370914	-3.036400	3.515500	-10.673000	25.488435	0.000784	20.762807
1366.371037	-2.991600	3.515800	-10.517000	25.476736	0.000782	20.739678
1367.371291	-3.009500	3.516300	-10.579000	25.484339	0.000783	20.739728
1368.372148	-3.004200	3.515000	-10.559000	25.472454	0.000783	20.718783
1369.371185	-2.983600	3.516100	-10.489000	25.500214	0.000781	20.743816
1370.372180	-2.984500	3.516000	-10.492000	25.518880	0.000782	20.745491
1371.370682	-2.994400	3.513600	-10.520000	25.527306	0.000780	20.732141
1372.373765	-3.027200	3.512400	-10.632000	25.494597	0.000780	20.733433
1373.374354	-3.022800	3.512200	-10.615000	25.441917	0.000779	20.737430
1374.374745	-3.008800	3.514100	-10.572000	25.426513	0.000780	20.721962
1375.374425	-3.009900	3.512800	-10.571000	25.433914	0.000779	20.743619
1376.374569	-2.987200	3.513000	-10.492000	25.471437	0.000779	20.718235
1377.374328	-2.962500	3.512400	-10.404000	25.481832	0.000779	20.715871
1378.374574	-3.011300	3.511200	-10.572000	25.482849	0.000777	20.754827
1379.374940	-2.989700	3.512300	-10.500000	25.477876	0.000777	20.741298
1380.373969	-2.996600	3.511900	-10.523000	25.452190	0.000776	20.734944
1381.375102	-2.993300	3.510500	-10.507000	25.466575	0.000776	20.733742
1382.374855	-3.004800	3.510900	-10.548000	25.518464	0.000777	20.737487
1383.375230	-3.004800	3.510900	-10.548000	25.544530	0.000774	20.748017
1384.379331	-2.994500	3.509700	-10.508000	25.553697	0.000773	20.726401
1385.379682	-3.012000	3.508600	-10.567000	25.572012	0.000774	20.718716
1386.377749	-2.976000	3.509800	-10.443000	25.596611	0.000772	20.728723
1387.379795	-3.002400	3.507400	-10.528000	25.603791	0.000772	20.750159
1388.378679	-3.004700	3.508700	-10.540000	25.603473	0.000772	20.735140
1389.378388	-2.988300	3.508000	-10.482000	25.599745	0.000773	20.742302
1390.378558	-3.002700	3.507500	-10.529000	25.569162	0.000773	20.722018
1391.379327	-2.995000	3.508500	-10.507000	25.529617	0.000771	20.731617
1392.378897	-2.999900	3.507800	-10.521000	25.545947	0.000771	20.728101
1393.380451	-3.018400	3.506100	-10.581000	25.550147	0.000769	20.717146
1394.381633	-2.991400	3.506600	-10.489000	25.573005	0.000770	20.709756
1395.381687	-2.974100	3.506600	-10.428000	25.570620	0.000769	20.738182
1396.380757	-2.993200	3.506500	-10.493000	25.592037	0.000769	20.731241
1397.383415	-3.002800	3.505000	-10.524000	25.583994	0.000766	20.710834
1398.382475	-3.004000	3.503700	-10.524000	25.598752	0.000765	20.728502
1399.383118	-2.982900	3.504700	-10.453000	25.599574	0.000767	20.718421
1400.383535	-3.004600	3.503800	-10.526000	25.609684	0.000765	20.717195
1401.382346	-2.997100	3.503200	-10.497000	25.605344	0.000766	20.730381
1402.382725	-3.003200	3.504200	-10.523000	25.641224	0.000764	20.729907
1403.383027	-3.004300	3.503000	-10.523000	25.654117	0.000767	20.713458
1404.388180	-3.021600	3.501300	-10.578000	25.671071	0.000766	20.714839
1405.382872	-3.015000	3.500900	-10.553000	25.631758	0.000764	20.703802
1406.383492	-2.994800	3.503500	-10.490000	25.598213	0.000764	20.696191
1407.391504	-3.005900	3.502800	-10.528000	25.602812	0.000762	20.703655
1408.386105	-3.015100	3.502100	-10.558000	25.587159	0.000763	20.726342
1409.383841	-3.000300	3.500300	-10.501000	25.616927	0.000762	20.709296
1410.386111	-3.002600	3.501300	-10.512000	25.616381	0.000762	20.713016
1411.384059	-3.002500	3.501000	-10.510000	25.639042	0.000762	20.707325
1412.387200	-3.006700	3.498600	-10.518000	25.643217	0.000759	20.709623
1413.387278	-3.010900	3.499800	-10.537000	25.614028	0.000758	20.696426
1414.386744	-3.004700	3.499900	-10.515000	25.629135	0.000760	20.700220
1415.387651	-3.013900	3.498000	-10.541000	25.611692	0.000759	20.692657
1416.386474	-2.984500	3.499700	-10.444000	25.643501	0.000757	20.691888
1417.389734	-2.997900	3.497800	-10.485000	25.643998	0.000757	20.711829
1418.388128	-2.992200	3.498700	-10.467000	25.601914	0.000758	20.690424
1419.388489	-3.005000	3.498400	-10.511000	25.574524	0.000758	20.709384
1420.389446	-2.978400	3.498100	-10.417000	25.565357	0.000754	20.685952
1421.388220	-2.993900	3.497100	-10.469000	25.519689	0.000755	20.693669
1422.386839	-2.995100	3.496500	-10.471000	25.532266	0.000753	20.686858
1423.390136	-3.001600	3.497000	-10.495000	25.528562	0.000757	20.693571
1424.392201	-3.014200	3.496200	-10.537000	25.548270	0.000756	20.707200
1425.387209	-3.023100	3.494100	-10.562000	25.588051	0.000754	20.707322
1426.393610	-2.996600	3.496400	-10.476000	25.591615	0.000755	20.692883
1427.390011	-3.002800	3.495500	-10.495000	25.630345	0.000753	20.719455
1428.393105	-3.001700	3.494300	-10.488000	25.650800	0.000753	20.695900
1429.392258	-3.001200	3.496000	-10.491000	25.674835	0.000753	20.699177
1430.388221	-2.985200	3.494000	-10.429000	25.685759	0.000752	20.698770
1431.391149	-2.999900	3.493800	-10.480000	25.713740	0.000753	20.713125
1432.392075	-2.976800	3.493400	-10.398000	25.723475	0.000750	20.699669
1433.388497	-2.988000	3.494200	-10.438000	25.709020	0.000752	20.686096
1434.387666	-2.974600	3.492400	-10.387000	25.738686	0.000749	20.678910
1435.397218	-2.985600	3.492900	-10.428000	25.730742	0.000750	20.706020
1436.390156	-3.024300	3.491800	-10.559000	25.710419	0.000748	20.686079
1437.391307	-2.992000	3.491500	-10.446000	25.726469	0.000750	20.685605
1438.397216	-2.984000	3.491800	-10.419000	25.732906	0.000749	20.702978
1439.391201	-3.007200	3.490100	-10.493000	25.731295	0.000747	20.667691
1440.391975	-3.015200	3.489700	-10.521000	25.686301	0.000747	20.671337
1441.394930	-3.016000	3.488900	-10.522000	25.683738	0.000750	20.674927
1442.393671	-2.996900	3.489400	-10.457000	25.686553	0.000746	20.684868
1443.391810	-2.983200	3.489200	-10.409000	25.666278	0.000746	20.684418
1444.394866	-2.975000	3.489600	-10.381000	25.640183	0.000745	20.694720
1445.395421	-2.985500	3.488900	-10.415000	25.600705	0.000744	20.686364
1446.395252	-3.028100	3.486800	-10.556000	25.590741	0.000745	20.670666
1447.399356	-2.990200	3.487900	-10.429000	25.566019	0.000744	20.690885
1448.393190	-2.988100	3.488300	-10.421000	25.527955	0.000745	20.679209
1449.393818	-2.963500	3.489200	-10.338000	25.511527	0.000744	20.682152
1450.395781	-2.998200	3.486400	-10.452000	25.517225	0.000742	20.685029
1451.397790	-2.975700	3.487400	-10.377000	25.524087	0.000744	20.672005
1452.393586	-3.005500	3.484500	-10.472000	25.551691	0.000743	20.674597
1453.399119	-2.973700	3.484900	-10.362000	25.512220	0.000741	20.682374
1454.397079	-3.002000	3.483900	-10.458000	25.519383	0.000742	20.685300
1455.400142	-3.009300	3.485300	-10.488000	25.529256	0.000742	20.691897
1456.400526	-3.013100	3.484300	-10.496000	25.548117	0.000740	20.664843
1457.400483	-2.996100	3.484800	-10.440000	25.563967	0.000740	20.683133
1458.399405	-3.020800	3.484300	-10.524000	25.565726	0.000739	20.678735
1459.403342	-2.996400	3.484000	-10.439000	25.533750	0.000740	20.671752
1460.401350	-3.007400	3.482000	-10.471000	25.494757	0.000739	20.681907
1461.400118	-2.982800	3.484000	-10.390000	25.434105	0.000736	20.683115
1462.402076	-3.003700	3.482500	-10.459000	25.458309	0.000736	20.682290
1463.400547	-3.005800	3.481200	-10.463000	25.424305	0.000737	20.679912
1464.401955	-3.022200	3.481000	-10.520000	25.430930	0.000737	20.681349
1465.401712	-3.045300	3.480800	-10.599000	25.449020	0.000734	20.665373
1466.403857	-3.003700	3.480400	-10.453000	25.386242	0.000735	20.668243
1467.402632	-2.996300	3.480900	-10.429000	25.420664	0.000734	20.684791
1468.403970	-3.000700	3.479900	-10.441000	25.404333	0.000735	20.665545
1469.401334	-2.990000	3.481300	-10.408000	25.402647	0.000735	20.682820
1470.402295	-2.975400	3.480600	-10.355000	25.410594	0.000734	20.673730
1471.406516	-2.994800	3.479000	-10.418000	25.425596	0.000734	20.666034
1472.404449	-3.016100	3.477700	-10.487000	25.432818	0.000734	20.681823
1473.405218	-3.003500	3.478400	-10.447000	25.491319	0.000732	20.668496
1474.408085	-2.991600	3.478100	-10.403000	25.514903	0.000734	20.670368
1475.405349	-3.002900	3.477800	-10.443000	25.535580	0.000732	20.662683
1476.418163	-2.994500	3.477800	-10.414000	25.553301	0.000730	20.666729
1477.408257	-2.987500	3.477800	-10.389000	25.612194	0.000729	20.678936
1478.407371	-3.005700	3.476800	-10.449000	25.603573	0.000731	20.667432
1479.406706	-2.988900	3.476800	-10.391000	25.631452	0.000730	20.681208
1480.409079	-3.011500	3.475300	-10.465000	25.613715	0.000729	20.671454
1481.406754	-3.005500	3.475800	-10.446000	25.622815	0.000731	20.665420
1482.407057	-3.004700	3.475600	-10.443000	25.634569	0.000728	20.676751
1483.409357	-3.006800	3.475100	-10.448000	25.654169	0.000729	20.666565
1484.409168	-3.013500	3.473200	-10.464000	25.663684	0.000728	20.679916
1485.406725	-3.001200	3.474400	-10.426000	25.691342	0.000727	20.663596
1486.409934	-2.977200	3.474400	-10.343000	25.691251	0.000727	20.682474
1487.409035	-2.988300	3.473100	-10.378000	25.701556	0.000726	20.675754
1488.410254	-2.995900	3.472600	-10.403000	25.692594	0.000727	20.690935
1489.410642	-3.017300	3.471200	-10.472000	25.705861	0.000727	20.656842
1490.408458	-3.000900	3.474000	-10.423000	25.648805	0.000725	20.678248
1491.410167	-2.995700	3.471600	-10.399000	25.610750	0.000724	20.677960
1492.410303	-3.004300	3.471600	-10.429000	25.592803	0.000724	20.673211
1493.407786	-2.972400	3.471500	-10.318000	25.567731	0.000724	20.679800
1494.408746	-3.001900	3.469500	-10.414000	25.622049	0.000724	20.678877
1495.410931	-2.993200	3.470500	-10.386000	25.603147	0.000723	20.665107
1496.410578	-3.024800	3.469200	-10.492000	25.631922	0.000722	20.666505
1497.410807	-2.986900	3.470700	-10.366000	25.627788	0.000722	20.664250
1498.412694	-3.001400	3.468400	-10.409000	25.623920	0.000720	20.655149
1499.412492	-2.997600	3.468900	-10.397000	25.608886	0.000721	20.674665
1500.412646	-2.999100	3.468300	-10.401000	25.613876	0.000720	20.670193
1501.414276	-3.023000	3.467100	-10.480000	25.551630	0.000720	20.671216
1502.415174	-3.004800	3.467600	-10.418000	25.512970	0.000720	20.685498
1503.424752	-3.009700	3.466500	-10.432000	25.524994	0.000719	20.676709
1504.417145	-3.013100	3.467500	-10.445000	25.528526	0.000719	20.673618
1505.419772	-2.990100	3.466100	-10.363000	25.562219	0.000719	20.660513
1506.416509	-2.989300	3.466600	-10.362000	25.590858	0.000720	20.655609
1507.415962	-2.985300	3.466400	-10.348000	25.577068	0.000717	20.673056
1508.415346	-2.987300	3.464800	-10.349000	25.557085	0.000717	20.670056
1509.418818	-2.974500	3.465100	-10.304000	25.574547	0.000718	20.676213
1510.420150	-3.025100	3.463700	-10.476000	25.603385	0.000718	20.679572
1511.417586	-2.998000	3.464600	-10.386000	25.604151	0.000716	20.669909
1512.417552	-2.974500	3.465500	-10.307000	25.643475	0.000716	20.672894
1513.421865	-3.004100	3.463500	-10.404000	25.646829	0.000716	20.671046
1514.422792	-2.994200	3.463400	-10.369000	25.641579	0.000714	20.652022
1515.420859	-2.995000	3.462700	-10.370000	25.638625	0.000715	20.684619
1516.423642	-3.007000	3.461400	-10.408000	25.669059	0.000715	20.689108
1517.423245	-2.987700	3.464200	-10.349000	25.667806	0.000713	20.682634
1518.421552	-3.012500	3.461600	-10.426000	25.649248	0.000712	20.687703
1519.424618	-2.985900	3.462500	-10.337000	25.655882	0.000713	20.675872
1520.424877	-2.996600	3.462000	-10.373000	25.660449	0.000715	20.708437
1521.424233	-3.001100	3.460600	-10.384000	25.670933	0.000711	20.689093
1522.427001	-2.999000	3.459700	-10.375000	25.682458	0.000710	20.676012
1523.423493	-3.013000	3.459300	-10.423000	25.681458	0.000710	20.680224
1524.423776	-3.000500	3.460100	-10.381000	25.675720	0.000709	20.696747
1525.427979	-2.989300	3.459900	-10.342000	25.699788	0.000710	20.684885
1526.425899	-3.010400	3.459400	-10.413000	25.736064	0.000707	20.703779
1527.424963	-2.986600	3.459000	-10.329000	25.712185	0.000710	20.688327
1528.426107	-3.004900	3.457300	-10.387000	25.730896	0.000709	20.668713
1529.425322	-3.017900	3.456900	-10.430000	25.749061	0.000708	20.688384
1530.426154	-3.016100	3.457800	-10.428000	25.719682	0.000707	20.695384
1531.429930	-3.014400	3.457900	-10.422000	25.739767	0.000708	20.683315
1532.427526	-2.987100	3.457300	-10.327000	25.749551	0.000707	20.700256
1533.427581	-2.993700	3.457700	-10.350000	25.716800	0.000706	20.690593
1534.430546	-2.998300	3.456100	-10.362000	25.748925	0.000706	20.695833
1535.426926	-3.011000	3.454400	-10.400000	25.732997	0.000705	20.708759
1536.427879	-2.971600	3.457100	-10.272000	25.729791	0.000704	20.687519
1537.432927	-3.006800	3.454600	-10.387000	25.696795	0.000704	20.693259
1538.431074	-3.005800	3.453500	-10.379000	25.709110	0.000702	20.701836
1539.431773	-3.006600	3.454500	-10.385000	25.742431	0.000702	20.716339
1540.433867	-3.009600	3.453100	-10.391000	25.743295	0.000703	20.707723
1541.430885	-3.022500	3.451800	-10.432000	25.741235	0.000701	20.693799
1542.433730	-3.016600	3.452600	-10.414000	25.730801	0.000701	20.707976
1543.436037	-2.997800	3.452300	-10.348000	25.728815	0.000701	20.689858
1544.431889	-2.983400	3.453000	-10.301000	25.715947	0.000700	20.695426
1545.433454	-3.012400	3.450900	-10.395000	25.735724	0.000699	20.697273
1546.437371	-3.011000	3.452000	-10.393000	25.749358	0.000702	20.677775
1547.437116	-2.984700	3.452000	-10.303000	25.757292	0.000697	20.703290
1548.432750	-3.018300	3.450100	-10.412000	25.753508	0.000700	20.703757
1549.432699	-2.998700	3.449800	-10.344000	25.713335	0.000698	20.712244
1550.433897	-2.992700	3.449900	-10.324000	25.722108	0.000697	20.701615
1551.432483	-3.032200	3.447300	-10.451000	25.756862	0.000695	20.702384
1552.432009	-2.985100	3.449500	-10.296000	25.741291	0.000697	20.695752
1553.436910	-2.983300	3.449800	-10.291000	25.748267	0.000695	20.694698
1554.433319	-2.996200	3.448600	-10.331000	25.712415	0.000696	20.686188
1555.435262	-3.026100	3.448200	-10.434000	25.702956	0.000697	20.693757
1556.435362	-2.987500	3.448800	-10.303000	25.675918	0.000696	20.698369
1557.436141	-3.005000	3.448100	-10.361000	25.680867	0.000694	20.697175
1558.437601	-2.995900	3.447800	-10.328000	25.661406	0.000695	20.698492
1559.436898	-2.980100	3.447700	-10.274000	25.643995	0.000695	20.712774
1560.441030	-3.026500	3.444200	-10.422000	25.660144	0.000694	20.729943
1561.438079	-2.999500	3.445000	-10.332000	25.662903	0.000693	20.694779
1562.437564	-2.983200	3.446200	-10.280000	25.670530	0.000693	20.700543
1563.438179	-2.978500	3.446200	-10.264000	25.718412	0.000692	20.705963
1564.438323	-3.002400	3.444000	-10.339000	25.671408	0.000692	20.710435
1565.439045	-2.971700	3.445800	-10.239000	25.641837	0.000693	20.711555
1566.439256	-3.003700	3.444400	-10.345000	25.589824	0.000691	20.711949
1567.442698	-3.001200	3.442800	-10.332000	25.547333	0.000690	20.708629
1568.439201	-3.017600	3.442400	-10.385000	25.545892	0.000692	20.704811
1569.437665	-3.007400	3.441900	-10.350000	25.550662	0.000689	20.713396
1570.440393	-2.996300	3.441700	-10.311000	25.568180	0.000692	20.716290
1571.439594	-3.028400	3.440000	-10.416000	25.603051	0.000689	20.708637
1572.439940	-3.006100	3.442700	-10.348000	25.608188	0.000687	20.719012
1573.437637	-3.005100	3.440300	-10.337000	25.627992	0.000687	20.704762
1574.439246	-2.995600	3.441000	-10.307000	25.655895	0.000689	20.725201
1575.441664	-2.972200	3.441500	-10.227000	25.652744	0.000686	20.722037
1576.442898	-3.009000	3.439500	-10.348000	25.690682	0.000689	20.706561
1577.440332	-2.970200	3.441000	-10.219000	25.678440	0.000688	20.721766
1578.441952	-2.984900	3.441000	-10.270000	25.708125	0.000685	20.711752
1579.441041	-3.005800	3.440500	-10.340000	25.695053	0.000686	20.715693
1580.444378	-2.996100	3.437800	-10.298000	25.732899	0.000685	20.735690
1581.446156	-3.004600	3.438000	-10.328000	25.750260	0.000685	20.725152
1582.441123	-3.008000	3.439300	-10.343000	25.766789	0.000684	20.718047
1583.444983	-2.987700	3.438600	-10.271000	25.759033	0.000683	20.719265
1584.445390	-2.994600	3.437700	-10.292000	25.721968	0.000684	20.732771
1585.441777	-3.006900	3.437200	-10.334000	25.730158	0.000683	20.733410
1586.445048	-2.987800	3.436000	-10.265000	25.762785	0.000684	20.736785
1587.443871	-2.991100	3.435500	-10.274000	25.775978	0.000682	20.722061
1588.443839	-3.004600	3.436700	-10.325000	25.781447	0.000680	20.726606
1589.446521	-3.012600	3.434400	-10.345000	25.761313	0.000681	20.728668
1590.446405	-3.025000	3.434300	-10.388000	25.760792	0.000682	20.713919
1591.443953	-3.011600	3.434800	-10.342000	25.742316	0.000680	20.745149
1592.449302	-3.000200	3.435000	-10.304000	25.713716	0.000680	20.718317
1593.449206	-3.022600	3.433200	-10.375000	25.660689	0.000678	20.724801
1594.443666	-2.970600	3.435500	-10.203000	25.647876	0.000679	20.746072
1595.446410	-3.008000	3.433300	-10.325000	25.631199	0.000679	20.739753
1596.449861	-3.029800	3.431600	-10.396000	25.649432	0.000679	20.735781
1597.444253	-3.004900	3.433700	-10.316000	25.654209	0.000676	20.730147
1598.447430	-3.035600	3.431900	-10.417000	25.666036	0.000677	20.724007
1599.449387	-3.002200	3.431800	-10.302000	25.696452	0.000676	20.739859
1600.447230	-3.011100	3.429700	-10.326000	25.716272	0.000676	20.719462
1601.448442	-2.984800	3.431700	-10.241000	25.762908	0.000676	20.735486
1602.449964	-2.993400	3.431700	-10.272000	25.769125	0.000676	20.718496
1603.447332	-3.009400	3.430000	-10.321000	25.729294	0.000674	20.725904
1604.446828	-3.003800	3.429500	-10.300000	25.723409	0.000675	20.736115
1605.447071	-2.996300	3.430500	-10.278000	25.698316	0.000673	20.721341
1606.445980	-3.007700	3.430400	-10.316000	25.689046	0.000673	20.715823
1607.448409	-2.991600	3.428800	-10.257000	25.702663	0.000673	20.736139
1608.448756	-2.992000	3.429800	-10.262000	25.721203	0.000674	20.741011
1609.446328	-3.015200	3.427100	-10.332000	25.756264	0.000673	20.750625
1610.448847	-3.002800	3.428000	-10.292000	25.763289	0.000673	20.731601
1611.450991	-3.031200	3.426300	-10.385000	25.762443	0.000671	20.747822
1612.448384	-2.999900	3.427600	-10.282000	25.767740	0.000672	20.730857
1613.451121	-2.985800	3.426800	-10.231000	25.805926	0.000672	20.752145
1614.451941	-3.003100	3.425800	-10.288000	25.816734	0.000672	20.726965
1615.449266	-2.988300	3.426700	-10.238000	25.826304	0.000670	20.732311
1616.450549	-3.004000	3.425500	-10.289000	25.858092	0.000669	20.759978
1617.451140	-3.001100	3.425500	-10.279000	25.816010	0.000671	20.739041
1618.449560	-3.029900	3.424500	-10.375000	25.823734	0.000669	20.740635
1619.450414	-3.008100	3.424600	-10.300000	25.828405	0.000669	20.748173
1620.450068	-2.991600	3.424900	-10.244000	25.808433	0.000669	20.757509
1621.449503	-3.017400	3.423000	-10.328000	25.799066	0.000670	20.762324
1622.449779	-3.000400	3.422900	-10.269000	25.780730	0.000667	20.753863
1623.451058	-2.985800	3.424200	-10.223000	25.750324	0.000667	20.737070
1624.450789	-2.976500	3.423500	-10.189000	25.726549	0.000667	20.742114
1625.450538	-2.971900	3.423400	-10.173000	25.725109	0.000667	20.757263
1626.451962	-2.988100	3.423100	-10.228000	25.748362	0.000664	20.739842
1627.450025	-2.990000	3.422200	-10.232000	25.717353	0.000663	20.738566
1628.452408	-2.996900	3.422400	-10.256000	25.700953	0.000665	20.745328
1629.451903	-3.010300	3.420000	-10.295000	25.702768	0.000665	20.751418
1630.452734	-2.980600	3.422400	-10.199000	25.726721	0.000662	20.748925
1631.454006	-2.992800	3.420900	-10.237000	25.743495	0.000664	20.761506
1632.452925	-3.017800	3.419000	-10.317000	25.775709	0.000662	20.740284
1633.453331	-3.005600	3.419100	-10.275000	25.800905	0.000664	20.763223
1634.452892	-3.014500	3.418800	-10.305000	25.838537	0.000663	20.768783
1635.452359	-3.007800	3.418400	-10.281000	25.860722	0.000660	20.768783
1636.459423	-2.995600	3.418800	-10.240000	25.879227	0.000661	20.777891
1637.451992	-2.979500	3.418900	-10.185000	25.879479	0.000661	20.781937
1638.454517	-2.965200	3.418800	-10.135000	25.907270	0.000660	20.748215
1639.451015	-2.991100	3.418600	-10.224000	25.892345	0.000659	20.762145
1640.452449	-2.995400	3.416500	-10.233000	25.928387	0.000659	20.769429
1641.453772	-3.008700	3.416200	-10.277000	25.932618	0.000657	20.768938
1642.453393	-3.006000	3.414700	-10.263000	25.945353	0.000658	20.767034
1643.453716	-2.972400	3.417400	-10.157000	25.966323	0.000656	20.763445
1644.453175	-3.043400	3.414600	-10.392000	25.941896	0.000658	20.792958
1645.452554	-3.001900	3.414200	-10.248000	25.910151	0.000658	20.758696
1646.455255	-2.997500	3.415200	-10.236000	25.917996	0.000655	20.780328
1647.454308	-3.002400	3.414800	-10.252000	25.888464	0.000656	20.773419
1648.452685	-2.978200	3.416000	-10.173000	25.877640	0.000655	20.772977
1649.453194	-2.973500	3.414400	-10.152000	25.879367	0.000657	20.793678
1650.456212	-3.006900	3.413700	-10.264000	25.859274	0.000654	20.774441
1651.454756	-2.985500	3.414100	-10.192000	25.880416	0.000652	20.781930
1652.457286	-2.999000	3.412800	-10.234000	25.894820	0.000653	20.778856
1653.454463	-3.014900	3.411600	-10.284000	25.904903	0.000654	20.788986
1654.455191	-2.998900	3.411500	-10.230000	25.909183	0.000652	20.778586
1655.456499	-2.998700	3.413700	-10.236000	25.930317	0.000652	20.775161
1656.455101	-2.994800	3.412600	-10.219000	25.911959	0.000650	20.785642
1657.457636	-3.030900	3.411700	-10.340000	25.894918	0.000653	20.753350
1658.460818	-2.999800	3.411800	-10.234000	25.909151	0.000651	20.762433
1659.458350	-3.028300	3.410300	-10.326000	25.932383	0.000649	20.783401
1660.459516	-2.986200	3.412100	-10.188000	25.916133	0.000649	20.773714
1661.466071	-2.994100	3.409400	-10.207000	25.872018	0.000651	20.776812
1662.462661	-3.010700	3.409000	-10.261000	25.869032	0.000649	20.780925
1663.462337	-2.999100	3.407900	-10.220000	25.848516	0.000649	20.792084
1664.461587	-2.993800	3.408800	-10.204000	25.859208	0.000649	20.799979
1665.459262	-2.987900	3.408100	-10.183000	25.865214	0.000648	20.791789
1666.459037	-3.001000	3.407900	-10.225000	25.886975	0.000648	20.770501
1667.461574	-3.018200	3.407000	-10.282000	25.862033	0.000649	20.771523
1668.465169	-2.971100	3.408200	-10.125000	25.838034	0.000646	20.784873
1669.459279	-3.031900	3.405800	-10.324000	25.787485	0.000648	20.799056
1670.462214	-3.013400	3.405700	-10.262000	25.799465	0.000645	20.791174
1671.460363	-2.984700	3.408000	-10.171000	25.769296	0.000644	20.783156
1672.460753	-3.012500	3.405300	-10.258000	25.787559	0.000644	20.786801
1673.467070	-3.031600	3.404900	-10.321000	25.810321	0.000644	20.789278
1674.461462	-3.000600	3.405500	-10.218000	25.806472	0.000643	20.803903
1675.461707	-3.005200	3.404400	-10.230000	25.818891	0.000644	20.788403
1676.462011	-2.987300	3.404300	-10.169000	25.837649	0.000646	20.802979
1677.463230	-2.994100	3.403300	-10.189000	25.850100	0.000643	20.804107
1678.462693	-2.988700	3.404400	-10.173000	25.902156	0.000642	20.799028
1679.467377	-3.001900	3.403800	-10.217000	25.879567	0.000641	20.808578
1680.472601	-2.965900	3.404000	-10.095000	25.894353	0.000642	20.782654
1681.464290	-3.012200	3.402000	-10.247000	25.897185	0.000640	20.808732
1682.466294	-2.992300	3.401800	-10.178000	25.923591	0.000640	20.785948
1683.466346	-2.973800	3.402300	-10.116000	25.967564	0.000640	20.806892
1684.465200	-3.008700	3.401400	-10.231000	25.973626	0.000638	20.798284
1685.469146	-2.994200	3.401900	-10.185000	25.937457	0.000640	20.803197
1686.463727	-3.010200	3.401600	-10.238000	25.903271	0.000639	20.810580
1687.466969	-3.011800	3.399000	-10.237000	25.906103	0.000640	20.822433
1688.468411	-2.979200	3.401200	-10.132000	25.889388	0.000637	20.800900
1689.467246	-3.002300	3.399900	-10.206000	25.864299	0.000640	20.807939
1690.466326	-2.985000	3.400500	-10.149000	25.822682	0.000637	20.795530
1691.468873	-2.993400	3.399200	-10.174000	25.802580	0.000637	20.825598
1692.468151	-3.004800	3.399400	-10.213000	25.769024	0.000638	20.811332
1693.469630	-2.998500	3.399200	-10.192000	25.794035	0.000635	20.790462
1694.471242	-2.992800	3.398700	-10.170000	25.788265	0.000636	20.814064
1695.469735	-2.983100	3.398800	-10.138000	25.827321	0.000638	20.803510
1696.469020	-2.981600	3.398200	-10.132000	25.807325	0.000636	20.807131
1697.471605	-3.013400	3.397300	-10.237000	25.777807	0.000634	20.813990
1698.470141	-3.026200	3.395100	-10.272000	25.777433	0.000634	20.806502
1699.469146	-2.984700	3.396800	-10.136000	25.765982	0.000633	20.813965
1700.470234	-2.997300	3.397000	-10.181000	25.763149	0.000632	20.822026
1701.470859	-2.985900	3.396300	-10.140000	25.744554	0.000634	20.809512
1702.470755	-3.031700	3.394600	-10.291000	25.766398	0.000631	20.812487
1703.471676	-2.982200	3.395900	-10.126000	25.796730	0.000632	20.790324
1704.471520	-3.006600	3.395000	-10.207000	25.820356	0.000631	20.820694
1705.473126	-2.989600	3.393800	-10.145000	25.788178	0.000629	20.804493
1706.473602	-2.997600	3.394600	-10.174000	25.781667	0.000629	20.843471
1707.471435	-2.989600	3.393600	-10.144000	25.786786	0.000630	20.807836
1708.472522	-3.010900	3.393300	-10.216000	25.812527	0.000629	20.791968
1709.472417	-3.003500	3.394400	-10.194000	25.840768	0.000629	20.812276
1710.475349	-3.022600	3.392500	-10.253000	25.799108	0.000628	20.815472
1711.472865	-2.980800	3.395200	-10.119000	25.806205	0.000628	20.795575
1712.473007	-2.955200	3.394800	-10.031000	25.771250	0.000627	20.819258
1713.472797	-3.004200	3.391700	-10.189000	25.791401	0.000626	20.802989
1714.473567	-3.003500	3.392200	-10.187000	25.812219	0.000625	20.814892
1715.477111	-3.001300	3.391500	-10.177000	25.858729	0.000624	20.805188
1716.474353	-2.989200	3.392100	-10.139000	25.858672	0.000624	20.804183
1717.476446	-3.019400	3.389300	-10.233000	25.870480	0.000624	20.813673
1718.477484	-2.985100	3.390400	-10.120000	25.917199	0.000624	20.785217
1719.473404	-2.997200	3.389900	-10.159000	25.912976	0.000623	20.786190
1720.478634	-2.992900	3.390800	-10.148000	25.893355	0.000622	20.778333
1721.476422	-3.004400	3.390200	-10.184000	25.891964	0.000624	20.805859
1722.474804	-2.993700	3.389600	-10.147000	25.929722	0.000623	20.799695
1723.475441	-3.006600	3.388200	-10.186000	25.943930	0.000623	20.799744
1724.478874	-2.988300	3.389300	-10.128000	25.933327	0.000622	20.798100
1725.474946	-2.969600	3.388400	-10.061000	25.922017	0.000620	20.800488
1726.476587	-2.984900	3.387900	-10.111000	25.898897	0.000620	20.801918
1727.475523	-3.008200	3.386000	-10.185000	25.910127	0.000621	20.790914
1728.475107	-2.997200	3.387400	-10.150000	25.926516	0.000620	20.773240
1729.476120	-3.019500	3.386300	-10.223000	25.934019	0.000619	20.783148
1730.475701	-2.996600	3.386000	-10.145000	25.911567	0.000616	20.791887
1731.478640	-2.997500	3.385800	-10.148000	25.925401	0.000617	20.783974
1732.475746	-3.020300	3.384400	-10.221000	25.936403	0.000618	20.791708
1733.474473	-2.985900	3.386800	-10.112000	25.937550	0.000618	20.794282
1734.477500	-2.982100	3.385900	-10.096000	25.952052	0.000617	20.784195
1735.476427	-2.980500	3.385900	-10.091000	25.930275	0.000616	20.766110
1736.476467	-2.979200	3.385200	-10.084000	25.914301	0.000617	20.790840
1737.478150	-3.025800	3.384400	-10.240000	25.913756	0.000616	20.764688
1738.475347	-3.004900	3.384600	-10.170000	25.845366	0.000617	20.781333
1739.477217	-3.005500	3.384400	-10.170000	25.863546	0.000615	20.778733
1740.478274	-3.008300	3.384000	-10.179000	25.853218	0.000615	20.761720
1741.476542	-2.981900	3.382100	-10.084000	25.831677	0.000615	20.779910
1742.476762	-3.005800	3.382800	-10.167000	25.839848	0.000615	20.791437
1743.481971	-3.010800	3.380700	-10.177000	25.840376	0.000613	20.773476
1744.478274	-2.984900	3.383100	-10.098000	25.822758	0.000615	20.763364
1745.476592	-2.972100	3.382800	-10.053000	25.791880	0.000612	20.768383
1746.479092	-2.986100	3.381900	-10.098000	25.763411	0.000611	20.763494
1747.476819	-2.994300	3.380800	-10.122000	25.734210	0.000610	20.764983
1748.478282	-3.007500	3.381600	-10.169000	25.773919	0.000611	20.776419
1749.480006	-2.997500	3.381000	-10.134000	25.777296	0.000611	20.771277
1750.476729	-2.993100	3.379300	-10.114000	25.796356	0.000610	20.766240
1751.475113	-2.986400	3.379400	-10.092000	25.847278	0.000608	20.768081
1752.478378	-3.025500	3.378700	-10.222000	25.860218	0.000607	20.765906
1753.478956	-3.014400	3.378000	-10.182000	25.888912	0.000607	20.759170
1754.478142	-2.997200	3.377500	-10.123000	25.915913	0.000608	20.760216
1755.482011	-3.009700	3.378300	-10.166000	25.947234	0.000609	20.750431
1756.478649	-2.993900	3.378100	-10.112000	25.951440	0.000606	20.772201
1757.478365	-2.989700	3.377800	-10.098000	25.974468	0.000606	20.776370
1758.479378	-3.007100	3.377100	-10.154000	25.999880	0.000608	20.759700
1759.479059	-3.011300	3.376600	-10.167000	26.017422	0.000605	20.749350
1760.477052	-2.996200	3.377100	-10.117000	26.030759	0.000605	20.775552
1761.481409	-3.029300	3.374400	-10.221000	26.020628	0.000606	20.751622
1762.483958	-3.000700	3.376500	-10.131000	25.994940	0.000603	20.768963
1763.480237	-3.007200	3.375400	-10.150000	25.988260	0.000602	20.763673
1764.479044	-3.011600	3.374900	-10.163000	25.942609	0.000603	20.753371
1765.479440	-2.999800	3.374900	-10.123000	25.961659	0.000603	20.748802
1766.477992	-2.984000	3.375600	-10.072000	25.971105	0.000602	20.755447
1767.481106	-3.009000	3.374800	-10.154000	25.965117	0.000602	20.751801
1768.478410	-2.978900	3.375300	-10.053000	25.953122	0.000600	20.753501
1769.481711	-2.988100	3.374500	-10.082000	25.935684	0.000603	20.752578
1770.483107	-2.995400	3.373900	-10.105000	25.890675	0.000601	20.753828
1771.481322	-3.020800	3.372700	-10.186000	25.894181	0.000599	20.752610
1772.480021	-3.013400	3.373000	-10.163000	25.910026	0.000598	20.778959
1773.481850	-3.005300	3.372500	-10.133000	25.963187	0.000598	20.740853
1774.480829	-3.003400	3.372400	-10.128000	25.972357	0.000598	20.742006
1775.481106	-3.011700	3.371300	-10.152000	25.964481	0.000600	20.750214
1776.482864	-2.978700	3.373100	-10.046000	25.956783	0.000598	20.751489
1777.487616	-2.989200	3.371800	-10.078000	25.968281	0.000597	20.748342
1778.480460	-2.979000	3.371200	-10.041000	25.936765	0.000595	20.748922
1779.488882	-3.007000	3.371200	-10.136000	25.933632	0.000596	20.742929
1780.485777	-2.987400	3.370300	-10.068000	25.933363	0.000595	20.745504
1781.484214	-2.997900	3.370200	-10.102000	25.901992	0.000593	20.732954
1782.486822	-3.020500	3.369000	-10.176000	25.917819	0.000593	20.750278
1783.489382	-3.027700	3.369200	-10.201000	25.942012	0.000594	20.729537
1784.486937	-2.988700	3.368800	-10.067000	25.956220	0.000594	20.739070
1785.489414	-3.016500	3.367900	-10.158000	25.961094	0.000593	20.736853
1786.491695	-2.990400	3.369000	-10.073000	25.995473	0.000593	20.735357
1787.488962	-2.993300	3.368600	-10.083000	25.993463	0.000594	20.742821
1788.491295	-2.989800	3.367200	-10.066000	26.034220	0.000590	20.751528
1789.491363	-2.989400	3.366800	-10.064000	26.040177	0.000592	20.746713
1790.487647	-2.984700	3.367300	-10.050000	26.049248	0.000589	20.724426
1791.489360	-3.002400	3.366700	-10.107000	26.037401	0.000590	20.740025
1792.492614	-2.992900	3.365900	-10.072000	26.011396	0.000591	20.741873
1793.488374	-2.996500	3.365000	-10.082000	25.957472	0.000590	20.741276
1794.492119	-3.008700	3.365300	-10.124000	25.946316	0.000589	20.725326
1795.492367	-2.989300	3.365000	-10.057000	25.910918	0.000590	20.728645
1796.490140	-2.999300	3.364800	-10.091000	25.909446	0.000587	20.713415
1797.492022	-3.025200	3.364600	-10.177000	25.944900	0.000587	20.753302
1798.490670	-2.998600	3.364600	-10.087000	25.939628	0.000586	20.721925
1799.492428	-3.006900	3.364700	-10.116000	25.970484	0.000586	20.736804
1800.495362	-3.006100	3.364200	-10.113000	26.032829	0.000589	20.729266
1801.494717	-2.989500	3.364000	-10.056000	26.040177	0.000587	20.729063
1802.492083	-3.028000	3.361900	-10.180000	26.072421	0.000585	20.728269
1803.497017	-2.991700	3.363400	-10.060000	26.071722	0.000583	20.719979
1804.493987	-3.010200	3.362400	-10.121000	26.038191	0.000584	20.735129
1805.496555	-3.038500	3.361600	-10.212000	26.022796	0.000584	20.725824
1806.495802	-2.993700	3.362900	-10.066000	25.992984	0.000584	20.721476
1807.497072	-3.012300	3.360500	-10.122000	25.992463	0.000582	20.715736
1808.494396	-2.989500	3.362900	-10.052000	26.000804	0.000582	20.720798
1809.496528	-2.995500	3.361400	-10.068000	26.016133	0.000584	20.718181
1810.495988	-3.020200	3.359800	-10.146000	26.087791	0.000580	20.726168
1811.493947	-3.016100	3.359300	-10.130000	26.090647	0.000581	20.719080
1812.496376	-2.995200	3.361300	-10.067000	26.105895	0.000581	20.735824
1813.497909	-3.017500	3.359100	-10.135000	26.131922	0.000581	20.717405
1814.496338	-2.993600	3.360100	-10.058000	26.101354	0.000581	20.722726
1815.500026	-3.003500	3.358000	-10.085000	26.081754	0.000579	20.733379
1816.496815	-2.998100	3.359200	-10.070000	26.084285	0.000580	20.727861
1817.496111	-3.014300	3.358600	-10.123000	26.082104	0.000580	20.704805
1818.500015	-2.997200	3.358000	-10.064000	26.083097	0.000579	20.740418
1819.499969	-3.010900	3.357600	-10.108000	26.056068	0.000576	20.721321
1820.497221	-3.007800	3.357800	-10.098000	26.071064	0.000578	20.722638
1821.501247	-3.007100	3.356100	-10.092000	26.060413	0.000578	20.705771
1822.498607	-3.003700	3.357800	-10.085000	26.032783	0.000576	20.704563
1823.499430	-3.012200	3.357200	-10.111000	26.053547	0.000577	20.715943
1824.501276	-2.989300	3.356700	-10.033000	26.043662	0.000580	20.733987
1825.499421	-2.990100	3.357100	-10.037000	26.050457	0.000575	20.712838
1826.498559	-2.980100	3.355100	-9.997800	26.082669	0.000577	20.725289
1827.505137	-2.979900	3.356200	-10.000000	26.101035	0.000575	20.712447
1828.503246	-2.979900	3.355100	-9.996400	26.121602	0.000571	20.701819
1829.500859	-2.999700	3.354100	-10.060000	26.099189	0.000575	20.715334
1830.503288	-3.038900	3.353000	-10.189000	26.110270	0.000574	20.731211
1831.498586	-3.008500	3.355200	-10.093000	26.114087	0.000571	20.709440
1832.500233	-2.997300	3.353600	-10.051000	26.128033	0.000572	20.728671
1833.503663	-3.013300	3.353300	-10.104000	26.101356	0.000571	20.709925
1834.502369	-3.026600	3.353500	-10.148000	26.111608	0.000571	20.712640
1835.500854	-2.998200	3.352400	-10.050000	26.129760	0.000570	20.724241
1836.506074	-2.991100	3.352800	-10.026000	26.115994	0.000569	20.709935
1837.503990	-2.996400	3.352600	-10.045000	26.111422	0.000570	20.720040
1838.500693	-2.973700	3.353400	-9.971100	26.143308	0.000569	20.709879
1839.504866	-3.004600	3.351600	-10.069000	26.127386	0.000570	20.714743
1840.503934	-3.005400	3.350400	-10.069000	26.110992	0.000569	20.710124
1841.501566	-3.013400	3.349300	-10.092000	26.131870	0.000568	20.705024
1842.504866	-3.020700	3.349400	-10.116000	26.153105	0.000566	20.710240
1843.505699	-2.995100	3.350000	-10.032000	26.155953	0.000568	20.707887
1844.502453	-3.011600	3.348800	-10.084000	26.199463	0.000566	20.706088
1845.509038	-2.988000	3.350000	-10.008000	26.206638	0.000565	20.710454
1846.510044	-2.982400	3.349400	-9.987400	26.222356	0.000566	20.713921
1847.502216	-3.013200	3.348900	-10.090000	26.220144	0.000564	20.705533
1848.507201	-2.991100	3.348400	-10.014000	26.262731	0.000564	20.699966
1849.507121	-3.006300	3.347400	-10.062000	26.280702	0.000563	20.719449
1850.503029	-3.041300	3.346100	-10.175000	26.311712	0.000563	20.707939
1851.506117	-3.018900	3.347300	-10.104000	26.282282	0.000560	20.709182
1852.510205	-2.986000	3.347500	-9.994400	26.248212	0.000562	20.707187
1853.503347	-2.996100	3.347300	-10.028000	26.219626	0.000560	20.700271
1854.507781	-3.014800	3.346900	-10.089000	26.183440	0.000560	20.690460
1855.508994	-3.004700	3.345500	-10.051000	26.169854	0.000562	20.696249
1856.507705	-2.993300	3.346000	-10.015000	26.163720	0.000559	20.728020
1857.509523	-2.998400	3.345700	-10.031000	26.151028	0.000560	20.710998
1858.514521	-3.011000	3.344700	-10.069000	26.181049	0.000558	20.700861
1859.513022	-3.005800	3.345900	-10.057000	26.172353	0.000559	20.704925
1860.512260	-2.997400	3.343800	-10.022000	26.150622	0.000558	20.672181
1861.513278	-2.996200	3.344500	-10.019000	26.165673	0.000557	20.716232
1862.508853	-3.010200	3.343500	-10.064000	26.158742	0.000555	20.715905
1863.515133	-3.000000	3.341500	-10.024000	26.167480	0.000557	20.714254
1864.513319	-3.010800	3.341700	-10.060000	26.201999	0.000553	20.714328
1865.510890	-2.989300	3.342700	-9.991600	26.212209	0.000554	20.710836
1866.514978	-3.010800	3.342600	-10.063000	26.193726	0.000554	20.697004
1867.518187	-3.008700	3.341600	-10.053000	26.150510	0.000554	20.717591
1868.511505	-2.994300	3.341600	-10.005000	26.163674	0.000554	20.706161
1869.516973	-3.000800	3.341200	-10.025000	26.162307	0.000551	20.688665
1870.515081	-2.990900	3.342400	-9.996100	26.174104	0.000553	20.677284
1871.511636	-3.010300	3.340400	-10.054000	26.207833	0.000552	20.695532
1872.514397	-2.980800	3.341600	-9.959900	26.243189	0.000550	20.704510
1873.511240	-3.018200	3.339400	-10.078000	26.285849	0.000550	20.686687
1874.514309	-3.009700	3.340800	-10.053000	26.290819	0.000550	20.715866
1875.515021	-2.999000	3.340400	-10.017000	26.254782	0.000551	20.691977
1876.512927	-2.994800	3.341200	-10.005000	26.247331	0.000549	20.688282
1877.513886	-3.017900	3.339800	-10.078000	26.266229	0.000550	20.688781
1878.517077	-2.978800	3.340800	-9.950500	26.251675	0.000549	20.686484
1879.514907	-3.019800	3.339400	-10.082000	26.234909	0.000548	20.695714
1880.514753	-3.015300	3.338900	-10.066000	26.209975	0.000548	20.689624
1881.518189	-3.018300	3.338400	-10.075000	26.228272	0.000547	20.669128
1882.514102	-2.998700	3.338200	-10.009000	26.220129	0.000548	20.698879
1883.515915	-2.986000	3.338000	-9.966500	26.209300	0.000548	20.678513
1884.520283	-2.990600	3.337000	-9.979300	26.210318	0.000545	20.668155
1885.517935	-3.003300	3.336800	-10.020000	26.263936	0.000546	20.695486
1886.517579	-3.002900	3.336000	-10.017000	26.298899	0.000547	20.694587
1887.520764	-2.992200	3.337000	-9.983400	26.306612	0.000545	20.682423
1888.518204	-3.008100	3.335800	-10.034000	26.327144	0.000544	20.701636
1889.517210	-2.992700	3.336400	-9.984400	26.334123	0.000545	20.679725
1890.519683	-2.971700	3.334900	-9.908800	26.338093	0.000544	20.674231
1891.517777	-3.000000	3.333700	-10.000000	26.328088	0.000541	20.704007
1892.517723	-3.008600	3.335100	-10.033000	26.348546	0.000542	20.673357
1893.523357	-2.984700	3.334600	-9.951700	26.328137	0.000544	20.694573
1894.516722	-3.014600	3.333400	-10.048000	26.278020	0.000543	20.679293
1895.521113	-3.001900	3.332600	-10.003000	26.251346	0.000540	20.706069
1896.524410	-3.023600	3.331700	-10.073000	26.265624	0.000539	20.686750
1897.518898	-2.998500	3.332600	-9.990700	26.212918	0.000542	20.683097
1898.517508	-2.989000	3.333200	-9.962300	26.164421	0.000541	20.700748
1899.520588	-3.031700	3.331100	-10.098000	26.166822	0.000537	20.685615
1900.518583	-2.979300	3.331000	-9.922800	26.196004	0.000538	20.686016
1901.522021	-2.990100	3.330400	-9.957700	26.222347	0.000535	20.681667
1902.521331	-3.004600	3.330200	-10.005000	26.216580	0.000536	20.690097
1903.520010	-2.987700	3.330000	-9.948600	26.230613	0.000537	20.676223
1904.521110	-2.995900	3.329200	-9.972900	26.242549	0.000536	20.679682
1905.520973	-2.978900	3.330200	-9.919200	26.248487	0.000536	20.682331
1906.521227	-3.024800	3.329100	-10.069000	26.281109	0.000533	20.665326
1907.520116	-3.000400	3.329800	-9.990200	26.273228	0.000535	20.663096
1908.522513	-2.992400	3.329900	-9.963000	26.249857	0.000533	20.685130
1909.520195	-3.007800	3.329100	-10.012000	26.240843	0.000534	20.701204
1910.523494	-3.010900	3.328700	-10.022000	26.247369	0.000535	20.667929
1911.522114	-3.014200	3.327400	-10.028000	26.264396	0.000534	20.688362
1912.520278	-3.013800	3.326700	-10.025000	26.294991	0.000534	20.670743
1913.520658	-3.007200	3.327300	-10.005000	26.296994	0.000535	20.681291
1914.521646	-3.014500	3.327000	-10.029000	26.299468	0.000533	20.667655
1915.520947	-3.007100	3.325400	-9.999200	26.329894	0.000532	20.688277
1916.520114	-3.030300	3.325900	-10.077000	26.314440	0.000532	20.683651
1917.522908	-3.017200	3.325300	-10.032000	26.329342	0.000533	20.678238
1918.521196	-3.002500	3.326400	-9.986700	26.361563	0.000532	20.662256
1919.522661	-3.007900	3.325300	-10.001000	26.351397	0.000532	20.677645
1920.522603	-2.980200	3.324100	-9.905600	26.344345	0.000533	20.672927
1921.522897	-3.001400	3.324500	-9.977200	26.292059	0.000531	20.679176
1922.522080	-2.988600	3.323900	-9.932300	26.286488	0.000529	20.706771
1923.524576	-2.998600	3.324100	-9.966900	26.282332	0.000528	20.686472
1924.523591	-2.982400	3.324100	-9.911300	26.245505	0.000527	20.687396
1925.523662	-2.995700	3.324000	-9.954800	26.197217	0.000527	20.682018
1926.523740	-3.003700	3.322200	-9.977500	26.172208	0.000526	20.686760
1927.520993	-3.006600	3.322900	-9.989700	26.112706	0.000526	20.666798
1928.523288	-3.005900	3.322500	-9.986200	26.109053	0.000528	20.681147
1929.525346	-3.003800	3.322600	-9.979600	26.100577	0.000524	20.672629
1930.524551	-3.017700	3.321000	-10.021000	26.162086	0.000525	20.686546
1931.523731	-2.988900	3.321500	-9.926700	26.184704	0.000525	20.681772
1932.527469	-2.992600	3.320700	-9.937200	26.235755	0.000524	20.681390
1933.526587	-2.994100	3.321500	-9.944200	26.259640	0.000523	20.675994
1934.526360	-3.014100	3.318800	-10.002000	26.284021	0.000522	20.692437
1935.528419	-3.000200	3.320100	-9.960100	26.248075	0.000521	20.688555
1936.526026	-2.990800	3.318800	-9.924800	26.252175	0.000519	20.680821
1937.528667	-3.024000	3.318600	-10.034000	26.293136	0.000519	20.682630
1938.529860	-3.006900	3.319000	-9.978800	26.297235	0.000519	20.691966
1939.531037	-3.015400	3.318100	-10.004000	26.328588	0.000517	20.692655
1940.530437	-3.038700	3.317700	-10.080000	26.346026	0.000519	20.672721
1941.535259	-3.022300	3.318700	-10.029000	26.369480	0.000517	20.694397
1942.530550	-2.996500	3.317000	-9.938600	26.389630	0.000516	20.685251
1943.532193	-2.995300	3.317900	-9.937300	26.367089	0.000518	20.675872
1944.535203	-3.001000	3.317000	-9.953800	26.389378	0.000514	20.679782
1945.531718	-3.000800	3.316400	-9.950700	26.403783	0.000514	20.700899
1946.531259	-3.011900	3.315600	-9.984800	26.412641	0.000516	20.689413
1947.532995	-3.023300	3.313800	-10.017000	26.430886	0.000515	20.685465
1948.531896	-2.984200	3.315700	-9.892700	26.429446	0.000514	20.706305
1949.536164	-2.967400	3.317200	-9.842900	26.417848	0.000514	20.690379
1950.533808	-2.996700	3.315200	-9.933500	26.403053	0.000513	20.686888
1951.534391	-2.995200	3.314500	-9.926600	26.388893	0.000512	20.682139
1952.534444	-3.000900	3.315300	-9.947500	26.397776	0.000513	20.684429
1953.536996	-3.006900	3.313300	-9.961800	26.431547	0.000512	20.699407
1954.538612	-2.983000	3.313200	-9.881400	26.440626	0.000512	20.697626
1955.538291	-3.003900	3.312000	-9.948700	26.431355	0.000510	20.691627
1956.535159	-3.017300	3.311300	-9.989400	26.399827	0.000511	20.689810
1957.537489	-3.011700	3.312700	-9.975000	26.450979	0.000510	20.698075
1958.537310	-2.990400	3.313900	-9.908800	26.453747	0.000510	20.682838
1959.534630	-3.007900	3.311900	-9.960800	26.414704	0.000512	20.685796
1960.541066	-3.012500	3.311000	-9.973000	26.388652	0.000509	20.701339
1961.542101	-3.018300	3.312000	-9.994700	26.331199	0.000507	20.703341
1962.537653	-2.994100	3.310700	-9.911800	26.296205	0.000508	20.703260
1963.539487	-3.003300	3.310700	-9.942300	26.302119	0.000508	20.692606
1964.541569	-3.009800	3.309600	-9.960600	26.302290	0.000504	20.698469
1965.538122	-3.004800	3.309900	-9.944400	26.283190	0.000505	20.690654
1966.540525	-2.981300	3.310000	-9.867600	26.263619	0.000504	20.689477
1967.540850	-2.974700	3.309900	-9.844200	26.248177	0.000504	20.707626
1968.541748	-2.980300	3.309700	-9.862400	26.214174	0.000504	20.686256
1969.540122	-2.993200	3.308800	-9.903600	26.239279	0.000504	20.688725
1970.544060	-3.012600	3.307400	-9.963600	26.252270	0.000504	20.703204
1971.539640	-2.995300	3.307700	-9.906800	26.195894	0.000503	20.694914
1972.541858	-3.011200	3.306600	-9.955600	26.171430	0.000501	20.684556
1973.540427	-3.002400	3.307800	-9.930000	26.179851	0.000501	20.715305
1974.539811	-3.011300	3.305800	-9.953600	26.222097	0.000500	20.687580
1975.542368	-3.002300	3.305700	-9.923500	26.256412	0.000500	20.693141
1976.543771	-2.964000	3.306800	-9.800200	26.252802	0.000497	20.692358
1977.539825	-2.981800	3.305400	-9.854800	26.247276	0.000499	20.691072
1978.543149	-2.990900	3.305700	-9.886000	26.232342	0.000498	20.695031
1979.541992	-3.020900	3.304200	-9.979900	26.268085	0.000498	20.696811
1980.539875	-2.979000	3.304700	-9.843900	26.276896	0.000497	20.692389
1981.541876	-2.986200	3.304300	-9.866200	26.336417	0.000497	20.699576
1982.547647	-3.001300	3.303000	-9.912000	26.374803	0.000495	20.704490
1983.540369	-3.001600	3.303300	-9.914400	26.361698	0.000497	20.701750
1984.544457	-2.999600	3.302300	-9.904500	26.339199	0.000497	20.706165
1985.545554	-3.004600	3.301600	-9.918200	26.329414	0.000495	20.685424
1986.543328	-2.998000	3.302100	-9.898300	26.279420	0.000492	20.710099
1987.544158	-3.010100	3.300700	-9.933800	26.220448	0.000495	20.692561
1988.546154	-2.989900	3.301600	-9.870800	26.198889	0.000493	20.691760
1989.546367	-2.994100	3.302200	-9.884400	26.208186	0.000493	20.705845
1990.546790	-3.003600	3.301700	-9.915200	26.234260	0.000493	20.704072
1991.548281	-3.013500	3.300600	-9.945700	26.252092	0.000490	20.688325
1992.545194	-3.020000	3.299200	-9.961000	26.286112	0.000489	20.689797
1993.546129	-3.004900	3.300400	-9.916000	26.353929	0.000490	20.712909
1994.548790	-2.988000	3.302100	-9.865600	26.368928	0.000489	20.724191
1995.546045	-2.996900	3.300900	-9.891000	26.397640	0.000490	20.688086
1996.549706	-2.992700	3.300100	-9.874500	26.376183	0.000490	20.727215
1997.546412	-3.011800	3.300000	-9.937700	26.375987	0.000489	20.705206
1998.545180	-2.999800	3.299200	-9.895400	26.367121	0.000489	20.705304
1999.547963	-2.999400	3.299100	-9.894300	26.327019	0.000487	20.701511
2000.549151	-3.007200	3.297000	-9.912700	26.351063	0.000487	20.702442
2001.545351	-3.005400	3.298000	-9.910200	26.354016	0.000486	20.694029
2002.549182	-3.000000	3.296900	-9.888700	26.399656	0.000485	20.720461
2003.545954	-2.990800	3.297500	-9.861100	26.435443	0.000485	20.687675
2004.546915	-3.026700	3.295600	-9.972500	26.403504	0.000484	20.717215
2005.547203	-3.003400	3.296100	-9.898900	26.366265	0.000482	20.706340
2006.547907	-2.984900	3.296300	-9.838300	26.360799	0.000483	20.707485
2007.549336	-3.000300	3.294400	-9.883500	26.423674	0.000484	20.722315
2008.550721	-3.007400	3.294200	-9.906400	26.416311	0.000480	20.721553
2009.548569	-3.007700	3.295200	-9.910200	26.476111	0.000481	20.705792
2010.546966	-2.994500	3.293900	-9.861800	26.520484	0.000481	20.725740
2011.550045	-2.987600	3.294300	-9.840900	26.567214	0.000480	20.703959
2012.546040	-2.974600	3.295600	-9.802800	26.570198	0.000479	20.719287
2013.546788	-2.971000	3.293400	-9.784000	26.580568	0.000478	20.704580
2014.549324	-3.000800	3.293500	-9.881900	26.599239	0.000478	20.732835
2015.549467	-2.997200	3.292200	-9.866200	26.582185	0.000478	20.712371
2016.548063	-3.013500	3.292100	-9.919900	26.573720	0.000478	20.743217
2017.551469	-3.000100	3.292600	-9.876500	26.585585	0.000476	20.722902
2018.550117	-3.015400	3.293000	-9.927700	26.599019	0.000475	20.739726
2019.547837	-3.021000	3.290900	-9.941400	26.590945	0.000475	20.739196
2020.550822	-3.005900	3.290400	-9.889500	26.585071	0.000474	20.709108
2021.551173	-3.015000	3.289800	-9.918500	26.569792	0.000472	20.731683
2022.549170	-2.998800	3.291400	-9.869100	26.564806	0.000473	20.725722
2023.550814	-3.028900	3.289800	-9.963400	26.571281	0.000472	20.723221
2024.553071	-3.022100	3.288100	-9.936100	26.558619	0.000471	20.744633
2025.552546	-2.986300	3.288700	-9.820700	26.590798	0.000472	20.708226
2026.555231	-2.987300	3.289200	-9.825200	26.579373	0.000470	20.719027
2027.557033	-3.011400	3.288000	-9.900400	26.565069	0.000471	20.708915
2028.551314	-3.016100	3.287000	-9.912900	26.532651	0.000473	20.719951
2029.555327	-3.009200	3.288100	-9.893700	26.543402	0.000468	20.729811
2030.556967	-3.014600	3.285500	-9.903800	26.598443	0.000471	20.718757
2031.552742	-3.009800	3.287500	-9.891700	26.618896	0.000469	20.724619
2032.555725	-2.996900	3.286900	-9.849800	26.622425	0.000468	20.713467
2033.556270	-3.006700	3.286100	-9.879100	26.620182	0.000468	20.725912
2034.554651	-3.000600	3.286000	-9.859400	26.599337	0.000468	20.722027
2035.557064	-2.983100	3.285700	-9.800200	26.594743	0.000468	20.709821
2036.561703	-2.995800	3.285700	-9.842500	26.584789	0.000467	20.734904
2037.558410	-3.015600	3.284500	-9.903700	26.557081	0.000465	20.719853
2038.562001	-3.004700	3.286000	-9.871700	26.594166	0.000463	20.710190
2039.562859	-3.004600	3.284400	-9.866200	26.586424	0.000462	20.736073
2040.559773	-2.982900	3.285300	-9.799100	26.603624	0.000463	20.729656
2041.561660	-2.989300	3.283600	-9.814200	26.651881	0.000465	20.731226
2042.560669	-2.996800	3.282300	-9.835600	26.692142	0.000463	20.739934
2043.561855	-2.991700	3.284700	-9.826800	26.711014	0.000461	20.736621
2044.561555	-2.988900	3.283900	-9.814600	26.726602	0.000459	20.732852
2045.563071	-2.999700	3.281400	-9.841800	26.705575	0.000462	20.743955
2046.561345	-2.980200	3.283100	-9.782900	26.723619	0.000458	20.736017
2047.560636	-3.022700	3.279500	-9.910100	26.728433	0.000459	20.723313
2048.562688	-2.966900	3.281900	-9.736000	26.690444	0.000458	20.730640
2049.559053	-3.034800	3.280600	-9.955200	26.663323	0.000458	20.745575
2050.561731	-3.017500	3.278900	-9.893000	26.642864	0.000456	20.738283
2051.562964	-3.016100	3.279600	-9.890500	26.623103	0.000456	20.746393
2052.560442	-3.006200	3.279700	-9.858500	26.643905	0.000455	20.721311
2053.562335	-3.013500	3.279700	-9.882100	26.688442	0.000455	20.746646
2054.562680	-3.010200	3.278900	-9.869300	26.726540	0.000455	20.738954
2055.563175	-3.009700	3.277500	-9.864000	26.708349	0.000454	20.750538
2056.564720	-3.023200	3.276200	-9.903300	26.669172	0.000453	20.725849
2057.565309	-3.039000	3.277000	-9.956900	26.613890	0.000453	20.761314
2058.563426	-3.013500	3.277400	-9.874500	26.568290	0.000453	20.745346
2059.566410	-3.009400	3.276400	-9.858400	26.514939	0.000452	20.745771
2060.565030	-3.007800	3.277300	-9.855700	26.498324	0.000451	20.750408
2061.564826	-3.007400	3.276400	-9.852500	26.485465	0.000451	20.722782
2062.566223	-3.003400	3.275300	-9.836000	26.505099	0.000451	20.752477
2063.564841	-3.010200	3.276800	-9.862900	26.537280	0.000450	20.751159
2064.572666	-3.023800	3.274400	-9.900000	26.542714	0.000450	20.741922
2065.568026	-3.001300	3.274800	-9.827300	26.566330	0.000450	20.753808
2066.567332	-3.017700	3.273500	-9.877300	26.585337	0.000447	20.758690
2067.564186	-3.014300	3.273200	-9.864800	26.619550	0.000448	20.746140
2068.569114	-3.002100	3.274700	-9.829500	26.569828	0.000448	20.759694
2069.566073	-2.996600	3.274100	-9.810000	26.585442	0.000445	20.772072
2070.565686	-3.016600	3.273200	-9.872900	26.608946	0.000446	20.772465
2071.569528	-3.018800	3.272600	-9.877100	26.642319	0.000444	20.742002
2072.569693	-2.981200	3.273100	-9.756500	26.692030	0.000443	20.756417
2073.569276	-3.004700	3.272400	-9.831600	26.744350	0.000442	20.748799
2074.570863	-3.007400	3.270400	-9.833900	26.731127	0.000443	20.756368
2075.567678	-2.976300	3.271100	-9.734600	26.705732	0.000444	20.746959
2076.576246	-2.986400	3.270800	-9.766800	26.713823	0.000442	20.762206
2077.574363	-2.990000	3.271100	-9.780000	26.710602	0.000443	20.757071
2078.571439	-2.995400	3.271700	-9.799100	26.726533	0.000440	20.762181
2079.570443	-3.007200	3.269200	-9.830400	26.738917	0.000439	20.741915
2080.571352	-2.998400	3.268800	-9.799400	26.747357	0.000438	20.753720
2081.573116	-3.009500	3.267600	-9.832700	26.776523	0.000439	20.744637
2082.570773	-2.975300	3.269200	-9.725000	26.801420	0.000439	20.767299
2083.572875	-2.981200	3.270200	-9.747400	26.785386	0.000437	20.771566
2084.571529	-2.976300	3.270700	-9.733500	26.789208	0.000435	20.755968
2085.577727	-2.989800	3.268300	-9.770400	26.787346	0.000436	20.763105
2086.577018	-2.998800	3.267000	-9.795500	26.787873	0.000435	20.766006
2087.574915	-2.988700	3.267300	-9.762400	26.801696	0.000436	20.785594
2088.574647	-3.005800	3.266200	-9.815400	26.791670	0.000434	20.774091
2089.575069	-3.004300	3.266200	-9.811500	26.796900	0.000434	20.776505
2090.573782	-3.008900	3.267400	-9.828100	26.804323	0.000433	20.778752
2091.576872	-3.011300	3.265300	-9.832100	26.805518	0.000432	20.775686
2092.576497	-3.015600	3.266000	-9.847600	26.797127	0.000431	20.780526
2093.575407	-3.001600	3.265500	-9.801100	26.779507	0.000433	20.753801
2094.575700	-3.004900	3.266200	-9.813300	26.775979	0.000430	20.764004
2095.576912	-2.970400	3.266700	-9.701900	26.771416	0.000431	20.761314
2096.575994	-3.019900	3.264100	-9.856400	26.766277	0.000429	20.781752
2097.574955	-3.023200	3.263200	-9.864800	26.762676	0.000429	20.774812
2098.577200	-2.983900	3.263500	-9.737400	26.736266	0.000426	20.762483
2099.576594	-2.998800	3.263600	-9.785400	26.717205	0.000428	20.770822
2100.577526	-2.996600	3.263100	-9.777200	26.702480	0.000429	20.786364
2101.581733	-2.991400	3.262400	-9.757000	26.733362	0.000425	20.773315
2102.578056	-2.991100	3.262800	-9.758200	26.722166	0.000427	20.776757
2103.575866	-3.005100	3.261100	-9.799100	26.712667	0.000426	20.765785
2104.577807	-3.010500	3.261300	-9.817800	26.714791	0.000425	20.777878
2105.581667	-3.005800	3.259600	-9.797000	26.744332	0.000424	20.780077
2106.578349	-3.004200	3.260800	-9.795100	26.744632	0.000421	20.777534
2107.578117	-2.971500	3.260300	-9.686900	26.782961	0.000422	20.779560
2108.579791	-2.990600	3.261500	-9.752400	26.768188	0.000422	20.779880
2109.579995	-2.989400	3.260000	-9.744100	26.764569	0.000421	20.780983
2110.577990	-3.010000	3.259600	-9.809900	26.773131	0.000420	20.786746
2111.581882	-2.977600	3.258700	-9.702500	26.776261	0.000421	20.795583
2112.578675	-3.025200	3.258100	-9.855100	26.766351	0.000419	20.779455
2113.579697	-3.001600	3.257900	-9.778100	26.790549	0.000418	20.797620
2114.581439	-2.999300	3.257100	-9.767600	26.788271	0.000417	20.786321
2115.579669	-3.016100	3.255800	-9.819000	26.783538	0.000419	20.783933
2116.580694	-3.028900	3.255900	-9.860300	26.791751	0.000416	20.816846
2117.584942	-3.008200	3.257200	-9.796600	26.811753	0.000416	20.776266
2118.582132	-2.997000	3.255300	-9.754400	26.834860	0.000415	20.792861
2119.581795	-3.004200	3.254800	-9.777600	26.780432	0.000414	20.795035
2120.585099	-3.010300	3.255300	-9.796700	26.802401	0.000415	20.785829
2121.583268	-2.992000	3.253200	-9.732400	26.836844	0.000413	20.796753
2122.581455	-3.009500	3.254700	-9.794300	26.874674	0.000412	20.799229
2123.583614	-3.015500	3.254400	-9.812000	26.875666	0.000412	20.793588
2124.581205	-2.989900	3.252900	-9.724600	26.899869	0.000411	20.803226
2125.580832	-2.975200	3.253400	-9.678600	26.908528	0.000410	20.804346
2126.585655	-2.981500	3.253100	-9.698400	26.948186	0.000410	20.791593
2127.584611	-3.017500	3.251100	-9.809100	26.959079	0.000410	20.796858
2128.583062	-2.976800	3.253800	-9.683900	26.994890	0.000409	20.801101
2129.587099	-2.990400	3.250600	-9.719600	27.040667	0.000409	20.803514
2130.581777	-3.006700	3.251200	-9.774900	27.070450	0.000405	20.790318
2131.584367	-3.010900	3.251300	-9.788500	27.093552	0.000407	20.822560
2132.586406	-2.998900	3.250400	-9.746100	27.108142	0.000405	20.819217
2133.583678	-3.009000	3.249000	-9.775600	27.117480	0.000406	20.817703
2134.580972	-2.994600	3.251400	-9.734900	27.063678	0.000403	20.809586
2135.589025	-2.994900	3.248900	-9.729300	27.076603	0.000404	20.788446
2136.582668	-2.977200	3.248600	-9.670300	27.072807	0.000403	20.824457
2137.583798	-3.001000	3.248800	-9.748700	27.073303	0.000401	20.821637
2138.587633	-3.006500	3.248300	-9.765000	27.051518	0.000401	20.820590
2139.581921	-2.997000	3.247800	-9.732600	27.038267	0.000401	20.801101
2140.582850	-2.990300	3.248100	-9.711400	27.031446	0.000399	20.807043
2141.588799	-3.005100	3.246800	-9.754600	27.025237	0.000401	20.823558
2142.582924	-3.003300	3.245100	-9.745500	27.034698	0.000402	20.811736
2143.583631	-2.995200	3.246500	-9.723700	27.061118	0.000398	20.820762
2144.593976	-3.012700	3.244400	-9.772800	27.018318	0.000398	20.820393
2145.586044	-3.014900	3.244500	-9.780100	26.988166	0.000397	20.816625
2146.584170	-3.008500	3.244500	-9.760600	26.987615	0.000395	20.822708
2147.586221	-2.977600	3.245300	-9.662100	26.973176	0.000397	20.826680
2148.586426	-3.002000	3.243800	-9.736000	26.970647	0.000395	20.813706
2149.583143	-2.985700	3.244800	-9.686800	26.987475	0.000392	20.813084
2150.589932	-2.996600	3.244400	-9.720300	26.966030	0.000394	20.812382
2151.583585	-2.992500	3.242800	-9.703200	26.974192	0.000393	20.805417
2152.583585	-2.997800	3.241500	-9.716000	26.997848	0.000394	20.822093
2153.583584	-2.981600	3.242200	-9.665000	27.004149	0.000390	20.810412
2154.586257	-2.997500	3.241500	-9.716100	27.008790	0.000390	20.812234
2155.585721	-2.994700	3.241500	-9.705600	27.055003	0.000390	20.841164
2156.585034	-2.971400	3.242200	-9.631200	27.040907	0.000390	20.824144
2157.585763	-2.989100	3.240900	-9.685900	27.100937	0.000392	20.829514
2158.586388	-2.999400	3.239000	-9.714000	27.098818	0.000387	20.835917
2159.584902	-2.972900	3.241000	-9.634700	27.137826	0.000391	20.843854
2160.590000	-2.996500	3.238900	-9.704500	27.150684	0.000388	20.821226
2161.586177	-3.006800	3.237800	-9.733900	27.139191	0.000389	20.836693
2162.587328	-2.995000	3.237800	-9.696200	27.112165	0.000385	20.852659
2163.587654	-3.018500	3.237400	-9.771300	27.081674	0.000386	20.828633
2164.587137	-3.013400	3.237300	-9.754200	27.099645	0.000386	20.837697
2165.588352	-2.994300	3.237800	-9.694300	27.107954	0.000385	20.808596
2166.589079	-3.003400	3.237000	-9.720800	27.095947	0.000385	20.830185
2167.589045	-3.017800	3.235500	-9.761800	27.098622	0.000385	20.837143
2168.590029	-2.990700	3.235100	-9.674000	27.067034	0.000383	20.796840
2169.589343	-3.007600	3.235600	-9.730200	27.101133	0.000382	20.809323
2170.588578	-2.980000	3.236600	-9.643700	27.132842	0.000382	20.811342
2171.589638	-3.018800	3.233300	-9.759800	27.140061	0.000380	20.821921
2172.589850	-3.009700	3.234600	-9.733700	27.145358	0.000380	20.826775
2173.590889	-3.004000	3.234800	-9.715900	27.131306	0.000381	20.820228
2174.590180	-2.991000	3.234600	-9.673900	27.153341	0.000378	20.817734
2175.591774	-3.010000	3.232400	-9.728000	27.140410	0.000380	20.802832
2176.589410	-3.008800	3.233000	-9.727200	27.174335	0.000378	20.818935
2177.591249	-3.008500	3.232600	-9.724900	27.177415	0.000377	20.822507
2178.591475	-3.005400	3.232200	-9.712300	27.186201	0.000377	20.800524
2179.590808	-2.984000	3.232300	-9.645300	27.226062	0.000374	20.814064
2180.590955	-2.998400	3.231300	-9.686500	27.200710	0.000374	20.811325
2181.590860	-3.005800	3.230600	-9.708400	27.151909	0.000375	20.794009
2182.591267	-2.985300	3.230200	-9.642100	27.156274	0.000374	20.814046
2183.590901	-3.018700	3.229000	-9.745100	27.151738	0.000374	20.790044
2184.591291	-3.009300	3.228300	-9.714100	27.111763	0.000373	20.806263
2185.591301	-2.997400	3.229300	-9.678800	27.105488	0.000370	20.790469
2186.591286	-3.001300	3.227600	-9.686100	27.103511	0.000372	20.815033
2187.590803	-2.984700	3.227800	-9.631800	27.075510	0.000370	20.806313
2188.593982	-2.973800	3.228300	-9.599500	27.063185	0.000370	20.792495
2189.590066	-2.993900	3.226700	-9.659500	27.101754	0.000369	20.783395
2190.594807	-2.991300	3.226800	-9.651600	27.122173	0.000368	20.793500
2191.592483	-2.984600	3.226500	-9.628700	27.177803	0.000365	20.821000
2192.592522	-2.978600	3.226100	-9.607600	27.180282	0.000368	20.790304
2193.592890	-3.001400	3.225500	-9.680300	27.211720	0.000366	20.789682
2194.591707	-3.007500	3.225800	-9.700900	27.188279	0.000367	20.785544
2195.594459	-3.006300	3.224300	-9.692100	27.132430	0.000366	20.787220
2196.595403	-2.986100	3.223400	-9.623500	27.131829	0.000365	20.806530
2197.595269	-2.979500	3.224200	-9.604900	27.117141	0.000364	20.785119
2198.596390	-2.996000	3.221900	-9.651000	27.112126	0.000363	20.792878
2199.598300	-2.999100	3.221200	-9.659500	27.076969	0.000362	20.795452
2200.595553	-2.998500	3.221500	-9.658400	27.048583	0.000361	20.774965
2201.598217	-2.990400	3.221500	-9.632100	27.045178	0.000360	20.794300
2202.598909	-2.995600	3.221100	-9.648000	27.039318	0.000362	20.786510
2203.598384	-2.992000	3.221100	-9.636800	27.010361	0.000361	20.788684
2204.599490	-3.019600	3.219600	-9.720400	26.980056	0.000360	20.762001
2205.598164	-3.007300	3.220300	-9.683000	26.956847	0.000358	20.788923
2206.598454	-3.014000	3.219700	-9.702400	26.992340	0.000358	20.790002
2207.598161	-2.991400	3.220800	-9.633000	26.973926	0.000360	20.794719
2208.599611	-2.989400	3.218400	-9.619900	26.977024	0.000358	20.760375
2209.598592	-2.980800	3.219400	-9.595200	26.998438	0.000356	20.771952
2210.599754	-3.007000	3.218300	-9.676100	27.029801	0.000355	20.800173
2211.599666	-3.031600	3.215300	-9.746800	27.028858	0.000355	20.783578
2212.597045	-3.003800	3.215800	-9.657600	27.006894	0.000355	20.783774
2213.598465	-2.987600	3.217400	-9.611600	26.962027	0.000353	20.786546
2214.602865	-3.015700	3.215900	-9.696200	26.941776	0.000354	20.774242
2215.598820	-3.012000	3.216100	-9.685500	26.964482	0.000352	20.769100
2216.598790	-3.012400	3.216000	-9.686600	26.933987	0.000351	20.766410
2217.600742	-3.008800	3.215000	-9.672400	26.905394	0.000349	20.764685
2218.599072	-2.992900	3.217100	-9.626900	26.887622	0.000348	20.792334
2219.599155	-2.978900	3.214500	-9.574200	26.908370	0.000350	20.765307
2220.600882	-2.989200	3.215000	-9.609300	26.919191	0.000347	20.767179
2221.599052	-2.990100	3.213300	-9.607500	26.994243	0.000348	20.774372
2222.599065	-3.022500	3.211600	-9.705900	27.025355	0.000346	20.790961
2223.602469	-3.010500	3.211600	-9.666900	27.058310	0.000345	20.768152
2224.601263	-2.982800	3.211300	-9.577100	27.070348	0.000344	20.773620
2225.599379	-3.013600	3.211900	-9.676800	27.054049	0.000344	20.762444
2226.603568	-3.007000	3.210500	-9.653500	27.004016	0.000340	20.767130
2227.601521	-2.989400	3.210600	-9.596900	26.978708	0.000343	20.766810
2228.602824	-3.012900	3.208200	-9.664800	26.947319	0.000341	20.772229
2229.607125	-3.001400	3.209700	-9.632400	26.952904	0.000341	20.773578
2230.601406	-2.961400	3.210900	-9.507100	26.971293	0.000339	20.754137
2231.603786	-2.983100	3.208800	-9.570700	26.949861	0.000340	20.764829
2232.608231	-2.994600	3.207400	-9.604200	26.942831	0.000340	20.757759
2233.605112	-3.025300	3.206600	-9.700200	26.960958	0.000340	20.760814
2234.604324	-3.010400	3.209200	-9.660200	26.976860	0.000337	20.765426
2235.613230	-2.984500	3.206800	-9.569900	27.036318	0.000338	20.772113
2236.604377	-2.988900	3.206700	-9.583500	27.017759	0.000338	20.749655
2237.606785	-3.001000	3.205500	-9.619000	27.057842	0.000336	20.763887
2238.608936	-3.002100	3.209300	-9.633600	27.088836	0.000337	20.754755
2239.604734	-3.002700	3.205900	-9.624700	27.127673	0.000335	20.759202
2240.607114	-3.012900	3.202400	-9.647200	27.165957	0.000336	20.783957
2241.613630	-3.007900	3.203900	-9.635600	27.190031	0.000334	20.733726
2242.606863	-3.010100	3.204600	-9.644800	27.182482	0.000335	20.733719
2243.605278	-3.018800	3.201900	-9.663600	27.134176	0.000334	20.762423
2244.610276	-3.010500	3.203800	-9.643700	27.150309	0.000333	20.751148
2245.610259	-2.981500	3.202300	-9.546500	27.181919	0.000332	20.748327
2246.607769	-3.022500	3.200800	-9.673400	27.216724	0.000331	20.771955
2247.614094	-2.989800	3.200900	-9.569300	27.259701	0.000331	20.764923
2248.612262	-2.989900	3.201100	-9.567700	27.285229	0.000332	20.740814
2249.608034	-3.019600	3.198800	-9.657500	27.275215	0.000330	20.773890
2250.613183	-3.007900	3.198500	-9.619800	27.233959	0.000331	20.758945
2251.607603	-3.008800	3.199800	-9.626600	27.246233	0.000331	20.752799
2252.609920	-2.978400	3.199600	-9.528400	27.276953	0.000330	20.750509
2253.610767	-3.003900	3.197900	-9.605500	27.301611	0.000329	20.732163
2254.609802	-3.025200	3.197500	-9.672400	27.299579	0.000328	20.750983
2255.609385	-3.005600	3.196600	-9.606900	27.359019	0.000328	20.757196
2256.609658	-3.018900	3.196500	-9.648200	27.382463	0.000327	20.757073
2257.609728	-3.009600	3.195800	-9.616300	27.371183	0.000324	20.744776
2258.608044	-3.036800	3.196400	-9.704700	27.407726	0.000325	20.756409
2259.614432	-3.016500	3.195400	-9.638100	27.441741	0.000325	20.758861
2260.617194	-3.016800	3.194500	-9.635000	27.408142	0.000324	20.760146
2261.609717	-3.008900	3.194900	-9.611600	27.377342	0.000321	20.744334
2262.615672	-3.005900	3.194100	-9.600300	27.323430	0.000324	20.738464
2263.609782	-2.992800	3.194900	-9.561300	27.336611	0.000323	20.717583
2264.609703	-3.008600	3.192900	-9.605800	27.337756	0.000320	20.727270
2265.612673	-3.018900	3.191500	-9.633700	27.337382	0.000320	20.759138
2266.612545	-3.003500	3.192300	-9.586900	27.389352	0.000320	20.726069
2267.611159	-3.012600	3.191200	-9.612600	27.414656	0.000322	20.722602
2268.614109	-2.999300	3.191600	-9.572500	27.434923	0.000319	20.743940
2269.614010	-3.025000	3.191500	-9.653600	27.391153	0.000318	20.726933
2270.612463	-2.984400	3.190800	-9.521200	27.369196	0.000318	20.720965
2271.616832	-2.992300	3.190500	-9.546100	27.312512	0.000318	20.741706
2272.616185	-3.003400	3.191600	-9.583300	27.260092	0.000316	20.733073
2273.613019	-2.988300	3.189900	-9.531700	27.226752	0.000314	20.729409
2274.614769	-2.983700	3.189000	-9.513700	27.213172	0.000315	20.722862
2275.616809	-3.002100	3.188200	-9.569900	27.224346	0.000316	20.734576
2276.613714	-2.998100	3.187200	-9.554700	27.240552	0.000315	20.725271
2277.619793	-3.034700	3.185600	-9.666400	27.241795	0.000314	20.747386
2278.617726	-3.002400	3.185500	-9.562200	27.250500	0.000315	20.746184
2279.614596	-3.010600	3.187300	-9.595400	27.294767	0.000313	20.731443
2280.620212	-3.032200	3.185200	-9.656900	27.345974	0.000312	20.730796
2281.617360	-2.995800	3.185800	-9.542300	27.307355	0.000312	20.736992
2282.616143	-2.969500	3.185100	-9.457000	27.326705	0.000312	20.719472
2283.621389	-3.006000	3.182800	-9.566900	27.348809	0.000311	20.728432
2284.618186	-2.989500	3.182100	-9.511700	27.356051	0.000311	20.726234
2285.620486	-2.982500	3.183000	-9.492500	27.405921	0.000310	20.734678
2286.619483	-3.003000	3.180200	-9.548700	27.440945	0.000309	20.717755
2287.619111	-2.990600	3.182800	-9.518400	27.458854	0.000310	20.722971
2288.617711	-3.011700	3.180700	-9.578400	27.452110	0.000309	20.718081
2289.622190	-2.996000	3.182100	-9.533100	27.400834	0.000308	20.724818
2290.624137	-3.003300	3.180000	-9.549600	27.347158	0.000307	20.734358
2291.619150	-3.003300	3.179500	-9.547600	27.383378	0.000307	20.723378
2292.621857	-3.027000	3.179500	-9.622800	27.409349	0.000304	20.727221
2293.618625	-3.006400	3.178200	-9.554200	27.406668	0.000304	20.717885
2294.620209	-3.037700	3.176900	-9.649300	27.427039	0.000304	20.721309
2295.620732	-3.005100	3.176800	-9.545800	27.391513	0.000305	20.721604
2296.619172	-3.017200	3.178000	-9.587700	27.401061	0.000303	20.714614
2297.623752	-3.014900	3.176800	-9.576800	27.418158	0.000302	20.719486
2298.620989	-3.018200	3.175900	-9.584500	27.453873	0.000300	20.698517
2299.620949	-2.995100	3.175700	-9.510600	27.478128	0.000301	20.738569
2300.621763	-3.010500	3.174400	-9.554800	27.537387	0.000300	20.703831
2301.624266	-2.998400	3.174500	-9.518100	27.524387	0.000299	20.716357
2302.623924	-2.995500	3.173400	-9.505100	27.516522	0.000297	20.716030
2303.623152	-3.001800	3.172700	-9.522900	27.494079	0.000298	20.728538
2304.627220	-2.979000	3.173400	-9.452100	27.454937	0.000297	20.741316
2305.625678	-2.978800	3.172100	-9.447200	27.476715	0.000298	20.723870
2306.627709	-3.021600	3.170200	-9.577800	27.483630	0.000296	20.700006
2307.629460	-3.007300	3.170300	-9.533000	27.475577	0.000295	20.707077
2308.625415	-3.001100	3.170500	-9.513700	27.514295	0.000296	20.722324
2309.627086	-3.003300	3.168900	-9.516500	27.522453	0.000296	20.727688
2310.635042	-2.994500	3.169600	-9.490700	27.538752	0.000295	20.708998
2311.628945	-2.975400	3.168700	-9.427400	27.535697	0.000294	20.708295
2312.626812	-3.021500	3.167500	-9.570100	27.568123	0.000293	20.711523
2313.634839	-2.971200	3.167100	-9.408600	27.520470	0.000294	20.701509
2314.628678	-3.001500	3.166400	-9.503100	27.488155	0.000290	20.726371
2315.627913	-2.989300	3.168300	-9.470200	27.443877	0.000289	20.716437
2316.630351	-2.976800	3.168000	-9.429300	27.377202	0.000290	20.726174
2317.628041	-3.002400	3.166600	-9.506800	27.340786	0.000289	20.703764
2318.628639	-2.975700	3.167800	-9.425200	27.303891	0.000290	20.715489
2319.632503	-2.989200	3.163700	-9.456500	27.297103	0.000288	20.706290
2320.631754	-2.996200	3.163200	-9.476500	27.321087	0.000288	20.705285
2321.628173	-3.010000	3.164700	-9.524300	27.394941	0.000289	20.700396
2322.633271	-3.002400	3.163600	-9.496800	27.388367	0.000289	20.717491
2323.631628	-3.015000	3.161400	-9.530300	27.444185	0.000287	20.698727
2324.631406	-3.002800	3.160600	-9.489500	27.461127	0.000288	20.691590
2325.633183	-3.000100	3.160800	-9.481800	27.458631	0.000289	20.690501
2326.634314	-2.995400	3.161600	-9.469700	27.514682	0.000289	20.693314
2327.630723	-2.986600	3.158400	-9.431500	27.521703	0.000285	20.700852
2328.635995	-2.989600	3.159200	-9.442900	27.542494	0.000285	20.690002
2329.632944	-2.979300	3.160100	-9.414200	27.558786	0.000283	20.695014
2330.631765	-3.005000	3.157100	-9.485600	27.559208	0.000285	20.702078
2331.635916	-3.007900	3.156500	-9.493800	27.518103	0.000285	20.687747
2332.633597	-3.000400	3.156300	-9.469200	27.483602	0.000283	20.706142
2333.632749	-3.012400	3.155700	-9.503800	27.477133	0.000283	20.697737
2334.633765	-2.998900	3.154900	-9.460300	27.437098	0.000282	20.697287
2335.637033	-3.006600	3.153200	-9.479900	27.407600	0.000282	20.688474
2336.634116	-3.001100	3.154500	-9.466600	27.459744	0.000282	20.695889
2337.631829	-3.022600	3.152500	-9.527800	27.482918	0.000282	20.704505
2338.632772	-3.032400	3.151400	-9.555300	27.480904	0.000279	20.693943
2339.633394	-2.980500	3.153600	-9.398900	27.521807	0.000280	20.702854
2340.634003	-2.997700	3.152500	-9.447500	27.525780	0.000281	20.695945
2341.634563	-2.998300	3.149100	-9.440000	27.517890	0.000281	20.705552
2342.634946	-2.956900	3.152000	-9.318600	27.453275	0.000277	20.683216
2343.636233	-2.987800	3.150400	-9.411300	27.436633	0.000277	20.678326
2344.636619	-2.990200	3.148400	-9.413300	27.422085	0.000278	20.683131
2345.637075	-3.002500	3.147600	-9.450100	27.388412	0.000277	20.690508
2346.636024	-2.998200	3.148200	-9.436600	27.348348	0.000277	20.685766
2347.637183	-3.001600	3.146800	-9.444400	27.304959	0.000278	20.674360
2348.639183	-3.004700	3.147000	-9.454700	27.303570	0.000277	20.698095
2349.636683	-2.993400	3.145800	-9.415200	27.292110	0.000275	20.684670
2350.639506	-3.000200	3.145500	-9.436000	27.322578	0.000273	20.693982
2351.640127	-3.012900	3.144000	-9.471500	27.373214	0.000275	20.679011
2352.641944	-3.006300	3.143500	-9.449200	27.423995	0.000273	20.689321
2353.639588	-2.983400	3.143400	-9.376200	27.438030	0.000273	20.678783
2354.640162	-3.001800	3.142600	-9.431900	27.454832	0.000275	20.699957
2355.640189	-3.002100	3.141600	-9.430400	27.506974	0.000275	20.680342
2356.640930	-2.979400	3.142000	-9.360500	27.539590	0.000273	20.689451
2357.640326	-2.991800	3.140800	-9.395800	27.570295	0.000273	20.686679
2358.641013	-2.973300	3.140400	-9.336100	27.585975	0.000272	20.702458
2359.640192	-2.951300	3.140800	-9.268600	27.587046	0.000273	20.687887
2360.639324	-2.976900	3.140100	-9.346700	27.597763	0.000270	20.683497
2361.641592	-2.996200	3.138500	-9.402200	27.588663	0.000271	20.675762
2362.641683	-2.996800	3.136900	-9.399300	27.619261	0.000272	20.675256
2363.642407	-2.993600	3.136100	-9.386900	27.621000	0.000270	20.667047
2364.640899	-2.961000	3.136500	-9.286600	27.626141	0.000272	20.667479
2365.641650	-2.977600	3.135900	-9.336700	27.647695	0.000268	20.665934
2366.641191	-3.001600	3.133600	-9.405000	27.658306	0.000268	20.690838
2367.644096	-2.995200	3.134000	-9.386100	27.652830	0.000269	20.666359
2368.651624	-2.988200	3.133200	-9.361700	27.654170	0.000269	20.671501
2369.643109	-3.031700	3.130900	-9.491500	27.651838	0.000268	20.673423
2370.647107	-2.991400	3.131300	-9.366100	27.606535	0.000272	20.664346
2371.642404	-2.977300	3.130400	-9.319500	27.579154	0.000269	20.681842
2372.641737	-2.988000	3.129000	-9.348400	27.484129	0.000268	20.677747
2373.642731	-3.003000	3.130500	-9.399300	27.460890	0.000268	20.678548
2374.645708	-2.998600	3.127000	-9.375200	27.449254	0.000266	20.666366
2375.642684	-2.990400	3.128200	-9.353700	27.462499	0.000267	20.684435
2376.644021	-2.994700	3.127700	-9.363300	27.440802	0.000266	20.689159
2377.645013	-3.014600	3.126300	-9.423200	27.438641	0.000266	20.657110
2378.646255	-3.000900	3.125600	-9.378300	27.449830	0.000265	20.693026
2379.645812	-2.968600	3.126700	-9.280300	27.434497	0.000265	20.667641
2380.646637	-2.991900	3.124900	-9.347000	27.417138	0.000263	20.667247
2381.646853	-3.004200	3.123200	-9.380700	27.371769	0.000266	20.673289
2382.645899	-2.976500	3.123400	-9.295900	27.373249	0.000262	20.692324
2383.646429	-2.977800	3.121400	-9.292300	27.386705	0.000263	20.665554
2384.646866	-2.988500	3.121500	-9.327300	27.393052	0.000264	20.671940
2385.648355	-2.983100	3.119900	-9.305700	27.405925	0.000263	20.678252
2386.648998	-3.023400	3.117700	-9.424100	27.473629	0.000264	20.664810
2387.646719	-2.998800	3.118800	-9.351200	27.520254	0.000262	20.690859
2388.646574	-2.962200	3.118700	-9.237100	27.572221	0.000263	20.675341
2389.647066	-2.967800	3.118000	-9.252800	27.591616	0.000264	20.677785
2390.649469	-3.006500	3.115300	-9.364900	27.581793	0.000260	20.666952
2391.651045	-2.960100	3.116200	-9.222000	27.552202	0.000262	20.679854
2392.650241	-2.988400	3.113100	-9.302400	27.563065	0.000261	20.677508
2393.652869	-3.005900	3.113800	-9.358800	27.573164	0.000261	20.654475
2394.648105	-3.000600	3.113400	-9.341300	27.616347	0.000260	20.675168
2395.649662	-3.019400	3.112100	-9.395700	27.632271	0.000259	20.688822
2396.648182	-3.030800	3.110300	-9.425800	27.668229	0.000257	20.688969
2397.648090	-3.019100	3.109900	-9.388000	27.712075	0.000258	20.676665
2398.649525	-2.987500	3.110500	-9.292200	27.732311	0.000260	20.665734
2399.655017	-3.028100	3.107400	-9.408200	27.756805	0.000256	20.675685
2400.649069	-3.018100	3.107600	-9.378200	27.805683	0.000256	20.679355
2401.650626	-2.983800	3.107500	-9.271100	27.791029	0.000258	20.659390
2402.651649	-2.986800	3.106400	-9.277100	27.808590	0.000258	20.675168
2403.650545	-3.018700	3.104600	-9.369300	27.729167	0.000256	20.665888
2404.651974	-2.994200	3.105500	-9.297800	27.679545	0.000255	20.664318
2405.651477	-3.020200	3.103000	-9.371100	27.705161	0.000256	20.664016
2406.651897	-2.960100	3.104200	-9.187000	27.726713	0.000254	20.682861
2407.650920	-3.007500	3.102300	-9.328400	27.733578	0.000257	20.657050
2408.651789	-3.018000	3.100300	-9.355500	27.754065	0.000256	20.682886
2409.651968	-3.006300	3.101000	-9.322000	27.792481	0.000254	20.676974
2410.650766	-3.035500	3.098800	-9.404400	27.774357	0.000255	20.649723
2411.651646	-3.013200	3.097500	-9.332200	27.796477	0.000254	20.683841
2412.653358	-2.996400	3.098500	-9.282100	27.815469	0.000256	20.660753
2413.657363	-3.012900	3.097500	-9.330400	27.797565	0.000254	20.674030
2414.653052	-3.032000	3.094700	-9.380500	27.752757	0.000254	20.688681
2415.653549	-3.011400	3.094600	-9.318100	27.666236	0.000254	20.672264
2416.653265	-3.024000	3.093600	-9.354100	27.645828	0.000254	20.669271
2417.655516	-2.994000	3.093700	-9.261800	27.659437	0.000252	20.659730
2418.656599	-2.978400	3.092200	-9.209200	27.650460	0.000254	20.670613
2419.654272	-2.997700	3.091800	-9.266600	27.696362	0.000252	20.685035
2420.653500	-2.978900	3.090400	-9.205400	27.695946	0.000253	20.685092
2421.659571	-3.022400	3.088400	-9.333700	27.709935	0.000253	20.683047
2422.656659	-3.017700	3.088500	-9.318000	27.751123	0.000251	20.678502
2423.655781	-2.987100	3.089100	-9.224600	27.774186	0.000251	20.693652
2424.656605	-2.972500	3.087500	-9.176700	27.793528	0.000252	20.684667
2425.659531	-2.982700	3.086600	-9.205000	27.804388	0.000251	20.686114
2426.656009	-2.991800	3.086000	-9.231700	27.820829	0.000250	20.696971
2427.655256	-3.004400	3.084500	-9.266300	27.834517	0.000249	20.667595
2428.657515	-2.985400	3.083100	-9.202900	27.807240	0.000249	20.651521
2429.657016	-3.013700	3.082600	-9.288200	27.789165	0.000251	20.685966
2430.656564	-3.003600	3.080900	-9.252900	27.808702	0.000250	20.663426
2431.662258	-2.990100	3.079900	-9.207700	27.777906	0.000249	20.674635
2432.659203	-2.990000	3.079600	-9.207200	27.773146	0.000249	20.676956
2433.658380	-2.997300	3.077300	-9.221700	27.780531	0.000248	20.678224
2434.660661	-2.994000	3.077400	-9.212700	27.765283	0.000249	20.679001
2435.661262	-3.022600	3.076700	-9.298200	27.758240	0.000249	20.682819
2436.661827	-3.017900	3.074300	-9.276800	27.758362	0.000249	20.688632
2437.662089	-2.968800	3.076300	-9.131900	27.778622	0.000248	20.672984
2438.662718	-2.981800	3.074400	-9.166200	27.800179	0.000247	20.684249
2439.661461	-2.999200	3.073300	-9.216600	27.761838	0.000247	20.685018
2440.663730	-2.972600	3.071700	-9.129800	27.743291	0.000246	20.689588
2441.662684	-2.975700	3.071100	-9.137700	27.717775	0.000245	20.689040
2442.666176	-3.016800	3.068300	-9.254800	27.731407	0.000245	20.682844
2443.667699	-2.995500	3.069100	-9.192700	27.714892	0.000248	20.688509
2444.663866	-3.016400	3.066200	-9.247300	27.708456	0.000246	20.683929
2445.665204	-3.008100	3.066500	-9.223400	27.723111	0.000246	20.655526
2446.666548	-2.958800	3.067700	-9.075700	27.695329	0.000245	20.674512
2447.665559	-3.017800	3.063200	-9.243500	27.709391	0.000244	20.701941
2448.666681	-2.969400	3.064600	-9.099300	27.732088	0.000244	20.680209
2449.668230	-2.990400	3.061700	-9.154800	27.774866	0.000246	20.674895
2450.665328	-3.016500	3.061500	-9.234300	27.792997	0.000244	20.685555
2451.665669	-2.996200	3.060600	-9.169200	27.869516	0.000245	20.683855
2452.667801	-3.024100	3.057800	-9.245300	27.883576	0.000247	20.684256
2453.667145	-3.054000	3.056500	-9.333100	27.941765	0.000247	20.689244
2454.666236	-2.983800	3.057900	-9.122900	27.947572	0.000245	20.690821
2455.668874	-3.023300	3.056500	-9.239500	27.960095	0.000245	20.683037
2456.669864	-3.018400	3.053200	-9.214800	28.038242	0.000244	20.675875
2457.669443	-3.009800	3.054800	-9.193300	28.039631	0.000244	20.680118
2458.670569	-3.010400	3.053100	-9.190100	28.052893	0.000245	20.702005
2459.666389	-3.015700	3.051100	-9.199600	28.057541	0.000244	20.694354
2460.666499	-3.011800	3.050200	-9.186100	28.084476	0.000245	20.701555
2461.670842	-2.980600	3.049600	-9.088500	28.038144	0.000244	20.685735
2462.668646	-2.995900	3.047700	-9.129700	28.055028	0.000243	20.691351
2463.669469	-3.005500	3.046500	-9.154900	28.080408	0.000243	20.709314
2464.671092	-3.008600	3.046200	-9.164100	28.090258	0.000243	20.708324
2465.669553	-2.967400	3.046200	-9.037700	28.111649	0.000245	20.695717
2466.668259	-2.986500	3.044000	-9.089600	28.104828	0.000243	20.690273
2467.672184	-2.998700	3.042800	-9.124000	28.099524	0.000243	20.692521
2468.672493	-3.001300	3.041600	-9.128100	28.080806	0.000242	20.706395
2469.669285	-2.971600	3.041800	-9.037500	28.067795	0.000244	20.698513
2470.674486	-3.013900	3.039900	-9.159900	28.103715	0.000241	20.714284
2471.670372	-3.007100	3.037600	-9.133700	28.087261	0.000241	20.709100
2472.669968	-3.021900	3.036600	-9.175300	28.026327	0.000244	20.705134
2473.674274	-3.024700	3.035600	-9.180000	27.977288	0.000243	20.706508
2474.670044	-3.009800	3.034600	-9.132300	27.945101	0.000242	20.698766
2475.671706	-2.963000	3.035400	-8.993500	27.909940	0.000244	20.689454
2476.675592	-3.011100	3.032100	-9.130100	27.881105	0.000244	20.704530
2477.670476	-2.989500	3.032300	-9.063700	27.836503	0.000243	20.699469
2478.672055	-3.004000	3.030200	-9.101900	27.816520	0.000245	20.718714
2479.673511	-2.992300	3.029300	-9.063800	27.797447	0.000244	20.711373
2480.671045	-2.970300	3.028900	-8.995300	27.793727	0.000243	20.711896
2481.669422	-2.995000	3.027700	-9.066200	27.819175	0.000241	20.716171
2482.672103	-2.975800	3.026500	-9.004900	27.846567	0.000241	20.703909
2483.671044	-3.017400	3.023300	-9.121200	27.862488	0.000242	20.720407
2484.672032	-2.983400	3.024500	-9.023000	27.836087	0.000242	20.711380
2485.674859	-2.982300	3.023100	-9.014800	27.787113	0.000241	20.715198
2486.670768	-3.007400	3.021800	-9.087300	27.773945	0.000243	20.712851
2487.672050	-2.991700	3.020300	-9.033900	27.813473	0.000240	20.716122
2488.676697	-3.011600	3.017500	-9.086300	27.844292	0.000242	20.695454
2489.675314	-3.007300	3.017300	-9.072600	27.876579	0.000242	20.718942
2490.672916	-2.988400	3.017000	-9.015100	27.929318	0.000241	20.715598
2491.676003	-3.034200	3.013900	-9.142800	27.958274	0.000241	20.721510
2492.677157	-3.007200	3.013300	-9.060000	27.984305	0.000241	20.705984
2493.673944	-2.992200	3.012400	-9.012300	27.999257	0.000241	20.713923
2494.677094	-3.002900	3.011300	-9.042300	28.002010	0.000241	20.724281
2495.676348	-3.004100	3.009100	-9.038500	27.952377	0.000240	20.699451
2496.675175	-3.011200	3.008300	-9.057200	27.932487	0.000240	20.731116
2497.679710	-2.992000	3.008300	-8.999100	27.890388	0.000242	20.730470
2498.676613	-3.000200	3.006700	-9.019900	27.843074	0.000242	20.726947
2499.674932	-3.017200	3.006300	-9.069500	27.805561	0.000242	20.710055
2500.676033	-2.983700	3.005600	-8.966700	27.827031	0.000242	20.725500
2501.678209	-2.996900	3.002900	-8.998700	27.849028	0.000243	20.725827
2502.674839	-3.008600	3.001200	-9.028500	27.890234	0.000240	20.714193
2503.677272	-3.022000	2.999000	-9.061200	27.907219	0.000241	20.710898
2504.682634	-2.998600	2.998100	-8.989000	27.935882	0.000241	20.707505
2505.679956	-2.986200	2.998300	-8.952100	27.966160	0.000241	20.744147
2506.686926	-2.995000	2.997500	-8.976900	28.008580	0.000240	20.712402
2507.679559	-3.010400	2.994600	-9.014300	28.051089	0.000241	20.745236
2508.677479	-2.991500	2.993500	-8.953300	28.093935	0.000240	20.732416
2509.681179	-2.980000	2.992300	-8.915000	28.083995	0.000239	20.726677
2510.678377	-2.975500	2.992100	-8.901800	28.096712	0.000240	20.741850
2511.678276	-3.003300	2.988600	-8.974600	28.044153	0.000239	20.743469
2512.676477	-2.995100	2.986800	-8.944500	28.054589	0.000241	20.723628
2513.677566	-3.004200	2.986400	-8.970800	28.020754	0.000239	20.726079
2514.678914	-2.989000	2.984600	-8.920300	27.955203	0.000241	20.744499
2515.678002	-3.010700	2.983800	-8.982700	27.906032	0.000238	20.737207
2516.681572	-2.996500	2.981200	-8.932100	27.926216	0.000237	20.753729
2517.679812	-3.008900	2.981300	-8.970000	27.971366	0.000241	20.743698
2518.680623	-3.036700	2.979200	-9.046400	27.997990	0.000238	20.733038
2519.682840	-3.010500	2.978000	-8.964900	28.039320	0.000237	20.736234
2520.680631	-3.018100	2.976900	-8.983700	28.042600	0.000239	20.738113
2521.681841	-3.027300	2.974800	-9.004600	28.119719	0.000238	20.749363
2522.679357	-2.962200	2.976000	-8.813700	28.149269	0.000240	20.733593
2523.679739	-2.994200	2.972400	-8.899100	28.189749	0.000238	20.751587
2524.680216	-2.969700	2.970800	-8.821000	28.209586	0.000241	20.721770
2525.681887	-2.993700	2.969000	-8.887200	28.234051	0.000238	20.735971
2526.682120	-3.010100	2.967800	-8.931100	28.220167	0.000240	20.737639
2527.681430	-3.000800	2.967300	-8.902500	28.176991	0.000239	20.743009
2528.681103	-2.991700	2.964900	-8.869200	28.107797	0.000240	20.731197
2529.680344	-2.994500	2.964000	-8.874100	28.080761	0.000240	20.747130
2530.686431	-3.004100	2.963400	-8.901700	28.074337	0.000238	20.743508
2531.681199	-2.990900	2.959900	-8.851700	28.108746	0.000240	20.738317
2532.681149	-2.983600	2.961100	-8.833900	28.139539	0.000238	20.739444
2533.682130	-3.002800	2.957600	-8.880000	28.173572	0.000241	20.757112
2534.683239	-3.021200	2.955500	-8.928200	28.207043	0.000241	20.750505
2535.684595	-3.020100	2.955500	-8.925200	28.217582	0.000239	20.742149
2536.684654	-3.008900	2.953300	-8.884800	28.190534	0.000240	20.742419
2537.686209	-3.009100	2.951400	-8.879800	28.119862	0.000240	20.743817
2538.684281	-3.032900	2.949500	-8.943800	28.077673	0.000240	20.756350
2539.688559	-3.004700	2.949600	-8.860900	28.010957	0.000239	20.744667
2540.684656	-3.025700	2.946600	-8.913800	28.018940	0.000238	20.763136
2541.684974	-3.022800	2.945700	-8.903200	28.009226	0.000238	20.747193
2542.687231	-3.011400	2.944800	-8.867000	28.022520	0.000238	20.757730
2543.688505	-2.995800	2.942000	-8.812300	28.042077	0.000240	20.762718
2544.686653	-3.010300	2.940700	-8.851100	28.052887	0.000237	20.771228
2545.687771	-2.997600	2.939400	-8.810700	28.126072	0.000239	20.781365
2546.688344	-3.008500	2.937000	-8.835200	28.141828	0.000238	20.755500
2547.686534	-2.993100	2.936400	-8.787100	28.187398	0.000239	20.760126
2548.688094	-3.003500	2.935400	-8.815600	28.212035	0.000240	20.752212
2549.689313	-3.011600	2.932300	-8.830500	28.261687	0.000239	20.763322
2550.689882	-3.024400	2.930500	-8.862100	28.302463	0.000239	20.744158
2551.690021	-2.995000	2.930800	-8.776200	28.320553	0.000240	20.757158
2552.691710	-3.023200	2.928000	-8.850600	28.346038	0.000241	20.758162
2553.693231	-2.989700	2.926800	-8.748800	28.323379	0.000239	20.766167
2554.691797	-3.009100	2.925100	-8.801400	28.289253	0.000238	20.764997
2555.692464	-3.005500	2.924400	-8.788600	28.300109	0.000239	20.762651
2556.691909	-3.020100	2.921700	-8.822800	28.312133	0.000239	20.766697
2557.693664	-3.004800	2.919000	-8.769900	28.313270	0.000238	20.758833
2558.693664	-3.003200	2.919000	-8.764500	28.336442	0.000239	20.775527
2559.693752	-3.008900	2.918400	-8.780500	28.343286	0.000241	20.793324
2560.694201	-3.004800	2.915300	-8.758600	28.371557	0.000238	20.772953
2561.692707	-2.986600	2.915300	-8.705000	28.363877	0.000238	20.763796
2562.693774	-2.975200	2.913100	-8.666300	28.345243	0.000240	20.754991
2563.692739	-3.016000	2.910000	-8.775700	28.355108	0.000237	20.780571
2564.697790	-3.027500	2.908500	-8.803800	28.301936	0.000238	20.776345
2565.694774	-3.004600	2.906900	-8.732400	28.245260	0.000237	20.764326
2566.692988	-2.984700	2.906200	-8.673100	28.184150	0.000237	20.775822
2567.693787	-2.988700	2.904500	-8.679300	28.170143	0.000238	20.781161
2568.693846	-2.975300	2.902400	-8.633900	28.155420	0.000239	20.784831
2569.694400	-3.012200	2.900400	-8.734800	28.184541	0.000239	20.768155
2570.694312	-3.018000	2.898100	-8.746000	28.228048	0.000240	20.773550
2571.693970	-3.001600	2.898600	-8.698800	28.242745	0.000239	20.786450
2572.694623	-2.977600	2.896300	-8.622700	28.235688	0.000237	20.770810
2573.694899	-2.998000	2.892500	-8.670000	28.232960	0.000238	20.764744
2574.695337	-3.005800	2.892500	-8.693200	28.218304	0.000240	20.779861
2575.696632	-3.017200	2.888600	-8.715000	28.223087	0.000237	20.786099
2576.695112	-2.999800	2.888500	-8.663600	28.248121	0.000240	20.792811
2577.696009	-3.002200	2.885900	-8.662600	28.269662	0.000240	20.778938
2578.695244	-2.983200	2.884800	-8.603300	28.313905	0.000239	20.777965
2579.698511	-2.999400	2.881700	-8.642600	28.331329	0.000238	20.793612
2580.695075	-2.994700	2.881100	-8.627400	28.329916	0.000239	20.773223
2581.695374	-2.993100	2.878500	-8.614600	28.339205	0.000238	20.779257
2582.695305	-2.991700	2.876900	-8.605300	28.383923	0.000239	20.784455
2583.694605	-2.987500	2.875600	-8.589600	28.446695	0.000240	20.787448
2584.695002	-2.990100	2.873300	-8.591300	28.423476	0.000239	20.776869
2585.695686	-2.962700	2.873100	-8.511400	28.395322	0.000239	20.771277
2586.696254	-3.003000	2.870000	-8.617100	28.368481	0.000241	20.801623
2587.697679	-2.977300	2.869700	-8.543000	28.375569	0.000239	20.802596
2588.698362	-2.989200	2.865800	-8.565500	28.355296	0.000240	20.791666
2589.699819	-2.970900	2.864200	-8.507000	28.343897	0.000239	20.800577
2590.698571	-2.982700	2.863800	-8.541500	28.333634	0.000240	20.803520
2591.699511	-2.996000	2.860500	-8.569100	28.365387	0.000239	20.795663
2592.698451	-3.008200	2.856200	-8.591000	28.365485	0.000239	20.803348
2593.701638	-3.006200	2.855400	-8.582800	28.338221	0.000240	20.790121
2594.701545	-2.974000	2.855300	-8.490200	28.332773	0.000240	20.799808
2595.701993	-2.973000	2.853000	-8.481400	28.310518	0.000237	20.799210
2596.701553	-2.969400	2.851000	-8.464400	28.307887	0.000236	20.793243
2597.701734	-3.007200	2.848100	-8.564400	28.284610	0.000238	20.801574
2598.702678	-2.978000	2.845600	-8.473100	28.291088	0.000240	20.815683
2599.701941	-2.976800	2.843500	-8.463400	28.267046	0.000239	20.810443
2600.704220	-3.021900	2.842100	-8.586200	28.249719	0.000237	20.809593
2601.705493	-3.006200	2.838300	-8.532000	28.279883	0.000239	20.793496
2602.704982	-2.996000	2.835900	-8.495600	28.330767	0.000239	20.786408
2603.702593	-3.004100	2.834600	-8.514600	28.344399	0.000238	20.803927
2604.706205	-3.007200	2.832400	-8.516600	28.372457	0.000239	20.799463
2605.704760	-2.993000	2.830400	-8.470800	28.397010	0.000237	20.818496
2606.706838	-2.999400	2.829000	-8.484100	28.446783	0.000239	20.788484
2607.709558	-2.983000	2.825700	-8.428200	28.498269	0.000237	20.808089
2608.705248	-2.988400	2.823700	-8.436300	28.539238	0.000238	20.829907
2609.706245	-2.972500	2.824400	-8.394400	28.500410	0.000239	20.819729
2610.706793	-2.988200	2.820100	-8.426300	28.475975	0.000238	20.821675
2611.707748	-3.018900	2.815700	-8.499600	28.460015	0.000238	20.818405
2612.705317	-3.006100	2.815000	-8.460700	28.501742	0.000237	20.805424
2613.708858	-3.009100	2.811400	-8.459300	28.545358	0.000238	20.819002
2614.706729	-3.000800	2.809000	-8.428000	28.549376	0.000240	20.827789
2615.707329	-3.011800	2.807900	-8.455200	28.530990	0.000235	20.818282
2616.708600	-3.007100	2.805300	-8.435100	28.543768	0.000237	20.822142
2617.707238	-3.019500	2.802500	-8.460100	28.573582	0.000235	20.826089
2618.706572	-3.025600	2.799700	-8.469200	28.576732	0.000235	20.811718
2619.707139	-3.023000	2.797100	-8.454700	28.576683	0.000236	20.817358
2620.707087	-2.998900	2.795600	-8.383000	28.590985	0.000238	20.809951
2621.707849	-2.973100	2.792300	-8.301000	28.625157	0.000238	20.826824
2622.709445	-2.971900	2.791100	-8.293900	28.591155	0.000238	20.842365
2623.709408	-2.988300	2.788100	-8.330100	28.552972	0.000238	20.820979
2624.709705	-2.978200	2.784600	-8.291600	28.579410	0.000237	20.828639
2625.710660	-2.991100	2.782200	-8.321000	28.616358	0.000237	20.809428
2626.709596	-3.018800	2.779800	-8.390100	28.640441	0.000238	20.823726
2627.710771	-2.995600	2.777000	-8.317300	28.629216	0.000237	20.837075
2628.710716	-2.962600	2.774200	-8.218300	28.631772	0.000237	20.830641
2629.711336	-2.985800	2.771300	-8.273900	28.592697	0.000235	20.829693
2630.711686	-2.972900	2.769100	-8.230200	28.562939	0.000236	20.815370
2631.712285	-3.012400	2.765600	-8.330400	28.517821	0.000235	20.817822
2632.712881	-2.997300	2.761800	-8.277300	28.467636	0.000236	20.845519
2633.715897	-3.009900	2.757600	-8.299600	28.421094	0.000237	20.822360
2634.714386	-3.001500	2.754900	-8.267600	28.426745	0.000238	20.838006
2635.713742	-3.007000	2.752700	-8.275600	28.458073	0.000236	20.828302
2636.715218	-3.004300	2.749800	-8.259800	28.547636	0.000238	20.801855
2637.713808	-3.013300	2.745900	-8.272300	28.548424	0.000237	20.813555
2638.718135	-3.000100	2.743100	-8.228100	28.567037	0.000238	20.802902
2639.713394	-3.002000	2.741500	-8.228900	28.565031	0.000235	20.835495
2640.718318	-2.971800	2.737400	-8.133900	28.595236	0.000237	20.826560
2641.713699	-2.984800	2.734300	-8.160000	28.605715	0.000237	20.820045
2642.715202	-3.022000	2.731300	-8.252200	28.604822	0.000236	20.815827
2643.716609	-2.980000	2.727600	-8.127100	28.579156	0.000235	20.812736
2644.717319	-2.994200	2.725200	-8.158900	28.554437	0.000239	20.806808
2645.715757	-2.995100	2.720700	-8.147500	28.565143	0.000235	20.809056
2646.715378	-3.003800	2.717000	-8.160200	28.638921	0.000235	20.800384
2647.717266	-3.054100	2.712900	-8.283300	28.677775	0.000236	20.803482
2648.717539	-2.996100	2.710100	-8.119200	28.725027	0.000234	20.817885
2649.719297	-2.956400	2.709000	-8.007500	28.788006	0.000237	20.820158
2650.716770	-3.013800	2.703700	-8.147800	28.818180	0.000236	20.813095
2651.716841	-3.012600	2.700300	-8.133800	28.856330	0.000237	20.798895
2652.718731	-3.022500	2.695500	-8.146500	28.854325	0.000238	20.803039
2653.719620	-2.998600	2.692500	-8.072500	28.839117	0.000235	20.805263
2654.718806	-2.991300	2.689400	-8.043800	28.836519	0.000235	20.805491
2655.719190	-3.030700	2.682500	-8.128700	28.820216	0.000236	20.809930
2656.718922	-2.984200	2.680900	-7.998700	28.821960	0.000238	20.798885
2657.719329	-3.013200	2.678400	-8.069000	28.820028	0.000235	20.809267
2658.718382	-2.985100	2.673200	-7.978700	28.838524	0.000237	20.811778
2659.718432	-3.001400	2.669100	-8.009800	28.879131	0.000238	20.783933
2660.718933	-2.999900	2.665200	-7.993000	28.901284	0.000236	20.788232
2661.716206	-3.016300	2.660100	-8.022800	28.941815	0.000235	20.801090
2662.718961	-2.992600	2.657500	-7.952000	28.929718	0.000236	20.805498
2663.720355	-3.032300	2.651400	-8.037700	28.974533	0.000236	20.813190
2664.717825	-2.990400	2.649200	-7.920900	28.977357	0.000238	20.797543
2665.718197	-2.983300	2.645600	-7.891900	28.958783	0.000237	20.793054
2666.717160	-2.995600	2.640500	-7.909200	28.935624	0.000236	20.787266
2667.721780	-3.052200	2.632900	-8.034600	28.887990	0.000235	20.785271
2668.720447	-3.012100	2.629400	-7.918900	28.885044	0.000234	20.797002
2669.724010	-2.992800	2.627000	-7.861400	28.925650	0.000235	20.781011
2670.721211	-2.941300	2.623600	-7.715600	28.940850	0.000237	20.800117
2671.719359	-2.940700	2.618000	-7.697700	28.960494	0.000235	20.792408
2672.723804	-2.968000	2.613100	-7.754100	28.984399	0.000236	20.790413
2673.721905	-2.992600	2.606500	-7.798700	28.985769	0.000237	20.782310
2674.721846	-3.019300	2.600700	-7.851500	28.986881	0.000237	20.793388
2675.720329	-3.009300	2.597100	-7.814700	29.025617	0.000237	20.790691
2676.720943	-3.046600	2.589600	-7.887300	29.064683	0.000236	20.786905
2677.718763	-2.988900	2.586300	-7.729700	29.106679	0.000236	20.778485
2678.718165	-3.005000	2.580600	-7.753900	29.119172	0.000236	20.787755
2679.719212	-3.016700	2.575100	-7.765900	29.172271	0.000236	20.785310
2680.721343	-3.005900	2.569200	-7.721700	29.163233	0.000238	20.771461
2681.721842	-3.002700	2.563900	-7.697300	29.145767	0.000237	20.768086
2682.719982	-3.016900	2.557400	-7.714400	29.056520	0.000237	20.775360
2683.724190	-3.003900	2.551400	-7.663200	28.975007	0.000237	20.784745
2684.725113	-2.998500	2.547600	-7.637100	28.904436	0.000238	20.785718
2685.720994	-2.992700	2.542600	-7.607600	28.914564	0.000239	20.774109
2686.722355	-2.986900	2.535100	-7.571600	28.916656	0.000238	20.774320
2687.723596	-3.006600	2.529900	-7.605300	28.930224	0.000238	20.768075
2688.721494	-3.002800	2.522900	-7.574800	29.001021	0.000237	20.773021
2689.721733	-3.028100	2.516200	-7.618200	28.999041	0.000238	20.771974
2690.724398	-3.013600	2.510700	-7.565700	28.957755	0.000239	20.777794
2691.722322	-2.994300	2.505800	-7.501900	28.966868	0.000240	20.762793
2692.724564	-3.021400	2.497100	-7.543400	28.923008	0.000238	20.756538
