LabVIEW Measurement	
Writer_Version	2
Reader_Version	2
Separator	Tab
Decimal_Separator	.
Multi_Headings	No
X_Columns	One
Time_Pref	Absolute
Operator	admin
Description	Clolumns are: time, Current, Voltage, Power, Battery Temp, and Chamber Temp
Date	2024/08/16
Time	13:06:06.104549407958984375
***End_of_Header***	
	
Channels	6						
Samples	1	1	1	1	1	1	
Date	2024/09/05	2024/09/05	2024/09/05	2024/09/05	2024/09/05	2024/09/05	
Time	12:09:33.9994630813598632813	12:09:34.0095767974853515625	12:09:34.0153446197509765625	12:09:33.9824423789978027344	12:09:33.9824423789978027344	12:09:33.9824423789978027344	
X_Dimension	Time	Time	Time	Time	Time	Time	
X0	0.0000000000000000E+0	0.0000000000000000E+0	0.0000000000000000E+0	0.0000000000000000E+0	0.0000000000000000E+0	0.0000000000000000E+0	
Delta_X	1.000000	1.000000	1.000000	1.000000	1.000000	1.000000	
***End_of_Header***							
X_Value	Untitled	Untitled 1	Untitled 2	Untitled 3	Untitled 4	Untitled 5	Comment
0.000000	0.009076	4.098400	0.037179	20.993807	0.000925	20.779032
1.001017	-2.998500	3.927500	-11.776000	20.991086	0.000926	20.794803
1.999713	-2.992500	3.922700	-11.738000	20.985896	0.000924	20.777284
3.009494	-3.001400	3.916200	-11.753000	20.972049	0.000924	20.784297
4.008613	-2.997000	3.911900	-11.723000	20.987616	0.000923	20.769995
5.011750	-3.015000	3.909100	-11.785000	20.975216	0.000924	20.766127
6.004875	-3.011100	3.907400	-11.764000	20.977859	0.000921	20.796272
7.005674	-3.016400	3.903300	-11.773000	20.971197	0.000919	20.760685
8.001891	-2.982800	3.902500	-11.639000	20.996125	0.000919	20.778031
9.004758	-2.990600	3.900800	-11.665000	20.986721	0.000919	20.775263
10.011639	-2.987100	3.900200	-11.649000	20.982627	0.000917	20.782075
11.006574	-3.005100	3.897500	-11.712000	20.969326	0.000917	20.759762
12.004218	-2.984100	3.896500	-11.627000	20.984874	0.000916	20.793331
13.005744	-2.998600	3.893800	-11.675000	21.002988	0.000918	20.765455
14.006486	-3.022200	3.892300	-11.762000	20.994631	0.000914	20.765157
15.005044	-3.005400	3.890700	-11.692000	21.011970	0.000916	20.756421
16.004386	-3.018900	3.889200	-11.739000	20.993008	0.000915	20.771120
17.013592	-2.997300	3.888600	-11.654000	21.019903	0.000915	20.792330
18.006967	-2.990200	3.889300	-11.629000	21.009024	0.000915	20.769595
19.008722	-3.007600	3.885800	-11.686000	21.036519	0.000916	20.760112
20.010353	-2.980200	3.886500	-11.582000	21.017483	0.000913	20.757667
21.009176	-2.975400	3.887300	-11.565000	21.025418	0.000911	20.778880
22.005490	-2.980300	3.886300	-11.581000	21.027813	0.000913	20.756145
23.018163	-2.987600	3.883800	-11.602000	21.035196	0.000914	20.747409
24.007233	-2.992500	3.883500	-11.621000	21.056405	0.000912	20.760561
25.010615	-3.010500	3.882100	-11.686000	21.058447	0.000910	20.760233
26.011587	-3.019400	3.881800	-11.719000	21.061192	0.000911	20.763927
27.010757	-3.005300	3.880800	-11.661000	21.060894	0.000910	20.763630
28.009186	-2.991900	3.880300	-11.608000	21.062239	0.000907	20.766397
29.012098	-2.989600	3.880300	-11.599000	21.080526	0.000911	20.770938
30.011862	-3.007800	3.879000	-11.666000	21.059097	0.000907	20.738598
31.013444	-2.986800	3.879900	-11.587000	21.090505	0.000908	20.767169
32.020686	-3.005600	3.877300	-11.652000	21.080203	0.000907	20.759709
33.009161	-3.000400	3.876900	-11.632000	21.110117	0.000908	20.738895
34.010268	-2.980400	3.876700	-11.553000	21.110789	0.000908	20.782243
35.011927	-2.993800	3.876000	-11.603000	21.113757	0.000907	20.744908
36.012231	-2.993800	3.877300	-11.606000	21.124710	0.000906	20.777201
37.011937	-3.000300	3.875000	-11.624000	21.119920	0.000907	20.762927
38.011951	-3.005100	3.872900	-11.636000	21.141501	0.000906	20.757962
39.012353	-2.999800	3.874100	-11.620000	21.157441	0.000905	20.755888
40.010728	-3.016400	3.872800	-11.680000	21.138481	0.000906	20.765372
41.012858	-3.011700	3.872400	-11.661000	21.157890	0.000905	20.754915
42.011096	-2.995400	3.873100	-11.600000	21.165800	0.000907	20.780371
43.012310	-2.995500	3.872000	-11.597000	21.188524	0.000905	20.775128
44.012159	-2.990500	3.873000	-11.581000	21.178273	0.000904	20.744009
45.016479	-2.991700	3.872300	-11.583000	21.176451	0.000904	20.770163
46.017043	-2.991300	3.870700	-11.577000	21.187728	0.000905	20.787608
47.013138	-2.992700	3.871200	-11.584000	21.178697	0.000904	20.769565
48.012779	-2.987600	3.870800	-11.564000	21.182436	0.000907	20.749597
49.014339	-3.009300	3.869400	-11.643000	21.203565	0.000903	20.756509
50.014579	-2.986700	3.871200	-11.561000	21.193063	0.000904	20.741735
51.011885	-3.006900	3.869300	-11.633000	21.205736	0.000904	20.758207
52.016733	-2.986000	3.868700	-11.551000	21.206260	0.000903	20.759205
53.013019	-2.981000	3.868000	-11.528000	21.229532	0.000902	20.764941
54.013531	-2.992600	3.868800	-11.576000	21.220375	0.000903	20.754832
55.016378	-3.016700	3.867300	-11.665000	21.224241	0.000904	20.757752
56.017251	-3.000300	3.868100	-11.605000	21.226911	0.000901	20.764216
57.012930	-2.992100	3.866500	-11.567000	21.236685	0.000902	20.751709
58.015618	-3.006200	3.866300	-11.621000	21.242921	0.000904	20.766008
59.017299	-2.978200	3.867200	-11.515000	21.263026	0.000902	20.763362
60.025883	-3.003100	3.866500	-11.610000	21.263825	0.000903	20.764161
61.014943	-2.982300	3.865700	-11.526000	21.264969	0.000902	20.757718
62.021985	-2.998500	3.866700	-11.593000	21.267735	0.000902	20.760012
63.017712	-3.008400	3.864300	-11.623000	21.278460	0.000904	20.773112
64.019730	-3.016800	3.863500	-11.655000	21.291780	0.000902	20.769368
65.018596	-3.013600	3.865200	-11.648000	21.275415	0.000903	20.745883
66.019615	-2.994300	3.863800	-11.569000	21.317966	0.000900	20.764271
67.019244	-3.009200	3.864200	-11.626000	21.320357	0.000903	20.772828
68.020217	-3.000600	3.863100	-11.590000	21.335722	0.000902	20.782510
69.022676	-2.991300	3.864700	-11.560000	21.348091	0.000900	20.727553
70.021027	-2.979700	3.864600	-11.515000	21.357919	0.000902	20.779113
71.021649	-2.989000	3.863300	-11.545000	21.369715	0.000903	20.763888
72.021589	-3.001000	3.862300	-11.589000	21.365444	0.000902	20.777159
73.022454	-2.997000	3.863200	-11.577000	21.372702	0.000901	20.782523
74.023020	-2.997200	3.863100	-11.577000	21.374272	0.000903	20.756119
75.023371	-2.989400	3.862300	-11.545000	21.355734	0.000902	20.770289
76.023343	-3.001700	3.861700	-11.591000	21.409410	0.000903	20.752394
77.026086	-3.033500	3.859800	-11.707000	21.406713	0.000901	20.763920
78.025111	-3.010800	3.862600	-11.628000	21.389702	0.000903	20.798584
79.026625	-3.004900	3.860800	-11.600000	21.406559	0.000902	20.764714
80.027734	-2.994500	3.860900	-11.560000	21.409625	0.000904	20.783904
81.024953	-2.995900	3.861300	-11.567000	21.408253	0.000902	20.760720
82.028498	-2.997400	3.859700	-11.568000	21.420671	0.000903	20.764610
83.026250	-3.020500	3.858800	-11.653000	21.426826	0.000903	20.770294
84.024655	-3.005900	3.859500	-11.600000	21.435130	0.000903	20.748256
85.026495	-2.997400	3.858500	-11.565000	21.466456	0.000903	20.753996
86.028951	-3.022500	3.859900	-11.664000	21.458571	0.000903	20.791626
87.036837	-2.998700	3.860500	-11.576000	21.458342	0.000905	20.782388
88.027750	-2.975700	3.858700	-11.482000	21.467244	0.000903	20.788450
89.027589	-2.958200	3.860200	-11.418000	21.479788	0.000903	20.776345
90.027280	-2.975600	3.859300	-11.482000	21.487166	0.000903	20.798427
91.026116	-2.997800	3.856300	-11.560000	21.485990	0.000903	20.801043
92.030561	-2.993800	3.856900	-11.546000	21.481700	0.000902	20.768301
93.025521	-3.006500	3.858300	-11.598000	21.498435	0.000902	20.797848
94.024914	-3.009800	3.857100	-11.608000	21.499429	0.000904	20.784144
95.030674	-3.002500	3.856500	-11.578000	21.523417	0.000902	20.779224
96.028708	-3.002300	3.857200	-11.580000	21.510549	0.000902	20.777252
97.028053	-3.006000	3.857600	-11.596000	21.510623	0.000901	20.785388
98.026753	-3.020500	3.855900	-11.646000	21.543663	0.000903	20.787629
99.028744	-2.980000	3.857200	-11.492000	21.551719	0.000901	20.795690
100.028910	-3.006600	3.855900	-11.592000	21.566681	0.000904	20.810187
101.026542	-2.995900	3.855300	-11.550000	21.571871	0.000902	20.799734
102.034688	-2.995000	3.856100	-11.548000	21.567127	0.000902	20.788823
103.027457	-2.986400	3.856600	-11.515000	21.577554	0.000902	20.772704
104.024024	-3.001400	3.854000	-11.566000	21.577656	0.000903	20.811687
105.026265	-2.995300	3.853400	-11.541000	21.613339	0.000904	20.795712
106.028186	-2.995500	3.854300	-11.545000	21.588050	0.000901	20.785578
107.026685	-3.009000	3.853800	-11.594000	21.615532	0.000904	20.787475
108.028487	-3.004000	3.852100	-11.570000	21.627903	0.000902	20.800803
109.028963	-2.994200	3.854500	-11.539000	21.622441	0.000904	20.790595
110.027082	-3.016000	3.852400	-11.618000	21.650894	0.000902	20.785404
111.030455	-2.997800	3.853600	-11.551000	21.638925	0.000903	20.788125
112.027549	-3.008400	3.853400	-11.591000	21.650720	0.000903	20.805619
113.027305	-3.009500	3.852000	-11.592000	21.641718	0.000903	20.785705
114.029469	-3.022400	3.850800	-11.638000	21.662395	0.000903	20.792646
115.027250	-3.000400	3.851100	-11.554000	21.649877	0.000903	20.786758
116.028124	-3.005400	3.852700	-11.578000	21.670424	0.000905	20.793570
117.028221	-2.985600	3.852100	-11.500000	21.672895	0.000905	20.785137
118.029262	-3.009300	3.850700	-11.587000	21.697086	0.000904	20.780897
119.030923	-2.999400	3.852100	-11.553000	21.719400	0.000905	20.805126
120.029825	-3.020000	3.850000	-11.625000	21.714417	0.000906	20.790182
121.029404	-3.020200	3.849900	-11.626000	21.713470	0.000904	20.799190
122.032400	-3.024200	3.850300	-11.642000	21.696689	0.000905	20.784293
123.029696	-3.012400	3.850200	-11.596000	21.725317	0.000905	20.798719
124.030447	-3.010500	3.849500	-11.588000	21.745042	0.000906	20.800442
125.030288	-3.005900	3.848300	-11.566000	21.760626	0.000907	20.785219
126.030776	-2.994900	3.848700	-11.525000	21.760006	0.000906	20.796453
127.039223	-3.009900	3.850800	-11.590000	21.761251	0.000906	20.784423
128.034598	-2.990800	3.849900	-11.514000	21.778009	0.000908	20.796453
129.032666	-2.990600	3.849500	-11.510000	21.768085	0.000908	20.774192
130.036148	-2.995600	3.849100	-11.529000	21.791326	0.000909	20.815945
131.038715	-2.982600	3.849300	-11.479000	21.770732	0.000907	20.799601
132.033000	-3.008500	3.848500	-11.578000	21.798881	0.000908	20.825403
133.037425	-2.997600	3.849300	-11.538000	21.834987	0.000909	20.796108
134.041427	-3.026300	3.847100	-11.641000	21.827631	0.000908	20.793012
135.033538	-2.998100	3.847800	-11.535000	21.819679	0.000910	20.801649
136.035750	-2.999300	3.847800	-11.540000	21.836260	0.000910	20.798330
137.032661	-3.007700	3.848300	-11.573000	21.832671	0.000910	20.798057
138.033778	-2.998900	3.848800	-11.541000	21.827564	0.000910	20.784411
139.034879	-3.007300	3.847900	-11.570000	21.845012	0.000910	20.827479
140.036533	-3.023300	3.847000	-11.630000	21.829509	0.000911	20.806272
141.033839	-3.033900	3.846200	-11.667000	21.835417	0.000910	20.809340
142.033141	-3.007000	3.846100	-11.564000	21.864292	0.000912	20.814534
143.035258	-2.998800	3.846600	-11.534000	21.869998	0.000913	20.813134
144.034080	-2.994900	3.846200	-11.518000	21.851077	0.000913	20.820747
145.032958	-2.990700	3.847700	-11.506000	21.865638	0.000915	20.788855
146.043056	-3.000200	3.846300	-11.538000	21.862322	0.000912	20.796916
147.036058	-2.950000	3.847500	-11.349000	21.875212	0.000916	20.816455
148.035502	-3.011900	3.844200	-11.577000	21.903835	0.000914	20.799113
149.036880	-2.978200	3.846600	-11.454000	21.911263	0.000917	20.786159
150.037515	-2.985800	3.844500	-11.477000	21.921461	0.000915	20.818652
151.035188	-2.990400	3.844800	-11.496000	21.902863	0.000916	20.804304
152.037451	-2.991300	3.845100	-11.501000	21.923755	0.000918	20.803405
153.042153	-2.983100	3.844600	-11.468000	21.924702	0.000918	20.806250
154.041121	-2.976900	3.844400	-11.442000	21.933378	0.000916	20.817304
155.036735	-2.994300	3.844100	-11.510000	21.959204	0.000915	20.829406
156.038649	-2.996200	3.845500	-11.521000	21.970771	0.000917	20.826760
157.044490	-2.971800	3.844200	-11.423000	21.964588	0.000917	20.812036
158.037509	-2.985100	3.842800	-11.471000	21.961322	0.000915	20.838164
159.035923	-3.000100	3.843200	-11.529000	21.978402	0.000917	20.817329
160.037856	-3.006900	3.842500	-11.553000	22.000611	0.000918	20.822492
161.039356	-2.975100	3.842800	-11.431000	21.995252	0.000919	20.802429
162.039619	-3.003200	3.843700	-11.541000	21.999064	0.000918	20.824262
163.038850	-2.970200	3.843800	-11.416000	22.011830	0.000920	20.814283
164.037680	-2.988800	3.842000	-11.482000	22.021477	0.000919	20.814931
165.041147	-3.005400	3.840300	-11.541000	22.040324	0.000920	20.813883
166.043890	-2.993000	3.842500	-11.499000	22.018112	0.000918	20.817252
167.039056	-2.997000	3.843000	-11.516000	22.055207	0.000920	20.797015
168.041106	-2.978000	3.842400	-11.441000	22.052465	0.000920	20.820822
169.042259	-2.989100	3.841400	-11.481000	22.062835	0.000921	20.822669
170.041090	-3.001000	3.842000	-11.528000	22.058526	0.000920	20.827837
171.048020	-2.998600	3.841500	-11.518000	22.084773	0.000922	20.812863
172.042257	-3.002600	3.840900	-11.532000	22.070713	0.000921	20.819650
173.041031	-2.993000	3.840600	-11.495000	22.075626	0.000922	20.843059
174.045571	-3.009100	3.840800	-11.556000	22.093549	0.000923	20.831132
175.042117	-2.989100	3.841100	-11.481000	22.080189	0.000922	20.815860
176.042841	-2.984500	3.841000	-11.462000	22.077022	0.000924	20.827388
177.044490	-3.011800	3.840500	-11.566000	22.098960	0.000923	20.832755
178.048474	-3.011400	3.838400	-11.557000	22.119201	0.000924	20.826942
179.046643	-2.992700	3.839700	-11.490000	22.122916	0.000924	20.839669
180.045570	-3.000400	3.837500	-11.512000	22.119375	0.000922	20.842762
181.048920	-3.006600	3.837800	-11.537000	22.130395	0.000925	20.826768
182.046156	-3.003400	3.837000	-11.523000	22.149366	0.000925	20.816364
183.048118	-2.992800	3.839000	-11.488000	22.147620	0.000926	20.827893
184.048568	-2.990900	3.838300	-11.479000	22.133013	0.000924	20.822751
185.046437	-3.006200	3.839300	-11.540000	22.150886	0.000926	20.818834
186.050762	-3.018100	3.836400	-11.577000	22.152307	0.000925	20.824998
187.046169	-3.009300	3.836600	-11.545000	22.151335	0.000929	20.824025
188.048175	-3.001300	3.836800	-11.515000	22.156095	0.000928	20.827843
189.048318	-2.996200	3.837200	-11.495000	22.167514	0.000927	20.831688
190.048100	-2.986000	3.836400	-11.454000	22.166768	0.000926	20.848959
191.047742	-3.013400	3.835000	-11.554000	22.175166	0.000927	20.824177
192.048392	-2.983400	3.837400	-11.447000	22.201912	0.000928	20.845265
193.047556	-3.017700	3.834900	-11.571000	22.201887	0.000928	20.830542
194.048341	-2.996200	3.836500	-11.494000	22.235684	0.000928	20.831189
195.056518	-3.018500	3.834200	-11.572000	22.217141	0.000928	20.826374
196.047494	-3.002900	3.835500	-11.516000	22.229654	0.000931	20.839377
197.050879	-3.009800	3.836000	-11.545000	22.213776	0.000929	20.832962
198.048689	-3.025200	3.834000	-11.597000	22.206375	0.000930	20.848311
199.048852	-2.991000	3.835100	-11.469000	22.227487	0.000931	20.806388
200.051519	-3.011300	3.834900	-11.547000	22.224247	0.000929	20.837756
201.050522	-3.006600	3.833900	-11.526000	22.227713	0.000932	20.835537
202.054599	-3.002600	3.833200	-11.508000	22.251515	0.000930	20.839454
203.050004	-3.005000	3.833600	-11.519000	22.244836	0.000931	20.846042
204.047750	-3.018000	3.832500	-11.565000	22.256950	0.000931	20.836835
205.050987	-3.005600	3.833600	-11.520000	22.252115	0.000933	20.844322
206.047960	-3.004000	3.833800	-11.515000	22.263502	0.000934	20.838180
207.053209	-2.994500	3.832800	-11.476000	22.235191	0.000933	20.839231
208.053930	-2.992800	3.830900	-11.462000	22.261611	0.000934	20.848140
209.051354	-2.989900	3.832600	-11.459000	22.284616	0.000932	20.862165
210.051864	-2.982400	3.831900	-11.427000	22.281574	0.000934	20.839206
211.052336	-3.000500	3.831100	-11.493000	22.270837	0.000934	20.833670
212.053671	-3.022300	3.831400	-11.578000	22.293391	0.000934	20.849141
213.053226	-2.992900	3.830700	-11.464000	22.295139	0.000936	20.850417
214.052754	-2.998700	3.831000	-11.487000	22.293768	0.000936	20.860897
215.054613	-3.011800	3.831500	-11.538000	22.285544	0.000935	20.852663
216.053997	-2.995900	3.832000	-11.479000	22.319738	0.000938	20.853237
217.060744	-3.002900	3.832000	-11.506000	22.310617	0.000937	20.859276
218.057924	-2.975900	3.830600	-11.398000	22.312062	0.000938	20.852663
219.053546	-2.999500	3.829900	-11.487000	22.340102	0.000939	20.862248
220.057855	-2.995200	3.830600	-11.473000	22.339433	0.000938	20.848303
221.053060	-3.000200	3.829900	-11.489000	22.350299	0.000939	20.860605
222.055552	-3.010000	3.829100	-11.523000	22.351620	0.000941	20.858609
223.055341	-2.966900	3.830500	-11.363000	22.385217	0.000940	20.869492
224.055314	-3.026100	3.827400	-11.580000	22.392867	0.000941	20.843490
225.054667	-3.007800	3.828500	-11.514000	22.396457	0.000942	20.862256
226.052842	-3.011900	3.828400	-11.530000	22.417439	0.000940	20.867147
227.060742	-2.980700	3.829500	-11.414000	22.435583	0.000943	20.861135
228.056698	-2.984200	3.828600	-11.425000	22.441744	0.000942	20.851658
229.056298	-3.024200	3.827200	-11.574000	22.450462	0.000944	20.848534
230.059176	-2.985900	3.827800	-11.428000	22.438578	0.000941	20.870297
231.056312	-3.013000	3.827700	-11.532000	22.450393	0.000945	20.866482
232.057340	-2.999600	3.826300	-11.476000	22.484879	0.000944	20.858819
233.061276	-2.993300	3.827800	-11.457000	22.453633	0.000946	20.870201
234.060552	-2.970600	3.828900	-11.373000	22.446636	0.000947	20.859875
235.060159	-2.993600	3.828100	-11.459000	22.483789	0.000947	20.879063
236.061516	-2.984000	3.827900	-11.421000	22.474870	0.000948	20.870132
237.063465	-3.000300	3.825800	-11.478000	22.503277	0.000949	20.852115
238.059461	-3.000600	3.826000	-11.479000	22.506344	0.000951	20.850445
239.060958	-3.002300	3.825400	-11.483000	22.532609	0.000952	20.861576
240.063102	-2.997100	3.826500	-11.468000	22.517833	0.000952	20.866218
241.062121	-3.005500	3.825100	-11.495000	22.521073	0.000952	20.875626
242.060650	-2.987300	3.825200	-11.424000	22.536371	0.000955	20.861077
243.063479	-3.017200	3.824400	-11.538000	22.531912	0.000954	20.878895
244.062613	-3.021500	3.824500	-11.555000	22.571529	0.000957	20.886804
245.060990	-3.008400	3.824500	-11.504000	22.555612	0.000955	20.877026
246.062007	-2.992800	3.825600	-11.446000	22.566173	0.000956	20.868638
247.061954	-3.019900	3.822800	-11.544000	22.588649	0.000957	20.882140
248.061810	-3.008700	3.824100	-11.503000	22.572853	0.000955	20.859682
249.066076	-3.003600	3.824300	-11.485000	22.602078	0.000959	20.882787
250.063622	-3.003800	3.823400	-11.484000	22.598761	0.000960	20.859553
251.063419	-2.987800	3.824000	-11.424000	22.623827	0.000959	20.879915
252.065495	-2.991700	3.822900	-11.435000	22.599160	0.000958	20.872754
253.063548	-3.007800	3.822700	-11.497000	22.606534	0.000959	20.867337
254.064285	-3.008300	3.823000	-11.500000	22.601552	0.000959	20.887002
255.066154	-2.991700	3.822200	-11.434000	22.644879	0.000958	20.877768
256.063691	-3.015900	3.822000	-11.526000	22.635458	0.000959	20.872125
257.064623	-2.981600	3.822600	-11.397000	22.651126	0.000963	20.869327
258.066452	-2.996700	3.821900	-11.453000	22.644576	0.000961	20.870827
259.065694	-2.996900	3.821100	-11.450000	22.654737	0.000961	20.883848
260.064371	-3.011400	3.821700	-11.507000	22.632114	0.000961	20.876836
261.066419	-3.012100	3.820800	-11.507000	22.634456	0.000962	20.872544
262.068364	-2.988700	3.819500	-11.415000	22.636275	0.000962	20.881004
263.070920	-3.011600	3.820900	-11.505000	22.668840	0.000965	20.888964
264.067164	-2.996000	3.821500	-11.448000	22.646211	0.000965	20.878153
265.068889	-3.008900	3.820500	-11.494000	22.667615	0.000965	20.898642
266.070547	-2.989200	3.820400	-11.418000	22.683233	0.000967	20.896743
267.069843	-3.014800	3.818100	-11.510000	22.700924	0.000964	20.899290
268.071265	-2.978200	3.819600	-11.375000	22.698081	0.000967	20.882219
269.069371	-3.024200	3.819800	-11.550000	22.718015	0.000967	20.872315
270.067524	-3.009100	3.818400	-11.489000	22.728423	0.000967	20.890326
271.071891	-3.010200	3.817900	-11.492000	22.741228	0.000966	20.899833
272.070833	-3.002300	3.819600	-11.466000	22.731535	0.000969	20.881591
273.069907	-3.010000	3.818600	-11.493000	22.733357	0.000970	20.884838
274.072021	-2.996600	3.818000	-11.440000	22.717536	0.000970	20.902179
275.069356	-3.016400	3.817800	-11.514000	22.716116	0.000970	20.901231
276.069886	-2.995200	3.818100	-11.435000	22.696581	0.000969	20.886880
277.070070	-2.996300	3.817100	-11.435000	22.695959	0.000972	20.900007
278.070857	-3.002600	3.816900	-11.460000	22.692169	0.000972	20.899530
279.070776	-3.027800	3.815800	-11.552000	22.693166	0.000971	20.896261
280.072311	-2.993000	3.817400	-11.423000	22.701810	0.000972	20.894014
281.069894	-2.980300	3.818000	-11.378000	22.682875	0.000972	20.878368
282.070489	-2.981100	3.816500	-11.375000	22.709233	0.000972	20.899078
283.069634	-3.018900	3.815200	-11.517000	22.739026	0.000974	20.884353
284.072230	-3.008100	3.815000	-11.475000	22.760528	0.000973	20.873175
285.070546	-3.015300	3.814200	-11.500000	22.729309	0.000973	20.874619
286.069574	-3.005000	3.814900	-11.463000	22.730302	0.000974	20.877037
287.073018	-2.977100	3.815500	-11.356000	22.726293	0.000974	20.870176
288.069951	-3.005900	3.813600	-11.462000	22.721011	0.000974	20.872946
289.071857	-3.012400	3.815000	-11.490000	22.749836	0.000976	20.891861
290.074477	-3.005900	3.813400	-11.462000	22.766951	0.000975	20.876764
291.073929	-2.986800	3.812800	-11.387000	22.770314	0.000975	20.900045
292.074347	-3.018300	3.812700	-11.506000	22.769518	0.000975	20.865586
293.074388	-3.016100	3.812400	-11.497000	22.773404	0.000976	20.873271
294.075395	-3.011600	3.812600	-11.481000	22.799638	0.000977	20.878214
295.074710	-3.017000	3.812200	-11.500000	22.790920	0.000976	20.869007
296.074584	-3.005400	3.811400	-11.454000	22.758932	0.000979	20.885326
297.075768	-3.005800	3.811600	-11.456000	22.744830	0.000978	20.869779
298.074630	-3.022900	3.810600	-11.518000	22.764958	0.000978	20.887569
299.075318	-3.022000	3.809600	-11.511000	22.788377	0.000976	20.866934
300.073906	-3.019600	3.811500	-11.508000	22.807013	0.000977	20.876593
301.076812	-3.008800	3.811000	-11.466000	22.804052	0.000977	20.885480
302.074750	-2.984400	3.810800	-11.372000	22.832801	0.000980	20.874451
303.078903	-2.984200	3.812200	-11.375000	22.822311	0.000979	20.872003
304.075179	-2.999500	3.810700	-11.429000	22.822858	0.000980	20.888672
305.075160	-3.000200	3.811300	-11.433000	22.850412	0.000980	20.882611
306.076347	-2.998100	3.809300	-11.420000	22.871614	0.000981	20.846481
307.079115	-3.018200	3.809300	-11.496000	22.856469	0.000981	20.872083
308.075507	-3.018400	3.809100	-11.496000	22.873730	0.000982	20.866143
309.075907	-3.013300	3.809000	-11.476000	22.897923	0.000981	20.863828
310.078552	-3.018600	3.809500	-11.499000	22.876275	0.000983	20.868219
311.086360	-2.979100	3.810200	-11.350000	22.879115	0.000984	20.853995
312.078823	-3.001900	3.809300	-11.434000	22.875830	0.000985	20.860660
313.083377	-3.005300	3.808500	-11.445000	22.872120	0.000985	20.858367
314.081040	-2.988400	3.807900	-11.379000	22.890381	0.000984	20.840152
315.080892	-3.004400	3.807600	-11.438000	22.882508	0.000985	20.849808
316.081283	-2.983000	3.807300	-11.356000	22.871975	0.000985	20.862488
317.080304	-3.000400	3.807600	-11.423000	22.895339	0.000985	20.845593
318.080749	-2.991500	3.807400	-11.388000	22.888292	0.000987	20.852283
319.081215	-2.993200	3.807000	-11.394000	22.901965	0.000989	20.854602
320.082823	-3.004000	3.805700	-11.431000	22.911012	0.000989	20.846122
321.080889	-3.004700	3.806800	-11.438000	22.887200	0.000990	20.859249
322.083417	-2.992100	3.807900	-11.393000	22.911860	0.000989	20.855980
323.091350	-3.000900	3.805400	-11.419000	22.919011	0.000990	20.850817
324.082592	-2.997800	3.806500	-11.408000	22.932238	0.000990	20.838939
325.083654	-2.996100	3.805900	-11.401000	22.956204	0.000991	20.843509
326.083005	-2.987100	3.805900	-11.367000	22.948954	0.000990	20.845728
327.082268	-3.003200	3.804900	-11.426000	22.944298	0.000990	20.830633
328.083674	-3.001200	3.806500	-11.423000	22.945393	0.000991	20.835523
329.081651	-2.996300	3.804000	-11.397000	22.938619	0.000990	20.833952
330.088779	-2.989300	3.803800	-11.370000	22.929478	0.000991	20.839019
331.082232	-2.980100	3.804800	-11.337000	22.954162	0.000993	20.832455
332.083626	-3.011600	3.802700	-11.451000	22.975508	0.000992	20.839617
333.082692	-3.015700	3.804000	-11.470000	22.932890	0.000992	20.840066
334.086986	-2.981000	3.804500	-11.340000	22.936082	0.000993	20.840419
335.084031	-2.998800	3.802800	-11.404000	22.931647	0.000993	20.861105
336.083415	-2.985000	3.803600	-11.352000	22.933964	0.000993	20.831659
337.082975	-3.010200	3.803600	-11.447000	22.949832	0.000995	20.834754
338.086244	-2.996400	3.803000	-11.393000	22.974493	0.000995	20.842867
339.086943	-2.993800	3.801900	-11.380000	22.993123	0.000995	20.834981
340.084479	-2.997900	3.800500	-11.392000	22.988217	0.000995	20.823902
341.086979	-2.983700	3.801600	-11.341000	22.995941	0.000998	20.825950
342.087141	-3.004800	3.801900	-11.422000	22.995767	0.000996	20.807759
343.085307	-3.001300	3.800400	-11.404000	22.974221	0.000998	20.828844
344.085610	-3.005100	3.800100	-11.419000	22.997388	0.000997	20.837357
345.084683	-2.996000	3.799500	-11.382000	23.019355	0.000998	20.821909
346.085505	-3.024900	3.798500	-11.489000	23.010564	0.000999	20.845343
347.085750	-3.001800	3.799400	-11.405000	23.015374	0.000998	20.827403
348.084150	-2.987100	3.799600	-11.349000	22.993181	0.000998	20.832668
349.090640	-3.000800	3.799200	-11.399000	23.016172	0.000998	20.815875
350.085731	-3.008900	3.797500	-11.424000	23.023221	0.001000	20.812032
351.085493	-3.005600	3.797800	-11.413000	23.042350	0.000999	20.840207
352.088206	-2.994100	3.797400	-11.368000	23.070919	0.000999	20.840858
353.085687	-3.016000	3.797300	-11.452000	23.090621	0.001000	20.809391
354.086814	-2.993900	3.796900	-11.366000	23.099587	0.000999	20.849668
355.085302	-2.985300	3.797400	-11.334000	23.115257	0.001000	20.817956
356.086170	-3.005600	3.796300	-11.409000	23.087363	0.000999	20.800912
357.086578	-2.970300	3.798200	-11.280000	23.103678	0.001002	20.831957
358.088696	-2.999700	3.795800	-11.385000	23.089135	0.001004	20.822127
359.086884	-3.014100	3.796300	-11.441000	23.094913	0.001003	20.836925
360.092943	-2.991800	3.794700	-11.352000	23.107667	0.001002	20.837377
361.090916	-3.000600	3.796200	-11.391000	23.116234	0.001003	20.809926
362.089093	-3.019100	3.795400	-11.458000	23.123456	0.001003	20.819059
363.090403	-3.016500	3.794800	-11.446000	23.130807	0.001005	20.826899
364.091580	-3.003100	3.795400	-11.398000	23.117907	0.001003	20.814447
365.089323	-3.021100	3.794200	-11.462000	23.117607	0.001006	20.823156
366.090969	-2.993500	3.793200	-11.354000	23.123341	0.001004	20.817521
367.087993	-2.981400	3.795600	-11.315000	23.127574	0.001005	20.819867
368.088796	-3.006100	3.793900	-11.404000	23.143264	0.001004	20.803821
369.091185	-3.036300	3.793600	-11.517000	23.134746	0.001004	20.812830
370.088531	-2.988200	3.795000	-11.338000	23.147498	0.001005	20.809486
371.090564	-3.009200	3.792600	-11.412000	23.135124	0.001004	20.795190
372.089319	-3.007800	3.792800	-11.407000	23.163517	0.001005	20.811788
373.088509	-3.010800	3.791800	-11.416000	23.156818	0.001007	20.812188
374.090202	-2.980600	3.792100	-11.301000	23.138714	0.001007	20.825340
375.091295	-2.984800	3.793100	-11.321000	23.179110	0.001008	20.796593
376.093658	-2.993600	3.791700	-11.350000	23.166065	0.001006	20.813867
377.092496	-3.002700	3.792000	-11.386000	23.170970	0.001008	20.802661
378.091889	-2.994900	3.792500	-11.356000	23.220877	0.001007	20.788188
379.093187	-3.010800	3.791500	-11.414000	23.210000	0.001008	20.786772
380.095147	-3.011900	3.790600	-11.415000	23.210424	0.001008	20.787670
381.092098	-2.995100	3.790700	-11.352000	23.217821	0.001009	20.785600
382.091565	-2.990800	3.791100	-11.336000	23.213420	0.001009	20.802527
383.092957	-2.987000	3.791900	-11.325000	23.216655	0.001008	20.785854
384.092382	-3.002300	3.789400	-11.376000	23.234114	0.001011	20.787230
385.094370	-2.985400	3.789600	-11.313000	23.235537	0.001008	20.795767
386.092920	-2.985400	3.791000	-11.317000	23.275010	0.001011	20.799765
387.095606	-2.995300	3.789900	-11.351000	23.259570	0.001010	20.794249
388.094539	-3.001300	3.788800	-11.371000	23.264280	0.001012	20.796124
389.095937	-3.017300	3.787900	-11.428000	23.279497	0.001011	20.817538
390.093749	-2.963500	3.789000	-11.226000	23.308209	0.001012	20.785146
391.092945	-2.993500	3.788600	-11.340000	23.272255	0.001011	20.806486
392.093654	-2.996600	3.787500	-11.348000	23.286028	0.001013	20.799901
393.093751	-2.994900	3.787700	-11.343000	23.287574	0.001012	20.788648
394.093904	-2.993700	3.787400	-11.337000	23.278813	0.001012	20.791248
395.093295	-3.028800	3.785800	-11.466000	23.266787	0.001012	20.781566
396.093303	-2.994000	3.787400	-11.339000	23.256502	0.001014	20.789277
397.099854	-3.010900	3.786200	-11.399000	23.280038	0.001012	20.799113
398.092464	-2.989300	3.787000	-11.319000	23.263308	0.001014	20.799891
399.092518	-2.997500	3.786700	-11.349000	23.257482	0.001014	20.782673
400.093267	-3.013300	3.785000	-11.404000	23.256987	0.001013	20.777435
401.094627	-3.014900	3.783500	-11.405000	23.245360	0.001014	20.793284
402.093621	-3.003200	3.784000	-11.363000	23.246884	0.001014	20.769207
403.093092	-3.001900	3.784800	-11.360000	23.259111	0.001015	20.775771
404.092499	-3.017200	3.783500	-11.415000	23.260163	0.001016	20.789626
405.093423	-3.007100	3.785400	-11.381000	23.260834	0.001017	20.777971
406.092866	-3.007000	3.784100	-11.378000	23.291540	0.001017	20.774131
407.093635	-2.994200	3.784000	-11.328000	23.292987	0.001015	20.777004
408.092027	-3.005800	3.782800	-11.369000	23.279591	0.001016	20.774010
409.092523	-2.985800	3.783400	-11.295000	23.321776	0.001018	20.789261
410.095534	-3.010300	3.782000	-11.383000	23.307409	0.001017	20.772017
411.097191	-3.010800	3.781400	-11.383000	23.340254	0.001019	20.780279
412.098677	-2.992900	3.782700	-11.320000	23.353451	0.001019	20.782601
413.096475	-3.009900	3.782300	-11.383000	23.358058	0.001017	20.762088
414.101312	-2.988200	3.782100	-11.301000	23.347601	0.001019	20.767254
415.096181	-2.992800	3.781400	-11.317000	23.369539	0.001018	20.775491
416.095359	-2.974900	3.781600	-11.248000	23.373525	0.001019	20.765261
417.100429	-2.991000	3.780200	-11.306000	23.360031	0.001021	20.767384
418.097297	-2.997100	3.779900	-11.328000	23.351788	0.001019	20.764812
419.097410	-3.001000	3.779400	-11.341000	23.329725	0.001019	20.780158
420.098678	-2.986700	3.780900	-11.291000	23.365609	0.001020	20.772975
421.101248	-3.014000	3.777700	-11.384000	23.380373	0.001022	20.773074
422.098159	-2.993700	3.778700	-11.311000	23.389464	0.001022	20.780763
423.098745	-3.031600	3.776700	-11.448000	23.427408	0.001022	20.754783
424.101896	-2.988600	3.778500	-11.290000	23.396807	0.001021	20.788597
425.100392	-2.986200	3.780700	-11.287000	23.402042	0.001021	20.783887
426.099285	-2.988600	3.777800	-11.289000	23.409484	0.001020	20.761474
427.101146	-3.011300	3.777800	-11.374000	23.395465	0.001022	20.761173
428.101820	-3.001900	3.777400	-11.336000	23.396863	0.001023	20.756410
429.103515	-3.009700	3.776200	-11.364000	23.406797	0.001022	20.781066
430.105670	-2.979300	3.777500	-11.253000	23.403115	0.001025	20.759357
431.110108	-3.009100	3.775100	-11.358000	23.439686	0.001023	20.768986
432.108024	-2.976800	3.776600	-11.241000	23.444895	0.001024	20.772311
433.102934	-2.983800	3.775400	-11.263000	23.451193	0.001024	20.766770
434.106795	-2.995000	3.775700	-11.307000	23.454381	0.001026	20.777078
435.104709	-2.978900	3.777000	-11.250000	23.457992	0.001027	20.774533
436.104798	-2.996300	3.774000	-11.307000	23.464837	0.001027	20.761006
437.106388	-3.002600	3.773600	-11.329000	23.494592	0.001027	20.765701
438.104324	-2.992800	3.774900	-11.296000	23.492898	0.001026	20.741717
439.104591	-2.981100	3.774100	-11.250000	23.493349	0.001027	20.768248
440.107729	-3.000400	3.774200	-11.323000	23.524720	0.001027	20.767926
441.105793	-3.010500	3.773300	-11.359000	23.506421	0.001028	20.753376
442.107620	-3.024000	3.773300	-11.410000	23.524522	0.001027	20.752080
443.106093	-3.004600	3.772900	-11.335000	23.492901	0.001028	20.756893
444.106354	-3.011400	3.773400	-11.362000	23.520089	0.001028	20.768974
445.106617	-3.023700	3.772400	-11.405000	23.501168	0.001028	20.776086
446.104889	-2.995200	3.772000	-11.297000	23.515782	0.001029	20.762286
447.108078	-2.997200	3.772500	-11.306000	23.507617	0.001028	20.767852
448.109691	-2.998400	3.771300	-11.305000	23.502711	0.001031	20.744915
449.108325	-3.017500	3.769300	-11.371000	23.508338	0.001031	20.767625
450.108472	-3.002300	3.770000	-11.317000	23.453265	0.001029	20.765053
451.106252	-3.013500	3.770700	-11.362000	23.457822	0.001029	20.753500
452.108680	-3.010300	3.770500	-11.349000	23.462203	0.001031	20.765478
453.112671	-3.002400	3.770200	-11.318000	23.454638	0.001032	20.759791
454.108061	-3.007200	3.770000	-11.336000	23.505447	0.001031	20.768047
455.108081	-3.006900	3.768700	-11.331000	23.520410	0.001032	20.770244
456.107993	-3.018800	3.769100	-11.377000	23.551505	0.001032	20.759689
457.109346	-2.996200	3.768100	-11.289000	23.527506	0.001032	20.762183
458.110964	-2.989900	3.769400	-11.269000	23.525635	0.001030	20.764102
459.112968	-3.006000	3.768900	-11.328000	23.547994	0.001032	20.765651
460.110590	-3.003400	3.766200	-11.310000	23.522575	0.001031	20.740170
461.112842	-2.995700	3.768700	-11.288000	23.507961	0.001031	20.734530
462.113343	-3.007800	3.767000	-11.330000	23.515779	0.001033	20.753273
463.114335	-2.982400	3.768300	-11.237000	23.521205	0.001032	20.743065
464.115930	-3.013000	3.765800	-11.345000	23.501938	0.001033	20.740347
465.112070	-2.995900	3.765800	-11.280000	23.508359	0.001033	20.760061
466.111666	-2.985700	3.766400	-11.244000	23.489639	0.001031	20.746037
467.112044	-3.028800	3.765100	-11.402000	23.501490	0.001033	20.747484
468.110991	-3.002200	3.765700	-11.303000	23.521681	0.001033	20.735007
469.112958	-3.019200	3.765800	-11.369000	23.526860	0.001032	20.752526
470.112116	-3.005400	3.765700	-11.315000	23.535423	0.001033	20.727919
471.115181	-3.001100	3.763600	-11.294000	23.576129	0.001035	20.767777
472.115072	-2.998400	3.765200	-11.288000	23.583326	0.001033	20.744171
473.122401	-2.980200	3.764700	-11.218000	23.566147	0.001034	20.753977
474.114730	-3.005300	3.763100	-11.308000	23.592511	0.001033	20.750534
475.116446	-3.008400	3.762900	-11.319000	23.594480	0.001032	20.742076
476.119644	-2.990400	3.763100	-11.251000	23.615214	0.001034	20.751956
477.120197	-3.001900	3.762600	-11.294000	23.630998	0.001032	20.743124
478.117655	-2.980500	3.762800	-11.213000	23.627264	0.001032	20.738431
479.121058	-2.993800	3.763300	-11.265000	23.587388	0.001033	20.738760
480.120418	-3.010700	3.760000	-11.319000	23.573600	0.001034	20.714979
481.119627	-2.991700	3.762800	-11.256000	23.553908	0.001035	20.740285
482.123222	-3.006500	3.761600	-11.308000	23.568648	0.001033	20.728508
483.120273	-3.020000	3.760600	-11.356000	23.592696	0.001034	20.750245
484.120249	-2.987900	3.760900	-11.236000	23.618540	0.001037	20.745807
485.122616	-3.009300	3.760400	-11.315000	23.643811	0.001036	20.739848
486.124860	-2.995600	3.759700	-11.261000	23.664347	0.001034	20.740994
487.121499	-3.020200	3.759400	-11.354000	23.666739	0.001035	20.741971
488.120369	-3.009300	3.759900	-11.314000	23.666393	0.001034	20.760590
489.121559	-3.010800	3.759300	-11.317000	23.651311	0.001034	20.746892
490.120531	-3.000600	3.759600	-11.280000	23.639737	0.001034	20.738608
491.123884	-2.992600	3.758500	-11.246000	23.628837	0.001035	20.750915
492.124456	-2.994000	3.759100	-11.255000	23.643778	0.001035	20.727011
493.126895	-2.985500	3.757800	-11.217000	23.609402	0.001038	20.744707
494.123902	-3.009200	3.756400	-11.302000	23.612215	0.001036	20.732354
495.123625	-3.002100	3.756800	-11.277000	23.587076	0.001038	20.745086
496.122012	-3.013200	3.757400	-11.321000	23.577076	0.001034	20.723679
497.124636	-2.990500	3.757900	-11.236000	23.576599	0.001035	20.741695
498.126017	-3.017300	3.756200	-11.332000	23.600326	0.001034	20.761214
499.123576	-2.996600	3.757000	-11.257000	23.620318	0.001035	20.744745
500.128438	-2.987100	3.756400	-11.220000	23.627113	0.001038	20.743970
501.125149	-2.998000	3.756400	-11.260000	23.640337	0.001037	20.734468
502.126490	-2.990800	3.755700	-11.231000	23.639092	0.001038	20.740332
503.128799	-3.002300	3.754900	-11.272000	23.621669	0.001038	20.746099
504.126047	-3.008400	3.754000	-11.291000	23.624757	0.001040	20.746350
505.128619	-2.985500	3.754300	-11.207000	23.634742	0.001037	20.745455
506.125756	-2.980500	3.753600	-11.185000	23.652242	0.001036	20.741661
507.128226	-3.001400	3.752700	-11.262000	23.653982	0.001039	20.738190
508.128455	-2.977900	3.753700	-11.176000	23.662672	0.001038	20.751644
509.128669	-2.998400	3.752300	-11.250000	23.650174	0.001038	20.728682
510.128390	-2.991600	3.751900	-11.223000	23.623515	0.001038	20.745105
511.129029	-3.002800	3.751600	-11.265000	23.628417	0.001035	20.743856
512.130876	-2.988100	3.752100	-11.210000	23.641590	0.001039	20.742836
513.129978	-2.995000	3.751000	-11.233000	23.627870	0.001038	20.764171
514.130033	-2.982700	3.753000	-11.193000	23.634919	0.001037	20.735674
515.130425	-2.980400	3.751000	-11.178000	23.649157	0.001038	20.735249
516.130445	-3.005600	3.751900	-11.275000	23.669441	0.001037	20.734248
517.132833	-2.991400	3.752300	-11.223000	23.687636	0.001036	20.751067
518.132670	-2.996000	3.750600	-11.235000	23.718553	0.001038	20.759779
519.130847	-2.998300	3.750200	-11.243000	23.730624	0.001036	20.760027
520.131079	-2.980200	3.749800	-11.173000	23.729431	0.001036	20.738915
521.132079	-3.024500	3.749100	-11.338000	23.741402	0.001036	20.738116
522.131863	-2.990100	3.750200	-11.212000	23.772117	0.001035	20.754213
523.131742	-3.022000	3.747300	-11.323000	23.768284	0.001037	20.742783
524.132281	-2.996900	3.748600	-11.233000	23.800318	0.001036	20.758781
525.133952	-3.019100	3.747100	-11.311000	23.808156	0.001036	20.751467
526.133777	-3.010300	3.748800	-11.285000	23.821425	0.001035	20.740115
527.134694	-2.996500	3.747700	-11.229000	23.814205	0.001036	20.739988
528.134124	-3.021100	3.746800	-11.317000	23.826976	0.001036	20.745207
529.139070	-3.007000	3.747000	-11.265000	23.844646	0.001036	20.731155
530.134324	-3.008500	3.746800	-11.271000	23.826157	0.001035	20.746282
531.134795	-3.006800	3.745800	-11.262000	23.816922	0.001036	20.740341
532.141424	-2.994100	3.746500	-11.215000	23.810750	0.001037	20.747429
533.137947	-3.003300	3.745700	-11.249000	23.793379	0.001038	20.770316
534.138459	-3.000500	3.745600	-11.238000	23.821954	0.001037	20.756293
535.141679	-2.985600	3.744500	-11.177000	23.856400	0.001038	20.747209
536.137992	-2.998400	3.745300	-11.228000	23.840075	0.001040	20.751229
537.142123	-2.997700	3.744200	-11.223000	23.870790	0.001038	20.743146
538.139179	-3.014700	3.744700	-11.287000	23.845873	0.001039	20.748508
539.141191	-3.000000	3.745300	-11.235000	23.828828	0.001038	20.751805
540.139781	-2.993600	3.744100	-11.208000	23.834728	0.001039	20.762463
541.139130	-3.005600	3.741800	-11.244000	23.853965	0.001040	20.744767
542.142551	-3.004200	3.742400	-11.243000	23.853693	0.001039	20.742598
543.138630	-2.992500	3.743300	-11.201000	23.862928	0.001039	20.748065
544.139960	-2.994000	3.742200	-11.204000	23.853890	0.001039	20.749909
545.140077	-3.014200	3.741600	-11.276000	23.884602	0.001039	20.755574
546.141572	-3.022600	3.740500	-11.304000	23.885572	0.001039	20.744693
547.143732	-3.001400	3.739900	-11.224000	23.899885	0.001039	20.752407
548.141816	-3.021300	3.740000	-11.298000	23.915860	0.001039	20.748511
549.139307	-2.985900	3.741800	-11.171000	23.900729	0.001040	20.762262
550.140615	-2.978300	3.741600	-11.142000	23.877583	0.001038	20.738578
551.141406	-2.984700	3.740100	-11.162000	23.910856	0.001039	20.754399
552.144698	-2.999300	3.739300	-11.215000	23.909592	0.001039	20.765460
553.147011	-2.997300	3.739100	-11.205000	23.910285	0.001039	20.759516
554.142214	-3.002700	3.739800	-11.228000	23.928824	0.001038	20.764357
555.146070	-3.002100	3.739300	-11.225000	23.913125	0.001040	20.767106
556.147700	-3.002200	3.738700	-11.224000	23.938630	0.001039	20.786518
557.143746	-2.999500	3.737800	-11.210000	23.942089	0.001040	20.766278
558.144979	-3.017800	3.738300	-11.280000	23.969834	0.001039	20.762333
559.146755	-3.022700	3.737800	-11.297000	23.988972	0.001039	20.768723
560.144319	-3.008500	3.737500	-11.243000	24.022916	0.001040	20.744916
561.144650	-2.984900	3.738500	-11.158000	24.015651	0.001039	20.771296
562.149087	-2.988400	3.738000	-11.170000	24.012962	0.001041	20.771919
563.146886	-2.955200	3.737600	-11.044000	24.029560	0.001038	20.768649
564.147065	-2.997700	3.734900	-11.196000	24.059914	0.001039	20.753098
565.149719	-2.994700	3.737100	-11.191000	24.035258	0.001038	20.774838
566.148960	-3.012500	3.735200	-11.252000	24.041228	0.001040	20.752375
567.146179	-3.002000	3.735500	-11.213000	24.055384	0.001039	20.761357
568.147794	-3.003600	3.735600	-11.219000	24.033342	0.001039	20.763907
569.146854	-2.998700	3.733400	-11.194000	24.060418	0.001039	20.754551
570.144230	-3.017800	3.733700	-11.266000	24.062133	0.001038	20.773341
571.152105	-3.010100	3.734200	-11.239000	24.070043	0.001037	20.776059
572.146257	-2.990400	3.733400	-11.164000	24.069370	0.001036	20.774909
573.147116	-2.988600	3.734700	-11.160000	24.092239	0.001036	20.782198
574.145186	-2.995000	3.733300	-11.180000	24.073554	0.001039	20.781002
575.147747	-3.003400	3.731800	-11.207000	24.087342	0.001039	20.776812
576.149078	-2.983400	3.733600	-11.138000	24.067009	0.001039	20.768274
577.149581	-2.975500	3.732400	-11.104000	24.092567	0.001037	20.805760
578.153214	-2.991800	3.733400	-11.168000	24.088760	0.001038	20.771122
579.149221	-3.007100	3.730600	-11.217000	24.117373	0.001036	20.779905
580.148404	-2.990500	3.732300	-11.160000	24.112324	0.001037	20.780057
581.149737	-3.002100	3.731800	-11.202000	24.104312	0.001036	20.782453
582.149920	-2.993900	3.732000	-11.172000	24.090926	0.001037	20.783252
583.151801	-2.998300	3.730900	-11.185000	24.088788	0.001037	20.778263
584.154490	-3.004000	3.730500	-11.205000	24.057362	0.001038	20.802696
585.152064	-3.026100	3.728800	-11.282000	24.050171	0.001037	20.785527
586.152448	-3.006300	3.729600	-11.212000	24.035642	0.001037	20.797034
587.153731	-3.001200	3.730200	-11.193000	24.045224	0.001035	20.785307
588.150995	-3.001000	3.728800	-11.189000	24.025864	0.001035	20.802401
589.151814	-2.997600	3.727500	-11.173000	24.018976	0.001037	20.783640
590.155832	-3.005700	3.728800	-11.207000	24.034931	0.001037	20.775933
591.152526	-2.987200	3.729000	-11.138000	24.030277	0.001036	20.785016
592.153401	-2.997700	3.729700	-11.178000	24.036152	0.001037	20.798020
593.154245	-2.998300	3.726900	-11.173000	24.044690	0.001035	20.781452
594.152269	-3.008600	3.728200	-11.216000	24.081740	0.001036	20.769772
595.153368	-3.000900	3.726900	-11.182000	24.064377	0.001036	20.782705
596.153735	-2.996500	3.728400	-11.172000	24.089036	0.001036	20.780882
597.153812	-3.004400	3.726600	-11.195000	24.101727	0.001035	20.797403
598.154714	-2.998000	3.726200	-11.169000	24.095584	0.001036	20.770380
599.154914	-3.004200	3.727500	-11.196000	24.102231	0.001037	20.790322
600.155274	-3.007500	3.725400	-11.203000	24.095139	0.001035	20.781788
601.157725	-2.981500	3.725900	-11.107000	24.096459	0.001036	20.774102
602.155862	-2.993600	3.724700	-11.149000	24.106439	0.001034	20.763723
603.159008	-3.008900	3.725100	-11.207000	24.080193	0.001035	20.791928
604.164695	-3.019600	3.723200	-11.241000	24.057299	0.001035	20.789830
605.156703	-3.016400	3.722400	-11.226000	24.073179	0.001034	20.795799
606.159112	-2.995400	3.725100	-11.158000	24.098412	0.001033	20.792182
607.156847	-3.005800	3.723100	-11.189000	24.087962	0.001034	20.803513
608.156943	-3.008300	3.723100	-11.199000	24.097911	0.001035	20.776507
609.160343	-2.997600	3.722600	-11.157000	24.078784	0.001033	20.794309
610.157536	-2.993000	3.722500	-11.141000	24.063829	0.001033	20.799224
611.156494	-2.994000	3.722200	-11.143000	24.055572	0.001036	20.804694
612.157686	-2.977600	3.723600	-11.086000	24.034744	0.001034	20.791867
613.157053	-3.009600	3.720500	-11.196000	24.012202	0.001037	20.817149
614.162634	-2.994200	3.722000	-11.143000	24.015465	0.001035	20.788179
615.157932	-3.027300	3.720200	-11.261000	24.059460	0.001034	20.812860
616.166624	-2.992600	3.720400	-11.132000	24.080788	0.001034	20.802956
617.161889	-2.988800	3.720800	-11.120000	24.063072	0.001035	20.807000
618.158731	-2.991200	3.719900	-11.126000	24.099927	0.001035	20.800815
619.163589	-2.993500	3.719400	-11.133000	24.100548	0.001036	20.799067
620.164046	-2.994100	3.720700	-11.139000	24.133768	0.001035	20.817686
621.161587	-3.018400	3.718400	-11.223000	24.135063	0.001036	20.797648
622.164115	-3.002100	3.720100	-11.168000	24.156711	0.001036	20.797074
623.163714	-2.993000	3.719700	-11.132000	24.152756	0.001034	20.787418
624.160861	-2.990200	3.719400	-11.121000	24.140588	0.001035	20.793231
625.159571	-2.989500	3.718200	-11.115000	24.143051	0.001034	20.804710
626.165612	-2.968000	3.719200	-11.037000	24.155638	0.001033	20.809275
627.159146	-2.970600	3.718800	-11.046000	24.192191	0.001033	20.809901
628.160984	-2.970700	3.718600	-11.045000	24.195450	0.001035	20.795153
629.167266	-2.985800	3.717200	-11.098000	24.208341	0.001033	20.816617
630.163239	-3.008400	3.716900	-11.181000	24.211251	0.001035	20.813846
631.163852	-3.004900	3.716700	-11.167000	24.235656	0.001036	20.801342
632.161063	-2.992800	3.715800	-11.119000	24.233391	0.001035	20.811398
633.161574	-3.004000	3.716800	-11.164000	24.282478	0.001034	20.815117
634.161487	-3.008600	3.716000	-11.179000	24.266304	0.001034	20.816437
635.161244	-2.989200	3.716300	-11.107000	24.256081	0.001034	20.810450
636.161612	-3.029100	3.714300	-11.250000	24.270929	0.001033	20.823921
637.162231	-3.022000	3.714900	-11.225000	24.283170	0.001033	20.821500
638.162420	-3.001300	3.715600	-11.151000	24.259634	0.001033	20.809272
639.163378	-3.006300	3.714000	-11.165000	24.244134	0.001032	20.825018
640.162411	-3.018700	3.713900	-11.210000	24.223656	0.001032	20.815383
641.162361	-2.994800	3.713300	-11.120000	24.247887	0.001031	20.833524
642.163348	-3.013600	3.713100	-11.189000	24.261423	0.001030	20.821023
643.163627	-3.002100	3.712700	-11.145000	24.260873	0.001033	20.829954
644.162655	-3.015300	3.711600	-11.191000	24.269949	0.001032	20.827205
645.164650	-2.990300	3.713300	-11.103000	24.285820	0.001030	20.826529
646.166463	-3.009800	3.711600	-11.170000	24.261215	0.001029	20.836461
647.166330	-2.994300	3.713100	-11.117000	24.285072	0.001030	20.809184
648.163414	-2.990300	3.712300	-11.100000	24.295316	0.001028	20.837952
649.163699	-2.993200	3.712200	-11.111000	24.284995	0.001029	20.833288
650.162776	-2.985200	3.712200	-11.080000	24.298279	0.001028	20.812475
651.163508	-2.990400	3.710200	-11.094000	24.301486	0.001029	20.822804
652.167086	-2.992800	3.711200	-11.106000	24.327134	0.001029	20.826247
653.163255	-2.998300	3.710000	-11.123000	24.327183	0.001027	20.818236
654.164760	-2.996900	3.710700	-11.119000	24.330146	0.001027	20.830691
655.162466	-2.985900	3.709400	-11.075000	24.332284	0.001028	20.838525
656.163313	-2.997600	3.709100	-11.117000	24.324944	0.001025	20.843963
657.165360	-3.027900	3.708300	-11.226000	24.340072	0.001028	20.850605
658.164992	-2.986200	3.708300	-11.073000	24.298573	0.001027	20.839321
659.163768	-2.990800	3.709200	-11.093000	24.297306	0.001026	20.857964
660.164592	-2.996400	3.707800	-11.109000	24.303652	0.001027	20.842519
661.166211	-3.014400	3.706700	-11.173000	24.289048	0.001026	20.846362
662.167585	-2.997900	3.707100	-11.112000	24.324771	0.001025	20.830514
663.166474	-2.997100	3.706700	-11.108000	24.336838	0.001026	20.856368
664.169646	-2.977900	3.708100	-11.041000	24.289200	0.001024	20.856945
665.167383	-3.004500	3.706200	-11.134000	24.295242	0.001026	20.843567
666.166659	-3.004900	3.707500	-11.140000	24.307758	0.001025	20.839526
667.169901	-3.011500	3.706600	-11.162000	24.296092	0.001023	20.859592
668.168643	-2.996200	3.706400	-11.104000	24.310544	0.001023	20.854175
669.167408	-3.008800	3.705200	-11.146000	24.309105	0.001025	20.849886
670.169250	-3.010300	3.704900	-11.150000	24.322114	0.001025	20.834487
671.168795	-2.986400	3.705900	-11.065000	24.328608	0.001024	20.867078
672.167563	-3.025700	3.703800	-11.206000	24.333783	0.001023	20.850459
673.170751	-2.994200	3.704400	-11.090000	24.323190	0.001023	20.837937
674.167515	-3.020500	3.702200	-11.182000	24.314283	0.001024	20.860295
675.169724	-2.991000	3.704900	-11.081000	24.301771	0.001024	20.857227
676.169657	-2.995300	3.705400	-11.097000	24.276743	0.001024	20.866261
677.169619	-2.991400	3.702900	-11.076000	24.278613	0.001023	20.855334
678.169928	-2.996600	3.703900	-11.099000	24.268161	0.001021	20.848169
679.170824	-2.986100	3.702700	-11.056000	24.304134	0.001023	20.866710
680.167499	-3.014300	3.702200	-11.158000	24.341853	0.001022	20.851442
681.171151	-3.011700	3.701700	-11.147000	24.360858	0.001021	20.866713
682.168847	-2.994000	3.701900	-11.082000	24.396137	0.001021	20.860854
683.174072	-2.991500	3.703300	-11.077000	24.385813	0.001024	20.870410
684.167854	-2.977900	3.701000	-11.020000	24.377305	0.001021	20.868988
685.168415	-2.996600	3.701500	-11.091000	24.386638	0.001020	20.854644
686.169621	-2.981300	3.700500	-11.031000	24.402009	0.001019	20.872434
687.169068	-2.988400	3.699200	-11.052000	24.379350	0.001021	20.875307
688.169095	-2.997100	3.699700	-11.087000	24.392362	0.001021	20.857067
689.174932	-3.016100	3.698800	-11.155000	24.380320	0.001019	20.865849
690.169401	-2.999700	3.699800	-11.097000	24.377738	0.001021	20.855199
691.169365	-3.006600	3.698100	-11.117000	24.402139	0.001018	20.847910
692.173517	-3.003400	3.697700	-11.104000	24.408809	0.001020	20.879255
693.170936	-3.001600	3.699500	-11.104000	24.418138	0.001020	20.874390
694.169913	-3.004700	3.697800	-11.110000	24.407320	0.001020	20.878236
695.172870	-3.016200	3.697200	-11.150000	24.417221	0.001020	20.866358
696.173435	-2.994300	3.697600	-11.070000	24.431721	0.001019	20.876637
697.171931	-3.000400	3.697200	-11.092000	24.448442	0.001020	20.855007
698.175701	-2.985000	3.698400	-11.039000	24.457521	0.001019	20.875494
699.171883	-2.989100	3.697200	-11.050000	24.448491	0.001019	20.887771
700.172639	-3.001600	3.696700	-11.094000	24.468218	0.001020	20.872001
701.174989	-2.996200	3.695900	-11.073000	24.465981	0.001020	20.871654
702.173779	-2.999000	3.696800	-11.086000	24.490014	0.001019	20.861627
703.172587	-2.997700	3.696500	-11.080000	24.502925	0.001020	20.887855
704.172800	-3.003900	3.696900	-11.104000	24.517054	0.001018	20.887332
705.175064	-3.003900	3.694800	-11.098000	24.512553	0.001018	20.877602
706.174205	-2.981900	3.694900	-11.017000	24.503147	0.001015	20.879544
707.176472	-3.027600	3.693800	-11.181000	24.478551	0.001020	20.870989
708.175778	-3.000800	3.695200	-11.088000	24.465198	0.001016	20.878454
709.175392	-2.995800	3.694400	-11.067000	24.429035	0.001016	20.888166
710.176476	-3.019700	3.692500	-11.149000	24.412864	0.001019	20.887116
711.176883	-3.026000	3.691700	-11.169000	24.342245	0.001016	20.864163
712.177851	-3.019500	3.692800	-11.150000	24.358192	0.001017	20.878263
713.174828	-2.999600	3.692900	-11.077000	24.352026	0.001016	20.878241
714.177714	-2.991100	3.691700	-11.040000	24.368343	0.001016	20.875644
715.177365	-2.983900	3.693200	-11.020000	24.391855	0.001015	20.891644
716.176870	-2.985600	3.692100	-11.022000	24.426407	0.001017	20.858979
717.179165	-3.010700	3.692700	-11.115000	24.423303	0.001016	20.889528
718.178264	-3.019300	3.690200	-11.140000	24.442035	0.001015	20.899311
719.181365	-2.990800	3.691600	-11.039000	24.473206	0.001014	20.890281
720.182809	-3.005500	3.691300	-11.093000	24.451692	0.001013	20.892878
721.179676	-3.012900	3.689100	-11.114000	24.493334	0.001016	20.891034
722.179122	-3.024500	3.688400	-11.154000	24.502761	0.001017	20.893854
723.181246	-3.000200	3.690500	-11.070000	24.501199	0.001015	20.895131
724.181727	-3.008300	3.688900	-11.097000	24.484333	0.001013	20.880108
725.182650	-2.994300	3.688800	-11.044000	24.476722	0.001013	20.889067
726.182602	-2.985500	3.689400	-11.014000	24.444016	0.001014	20.889920
727.180835	-3.020300	3.689400	-11.142000	24.442775	0.001012	20.887726
728.180819	-3.012100	3.688300	-11.108000	24.428698	0.001013	20.895888
729.185261	-3.001800	3.689600	-11.074000	24.416654	0.001015	20.907037
730.182590	-3.027100	3.686900	-11.160000	24.436687	0.001013	20.890627
731.184332	-2.994800	3.688000	-11.044000	24.432959	0.001011	20.897792
732.186072	-3.006700	3.687100	-11.085000	24.411366	0.001012	20.887510
733.183596	-3.007400	3.687000	-11.087000	24.423982	0.001011	20.868874
734.184282	-3.012900	3.686600	-11.106000	24.432218	0.001011	20.877135
735.188138	-2.983700	3.687400	-11.000000	24.438986	0.001011	20.900045
736.185798	-2.975400	3.687700	-10.971000	24.450332	0.001010	20.884877
737.182554	-2.999000	3.685500	-11.052000	24.475628	0.001011	20.886547
738.188870	-2.982100	3.686100	-10.991000	24.495431	0.001011	20.869432
739.183976	-3.013500	3.684500	-11.102000	24.494983	0.001011	20.875621
740.184305	-3.000300	3.685000	-11.055000	24.510836	0.001009	20.874931
741.185088	-2.993000	3.685000	-11.027000	24.510067	0.001011	20.884590
742.185452	-3.017600	3.684600	-11.117000	24.513897	0.001010	20.868045
743.184504	-3.016400	3.684400	-11.113000	24.525613	0.001010	20.877903
744.184443	-2.999400	3.684900	-11.052000	24.578273	0.001008	20.864832
745.183547	-2.985700	3.685600	-11.003000	24.565390	0.001009	20.871820
746.181975	-2.992800	3.683800	-11.024000	24.603696	0.001009	20.859047
747.184204	-3.004100	3.683900	-11.066000	24.586737	0.001009	20.862419
748.185696	-2.996000	3.683100	-11.034000	24.596759	0.001007	20.887647
749.187491	-2.981900	3.683700	-10.983000	24.605240	0.001011	20.889044
750.184523	-3.004700	3.681300	-11.061000	24.598103	0.001006	20.869082
751.185997	-2.986800	3.683300	-11.001000	24.597291	0.001008	20.855940
752.186397	-3.002000	3.681800	-11.051000	24.627161	0.001009	20.850350
753.185021	-2.984600	3.682600	-10.990000	24.655262	0.001008	20.855788
754.190709	-3.001300	3.681400	-11.048000	24.643329	0.001008	20.871788
755.186999	-2.982300	3.681800	-10.979000	24.647684	0.001006	20.865253
756.185259	-2.987500	3.681500	-10.997000	24.665841	0.001006	20.851231
757.185287	-2.989900	3.680300	-11.003000	24.626818	0.001005	20.843843
758.185527	-2.991600	3.680000	-11.008000	24.656443	0.001005	20.871671
759.183758	-3.007800	3.680200	-11.068000	24.636322	0.001006	20.850060
760.185628	-2.986200	3.680400	-10.989000	24.642768	0.001006	20.868855
761.187109	-3.029200	3.677900	-11.140000	24.643015	0.001006	20.866732
762.186176	-2.997000	3.679000	-11.024000	24.637697	0.001005	20.846224
763.188329	-2.992800	3.680200	-11.013000	24.640934	0.001004	20.851843
764.187406	-2.994000	3.679000	-11.013000	24.645734	0.001004	20.856658
765.189147	-3.022100	3.678500	-11.115000	24.646831	0.001006	20.835949
766.188175	-3.005900	3.677000	-11.050000	24.626314	0.001003	20.847130
767.192025	-2.998300	3.677200	-11.025000	24.615230	0.001004	20.859241
768.192335	-3.000200	3.676700	-11.030000	24.588020	0.001003	20.845215
769.189309	-3.002500	3.676900	-11.038000	24.577126	0.001003	20.855147
770.190850	-3.012300	3.676800	-11.075000	24.607945	0.001002	20.838181
771.189175	-3.009300	3.676400	-11.063000	24.564296	0.001001	20.847016
772.188231	-2.991000	3.676800	-10.996000	24.579845	0.001002	20.835117
773.189515	-3.021300	3.675200	-11.103000	24.569103	0.001002	20.829081
774.192866	-3.018700	3.675400	-11.094000	24.600691	0.001003	20.836118
775.189342	-2.990500	3.676900	-10.995000	24.623500	0.001002	20.854737
776.190483	-2.986500	3.675800	-10.975000	24.641481	0.001003	20.838167
777.191955	-2.995000	3.674700	-11.004000	24.651707	0.001002	20.828040
778.189174	-3.004300	3.674900	-11.039000	24.646534	0.000999	20.819056
779.187964	-2.984000	3.674700	-10.964000	24.646837	0.001000	20.839749
780.194541	-3.003800	3.672700	-11.031000	24.602270	0.001000	20.843867
781.189505	-2.992600	3.673900	-10.994000	24.631173	0.001000	20.824505
782.190640	-2.992900	3.674300	-10.995000	24.645275	0.000998	20.827276
783.192840	-2.993400	3.672600	-10.993000	24.664480	0.000999	20.824261
784.191534	-3.017600	3.672200	-11.079000	24.663514	0.000998	20.846050
785.194772	-3.003400	3.673000	-11.029000	24.623376	0.000999	20.844182
786.190535	-2.991700	3.672200	-10.985000	24.643047	0.000999	20.828833
787.191572	-3.011500	3.672300	-11.057000	24.661557	0.000996	20.851673
788.195573	-3.013100	3.670200	-11.058000	24.650611	0.000997	20.810345
789.191721	-2.983500	3.672200	-10.955000	24.657008	0.000996	20.808229
790.197378	-3.014300	3.671400	-11.064000	24.671064	0.000996	20.815695
791.192129	-3.009600	3.669900	-11.043000	24.684721	0.000996	20.809485
792.191218	-2.994100	3.671200	-10.990000	24.679474	0.000996	20.803272
793.191090	-3.018400	3.669700	-11.075000	24.674407	0.000995	20.837541
794.191271	-2.995400	3.670300	-10.993000	24.688533	0.000996	20.814259
795.191545	-3.010700	3.669900	-11.048000	24.679879	0.000995	20.834498
796.191323	-2.996600	3.669400	-10.995000	24.673617	0.000996	20.830585
797.197357	-3.004400	3.669400	-11.023000	24.646390	0.000996	20.813696
798.194530	-2.993000	3.668600	-10.979000	24.623610	0.000994	20.824977
799.195611	-2.988300	3.668000	-10.960000	24.607046	0.000994	20.805038
800.201438	-3.005400	3.668500	-11.024000	24.617622	0.000994	20.820865
801.198595	-3.006800	3.668600	-11.029000	24.644811	0.000994	20.828706
802.196556	-2.997800	3.668800	-10.997000	24.622778	0.000995	20.803279
803.200775	-3.029200	3.667500	-11.108000	24.657347	0.000992	20.802405
804.197631	-2.999100	3.666500	-10.995000	24.631139	0.000993	20.796971
805.197083	-3.015000	3.666400	-11.052000	24.615020	0.000993	20.828211
806.194832	-2.989900	3.667100	-10.963000	24.623106	0.000994	20.823997
807.197139	-2.985900	3.667500	-10.950000	24.621318	0.000993	20.815091
808.196838	-2.994200	3.667900	-10.980000	24.634948	0.000992	20.829241
809.199631	-2.991400	3.667400	-10.969000	24.577350	0.000993	20.797052
810.198965	-3.026800	3.665000	-11.093000	24.622020	0.000994	20.804890
811.196320	-2.986500	3.666000	-10.947000	24.627839	0.000991	20.800771
812.196754	-3.013400	3.664800	-11.042000	24.624880	0.000993	20.793535
813.200792	-2.991200	3.665500	-10.962000	24.664051	0.000993	20.815770
814.196508	-2.992600	3.665100	-10.968000	24.694563	0.000990	20.823629
815.196988	-3.016500	3.664800	-11.054000	24.675021	0.000994	20.808287
816.199567	-2.980900	3.665500	-10.925000	24.639902	0.000990	20.795807
817.199456	-2.985100	3.664800	-10.939000	24.646567	0.000993	20.808658
818.199503	-2.996500	3.664600	-10.979000	24.646613	0.000992	20.814868
819.199844	-3.011400	3.663400	-11.029000	24.676037	0.000992	20.800297
820.198078	-2.995800	3.662600	-10.970000	24.682677	0.000991	20.806960
821.198094	-3.013500	3.662400	-11.035000	24.662679	0.000991	20.812023
822.201925	-3.017800	3.662400	-11.051000	24.651938	0.000990	20.793185
823.202362	-3.018400	3.663800	-11.056000	24.637360	0.000991	20.811747
824.198362	-2.994000	3.662200	-10.964000	24.642082	0.000992	20.807476
825.199346	-3.005200	3.661700	-11.004000	24.647456	0.000989	20.805757
826.202314	-3.016900	3.660200	-11.041000	24.641214	0.000990	20.786691
827.200735	-3.002100	3.661200	-10.989000	24.645537	0.000991	20.806676
828.200047	-3.006700	3.662000	-11.009000	24.663518	0.000990	20.800537
829.204388	-3.009200	3.660400	-11.014000	24.689232	0.000990	20.802632
830.201573	-3.010800	3.660200	-11.020000	24.710540	0.000989	20.809316
831.200789	-3.005900	3.659000	-10.996000	24.731901	0.000990	20.798035
832.199961	-3.003700	3.661700	-10.997000	24.773653	0.000989	20.822390
833.201714	-3.012000	3.659100	-11.020000	24.761488	0.000987	20.811605
834.201578	-3.011700	3.659600	-11.021000	24.780511	0.000990	20.809832
835.198866	-3.019600	3.660100	-11.051000	24.771185	0.000990	20.808060
836.203350	-2.996500	3.660400	-10.967000	24.773695	0.000988	20.807260
837.206670	-2.994800	3.657500	-10.953000	24.755913	0.000989	20.792260
838.202547	-3.000300	3.658500	-10.976000	24.805245	0.000988	20.800041
839.207737	-3.014600	3.656700	-11.022000	24.774337	0.000989	20.794628
840.205643	-2.988900	3.658300	-10.933000	24.777612	0.000988	20.812613
841.204274	-3.005800	3.657100	-10.991000	24.772887	0.000988	20.805501
842.204484	-2.987100	3.656900	-10.921000	24.768755	0.000987	20.817001
843.204198	-2.992700	3.656800	-10.943000	24.752415	0.000987	20.774999
844.206873	-3.003500	3.656700	-10.982000	24.761840	0.000986	20.800579
845.210905	-2.998600	3.656800	-10.964000	24.757835	0.000985	20.797982
846.206020	-2.990100	3.656400	-10.933000	24.751192	0.000985	20.824980
847.207630	-3.016300	3.655100	-11.024000	24.754771	0.000985	20.806286
848.206632	-3.015500	3.654400	-11.018000	24.722243	0.000983	20.794507
849.211460	-2.982200	3.656200	-10.902000	24.721915	0.000985	20.811721
850.208122	-2.993100	3.656000	-10.942000	24.731097	0.000984	20.796280
851.207862	-3.012800	3.655200	-11.011000	24.704157	0.000984	20.804333
852.212497	-3.010000	3.653800	-10.997000	24.703759	0.000982	20.808675
853.212669	-2.986600	3.654900	-10.915000	24.699055	0.000981	20.798265
854.209037	-2.997200	3.655200	-10.954000	24.693459	0.000983	20.787433
855.210806	-3.016800	3.653800	-11.021000	24.730360	0.000984	20.806445
856.210928	-3.012100	3.654400	-11.006000	24.740680	0.000982	20.792621
857.214045	-3.003100	3.652600	-10.968000	24.762711	0.000982	20.800979
858.211950	-3.004300	3.653600	-10.976000	24.775538	0.000983	20.779712
859.211317	-3.005500	3.653000	-10.978000	24.758134	0.000982	20.784532
860.214431	-3.012100	3.653200	-11.003000	24.744926	0.000981	20.803519
861.213001	-3.018000	3.652200	-11.020000	24.761956	0.000979	20.794531
862.214407	-3.022200	3.651500	-11.034000	24.775161	0.000979	20.794981
863.211526	-3.025600	3.650100	-11.042000	24.786426	0.000980	20.788743
864.216128	-3.022300	3.649700	-11.029000	24.822704	0.000978	20.797175
865.211970	-3.006100	3.650800	-10.973000	24.822182	0.000978	20.790487
866.211858	-2.993400	3.650700	-10.927000	24.815913	0.000976	20.814541
867.214047	-3.020300	3.649700	-11.020000	24.792611	0.000976	20.797794
868.214996	-3.009500	3.650100	-10.984000	24.770405	0.000976	20.787837
869.214123	-2.988700	3.650200	-10.907000	24.721093	0.000977	20.789560
870.216840	-3.007700	3.648200	-10.972000	24.712412	0.000976	20.793650
871.215633	-3.039600	3.647900	-11.087000	24.759058	0.000975	20.803477
872.216199	-3.008400	3.647000	-10.970000	24.780496	0.000974	20.788006
873.215614	-3.015800	3.648900	-11.003000	24.762644	0.000976	20.792377
874.220038	-3.026400	3.647700	-11.038000	24.750257	0.000974	20.790377
875.216512	-2.995000	3.648600	-10.926000	24.737027	0.000971	20.809818
876.214782	-2.995500	3.647900	-10.926000	24.754012	0.000972	20.784188
877.218896	-2.989200	3.648300	-10.905000	24.776568	0.000972	20.795919
878.218687	-2.992500	3.648000	-10.916000	24.795615	0.000971	20.795119
879.216538	-2.984800	3.647600	-10.886000	24.802850	0.000971	20.795742
880.218782	-2.995800	3.647600	-10.926000	24.818565	0.000971	20.797288
881.219683	-2.996300	3.645300	-10.920000	24.823910	0.000970	20.782264
882.217630	-3.000900	3.645700	-10.939000	24.829854	0.000971	20.788704
883.215039	-2.986000	3.646900	-10.889000	24.838111	0.000970	20.788930
884.221792	-2.968900	3.647600	-10.828000	24.823561	0.000969	20.790448
885.216795	-2.989300	3.646000	-10.898000	24.826198	0.000968	20.781241
886.217766	-2.995800	3.644900	-10.918000	24.857330	0.000967	20.793045
887.218974	-3.003200	3.643400	-10.941000	24.856533	0.000968	20.781814
888.220383	-2.979400	3.644400	-10.857000	24.893559	0.000968	20.787681
889.218526	-2.998200	3.643900	-10.924000	24.907683	0.000968	20.785261
890.218222	-3.005100	3.644600	-10.951000	24.918672	0.000969	20.764996
891.220281	-3.001700	3.644500	-10.938000	24.918724	0.000967	20.796343
892.220000	-3.033300	3.642300	-11.048000	24.901368	0.000968	20.788881
893.220037	-3.001300	3.643700	-10.935000	24.908010	0.000969	20.786064
894.224489	-2.982200	3.643200	-10.863000	24.923371	0.000966	20.791050
895.219689	-2.989800	3.642500	-10.888000	24.910739	0.000968	20.768888
896.219160	-2.997900	3.641500	-10.914000	24.925536	0.000968	20.781842
897.219991	-3.008500	3.641400	-10.954000	24.924044	0.000969	20.779871
898.220630	-2.994600	3.642200	-10.905000	24.904725	0.000968	20.763325
899.220350	-2.978800	3.643000	-10.851000	24.948782	0.000968	20.799011
900.222386	-2.991900	3.641200	-10.893000	24.944823	0.000967	20.778916
901.222436	-2.990900	3.641100	-10.889000	24.939458	0.000966	20.783014
902.221673	-2.968000	3.642300	-10.809000	24.981300	0.000967	20.779019
903.221247	-2.994200	3.640700	-10.900000	24.971281	0.000965	20.773704
904.226507	-2.994600	3.640300	-10.900000	24.963476	0.000966	20.771560
905.225800	-2.977700	3.639900	-10.837000	24.946068	0.000965	20.761199
906.222851	-3.017500	3.639300	-10.980000	24.942013	0.000965	20.783208
907.228860	-3.013600	3.638600	-10.964000	24.960215	0.000966	20.764019
908.226087	-3.012800	3.637500	-10.958000	24.910933	0.000966	20.792791
909.225047	-2.997800	3.639400	-10.909000	24.901065	0.000965	20.796163
910.226038	-3.016200	3.638800	-10.975000	24.889773	0.000965	20.793838
911.226000	-3.017500	3.637700	-10.976000	24.916454	0.000963	20.776046
912.226256	-3.025300	3.636700	-11.001000	24.921873	0.000963	20.783382
913.223715	-3.014300	3.637500	-10.963000	24.919285	0.000963	20.787423
914.225335	-2.984600	3.636800	-10.853000	24.892555	0.000964	20.783828
915.229746	-3.003100	3.636600	-10.920000	24.912770	0.000963	20.760969
916.224616	-2.998900	3.637800	-10.909000	24.918414	0.000963	20.776117
917.228221	-2.996300	3.637500	-10.898000	24.902673	0.000962	20.784026
918.226580	-3.027000	3.635200	-11.002000	24.889843	0.000963	20.778262
919.229197	-3.011400	3.634800	-10.945000	24.903667	0.000961	20.772221
920.230106	-2.977700	3.635800	-10.826000	24.900956	0.000961	20.788467
921.229631	-3.008800	3.634800	-10.936000	24.942525	0.000960	20.773764
922.230307	-2.975400	3.634600	-10.813000	24.909308	0.000961	20.770770
923.233708	-3.023600	3.633700	-10.986000	24.900998	0.000957	20.770017
924.230628	-2.996100	3.634700	-10.888000	24.878371	0.000958	20.781446
925.233844	-2.999400	3.633300	-10.897000	24.901520	0.000959	20.770066
926.229986	-3.004700	3.635300	-10.922000	24.921707	0.000958	20.755240
927.236170	-3.006900	3.632200	-10.920000	24.929985	0.000956	20.757384
928.231861	-2.994600	3.633300	-10.879000	24.948736	0.000959	20.759610
929.230742	-3.002900	3.633300	-10.909000	24.948109	0.000956	20.756609
930.233320	-3.019500	3.632100	-10.965000	24.947961	0.000954	20.770686
931.231812	-3.007800	3.632200	-10.924000	24.941643	0.000957	20.770983
932.232886	-3.022000	3.630600	-10.969000	24.948405	0.000955	20.786779
933.236193	-2.995300	3.633700	-10.884000	24.948232	0.000955	20.797985
934.231573	-2.993200	3.632400	-10.872000	24.951063	0.000956	20.762420
935.231387	-3.014900	3.630800	-10.945000	24.940769	0.000955	20.756355
936.239885	-3.020300	3.631400	-10.966000	24.957127	0.000955	20.762342
937.236008	-2.992400	3.631500	-10.866000	24.956351	0.000957	20.763460
938.233406	-3.006500	3.631100	-10.916000	24.967171	0.000955	20.748715
939.235940	-2.991100	3.632100	-10.863000	24.960229	0.000955	20.763085
940.235301	-2.990200	3.631000	-10.856000	24.972981	0.000952	20.780626
941.235155	-3.008500	3.629700	-10.919000	24.972036	0.000955	20.749331
942.234739	-2.999700	3.629000	-10.885000	24.943918	0.000954	20.781800
943.233934	-3.000700	3.628600	-10.887000	24.980486	0.000956	20.769193
944.236285	-3.001900	3.627600	-10.889000	24.963180	0.000954	20.766995
945.237971	-2.997500	3.629700	-10.879000	24.961513	0.000950	20.752045
946.234041	-2.979200	3.629400	-10.812000	24.999251	0.000952	20.755311
947.238099	-2.968300	3.627800	-10.767000	25.001483	0.000951	20.768931
948.235375	-2.997900	3.627500	-10.874000	25.024808	0.000952	20.740187
949.235183	-3.014900	3.625900	-10.931000	24.998648	0.000951	20.761344
950.237428	-3.004400	3.626500	-10.893000	24.994270	0.000949	20.774020
951.237925	-3.017000	3.626800	-10.941000	24.996681	0.000948	20.763163
952.237484	-2.987800	3.627300	-10.837000	24.972836	0.000950	20.761040
953.238698	-3.026600	3.625500	-10.972000	24.972311	0.000951	20.754349
954.237959	-2.997800	3.626300	-10.869000	24.970221	0.000949	20.768372
955.239657	-3.004200	3.626000	-10.892000	24.954082	0.000949	20.761656
956.240547	-2.996900	3.624900	-10.862000	24.952291	0.000949	20.770290
957.237370	-3.023400	3.624300	-10.957000	24.917456	0.000948	20.763776
958.240929	-3.020100	3.623900	-10.943000	24.912852	0.000946	20.771009
959.238879	-3.021300	3.624300	-10.949000	24.915613	0.000946	20.769038
960.241748	-3.001700	3.624500	-10.878000	24.906312	0.000949	20.782937
961.240895	-3.002900	3.623800	-10.880000	24.898176	0.000946	20.775719
962.244680	-2.990800	3.624300	-10.838000	24.931495	0.000946	20.778815
963.243346	-3.001200	3.622300	-10.869000	24.923760	0.000945	20.772948
964.240838	-3.005000	3.622700	-10.884000	24.913163	0.000946	20.767527
965.245422	-3.011400	3.623100	-10.910000	24.900030	0.000945	20.781848
966.246510	-3.014800	3.622600	-10.921000	24.905703	0.000946	20.770471
967.243144	-3.005200	3.621600	-10.883000	24.878969	0.000945	20.749329
968.242898	-2.996800	3.622700	-10.854000	24.867006	0.000946	20.781894
969.240946	-2.990900	3.622100	-10.833000	24.887268	0.000944	20.788479
970.241300	-2.981400	3.622800	-10.799000	24.918497	0.000942	20.764347
971.244481	-2.991700	3.621900	-10.834000	24.920613	0.000942	20.764099
972.243272	-3.010800	3.620600	-10.901000	24.975827	0.000941	20.776371
973.245606	-3.000400	3.621200	-10.862000	24.989128	0.000940	20.758427
974.247992	-2.993000	3.620500	-10.835000	24.967596	0.000940	20.783281
975.247207	-3.002700	3.620600	-10.869000	24.920951	0.000940	20.768232
976.248670	-2.999500	3.620300	-10.858000	24.913541	0.000939	20.778338
977.246975	-3.020300	3.619500	-10.930000	24.886017	0.000941	20.773947
978.247893	-2.991500	3.618800	-10.824000	24.873678	0.000940	20.762985
979.245139	-3.000800	3.618900	-10.859000	24.876117	0.000939	20.769701
980.245716	-3.006400	3.617800	-10.875000	24.890488	0.000940	20.769899
981.245142	-2.984500	3.620200	-10.804000	24.912889	0.000939	20.781951
982.246283	-3.000500	3.619600	-10.859000	24.938071	0.000939	20.783993
983.246159	-2.981400	3.618300	-10.786000	24.960775	0.000938	20.784970
984.245822	-2.963500	3.618100	-10.721000	24.983844	0.000935	20.783944
985.246363	-2.952900	3.619000	-10.685000	25.007090	0.000938	20.784517
986.247432	-2.984100	3.617000	-10.792000	25.039958	0.000936	20.774361
987.248121	-2.986100	3.617500	-10.800000	25.027003	0.000936	20.766099
988.247567	-3.002700	3.616600	-10.858000	25.032725	0.000938	20.783696
989.247098	-2.981500	3.616200	-10.781000	25.033793	0.000934	20.766276
990.250861	-3.013900	3.615100	-10.894000	25.038735	0.000935	20.772660
991.247298	-2.994100	3.615000	-10.822000	25.068247	0.000934	20.770989
992.249705	-3.003400	3.615800	-10.857000	25.101582	0.000934	20.792599
993.251081	-3.001300	3.614100	-10.845000	25.102777	0.000935	20.770565
994.251330	-2.981700	3.614100	-10.775000	25.072050	0.000933	20.788558
995.248908	-3.004700	3.613300	-10.856000	25.054869	0.000933	20.767992
996.249026	-2.981300	3.614400	-10.775000	25.039306	0.000932	20.767543
997.253118	-2.984700	3.613800	-10.785000	25.023299	0.000932	20.791304
998.249718	-3.004300	3.612900	-10.853000	25.018723	0.000930	20.785763
999.248876	-3.002400	3.614100	-10.849000	25.026926	0.000930	20.766021
1000.248640	-2.997600	3.613300	-10.829000	25.032915	0.000930	20.774878
1001.250255	-2.980800	3.612800	-10.767000	25.049102	0.000928	20.771687
1002.251570	-3.006200	3.611900	-10.857000	25.072272	0.000930	20.771237
1003.250932	-2.971000	3.613300	-10.733000	25.089749	0.000927	20.790678
1004.250039	-2.998000	3.610900	-10.825000	25.103968	0.000927	20.804478
1005.255760	-3.000900	3.611500	-10.836000	25.117144	0.000926	20.769815
1006.253038	-2.945600	3.612600	-10.640000	25.131089	0.000926	20.778123
1007.256118	-3.012600	3.611100	-10.878000	25.150213	0.000927	20.779305
1008.258008	-3.005300	3.610700	-10.851000	25.156674	0.000928	20.775359
1009.255570	-2.996900	3.610500	-10.818000	25.168380	0.000926	20.777628
1010.257814	-2.985000	3.610900	-10.778000	25.182626	0.000925	20.817534
1011.255511	-3.004900	3.608400	-10.842000	25.153495	0.000926	20.784021
1012.253916	-2.988800	3.608500	-10.784000	25.151704	0.000925	20.784121
1013.256437	-3.012400	3.609100	-10.872000	25.140298	0.000926	20.806809
1014.255530	-2.989900	3.610400	-10.793000	25.123365	0.000924	20.793604
1015.261073	-3.006200	3.608200	-10.846000	25.106238	0.000923	20.764556
1016.262183	-3.005100	3.608200	-10.841000	25.079318	0.000925	20.796802
1017.258215	-2.996700	3.606900	-10.807000	25.076139	0.000925	20.792188
1018.254151	-2.994600	3.607100	-10.801000	25.068007	0.000922	20.781180
1019.257967	-3.005100	3.606200	-10.836000	25.098709	0.000923	20.788766
1020.257271	-3.008800	3.607000	-10.851000	25.115265	0.000925	20.798274
1021.256282	-2.994500	3.607800	-10.802000	25.132516	0.000922	20.783823
1022.258374	-3.000000	3.607400	-10.821000	25.098533	0.000923	20.779581
1023.257506	-2.981200	3.607200	-10.752000	25.136544	0.000923	20.785497
1024.257369	-3.006500	3.604500	-10.835000	25.131077	0.000921	20.787121
1025.258819	-2.974400	3.606500	-10.726000	25.136495	0.000920	20.794930
1026.258433	-3.010400	3.605400	-10.853000	25.119689	0.000920	20.789913
1027.262005	-3.001600	3.603800	-10.816000	25.126946	0.000920	20.802889
1028.259817	-2.995400	3.604000	-10.794000	25.145318	0.000919	20.778183
1029.258544	-2.997700	3.604700	-10.805000	25.163910	0.000919	20.802538
1030.263138	-2.990800	3.604300	-10.778000	25.122103	0.000917	20.796604
1031.260337	-3.010900	3.603400	-10.849000	25.129037	0.000916	20.796926
1032.260422	-3.001000	3.602500	-10.810000	25.140069	0.000917	20.778604
1033.259433	-2.993800	3.603200	-10.786000	25.143848	0.000914	20.789510
1034.259500	-3.009600	3.601600	-10.837000	25.157943	0.000917	20.813617
1035.261684	-3.008700	3.602800	-10.839000	25.174971	0.000914	20.800840
1036.259727	-2.998200	3.601400	-10.795000	25.180759	0.000915	20.797167
1037.263040	-2.991500	3.603200	-10.778000	25.207330	0.000916	20.820524
1038.261876	-2.991900	3.601700	-10.774000	25.239794	0.000914	20.808547
1039.260404	-2.984000	3.601600	-10.745000	25.243745	0.000914	20.801608
1040.264894	-2.980900	3.601600	-10.734000	25.250036	0.000914	20.808872
1041.263960	-2.970400	3.601500	-10.696000	25.269149	0.000912	20.803405
1042.261716	-3.017800	3.600200	-10.863000	25.280008	0.000911	20.808144
1043.262538	-3.003800	3.600200	-10.814000	25.265442	0.000912	20.797787
1044.262476	-3.011400	3.598800	-10.835000	25.268624	0.000912	20.795292
1045.260499	-3.011700	3.599600	-10.840000	25.272053	0.000910	20.805373
1046.264736	-3.033800	3.595800	-10.908000	25.232503	0.000911	20.812606
1047.269217	-2.993300	3.598700	-10.771000	25.243495	0.000910	20.807521
1048.261418	-3.007100	3.598000	-10.819000	25.241208	0.000910	20.791474
1049.262076	-2.999900	3.597200	-10.790000	25.282968	0.000910	20.802581
1050.263023	-2.997300	3.598000	-10.783000	25.287042	0.000906	20.804301
1051.265057	-3.004900	3.596200	-10.805000	25.252222	0.000908	20.800635
1052.264744	-2.986800	3.596400	-10.741000	25.211282	0.000907	20.822120
1053.263192	-2.992200	3.598000	-10.766000	25.176008	0.000908	20.808993
1054.265699	-2.995400	3.597700	-10.775000	25.146330	0.000906	20.794846
1055.271156	-2.996500	3.596900	-10.776000	25.130468	0.000907	20.826812
1056.265767	-3.006900	3.594000	-10.804000	25.140486	0.000908	20.820273
1057.266623	-2.997200	3.597100	-10.780000	25.125671	0.000909	20.804927
1058.266655	-2.998100	3.593800	-10.773000	25.103968	0.000906	20.821073
1059.267178	-2.993500	3.595400	-10.762000	25.083908	0.000906	20.832703
1060.269598	-2.981100	3.594200	-10.714000	25.072618	0.000905	20.829905
1061.268431	-3.010100	3.593900	-10.816000	25.057253	0.000904	20.828231
1062.271261	-3.005800	3.595900	-10.805000	25.096855	0.000904	20.797337
1063.271628	-2.997800	3.594800	-10.776000	25.108812	0.000903	20.837314
1064.267570	-3.015400	3.593500	-10.836000	25.131709	0.000905	20.813359
1065.268572	-3.029000	3.590800	-10.875000	25.150820	0.000903	20.823062
1066.267431	-2.987400	3.592600	-10.732000	25.200239	0.000903	20.814354
1067.267565	-3.005300	3.592300	-10.794000	25.217242	0.000903	20.840906
1068.268870	-2.994500	3.592800	-10.756000	25.221140	0.000902	20.813052
1069.271102	-3.002400	3.590900	-10.781000	25.201924	0.000903	20.826477
1070.269335	-2.983600	3.591200	-10.713000	25.192926	0.000902	20.820288
1071.269447	-3.013600	3.591800	-10.822000	25.198841	0.000903	20.836182
1072.270224	-2.995800	3.591300	-10.758000	25.206345	0.000901	20.806733
1073.272284	-3.026400	3.590900	-10.866000	25.223121	0.000904	20.817886
1074.276249	-2.990400	3.591700	-10.739000	25.213179	0.000899	20.827818
1075.270357	-2.988900	3.589400	-10.727000	25.221003	0.000900	20.802483
1076.273738	-2.984700	3.590200	-10.714000	25.240215	0.000900	20.812763
1077.271739	-2.979200	3.589900	-10.694000	25.263480	0.000900	20.827111
1078.269698	-3.010300	3.587800	-10.799000	25.272456	0.000901	20.822373
1079.275870	-2.989000	3.589500	-10.728000	25.278067	0.000900	20.833696
1080.271770	-2.998100	3.589500	-10.762000	25.299146	0.000899	20.835893
1081.271710	-2.991500	3.589300	-10.736000	25.276006	0.000899	20.840160
1082.271879	-2.978800	3.587800	-10.686000	25.290868	0.000898	20.828056
1083.273580	-2.992000	3.587800	-10.734000	25.295136	0.000897	20.844195
1084.272140	-3.012500	3.587400	-10.806000	25.302442	0.000897	20.835883
1085.272269	-2.993800	3.588600	-10.742000	25.279650	0.000896	20.836708
1086.273767	-3.024100	3.586800	-10.846000	25.254071	0.000895	20.840423
1087.272682	-3.014600	3.586200	-10.809000	25.222774	0.000895	20.837925
1088.275256	-2.986300	3.585700	-10.707000	25.233961	0.000895	20.843466
1089.276250	-2.989600	3.586400	-10.720000	25.214841	0.000897	20.835650
1090.274287	-3.002400	3.585500	-10.764000	25.243773	0.000894	20.835300
1091.274055	-2.979700	3.586200	-10.685000	25.276529	0.000894	20.820772
1092.277495	-2.999500	3.583100	-10.747000	25.294647	0.000893	20.841333
1093.272833	-3.012200	3.584600	-10.797000	25.288807	0.000892	20.848746
1094.274354	-3.016700	3.584100	-10.810000	25.286267	0.000893	20.846669
1095.277138	-3.002000	3.583000	-10.755000	25.271528	0.000892	20.820967
1096.275078	-2.997900	3.583300	-10.741000	25.251366	0.000891	20.844819
1097.274390	-2.999700	3.583600	-10.748000	25.240648	0.000891	20.839749
1098.275587	-3.023700	3.582700	-10.830000	25.259885	0.000889	20.837725
1099.274055	-3.009800	3.582400	-10.782000	25.273577	0.000892	20.849101
1100.274207	-3.003500	3.581600	-10.757000	25.300094	0.000889	20.853440
1101.274517	-2.979300	3.580900	-10.667000	25.291322	0.000889	20.850322
1102.286635	-3.002900	3.582500	-10.757000	25.280034	0.000889	20.851317
1103.276728	-3.002100	3.581700	-10.752000	25.304387	0.000885	20.862491
1104.276941	-3.000200	3.579800	-10.738000	25.304390	0.000886	20.866287
1105.277131	-3.014000	3.580600	-10.791000	25.292084	0.000887	20.849191
1106.275976	-3.023200	3.578600	-10.818000	25.307165	0.000887	20.866228
1107.281072	-2.999400	3.578200	-10.730000	25.315041	0.000886	20.864180
1108.279686	-3.003400	3.579500	-10.750000	25.304525	0.000886	20.848880
1109.279727	-3.010000	3.578800	-10.771000	25.317720	0.000886	20.846482
1110.282429	-3.021800	3.578100	-10.811000	25.275317	0.000885	20.848951
1111.278984	-2.991800	3.579800	-10.708000	25.301013	0.000886	20.860051
1112.279408	-3.010500	3.577700	-10.770000	25.325168	0.000882	20.843528
1113.280430	-2.995100	3.578800	-10.718000	25.314356	0.000884	20.857327
1114.282449	-3.024100	3.576700	-10.816000	25.325091	0.000883	20.871898
1115.281962	-2.987100	3.578300	-10.688000	25.325257	0.000885	20.873488
1116.282863	-3.004200	3.577000	-10.745000	25.350585	0.000883	20.854823
1117.283383	-2.993000	3.576800	-10.704000	25.368301	0.000881	20.845585
1118.284706	-2.980800	3.577600	-10.663000	25.393374	0.000882	20.864597
1119.283767	-3.008700	3.576100	-10.758000	25.430530	0.000882	20.879146
1120.287040	-3.013200	3.574200	-10.768000	25.434751	0.000881	20.875325
1121.284126	-2.999400	3.575100	-10.722000	25.446433	0.000881	20.876623
1122.290794	-2.992100	3.576900	-10.701000	25.466184	0.000880	20.861371
1123.284238	-3.017300	3.573500	-10.781000	25.483676	0.000880	20.867556
1124.283114	-2.991100	3.575400	-10.694000	25.429002	0.000880	20.861491
1125.286853	-2.998700	3.575100	-10.718000	25.450373	0.000878	20.875365
1126.283689	-3.002800	3.574900	-10.734000	25.429048	0.000879	20.866279
1127.284150	-3.001100	3.573300	-10.723000	25.439880	0.000877	20.876682
1128.283283	-2.977000	3.573500	-10.637000	25.466520	0.000878	20.887785
1129.284001	-2.991700	3.573600	-10.690000	25.459983	0.000877	20.890704
1130.285942	-2.996400	3.572700	-10.703000	25.457496	0.000876	20.876827
1131.291851	-3.010100	3.571900	-10.750000	25.468751	0.000876	20.870586
1132.284555	-3.003400	3.572000	-10.727000	25.423147	0.000874	20.886431
1133.289079	-2.995100	3.571600	-10.696000	25.410296	0.000876	20.902448
1134.285384	-2.995900	3.572600	-10.702000	25.408283	0.000872	20.887153
1135.284795	-2.985600	3.573300	-10.667000	25.419267	0.000871	20.904819
1136.289705	-3.000900	3.570200	-10.712000	25.366402	0.000873	20.886824
1137.285539	-3.004400	3.570100	-10.725000	25.375127	0.000869	20.898903
1138.286939	-2.962100	3.572700	-10.582000	25.368315	0.000869	20.868358
1139.288349	-3.003400	3.569800	-10.721000	25.361429	0.000871	20.907908
1140.288046	-2.967600	3.572100	-10.598000	25.358399	0.000869	20.930467
1141.290018	-2.980000	3.571000	-10.639000	25.384445	0.000869	20.894509
1142.286982	-3.002400	3.569400	-10.716000	25.407135	0.000867	20.889793
1143.288599	-2.999700	3.569100	-10.705000	25.413820	0.000867	20.898875
1144.286348	-3.010900	3.568300	-10.743000	25.420779	0.000868	20.904915
1145.287481	-3.000000	3.569100	-10.706000	25.421625	0.000870	20.892489
1146.291481	-2.998500	3.569400	-10.701000	25.425350	0.000867	20.887695
1147.289574	-3.019800	3.566300	-10.769000	25.435050	0.000867	20.888900
1148.287502	-3.013800	3.568600	-10.753000	25.421600	0.000866	20.891516
1149.294855	-3.001900	3.566600	-10.705000	25.402614	0.000865	20.889520
1150.287616	-2.983200	3.568100	-10.643000	25.394589	0.000863	20.894738
1151.288417	-3.008300	3.566800	-10.729000	25.375324	0.000865	20.882507
1152.292191	-3.001800	3.566700	-10.705000	25.363399	0.000863	20.899455
1153.287939	-3.014500	3.565200	-10.745000	25.386787	0.000860	20.889275
1154.287652	-2.984100	3.567100	-10.643000	25.390938	0.000859	20.899133
1155.288502	-3.010300	3.564800	-10.730000	25.373040	0.000861	20.897283
1156.291174	-2.989600	3.565400	-10.659000	25.362729	0.000862	20.906368
1157.287884	-2.971700	3.564100	-10.590000	25.359747	0.000861	20.903375
1158.289118	-2.983400	3.565100	-10.635000	25.400654	0.000860	20.921214
1159.292181	-2.995800	3.564500	-10.678000	25.387034	0.000858	20.910384
1160.291124	-3.025900	3.563400	-10.781000	25.419048	0.000858	20.900806
1161.291836	-3.014300	3.563200	-10.740000	25.451777	0.000858	20.902851
1162.290307	-3.001600	3.563100	-10.694000	25.458715	0.000857	20.906024
1163.290205	-2.998900	3.564700	-10.688000	25.450836	0.000857	20.910914
1164.290394	-3.010000	3.563100	-10.724000	25.485928	0.000855	20.901110
1165.297122	-3.005800	3.562300	-10.706000	25.503818	0.000855	20.912910
1166.289851	-3.007100	3.560500	-10.705000	25.503225	0.000855	20.888135
1167.290554	-3.026300	3.561100	-10.774000	25.549295	0.000855	20.907372
1168.290560	-2.979800	3.562200	-10.614000	25.522041	0.000856	20.922200
1169.290343	-3.003600	3.562100	-10.699000	25.487792	0.000853	20.917679
1170.290407	-3.019100	3.559900	-10.747000	25.461502	0.000850	20.921149
1171.291404	-2.990300	3.561500	-10.648000	25.474300	0.000851	20.931155
1172.291128	-2.978400	3.559300	-10.600000	25.470924	0.000852	20.918283
1173.290707	-3.000600	3.558400	-10.677000	25.448460	0.000851	20.893357
1174.291848	-3.000700	3.559300	-10.679000	25.436828	0.000850	20.909176
1175.293297	-2.989800	3.558600	-10.638000	25.428730	0.000850	20.911001
1176.293386	-3.008500	3.559100	-10.706000	25.447719	0.000849	20.916319
1177.292556	-3.001600	3.558600	-10.680000	25.417922	0.000850	20.899675
1178.292489	-3.002200	3.557800	-10.680000	25.411012	0.000846	20.925450
1179.293607	-3.006300	3.557200	-10.692000	25.451151	0.000847	20.917394
1180.294036	-2.981200	3.558000	-10.606000	25.452793	0.000846	20.936110
1181.296762	-3.011500	3.555000	-10.705000	25.472078	0.000847	20.916123
1182.294113	-3.006600	3.555800	-10.690000	25.454534	0.000847	20.926005
1183.293450	-3.002100	3.555700	-10.672000	25.437116	0.000847	20.943600
1184.297431	-2.989500	3.556700	-10.632000	25.429486	0.000846	20.904649
1185.295481	-3.009200	3.554700	-10.696000	25.386643	0.000844	20.923266
1186.294316	-3.002400	3.555100	-10.673000	25.367109	0.000845	20.907921
1187.294610	-3.014200	3.554300	-10.712000	25.410750	0.000844	20.935143
1188.296294	-3.021100	3.554700	-10.738000	25.431428	0.000845	20.934570
1189.295465	-3.003200	3.554400	-10.674000	25.486228	0.000843	20.936495
1190.293859	-3.013400	3.552500	-10.703000	25.506584	0.000842	20.911420
1191.297657	-3.021200	3.551900	-10.729000	25.497789	0.000843	20.922501
1192.296125	-2.987000	3.555400	-10.619000	25.483127	0.000844	20.941440
1193.295778	-2.997500	3.553000	-10.649000	25.490037	0.000843	20.920880
1194.299179	-2.993100	3.553100	-10.632000	25.477560	0.000842	20.949125
1195.297390	-2.969300	3.552300	-10.546000	25.489913	0.000843	20.914119
1196.300756	-2.992900	3.552400	-10.631000	25.492573	0.000840	20.944288
1197.298626	-3.017200	3.550700	-10.712000	25.500375	0.000840	20.935528
1198.300237	-2.991800	3.552100	-10.626000	25.520184	0.000840	20.910379
1199.296812	-3.001800	3.550800	-10.657000	25.485840	0.000841	20.934682
1200.297163	-2.964800	3.551100	-10.528000	25.475998	0.000837	20.930964
1201.296508	-2.987400	3.551900	-10.610000	25.462009	0.000841	20.933511
1202.298104	-3.003300	3.550200	-10.660000	25.428533	0.000838	20.918389
1203.297082	-2.985900	3.551500	-10.604000	25.403803	0.000839	20.929591
1204.303815	-3.015200	3.549200	-10.701000	25.363616	0.000835	20.935231
1205.299110	-3.015300	3.549400	-10.701000	25.399004	0.000838	20.909127
1206.299167	-3.008800	3.549200	-10.678000	25.393986	0.000836	20.922105
1207.303361	-2.998400	3.549100	-10.641000	25.347285	0.000838	20.940170
1208.302712	-3.008400	3.548300	-10.673000	25.366023	0.000837	20.929588
1209.300488	-2.977900	3.549600	-10.569000	25.349322	0.000835	20.907131
1210.300589	-3.003800	3.548400	-10.657000	25.349869	0.000833	20.937074
1211.304004	-3.001100	3.548900	-10.650000	25.361822	0.000835	20.895502
1212.300544	-3.010600	3.547400	-10.679000	25.379569	0.000834	20.905260
1213.301972	-3.011400	3.546300	-10.677000	25.372585	0.000834	20.930486
1214.300915	-2.993700	3.546300	-10.615000	25.406034	0.000832	20.899592
1215.300872	-3.010500	3.545500	-10.671000	25.451115	0.000831	20.905979
1216.307941	-3.000600	3.546400	-10.640000	25.480417	0.000832	20.904110
1217.302189	-2.998400	3.546400	-10.633000	25.528250	0.000829	20.921323
1218.304385	-3.007800	3.545600	-10.663000	25.532401	0.000829	20.907001
1219.301963	-3.009400	3.544900	-10.667000	25.567311	0.000827	20.906499
1220.302339	-2.970100	3.545700	-10.529000	25.584206	0.000829	20.902130
1221.305422	-2.995600	3.543400	-10.614000	25.615890	0.000828	20.905027
1222.303312	-3.001500	3.544000	-10.636000	25.653927	0.000827	20.903400
1223.303372	-3.009600	3.544200	-10.665000	25.674853	0.000826	20.910193
1224.303243	-3.007300	3.542000	-10.651000	25.663868	0.000826	20.925711
1225.304564	-3.011600	3.543200	-10.670000	25.701265	0.000825	20.884566
1226.307043	-3.003400	3.542700	-10.638000	25.692570	0.000823	20.911392
1227.303771	-3.007700	3.542400	-10.653000	25.701937	0.000825	20.907525
1228.307522	-2.981700	3.542000	-10.560000	25.689265	0.000825	20.911392
1229.309921	-2.980100	3.541700	-10.554000	25.679450	0.000823	20.888260
1230.306095	-2.970500	3.542600	-10.522000	25.682980	0.000822	20.887064
1231.308117	-2.989200	3.540000	-10.581000	25.695751	0.000822	20.917906
1232.306046	-2.988500	3.541900	-10.583000	25.679602	0.000823	20.896472
1233.306218	-3.020800	3.538500	-10.687000	25.656670	0.000821	20.894302
1234.306726	-3.006600	3.539400	-10.640000	25.650903	0.000820	20.885666
1235.305534	-2.994100	3.539500	-10.597000	25.666757	0.000818	20.903010
1236.307299	-3.026200	3.539000	-10.708000	25.681493	0.000820	20.907853
1237.306039	-3.003700	3.538500	-10.628000	25.686242	0.000818	20.887020
1238.310742	-3.009000	3.539300	-10.648000	25.681894	0.000818	20.888818
1239.310358	-2.975800	3.538800	-10.529000	25.675782	0.000817	20.891687
1240.307442	-2.999500	3.538600	-10.612000	25.686415	0.000816	20.899995
1241.309687	-2.997200	3.538100	-10.603000	25.696230	0.000818	20.880457
1242.306698	-3.011900	3.535700	-10.647000	25.698818	0.000817	20.887798
1243.306420	-3.006300	3.537200	-10.632000	25.707760	0.000818	20.886348
1244.306623	-2.981300	3.538700	-10.549000	25.717852	0.000817	20.897907
1245.310807	-2.996600	3.536100	-10.595000	25.704258	0.000817	20.887098
1246.308497	-3.004300	3.536400	-10.624000	25.701950	0.000814	20.868660
1247.308444	-3.015200	3.534300	-10.655000	25.725504	0.000815	20.879515
1248.311589	-3.014500	3.535000	-10.655000	25.716060	0.000815	20.885202
1249.312665	-2.979100	3.535300	-10.532000	25.703567	0.000814	20.891619
1250.312749	-3.018100	3.533400	-10.663000	25.719864	0.000813	20.859153
1251.312112	-2.989800	3.535200	-10.569000	25.722521	0.000812	20.876519
1252.315203	-2.995400	3.534600	-10.586000	25.726124	0.000813	20.860699
1253.310194	-3.012400	3.532800	-10.641000	25.687316	0.000811	20.887625
1254.312315	-2.994100	3.533200	-10.578000	25.658543	0.000811	20.880538
1255.311854	-2.992400	3.533200	-10.570000	25.679192	0.000810	20.877569
1256.311795	-3.006300	3.533500	-10.621000	25.676081	0.000811	20.870652
1257.314873	-3.004500	3.532900	-10.614000	25.696878	0.000810	20.888694
1258.314812	-3.010100	3.530500	-10.624000	25.683018	0.000810	20.891842
1259.313335	-2.992300	3.531800	-10.567000	25.694644	0.000809	20.869856
1260.319153	-2.981000	3.532700	-10.530000	25.676581	0.000808	20.857405
1261.317458	-3.012800	3.531600	-10.638000	25.635932	0.000808	20.866838
1262.312555	-3.007300	3.529700	-10.614000	25.624380	0.000808	20.875149
1263.317400	-3.007700	3.529200	-10.614000	25.648629	0.000807	20.884805
1264.318824	-3.021000	3.528400	-10.658000	25.634491	0.000808	20.874873
1265.315206	-2.970700	3.530900	-10.487000	25.665924	0.000806	20.862822
1266.317692	-2.998300	3.530800	-10.584000	25.665878	0.000806	20.851396
1267.316314	-2.976900	3.531000	-10.510000	25.637848	0.000808	20.865444
1268.316483	-3.000100	3.529000	-10.587000	25.629199	0.000805	20.866240
1269.321048	-2.995800	3.529000	-10.571000	25.609247	0.000806	20.866590
1270.321865	-3.003800	3.528500	-10.598000	25.619461	0.000806	20.877796
1271.319537	-3.003100	3.528100	-10.595000	25.628999	0.000803	20.875995
1272.316286	-3.017600	3.528700	-10.647000	25.645525	0.000802	20.859878
1273.319952	-3.016600	3.525800	-10.634000	25.632951	0.000802	20.875698
1274.319193	-3.001300	3.526600	-10.583000	25.626465	0.000801	20.848322
1275.317283	-3.024200	3.526200	-10.663000	25.606982	0.000800	20.868108
1276.321303	-2.998800	3.527400	-10.577000	25.586981	0.000802	20.852289
1277.318122	-2.996200	3.527600	-10.568000	25.537280	0.000802	20.874920
1278.316591	-2.997900	3.524900	-10.566000	25.519937	0.000801	20.843754
1279.318251	-3.005200	3.526100	-10.596000	25.531710	0.000799	20.852732
1280.317252	-2.988000	3.526100	-10.535000	25.517048	0.000800	20.874517
1281.321451	-2.998700	3.525700	-10.572000	25.553752	0.000798	20.839781
1282.317833	-3.006200	3.523800	-10.591000	25.561677	0.000800	20.861963
1283.320157	-2.997000	3.523200	-10.558000	25.574372	0.000798	20.857643
1284.319233	-3.027800	3.522400	-10.662000	25.585157	0.000799	20.844293
1285.320087	-3.008400	3.523200	-10.598000	25.599218	0.000798	20.851777
1286.319749	-2.994700	3.524300	-10.553000	25.609231	0.000797	20.858988
1287.322691	-2.988300	3.523000	-10.526000	25.645682	0.000794	20.862880
1288.321454	-2.995900	3.521700	-10.550000	25.666031	0.000796	20.840171
1289.321787	-2.971900	3.521800	-10.465000	25.707099	0.000797	20.851547
1290.322059	-2.995500	3.521700	-10.547000	25.707170	0.000794	20.862524
1291.322486	-2.986900	3.520900	-10.516000	25.694251	0.000797	20.858557
1292.321642	-3.000200	3.521700	-10.563000	25.697405	0.000796	20.856509
1293.324678	-2.993600	3.520000	-10.537000	25.710743	0.000790	20.852362
1294.327081	-3.041300	3.518100	-10.699000	25.699040	0.000792	20.872375
1295.325782	-3.026300	3.519900	-10.651000	25.736506	0.000791	20.864014
1296.326847	-3.001100	3.519200	-10.559000	25.706540	0.000792	20.856676
1297.328726	-3.005000	3.520000	-10.577000	25.685667	0.000794	20.842824
1298.323632	-3.006600	3.519600	-10.581000	25.686929	0.000793	20.870168
1299.325513	-3.034100	3.516900	-10.670000	25.645682	0.000790	20.862880
1300.324419	-2.990500	3.519300	-10.523000	25.646400	0.000790	20.855541
1301.324498	-3.006000	3.518100	-10.574000	25.639168	0.000789	20.863450
1302.329174	-2.974300	3.518200	-10.463000	25.664979	0.000790	20.841959
1303.328249	-2.985200	3.516300	-10.495000	25.669351	0.000788	20.855358
1304.328491	-2.995000	3.518000	-10.535000	25.679761	0.000789	20.859650
1305.328322	-3.002400	3.516300	-10.556000	25.662214	0.000788	20.853406
1306.325082	-3.003900	3.516200	-10.561000	25.664874	0.000787	20.865086
1307.327174	-2.998200	3.516300	-10.542000	25.669116	0.000787	20.843744
1308.330892	-3.004500	3.514900	-10.559000	25.676247	0.000785	20.854698
1309.329409	-3.006000	3.515600	-10.567000	25.690533	0.000785	20.852926
1310.330373	-2.984000	3.515600	-10.489000	25.701986	0.000785	20.851627
1311.332783	-3.019400	3.514300	-10.610000	25.728517	0.000785	20.852671
1312.333118	-2.988700	3.515400	-10.505000	25.744589	0.000785	20.836098
1313.331030	-2.991200	3.513800	-10.509000	25.757831	0.000784	20.859356
1314.334726	-2.989300	3.512900	-10.500000	25.726721	0.000784	20.854661
1315.335665	-3.023500	3.512700	-10.619000	25.695812	0.000784	20.849219
1316.337468	-2.990300	3.512200	-10.500000	25.655931	0.000783	20.867484
1317.332372	-3.005800	3.512700	-10.558000	25.644870	0.000783	20.859219
1318.332808	-3.004200	3.512800	-10.553000	25.629266	0.000784	20.851134
1319.333678	-2.992800	3.510400	-10.505000	25.606876	0.000780	20.847140
1320.332751	-2.983300	3.511400	-10.474000	25.611393	0.000779	20.854522
1321.340637	-2.998700	3.512000	-10.530000	25.597329	0.000782	20.839448
1322.332630	-3.008900	3.511500	-10.565000	25.587414	0.000780	20.866948
1323.333575	-2.995800	3.509700	-10.513000	25.543697	0.000781	20.842960
1324.340182	-3.003400	3.510900	-10.543000	25.549807	0.000777	20.852414
1325.336689	-2.987400	3.509700	-10.484000	25.572717	0.000780	20.857404
1326.338718	-2.998600	3.510700	-10.525000	25.589013	0.000778	20.842002
1327.338770	-2.994200	3.509200	-10.506000	25.617787	0.000778	20.856675
1328.336662	-2.986900	3.510600	-10.484000	25.647323	0.000775	20.850778
1329.337020	-3.004600	3.506600	-10.535000	25.665161	0.000777	20.863478
1330.336010	-3.014200	3.507900	-10.571000	25.678950	0.000777	20.846034
1331.338617	-3.018300	3.507100	-10.583000	25.699123	0.000774	20.834528
1332.341738	-3.009600	3.506300	-10.551000	25.681104	0.000775	20.861473
1333.337519	-2.993300	3.507900	-10.500000	25.625869	0.000774	20.838240
1334.338995	-2.993700	3.507000	-10.498000	25.580416	0.000774	20.833843
1335.339587	-3.012100	3.505100	-10.557000	25.552085	0.000770	20.849012
1336.339269	-3.018000	3.505100	-10.577000	25.541350	0.000772	20.845343
1337.339458	-3.008100	3.504300	-10.540000	25.551984	0.000771	20.838005
1338.338382	-3.006200	3.504300	-10.533000	25.545368	0.000770	20.818559
1339.339326	-2.996400	3.504000	-10.498000	25.558782	0.000769	20.842462
1340.338654	-3.007200	3.503400	-10.534000	25.606961	0.000770	20.849121
1341.340453	-3.007200	3.503300	-10.534000	25.616502	0.000769	20.840212
1342.338902	-3.007000	3.504500	-10.536000	25.597515	0.000768	20.851489
1343.339556	-2.995500	3.502200	-10.490000	25.594087	0.000765	20.834296
1344.345087	-2.990900	3.503800	-10.478000	25.612271	0.000767	20.851610
1345.343716	-2.987700	3.503000	-10.465000	25.609661	0.000768	20.841876
1346.343669	-3.017500	3.500800	-10.563000	25.663777	0.000766	20.838381
1347.344451	-3.003600	3.502100	-10.518000	25.667223	0.000764	20.835205
1348.344489	-3.006100	3.500200	-10.521000	25.662678	0.000764	20.840597
1349.341563	-2.985100	3.501300	-10.450000	25.655495	0.000765	20.819158
1350.347902	-2.978200	3.500300	-10.423000	25.664663	0.000762	20.845434
1351.342881	-3.009400	3.500000	-10.531000	25.647840	0.000763	20.832332
1352.341915	-3.001500	3.499000	-10.501000	25.643289	0.000763	20.840089
1353.344852	-2.984100	3.499700	-10.442000	25.632758	0.000762	20.848952
1354.344653	-3.023400	3.498100	-10.574000	25.663142	0.000762	20.842485
1355.344338	-3.014500	3.497900	-10.544000	25.667539	0.000760	20.838840
1356.345940	-3.030900	3.497600	-10.599000	25.691565	0.000760	20.830730
1357.349504	-3.003400	3.497900	-10.504000	25.706298	0.000759	20.851691
1358.345850	-3.000900	3.496700	-10.492000	25.678418	0.000759	20.845974
1359.346466	-3.003500	3.496900	-10.502000	25.656357	0.000757	20.830929
1360.347933	-2.991900	3.497900	-10.464000	25.659982	0.000758	20.813708
1361.347610	-3.003500	3.494800	-10.495000	25.664206	0.000756	20.848295
1362.346090	-2.999700	3.496500	-10.487000	25.669874	0.000757	20.832178
1363.351658	-2.980600	3.497100	-10.421000	25.695715	0.000755	20.847226
1364.347365	-2.987600	3.495400	-10.442000	25.712660	0.000753	20.836745
1365.346748	-2.996400	3.494200	-10.468000	25.713154	0.000756	20.807844
1366.350150	-3.003900	3.495600	-10.499000	25.728538	0.000753	20.831830
1367.348357	-2.987000	3.495000	-10.439000	25.779396	0.000754	20.801835
1368.348841	-2.982600	3.494900	-10.423000	25.785236	0.000752	20.822874
1369.348169	-3.001500	3.493900	-10.486000	25.775150	0.000752	20.844985
1370.348178	-2.991700	3.492600	-10.448000	25.759647	0.000752	20.842689
1371.347806	-3.006200	3.492600	-10.498000	25.787025	0.000751	20.822775
1372.349646	-3.018100	3.492000	-10.539000	25.748120	0.000752	20.814990
1373.349375	-3.010400	3.491200	-10.508000	25.711500	0.000748	20.832261
1374.347740	-3.001600	3.490700	-10.476000	25.707825	0.000750	20.812923
1375.352254	-3.000200	3.491800	-10.475000	25.713962	0.000749	20.820509
1376.350839	-3.004900	3.491600	-10.490000	25.705566	0.000750	20.820137
1377.355630	-2.997900	3.490600	-10.463000	25.723011	0.000749	20.797831
1378.352818	-2.999900	3.491100	-10.471000	25.731456	0.000751	20.828598
1379.352427	-3.021700	3.488100	-10.539000	25.727781	0.000750	20.814475
1380.349706	-3.008300	3.490000	-10.496000	25.725844	0.000748	20.817271
1381.348245	-3.006900	3.487900	-10.487000	25.714165	0.000747	20.812179
1382.348783	-3.016600	3.488900	-10.524000	25.719411	0.000747	20.820766
1383.351526	-3.032200	3.487200	-10.573000	25.692922	0.000748	20.813127
1384.350539	-2.983200	3.489500	-10.409000	25.684477	0.000746	20.816973
1385.350467	-2.979900	3.488400	-10.394000	25.672598	0.000747	20.801723
1386.353585	-2.956600	3.487600	-10.308000	25.671429	0.000747	20.781108
1387.352092	-2.970300	3.489000	-10.361000	25.689815	0.000746	20.810481
1388.354965	-3.018500	3.485900	-10.521000	25.699855	0.000747	20.819617
1389.353254	-3.006100	3.487800	-10.484000	25.733119	0.000744	20.824578
1390.353540	-2.990500	3.486900	-10.427000	25.755580	0.000745	20.800198
1391.352134	-2.997800	3.486500	-10.451000	25.739678	0.000746	20.803192
1392.353518	-2.997400	3.485500	-10.445000	25.721293	0.000745	20.805114
1393.352944	-2.988000	3.484000	-10.409000	25.704946	0.000743	20.809557
1394.353631	-3.005100	3.484200	-10.470000	25.702457	0.000741	20.805634
1395.355131	-2.993100	3.484300	-10.427000	25.659300	0.000739	20.793108
1396.354659	-2.987400	3.484800	-10.410000	25.659050	0.000739	20.827944
1397.354580	-2.984900	3.485000	-10.401000	25.690155	0.000739	20.809874
1398.355071	-2.992700	3.483600	-10.424000	25.690877	0.000739	20.799219
1399.358301	-3.003000	3.482600	-10.457000	25.714505	0.000738	20.802089
1400.356681	-3.002100	3.482600	-10.454000	25.748466	0.000739	20.805380
1401.363063	-2.999800	3.482800	-10.447000	25.753884	0.000737	20.800865
1402.356596	-3.006900	3.480300	-10.465000	25.738531	0.000737	20.791608
1403.358223	-3.011200	3.479800	-10.476000	25.744368	0.000735	20.785144
1404.357322	-2.986600	3.480000	-10.391000	25.737041	0.000734	20.788215
1405.362518	-3.004200	3.480000	-10.453000	25.763574	0.000734	20.812970
1406.358193	-3.018300	3.480300	-10.503000	25.777115	0.000735	20.821356
1407.355014	-2.975900	3.480500	-10.357000	25.790434	0.000736	20.784948
1408.358814	-3.026500	3.478200	-10.526000	25.762855	0.000734	20.803239
1409.356848	-2.993500	3.479200	-10.413000	25.755528	0.000733	20.778335
1410.359148	-3.007300	3.477600	-10.456000	25.761168	0.000734	20.783051
1411.359630	-2.988600	3.478800	-10.395000	25.782434	0.000730	20.804887
1412.359740	-2.987800	3.478600	-10.393000	25.811978	0.000732	20.786674
1413.359822	-2.973600	3.478900	-10.343000	25.841539	0.000731	20.778911
1414.359443	-2.994700	3.477000	-10.411000	25.810089	0.000731	20.783355
1415.363219	-3.005400	3.475000	-10.443000	25.837642	0.000729	20.804394
1416.359377	-3.002800	3.476200	-10.437000	25.796626	0.000729	20.807763
1417.359446	-3.001500	3.475200	-10.430000	25.815559	0.000729	20.797858
1418.364525	-2.988200	3.475300	-10.384000	25.826690	0.000728	20.795289
1419.359902	-2.978300	3.476300	-10.353000	25.817151	0.000728	20.787129
1420.360296	-2.998800	3.474800	-10.419000	25.820008	0.000728	20.792370
1421.365101	-2.994000	3.474600	-10.402000	25.765755	0.000727	20.781495
1422.361066	-3.014000	3.474600	-10.471000	25.762250	0.000726	20.781294
1423.361639	-3.017300	3.472900	-10.478000	25.781261	0.000727	20.778105
1424.365260	-3.020800	3.473400	-10.490000	25.741038	0.000727	20.792230
1425.361530	-3.021300	3.471800	-10.488000	25.753018	0.000728	20.772969
1426.363423	-2.994200	3.472700	-10.396000	25.725837	0.000727	20.769374
1427.368721	-3.002000	3.472100	-10.422000	25.719601	0.000725	20.773068
1428.365657	-3.001400	3.471100	-10.417000	25.701937	0.000726	20.768603
1429.363955	-2.978200	3.473000	-10.342000	25.694686	0.000724	20.788821
1430.368890	-2.999900	3.470900	-10.412000	25.705893	0.000723	20.770205
1431.364614	-3.010300	3.470300	-10.445000	25.698963	0.000724	20.765141
1432.365770	-3.000900	3.470600	-10.414000	25.706790	0.000723	20.772529
1433.370059	-2.996700	3.470900	-10.399000	25.717898	0.000722	20.770883
1434.367804	-2.978700	3.470500	-10.336000	25.744358	0.000722	20.767115
1435.367334	-3.009300	3.467700	-10.435000	25.790920	0.000722	20.768841
1436.369759	-2.988200	3.469300	-10.366000	25.777259	0.000722	20.765549
1437.369341	-3.011900	3.467600	-10.442000	25.756470	0.000721	20.768376
1438.371843	-2.979500	3.467400	-10.330000	25.761811	0.000719	20.773266
1439.372254	-2.979400	3.466200	-10.326000	25.731226	0.000719	20.783323
1440.371318	-2.989700	3.467300	-10.364000	25.767972	0.000720	20.777558
1441.368419	-3.003900	3.467300	-10.414000	25.807080	0.000719	20.786496
1442.368372	-3.023400	3.464900	-10.473000	25.773192	0.000719	20.782802
1443.368877	-2.999500	3.465600	-10.394000	25.771529	0.000715	20.767855
1444.367826	-3.003800	3.466300	-10.412000	25.739159	0.000716	20.761892
1445.370028	-3.015200	3.463500	-10.442000	25.730267	0.000715	20.762918
1446.367903	-3.001500	3.465400	-10.400000	25.711310	0.000715	20.750041
1447.369156	-3.014100	3.464900	-10.442000	25.690098	0.000714	20.756710
1448.370767	-3.010100	3.464500	-10.428000	25.665469	0.000714	20.758052
1449.369928	-2.996900	3.463500	-10.379000	25.651186	0.000715	20.758406
1450.369009	-3.028000	3.462900	-10.485000	25.639637	0.000714	20.753918
1451.368999	-2.992800	3.462600	-10.362000	25.678697	0.000713	20.767545
1452.370712	-3.005000	3.461300	-10.400000	25.713556	0.000714	20.756565
1453.369781	-3.018000	3.461300	-10.445000	25.707718	0.000713	20.750227
1454.372959	-2.995200	3.463600	-10.373000	25.732590	0.000712	20.776157
1455.370267	-3.017500	3.462300	-10.447000	25.768592	0.000710	20.762534
1456.369751	-2.998400	3.459800	-10.373000	25.794974	0.000711	20.776706
1457.372273	-3.020900	3.461000	-10.454000	25.830178	0.000709	20.767498
1458.371366	-3.005200	3.459000	-10.394000	25.839769	0.000712	20.771918
1459.371035	-2.973500	3.461700	-10.293000	25.850203	0.000711	20.764855
1460.373380	-3.004300	3.458400	-10.390000	25.874229	0.000711	20.759118
1461.372046	-2.993400	3.458500	-10.352000	25.882722	0.000708	20.760538
1462.371342	-3.005200	3.459400	-10.394000	25.829613	0.000708	20.764086
1463.375282	-2.980100	3.459600	-10.309000	25.768321	0.000709	20.767477
1464.371442	-2.975300	3.459100	-10.291000	25.746557	0.000709	20.772643
1465.372770	-3.004100	3.457900	-10.386000	25.687601	0.000707	20.773170
1466.373653	-3.000900	3.457100	-10.374000	25.683797	0.000708	20.770297
1467.373335	-2.997500	3.457100	-10.362000	25.674880	0.000705	20.762289
1468.374688	-3.002100	3.457100	-10.377000	25.668767	0.000707	20.777487
1469.375540	-2.956800	3.457700	-10.222000	25.688968	0.000706	20.783552
1470.375870	-3.018200	3.455700	-10.429000	25.676370	0.000703	20.764734
1471.376211	-3.002400	3.454300	-10.370000	25.653707	0.000706	20.780852
1472.376992	-3.003800	3.454600	-10.375000	25.667129	0.000705	20.777738
1473.374458	-2.998900	3.455400	-10.361000	25.689240	0.000703	20.772445
1474.378165	-2.972200	3.455500	-10.269000	25.695972	0.000702	20.772569
1475.376250	-2.993400	3.455100	-10.342000	25.705787	0.000703	20.783849
1476.375650	-3.011700	3.453000	-10.399000	25.716620	0.000703	20.764384
1477.374931	-3.008200	3.452300	-10.384000	25.743034	0.000702	20.785699
1478.375060	-2.977400	3.454100	-10.283000	25.775327	0.000700	20.778308
1479.375914	-2.978500	3.453600	-10.285000	25.803649	0.000701	20.774041
1480.375048	-2.993100	3.450900	-10.329000	25.815502	0.000699	20.768877
1481.375905	-2.986800	3.451400	-10.308000	25.826979	0.000700	20.771871
1482.374926	-3.018700	3.451600	-10.418000	25.834281	0.000700	20.761189
1483.376919	-2.984700	3.451300	-10.300000	25.843798	0.000697	20.773120
1484.379838	-2.992700	3.451100	-10.328000	25.840865	0.000697	20.781553
1485.377044	-2.975600	3.450700	-10.266000	25.862105	0.000697	20.767802
1486.377374	-2.997800	3.448600	-10.337000	25.897181	0.000696	20.767003
1487.380672	-2.997400	3.450200	-10.340000	25.908462	0.000697	20.784974
1488.379553	-3.004900	3.448800	-10.362000	25.933652	0.000697	20.772823
1489.379517	-3.010000	3.447200	-10.375000	25.871995	0.000696	20.758771
1490.381961	-3.020100	3.447800	-10.412000	25.861537	0.000695	20.769129
1491.379087	-3.005000	3.446800	-10.357000	25.854007	0.000695	20.763460
1492.378492	-3.005700	3.446900	-10.359000	25.868889	0.000695	20.758495
1493.383347	-3.006500	3.446500	-10.361000	25.908684	0.000695	20.758644
1494.382827	-2.973100	3.446500	-10.246000	25.892044	0.000694	20.776542
1495.380799	-3.008800	3.445400	-10.366000	25.878554	0.000694	20.759670
1496.389179	-3.012200	3.446500	-10.379000	25.879026	0.000692	20.775317
1497.382320	-3.006000	3.445700	-10.357000	25.868198	0.000691	20.746421
1498.381052	-3.008700	3.444100	-10.362000	25.857493	0.000693	20.764117
1499.388463	-2.985000	3.446600	-10.287000	25.852153	0.000690	20.785306
1500.384404	-3.011000	3.444000	-10.369000	25.858384	0.000691	20.775444
1501.385589	-3.029200	3.442300	-10.427000	25.874411	0.000690	20.783009
1502.387165	-3.012800	3.444000	-10.374000	25.900966	0.000690	20.776495
1503.388731	-3.040700	3.442100	-10.465000	25.909313	0.000688	20.779665
1504.386007	-3.004100	3.443500	-10.343000	25.921887	0.000689	20.773331
1505.387851	-3.010800	3.441400	-10.360000	25.971965	0.000687	20.789502
1506.388246	-3.005400	3.442200	-10.345000	25.989677	0.000688	20.774580
1507.384387	-2.987500	3.442100	-10.282000	25.979938	0.000687	20.786133
1508.392559	-3.007900	3.441700	-10.351000	25.989109	0.000687	20.789657
1509.388501	-2.976500	3.441500	-10.242000	25.986475	0.000686	20.796019
1510.385426	-2.980000	3.441000	-10.254000	25.963525	0.000686	20.782919
1511.391788	-2.990000	3.440100	-10.284000	26.013977	0.000684	20.774338
1512.387858	-2.997900	3.440200	-10.312000	26.000710	0.000684	20.782820
1513.386135	-2.999100	3.439300	-10.314000	25.998776	0.000684	20.768075
1514.388740	-3.012100	3.439200	-10.357000	25.990630	0.000683	20.786917
1515.389494	-3.026100	3.437000	-10.400000	25.967060	0.000684	20.762289
1516.385297	-3.027000	3.439500	-10.410000	25.973741	0.000681	20.794606
1517.390196	-2.988800	3.439000	-10.278000	25.989964	0.000682	20.777239
1518.393456	-3.024900	3.435700	-10.390000	25.987607	0.000682	20.797631
1519.389586	-2.994700	3.438200	-10.295000	26.000004	0.000683	20.777369
1520.396294	-2.989600	3.437200	-10.275000	26.012299	0.000682	20.788300
1521.391238	-3.004600	3.436500	-10.324000	26.029168	0.000682	20.772057
1522.389385	-3.006800	3.435100	-10.328000	26.027108	0.000680	20.774255
1523.393414	-3.008900	3.436200	-10.339000	26.019208	0.000680	20.778646
1524.397645	-2.986400	3.434700	-10.256000	26.023188	0.000680	20.791179
1525.390820	-3.006500	3.435500	-10.328000	25.992786	0.000680	20.786713
1526.395985	-2.988900	3.435100	-10.265000	25.972020	0.000680	20.796196
1527.393113	-3.002100	3.433900	-10.307000	25.964895	0.000680	20.781925
1528.389482	-3.026600	3.433200	-10.388000	25.948623	0.000679	20.783595
1529.395504	-2.995400	3.434500	-10.287000	25.962239	0.000680	20.790637
1530.392980	-2.989100	3.434600	-10.265000	25.968248	0.000679	20.790984
1531.391430	-3.027500	3.432500	-10.390000	25.996839	0.000680	20.812596
1532.393208	-2.988300	3.433100	-10.258000	26.014600	0.000678	20.796302
1533.391600	-2.975300	3.431900	-10.210000	26.048505	0.000678	20.805236
1534.391082	-2.983600	3.433400	-10.243000	26.038422	0.000678	20.801269
1535.392283	-2.997300	3.431700	-10.285000	26.082881	0.000678	20.807058
1536.393550	-3.006200	3.429900	-10.309000	26.081465	0.000678	20.793782
1537.392539	-2.995400	3.430300	-10.273000	26.088072	0.000677	20.796627
1538.393253	-3.004100	3.429600	-10.302000	26.079806	0.000675	20.800176
1539.393143	-2.968100	3.431000	-10.182000	26.079454	0.000673	20.817366
1540.396290	-2.999600	3.429700	-10.287000	26.047836	0.000674	20.786072
1541.397311	-2.990600	3.429800	-10.256000	26.036661	0.000672	20.789543
1542.395449	-3.012200	3.430100	-10.331000	26.029357	0.000673	20.791213
1543.396301	-2.998300	3.429400	-10.281000	26.024912	0.000673	20.804291
1544.397838	-2.994200	3.427900	-10.262000	25.994264	0.000673	20.795784
1545.396730	-2.995200	3.427300	-10.265000	25.971832	0.000670	20.794585
1546.397756	-2.990900	3.427700	-10.251000	25.978067	0.000672	20.808909
1547.400860	-3.003700	3.427400	-10.293000	25.991929	0.000670	20.795809
1548.398542	-3.007000	3.426100	-10.300000	26.006238	0.000669	20.800228
1549.398914	-3.014100	3.424700	-10.321000	25.976185	0.000669	20.814605
1550.403568	-2.992900	3.426400	-10.254000	25.995757	0.000669	20.794439
1551.403378	-2.987300	3.426800	-10.236000	25.996380	0.000669	20.809764
1552.400278	-2.998300	3.426700	-10.274000	26.007833	0.000666	20.806098
1553.404622	-3.000600	3.425200	-10.276000	26.007657	0.000666	20.803076
1554.399342	-3.016100	3.423600	-10.324000	25.956369	0.000666	20.800861
1555.401272	-3.009600	3.423300	-10.302000	25.976787	0.000664	20.801933
1556.404764	-3.002200	3.424000	-10.278000	26.006374	0.000662	20.797520
1557.403423	-2.996200	3.425100	-10.262000	26.007790	0.000665	20.785666
1558.401491	-3.000800	3.422700	-10.270000	26.020860	0.000663	20.805909
1559.400844	-2.977400	3.423600	-10.192000	26.013802	0.000664	20.815888
1560.403005	-3.001200	3.420800	-10.266000	26.030992	0.000662	20.790485
1561.405616	-3.026500	3.419600	-10.349000	26.009980	0.000661	20.792134
1562.401680	-3.012100	3.421600	-10.304000	26.001609	0.000661	20.798896
1563.401316	-3.021400	3.420100	-10.333000	25.990433	0.000661	20.798574
1564.401283	-2.970200	3.420900	-10.160000	25.982438	0.000660	20.792438
1565.403447	-2.998300	3.421400	-10.257000	25.968058	0.000661	20.817819
1566.403340	-2.997000	3.420000	-10.248000	25.918649	0.000661	20.790467
1567.401873	-2.992100	3.419500	-10.231000	25.870182	0.000660	20.815746
1568.405030	-3.007800	3.417600	-10.279000	25.825243	0.000659	20.812802
1569.403159	-3.024800	3.417200	-10.334000	25.810684	0.000660	20.793910
1570.402595	-3.014600	3.417000	-10.300000	25.846684	0.000659	20.797356
1571.404304	-2.981300	3.418200	-10.189000	25.839234	0.000657	20.813580
1572.404924	-3.002700	3.418000	-10.261000	25.864676	0.000659	20.809740
1573.405140	-3.008700	3.417500	-10.282000	25.898188	0.000658	20.818749
1574.406980	-3.002700	3.416100	-10.256000	25.919923	0.000657	20.796014
1575.407974	-3.009300	3.417500	-10.283000	25.914238	0.000658	20.816381
1576.406390	-2.971600	3.416500	-10.152000	25.894440	0.000656	20.806923
1577.406903	-3.000000	3.416500	-10.248000	25.872305	0.000655	20.827361
1578.408161	-2.999800	3.415700	-10.245000	25.821754	0.000657	20.802185
1579.408691	-3.006700	3.414200	-10.264000	25.838003	0.000653	20.825620
1580.409095	-2.998500	3.414500	-10.238000	25.844590	0.000654	20.813270
1581.409385	-3.026400	3.413800	-10.330000	25.875866	0.000653	20.803911
1582.408293	-3.014200	3.414500	-10.291000	25.880462	0.000654	20.813744
1583.408492	-3.003200	3.413900	-10.251000	25.874653	0.000655	20.828772
1584.410692	-2.979700	3.414300	-10.172000	25.852519	0.000655	20.812700
1585.407878	-2.989600	3.413400	-10.203000	25.861342	0.000652	20.806865
1586.408258	-2.992400	3.412900	-10.212000	25.880321	0.000650	20.815973
1587.410682	-3.020900	3.410800	-10.302000	25.869070	0.000652	20.833594
1588.410162	-2.991100	3.411000	-10.201000	25.880151	0.000652	20.816751
1589.407203	-3.000200	3.411100	-10.233000	25.875484	0.000649	20.826287
1590.409598	-3.021600	3.410000	-10.302000	25.878640	0.000648	20.817129
1591.411194	-2.966500	3.412600	-10.122000	25.938909	0.000649	20.829311
1592.407980	-2.979800	3.412200	-10.166000	25.947552	0.000649	20.808598
1593.414426	-3.015200	3.408900	-10.278000	25.951081	0.000648	20.818307
1594.409278	-3.012000	3.409300	-10.267000	25.999498	0.000649	20.821431
1595.410004	-3.006400	3.409700	-10.250000	26.011346	0.000649	20.801566
1596.412553	-2.992300	3.409500	-10.200000	25.999551	0.000646	20.813898
1597.411410	-3.014400	3.408100	-10.272000	26.027074	0.000646	20.837282
1598.410305	-3.005900	3.408200	-10.243000	26.048061	0.000645	20.813324
1599.413943	-2.999600	3.408400	-10.223000	26.049603	0.000645	20.841426
1600.413346	-2.987600	3.409300	-10.184000	26.034378	0.000645	20.834664
1601.413960	-2.998500	3.407900	-10.218000	26.012377	0.000645	20.831999
1602.415205	-2.984400	3.407500	-10.168000	26.018811	0.000643	20.816179
1603.417596	-2.995900	3.407300	-10.207000	26.021072	0.000645	20.830304
1604.414173	-2.992700	3.406100	-10.193000	26.071300	0.000643	20.815336
1605.417101	-2.984700	3.405200	-10.163000	26.050535	0.000644	20.825768
1606.417030	-3.011300	3.405100	-10.253000	26.035138	0.000643	20.832108
1607.413712	-3.007000	3.404800	-10.237000	26.028260	0.000644	20.832784
1608.416627	-2.992200	3.405700	-10.190000	26.016091	0.000645	20.839524
1609.416333	-2.997800	3.404900	-10.206000	26.022899	0.000642	20.821234
1610.416350	-3.016900	3.404500	-10.270000	25.961031	0.000642	20.851062
1611.416747	-2.998100	3.402900	-10.202000	25.988602	0.000642	20.828028
1612.419255	-3.002900	3.403600	-10.220000	25.999259	0.000640	20.838735
1613.417231	-2.990600	3.403200	-10.176000	26.018809	0.000642	20.816652
1614.419404	-3.009900	3.401600	-10.238000	26.012304	0.000643	20.850892
1615.418900	-3.009800	3.402400	-10.239000	26.037243	0.000640	20.848447
1616.418537	-3.017800	3.401000	-10.263000	25.967223	0.000639	20.836894
1617.420354	-2.988500	3.401800	-10.165000	25.960742	0.000638	20.852668
1618.424483	-2.989600	3.401200	-10.168000	25.968096	0.000638	20.825444
1619.421439	-3.016500	3.399700	-10.253000	25.970459	0.000637	20.843464
1620.421238	-2.989700	3.400200	-10.165000	26.035115	0.000639	20.836352
1621.424298	-2.979600	3.400100	-10.130000	26.065916	0.000637	20.848333
1622.420254	-2.999000	3.398900	-10.192000	26.089240	0.000635	20.854698
1623.424738	-2.979200	3.398600	-10.123000	26.074139	0.000636	20.826250
1624.421495	-2.978100	3.400300	-10.125000	26.056281	0.000635	20.845290
1625.422217	-3.000900	3.397700	-10.195000	26.068779	0.000634	20.845046
1626.422376	-2.977700	3.398000	-10.117000	26.045930	0.000635	20.838209
1627.427233	-2.998600	3.396900	-10.185000	25.998117	0.000632	20.852759
1628.422983	-3.006600	3.395600	-10.208000	26.018882	0.000635	20.839483
1629.423093	-2.999200	3.395300	-10.182000	26.009419	0.000634	20.846570
1630.422661	-3.004000	3.395900	-10.200000	26.004305	0.000632	20.841907
1631.422847	-2.982300	3.397400	-10.131000	25.986547	0.000632	20.838765
1632.425100	-2.962500	3.396500	-10.061000	25.975917	0.000630	20.852267
1633.424350	-3.013900	3.395800	-10.233000	25.968940	0.000630	20.855214
1634.424523	-3.023300	3.394200	-10.260000	25.944077	0.000631	20.855840
1635.427074	-3.007300	3.394900	-10.209000	25.969317	0.000630	20.841368
1636.423435	-3.017600	3.394500	-10.242000	25.967630	0.000629	20.844889
1637.423997	-3.010100	3.394200	-10.215000	25.969669	0.000629	20.839826
1638.425134	-3.024500	3.393300	-10.261000	25.989867	0.000628	20.853480
1639.424847	-2.997300	3.393200	-10.170000	26.026851	0.000627	20.867877
1640.424447	-3.004100	3.392500	-10.190000	26.048841	0.000627	20.856781
1641.424222	-2.990500	3.392200	-10.144000	26.066499	0.000627	20.839436
1642.423894	-2.996500	3.392500	-10.165000	26.077205	0.000627	20.861097
1643.424775	-3.006600	3.390800	-10.194000	26.064192	0.000628	20.860825
1644.424254	-2.980700	3.392300	-10.111000	26.070454	0.000625	20.866642
1645.425402	-3.019700	3.390200	-10.237000	26.060568	0.000626	20.861451
1646.426372	-3.005800	3.390800	-10.191000	26.069341	0.000625	20.837550
1647.426739	-2.992500	3.391200	-10.146000	26.097254	0.000623	20.866542
1648.425562	-2.991600	3.391200	-10.142000	26.062805	0.000624	20.865594
1649.425787	-3.002800	3.389800	-10.178000	26.024604	0.000624	20.867990
1650.426655	-3.004800	3.390700	-10.187000	26.029527	0.000625	20.868669
1651.430482	-3.004800	3.389100	-10.183000	26.038444	0.000624	20.873835
1652.427203	-2.994500	3.389600	-10.149000	26.039811	0.000623	20.849130
1653.428600	-3.020800	3.389500	-10.238000	26.025209	0.000624	20.866227
1654.434288	-3.017300	3.389600	-10.226000	26.044752	0.000623	20.861207
1655.430573	-3.015100	3.388100	-10.214000	26.040163	0.000621	20.870820
1656.432456	-2.971900	3.389600	-10.072000	26.043663	0.000621	20.861535
1657.430367	-2.983100	3.387100	-10.102000	26.090161	0.000622	20.874588
1658.430897	-2.989100	3.388400	-10.126000	26.086509	0.000622	20.854324
1659.432014	-3.004100	3.387200	-10.175000	26.126222	0.000622	20.859140
1660.435546	-3.010200	3.387100	-10.195000	26.133452	0.000620	20.843172
1661.431388	-3.000700	3.384900	-10.156000	26.134325	0.000619	20.870600
1662.431535	-3.004200	3.385000	-10.168000	26.123841	0.000620	20.873342
1663.434207	-3.005600	3.385200	-10.173000	26.131166	0.000618	20.874538
1664.433060	-3.018800	3.384200	-10.215000	26.116344	0.000620	20.857749
1665.432035	-2.992000	3.384400	-10.125000	26.114354	0.000617	20.875189
1666.432137	-3.005700	3.384300	-10.171000	26.114160	0.000617	20.870253
1667.435970	-3.011600	3.384400	-10.192000	26.112417	0.000615	20.882726
1668.435592	-2.994100	3.385600	-10.136000	26.155408	0.000614	20.865707
1669.435452	-2.971200	3.384700	-10.055000	26.118355	0.000612	20.874468
1670.439255	-3.020000	3.383300	-10.216000	26.110308	0.000615	20.883451
1671.436127	-2.986200	3.384500	-10.106000	26.067439	0.000612	20.861242
1672.435793	-3.010900	3.382400	-10.183000	26.063966	0.000610	20.885726
1673.437457	-2.993700	3.382700	-10.125000	26.074891	0.000614	20.898124
1674.435629	-3.009100	3.382600	-10.178000	26.054700	0.000611	20.869779
1675.435995	-3.005800	3.381400	-10.163000	26.028054	0.000611	20.893740
1676.437943	-3.016800	3.381400	-10.200000	26.015383	0.000611	20.867734
1677.435341	-3.016200	3.380700	-10.195000	26.002320	0.000612	20.879739
1678.437329	-3.002100	3.380200	-10.147000	25.994300	0.000609	20.865993
1679.436460	-3.007000	3.379700	-10.161000	25.993184	0.000610	20.897586
1680.438656	-3.000600	3.379900	-10.141000	25.946731	0.000609	20.872256
1681.437979	-3.000200	3.379900	-10.139000	25.992786	0.000610	20.874902
1682.436439	-3.001300	3.379100	-10.140000	25.985657	0.000609	20.880068
1683.443207	-3.004900	3.377700	-10.149000	25.964345	0.000606	20.895640
1684.439101	-3.011400	3.379500	-10.176000	25.951430	0.000609	20.876028
1685.434790	-2.992800	3.378100	-10.109000	25.901749	0.000608	20.885386
1686.439665	-3.011200	3.377100	-10.168000	25.926866	0.000606	20.879799
1687.441703	-2.998100	3.376800	-10.122000	25.888065	0.000605	20.871640
1688.434581	-3.003400	3.377200	-10.143000	25.918543	0.000606	20.878076
1689.440702	-2.991100	3.377000	-10.098000	25.951954	0.000604	20.890778
1690.441729	-3.000300	3.377400	-10.132000	25.999970	0.000604	20.888284
1691.438948	-3.024400	3.375800	-10.209000	26.028758	0.000604	20.885913
1692.439188	-3.012500	3.374900	-10.166000	26.036806	0.000603	20.896843
1693.438154	-2.989400	3.377400	-10.096000	26.099373	0.000603	20.880050
1694.439313	-2.988600	3.374800	-10.084000	26.120460	0.000603	20.875635
1695.441446	-3.008400	3.374000	-10.149000	26.159404	0.000603	20.881101
1696.446266	-3.028200	3.373000	-10.213000	26.161415	0.000600	20.863208
1697.439855	-3.002300	3.374200	-10.130000	26.167898	0.000600	20.884894
1698.440116	-3.010000	3.373300	-10.152000	26.168644	0.000600	20.893230
1699.447528	-3.016200	3.374900	-10.178000	26.171303	0.000598	20.866032
1700.441231	-3.006200	3.373300	-10.140000	26.214766	0.000599	20.878886
1701.440089	-2.994000	3.372300	-10.095000	26.245411	0.000599	20.863215
1702.440295	-2.998400	3.372400	-10.111000	26.245637	0.000599	20.864864
1703.439980	-2.994400	3.371900	-10.096000	26.269207	0.000598	20.870058
1704.441687	-3.033400	3.370300	-10.222000	26.263721	0.000598	20.872131
1705.442047	-2.974800	3.372300	-10.031000	26.232327	0.000600	20.878514
1706.442254	-2.997400	3.371600	-10.105000	26.207868	0.000598	20.853464
1707.442265	-2.983200	3.371300	-10.056000	26.162446	0.000597	20.868512
1708.441671	-2.992200	3.371400	-10.087000	26.165031	0.000598	20.872531
1709.441873	-2.969800	3.370500	-10.009000	26.170496	0.000596	20.880393
1710.439799	-3.003600	3.369400	-10.119000	26.189916	0.000597	20.879993
1711.441851	-3.013200	3.369200	-10.149000	26.212396	0.000596	20.858488
1712.445699	-3.014100	3.367900	-10.150000	26.208667	0.000595	20.869913
1713.441524	-3.000700	3.368200	-10.105000	26.225312	0.000595	20.872414
1714.443132	-2.972300	3.369300	-10.014000	26.219453	0.000593	20.867949
1715.441644	-2.989300	3.368200	-10.067000	26.225763	0.000592	20.863385
1716.442410	-2.981000	3.367600	-10.038000	26.222808	0.000593	20.861364
1717.443068	-2.998100	3.367000	-10.094000	26.226583	0.000591	20.879381
1718.442140	-3.003700	3.366400	-10.110000	26.220252	0.000592	20.852158
1719.441276	-3.007800	3.365700	-10.123000	26.189413	0.000591	20.853884
1720.448557	-2.960800	3.366700	-9.967100	26.188965	0.000589	20.864814
1721.445006	-3.001500	3.366100	-10.103000	26.163714	0.000590	20.857932
1722.445076	-2.992300	3.366700	-10.073000	26.230467	0.000590	20.867163
1723.447750	-2.983400	3.366000	-10.041000	26.221379	0.000589	20.848549
1724.446386	-2.991600	3.365000	-10.065000	26.224234	0.000589	20.836246
1725.448598	-2.994700	3.364700	-10.075000	26.232034	0.000589	20.837445
1726.444490	-3.002200	3.363000	-10.095000	26.233252	0.000587	20.842937
1727.446055	-2.992300	3.364800	-10.068000	26.265809	0.000585	20.841988
1728.450161	-3.009100	3.363100	-10.119000	26.302117	0.000586	20.838174
1729.445554	-3.006200	3.364000	-10.112000	26.305821	0.000587	20.835259
1730.446198	-3.021200	3.363200	-10.159000	26.323352	0.000585	20.834859
1731.445650	-3.019100	3.361200	-10.146000	26.350519	0.000586	20.831816
1732.447245	-2.998100	3.362100	-10.079000	26.357247	0.000583	20.819612
1733.443899	-2.993300	3.361700	-10.062000	26.379744	0.000584	20.844593
1734.445922	-2.990600	3.362200	-10.054000	26.337682	0.000585	20.826501
1735.446635	-2.990600	3.362700	-10.055000	26.301107	0.000584	20.833840
1736.447842	-3.024000	3.359900	-10.160000	26.297558	0.000583	20.836437
1737.445746	-3.009500	3.360300	-10.112000	26.308406	0.000582	20.846864
1738.447165	-3.025300	3.359900	-10.164000	26.346998	0.000582	20.837286
1739.448990	-2.999100	3.359100	-10.072000	26.329292	0.000580	20.827078
1740.447391	-2.990200	3.361100	-10.049000	26.311043	0.000580	20.820118
1741.448258	-2.998500	3.359100	-10.071000	26.285143	0.000580	20.834866
1742.447839	-2.994100	3.359100	-10.056000	26.272555	0.000580	20.836440
1743.450513	-2.999300	3.358300	-10.072000	26.277991	0.000581	20.821041
1744.451317	-2.999000	3.358600	-10.072000	26.314493	0.000579	20.824060
1745.450889	-2.998700	3.358800	-10.072000	26.329492	0.000579	20.827279
1746.450160	-2.994000	3.357700	-10.052000	26.353156	0.000577	20.804121
1747.448419	-3.004700	3.355800	-10.082000	26.356659	0.000577	20.820917
1748.453619	-2.986300	3.356900	-10.024000	26.350550	0.000576	20.816675
1749.448722	-2.979100	3.357900	-10.003000	26.332302	0.000576	20.829629
1750.449897	-2.993200	3.355300	-10.042000	26.305533	0.000575	20.823589
1751.449387	-2.994000	3.355800	-10.046000	26.293987	0.000577	20.831426
1752.453100	-3.010800	3.355900	-10.104000	26.288597	0.000578	20.807518
1753.453235	-3.000600	3.356500	-10.070000	26.298082	0.000576	20.824162
1754.451970	-3.004100	3.355800	-10.080000	26.263566	0.000576	20.812234
1755.455760	-2.982400	3.355200	-10.005000	26.292223	0.000575	20.832973
1756.459046	-3.003300	3.355600	-10.076000	26.287804	0.000575	20.841808
1757.451694	-3.019700	3.352500	-10.122000	26.305856	0.000576	20.821544
1758.456036	-3.016200	3.352300	-10.110000	26.298980	0.000573	20.805150
1759.454551	-3.015300	3.352600	-10.108000	26.284502	0.000573	20.806247
1760.452393	-2.998300	3.351900	-10.049000	26.281030	0.000573	20.822198
1761.453950	-2.997500	3.353100	-10.049000	26.286016	0.000572	20.815355
1762.460785	-3.016100	3.351800	-10.108000	26.280481	0.000572	20.812163
1763.454491	-2.999600	3.353800	-10.059000	26.293019	0.000573	20.808169
1764.454659	-3.000200	3.351200	-10.053000	26.268164	0.000572	20.823968
1765.456626	-2.984800	3.350000	-9.997800	26.223636	0.000572	20.805299
1766.455152	-2.981700	3.350600	-9.990000	26.167981	0.000569	20.812910
1767.455959	-2.995600	3.350700	-10.036000	26.133084	0.000568	20.813405
1768.459971	-3.026200	3.349200	-10.134000	26.068684	0.000571	20.815553
1769.456383	-2.987500	3.351500	-10.011000	26.061753	0.000568	20.798633
1770.454998	-2.983000	3.349300	-9.989300	26.081098	0.000567	20.815224
1771.459843	-3.000100	3.348400	-10.044000	26.086634	0.000568	20.824580
1772.459046	-2.992100	3.348400	-10.017000	26.082119	0.000569	20.801078
1773.457187	-3.009500	3.348800	-10.077000	26.096519	0.000567	20.821710
1774.456963	-2.979800	3.347800	-9.974500	26.134964	0.000567	20.794432
1775.459667	-2.974700	3.348000	-9.958000	26.179768	0.000567	20.813374
1776.458899	-2.991700	3.346600	-10.011000	26.203086	0.000568	20.800296
1777.457467	-2.980800	3.348100	-9.979000	26.222354	0.000567	20.813968
1778.457147	-2.979600	3.347700	-9.973100	26.203477	0.000566	20.798792
1779.457234	-2.978500	3.348000	-9.971700	26.197219	0.000562	20.799142
1780.459601	-2.983100	3.348300	-9.987300	26.205656	0.000564	20.819000
1781.459879	-3.008400	3.345500	-10.062000	26.194980	0.000563	20.829134
1782.467630	-3.013400	3.344500	-10.078000	26.207318	0.000563	20.814980
1783.459697	-3.008400	3.343800	-10.059000	26.210199	0.000563	20.792271
1784.460537	-2.989900	3.344400	-9.997400	26.220030	0.000560	20.809736
1785.463239	-3.024500	3.344000	-10.113000	26.240316	0.000562	20.803569
1786.459436	-2.987300	3.344900	-9.991600	26.283572	0.000561	20.811951
1787.460189	-3.001600	3.343600	-10.035000	26.320620	0.000561	20.821208
1788.461811	-2.981000	3.344300	-9.968600	26.301498	0.000559	20.790137
1789.461749	-2.993100	3.343000	-10.005000	26.320666	0.000558	20.817935
1790.459260	-3.001700	3.342700	-10.032000	26.305124	0.000558	20.804213
1791.463768	-2.965900	3.343600	-9.914500	26.301593	0.000558	20.822475
1792.464516	-3.038200	3.340700	-10.148000	26.312515	0.000558	20.803106
1793.461881	-2.997900	3.342200	-10.017000	26.300273	0.000556	20.800285
1794.462799	-3.012500	3.340600	-10.062000	26.306878	0.000556	20.802656
1795.459744	-3.016300	3.341400	-10.077000	26.339281	0.000556	20.800608
1796.463042	-3.008600	3.339700	-10.047000	26.361677	0.000554	20.808891
1797.458783	-3.020800	3.340900	-10.092000	26.381861	0.000554	20.807840
1798.460126	-2.991300	3.341800	-9.995500	26.376619	0.000554	20.795459
1799.464615	-3.007400	3.340000	-10.044000	26.363856	0.000554	20.786426
1800.461407	-2.996100	3.339200	-10.003000	26.373168	0.000555	20.805268
1801.463889	-2.991300	3.340300	-9.989800	26.343893	0.000555	20.810459
1802.462745	-2.998900	3.339800	-10.015000	26.324919	0.000553	20.788545
1803.463449	-3.013800	3.338000	-10.059000	26.322187	0.000552	20.793860
1804.467573	-2.995000	3.339400	-10.000000	26.347664	0.000552	20.790067
1805.461895	-3.001600	3.338600	-10.019000	26.375147	0.000551	20.800144
1806.464164	-2.971000	3.338000	-9.915300	26.348059	0.000550	20.804688
1807.462451	-3.015800	3.338100	-10.066000	26.353871	0.000548	20.796305
1808.463718	-2.996800	3.336700	-9.998200	26.330380	0.000548	20.798775
1809.465091	-3.003500	3.336600	-10.020000	26.365539	0.000549	20.797126
1810.466089	-2.979800	3.336800	-9.941800	26.340756	0.000548	20.808254
1811.465235	-2.997800	3.336400	-10.001000	26.367845	0.000547	20.781900
1812.464921	-3.000400	3.335200	-10.007000	26.340904	0.000546	20.799394
1813.469479	-3.004300	3.334800	-10.018000	26.337302	0.000547	20.799093
1814.465624	-3.003700	3.334900	-10.017000	26.321758	0.000546	20.803860
1815.466033	-3.002800	3.333800	-10.009000	26.359325	0.000546	20.825968
1816.466982	-3.004200	3.334700	-10.017000	26.378869	0.000546	20.809100
1817.467077	-2.986300	3.335200	-9.959100	26.394606	0.000544	20.796468
1818.472965	-3.019800	3.332700	-10.062000	26.373401	0.000543	20.786536
1819.467724	-3.010600	3.332700	-10.031000	26.369476	0.000542	20.815307
1820.467584	-2.990000	3.334000	-9.968200	26.390635	0.000542	20.802908
1821.468356	-3.018900	3.333500	-10.062000	26.422458	0.000540	20.787951
1822.465512	-3.006600	3.332000	-10.017000	26.419159	0.000540	20.788903
1823.468525	-3.021700	3.331800	-10.067000	26.388195	0.000540	20.791921
1824.470780	-2.996600	3.331600	-9.983300	26.332275	0.000539	20.788351
1825.466863	-2.996200	3.331600	-9.980900	26.285369	0.000539	20.795739
1826.466644	-2.993100	3.331600	-9.969800	26.287151	0.000539	20.817918
1827.468522	-2.992600	3.330900	-9.967200	26.292989	0.000539	20.792491
1828.465712	-3.008200	3.329800	-10.016000	26.305875	0.000537	20.797381
1829.471420	-2.985900	3.329300	-9.939800	26.323431	0.000538	20.782307
1830.469526	-2.992100	3.328900	-9.959300	26.385678	0.000536	20.779434
1831.467049	-3.016700	3.329600	-10.043000	26.374954	0.000536	20.792838
1832.468534	-3.013600	3.328200	-10.029000	26.367850	0.000536	20.784275
1833.466138	-3.007400	3.330000	-10.013000	26.405394	0.000534	20.801146
1834.466958	-3.018400	3.327600	-10.043000	26.429130	0.000536	20.766681
1835.468660	-2.977200	3.329500	-9.911900	26.414829	0.000532	20.789293
1836.470350	-2.993600	3.326900	-9.958700	26.438737	0.000532	20.802417
1837.466829	-3.002100	3.327900	-9.989700	26.463838	0.000534	20.790662
1838.468497	-3.010800	3.325200	-10.010000	26.506023	0.000531	20.777587
1839.467999	-2.993400	3.326700	-9.957100	26.495768	0.000531	20.793358
1840.468179	-2.993100	3.326200	-9.954900	26.508385	0.000530	20.775220
1841.468956	-2.994700	3.326500	-9.961100	26.540334	0.000530	20.794059
1842.470064	-3.008700	3.326500	-10.007000	26.549251	0.000529	20.787849
1843.471932	-2.992000	3.324800	-9.946800	26.555408	0.000528	20.785029
1844.468710	-3.008700	3.323800	-10.000000	26.509479	0.000529	20.784381
1845.474495	-3.001400	3.323700	-9.975000	26.494458	0.000527	20.792516
1846.469614	-3.015200	3.322700	-10.018000	26.447264	0.000526	20.780166
1847.469490	-2.982300	3.323700	-9.910800	26.425514	0.000528	20.770634
1848.471636	-3.029300	3.323200	-10.066000	26.375633	0.000528	20.783563
1849.470413	-3.003700	3.324300	-9.983700	26.422261	0.000526	20.758829
1850.468482	-2.996100	3.322200	-9.951900	26.408140	0.000526	20.771663
1851.469187	-3.012200	3.322100	-10.005000	26.425172	0.000525	20.770764
1852.468859	-2.990500	3.323000	-9.936100	26.407640	0.000524	20.754091
1853.469846	-2.992700	3.322600	-9.942200	26.385523	0.000522	20.768846
1854.469776	-2.968700	3.322400	-9.861900	26.429597	0.000522	20.771419
1855.472177	-2.992900	3.321000	-9.938600	26.430594	0.000522	20.778110
1856.469000	-2.995300	3.321300	-9.946600	26.446957	0.000520	20.763737
1857.468518	-2.991600	3.320600	-9.932300	26.476405	0.000520	20.778163
1858.470331	-2.996200	3.320300	-9.947000	26.500439	0.000520	20.774819
1859.470784	-3.003000	3.319600	-9.968200	26.548433	0.000521	20.758103
1860.472273	-3.000900	3.318000	-9.956200	26.548236	0.000520	20.766440
1861.471018	-2.997200	3.319500	-9.948400	26.566136	0.000519	20.762622
1862.475113	-2.996400	3.317600	-9.939900	26.566611	0.000520	20.769738
1863.478533	-2.977900	3.318800	-9.881100	26.575651	0.000519	20.740417
1864.471869	-3.003100	3.316700	-9.958900	26.579326	0.000517	20.763078
1865.478650	-2.993600	3.318000	-9.932000	26.598348	0.000517	20.772717
1866.471475	-2.981900	3.316900	-9.889800	26.583356	0.000516	20.754801
1867.472403	-2.994500	3.317100	-9.931700	26.593955	0.000516	20.755972
1868.472196	-2.980600	3.317800	-9.888400	26.528442	0.000514	20.748439
1869.476833	-3.004900	3.315300	-9.961800	26.486487	0.000514	20.749890
1870.476574	-2.982700	3.317000	-9.892700	26.465361	0.000514	20.757105
1871.472815	-2.997600	3.316100	-9.939300	26.428741	0.000515	20.764394
1872.485509	-3.002100	3.314800	-9.950100	26.428220	0.000515	20.740162
1873.476239	-2.993600	3.315500	-9.924400	26.400964	0.000512	20.747381
1874.477358	-2.987600	3.314500	-9.901700	26.432673	0.000513	20.757441
1875.478190	-2.985800	3.313900	-9.894000	26.443700	0.000511	20.741022
1876.477945	-3.008000	3.313700	-9.966100	26.474190	0.000512	20.743219
1877.477708	-3.011300	3.313300	-9.975700	26.479407	0.000512	20.735661
1878.478371	-3.026500	3.312000	-10.021000	26.443231	0.000509	20.750509
1879.479897	-3.003900	3.311300	-9.946100	26.469107	0.000510	20.747119
1880.478843	-2.979100	3.314500	-9.871800	26.459749	0.000509	20.741032
1881.478752	-3.004300	3.310800	-9.945900	26.489000	0.000507	20.725862
1882.480916	-3.013000	3.311400	-9.975900	26.515220	0.000509	20.739889
1883.478630	-3.002300	3.311700	-9.941000	26.490718	0.000506	20.745133
1884.477890	-3.007800	3.310400	-9.956200	26.471008	0.000506	20.752823
1885.479876	-3.002100	3.310100	-9.936200	26.462520	0.000508	20.750930
1886.476735	-2.999900	3.311000	-9.930300	26.473521	0.000507	20.756772
1887.479382	-2.992800	3.310200	-9.906100	26.488420	0.000507	20.738081
1888.483867	-2.993700	3.309600	-9.906800	26.459742	0.000508	20.751457
1889.486310	-2.989100	3.310000	-9.892900	26.462576	0.000503	20.733442
1890.482241	-2.994600	3.309200	-9.909000	26.443731	0.000504	20.745321
1891.486313	-3.005100	3.309000	-9.942500	26.448058	0.000505	20.738290
1892.478966	-2.994500	3.308700	-9.906400	26.448579	0.000505	20.733598
1893.480401	-2.993200	3.309000	-9.902000	26.418560	0.000505	20.747522
1894.478367	-3.009900	3.307800	-9.954800	26.371735	0.000503	20.727012
1895.478979	-2.988300	3.308800	-9.886100	26.345766	0.000502	20.737423
1896.480127	-2.993700	3.306400	-9.897200	26.315472	0.000501	20.724047
1897.480007	-2.996100	3.306200	-9.904900	26.354923	0.000501	20.749946
1898.483914	-3.008700	3.306100	-9.946100	26.401411	0.000501	20.742140
1899.483116	-2.987500	3.306800	-9.878100	26.412758	0.000500	20.741690
1900.480922	-2.995600	3.307100	-9.906200	26.391479	0.000500	20.726467
1901.482082	-2.989700	3.305700	-9.881300	26.420584	0.000498	20.739125
1902.482198	-3.002400	3.306800	-9.926300	26.464629	0.000498	20.736927
1903.480965	-2.977900	3.304800	-9.839500	26.491394	0.000498	20.751029
1904.482650	-3.011800	3.304000	-9.950500	26.496263	0.000496	20.733162
1905.481417	-3.010300	3.304400	-9.946300	26.539382	0.000498	20.732883
1906.481938	-2.988200	3.304500	-9.873700	26.530895	0.000498	20.714393
1907.482448	-3.006700	3.302600	-9.929500	26.511453	0.000496	20.728990
1908.480996	-3.001500	3.303300	-9.913700	26.559940	0.000498	20.726046
1909.483088	-3.009600	3.303000	-9.939500	26.538612	0.000497	20.742066
1910.485207	-2.987000	3.303500	-9.867100	26.559366	0.000494	20.737798
1911.485254	-2.989200	3.302400	-9.870300	26.585010	0.000495	20.737497
1912.485759	-2.972000	3.301200	-9.809000	26.620164	0.000496	20.737274
1913.485758	-3.008500	3.299400	-9.924200	26.596306	0.000494	20.726092
1914.488020	-3.017700	3.301100	-9.960200	26.561126	0.000494	20.757112
1915.485565	-2.989600	3.300000	-9.864700	26.555044	0.000495	20.747204
1916.484155	-2.991200	3.299800	-9.869800	26.564830	0.000492	20.726220
1917.486595	-2.994700	3.299600	-9.880300	26.565843	0.000492	20.741938
1918.489131	-2.990400	3.298200	-9.860800	26.555565	0.000491	20.738718
1919.487302	-2.983900	3.298200	-9.840600	26.536447	0.000492	20.737518
1920.486047	-2.990500	3.299500	-9.866200	26.553452	0.000491	20.746078
1921.489707	-3.044300	3.297700	-10.037000	26.564129	0.000489	20.744482
1922.486372	-2.977500	3.298100	-9.818500	26.591511	0.000488	20.751146
1923.486059	-2.978000	3.296800	-9.816300	26.620231	0.000488	20.726909
1924.489689	-2.994700	3.296900	-9.872200	26.653472	0.000487	20.735197
1925.485474	-2.982100	3.297600	-9.832500	26.655433	0.000487	20.759928
1926.485601	-2.984600	3.296900	-9.838900	26.667742	0.000487	20.748594
1927.488551	-2.998300	3.294600	-9.877500	26.685347	0.000486	20.740689
1928.489058	-3.001100	3.296800	-9.892900	26.670550	0.000485	20.747625
1929.488082	-2.972400	3.295900	-9.795300	26.725879	0.000483	20.757257
1930.486170	-2.999900	3.294800	-9.883400	26.721237	0.000484	20.744054
1931.488194	-2.986600	3.294000	-9.835500	26.703590	0.000483	20.736743
1932.486279	-2.990600	3.294500	-9.851000	26.685766	0.000483	20.731627
1933.489703	-3.010100	3.294100	-9.914000	26.705001	0.000482	20.746698
1934.489717	-2.992100	3.293700	-9.854300	26.662455	0.000484	20.734270
1935.490529	-3.024100	3.293400	-9.958100	26.673722	0.000480	20.747494
1936.489181	-3.020800	3.292100	-9.942800	26.691345	0.000481	20.759521
1937.490239	-3.021100	3.291800	-9.944500	26.692513	0.000480	20.754058
1938.490808	-3.025100	3.291500	-9.955800	26.655401	0.000481	20.745197
1939.494409	-2.991600	3.291900	-9.847000	26.594556	0.000479	20.763690
1940.490913	-2.978500	3.293100	-9.807500	26.573580	0.000481	20.753984
1941.494362	-3.021500	3.290100	-9.940800	26.570250	0.000478	20.745894
1942.493318	-3.007700	3.290700	-9.896500	26.533782	0.000476	20.766135
1943.494332	-2.982200	3.291100	-9.813800	26.540234	0.000477	20.747490
1944.494356	-3.018700	3.288700	-9.926200	26.541104	0.000474	20.747890
1945.494239	-2.990900	3.290400	-9.840000	26.532514	0.000475	20.746368
1946.495566	-2.997900	3.289800	-9.861300	26.523999	0.000474	20.762940
1947.496053	-2.982200	3.290200	-9.811100	26.525911	0.000473	20.747791
1948.494674	-3.001000	3.289000	-9.869500	26.537654	0.000473	20.758647
1949.497670	-3.011400	3.286400	-9.895400	26.585570	0.000472	20.759872
1950.496409	-3.015600	3.288700	-9.917000	26.604014	0.000474	20.741429
1951.496357	-2.999300	3.288000	-9.860800	26.595700	0.000472	20.758201
1952.497634	-3.000400	3.288800	-9.865500	26.596292	0.000472	20.756899
1953.502554	-2.997000	3.286500	-9.848600	26.622315	0.000470	20.742281
1954.500700	-2.991700	3.286700	-9.831000	26.636415	0.000471	20.752664
1955.496782	-3.004600	3.286200	-9.872500	26.593838	0.000470	20.769132
1956.501159	-2.997200	3.286500	-9.848800	26.549996	0.000468	20.766312
1957.497609	-2.986700	3.286900	-9.815100	26.548806	0.000469	20.748994
1958.496998	-3.033100	3.284300	-9.960300	26.567698	0.000467	20.762296
1959.501994	-2.986800	3.286500	-9.815700	26.577980	0.000467	20.757933
1960.499712	-2.988400	3.285100	-9.815900	26.555885	0.000467	20.750420
1961.499811	-3.004900	3.283300	-9.865200	26.522718	0.000465	20.753117
1962.498598	-2.994500	3.285900	-9.839100	26.504669	0.000464	20.752993
1963.500844	-3.006700	3.283200	-9.870800	26.478725	0.000463	20.767692
1964.499327	-2.988100	3.285600	-9.814900	26.482030	0.000464	20.763902
1965.499327	-3.010100	3.283100	-9.881400	26.489103	0.000461	20.768166
1966.500618	-2.979200	3.284200	-9.783700	26.460003	0.000462	20.749822
1967.500634	-3.013100	3.281700	-9.887200	26.478577	0.000461	20.776552
1968.500505	-3.013800	3.283000	-9.893000	26.493179	0.000461	20.750452
1969.507644	-2.998100	3.280200	-9.832600	26.485160	0.000461	20.781747
1970.502870	-3.017700	3.280200	-9.897800	26.447072	0.000459	20.772862
1971.500446	-2.994200	3.281100	-9.823300	26.419989	0.000458	20.790685
1972.504848	-2.982300	3.281300	-9.784300	26.455592	0.000459	20.776209
1973.499977	-2.978800	3.279400	-9.767000	26.491320	0.000458	20.775611
1974.500196	-3.003200	3.279000	-9.847100	26.529977	0.000455	20.769422
1975.502686	-2.980700	3.280000	-9.775300	26.594004	0.000456	20.772144
1976.501663	-2.999200	3.277800	-9.828500	26.621016	0.000455	20.766581
1977.505473	-3.030800	3.278000	-9.933600	26.599938	0.000455	20.776213
1978.503124	-3.015500	3.276400	-9.878500	26.645116	0.000454	20.767575
1979.503470	-3.002400	3.277200	-9.837800	26.653061	0.000452	20.775562
1980.504956	-2.987000	3.277000	-9.787400	26.671455	0.000452	20.764182
1981.505492	-3.021200	3.276600	-9.897600	26.713307	0.000453	20.763110
1982.506737	-3.007300	3.278600	-9.858400	26.703875	0.000449	20.782076
1983.509450	-2.994900	3.277000	-9.812000	26.765731	0.000451	20.775038
1984.507474	-2.995300	3.277500	-9.815900	26.765706	0.000451	20.786393
1985.507164	-3.005600	3.275300	-9.843300	26.812668	0.000449	20.771496
1986.509782	-3.005400	3.275500	-9.842800	26.807108	0.000449	20.779656
1987.509171	-3.013800	3.274800	-9.868900	26.796318	0.000447	20.759323
1988.510416	-2.983600	3.276000	-9.772800	26.751487	0.000448	20.791064
1989.508850	-2.978700	3.276100	-9.757400	26.733542	0.000447	20.781082
1990.509427	-2.989300	3.275600	-9.790300	26.742326	0.000446	20.769999
1991.518528	-3.003300	3.274000	-9.831800	26.754243	0.000446	20.776291
1992.508088	-3.022700	3.273000	-9.892500	26.783015	0.000446	20.792416
1993.508236	-3.001400	3.273600	-9.823100	26.799464	0.000443	20.780031
1994.512674	-3.009900	3.271800	-9.847300	26.804803	0.000443	20.785873
1995.508214	-3.005400	3.272300	-9.833000	26.816096	0.000444	20.774468
1996.510910	-2.977800	3.272400	-9.743700	26.843275	0.000444	20.784727
1997.514836	-3.007300	3.270100	-9.833100	26.810310	0.000443	20.784773
1998.511486	-2.980600	3.272400	-9.752000	26.774994	0.000442	20.779136
1999.515087	-3.004700	3.269900	-9.823100	26.771890	0.000441	20.765583
2000.520432	-2.993500	3.268500	-9.782800	26.773276	0.000441	20.783573
2001.517268	-2.983100	3.269800	-9.753500	26.810437	0.000441	20.783952
2002.514829	-2.948100	3.271600	-9.643700	26.825081	0.000441	20.788244
2003.518420	-2.958200	3.270900	-9.674500	26.802220	0.000439	20.796552
2004.514301	-2.969700	3.269900	-9.709500	26.824437	0.000438	20.788070
2005.520827	-2.983100	3.270200	-9.753600	26.837863	0.000437	20.783552
2006.513860	-3.003700	3.268300	-9.815500	26.814981	0.000439	20.782356
2007.515494	-3.009400	3.267900	-9.832800	26.807981	0.000437	20.806612
2008.515351	-3.001900	3.266900	-9.805800	26.792943	0.000436	20.789596
2009.516130	-3.005500	3.266000	-9.815200	26.802645	0.000434	20.786549
2010.514352	-2.981500	3.268100	-9.743400	26.802227	0.000433	20.802723
2011.515567	-2.986900	3.266400	-9.755800	26.798947	0.000433	20.795158
2012.514912	-2.974500	3.265900	-9.714000	26.731560	0.000433	20.791892
2013.517433	-2.999800	3.267700	-9.801600	26.718478	0.000433	20.801025
2014.515391	-2.988600	3.266000	-9.759600	26.731835	0.000431	20.790746
2015.518277	-3.009500	3.264600	-9.823800	26.780086	0.000433	20.801800
2016.519383	-3.009300	3.265700	-9.826700	26.820622	0.000430	20.808891
2017.515679	-3.030100	3.265100	-9.892500	26.830698	0.000432	20.796736
2018.517615	-3.001600	3.264500	-9.797900	26.811761	0.000430	20.811361
2019.518604	-3.033800	3.262300	-9.895900	26.773857	0.000430	20.804071
2020.523769	-3.000200	3.263400	-9.789900	26.781526	0.000428	20.813678
2021.519165	-3.000500	3.262300	-9.787300	26.746156	0.000427	20.793764
2022.520703	-3.014000	3.261500	-9.829600	26.710826	0.000429	20.797599
2023.519796	-3.018900	3.262800	-9.849200	26.733295	0.000427	20.817344
2024.520873	-2.991900	3.263600	-9.762800	26.766505	0.000426	20.817068
2025.520918	-3.008200	3.261000	-9.807500	26.793210	0.000426	20.817365
2026.519989	-3.004300	3.260300	-9.794300	26.811725	0.000427	20.796626
2027.520172	-2.989500	3.262300	-9.751900	26.839647	0.000425	20.814743
2028.524151	-2.992500	3.261000	-9.757800	26.818574	0.000426	20.806831
2029.522418	-2.976100	3.260600	-9.701200	26.834755	0.000425	20.797023
2030.520705	-3.023900	3.258200	-9.851400	26.835051	0.000424	20.798742
2031.520568	-3.022600	3.257700	-9.845700	26.809089	0.000423	20.820054
2032.521347	-3.008700	3.258300	-9.801900	26.798764	0.000422	20.820578
2033.524316	-2.979100	3.259300	-9.709000	26.814449	0.000420	20.801262
2034.520819	-3.000500	3.258400	-9.775200	26.853463	0.000419	20.829109
2035.523065	-3.006700	3.257100	-9.791700	26.877242	0.000419	20.839742
2036.524566	-3.007500	3.257000	-9.794500	26.907093	0.000420	20.802904
2037.527138	-3.028000	3.256200	-9.858700	26.929826	0.000419	20.814856
2038.525124	-3.023800	3.255800	-9.843700	26.959257	0.000418	20.812684
2039.526999	-2.997900	3.256300	-9.761900	27.005490	0.000418	20.816027
2040.525259	-3.021900	3.254500	-9.834000	27.008590	0.000418	20.814403
2041.528099	-2.997800	3.254600	-9.755600	26.989459	0.000414	20.830252
2042.532019	-3.008900	3.254500	-9.791300	26.970398	0.000415	20.824360
2043.525746	-2.998200	3.254300	-9.755800	26.931733	0.000414	20.804446
2044.526014	-3.030900	3.254000	-9.860700	26.905700	0.000414	20.818097
2045.526186	-3.020200	3.253100	-9.824300	26.881873	0.000414	20.831122
2046.525506	-2.986800	3.253800	-9.717600	26.925701	0.000411	20.816399
2047.528813	-3.030000	3.252000	-9.852800	26.944661	0.000413	20.835464
2048.526190	-2.989900	3.252000	-9.721800	26.977094	0.000411	20.842947
2049.530694	-3.008200	3.252900	-9.784200	26.977988	0.000411	20.808285
2050.526460	-3.017100	3.251300	-9.807100	27.022755	0.000409	20.849985
2051.527251	-2.979700	3.251100	-9.685900	27.051368	0.000408	20.812379
2052.525669	-2.988300	3.251500	-9.714400	27.020124	0.000407	20.840700
2053.529774	-3.006200	3.249900	-9.768400	27.002703	0.000408	20.849260
2054.526875	-2.999400	3.249900	-9.746400	26.997045	0.000406	20.827923
2055.528169	-3.021700	3.249900	-9.819400	27.012682	0.000407	20.835588
2056.536056	-3.018700	3.247900	-9.804000	27.028487	0.000405	20.815921
2057.529116	-3.003700	3.248800	-9.756900	27.055017	0.000405	20.817471
2058.528331	-3.003000	3.248500	-9.754400	27.102828	0.000405	20.827623
2059.532446	-2.987100	3.248600	-9.702400	27.135559	0.000405	20.842523
2060.535035	-2.998900	3.249000	-9.742600	27.136794	0.000404	20.836653
2061.531019	-2.985900	3.248200	-9.697700	27.092952	0.000402	20.842346
2062.536512	-2.999400	3.247400	-9.738800	27.053099	0.000404	20.851577
2063.531783	-2.963800	3.248800	-9.626700	26.993220	0.000402	20.842569
2064.532779	-3.026400	3.246200	-9.822800	26.994508	0.000400	20.834855
2065.532483	-2.999200	3.247000	-9.737800	27.009026	0.000399	20.836653
2066.533491	-3.013100	3.245100	-9.777100	27.053666	0.000400	20.819431
2067.535132	-3.012700	3.244300	-9.773200	27.062550	0.000400	20.819831
2068.535733	-3.001200	3.244900	-9.737900	27.127812	0.000398	20.829042
2069.534840	-2.980800	3.246200	-9.674300	27.162279	0.000397	20.862758
2070.533339	-2.999000	3.244300	-9.728400	27.198695	0.000398	20.843910
2071.535941	-3.001300	3.242200	-9.730000	27.218272	0.000396	20.852221
2072.538801	-3.013400	3.242300	-9.767900	27.181126	0.000394	20.846627
2073.536858	-3.026900	3.242500	-9.813700	27.163138	0.000393	20.831855
2074.536187	-3.014000	3.241200	-9.768000	27.158543	0.000392	20.849518
2075.540501	-3.006300	3.240500	-9.741500	27.128667	0.000392	20.851238
2076.538153	-3.009700	3.241600	-9.754700	27.133455	0.000394	20.841355
2077.538051	-2.979800	3.242300	-9.660600	27.139661	0.000393	20.852338
2078.540655	-3.023400	3.239900	-9.794900	27.134866	0.000392	20.852731
2079.537189	-2.989300	3.241700	-9.689100	27.137642	0.000391	20.834661
2080.537988	-3.033200	3.238000	-9.820700	27.113274	0.000390	20.845240
2081.539766	-2.981400	3.239200	-9.656400	27.055777	0.000392	20.853796
2082.537753	-3.005000	3.238000	-9.728000	27.029173	0.000389	20.843637
2083.537397	-3.028400	3.238200	-9.804700	27.006985	0.000388	20.855936
2084.537329	-2.992300	3.238300	-9.689200	26.983730	0.000386	20.854362
2085.541737	-2.969100	3.238600	-9.614800	26.970451	0.000385	20.847172
2086.540672	-3.002200	3.237200	-9.717800	26.964120	0.000385	20.868306
2087.537910	-2.997900	3.237400	-9.704700	26.947814	0.000385	20.865660
2088.541315	-2.995000	3.237500	-9.695000	26.954834	0.000384	20.878882
2089.539119	-3.026700	3.236100	-9.793600	26.990395	0.000381	20.867227
2090.539735	-3.007200	3.236800	-9.731800	27.019054	0.000382	20.863806
2091.542060	-2.990400	3.235900	-9.675600	27.046896	0.000380	20.880899
2092.539195	-2.996300	3.234800	-9.691000	27.077243	0.000380	20.868271
2093.541872	-2.994000	3.233600	-9.680800	27.068282	0.000381	20.867793
2094.540277	-2.977600	3.235400	-9.632500	27.086669	0.000380	20.876328
2095.545195	-3.008100	3.233500	-9.726300	27.132597	0.000378	20.866569
2096.540525	-3.005800	3.232100	-9.712700	27.171304	0.000377	20.891273
2097.540145	-2.993500	3.233700	-9.679000	27.201028	0.000377	20.864273
2098.539102	-3.014600	3.231300	-9.740100	27.179487	0.000374	20.868211
2099.541018	-2.984300	3.232300	-9.644000	27.103065	0.000378	20.877644
2100.552829	-2.998400	3.232000	-9.689500	27.082123	0.000375	20.861800
2101.543809	-2.968000	3.231900	-9.591100	27.082472	0.000373	20.875900
2102.543478	-2.991500	3.231500	-9.665600	27.092049	0.000374	20.898332
2103.542550	-2.996600	3.230100	-9.678500	27.152095	0.000372	20.892816
2104.547772	-3.040600	3.229300	-9.817700	27.191768	0.000372	20.868236
2105.550841	-3.006000	3.229600	-9.706200	27.233847	0.000371	20.883532
2106.545033	-3.027700	3.227000	-9.769400	27.278059	0.000370	20.887700
2107.546406	-3.009700	3.227800	-9.713800	27.285326	0.000366	20.876519
2108.545193	-3.020900	3.227800	-9.749200	27.281752	0.000368	20.906586
2109.542688	-3.012400	3.227200	-9.721200	27.300959	0.000369	20.884657
2110.545528	-3.012500	3.226300	-9.717700	27.271012	0.000366	20.874923
2111.544220	-3.001100	3.227500	-9.684900	27.256174	0.000367	20.881809
2112.544576	-3.003000	3.226300	-9.687100	27.242159	0.000366	20.878617
2113.544364	-3.012100	3.226000	-9.716100	27.282227	0.000365	20.874824
2114.546175	-2.995700	3.224600	-9.659000	27.279793	0.000364	20.890392
2115.543095	-2.969300	3.225900	-9.577500	27.292995	0.000364	20.874750
2116.543482	-2.988400	3.225000	-9.637100	27.309169	0.000364	20.886751
2117.544735	-2.977200	3.224000	-9.597100	27.328344	0.000363	20.898452
2118.545501	-2.982900	3.225800	-9.620800	27.334000	0.000362	20.889444
2119.545693	-3.013400	3.223000	-9.710600	27.308195	0.000361	20.907581
2120.547703	-2.977200	3.224200	-9.597800	27.322782	0.000360	20.874368
2121.546399	-3.001200	3.223300	-9.672600	27.306014	0.000359	20.914395
2122.546388	-3.013800	3.222200	-9.710000	27.276641	0.000358	20.907609
2123.550450	-3.045400	3.220300	-9.805700	27.227194	0.000358	20.914296
2124.547519	-3.013200	3.221000	-9.704600	27.221956	0.000357	20.918984
2125.547528	-2.989400	3.222300	-9.632100	27.201960	0.000355	20.894132
2126.552343	-2.967200	3.221800	-9.558800	27.189084	0.000355	20.897776
2127.547070	-2.996900	3.221000	-9.651900	27.139313	0.000354	20.902719
2128.550582	-3.000300	3.220100	-9.660000	27.095441	0.000353	20.897950
2129.551583	-2.995900	3.218300	-9.640600	27.065738	0.000353	20.912173
2130.551514	-2.997100	3.217400	-9.642000	27.045194	0.000352	20.899574
2131.549359	-3.027400	3.217400	-9.739100	27.080083	0.000352	20.912849
2132.550840	-3.005600	3.217500	-9.669500	27.098769	0.000351	20.905564
2133.550187	-2.991300	3.217000	-9.622300	27.116906	0.000349	20.911950
2134.552523	-3.015700	3.215800	-9.696700	27.123882	0.000349	20.918018
2135.552335	-2.999500	3.217600	-9.650100	27.104180	0.000349	20.892989
2136.552126	-3.005500	3.216200	-9.665600	27.119119	0.000348	20.912753
2137.550942	-3.023000	3.214300	-9.716100	27.138972	0.000347	20.906643
2138.554216	-2.988000	3.214100	-9.602700	27.204176	0.000347	20.915799
2139.555295	-2.987400	3.215400	-9.605200	27.278906	0.000348	20.908465
2140.552495	-3.004000	3.212600	-9.648400	27.325121	0.000346	20.912753
2141.554158	-2.988200	3.213800	-9.601700	27.372013	0.000349	20.901604
2142.555329	-3.033500	3.214300	-9.749400	27.351246	0.000347	20.914377
2143.556094	-2.999100	3.213400	-9.636000	27.386375	0.000347	20.913680
2144.555835	-3.006400	3.212400	-9.656700	27.395305	0.000344	20.924086
2145.558793	-2.991900	3.211400	-9.607300	27.410588	0.000342	20.914805
2146.558823	-2.972000	3.213200	-9.549300	27.452682	0.000344	20.912583
2147.558615	-2.994700	3.211000	-9.614500	27.452211	0.000343	20.912109
2148.560379	-3.001300	3.210300	-9.634000	27.421397	0.000343	20.908136
2149.557454	-3.007400	3.210900	-9.655900	27.383047	0.000345	20.907488
2150.557306	-3.018900	3.209400	-9.687700	27.364665	0.000344	20.905592
2151.557922	-3.007100	3.209000	-9.648900	27.377166	0.000340	20.892565
2152.557786	-3.013000	3.208400	-9.666000	27.356551	0.000342	20.894111
2153.557296	-3.006400	3.208400	-9.643500	27.291208	0.000338	20.902348
2154.559918	-3.004000	3.208300	-9.636400	27.256347	0.000338	20.896205
2155.559480	-3.020800	3.209800	-9.694700	27.226846	0.000339	20.883128
2156.558844	-3.012200	3.205700	-9.653700	27.237241	0.000338	20.904962
2157.560971	-3.013800	3.207400	-9.665600	27.287553	0.000336	20.920006
2158.557934	-3.007800	3.205800	-9.641300	27.341162	0.000335	20.901863
2159.559073	-3.029500	3.205600	-9.709900	27.356593	0.000337	20.892257
2160.560343	-3.031000	3.203100	-9.707300	27.353315	0.000336	20.918828
2161.558494	-2.987600	3.206000	-9.577200	27.296801	0.000333	20.900862
2162.557765	-3.000500	3.204400	-9.614000	27.317042	0.000334	20.882343
2163.562922	-3.012100	3.204100	-9.649400	27.346881	0.000334	20.901453
2164.560618	-3.010100	3.203300	-9.641200	27.336118	0.000332	20.886833
2165.560830	-3.017400	3.204000	-9.667500	27.331921	0.000331	20.908688
2166.561210	-3.047100	3.202100	-9.756300	27.280194	0.000332	20.883684
2167.563216	-2.997000	3.202000	-9.595400	27.258163	0.000331	20.891394
2168.566122	-3.007900	3.202900	-9.632000	27.225236	0.000332	20.887198
2169.563141	-3.021900	3.201300	-9.673100	27.228461	0.000329	20.907985
2170.565687	-3.008000	3.200100	-9.624200	27.264583	0.000328	20.890266
2171.560785	-3.023600	3.199200	-9.672700	27.266067	0.000329	20.904086
2172.561912	-3.007100	3.201900	-9.626400	27.297199	0.000328	20.887987
2173.564976	-2.992900	3.200800	-9.578600	27.306205	0.000328	20.883770
2174.564244	-2.990700	3.198300	-9.564400	27.300003	0.000326	20.876584
2175.563012	-3.013700	3.196900	-9.633600	27.329424	0.000325	20.894324
2176.562103	-2.997600	3.198200	-9.585200	27.361624	0.000326	20.883568
2177.564450	-3.003700	3.196900	-9.601300	27.400445	0.000323	20.882793
2178.564346	-2.996600	3.199200	-9.585500	27.434180	0.000324	20.885436
2179.565331	-3.006500	3.197300	-9.611600	27.467368	0.000324	20.888953
2180.566846	-3.002500	3.196700	-9.597200	27.498199	0.000321	20.902427
2181.565558	-3.013200	3.195600	-9.628300	27.546641	0.000321	20.877674
2182.565061	-3.002800	3.195600	-9.595300	27.574441	0.000320	20.874826
2183.569057	-2.986500	3.194300	-9.538900	27.579178	0.000320	20.893341
2184.570302	-2.981800	3.194800	-9.525400	27.559087	0.000319	20.886403
2185.568057	-3.019100	3.193300	-9.639900	27.575510	0.000318	20.874005
2186.571007	-2.985600	3.192400	-9.530300	27.577589	0.000317	20.877044
2187.574187	-3.019700	3.190700	-9.633700	27.533639	0.000317	20.876446
2188.571122	-2.979000	3.193600	-9.512800	27.480111	0.000317	20.877593
2189.569201	-2.980500	3.191800	-9.511200	27.477184	0.000313	20.873226
2190.572851	-2.986800	3.191900	-9.533400	27.460886	0.000314	20.870580
2191.568054	-3.021700	3.189400	-9.635800	27.478349	0.000314	20.876768
2192.571033	-2.986900	3.190400	-9.528600	27.508187	0.000313	20.882606
2193.574049	-2.980800	3.189600	-9.506300	27.489164	0.000311	20.877692
2194.570920	-3.010800	3.188300	-9.598900	27.520493	0.000311	20.878392
2195.571161	-3.002800	3.189700	-9.575900	27.519769	0.000311	20.894732
2196.573741	-2.993500	3.188200	-9.543100	27.543778	0.000310	20.890440
2197.570408	-3.010100	3.187200	-9.592400	27.580114	0.000310	20.883378
2198.570606	-2.995300	3.189500	-9.552000	27.600328	0.000307	20.859622
2199.575491	-3.013700	3.186200	-9.601600	27.653696	0.000307	20.864958
2200.573921	-3.018200	3.185200	-9.612700	27.656646	0.000305	20.860815
2201.571844	-2.983800	3.185800	-9.504200	27.646501	0.000307	20.863882
2202.577734	-2.994400	3.185800	-9.538300	27.608902	0.000307	20.886739
2203.574641	-2.987900	3.184700	-9.514900	27.597149	0.000305	20.883449
2204.573864	-2.994400	3.184100	-9.532700	27.615872	0.000302	20.861986
2205.576095	-3.007700	3.183300	-9.573600	27.624875	0.000302	20.866303
2206.577196	-2.987700	3.183400	-9.509500	27.556840	0.000302	20.872763
2207.579543	-3.002400	3.183800	-9.558800	27.547317	0.000303	20.864604
2208.575671	-3.018500	3.181700	-9.603000	27.581170	0.000300	20.877328
2209.575605	-2.990100	3.182900	-9.515100	27.573355	0.000303	20.869940
2210.577116	-3.000500	3.180700	-9.542900	27.587169	0.000299	20.850650
2211.576795	-3.007400	3.180900	-9.564600	27.545749	0.000299	20.888629
2212.578523	-2.997800	3.180200	-9.532700	27.541085	0.000298	20.863076
2213.576848	-3.005300	3.179700	-9.555100	27.550830	0.000299	20.870036
2214.576962	-2.996300	3.179200	-9.525000	27.581385	0.000298	20.871381
2215.583868	-2.993000	3.179000	-9.514000	27.591629	0.000294	20.877894
2216.577543	-3.002700	3.180100	-9.547500	27.620346	0.000296	20.872651
2217.578547	-2.995900	3.178400	-9.521100	27.613478	0.000294	20.883283
2218.578191	-3.005200	3.176400	-9.545200	27.619678	0.000297	20.862970
2219.577444	-3.018400	3.176100	-9.584500	27.654618	0.000293	20.866834
2220.576706	-3.019100	3.175300	-9.585100	27.658933	0.000295	20.872124
2221.580381	-3.005000	3.176900	-9.545100	27.639761	0.000291	20.878910
2222.577379	-2.996100	3.176200	-9.516000	27.621310	0.000292	20.853707
2223.576979	-2.977000	3.174100	-9.448000	27.637356	0.000290	20.876016
2224.576884	-3.016100	3.174600	-9.573700	27.606649	0.000291	20.849387
2225.580163	-3.004100	3.172700	-9.530700	27.560914	0.000290	20.870224
2226.577059	-2.996400	3.173400	-9.507200	27.502452	0.000289	20.842700
2227.577195	-3.010300	3.172900	-9.551100	27.480573	0.000289	20.860041
2228.578197	-3.011000	3.173300	-9.553600	27.489031	0.000289	20.866654
2229.577192	-2.994600	3.171300	-9.495900	27.493646	0.000287	20.863236
2230.590233	-2.986400	3.170400	-9.467000	27.498359	0.000287	20.855650
2231.580700	-3.023400	3.170900	-9.585500	27.489876	0.000285	20.852805
2232.579115	-3.017700	3.168700	-9.561800	27.500863	0.000286	20.851531
2233.581271	-2.995700	3.171800	-9.500200	27.498928	0.000287	20.855749
2234.582770	-2.994300	3.169900	-9.490400	27.523037	0.000287	20.833539
2235.580238	-2.987600	3.168200	-9.464600	27.573585	0.000287	20.845991
2236.580542	-2.989700	3.168200	-9.471100	27.562774	0.000286	20.859768
2237.580848	-3.003200	3.167700	-9.512400	27.539929	0.000286	20.855749
2238.580791	-3.003400	3.166700	-9.509900	27.580506	0.000284	20.849161
2239.582924	-3.006400	3.168200	-9.523600	27.618750	0.000286	20.854925
2240.582915	-2.997600	3.165300	-9.487100	27.681692	0.000283	20.855197
2241.584260	-3.007600	3.164500	-9.516300	27.709566	0.000285	20.844841
2242.585687	-3.005200	3.163400	-9.504700	27.714377	0.000283	20.855845
2243.582415	-2.992300	3.164700	-9.468300	27.666540	0.000282	20.858916
2244.583674	-2.999100	3.163300	-9.487000	27.669167	0.000279	20.844490
2245.583125	-3.015700	3.162300	-9.535500	27.621553	0.000281	20.848736
2246.581835	-3.005700	3.162400	-9.504800	27.557063	0.000279	20.852600
2247.591670	-3.014700	3.161900	-9.531300	27.521543	0.000279	20.847682
2248.584838	-2.991700	3.162000	-9.458700	27.505871	0.000278	20.837605
2249.583850	-3.006200	3.160600	-9.500800	27.444227	0.000277	20.850976
2250.587628	-3.015300	3.161300	-9.531200	27.430187	0.000277	20.858187
2251.583770	-3.018300	3.160000	-9.537600	27.473201	0.000278	20.845987
2252.584485	-3.011600	3.156900	-9.504900	27.546770	0.000275	20.838925
2253.589668	-2.990800	3.158600	-9.444900	27.600193	0.000276	20.827245
2254.587783	-2.970600	3.159600	-9.383800	27.623283	0.000275	20.829141
2255.585223	-3.000500	3.158000	-9.474800	27.676804	0.000275	20.832736
2256.589576	-3.024100	3.155400	-9.540700	27.693666	0.000275	20.842116
2257.589130	-2.998200	3.156700	-9.463800	27.683770	0.000274	20.838323
2258.585790	-2.993900	3.155200	-9.445300	27.681242	0.000272	20.846210
2259.587521	-3.011800	3.154800	-9.500600	27.709264	0.000272	20.851175
2260.588066	-3.019500	3.153600	-9.521900	27.733101	0.000272	20.849083
2261.588768	-2.971800	3.154900	-9.374400	27.721915	0.000269	20.851578
2262.590153	-3.011700	3.152300	-9.492300	27.752289	0.000272	20.847530
2263.588892	-2.998200	3.152000	-9.448800	27.772725	0.000269	20.820681
2264.589384	-3.012600	3.151200	-9.491700	27.765460	0.000267	20.847983
2265.589764	-3.018800	3.152700	-9.515700	27.782151	0.000266	20.825900
2266.591121	-3.025800	3.150400	-9.531200	27.782742	0.000266	20.819382
2267.588824	-3.008100	3.149900	-9.473000	27.800452	0.000266	20.828670
2268.588964	-2.990000	3.149600	-9.416300	27.799981	0.000264	20.850955
2269.590230	-3.020400	3.148400	-9.508600	27.788800	0.000266	20.836384
2270.589795	-2.992500	3.148000	-9.419400	27.801123	0.000266	20.829346
2271.590654	-2.981000	3.147300	-9.379700	27.827061	0.000265	20.844543
2272.598045	-2.994400	3.146100	-9.419400	27.817466	0.000265	20.841051
2273.591215	-3.004600	3.147300	-9.455900	27.837032	0.000263	20.815698
2274.589775	-3.002200	3.146700	-9.446200	27.851907	0.000262	20.821661
2275.591324	-3.002100	3.145900	-9.443600	27.872988	0.000262	20.818221
2276.594008	-3.008200	3.144500	-9.458400	27.925083	0.000263	20.829402
2277.596467	-3.006500	3.142500	-9.447400	27.940752	0.000262	20.837587
2278.594881	-3.019200	3.142200	-9.485200	27.975267	0.000262	20.830602
2279.595467	-2.989100	3.142200	-9.391600	27.964950	0.000259	20.833967
2280.591912	-2.995700	3.143000	-9.414000	27.955855	0.000260	20.821494
2281.592599	-3.008600	3.140100	-9.446600	27.942387	0.000257	20.818370
2282.595549	-2.999600	3.140000	-9.417800	27.955756	0.000259	20.820447
2283.593943	-3.003900	3.139300	-9.428600	27.893819	0.000259	20.827332
2284.595009	-3.014600	3.137700	-9.457800	27.866445	0.000258	20.832498
2285.597189	-2.985500	3.139600	-9.372500	27.896522	0.000256	20.820571
2286.596875	-3.005800	3.137400	-9.428800	27.930986	0.000257	20.832973
2287.593178	-3.035300	3.135000	-9.514200	27.914772	0.000257	20.838464
2288.595182	-3.012600	3.136700	-9.449100	27.921589	0.000257	20.828730
2289.597291	-2.994700	3.136100	-9.391000	27.942194	0.000257	20.820072
2290.594951	-2.998400	3.134500	-9.397500	27.921490	0.000256	20.838114
2291.594623	-2.973300	3.134700	-9.319100	27.926352	0.000256	20.818826
2292.597227	-2.991900	3.133400	-9.374100	27.933837	0.000255	20.824937
2293.595577	-3.029000	3.131500	-9.484000	27.912494	0.000256	20.816257
2294.595574	-2.995900	3.131900	-9.381800	27.902200	0.000254	20.807793
2295.597266	-3.014700	3.130200	-9.435600	27.898210	0.000254	20.825114
2296.599428	-2.997300	3.130900	-9.382000	27.870291	0.000253	20.830680
2297.598955	-2.985800	3.131100	-9.348100	27.881127	0.000252	20.801757
2298.599326	-2.996300	3.130000	-9.377600	27.871901	0.000253	20.827559
2299.603146	-3.003300	3.128100	-9.393700	27.820032	0.000251	20.799538
2300.598546	-2.984900	3.129300	-9.339600	27.787670	0.000251	20.802057
2301.602167	-2.988000	3.127000	-9.342200	27.805718	0.000252	20.813582
2302.601013	-3.019400	3.126200	-9.437600	27.820823	0.000250	20.812188
2303.597816	-2.992100	3.125900	-9.351200	27.842667	0.000250	20.810465
2304.600899	-2.997600	3.124300	-9.364900	27.874306	0.000248	20.804849
2305.600996	-2.980300	3.124300	-9.310300	27.905821	0.000248	20.806222
2306.598107	-2.993000	3.124300	-9.349100	27.929253	0.000250	20.825064
2307.599151	-3.016000	3.121400	-9.413500	27.969864	0.000250	20.801456
2308.599315	-2.984000	3.122400	-9.316500	28.001696	0.000246	20.822117
2309.597162	-2.998000	3.120300	-9.353700	28.033727	0.000247	20.807418
2310.601625	-2.988800	3.120900	-9.326800	28.011117	0.000246	20.822117
2311.600819	-3.006300	3.118300	-9.373200	28.002540	0.000246	20.796414
2312.602094	-2.995000	3.120600	-9.345100	28.026015	0.000245	20.793965
2313.602325	-2.997400	3.118500	-9.346800	28.018056	0.000247	20.809662
2314.603811	-3.010600	3.116700	-9.381300	28.039253	0.000245	20.811084
2315.600070	-3.018100	3.115200	-9.401400	28.023189	0.000243	20.816250
2316.599863	-3.019800	3.114900	-9.405400	28.055494	0.000243	20.798983
2317.603148	-2.999500	3.114700	-9.341900	28.064369	0.000244	20.784210
2318.600175	-3.016800	3.113500	-9.391700	28.086012	0.000241	20.803151
2319.601436	-2.973600	3.113500	-9.257400	28.060007	0.000243	20.794517
2320.604996	-3.001400	3.112800	-9.341800	28.069452	0.000245	20.787904
2321.602371	-2.984700	3.112800	-9.289700	28.076742	0.000244	20.803303
2322.603985	-2.988000	3.112900	-9.300100	28.078897	0.000242	20.785558
2323.605480	-2.988100	3.110500	-9.292500	28.011715	0.000240	20.807546
2324.602649	-2.993700	3.109400	-9.308000	27.956076	0.000241	20.794216
2325.601810	-2.955500	3.109900	-9.189300	27.930561	0.000240	20.805044
2326.606711	-2.997400	3.108500	-9.315400	27.893991	0.000239	20.783410
2327.602190	-2.998700	3.109200	-9.322200	27.877407	0.000238	20.793271
2328.603505	-2.996300	3.106500	-9.307400	27.905079	0.000239	20.780819
2329.611593	-3.001500	3.105300	-9.319800	27.887968	0.000238	20.795366
2330.605821	-2.999800	3.105000	-9.313300	27.867756	0.000238	20.782136
2331.605189	-3.007300	3.103000	-9.330300	27.804059	0.000238	20.788679
2332.606057	-3.010400	3.102800	-9.339100	27.754739	0.000236	20.798314
2333.604482	-2.986700	3.102400	-9.264000	27.695641	0.000238	20.791000
2334.605578	-2.985300	3.101100	-9.256400	27.644828	0.000237	20.780646
2335.604091	-3.003700	3.100400	-9.311500	27.582429	0.000236	20.781870
2336.604305	-2.988900	3.100600	-9.265800	27.625188	0.000237	20.794074
2337.605586	-3.014300	3.099100	-9.338600	27.626056	0.000236	20.800164
2338.606385	-3.026800	3.098100	-9.375000	27.665712	0.000235	20.770366
2339.606306	-3.006200	3.097200	-9.309900	27.692325	0.000235	20.792878
2340.609031	-2.994900	3.096600	-9.273200	27.740216	0.000234	20.777061
2341.605639	-2.989600	3.097400	-9.259200	27.762635	0.000232	20.769750
2342.606908	-2.999700	3.094900	-9.282300	27.749098	0.000233	20.778887
2343.610785	-3.000200	3.093400	-9.280300	27.773500	0.000234	20.774994
2344.605985	-3.002700	3.091100	-9.280100	27.761672	0.000235	20.783480
2345.608698	-3.017100	3.091400	-9.325600	27.768788	0.000234	20.774994
2346.605783	-3.006500	3.091800	-9.294100	27.791928	0.000235	20.774573
2347.606787	-2.991000	3.090600	-9.242800	27.785208	0.000233	20.769233
2348.608208	-2.996900	3.090300	-9.260600	27.777325	0.000232	20.761300
2349.607788	-3.004200	3.087800	-9.275000	27.731573	0.000231	20.753664
2350.609549	-2.998600	3.088300	-9.260100	27.730929	0.000233	20.769612
2351.608537	-3.014500	3.086600	-9.304000	27.709582	0.000231	20.770889
2352.608647	-2.970600	3.087300	-9.170100	27.703256	0.000231	20.768791
2353.611372	-3.001800	3.085100	-9.259300	27.667030	0.000232	20.764106
2354.608885	-3.025500	3.083000	-9.327000	27.632557	0.000230	20.747909
2355.609377	-2.968500	3.084700	-9.155800	27.634492	0.000230	20.763607
2356.609292	-2.985400	3.082800	-9.202600	27.615396	0.000230	20.781851
2357.615783	-3.008100	3.081100	-9.267200	27.647169	0.000231	20.767354
2358.615566	-3.004400	3.079600	-9.250700	27.692531	0.000231	20.771274
2359.611851	-3.015300	3.077800	-9.279400	27.764174	0.000230	20.758497
2360.610990	-3.003500	3.079500	-9.248900	27.789891	0.000230	20.746444
2361.611474	-3.002300	3.076900	-9.235100	27.832912	0.000230	20.774569
2362.613235	-2.993800	3.076500	-9.209600	27.910696	0.000227	20.757074
2363.612977	-3.006100	3.074900	-9.242000	27.947718	0.000229	20.740758
2364.613766	-2.995400	3.074200	-9.206800	27.978538	0.000227	20.766090
2365.612936	-3.008300	3.074200	-9.247300	28.024554	0.000228	20.757407
2366.613526	-3.013300	3.072800	-9.258300	28.041466	0.000230	20.759257
2367.614491	-3.018500	3.071600	-9.270300	28.011343	0.000226	20.755014
2368.617817	-2.985400	3.073200	-9.174100	28.032470	0.000227	20.787187
2369.613265	-3.000800	3.070900	-9.213500	28.034502	0.000227	20.767895
2370.616898	-3.009200	3.069400	-9.235500	28.053495	0.000227	20.745287
2371.615945	-3.001900	3.068800	-9.211100	28.066114	0.000226	20.758938
2372.622028	-2.993600	3.067700	-9.181700	28.030561	0.000227	20.756815
2373.616671	-2.990200	3.066900	-9.169800	27.966870	0.000225	20.745810
2374.617918	-3.002900	3.064600	-9.200800	27.959881	0.000226	20.780502
2375.616630	-3.007800	3.064400	-9.215700	28.008179	0.000225	20.746613
2376.615439	-2.987500	3.061700	-9.145700	28.033739	0.000225	20.774713
2377.621079	-2.983000	3.062800	-9.135500	27.998386	0.000225	20.761886
2378.616511	-3.001300	3.059800	-9.181600	27.968438	0.000224	20.773468
2379.616475	-3.000800	3.059900	-9.180700	27.943622	0.000225	20.770775
2380.623230	-3.004700	3.058200	-9.187900	27.974716	0.000224	20.763192
2381.621242	-3.001400	3.058600	-9.179400	28.013241	0.000226	20.734639
2382.623190	-3.000700	3.059100	-9.176900	28.026631	0.000224	20.754756
2383.620116	-3.010200	3.056700	-9.200100	28.031960	0.000223	20.755853
2384.625377	-2.996500	3.055100	-9.153300	28.037117	0.000222	20.730697
2385.620503	-2.996900	3.053600	-9.148200	28.067263	0.000222	20.765311
2386.621047	-2.985700	3.052700	-9.113400	28.083577	0.000222	20.761344
2387.619845	-2.996300	3.051600	-9.141900	28.142129	0.000224	20.764812
2388.620965	-3.020300	3.050100	-9.211700	28.179509	0.000224	20.771150
2389.620199	-3.011500	3.048200	-9.178300	28.245817	0.000223	20.736910
2390.621080	-3.005000	3.048200	-9.158600	28.236816	0.000220	20.763411
2391.622200	-3.016700	3.046900	-9.190800	28.178174	0.000223	20.753683
2392.625931	-3.011600	3.045700	-9.170700	28.143342	0.000224	20.753705
2393.623003	-2.968500	3.045500	-9.039100	28.136994	0.000223	20.755849
2394.623202	-2.994200	3.044500	-9.114700	28.176336	0.000222	20.753255
2395.624217	-2.984100	3.042400	-9.078000	28.211585	0.000220	20.741327
2396.622615	-3.002100	3.041600	-9.129900	28.249658	0.000222	20.746942
2397.621952	-2.993600	3.040400	-9.101100	28.277612	0.000221	20.749009
2398.622852	-2.983400	3.039500	-9.066900	28.325822	0.000222	20.752031
2399.624820	-2.976300	3.039100	-9.044500	28.343193	0.000220	20.750555
2400.628233	-2.971100	3.037600	-9.024000	28.355763	0.000219	20.744246
2401.625531	-3.010200	3.035000	-9.134800	28.369883	0.000221	20.772215
2402.630324	-3.010900	3.034600	-9.136000	28.396924	0.000221	20.758666
2403.624682	-2.988500	3.033500	-9.063900	28.395761	0.000220	20.738054
2404.627139	-2.974700	3.035100	-9.027600	28.419154	0.000221	20.751178
2405.625401	-3.000800	3.030500	-9.093300	28.402870	0.000221	20.752325
2406.625507	-2.985000	3.030400	-9.044900	28.422552	0.000222	20.749858
2407.626146	-2.988300	3.028700	-9.049900	28.377344	0.000221	20.766925
2408.627012	-2.987200	3.027800	-9.043800	28.371173	0.000220	20.764030
2409.625929	-2.998000	3.027100	-9.073700	28.393902	0.000220	20.748984
2410.628061	-2.984900	3.025300	-9.030200	28.374518	0.000221	20.770718
2411.634343	-2.981700	3.025400	-9.019900	28.343369	0.000219	20.752155
2412.627954	-2.977700	3.023700	-9.002700	28.342919	0.000220	20.768298
2413.629064	-2.997500	3.022100	-9.058200	28.394795	0.000218	20.752728
2414.631664	-2.997000	3.020100	-9.050400	28.402972	0.000219	20.745315
2415.634521	-2.998300	3.019700	-9.052700	28.389861	0.000220	20.765778
2416.629090	-2.978800	3.018600	-8.991100	28.345375	0.000218	20.773142
2417.631257	-2.997000	3.017300	-9.042100	28.305622	0.000217	20.756822
2418.631499	-2.984700	3.016400	-9.001200	28.291614	0.000218	20.757417
2419.630882	-3.001800	3.014700	-9.048700	28.295181	0.000216	20.758638
2420.629571	-2.993000	3.013500	-9.018000	28.256244	0.000217	20.757367
2421.634670	-2.998600	3.013200	-9.034200	28.240355	0.000216	20.765552
2422.636616	-3.020800	3.010700	-9.092800	28.250663	0.000217	20.762654
2423.633407	-2.982100	3.010700	-8.976900	28.291066	0.000216	20.756865
2424.631423	-2.989800	3.008300	-8.993000	28.309333	0.000216	20.773362
2425.635423	-2.999400	3.006600	-9.017300	28.263453	0.000217	20.759883
2426.630926	-2.976400	3.007400	-8.949600	28.230884	0.000215	20.757438
2427.633882	-3.008800	3.004900	-9.040000	28.203245	0.000215	20.757113
2428.630908	-2.987000	3.004300	-8.973200	28.176673	0.000213	20.749802
2429.633332	-2.997800	3.002300	-8.998600	28.157409	0.000215	20.770711
2430.633561	-3.028000	3.000000	-9.083200	28.137652	0.000215	20.765046
2431.629785	-3.004900	3.001300	-9.017500	28.159539	0.000216	20.744406
2432.630576	-2.982000	2.999400	-8.942900	28.159641	0.000216	20.743560
2433.630867	-2.997000	2.997600	-8.982800	28.174065	0.000215	20.774678
2434.630854	-2.990300	2.995500	-8.956300	28.128137	0.000216	20.769218
2435.630422	-3.032800	2.993100	-9.076400	28.127662	0.000216	20.755464
2436.630471	-2.986600	2.993500	-8.939200	28.122133	0.000217	20.768390
2437.632906	-3.011800	2.991600	-9.009300	28.109370	0.000214	20.763602
2438.631178	-2.997000	2.991000	-8.962800	28.103121	0.000215	20.778174
2439.630678	-2.976600	2.989300	-8.896600	28.046650	0.000215	20.758786
2440.633109	-2.999700	2.987200	-8.960100	28.034748	0.000214	20.769091
2441.629721	-3.002900	2.986000	-8.966400	28.019548	0.000215	20.768015
2442.630799	-3.010500	2.985500	-8.986800	28.043374	0.000216	20.776826
2443.633269	-3.007000	2.982900	-8.968900	28.078456	0.000216	20.777527
2444.632565	-3.001200	2.982300	-8.949700	28.072181	0.000216	20.766469
2445.631766	-3.014300	2.980800	-8.983900	28.023865	0.000215	20.779947
2446.637397	-2.990000	2.979700	-8.908500	27.991608	0.000216	20.767392
2447.632673	-3.006200	2.977500	-8.949800	28.000484	0.000216	20.773482
2448.632174	-3.019500	2.976000	-8.984500	28.005888	0.000217	20.766118
2449.635321	-2.984100	2.974900	-8.876100	28.013076	0.000215	20.782838
2450.634285	-3.024800	2.973300	-8.992600	27.985709	0.000218	20.783266
2451.635530	-3.028700	2.971400	-8.998000	27.955237	0.000216	20.756861
2452.635566	-2.994000	2.971600	-8.893800	27.965401	0.000217	20.763298
2453.635535	-3.000800	2.969200	-8.908100	27.987836	0.000218	20.780191
2454.635338	-3.004600	2.968500	-8.917700	28.080038	0.000216	20.774852
2455.637939	-3.001300	2.967200	-8.904800	28.090150	0.000214	20.765591
2456.636417	-2.968000	2.966400	-8.803300	28.139132	0.000216	20.776019
2457.637937	-2.997400	2.965000	-8.886100	28.171285	0.000215	20.775673
2458.640116	-3.012200	2.961000	-8.917300	28.188388	0.000214	20.779140
2459.640377	-2.993800	2.961200	-8.863400	28.209807	0.000217	20.785531
2460.637138	-3.014000	2.959800	-8.919100	28.287263	0.000217	20.778641
2461.638501	-3.011200	2.957900	-8.906100	28.327538	0.000215	20.782208
2462.640701	-2.993100	2.956500	-8.847800	28.331878	0.000214	20.786104
2463.639132	-3.007000	2.955200	-8.884700	28.354801	0.000214	20.802547
2464.637341	-2.972600	2.953500	-8.778600	28.383132	0.000214	20.758054
2465.642273	-3.012000	2.950800	-8.885900	28.425089	0.000214	20.796985
2466.644170	-2.984200	2.951100	-8.805400	28.433885	0.000213	20.769332
2467.637863	-3.012700	2.948800	-8.882600	28.430740	0.000217	20.777544
2468.644495	-3.014500	2.947300	-8.883600	28.456117	0.000216	20.758528
2469.642274	-2.997700	2.946000	-8.828700	28.481715	0.000215	20.782884
2470.640625	-3.009900	2.944400	-8.861900	28.515197	0.000216	20.790049
2471.643030	-3.001600	2.942600	-8.831300	28.542701	0.000215	20.790722
2472.643436	-2.979700	2.942600	-8.766600	28.566734	0.000216	20.780312
2473.641052	-3.008100	2.938300	-8.837300	28.582172	0.000215	20.794911
2474.644047	-2.990800	2.937700	-8.784900	28.568571	0.000216	20.794490
2475.643235	-3.009600	2.934700	-8.831000	28.564183	0.000215	20.785803
2476.642121	-3.004800	2.935300	-8.818500	28.560641	0.000215	20.777021
2477.642939	-3.003000	2.932000	-8.804300	28.553084	0.000215	20.784108
2478.644466	-2.999900	2.931700	-8.793400	28.612151	0.000214	20.798553
2479.644374	-3.003200	2.929800	-8.798600	28.603551	0.000217	20.802219
2480.643422	-3.017700	2.928100	-8.835500	28.641761	0.000217	20.806564
2481.646209	-2.986500	2.926800	-8.739700	28.658382	0.000216	20.792958
2482.644079	-3.004600	2.924400	-8.786100	28.681200	0.000216	20.768051
2483.643537	-3.019600	2.923200	-8.824900	28.698098	0.000215	20.798822
2484.644114	-3.000800	2.921200	-8.765000	28.651240	0.000217	20.812792
2485.646079	-2.976600	2.920700	-8.692800	28.598815	0.000217	20.801242
2486.643172	-3.022200	2.918400	-8.818100	28.553390	0.000217	20.809073
2487.643915	-2.984500	2.917400	-8.705400	28.551728	0.000216	20.789381
2488.644811	-3.002400	2.915200	-8.751400	28.539139	0.000215	20.791402
2489.644361	-3.004300	2.914100	-8.754100	28.522165	0.000216	20.819826
2490.648746	-2.993400	2.912800	-8.718600	28.500605	0.000218	20.807597
2491.647031	-3.028200	2.909000	-8.807200	28.537302	0.000216	20.797612
2492.648991	-3.008000	2.907700	-8.745300	28.490542	0.000217	20.799360
2493.646020	-3.018200	2.907600	-8.774800	28.419018	0.000217	20.797510
2494.650243	-2.974900	2.906800	-8.645600	28.342857	0.000217	20.802375
2495.647567	-2.977800	2.904400	-8.647300	28.308853	0.000218	20.812233
2496.645937	-2.987900	2.901700	-8.668900	28.278858	0.000217	20.798154
2497.648158	-3.004400	2.899600	-8.709900	28.272687	0.000215	20.800949
2498.645471	-3.003400	2.897400	-8.700300	28.276282	0.000218	20.814526
2499.646684	-2.998100	2.897700	-8.686500	28.301733	0.000216	20.820237
2500.647706	-3.009000	2.893400	-8.704300	28.338960	0.000217	20.815520
2501.646213	-3.010400	2.892200	-8.706300	28.380543	0.000217	20.801441
2502.647734	-3.007500	2.891600	-8.695900	28.425351	0.000217	20.820007
2503.651309	-3.035000	2.888000	-8.764300	28.518824	0.000216	20.798444
2504.645627	-3.006100	2.886800	-8.677700	28.540310	0.000217	20.798271
2505.645833	-3.022900	2.885000	-8.718900	28.554652	0.000216	20.826939
2506.646339	-3.030800	2.881400	-8.731300	28.593307	0.000217	20.801385
2507.650499	-2.991400	2.881600	-8.618700	28.567934	0.000218	20.795745
2508.650399	-2.994400	2.880600	-8.624700	28.524169	0.000215	20.827534
2509.646423	-2.984300	2.879700	-8.592400	28.483207	0.000215	20.809991
2510.650000	-2.999000	2.874900	-8.620600	28.483034	0.000215	20.830680
2511.649892	-3.002500	2.873400	-8.626000	28.489327	0.000215	20.800508
2512.649896	-3.009100	2.871600	-8.639500	28.430120	0.000215	20.811534
2513.649701	-3.014700	2.870300	-8.652500	28.432548	0.000216	20.794064
2514.647396	-2.990300	2.869400	-8.579200	28.436343	0.000217	20.823490
2515.649107	-3.018300	2.865000	-8.647100	28.408386	0.000214	20.824261
2516.650132	-2.990200	2.864100	-8.562600	28.390071	0.000216	20.831897
2517.650259	-3.036700	2.861600	-8.688200	28.367837	0.000217	20.811406
2518.650374	-3.017500	2.860100	-8.628800	28.360327	0.000215	20.814750
2519.650477	-3.000200	2.860000	-8.579900	28.373688	0.000217	20.812082
2520.649218	-3.016900	2.856900	-8.617000	28.407789	0.000217	20.820815
2521.651037	-2.969400	2.856000	-8.479100	28.424863	0.000215	20.845594
2522.650530	-3.008400	2.852100	-8.579300	28.410438	0.000218	20.832966
2523.651879	-2.979400	2.851100	-8.493600	28.464886	0.000216	20.826154
2524.650267	-2.957900	2.848400	-8.424900	28.484753	0.000218	20.831462
2525.649399	-2.989000	2.846300	-8.506000	28.495561	0.000216	20.827174
2526.651913	-2.980300	2.843300	-8.473300	28.535852	0.000218	20.807058
2527.653505	-2.977200	2.843400	-8.464200	28.582582	0.000217	20.829463
2528.650356	-2.983800	2.840200	-8.473300	28.582136	0.000217	20.825695
2529.653119	-2.983900	2.838800	-8.469700	28.586616	0.000217	20.833526
2530.652493	-3.012600	2.836500	-8.544300	28.625199	0.000217	20.830659
2531.650759	-2.987000	2.834700	-8.466300	28.608743	0.000217	20.831155
2532.654063	-2.999400	2.830900	-8.490300	28.611392	0.000213	20.839039
2533.653459	-2.990100	2.829300	-8.459000	28.590059	0.000216	20.841261
2534.653875	-2.994100	2.826900	-8.462400	28.604432	0.000215	20.842460
2535.652112	-3.001700	2.824800	-8.478200	28.591567	0.000215	20.820020
2536.653459	-2.993400	2.823100	-8.449300	28.638965	0.000214	20.830773
2537.653047	-2.957800	2.822500	-8.347500	28.633316	0.000213	20.851635
2538.652340	-3.015400	2.818700	-8.498400	28.687257	0.000214	20.843851
2539.651962	-3.001500	2.814100	-8.445700	28.714082	0.000215	20.853801
2540.653896	-3.014300	2.813200	-8.478700	28.733063	0.000214	20.853953
2541.656470	-3.019700	2.810100	-8.484900	28.745495	0.000213	20.841821
2542.656878	-3.006000	2.807100	-8.437400	28.756097	0.000215	20.818836
2543.657724	-3.029700	2.805100	-8.497600	28.732410	0.000213	20.858511
2544.655730	-3.012100	2.803100	-8.442100	28.734739	0.000214	20.838099
2545.664662	-3.017700	2.801700	-8.453900	28.752971	0.000215	20.841290
2546.655780	-3.017800	2.797500	-8.440900	28.771947	0.000216	20.848077
2547.656343	-3.016000	2.795800	-8.431000	28.763868	0.000216	20.838991
2548.662151	-2.997100	2.792900	-8.370200	28.750488	0.000213	20.858229
2549.657290	-3.022700	2.790000	-8.431400	28.731508	0.000216	20.847646
2550.658586	-3.005300	2.789500	-8.382600	28.718327	0.000214	20.836741
2551.659032	-2.968300	2.786400	-8.269200	28.783979	0.000215	20.857825
2552.657101	-2.984400	2.783500	-8.305500	28.828643	0.000214	20.859669
2553.656123	-3.003400	2.780500	-8.350200	28.850593	0.000215	20.849539
2554.656762	-3.023700	2.775900	-8.391100	28.886607	0.000216	20.836034
2555.660019	-3.006500	2.773400	-8.337800	28.873225	0.000216	20.866173
2556.657238	-2.979700	2.773400	-8.263000	28.840109	0.000216	20.875960
2557.657450	-3.019900	2.768000	-8.358300	28.828215	0.000215	20.867772
2558.661007	-3.002500	2.767100	-8.307100	28.792587	0.000216	20.850849
2559.658908	-3.020700	2.763700	-8.346700	28.749502	0.000216	20.854865
2560.658456	-3.017300	2.759000	-8.323300	28.703546	0.000216	20.866421
2561.662965	-2.981200	2.757300	-8.218800	28.680497	0.000216	20.850319
2562.660735	-3.002100	2.755300	-8.270700	28.686220	0.000214	20.852290
2563.660179	-3.007000	2.753600	-8.279100	28.755917	0.000214	20.879817
2564.669744	-2.993200	2.747500	-8.223200	28.764633	0.000212	20.877217
2565.659951	-3.020200	2.745900	-8.291400	28.750437	0.000213	20.863393
2566.658380	-2.986400	2.742500	-8.189000	28.796490	0.000215	20.873272
2567.662527	-2.989000	2.740000	-8.189400	28.786061	0.000216	20.862767
2568.662024	-2.997200	2.736000	-8.199500	28.776000	0.000215	20.874443
2569.661038	-3.011900	2.732700	-8.228600	28.779243	0.000213	20.862537
2570.660455	-2.996800	2.731100	-8.182900	28.798693	0.000213	20.869327
2571.664976	-2.988600	2.725400	-8.145000	28.830623	0.000215	20.870672
2572.662961	-3.009900	2.723800	-8.197100	28.842338	0.000213	20.883894
2573.662767	-2.982800	2.720900	-8.114700	28.905481	0.000213	20.865004
2574.659085	-3.025500	2.714600	-8.210400	28.927675	0.000213	20.878354
2575.662684	-2.981000	2.713000	-8.085700	28.941549	0.000214	20.859141
2576.664130	-2.990700	2.711400	-8.107400	28.991186	0.000213	20.884018
2577.660919	-2.943000	2.708400	-7.969100	29.016451	0.000214	20.871068
2578.663492	-3.001800	2.701800	-8.109400	29.062050	0.000213	20.860588
2579.668522	-3.009700	2.697500	-8.117400	29.083475	0.000212	20.883597
2580.662205	-2.973300	2.695000	-8.012200	29.130479	0.000213	20.874536
2581.664070	-2.995800	2.691300	-8.061200	29.168692	0.000213	20.867049
2582.662290	-3.017000	2.686800	-8.105200	29.186252	0.000213	20.871468
2583.662441	-2.977700	2.684100	-7.991400	29.214136	0.000214	20.883445
2584.663937	-2.989200	2.680200	-8.010900	29.203686	0.000213	20.890932
2585.661932	-2.982300	2.677600	-7.984300	29.134717	0.000212	20.879755
2586.662850	-2.980300	2.673900	-7.967800	29.132934	0.000213	20.872268
2587.666154	-3.003400	2.668500	-8.013100	29.074482	0.000212	20.866950
2588.665148	-3.006700	2.664100	-8.008900	28.973383	0.000214	20.901641
2589.667122	-2.980900	2.661900	-7.933400	28.910120	0.000213	20.889116
2590.666091	-2.991000	2.657000	-7.945100	28.893598	0.000212	20.873421
2591.666868	-2.981300	2.652800	-7.908200	28.923102	0.000215	20.891763
2592.668961	-2.982300	2.648300	-7.896900	28.923597	0.000214	20.887046
2593.667678	-3.029600	2.642100	-8.003400	28.980965	0.000213	20.896479
2594.668854	-2.987200	2.639000	-7.882400	28.999122	0.000213	20.902918
2595.667588	-3.005500	2.634600	-7.917200	28.990427	0.000213	20.884676
2596.665818	-2.997100	2.629300	-7.879700	28.961276	0.000216	20.884704
2597.669954	-2.979300	2.625300	-7.820900	28.918844	0.000213	20.898853
2598.667790	-2.993600	2.620600	-7.844000	28.938808	0.000213	20.895732
2599.666742	-3.017400	2.614500	-7.888100	28.946788	0.000213	20.885754
2600.666892	-3.001400	2.611700	-7.838400	28.991894	0.000212	20.885206
2601.669062	-2.976400	2.606800	-7.758800	29.034027	0.000213	20.880716
2602.664428	-3.011600	2.601200	-7.832100	29.118731	0.000214	20.884983
2603.665918	-3.003700	2.595700	-7.796400	29.144461	0.000214	20.899054
2604.672714	-2.970100	2.590700	-7.693600	29.181834	0.000214	20.894041
2605.668979	-2.995600	2.585400	-7.743800	29.249314	0.000214	20.916996
2606.665427	-2.997900	2.578700	-7.728600	29.275416	0.000213	20.901577
2607.667273	-3.019700	2.572500	-7.766700	29.307019	0.000214	20.892650
2608.665376	-3.014500	2.568500	-7.741000	29.284039	0.000215	20.920222
2609.668701	-3.000300	2.564200	-7.692800	29.259521	0.000214	20.893145
2610.672548	-3.013000	2.557200	-7.703200	29.189639	0.000215	20.903328
2611.674500	-3.025000	2.551300	-7.717100	29.126562	0.000216	20.898088
2612.666951	-2.999300	2.546500	-7.635600	29.145602	0.000217	20.897833
2613.668000	-3.044200	2.539100	-7.727400	29.197761	0.000215	20.893495
2614.667336	-2.976300	2.535100	-7.544700	29.224012	0.000215	20.924687
2615.668780	-3.045500	2.526400	-7.693000	29.289039	0.000216	20.916727
2616.670526	-3.010100	2.521000	-7.587000	29.277624	0.000217	20.908069
2617.669333	-2.993200	2.516000	-7.529700	29.304020	0.000215	20.913334
2618.669399	-3.003700	2.509100	-7.535600	29.315263	0.000217	20.914232
2619.668011	-3.026200	2.502800	-7.572100	29.341876	0.000216	20.907390
2620.669890	-2.998600	2.498600	-7.490900	29.381151	0.000217	20.909990
