LabVIEW Measurement	
Writer_Version	2
Reader_Version	2
Separator	Tab
Decimal_Separator	.
Multi_Headings	No
X_Columns	One
Time_Pref	Absolute
Operator	admin
Description	Clolumns are: time, Current, Voltage, Power, Battery Temp, and Chamber Temp
Date	2024/08/16
Time	13:06:06.104549407958984375
***End_of_Header***	
	
Channels	6						
Samples	1	1	1	1	1	1	
Date	2024/09/02	2024/09/02	2024/09/02	2024/09/02	2024/09/02	2024/09/02	
Time	22:41:25.5677905082702636719	22:41:25.5738248825073242188	22:41:25.5797858238220214844	22:41:25.5520830154418945313	22:41:25.5520830154418945313	22:41:25.5520830154418945313	
X_Dimension	Time	Time	Time	Time	Time	Time	
X0	0.0000000000000000E+0	0.0000000000000000E+0	0.0000000000000000E+0	0.0000000000000000E+0	0.0000000000000000E+0	0.0000000000000000E+0	
Delta_X	1.000000	1.000000	1.000000	1.000000	1.000000	1.000000	
***End_of_Header***							
X_Value	Untitled	Untitled 1	Untitled 2	Untitled 3	Untitled 4	Untitled 5	Comment
0.000000	0.020171	4.104900	0.082799	21.061919	0.000935	20.827717
0.999663	-2.993300	3.937300	-11.784000	21.068106	0.000934	20.843388
1.999739	-3.007400	3.930000	-11.818000	21.059920	0.000934	20.825243
3.003926	-3.003200	3.923600	-11.783000	21.090386	0.000933	20.845759
4.004053	-3.001900	3.921300	-11.770000	21.079483	0.000933	20.835802
5.002670	-3.003400	3.917100	-11.764000	21.059079	0.000932	20.829618
6.002018	-3.000000	3.914000	-11.740000	21.063766	0.000930	20.825297
7.002429	-3.007200	3.912100	-11.764000	21.079690	0.000928	20.831267
8.005080	-2.997300	3.909400	-11.716000	21.073078	0.000928	20.829869
9.003316	-3.019500	3.906500	-11.795000	21.090869	0.000927	20.849086
10.006685	-2.998000	3.906300	-11.711000	21.086108	0.000927	20.835790
11.005620	-3.025100	3.904200	-11.810000	21.087056	0.000927	20.832471
12.005267	-3.013200	3.902500	-11.758000	21.103429	0.000925	20.829408
13.006822	-2.986500	3.902400	-11.653000	21.102159	0.000926	20.823871
14.007054	-3.018900	3.899300	-11.771000	21.114756	0.000925	20.826039
15.006600	-2.998400	3.899300	-11.689000	21.087518	0.000926	20.813493
16.006347	-3.011000	3.897700	-11.735000	21.084653	0.000925	20.836706
17.007222	-3.004800	3.896200	-11.706000	21.113144	0.000926	20.811626
18.007304	-3.010500	3.894700	-11.724000	21.139644	0.000922	20.803520
19.008203	-3.016300	3.894400	-11.746000	21.109633	0.000922	20.807165
20.005886	-3.002300	3.893600	-11.689000	21.135156	0.000923	20.805194
21.014254	-2.997400	3.892300	-11.667000	21.122460	0.000922	20.804349
22.008281	-3.020300	3.890200	-11.749000	21.133861	0.000920	20.811012
23.008313	-3.010400	3.891300	-11.713000	21.140226	0.000921	20.848197
24.011202	-2.990700	3.889600	-11.631000	21.141677	0.000920	20.798441
25.009394	-3.008800	3.888300	-11.698000	21.135115	0.000920	20.811317
26.011783	-3.001600	3.889200	-11.672000	21.155724	0.000920	20.777405
27.009296	-2.991500	3.888000	-11.629000	21.159244	0.000920	20.805108
28.010935	-2.966500	3.887700	-11.532000	21.158197	0.000919	20.801216
29.014571	-2.999500	3.887500	-11.660000	21.156919	0.000920	20.796618
30.015840	-3.006900	3.885900	-11.683000	21.179226	0.000917	20.806605
31.012702	-2.992900	3.886100	-11.630000	21.173765	0.000919	20.816788
32.010937	-3.018100	3.884200	-11.720000	21.174540	0.000917	20.787218
33.014172	-3.000800	3.882800	-11.650000	21.180801	0.000917	20.796326
34.014615	-2.998800	3.883000	-11.643000	21.209191	0.000915	20.801966
35.015841	-3.015500	3.882000	-11.706000	21.200111	0.000915	20.822280
36.014314	-3.001500	3.883500	-11.655000	21.207773	0.000915	20.801496
37.017759	-2.993900	3.883200	-11.625000	21.208317	0.000914	20.810575
38.015807	-2.979900	3.883600	-11.571000	21.193154	0.000915	20.801571
39.015880	-2.994600	3.881600	-11.623000	21.210819	0.000914	20.796483
40.019032	-2.981800	3.882000	-11.574000	21.220674	0.000911	20.817721
41.015603	-2.994700	3.881800	-11.623000	21.239134	0.000910	20.793514
42.015745	-2.983100	3.880600	-11.575000	21.220975	0.000913	20.788624
43.019123	-2.990800	3.880700	-11.606000	21.238492	0.000911	20.781017
44.017010	-2.991900	3.878600	-11.603000	21.249595	0.000912	20.784064
45.017625	-2.968300	3.879900	-11.515000	21.261667	0.000910	20.798037
46.019936	-2.991100	3.877600	-11.597000	21.265611	0.000909	20.803880
47.016753	-2.993200	3.878100	-11.607000	21.259499	0.000909	20.821473
48.017951	-2.980400	3.878300	-11.557000	21.296052	0.000908	20.794979
49.019245	-2.999900	3.876600	-11.629000	21.272754	0.000910	20.796327
50.019266	-3.003400	3.876000	-11.640000	21.288819	0.000909	20.793907
51.022797	-2.968300	3.876200	-11.505000	21.279818	0.000910	20.797230
52.019418	-2.978400	3.877700	-11.548000	21.307188	0.000909	20.790947
53.018194	-3.020300	3.874600	-11.701000	21.312278	0.000912	20.809789
54.021827	-3.001300	3.875400	-11.630000	21.320161	0.000909	20.786857
55.018981	-3.020600	3.874100	-11.702000	21.328045	0.000909	20.794744
56.020194	-3.005200	3.873300	-11.639000	21.325301	0.000909	20.788679
57.020088	-3.019500	3.873300	-11.695000	21.341320	0.000911	20.791904
58.020126	-2.999700	3.873100	-11.617000	21.338925	0.000908	20.790456
59.020170	-2.998200	3.873800	-11.614000	21.331347	0.000910	20.775288
60.020851	-3.007900	3.872300	-11.646000	21.339552	0.000909	20.785868
61.023248	-3.014200	3.873200	-11.673000	21.344345	0.000909	20.797301
62.021713	-3.006400	3.872200	-11.641000	21.351977	0.000909	20.771746
63.022472	-3.004100	3.871300	-11.629000	21.345648	0.000907	20.786276
64.023168	-3.005900	3.872500	-11.638000	21.347115	0.000909	20.780157
65.023958	-3.015200	3.870100	-11.668000	21.362610	0.000907	20.791393
66.023050	-2.997900	3.872800	-11.609000	21.365128	0.000908	20.783481
67.025843	-2.982300	3.871900	-11.546000	21.383759	0.000909	20.769878
68.025469	-3.016900	3.870400	-11.676000	21.398351	0.000906	20.777840
69.027798	-3.016800	3.869600	-11.672000	21.389825	0.000907	20.800130
70.026825	-2.994200	3.870100	-11.586000	21.379523	0.000910	20.768485
71.023717	-3.012700	3.870200	-11.658000	21.393716	0.000908	20.775098
72.028797	-3.013500	3.870500	-11.663000	21.407286	0.000909	20.782038
73.029011	-2.995300	3.868900	-11.587000	21.418359	0.000909	20.768460
74.023661	-3.002400	3.868700	-11.615000	21.416661	0.000908	20.753485
75.024385	-2.973900	3.869200	-11.505000	21.435888	0.000907	20.775568
76.026640	-3.018200	3.869200	-11.676000	21.436214	0.000909	20.788696
77.026005	-3.001600	3.867500	-11.607000	21.456908	0.000910	20.777160
78.028857	-3.016600	3.868400	-11.668000	21.453339	0.000908	20.774063
79.026234	-3.013600	3.867500	-11.652000	21.462319	0.000908	20.769771
80.025640	-2.993700	3.867000	-11.574000	21.470020	0.000909	20.788856
81.027738	-3.010700	3.867200	-11.642000	21.483836	0.000909	20.778025
82.026436	-3.005500	3.867300	-11.621000	21.492366	0.000909	20.782292
83.027992	-2.991800	3.866100	-11.563000	21.504159	0.000909	20.771333
84.027792	-2.993100	3.867600	-11.575000	21.500665	0.000907	20.771630
85.033582	-3.010100	3.866900	-11.637000	21.533184	0.000909	20.754382
86.027728	-3.010500	3.865300	-11.635000	21.520562	0.000907	20.765935
87.026368	-3.007500	3.863800	-11.619000	21.526121	0.000909	20.765333
88.033315	-3.001500	3.865500	-11.601000	21.524147	0.000908	20.766677
89.025715	-2.983700	3.865800	-11.534000	21.542079	0.000910	20.771819
90.027440	-3.037400	3.864100	-11.735000	21.518032	0.000909	20.757239
91.027387	-3.014900	3.863600	-11.646000	21.532573	0.000907	20.765152
92.028640	-3.006900	3.864600	-11.620000	21.553694	0.000909	20.773959
93.027398	-3.000700	3.865000	-11.596000	21.554321	0.000909	20.776008
94.031815	-2.981800	3.866000	-11.526000	21.566340	0.000906	20.776655
95.029104	-2.994500	3.864700	-11.572000	21.570032	0.000907	20.761857
96.034927	-3.011500	3.862300	-11.631000	21.569784	0.000906	20.760187
97.032735	-3.007000	3.862200	-11.613000	21.583418	0.000907	20.780469
98.032080	-3.002600	3.863100	-11.599000	21.593715	0.000909	20.777496
99.033391	-2.987900	3.863600	-11.543000	21.597761	0.000907	20.751673
100.029223	-3.014100	3.863500	-11.644000	21.584222	0.000906	20.762781
101.028233	-3.008200	3.862100	-11.616000	21.600357	0.000908	20.758538
102.028552	-2.993300	3.862700	-11.561000	21.638530	0.000909	20.752167
103.028449	-3.018800	3.860600	-11.652000	21.621897	0.000907	20.764446
104.038872	-3.007400	3.862300	-11.614000	21.634443	0.000905	20.764199
105.032602	-2.992900	3.861400	-11.555000	21.633845	0.000908	20.746057
106.031073	-3.007800	3.860700	-11.611000	21.649081	0.000908	20.765098
107.030329	-2.989000	3.861300	-11.541000	21.671127	0.000907	20.763453
108.030793	-3.015700	3.860600	-11.642000	21.654268	0.000908	20.737571
109.029000	-3.012400	3.859200	-11.623000	21.663942	0.000909	20.742985
110.032114	-3.011500	3.860200	-11.624000	21.681522	0.000909	20.763424
111.029435	-2.999700	3.860600	-11.580000	21.673818	0.000908	20.770887
112.033489	-3.004800	3.860000	-11.597000	21.666843	0.000909	20.756320
113.030134	-3.011300	3.859200	-11.620000	21.698212	0.000911	20.773489
114.031866	-2.996200	3.860400	-11.565000	21.691204	0.000909	20.725222
115.034981	-2.994100	3.860100	-11.556000	21.690054	0.000909	20.752522
116.032937	-2.998400	3.861000	-11.576000	21.721625	0.000908	20.759462
117.033837	-2.997300	3.861300	-11.573000	21.723145	0.000909	20.762880
118.033071	-3.016500	3.858600	-11.637000	21.728814	0.000909	20.768554
119.035046	-3.020100	3.857600	-11.649000	21.700383	0.000910	20.776610
120.035798	-3.009700	3.858600	-11.611000	21.719087	0.000908	20.734636
121.035923	-3.013900	3.857800	-11.625000	21.733848	0.000909	20.752729
122.032762	-3.004400	3.858500	-11.592000	21.738462	0.000908	20.749760
123.031741	-3.014700	3.857700	-11.628000	21.729811	0.000910	20.759594
124.034365	-3.007100	3.857100	-11.598000	21.748589	0.000909	20.732393
125.031958	-2.992800	3.858500	-11.547000	21.745470	0.000909	20.760093
126.037361	-2.996400	3.858500	-11.560000	21.800879	0.000911	20.748218
127.035370	-2.996400	3.857800	-11.558000	21.773826	0.000907	20.744375
128.037337	-2.990100	3.856800	-11.531000	21.767494	0.000911	20.734244
129.037655	-3.001600	3.856300	-11.574000	21.777068	0.000913	20.739085
130.035411	-3.001300	3.856600	-11.573000	21.782357	0.000912	20.733948
131.035388	-2.997500	3.856500	-11.559000	21.794848	0.000911	20.741233
132.034825	-2.987100	3.857300	-11.521000	21.788541	0.000913	20.734921
133.036776	-2.992400	3.856900	-11.541000	21.803202	0.000913	20.748173
134.036638	-2.998400	3.855800	-11.560000	21.821604	0.000913	20.748573
135.036988	-3.017600	3.855200	-11.631000	21.834493	0.000910	20.747249
136.037873	-2.980700	3.854600	-11.488000	21.851720	0.000912	20.725610
137.038821	-3.003400	3.855200	-11.576000	21.841772	0.000915	20.746948
138.038561	-3.001000	3.854400	-11.567000	21.850324	0.000912	20.764991
139.038082	-3.025900	3.855700	-11.666000	21.856186	0.000912	20.738615
140.038969	-3.005200	3.855000	-11.584000	21.822699	0.000914	20.745876
141.040845	-2.998600	3.853100	-11.553000	21.859650	0.000914	20.735444
142.041243	-3.004000	3.852400	-11.571000	21.863584	0.000913	20.745546
143.039163	-3.013300	3.852000	-11.606000	21.849751	0.000915	20.740236
144.041671	-2.981600	3.853200	-11.487000	21.865384	0.000914	20.738339
145.042388	-2.992400	3.853300	-11.528000	21.868078	0.000914	20.726336
146.042879	-3.001100	3.853000	-11.562000	21.881140	0.000915	20.720444
147.046583	-3.001200	3.853200	-11.563000	21.891817	0.000916	20.729709
148.044149	-3.003800	3.853200	-11.572000	21.867056	0.000914	20.728633
149.045896	-2.991300	3.851500	-11.520000	21.885333	0.000916	20.733177
150.043174	-2.975400	3.853800	-11.465000	21.887455	0.000915	20.732929
151.044688	-2.989600	3.851800	-11.515000	21.886957	0.000914	20.723421
152.046766	-2.969500	3.853800	-11.443000	21.888032	0.000917	20.724972
153.044764	-2.999400	3.852100	-11.553000	21.895887	0.000915	20.733309
154.045322	-3.006300	3.851500	-11.578000	21.919325	0.000915	20.728794
155.044399	-2.976700	3.852100	-11.465000	21.931048	0.000915	20.727252
156.045247	-3.016300	3.850400	-11.613000	21.934388	0.000918	20.724906
157.044541	-2.984100	3.852100	-11.494000	21.926913	0.000918	20.724061
158.044923	-3.016400	3.851300	-11.617000	21.968823	0.000919	20.731875
159.045980	-2.981800	3.850800	-11.482000	21.968675	0.000916	20.713233
160.045280	-2.986600	3.851200	-11.501000	21.970475	0.000918	20.722622
161.046100	-2.996000	3.850900	-11.536000	21.987626	0.000918	20.719876
162.044293	-2.999200	3.850800	-11.548000	21.969932	0.000918	20.725398
163.049941	-3.014900	3.849600	-11.606000	21.989673	0.000917	20.728090
164.047000	-2.998300	3.849700	-11.541000	21.996482	0.000920	20.733958
165.051622	-3.010000	3.850500	-11.588000	21.991996	0.000921	20.727096
166.046596	-2.989800	3.848900	-11.506000	21.986692	0.000920	20.725105
167.049399	-3.000600	3.849100	-11.548000	21.992055	0.000919	20.696807
168.051394	-2.996100	3.847700	-11.527000	21.999032	0.000922	20.723707
169.051864	-3.027100	3.846900	-11.645000	22.023291	0.000921	20.716224
170.050086	-2.975000	3.848600	-11.449000	22.024564	0.000921	20.713704
171.051328	-2.976000	3.849900	-11.456000	22.036504	0.000922	20.714752
172.052065	-2.975800	3.848700	-11.452000	22.063431	0.000923	20.708043
173.049476	-3.002000	3.846200	-11.545000	22.041446	0.000924	20.699310
174.054542	-2.990700	3.847200	-11.504000	22.049676	0.000923	20.718455
175.049650	-3.005700	3.846600	-11.560000	22.085696	0.000925	20.689080
176.051645	-3.000000	3.847400	-11.541000	22.076253	0.000923	20.719931
177.050071	-3.004200	3.845400	-11.551000	22.082286	0.000923	20.713169
178.050397	-2.998800	3.846200	-11.532000	22.097442	0.000925	20.710798
179.051043	-2.991800	3.845300	-11.504000	22.116889	0.000926	20.722208
180.051497	-2.999100	3.845300	-11.532000	22.101231	0.000926	20.706056
181.049805	-3.019200	3.845500	-11.608000	22.116490	0.000928	20.718014
182.051283	-3.004400	3.846400	-11.555000	22.095128	0.000928	20.708007
183.051965	-3.019400	3.843800	-11.605000	22.109716	0.000926	20.707912
184.049748	-3.025600	3.843200	-11.627000	22.127338	0.000928	20.714650
185.051899	-3.002400	3.844900	-11.543000	22.136464	0.000928	20.688697
186.050363	-2.986400	3.844900	-11.482000	22.139607	0.000928	20.714131
187.050769	-2.971300	3.844800	-11.423000	22.157579	0.000929	20.701303
188.049675	-2.978300	3.844400	-11.449000	22.141155	0.000928	20.705249
189.051310	-2.993800	3.843500	-11.506000	22.160499	0.000930	20.714659
190.052761	-3.015300	3.842700	-11.586000	22.175954	0.000930	20.680818
191.051667	-3.014800	3.844300	-11.588000	22.168303	0.000929	20.707299
192.052835	-2.996700	3.842600	-11.513000	22.145101	0.000931	20.707303
193.049232	-2.997600	3.842500	-11.518000	22.176980	0.000933	20.693226
194.052429	-2.995300	3.844300	-11.514000	22.155570	0.000933	20.687436
195.052471	-3.011400	3.841800	-11.568000	22.154400	0.000935	20.688162
196.052607	-2.995700	3.843200	-11.512000	22.171478	0.000935	20.700995
197.056265	-2.985300	3.842500	-11.470000	22.176437	0.000934	20.702640
198.051702	-3.010000	3.841800	-11.563000	22.173739	0.000935	20.700413
199.052291	-2.997100	3.842000	-11.514000	22.164271	0.000935	20.682872
200.055058	-2.992800	3.841500	-11.495000	22.195474	0.000936	20.710321
201.055205	-2.994400	3.841900	-11.503000	22.222645	0.000937	20.713818
202.053523	-2.997400	3.841300	-11.513000	22.202228	0.000935	20.696693
203.057129	-3.014400	3.841000	-11.575000	22.222690	0.000936	20.702957
204.054604	-3.010300	3.840100	-11.558000	22.225679	0.000936	20.707373
205.060731	-3.002800	3.840900	-11.532000	22.257857	0.000937	20.694545
206.057540	-2.992300	3.841300	-11.492000	22.231041	0.000936	20.706577
207.054461	-2.976800	3.840500	-11.431000	22.273710	0.000936	20.699040
208.053714	-2.983100	3.840800	-11.457000	22.298754	0.000938	20.703728
209.055771	-3.021900	3.839300	-11.600000	22.279521	0.000937	20.708651
210.056504	-3.000600	3.839200	-11.519000	22.298610	0.000938	20.687461
211.056997	-2.998800	3.839300	-11.512000	22.304589	0.000938	20.712890
212.055603	-3.032300	3.837300	-11.634000	22.317152	0.000941	20.680896
213.055604	-3.017200	3.839500	-11.583000	22.317477	0.000939	20.693551
214.053912	-2.996600	3.838200	-11.500000	22.332931	0.000940	20.688636
215.053908	-3.002200	3.838400	-11.523000	22.326257	0.000940	20.710878
216.055839	-3.007100	3.837300	-11.538000	22.314340	0.000941	20.700842
217.056891	-2.991400	3.837900	-11.480000	22.324885	0.000940	20.712350
218.059096	-2.975200	3.838600	-11.420000	22.328249	0.000942	20.702916
219.059450	-2.979800	3.838600	-11.437000	22.329625	0.000941	20.697181
220.057909	-2.994200	3.837100	-11.488000	22.343382	0.000941	20.710957
221.057873	-3.013900	3.836600	-11.562000	22.363595	0.000943	20.727405
222.060252	-2.989800	3.837700	-11.472000	22.350711	0.000941	20.718297
223.060012	-3.002900	3.837200	-11.522000	22.368808	0.000944	20.698484
224.058033	-2.993000	3.837700	-11.485000	22.375959	0.000945	20.688575
225.059537	-3.010700	3.836800	-11.549000	22.375865	0.000943	20.696068
226.060861	-2.985700	3.837100	-11.454000	22.362286	0.000945	20.707602
227.059447	-2.996400	3.835300	-11.490000	22.375091	0.000945	20.703354
228.060541	-2.989700	3.836800	-11.470000	22.383244	0.000946	20.691128
229.059208	-2.966200	3.834700	-11.373000	22.380353	0.000946	20.714314
230.061210	-2.997100	3.835200	-11.493000	22.397976	0.000949	20.715840
231.062196	-3.016400	3.835600	-11.568000	22.395781	0.000949	20.703210
232.063761	-2.989800	3.835900	-11.467000	22.395658	0.000950	20.706880
233.062812	-2.990900	3.834600	-11.468000	22.405951	0.000951	20.706282
234.063819	-2.989700	3.834100	-11.462000	22.433310	0.000950	20.693850
235.064379	-2.986600	3.833200	-11.446000	22.431519	0.000949	20.714818
236.063798	-2.997000	3.834700	-11.492000	22.416985	0.000952	20.723971
237.063575	-2.993400	3.833400	-11.473000	22.441581	0.000953	20.702134
238.066574	-3.021200	3.832000	-11.575000	22.429246	0.000953	20.713964
239.064707	-2.990100	3.832100	-11.457000	22.428023	0.000953	20.724594
240.065358	-2.998900	3.832800	-11.493000	22.432186	0.000953	20.711692
241.065330	-3.003900	3.833500	-11.514000	22.428768	0.000957	20.712537
242.065941	-3.027600	3.831400	-11.598000	22.426001	0.000954	20.712611
243.068085	-3.002700	3.832700	-11.507000	22.463273	0.000953	20.696830
244.064865	-3.021400	3.832300	-11.577000	22.464319	0.000956	20.704990
245.067522	-3.001400	3.832400	-11.502000	22.474237	0.000955	20.720140
246.067057	-2.984100	3.832100	-11.433000	22.483002	0.000958	20.735082
247.067276	-3.003600	3.830800	-11.504000	22.497847	0.000957	20.703955
248.068377	-2.998700	3.831800	-11.489000	22.491721	0.000957	20.721054
249.067632	-2.984400	3.832700	-11.436000	22.493137	0.000959	20.734327
250.069225	-3.020400	3.828900	-11.564000	22.498963	0.000957	20.701752
251.071013	-2.996600	3.831300	-11.478000	22.515430	0.000960	20.713978
252.068246	-3.011400	3.829500	-11.531000	22.516195	0.000958	20.731815
253.069090	-3.001500	3.830300	-11.494000	22.503087	0.000959	20.728170
254.069040	-2.971500	3.831100	-11.383000	22.510757	0.000962	20.726842
255.069706	-2.986400	3.830200	-11.437000	22.515630	0.000962	20.723662
256.068541	-2.986300	3.831200	-11.441000	22.534794	0.000962	20.741908
257.069216	-2.969900	3.831200	-11.377000	22.544111	0.000962	20.732746
258.069108	-3.001500	3.829900	-11.495000	22.539249	0.000961	20.714125
259.072669	-3.000600	3.827500	-11.483000	22.529150	0.000965	20.728667
260.070270	-2.991200	3.828400	-11.449000	22.551002	0.000965	20.738699
261.070877	-3.003400	3.827900	-11.497000	22.579073	0.000964	20.722243
262.071047	-3.006900	3.828300	-11.510000	22.546999	0.000962	20.719991
263.074648	-2.997200	3.826300	-11.467000	22.572737	0.000965	20.718742
264.074890	-3.005400	3.828300	-11.503000	22.552972	0.000964	20.734983
265.075607	-3.014200	3.826000	-11.530000	22.549679	0.000965	20.751125
266.072704	-3.004800	3.827600	-11.500000	22.567389	0.000965	20.742310
267.074980	-3.002900	3.827000	-11.491000	22.561954	0.000966	20.755360
268.074374	-2.983900	3.828800	-11.423000	22.569426	0.000967	20.734867
269.075886	-2.980000	3.826400	-11.402000	22.552749	0.000969	20.737130
270.078565	-2.994000	3.827400	-11.458000	22.568771	0.000970	20.743220
271.075447	-2.979300	3.827100	-11.401000	22.577264	0.000967	20.731811
272.077978	-3.025600	3.825300	-11.572000	22.593084	0.000968	20.742441
273.076184	-3.011600	3.825000	-11.519000	22.615301	0.000970	20.748572
274.074334	-2.990100	3.826200	-11.439000	22.596612	0.000969	20.754509
275.083707	-2.999900	3.827300	-11.480000	22.613403	0.000971	20.731971
276.074951	-3.017100	3.825400	-11.541000	22.606001	0.000971	20.758224
277.076249	-2.997900	3.826100	-11.469000	22.618454	0.000972	20.726124
278.077648	-3.000400	3.824400	-11.473000	22.614362	0.000974	20.736725
279.076304	-2.991200	3.825100	-11.439000	22.621483	0.000972	20.753816
280.078686	-2.992300	3.823700	-11.439000	22.631276	0.000974	20.742761
281.080163	-2.986600	3.824500	-11.419000	22.627110	0.000975	20.756607
282.077373	-2.993200	3.824000	-11.445000	22.667422	0.000975	20.772803
283.076950	-3.015800	3.823000	-11.529000	22.673419	0.000975	20.753205
284.076389	-3.002600	3.822300	-11.475000	22.671896	0.000975	20.767801
285.077796	-2.986300	3.823300	-11.417000	22.674259	0.000977	20.750253
286.079966	-3.005500	3.821400	-11.483000	22.667150	0.000978	20.749770
287.078791	-3.002300	3.821600	-11.472000	22.689843	0.000974	20.747370
288.079551	-2.997700	3.821800	-11.456000	22.687044	0.000978	20.758317
289.077843	-3.006900	3.821900	-11.491000	22.684549	0.000980	20.763879
290.078444	-3.010100	3.822600	-11.506000	22.709609	0.000979	20.745358
291.080642	-2.994500	3.820600	-11.439000	22.712144	0.000978	20.763071
292.077806	-2.989800	3.820600	-11.422000	22.687747	0.000978	20.764712
293.079006	-2.993000	3.822000	-11.439000	22.699400	0.000981	20.754573
294.079291	-3.002400	3.820600	-11.470000	22.705076	0.000982	20.770216
295.079169	-3.004300	3.821000	-11.478000	22.690418	0.000984	20.774974
296.082627	-3.004800	3.819800	-11.477000	22.730847	0.000982	20.760469
297.079627	-3.012900	3.819500	-11.506000	22.723043	0.000981	20.767350
298.079157	-3.011400	3.819100	-11.500000	22.740800	0.000982	20.763800
299.079640	-3.018700	3.819200	-11.528000	22.764113	0.000984	20.776248
300.080728	-2.990400	3.819400	-11.421000	22.757429	0.000984	20.766707
301.082009	-2.997700	3.819500	-11.448000	22.758318	0.000983	20.772339
302.083333	-3.013200	3.818600	-11.505000	22.771188	0.000986	20.764843
303.079509	-2.990700	3.818400	-11.418000	22.758429	0.000986	20.769131
304.081834	-3.021700	3.818000	-11.536000	22.781544	0.000986	20.767631
305.082478	-2.998500	3.819300	-11.451000	22.794517	0.000986	20.773040
306.082251	-3.013000	3.817100	-11.499000	22.812471	0.000987	20.770637
307.083061	-3.009000	3.817700	-11.486000	22.804470	0.000987	20.786803
308.081813	-2.997200	3.818500	-11.443000	22.805614	0.000986	20.792217
309.082349	-2.994000	3.818000	-11.431000	22.806577	0.000988	20.777535
310.083143	-3.009400	3.817900	-11.488000	22.825028	0.000991	20.766147
311.083665	-2.997600	3.816300	-11.439000	22.835186	0.000990	20.782013
312.082650	-2.994200	3.815800	-11.423000	22.831893	0.000990	20.774447
313.085427	-3.000700	3.817200	-11.453000	22.847006	0.000990	20.797648
314.082608	-2.991400	3.817000	-11.417000	22.859855	0.000989	20.782071
315.082430	-3.000900	3.816600	-11.452000	22.861811	0.000992	20.799202
316.083299	-3.007200	3.814900	-11.472000	22.880940	0.000989	20.790391
317.083596	-2.990900	3.816400	-11.412000	22.900559	0.000992	20.780175
318.087196	-2.980600	3.816100	-11.373000	22.879558	0.000991	20.777627
319.084039	-2.983000	3.814800	-11.379000	22.888669	0.000994	20.801928
320.089569	-2.983800	3.815800	-11.385000	22.882381	0.000991	20.783775
321.083679	-3.006000	3.815000	-11.467000	22.876175	0.000993	20.793678
322.083433	-2.999800	3.815100	-11.444000	22.872578	0.000993	20.779170
323.089099	-2.973600	3.815100	-11.343000	22.895885	0.000994	20.785924
324.085580	-2.996100	3.815900	-11.432000	22.906191	0.000993	20.804783
325.084256	-3.013100	3.812800	-11.487000	22.908104	0.000997	20.802433
326.084365	-3.008000	3.813700	-11.471000	22.908751	0.000996	20.814460
327.083981	-3.016500	3.811500	-11.496000	22.921217	0.000996	20.780956
328.084681	-3.009900	3.812700	-11.474000	22.909932	0.000998	20.793359
329.086282	-2.995100	3.812300	-11.418000	22.899661	0.000996	20.793974
330.084115	-2.980700	3.812700	-11.363000	22.947757	0.000996	20.807547
331.086030	-3.005200	3.812100	-11.455000	22.920025	0.001000	20.809159
332.086662	-3.000700	3.812000	-11.437000	22.907090	0.000996	20.811374
333.085450	-2.984100	3.811900	-11.374000	22.926960	0.000998	20.794297
334.087956	-3.008500	3.810800	-11.464000	22.931039	0.000998	20.798383
335.088119	-3.000300	3.810500	-11.432000	22.930113	0.000998	20.824482
336.088784	-2.994700	3.811700	-11.414000	22.961739	0.000998	20.803063
337.087758	-2.979300	3.811000	-11.354000	22.921233	0.000997	20.821275
338.089992	-3.013600	3.808700	-11.477000	22.928180	0.000999	20.819700
339.089922	-2.978700	3.810500	-11.349000	22.930016	0.001001	20.826281
340.087770	-2.989700	3.810100	-11.389000	22.939403	0.000999	20.809134
341.093293	-2.988200	3.809100	-11.381000	22.932000	0.001001	20.811200
342.089717	-3.019200	3.808300	-11.497000	22.940116	0.001001	20.824546
343.087674	-3.000600	3.809600	-11.430000	22.932709	0.001001	20.829453
344.092330	-2.992300	3.809200	-11.397000	22.965614	0.001001	20.828282
345.088605	-3.012200	3.808100	-11.468000	22.967257	0.001001	20.819022
346.090013	-3.001700	3.807800	-11.429000	22.982368	0.001001	20.821835
347.088380	-3.000800	3.807700	-11.426000	23.014125	0.001003	20.826626
348.088187	-3.004400	3.807700	-11.439000	23.017960	0.001002	20.811503
349.089853	-3.013600	3.807400	-11.472000	23.040145	0.001003	20.828989
350.093141	-3.014100	3.806500	-11.472000	23.069657	0.001003	20.819679
351.089823	-3.023300	3.806300	-11.506000	23.057827	0.001004	20.836748
352.088987	-2.994500	3.806500	-11.397000	23.031442	0.001004	20.817425
353.088634	-3.015200	3.806800	-11.477000	23.070871	0.001004	20.834172
354.089754	-3.005700	3.805700	-11.436000	23.061301	0.001004	20.856350
355.092823	-3.001700	3.806300	-11.423000	23.059507	0.001006	20.830845
356.089821	-3.001300	3.805700	-11.421000	23.062646	0.001005	20.831620
357.090900	-2.982900	3.806700	-11.354000	23.081645	0.001007	20.824105
358.090568	-3.008400	3.804700	-11.445000	23.099870	0.001007	20.854219
359.090496	-3.000700	3.805200	-11.417000	23.124578	0.001009	20.833934
360.092494	-2.971200	3.804900	-11.304000	23.104976	0.001007	20.843689
361.093766	-3.033700	3.804900	-11.542000	23.116127	0.001009	20.833527
362.089378	-2.984700	3.804700	-11.354000	23.118391	0.001008	20.839113
363.091959	-3.002700	3.804900	-11.425000	23.138059	0.001010	20.840804
364.090187	-3.036800	3.801800	-11.544000	23.172325	0.001010	20.824408
365.101357	-3.006400	3.803300	-11.434000	23.158501	0.001010	20.821460
366.091152	-2.990200	3.804300	-11.374000	23.200160	0.001012	20.851826
367.091451	-2.988100	3.803900	-11.366000	23.172441	0.001009	20.846334
368.096452	-3.006800	3.800400	-11.426000	23.185732	0.001010	20.868186
369.092449	-2.997900	3.802600	-11.399000	23.187155	0.001009	20.826466
370.091776	-3.012000	3.801700	-11.450000	23.192381	0.001011	20.864418
371.098411	-3.005900	3.801800	-11.427000	23.183663	0.001010	20.838613
372.093116	-2.988200	3.802500	-11.362000	23.191579	0.001012	20.852235
373.094367	-3.000700	3.800600	-11.401000	23.180071	0.001012	20.858247
374.093741	-3.008500	3.801700	-11.435000	23.190382	0.001012	20.836338
375.099002	-3.001000	3.800200	-11.402000	23.187165	0.001010	20.857295
376.093961	-3.015700	3.801100	-11.462000	23.216945	0.001014	20.868171
377.096430	-2.990000	3.800700	-11.362000	23.208860	0.001012	20.837785
378.096025	-2.972700	3.801300	-11.298000	23.212987	0.001013	20.859464
379.094719	-2.989900	3.799700	-11.360000	23.217867	0.001014	20.852500
380.095876	-2.985100	3.800700	-11.344000	23.205261	0.001013	20.855041
381.095695	-2.980300	3.800000	-11.324000	23.191691	0.001013	20.855667
382.099085	-3.006900	3.798100	-11.418000	23.199332	0.001015	20.859056
383.095891	-2.988700	3.799400	-11.354000	23.218180	0.001014	20.868935
384.097670	-2.998000	3.797600	-11.384000	23.212552	0.001016	20.859502
385.095374	-3.001500	3.798000	-11.399000	23.228667	0.001015	20.841039
386.097258	-3.011700	3.797700	-11.435000	23.235782	0.001018	20.851962
387.095846	-2.978600	3.797700	-11.311000	23.256748	0.001017	20.867757
388.096056	-3.009100	3.798100	-11.428000	23.258912	0.001018	20.850486
389.097770	-2.997000	3.796200	-11.377000	23.237522	0.001020	20.859870
390.098791	-3.001600	3.796400	-11.393000	23.273374	0.001021	20.874461
391.100181	-3.019600	3.794800	-11.458000	23.245089	0.001019	20.851806
392.100240	-2.990900	3.796500	-11.354000	23.261542	0.001021	20.865449
393.100348	-3.015100	3.795300	-11.442000	23.270405	0.001018	20.868167
394.099730	-2.994800	3.796300	-11.368000	23.288605	0.001019	20.857484
395.100301	-3.012400	3.795400	-11.432000	23.316815	0.001020	20.863471
396.099271	-2.983200	3.796000	-11.322000	23.293975	0.001020	20.874245
397.102826	-3.008300	3.793900	-11.413000	23.321391	0.001021	20.881332
398.100500	-2.997300	3.794900	-11.373000	23.316084	0.001022	20.876014
399.105497	-3.013400	3.794200	-11.432000	23.307219	0.001023	20.858595
400.101941	-3.015000	3.794800	-11.440000	23.312921	0.001022	20.869525
401.102202	-2.989800	3.793000	-11.339000	23.333515	0.001022	20.874043
402.107096	-3.021800	3.793600	-11.462000	23.317599	0.001022	20.886540
403.105330	-2.994900	3.794600	-11.363000	23.323996	0.001023	20.891529
404.101229	-3.001500	3.792900	-11.382000	23.361197	0.001021	20.878554
405.102277	-2.977900	3.793100	-11.294000	23.328826	0.001023	20.854646
406.101267	-3.012300	3.793400	-11.426000	23.323421	0.001023	20.879573
407.102809	-3.000400	3.792400	-11.378000	23.315999	0.001023	20.883515
408.114181	-2.991800	3.792400	-11.345000	23.317171	0.001024	20.875681
409.104770	-3.019000	3.789900	-11.440000	23.303702	0.001026	20.889682
410.107959	-3.005100	3.791300	-11.390000	23.319735	0.001024	20.875879
411.104363	-2.997300	3.790200	-11.360000	23.305789	0.001028	20.889876
412.105445	-2.979100	3.790200	-11.290000	23.347697	0.001027	20.884937
413.114172	-2.999000	3.792100	-11.371000	23.313033	0.001025	20.872008
414.105139	-2.995600	3.791100	-11.355000	23.343036	0.001027	20.885008
415.105954	-2.993400	3.790600	-11.346000	23.326605	0.001030	20.877075
416.107346	-2.996400	3.790400	-11.356000	23.333599	0.001029	20.878869
417.107165	-3.025900	3.788200	-11.461000	23.339054	0.001029	20.899507
418.106713	-3.014400	3.788200	-11.418000	23.329144	0.001030	20.863499
419.111541	-2.985700	3.788800	-11.311000	23.337705	0.001029	20.887725
420.107165	-3.008500	3.787800	-11.395000	23.376350	0.001030	20.891843
421.107149	-2.991100	3.788900	-11.332000	23.364692	0.001030	20.879686
422.108554	-2.984200	3.788400	-11.304000	23.391456	0.001032	20.896078
423.106203	-2.997500	3.787100	-11.351000	23.409708	0.001031	20.889717
424.108902	-2.993200	3.789100	-11.340000	23.433058	0.001033	20.899369
425.110029	-3.000100	3.787400	-11.360000	23.430544	0.001034	20.884523
426.108382	-2.966900	3.787800	-11.237000	23.445975	0.001033	20.885764
427.108143	-2.999000	3.786100	-11.353000	23.435366	0.001032	20.899312
428.110751	-2.989600	3.788000	-11.322000	23.463272	0.001031	20.895990
429.113157	-2.977400	3.786900	-11.274000	23.464984	0.001032	20.882534
430.111542	-2.969900	3.786400	-11.244000	23.486642	0.001033	20.908033
431.109035	-3.003000	3.786000	-11.369000	23.487686	0.001034	20.886797
432.110659	-3.003600	3.784700	-11.366000	23.494750	0.001037	20.898618
433.110082	-2.997000	3.784700	-11.341000	23.518373	0.001035	20.904279
434.110062	-3.003800	3.784600	-11.367000	23.527657	0.001036	20.890353
435.112265	-2.999600	3.782500	-11.345000	23.538483	0.001035	20.912583
436.109650	-3.001800	3.784800	-11.360000	23.540573	0.001035	20.891446
437.115396	-2.986500	3.783700	-11.298000	23.533721	0.001037	20.903069
438.111694	-3.028000	3.782500	-11.452000	23.549969	0.001037	20.927415
439.111360	-2.975900	3.784600	-11.262000	23.544311	0.001035	20.896141
440.112946	-3.019700	3.784800	-11.427000	23.533929	0.001037	20.913234
441.110769	-2.986600	3.785100	-11.303000	23.545698	0.001037	20.899428
442.112851	-2.994100	3.782200	-11.324000	23.511062	0.001036	20.903589
443.112116	-3.006300	3.782100	-11.369000	23.520522	0.001034	20.929665
444.118457	-2.977300	3.783900	-11.264000	23.529778	0.001037	20.916659
445.117434	-3.006300	3.781800	-11.368000	23.542525	0.001036	20.907152
446.118404	-3.012600	3.780600	-11.388000	23.537512	0.001036	20.938634
447.114204	-3.007200	3.781800	-11.371000	23.570901	0.001037	20.917105
448.113662	-3.013400	3.780900	-11.392000	23.560760	0.001038	20.902673
449.114317	-2.996600	3.781200	-11.330000	23.559539	0.001037	20.918990
450.114158	-3.002600	3.780600	-11.351000	23.586821	0.001036	20.934958
451.118617	-3.008600	3.780400	-11.373000	23.571632	0.001038	20.912148
452.112772	-3.011300	3.780400	-11.383000	23.581413	0.001039	20.902039
453.115805	-2.984700	3.780800	-11.283000	23.584999	0.001038	20.922228
454.115772	-2.978800	3.780200	-11.260000	23.595024	0.001038	20.926113
455.115275	-2.994000	3.780700	-11.319000	23.596189	0.001040	20.909265
456.118417	-3.003300	3.778300	-11.346000	23.573934	0.001037	20.921566
457.115632	-3.003500	3.778100	-11.347000	23.574354	0.001038	20.903497
458.115146	-2.991500	3.778300	-11.302000	23.569599	0.001040	20.894465
459.115158	-3.016300	3.776200	-11.389000	23.594339	0.001040	20.905514
460.115170	-2.997200	3.778300	-11.324000	23.589585	0.001041	20.900748
461.114676	-3.001800	3.778500	-11.341000	23.582536	0.001042	20.891312
462.116514	-3.014400	3.776800	-11.384000	23.572674	0.001041	20.899917
463.115695	-3.002100	3.777000	-11.338000	23.593732	0.001041	20.898268
464.118424	-3.008900	3.775500	-11.359000	23.620689	0.001040	20.910592
465.116413	-2.981600	3.776000	-11.256000	23.616827	0.001041	20.880645
466.119426	-3.004500	3.776000	-11.344000	23.613788	0.001042	20.906994
467.118140	-2.985300	3.776400	-11.272000	23.632210	0.001041	20.897487
468.118035	-3.031900	3.774500	-11.443000	23.650624	0.001041	20.877542
469.120110	-3.045400	3.773900	-11.492000	23.632948	0.001041	20.902019
470.117670	-2.987300	3.775000	-11.274000	23.647779	0.001042	20.896500
471.117134	-2.985300	3.775000	-11.267000	23.675857	0.001041	20.882450
472.116719	-2.979000	3.775300	-11.244000	23.664552	0.001041	20.892452
473.119914	-2.980900	3.774600	-11.251000	23.630647	0.001043	20.876955
474.117900	-3.001900	3.774400	-11.329000	23.618498	0.001041	20.880423
475.117925	-2.973500	3.775400	-11.225000	23.631466	0.001041	20.881569
476.118169	-3.013400	3.772100	-11.366000	23.625614	0.001043	20.912684
477.117896	-3.009200	3.772700	-11.351000	23.627756	0.001041	20.894445
478.118837	-3.011100	3.771400	-11.355000	23.609854	0.001042	20.880292
479.117305	-2.993200	3.772200	-11.290000	23.640322	0.001042	20.894240
480.119064	-2.997300	3.772000	-11.304000	23.671611	0.001044	20.900951
481.117539	-3.010400	3.771200	-11.352000	23.678056	0.001041	20.890818
482.117754	-2.993400	3.771600	-11.289000	23.687589	0.001042	20.875721
483.118917	-3.015400	3.769400	-11.366000	23.697644	0.001042	20.888646
484.125398	-3.008400	3.770300	-11.342000	23.704710	0.001041	20.886247
485.117274	-2.997400	3.770600	-11.301000	23.708395	0.001043	20.871450
486.117579	-2.994500	3.770200	-11.289000	23.714790	0.001040	20.894930
487.118277	-3.001200	3.770400	-11.315000	23.709090	0.001043	20.877837
488.118035	-2.997000	3.769500	-11.296000	23.714466	0.001041	20.879907
489.120404	-3.002700	3.769400	-11.317000	23.715164	0.001040	20.885348
490.124966	-2.994600	3.768700	-11.284000	23.721489	0.001041	20.873198
491.121174	-2.995800	3.768700	-11.290000	23.694408	0.001042	20.858851
492.117303	-2.981200	3.767700	-11.231000	23.693907	0.001042	20.891063
493.118316	-3.010400	3.768000	-11.342000	23.687932	0.001043	20.871797
494.120816	-3.002100	3.768000	-11.311000	23.695598	0.001042	20.865733
495.119061	-3.023600	3.767200	-11.390000	23.705233	0.001041	20.872547
496.118338	-3.032200	3.765800	-11.418000	23.691888	0.001042	20.872445
497.118063	-2.992000	3.766900	-11.268000	23.678600	0.001043	20.854856
498.119311	-3.021300	3.765900	-11.376000	23.699187	0.001043	20.861745
499.122940	-2.990000	3.767000	-11.262000	23.712899	0.001044	20.866483
500.122869	-3.014600	3.766000	-11.353000	23.690748	0.001042	20.868931
501.123161	-3.001000	3.765500	-11.299000	23.737689	0.001044	20.876638
502.122314	-3.018100	3.763500	-11.358000	23.717804	0.001042	20.865711
503.123535	-2.973900	3.764400	-11.194000	23.701926	0.001041	20.848370
504.121457	-3.019100	3.763300	-11.361000	23.689954	0.001045	20.869557
505.126064	-3.016300	3.763700	-11.350000	23.703644	0.001041	20.875222
506.124156	-2.973400	3.764100	-11.191000	23.706757	0.001046	20.847524
507.127484	-2.991400	3.762800	-11.254000	23.722389	0.001044	20.862247
508.124379	-2.985900	3.764700	-11.240000	23.722689	0.001043	20.852591
509.128218	-2.971600	3.764200	-11.185000	23.734738	0.001045	20.860878
510.128434	-3.001600	3.761900	-11.291000	23.737551	0.001044	20.851370
511.126431	-3.016400	3.761700	-11.346000	23.749402	0.001045	20.845709
512.124861	-3.018900	3.762300	-11.357000	23.759781	0.001043	20.854693
513.125127	-3.021800	3.761700	-11.366000	23.794702	0.001045	20.852722
514.124514	-3.006900	3.761500	-11.310000	23.799354	0.001042	20.843161
515.125209	-2.998200	3.760900	-11.276000	23.815711	0.001045	20.858613
516.126804	-2.989900	3.760800	-11.243000	23.786638	0.001046	20.839895
517.125470	-2.971300	3.762200	-11.178000	23.763639	0.001046	20.846707
518.127128	-3.000600	3.760000	-11.281000	23.762396	0.001044	20.842616
519.129317	-3.016000	3.760200	-11.339000	23.774621	0.001046	20.853925
520.126461	-3.011300	3.759000	-11.319000	23.801128	0.001046	20.840200
521.131840	-2.992100	3.760100	-11.249000	23.810410	0.001045	20.831488
522.126966	-3.012000	3.759600	-11.323000	23.800105	0.001045	20.842018
523.130395	-3.002400	3.759200	-11.286000	23.793114	0.001046	20.855397
524.126505	-3.017900	3.759000	-11.343000	23.803242	0.001047	20.841371
525.126612	-2.983300	3.759300	-11.214000	23.793135	0.001046	20.827918
526.132404	-3.010600	3.758200	-11.313000	23.754907	0.001046	20.857392
527.128214	-2.982900	3.758800	-11.211000	23.789130	0.001047	20.848557
528.126794	-2.992400	3.757600	-11.244000	23.776958	0.001046	20.841095
529.127789	-3.002100	3.756800	-11.277000	23.748233	0.001050	20.842641
530.128085	-2.986700	3.758100	-11.223000	23.741238	0.001048	20.849852
531.128916	-2.995000	3.756400	-11.250000	23.737205	0.001047	20.825420
532.128795	-3.012300	3.756500	-11.315000	23.753707	0.001046	20.835802
533.130482	-3.015100	3.755400	-11.321000	23.777254	0.001046	20.853246
534.128572	-2.991600	3.756600	-11.237000	23.779544	0.001045	20.822352
535.131572	-3.001500	3.754200	-11.267000	23.796220	0.001048	20.808252
536.133270	-3.009600	3.754600	-11.298000	23.798263	0.001047	20.842542
537.128533	-2.987800	3.755100	-11.219000	23.801076	0.001047	20.825922
538.127389	-2.991500	3.754400	-11.230000	23.803486	0.001045	20.836400
539.129190	-2.979000	3.754200	-11.183000	23.815386	0.001047	20.827469
540.129220	-3.009100	3.752800	-11.292000	23.844804	0.001046	20.826620
541.129412	-3.007800	3.753800	-11.290000	23.840075	0.001047	20.840844
542.133318	-3.014200	3.753800	-11.312000	23.843512	0.001046	20.832911
543.129035	-2.997600	3.753500	-11.250000	23.855231	0.001047	20.817161
544.130645	-3.021500	3.752200	-11.337000	23.843491	0.001047	20.812975
545.131116	-3.006300	3.751800	-11.278000	23.880696	0.001045	20.831789
546.130888	-3.009100	3.752300	-11.290000	23.853792	0.001047	20.823778
547.131972	-3.002600	3.750700	-11.261000	23.840802	0.001047	20.826400
548.129854	-2.971500	3.751600	-11.147000	23.839062	0.001047	20.809957
549.132152	-2.988800	3.750400	-11.208000	23.849761	0.001045	20.828272
550.128692	-2.986900	3.750000	-11.200000	23.849116	0.001046	20.806762
551.133828	-2.986400	3.749900	-11.197000	23.859522	0.001047	20.834266
552.135176	-3.000500	3.749300	-11.249000	23.883963	0.001048	20.801401
553.131691	-2.993700	3.749900	-11.225000	23.895290	0.001045	20.810863
554.131127	-3.014800	3.749900	-11.304000	23.874784	0.001047	20.817327
555.131627	-3.034400	3.749400	-11.375000	23.899571	0.001047	20.807568
556.134876	-2.995000	3.747800	-11.224000	23.875406	0.001047	20.827433
557.132038	-3.004000	3.748400	-11.259000	23.877547	0.001046	20.821046
558.134493	-3.017200	3.748500	-11.309000	23.880960	0.001046	20.808821
559.133014	-2.990800	3.748400	-11.209000	23.880141	0.001046	20.820802
560.134534	-3.018400	3.746800	-11.308000	23.871382	0.001047	20.822451
561.132780	-2.971600	3.747500	-11.136000	23.893434	0.001045	20.817062
562.138488	-3.005500	3.745900	-11.256000	23.903216	0.001045	20.805059
563.137812	-3.021100	3.745700	-11.314000	23.903067	0.001046	20.802066
564.133943	-2.986900	3.746600	-11.189000	23.921036	0.001046	20.795902
565.135370	-3.021700	3.744500	-11.314000	23.925566	0.001048	20.804712
566.134416	-3.003000	3.745000	-11.245000	23.932536	0.001047	20.815968
567.135895	-2.981100	3.746500	-11.167000	23.939709	0.001046	20.816523
568.138286	-2.984400	3.746100	-11.178000	23.967532	0.001045	20.817872
569.139283	-3.018000	3.745900	-11.303000	23.970443	0.001048	20.823161
570.137135	-3.025600	3.744300	-11.327000	23.962384	0.001046	20.807493
571.136533	-3.007000	3.745100	-11.260000	23.982944	0.001046	20.792076
572.139438	-3.010800	3.742500	-11.266000	24.006560	0.001046	20.838518
573.140788	-3.005000	3.742700	-11.246000	23.977373	0.001048	20.807352
574.140032	-2.995700	3.744600	-11.217000	23.958911	0.001045	20.813494
575.137050	-3.002600	3.744000	-11.241000	23.931162	0.001045	20.797522
576.141669	-2.996500	3.742300	-11.213000	23.939850	0.001046	20.771146
577.138230	-2.995200	3.743500	-11.212000	23.950679	0.001047	20.780109
578.138733	-3.012900	3.743000	-11.276000	23.978280	0.001046	20.803994
579.139045	-2.987200	3.743100	-11.181000	23.986469	0.001046	20.794188
580.138893	-2.980800	3.742200	-11.153000	24.006056	0.001046	20.798183
581.139076	-3.027700	3.740700	-11.324000	24.026340	0.001044	20.804775
582.139770	-2.999200	3.740800	-11.218000	24.035101	0.001046	20.797914
583.140749	-2.996900	3.741700	-11.212000	24.008875	0.001047	20.779673
584.140426	-2.976200	3.740000	-11.129000	24.002506	0.001047	20.806003
585.143057	-3.011400	3.740000	-11.262000	24.016941	0.001046	20.794875
586.139602	-2.986400	3.739200	-11.167000	23.998533	0.001045	20.795855
587.140498	-2.991200	3.740300	-11.187000	23.999256	0.001045	20.809382
588.140813	-2.958500	3.740200	-11.065000	23.985347	0.001047	20.802072
589.140649	-3.012000	3.738100	-11.258000	23.961434	0.001046	20.799429
590.146542	-2.992300	3.739200	-11.188000	23.991522	0.001045	20.784082
591.143244	-2.997700	3.737500	-11.201000	23.977962	0.001046	20.791347
592.144043	-2.996500	3.737800	-11.199000	23.965397	0.001046	20.799135
593.143481	-3.015700	3.736800	-11.268000	23.966670	0.001046	20.789507
594.146152	-2.987500	3.736600	-11.163000	23.976699	0.001045	20.793399
595.146547	-3.011900	3.737300	-11.256000	23.991112	0.001045	20.786043
596.149718	-3.012000	3.737300	-11.255000	23.994743	0.001046	20.782097
597.146528	-2.998500	3.735000	-11.198000	24.013412	0.001046	20.788017
598.145506	-2.994500	3.736600	-11.188000	24.011097	0.001047	20.791860
599.146472	-2.992300	3.737300	-11.181000	24.026330	0.001048	20.786747
600.148325	-3.009300	3.735900	-11.241000	24.018793	0.001046	20.786301
601.146833	-3.012300	3.737700	-11.258000	24.007142	0.001046	20.771772
602.147900	-3.011100	3.735200	-11.246000	24.006225	0.001048	20.771326
603.146906	-3.000500	3.736200	-11.210000	23.989084	0.001045	20.772628
604.148031	-3.010200	3.733300	-11.237000	23.966536	0.001046	20.782260
605.148945	-2.992900	3.733500	-11.173000	23.984828	0.001046	20.773102
606.149885	-2.989800	3.733600	-11.162000	23.985428	0.001046	20.777497
607.148179	-2.993900	3.733900	-11.178000	23.990731	0.001046	20.785661
608.148328	-2.995200	3.733100	-11.180000	24.026111	0.001045	20.761397
609.146920	-3.006000	3.732900	-11.220000	23.988364	0.001045	20.762897
610.148352	-3.002200	3.734600	-11.210000	24.004316	0.001045	20.762299
611.152009	-2.986000	3.732400	-11.144000	24.038654	0.001047	20.773976
612.148536	-3.003400	3.731900	-11.208000	24.067120	0.001046	20.777395
613.153317	-3.001300	3.731800	-11.199000	24.065331	0.001045	20.764221
614.148285	-3.000600	3.730300	-11.192000	24.028997	0.001044	20.777094
615.149640	-3.012300	3.729700	-11.234000	24.026954	0.001044	20.792115
616.151261	-3.007400	3.730100	-11.217000	24.015187	0.001043	20.750441
617.151358	-2.996000	3.730300	-11.175000	23.981716	0.001046	20.763817
618.152545	-2.998000	3.730300	-11.182000	23.991896	0.001046	20.763594
619.150266	-2.988100	3.729900	-11.145000	23.996575	0.001044	20.767812
620.150805	-2.976600	3.729400	-11.100000	23.997894	0.001045	20.772455
621.150846	-3.022300	3.729200	-11.270000	24.017897	0.001044	20.758375
622.155278	-2.978800	3.728400	-11.105000	24.031065	0.001045	20.764942
623.153695	-2.995900	3.727900	-11.167000	24.055724	0.001043	20.768336
624.158595	-2.993200	3.729300	-11.162000	24.065829	0.001044	20.750969
625.155611	-3.003700	3.728800	-11.199000	24.091581	0.001044	20.738863
626.154326	-3.011400	3.729200	-11.227000	24.103848	0.001044	20.752115
627.156157	-2.970700	3.729200	-11.076000	24.126245	0.001043	20.756560
628.155718	-3.004100	3.727300	-11.197000	24.148838	0.001043	20.754564
629.154912	-2.972800	3.727400	-11.079000	24.155925	0.001042	20.746499
630.155703	-3.002100	3.726200	-11.184000	24.137118	0.001044	20.753715
631.161471	-3.013400	3.724900	-11.224000	24.151798	0.001044	20.769861
632.156580	-3.012000	3.725300	-11.220000	24.182872	0.001042	20.738438
633.160413	-3.003000	3.725200	-11.186000	24.172669	0.001041	20.762819
634.158733	-2.999900	3.725600	-11.176000	24.198648	0.001042	20.751892
635.155835	-2.989600	3.726600	-11.141000	24.202899	0.001042	20.760898
636.155344	-3.002400	3.726000	-11.187000	24.194838	0.001043	20.775572
637.157814	-3.007900	3.724400	-11.201000	24.216858	0.001043	20.747398
638.157944	-3.026800	3.724200	-11.271000	24.219222	0.001041	20.741234
639.156240	-3.008000	3.723400	-11.199000	24.229272	0.001042	20.744203
640.157001	-3.018500	3.723100	-11.237000	24.250717	0.001041	20.748644
641.156517	-3.014300	3.722100	-11.219000	24.232557	0.001040	20.763619
642.155289	-3.011600	3.723700	-11.213000	24.204666	0.001040	20.743704
643.157784	-3.015900	3.721400	-11.220000	24.180113	0.001040	20.742784
644.157693	-3.015500	3.722400	-11.224000	24.188523	0.001040	20.751220
645.156223	-2.986900	3.721800	-11.116000	24.171427	0.001038	20.741184
646.157992	-2.976600	3.722700	-11.080000	24.172972	0.001039	20.737993
647.156720	-2.985100	3.722900	-11.113000	24.176409	0.001040	20.736223
648.157617	-2.989500	3.721300	-11.123000	24.195141	0.001038	20.724192
649.158873	-3.033600	3.719700	-11.283000	24.203552	0.001039	20.739741
650.157121	-2.987900	3.721300	-11.117000	24.215916	0.001039	20.753092
651.159417	-3.020000	3.719600	-11.231000	24.221145	0.001038	20.739843
652.159180	-3.023000	3.718600	-11.240000	24.216767	0.001040	20.730236
653.160613	-2.981400	3.720000	-11.090000	24.226821	0.001039	20.748856
654.163205	-2.992000	3.719500	-11.127000	24.241701	0.001039	20.751928
655.159234	-2.977200	3.720200	-11.073000	24.239041	0.001038	20.726499
656.161854	-2.989100	3.719500	-11.117000	24.246131	0.001039	20.742621
657.158783	-2.989100	3.719900	-11.118000	24.266807	0.001037	20.728746
658.161200	-2.981900	3.719700	-11.091000	24.243920	0.001037	20.715271
659.163223	-2.995300	3.717600	-11.133000	24.249148	0.001037	20.742328
660.164131	-2.990500	3.718700	-11.120000	24.246611	0.001037	20.728877
661.161612	-3.004700	3.717300	-11.168000	24.236159	0.001038	20.733566
662.162414	-2.995600	3.717600	-11.134000	24.235319	0.001037	20.729879
663.163766	-2.988600	3.717700	-11.111000	24.254654	0.001038	20.717504
664.165982	-2.999600	3.717700	-11.151000	24.258609	0.001037	20.728584
665.167292	-3.006300	3.716100	-11.171000	24.236243	0.001036	20.725590
666.163548	-3.001900	3.716300	-11.155000	24.237288	0.001039	20.746553
667.165958	-2.974200	3.717000	-11.054000	24.228186	0.001038	20.739320
668.163664	-2.994800	3.716600	-11.129000	24.208752	0.001037	20.733577
669.164027	-2.991100	3.715600	-11.113000	24.174765	0.001037	20.723668
670.164371	-2.993000	3.714200	-11.113000	24.188026	0.001038	20.730332
671.162073	-2.986600	3.716000	-11.098000	24.170884	0.001038	20.727363
672.165798	-2.989600	3.714600	-11.104000	24.162424	0.001037	20.718877
673.163332	-3.001900	3.713900	-11.148000	24.210766	0.001037	20.750297
674.164291	-3.000100	3.714400	-11.143000	24.198352	0.001036	20.740689
675.167636	-2.979400	3.715000	-11.066000	24.206664	0.001035	20.731482
676.163578	-3.004000	3.714300	-11.156000	24.244202	0.001037	20.718399
677.166857	-2.992800	3.713400	-11.112000	24.200363	0.001037	20.718049
678.163986	-3.016400	3.711400	-11.194000	24.247285	0.001036	20.735243
679.165388	-3.028200	3.711700	-11.238000	24.269502	0.001035	20.746624
680.163661	-3.034800	3.710900	-11.259000	24.263558	0.001035	20.731177
681.168944	-3.005800	3.711100	-11.153000	24.293115	0.001034	20.726213
682.166149	-2.993300	3.710400	-11.106000	24.311201	0.001037	20.738191
683.165353	-2.996400	3.711900	-11.121000	24.297468	0.001034	20.738640
684.166589	-3.002100	3.710900	-11.139000	24.309610	0.001033	20.725689
685.169365	-2.984700	3.710100	-11.073000	24.288187	0.001032	20.726959
686.166924	-2.994200	3.711000	-11.110000	24.275330	0.001033	20.728286
687.167925	-2.990000	3.711100	-11.095000	24.269407	0.001032	20.728509
688.166858	-2.995000	3.710700	-11.113000	24.246269	0.001033	20.716205
689.169394	-2.977300	3.708700	-11.040000	24.221766	0.001032	20.729560
690.167262	-3.014100	3.709500	-11.179000	24.210646	0.001033	20.727416
691.168696	-2.973400	3.709500	-11.029000	24.162675	0.001032	20.728138
692.168605	-3.004500	3.707300	-11.138000	24.143666	0.001032	20.732306
693.170057	-2.998600	3.708700	-11.120000	24.140583	0.001032	20.716885
694.169402	-2.998700	3.707300	-11.116000	24.172482	0.001032	20.725647
695.170134	-3.019300	3.707700	-11.194000	24.189850	0.001033	20.749232
696.174845	-3.014200	3.707500	-11.174000	24.187712	0.001030	20.728594
697.171208	-3.014200	3.707600	-11.174000	24.230808	0.001031	20.725353
698.170911	-3.007200	3.706500	-11.145000	24.286262	0.001031	20.739727
699.171329	-3.013700	3.705600	-11.166000	24.286516	0.001031	20.723860
700.170841	-3.004400	3.706200	-11.134000	24.287313	0.001031	20.727979
701.171330	-3.005900	3.704300	-11.133000	24.281468	0.001030	20.729702
702.172079	-3.014500	3.706200	-11.171000	24.309233	0.001031	20.731949
703.171257	-3.015400	3.705300	-11.171000	24.324835	0.001030	20.738117
704.172093	-3.015500	3.704500	-11.170000	24.318838	0.001029	20.720721
705.170115	-2.973400	3.705700	-11.018000	24.365907	0.001031	20.737594
706.171626	-2.995300	3.704100	-11.095000	24.366806	0.001030	20.710519
707.172897	-3.012800	3.703800	-11.158000	24.399345	0.001031	20.729886
708.170543	-3.006900	3.704000	-11.137000	24.391063	0.001031	20.728690
709.177405	-2.997000	3.702900	-11.097000	24.402657	0.001030	20.723252
710.171419	-2.984400	3.703900	-11.053000	24.404794	0.001030	20.749579
711.173210	-2.981400	3.705400	-11.046000	24.388901	0.001028	20.716563
712.179076	-2.994600	3.703900	-11.090000	24.383229	0.001029	20.743118
713.172876	-3.002100	3.702600	-11.115000	24.346362	0.001028	20.726521
714.173125	-3.008500	3.703000	-11.139000	24.371787	0.001031	20.729267
715.174204	-2.998000	3.701800	-11.097000	24.363650	0.001030	20.737226
716.174019	-3.007100	3.701400	-11.129000	24.370715	0.001029	20.736253
717.176795	-3.013400	3.700900	-11.150000	24.347851	0.001031	20.733705
718.177261	-3.033100	3.700400	-11.221000	24.369043	0.001028	20.724617
719.174716	-3.016600	3.700400	-11.162000	24.346084	0.001031	20.752796
720.176701	-3.001000	3.700100	-11.103000	24.349935	0.001028	20.725838
721.177671	-3.006300	3.700400	-11.124000	24.370704	0.001029	20.728655
722.176383	-3.009000	3.699200	-11.129000	24.353388	0.001028	20.737363
723.180025	-2.983900	3.700100	-11.040000	24.358983	0.001027	20.728276
724.177465	-2.984600	3.700200	-11.042000	24.385373	0.001029	20.731992
725.177797	-2.984100	3.700300	-11.040000	24.398008	0.001028	20.750831
726.178090	-2.982600	3.699000	-11.032000	24.391391	0.001028	20.721906
727.177248	-3.001500	3.698400	-11.100000	24.422285	0.001027	20.728244
728.179761	-2.969000	3.699000	-10.980000	24.412236	0.001025	20.742820
729.177705	-2.979500	3.699700	-11.022000	24.432227	0.001027	20.708346
730.178958	-3.008700	3.697100	-11.122000	24.398572	0.001026	20.744285
731.181488	-2.996800	3.696600	-11.076000	24.412130	0.001027	20.748404
732.178424	-2.984100	3.698400	-11.034000	24.421604	0.001025	20.731829
733.177311	-2.988700	3.697500	-11.050000	24.401429	0.001027	20.726287
734.179574	-2.998200	3.695700	-11.080000	24.407122	0.001027	20.748594
735.179845	-3.002300	3.695200	-11.092000	24.404183	0.001025	20.733792
736.184167	-3.021000	3.695300	-11.162000	24.398836	0.001026	20.739334
737.180194	-2.996600	3.695700	-11.073000	24.401968	0.001025	20.739631
738.181187	-3.018300	3.695000	-11.151000	24.402042	0.001026	20.746344
739.185416	-3.020700	3.695100	-11.160000	24.415548	0.001026	20.757996
740.182274	-2.994800	3.695900	-11.068000	24.442607	0.001025	20.746262
741.185232	-3.004800	3.695200	-11.103000	24.415491	0.001024	20.743240
742.183963	-2.999700	3.695600	-11.084000	24.440241	0.001023	20.754794
743.184540	-2.993100	3.694100	-11.056000	24.462277	0.001021	20.745134
744.186296	-3.026800	3.692100	-11.174000	24.467127	0.001023	20.748102
745.185825	-2.989900	3.694300	-11.044000	24.465434	0.001025	20.753516
746.183754	-3.010600	3.694300	-11.121000	24.483640	0.001022	20.746652
747.183541	-2.992900	3.694100	-11.055000	24.488838	0.001023	20.754238
748.185671	-2.980000	3.692900	-11.004000	24.492817	0.001022	20.742108
749.186441	-2.961300	3.693600	-10.937000	24.519430	0.001022	20.749369
750.190104	-2.980200	3.692500	-11.004000	24.505499	0.001022	20.745349
751.189810	-3.012300	3.692100	-11.121000	24.514655	0.001022	20.750742
752.189289	-3.001000	3.691400	-11.078000	24.489131	0.001021	20.751687
753.189045	-3.022400	3.690400	-11.153000	24.482215	0.001022	20.767508
754.196057	-2.992800	3.691300	-11.047000	24.505048	0.001021	20.767657
755.189975	-3.026100	3.689800	-11.164000	24.450624	0.001021	20.748141
756.191820	-2.992200	3.690600	-11.042000	24.449079	0.001020	20.744220
757.189071	-2.977900	3.691500	-10.992000	24.422066	0.001020	20.768329
758.191008	-2.983800	3.689900	-11.008000	24.452984	0.001020	20.764259
759.189864	-2.987400	3.689300	-11.021000	24.470396	0.001019	20.760866
760.193553	-2.995100	3.690200	-11.052000	24.477654	0.001020	20.752027
761.190994	-2.995500	3.689500	-11.050000	24.449520	0.001020	20.755095
762.192552	-2.996900	3.687800	-11.051000	24.416831	0.001021	20.767345
763.192159	-3.019300	3.688600	-11.136000	24.423900	0.001021	20.761634
764.192767	-2.996800	3.689200	-11.055000	24.413350	0.001022	20.743463
765.194602	-2.998900	3.688400	-11.061000	24.417826	0.001019	20.774507
766.191760	-3.034100	3.686700	-11.184000	24.397450	0.001018	20.784886
767.193080	-3.010200	3.687300	-11.098000	24.420383	0.001020	20.760951
768.192966	-2.984900	3.688400	-11.009000	24.458637	0.001019	20.758552
769.192974	-2.999100	3.686600	-11.056000	24.434033	0.001020	20.776542
770.196396	-2.989700	3.688500	-11.027000	24.432090	0.001019	20.748513
771.194079	-2.986900	3.686800	-11.010000	24.461089	0.001018	20.788987
772.196644	-3.012500	3.686600	-11.105000	24.477528	0.001019	20.746683
773.200479	-3.003600	3.686300	-11.071000	24.475461	0.001018	20.766896
774.197313	-3.003600	3.686500	-11.072000	24.496001	0.001017	20.773279
775.198525	-3.007000	3.684000	-11.077000	24.525299	0.001017	20.781811
776.198534	-3.018900	3.683200	-11.118000	24.531689	0.001017	20.779688
777.197278	-3.033100	3.683800	-11.172000	24.527954	0.001019	20.780682
778.199488	-2.988000	3.684400	-11.007000	24.539162	0.001016	20.796195
779.198377	-3.005700	3.683500	-11.070000	24.544809	0.001016	20.775307
780.199067	-3.022400	3.684000	-11.134000	24.532539	0.001016	20.759203
781.204681	-2.962200	3.685600	-10.916000	24.513336	0.001016	20.788775
782.197576	-2.994000	3.683200	-11.026000	24.493632	0.001017	20.779437
783.199877	-2.982700	3.683900	-10.988000	24.489601	0.001015	20.766858
784.198689	-3.000000	3.683000	-11.047000	24.491435	0.001017	20.781974
785.202777	-2.991400	3.683700	-11.018000	24.504939	0.001014	20.774186
786.202526	-2.989000	3.682900	-11.006000	24.525800	0.001016	20.782788
787.203122	-2.979800	3.683100	-10.974000	24.504929	0.001016	20.787452
788.199547	-3.002700	3.682600	-11.056000	24.512914	0.001013	20.791196
789.199458	-2.980700	3.683900	-10.979000	24.534099	0.001013	20.779261
790.200487	-3.005800	3.681200	-11.064000	24.548795	0.001013	20.795902
791.202374	-2.981700	3.681200	-10.975000	24.547970	0.001013	20.770893
792.206665	-2.980500	3.680900	-10.970000	24.527071	0.001014	20.794020
793.203043	-3.005500	3.679900	-11.060000	24.526270	0.001014	20.802226
794.209099	-2.985600	3.681300	-10.990000	24.506842	0.001013	20.785104
795.207770	-3.007700	3.680800	-11.069000	24.528553	0.001013	20.779386
796.207473	-3.012500	3.680500	-11.087000	24.508901	0.001011	20.787645
797.212532	-2.995600	3.680500	-11.025000	24.521013	0.001011	20.800744
798.212090	-2.999800	3.678600	-11.034000	24.522007	0.001011	20.784198
799.208982	-3.004700	3.679800	-11.055000	24.548662	0.001011	20.806675
800.209842	-2.999500	3.679300	-11.035000	24.549283	0.001010	20.787858
801.208056	-2.998000	3.678100	-11.026000	24.587833	0.001010	20.792872
802.210013	-3.007700	3.678500	-11.063000	24.593503	0.001009	20.797139
803.213581	-3.002100	3.678800	-11.043000	24.593651	0.001010	20.793020
804.212440	-3.010600	3.678000	-11.072000	24.633765	0.001008	20.812408
805.212458	-3.001700	3.677400	-11.037000	24.639883	0.001008	20.802426
806.211924	-2.992500	3.676400	-11.000000	24.653559	0.001009	20.803346
807.215276	-3.014600	3.676200	-11.082000	24.650128	0.001010	20.788997
808.214474	-2.989200	3.677100	-10.990000	24.662036	0.001008	20.806163
809.213905	-2.990800	3.676200	-10.994000	24.597122	0.001008	20.793658
810.216024	-2.989900	3.675800	-10.989000	24.589960	0.001010	20.831515
811.213799	-2.994900	3.674000	-11.002000	24.547179	0.001007	20.799496
812.215386	-2.999800	3.674100	-11.021000	24.553520	0.001005	20.795901
813.218224	-3.001500	3.675700	-11.030000	24.552271	0.001008	20.808874
814.217875	-3.000600	3.674700	-11.025000	24.566374	0.001006	20.809748
815.213758	-2.987300	3.675300	-10.978000	24.570300	0.001007	20.808945
816.214104	-3.000300	3.674500	-11.023000	24.587139	0.001008	20.804978
817.218075	-2.982300	3.674200	-10.956000	24.601584	0.001008	20.807618
818.216324	-2.990400	3.673100	-10.982000	24.664530	0.001006	20.795389
819.218508	-3.001100	3.672900	-11.021000	24.679302	0.001007	20.823962
820.217044	-3.003400	3.673300	-11.030000	24.670920	0.001007	20.815077
821.219245	-2.983500	3.674800	-10.963000	24.659354	0.001005	20.814377
822.217045	-2.974800	3.673900	-10.928000	24.670342	0.001006	20.817342
823.217704	-3.003700	3.674600	-11.037000	24.650119	0.001005	20.828343
824.220075	-3.004300	3.672200	-11.032000	24.618709	0.001005	20.798249
825.216926	-3.008900	3.671700	-11.047000	24.622684	0.001004	20.813142
826.217942	-2.982500	3.672100	-10.950000	24.630069	0.001003	20.814862
827.218294	-3.000100	3.672600	-11.017000	24.613632	0.001003	20.810697
828.219314	-2.982300	3.671700	-10.949000	24.615244	0.001001	20.806625
829.219439	-2.992500	3.671700	-10.986000	24.609820	0.001002	20.834373
830.221073	-3.011700	3.670200	-11.052000	24.591193	0.001001	20.827537
831.220024	-2.985600	3.671700	-10.961000	24.561048	0.001004	20.827636
832.217448	-3.007200	3.670000	-11.036000	24.563336	0.001003	20.841312
833.219174	-3.004100	3.670000	-11.024000	24.555599	0.001003	20.833075
834.218148	-3.026200	3.667800	-11.098000	24.578878	0.001000	20.822293
835.224739	-2.988700	3.668800	-10.963000	24.570623	0.001002	20.818277
836.219070	-3.001900	3.668500	-11.011000	24.615960	0.001001	20.816827
837.219041	-3.003500	3.667100	-11.012000	24.630087	0.001000	20.841907
838.219248	-2.996400	3.667700	-10.989000	24.642299	0.000998	20.822392
839.218779	-2.983300	3.668500	-10.944000	24.691589	0.000999	20.833921
840.221086	-3.004500	3.667300	-11.017000	24.702379	0.000999	20.821041
841.222208	-3.023000	3.666400	-11.083000	24.726780	0.000998	20.832724
842.219325	-3.002200	3.666400	-11.007000	24.744661	0.000998	20.840710
843.219254	-3.023600	3.667500	-11.088000	24.754107	0.000999	20.826483
844.222143	-3.033400	3.666400	-11.120000	24.771740	0.000997	20.836592
845.220046	-2.994500	3.666900	-10.980000	24.748712	0.000996	20.831974
846.224830	-3.013700	3.666300	-11.047000	24.743740	0.000995	20.843106
847.222293	-2.991300	3.665500	-10.964000	24.759657	0.000994	20.845328
848.226974	-3.002100	3.666300	-11.005000	24.731057	0.000995	20.832749
849.224999	-3.002400	3.665600	-11.004000	24.744858	0.000996	20.819572
850.221836	-2.999100	3.667200	-10.997000	24.738490	0.000996	20.836415
851.226584	-3.007100	3.665000	-11.020000	24.779674	0.000996	20.845501
852.222915	-2.999600	3.664500	-10.991000	24.791658	0.000994	20.841408
853.223450	-3.012200	3.663500	-11.034000	24.805857	0.000996	20.849493
854.223789	-2.981000	3.664500	-10.923000	24.815578	0.000997	20.836489
855.223629	-3.004300	3.663600	-11.005000	24.816893	0.000997	20.836861
856.228477	-2.997100	3.663500	-10.978000	24.830894	0.000996	20.836688
857.229480	-3.002200	3.662900	-10.996000	24.818829	0.000996	20.840701
858.230072	-2.984100	3.663000	-10.930000	24.823600	0.000994	20.851178
859.225054	-2.994600	3.663200	-10.969000	24.784614	0.000995	20.848563
860.228923	-3.002100	3.663500	-10.997000	24.790330	0.000996	20.844816
861.225792	-2.998300	3.661700	-10.978000	24.782915	0.000995	20.831211
862.229680	-2.997700	3.661900	-10.976000	24.789206	0.000995	20.842739
863.227447	-3.017000	3.660700	-11.043000	24.768092	0.000992	20.862801
864.235258	-2.990400	3.661200	-10.948000	24.776918	0.000994	20.837995
865.229712	-2.998400	3.661300	-10.977000	24.818816	0.000992	20.844006
866.230216	-3.009700	3.659400	-11.013000	24.805806	0.000993	20.852287
867.231942	-2.988100	3.663200	-10.944000	24.801730	0.000992	20.853412
868.231755	-2.979200	3.661000	-10.906000	24.782754	0.000991	20.852860
869.230174	-2.992200	3.659600	-10.949000	24.814533	0.000990	20.861992
870.231246	-2.980600	3.661300	-10.911000	24.811970	0.000991	20.862265
871.231215	-3.011300	3.658600	-11.016000	24.819304	0.000990	20.840228
872.232047	-3.002400	3.659300	-10.985000	24.812442	0.000991	20.849463
873.234323	-2.983700	3.659200	-10.915000	24.820446	0.000989	20.866978
874.231321	-2.995000	3.660100	-10.961000	24.797715	0.000990	20.874511
875.234383	-3.001100	3.659300	-10.981000	24.743158	0.000991	20.848685
876.232885	-2.998200	3.658900	-10.969000	24.771331	0.000990	20.857517
877.234355	-3.004700	3.658000	-10.990000	24.747333	0.000989	20.852875
878.242185	-3.004200	3.658300	-10.989000	24.744897	0.000990	20.868447
879.237546	-3.011200	3.657800	-11.014000	24.752259	0.000988	20.874886
880.237616	-3.004900	3.657400	-10.989000	24.774515	0.000987	20.832738
881.234843	-2.993800	3.657700	-10.950000	24.799154	0.000987	20.857938
882.235894	-3.010600	3.656600	-11.008000	24.826535	0.000989	20.872141
883.236754	-3.003400	3.657700	-10.985000	24.847443	0.000988	20.875580
884.237047	-3.004800	3.658300	-10.990000	24.827005	0.000988	20.882094
885.236041	-3.003200	3.657500	-10.984000	24.865770	0.000987	20.864102
886.236442	-2.996000	3.655300	-10.951000	24.899263	0.000984	20.871638
887.236612	-3.010400	3.655900	-11.005000	24.910147	0.000986	20.869286
888.236382	-2.999800	3.655600	-10.964000	24.929272	0.000988	20.878050
889.240458	-3.008800	3.655600	-10.997000	24.948014	0.000985	20.858456
890.236773	-2.995200	3.655000	-10.947000	24.925091	0.000986	20.876224
891.241070	-3.013000	3.654400	-11.009000	24.939359	0.000985	20.893389
892.237625	-3.000900	3.654300	-10.966000	24.930238	0.000984	20.867167
893.237432	-3.001800	3.653700	-10.967000	24.961463	0.000984	20.860101
894.243191	-3.005700	3.653800	-10.981000	24.979090	0.000985	20.875896
895.238032	-3.003900	3.653400	-10.973000	24.984064	0.000985	20.871880
896.240739	-3.006900	3.652800	-10.981000	24.980109	0.000983	20.897305
897.241290	-3.000200	3.652400	-10.957000	24.967950	0.000983	20.874672
898.241150	-3.015000	3.653400	-11.014000	24.958950	0.000983	20.881285
899.239865	-2.995100	3.652300	-10.939000	24.943286	0.000986	20.863668
900.240734	-2.998000	3.652200	-10.948000	24.946442	0.000983	20.869679
901.240334	-3.005900	3.651100	-10.972000	24.936102	0.000982	20.887749
902.241732	-2.969900	3.653400	-10.848000	24.955791	0.000982	20.892338
903.238645	-3.018800	3.650000	-11.017000	24.937914	0.000982	20.878189
904.241988	-3.004200	3.651900	-10.970000	24.906562	0.000981	20.892239
905.241702	-2.988900	3.650100	-10.908000	24.885324	0.000980	20.873296
906.241604	-2.974900	3.651400	-10.861000	24.897558	0.000980	20.889840
907.241514	-2.982500	3.650600	-10.886000	24.901936	0.000980	20.899450
908.241221	-2.994800	3.648900	-10.927000	24.929485	0.000979	20.901495
909.243601	-3.013000	3.649200	-10.994000	24.957406	0.000980	20.896329
910.245991	-2.996900	3.649600	-10.935000	24.975205	0.000981	20.878635
911.242691	-3.010700	3.648000	-10.982000	24.981819	0.000979	20.894281
912.245129	-3.005200	3.648000	-10.961000	25.004895	0.000978	20.903218
913.245208	-3.004100	3.649300	-10.962000	25.017571	0.000978	20.896029
914.243448	-3.017600	3.648400	-11.008000	25.021079	0.000979	20.922780
915.248674	-3.018500	3.646800	-11.005000	24.978663	0.000979	20.886373
916.242589	-3.010800	3.647200	-10.978000	24.986123	0.000978	20.893385
917.243910	-3.010300	3.647400	-10.979000	24.994227	0.000977	20.905787
918.244704	-2.995200	3.647200	-10.923000	24.984607	0.000975	20.888545
919.244386	-2.999100	3.646900	-10.936000	24.989451	0.000977	20.890562
920.246883	-2.989700	3.646900	-10.903000	24.996213	0.000975	20.893082
921.246277	-2.989500	3.646800	-10.901000	25.000890	0.000976	20.886398
922.246325	-3.007100	3.644800	-10.960000	25.013444	0.000975	20.897101
923.244753	-3.008700	3.645600	-10.967000	25.006929	0.000976	20.907630
924.247324	-2.983400	3.646800	-10.878000	24.987308	0.000976	20.890308
925.247019	-2.979100	3.645500	-10.860000	24.976345	0.000976	20.903484
926.247572	-2.998300	3.644100	-10.925000	24.983430	0.000974	20.917707
927.245554	-2.976300	3.645700	-10.849000	25.003789	0.000974	20.928184
928.245819	-2.987900	3.644700	-10.888000	25.004561	0.000976	20.889608
929.246754	-2.993000	3.643400	-10.904000	24.995107	0.000973	20.904299
930.248245	-3.005100	3.642100	-10.943000	24.978101	0.000974	20.890549
931.249469	-3.011800	3.642600	-10.970000	24.973476	0.000973	20.902027
932.246326	-2.984400	3.644000	-10.873000	24.986178	0.000973	20.888225
933.252285	-3.019500	3.641900	-10.995000	24.969366	0.000972	20.912600
934.246852	-2.982600	3.643400	-10.866000	24.954895	0.000970	20.898076
935.248920	-3.000600	3.641500	-10.925000	24.975557	0.000970	20.901271
936.251565	-3.004000	3.642500	-10.941000	24.964491	0.000971	20.891587
937.247951	-2.997900	3.641200	-10.914000	24.961382	0.000970	20.893208
938.246301	-3.010800	3.640400	-10.959000	24.966973	0.000970	20.895501
939.248187	-3.006100	3.640500	-10.943000	24.968264	0.000969	20.895848
940.248513	-3.005500	3.641000	-10.942000	24.961771	0.000970	20.902606
941.247394	-2.994200	3.641100	-10.901000	24.955259	0.000970	20.896545
942.252686	-3.000200	3.639600	-10.918000	24.974550	0.000970	20.884141
943.246581	-2.995600	3.640300	-10.904000	24.949340	0.000966	20.879700
944.248525	-3.002200	3.639900	-10.927000	24.932429	0.000969	20.881218
945.251004	-2.986100	3.640100	-10.868000	24.944814	0.000966	20.897915
946.249510	-2.990200	3.640100	-10.884000	24.955299	0.000967	20.887577
947.256497	-3.005300	3.639600	-10.937000	24.958158	0.000967	20.870059
948.250956	-3.024400	3.638300	-11.003000	24.948763	0.000964	20.896189
949.251694	-2.999500	3.638800	-10.913000	24.940679	0.000966	20.907989
950.250403	-3.026100	3.638300	-11.009000	24.946444	0.000965	20.880112
951.251773	-2.975500	3.639200	-10.827000	24.920887	0.000966	20.893815
952.253445	-2.984100	3.638800	-10.857000	24.909448	0.000964	20.876644
953.254947	-2.993200	3.637300	-10.887000	24.894182	0.000964	20.910158
954.251289	-2.978900	3.636900	-10.833000	24.926803	0.000965	20.881736
955.254137	-3.008600	3.636900	-10.942000	24.929388	0.000963	20.875321
956.250722	-2.974300	3.637600	-10.817000	24.932374	0.000963	20.883059
957.252912	-2.994600	3.637200	-10.891000	24.920637	0.000963	20.880763
958.253438	-3.007100	3.636200	-10.934000	24.894309	0.000963	20.888476
959.253146	-2.985000	3.635400	-10.851000	24.889584	0.000961	20.880890
960.253866	-3.022600	3.635100	-10.985000	24.861810	0.000960	20.877670
961.254119	-3.028200	3.634500	-11.005000	24.882896	0.000962	20.864221
962.252923	-3.001900	3.633900	-10.907000	24.887969	0.000958	20.866942
963.252532	-2.999600	3.635000	-10.903000	24.924346	0.000959	20.883062
964.254558	-2.979800	3.634800	-10.830000	24.954756	0.000960	20.870438
965.257227	-3.020100	3.632100	-10.968000	24.940732	0.000958	20.859207
966.256454	-3.015500	3.633100	-10.954000	24.946428	0.000959	20.868244
967.256258	-2.985200	3.634000	-10.848000	24.990410	0.000958	20.881569
968.258086	-2.962300	3.633900	-10.762000	25.006721	0.000958	20.862381
969.257639	-2.996000	3.631600	-10.878000	25.021893	0.000957	20.877608
970.258827	-2.995200	3.632400	-10.879000	25.053736	0.000957	20.860735
971.255826	-2.994900	3.633000	-10.879000	25.083447	0.000956	20.845991
972.257583	-2.997600	3.631900	-10.886000	25.048243	0.000955	20.876558
973.260399	-3.011100	3.631700	-10.933000	25.038376	0.000956	20.866180
974.259146	-3.023500	3.630400	-10.975000	25.067116	0.000956	20.847615
975.258595	-3.003700	3.630800	-10.905000	25.097670	0.000955	20.863586
976.259323	-3.013000	3.629300	-10.933000	25.116366	0.000956	20.861966
977.258976	-2.990600	3.631300	-10.858000	25.099887	0.000953	20.861070
978.262485	-3.015500	3.630100	-10.945000	25.071148	0.000952	20.865412
979.261649	-2.995600	3.630100	-10.873000	25.070901	0.000955	20.873224
980.261606	-2.997600	3.629800	-10.880000	25.100662	0.000952	20.849995
981.265676	-2.983800	3.631000	-10.833000	25.080030	0.000952	20.857733
982.261658	-2.991400	3.630100	-10.858000	25.108571	0.000952	20.844659
983.261491	-2.983900	3.630600	-10.832000	25.127986	0.000951	20.853717
984.265636	-3.003100	3.628200	-10.894000	25.114366	0.000951	20.866121
985.262890	-2.970200	3.629500	-10.780000	25.064850	0.000951	20.864306
986.263663	-3.007900	3.628000	-10.912000	25.054409	0.000951	20.850032
987.262931	-2.995700	3.627400	-10.865000	25.025669	0.000951	20.851055
988.262953	-3.011400	3.627800	-10.924000	25.026617	0.000949	20.851058
989.265041	-2.979100	3.629300	-10.811000	25.039720	0.000949	20.845245
990.267012	-2.998900	3.628000	-10.879000	25.028982	0.000947	20.839682
991.264314	-2.981300	3.628200	-10.814000	25.042758	0.000948	20.859673
992.263750	-3.004000	3.627000	-10.894000	25.039973	0.000948	20.862568
993.266212	-2.979700	3.626800	-10.805000	25.022848	0.000948	20.872878
994.263872	-2.987000	3.625300	-10.827000	25.030057	0.000947	20.835071
995.268363	-3.005200	3.624500	-10.892000	25.050622	0.000948	20.844808
996.265254	-3.005300	3.624400	-10.891000	25.038841	0.000945	20.838672
997.266462	-3.016700	3.624000	-10.932000	25.083066	0.000946	20.845134
998.265741	-3.010300	3.624900	-10.910000	25.090052	0.000948	20.820853
999.267856	-2.990200	3.625100	-10.839000	25.102484	0.000946	20.837126
1000.269898	-3.020800	3.624000	-10.945000	25.109227	0.000946	20.826825
1001.268670	-2.987000	3.625200	-10.828000	25.102537	0.000946	20.855670
1002.267699	-3.010600	3.622500	-10.905000	25.106738	0.000946	20.839974
1003.269821	-3.020500	3.623400	-10.943000	25.133241	0.000944	20.829122
1004.269697	-2.989400	3.623400	-10.831000	25.115364	0.000944	20.820658
1005.269032	-3.000800	3.623200	-10.872000	25.116062	0.000943	20.846014
1006.271381	-3.027600	3.622200	-10.965000	25.127076	0.000942	20.827200
1007.269197	-3.018300	3.622400	-10.932000	25.127175	0.000943	20.833463
1008.271418	-3.006300	3.619800	-10.880000	25.118352	0.000943	20.823184
1009.269673	-2.998300	3.621200	-10.856000	25.116661	0.000941	20.857520
1010.271464	-3.002800	3.621500	-10.873000	25.147760	0.000941	20.835162
1011.272866	-2.994000	3.622100	-10.844000	25.175530	0.000939	20.810884
1012.271813	-3.012900	3.619800	-10.905000	25.159271	0.000940	20.826804
1013.273867	-2.999400	3.620500	-10.858000	25.185723	0.000939	20.830126
1014.270877	-3.011600	3.620100	-10.902000	25.199692	0.000940	20.820442
1015.270824	-3.026000	3.619700	-10.952000	25.158203	0.000938	20.816723
1016.275939	-3.013100	3.620100	-10.907000	25.095137	0.000938	20.852035
1017.275573	-2.999800	3.620600	-10.860000	25.077435	0.000938	20.821464
1018.272180	-3.003000	3.619900	-10.869000	25.056201	0.000939	20.827650
1019.273062	-3.004900	3.618400	-10.872000	25.032784	0.000940	20.816946
1020.273001	-3.015000	3.618400	-10.908000	25.029999	0.000937	20.828375
1021.272774	-2.997100	3.617900	-10.841000	25.053493	0.000940	20.818768
1022.275138	-2.976100	3.618400	-10.768000	25.070575	0.000939	20.805570
1023.273791	-2.989500	3.616300	-10.810000	25.070125	0.000937	20.831195
1024.277946	-2.988600	3.617400	-10.810000	25.077707	0.000935	20.814625
1025.274096	-2.962800	3.617500	-10.717000	25.080167	0.000934	20.818043
1026.275974	-3.016900	3.614900	-10.905000	25.081013	0.000937	20.821737
1027.275656	-3.007700	3.614900	-10.871000	25.113654	0.000936	20.817045
1028.278515	-3.030200	3.615300	-10.953000	25.121757	0.000935	20.828973
1029.275371	-2.998300	3.616200	-10.841000	25.130309	0.000936	20.813376
1030.274396	-2.998500	3.615400	-10.840000	25.112684	0.000932	20.814175
1031.273864	-2.998800	3.615900	-10.842000	25.149874	0.000933	20.816896
1032.274330	-2.986400	3.615400	-10.796000	25.179034	0.000933	20.836686
1033.274675	-2.992400	3.616000	-10.820000	25.176873	0.000932	20.829776
1034.273441	-2.987200	3.613900	-10.794000	25.218808	0.000933	20.809763
1035.277761	-3.011200	3.612100	-10.876000	25.206903	0.000932	20.807293
1036.274666	-3.016200	3.612100	-10.894000	25.211749	0.000930	20.804572
1037.274199	-2.995800	3.614700	-10.828000	25.180856	0.000930	20.821920
1038.279887	-3.004800	3.614200	-10.859000	25.183016	0.000929	20.813658
1039.276770	-3.011900	3.613100	-10.881000	25.186523	0.000928	20.812437
1040.276048	-3.004000	3.612900	-10.852000	25.171984	0.000929	20.796893
1041.276783	-3.002800	3.613000	-10.849000	25.181754	0.000928	20.809072
1042.275537	-3.010000	3.611700	-10.871000	25.203381	0.000927	20.820352
1043.275969	-3.002800	3.611100	-10.843000	25.222596	0.000927	20.805979
1044.280742	-3.016300	3.611500	-10.892000	25.210370	0.000927	20.822627
1045.279610	-2.977400	3.610700	-10.750000	25.201195	0.000926	20.811520
1046.278176	-2.979400	3.612100	-10.761000	25.200427	0.000928	20.813594
1047.278587	-2.984800	3.610700	-10.777000	25.231005	0.000927	20.811576
1048.278988	-2.975200	3.612000	-10.745000	25.191731	0.000924	20.814347
1049.280102	-2.976200	3.610000	-10.743000	25.160736	0.000925	20.823532
1050.279345	-2.972800	3.611100	-10.735000	25.125414	0.000924	20.792815
1051.282926	-3.011200	3.610000	-10.869000	25.111195	0.000924	20.797033
1052.280478	-3.024200	3.608300	-10.910000	25.078307	0.000922	20.808589
1053.280990	-3.012500	3.608800	-10.870000	25.099365	0.000924	20.815503
1054.284384	-3.033100	3.606300	-10.936000	25.103915	0.000924	20.780243
1055.282730	-3.001800	3.607800	-10.827000	25.115477	0.000924	20.803228
1056.279622	-2.985500	3.608600	-10.773000	25.067126	0.000923	20.798313
1057.280700	-2.978500	3.607400	-10.743000	25.068768	0.000922	20.792376
1058.281984	-2.996600	3.608400	-10.811000	25.078487	0.000923	20.788855
1059.283642	-3.014500	3.606900	-10.872000	25.105762	0.000922	20.795847
1060.285668	-3.012600	3.606000	-10.862000	25.130298	0.000921	20.808624
1061.285370	-2.986600	3.607200	-10.773000	25.156677	0.000922	20.815191
1062.285182	-2.988500	3.607500	-10.781000	25.137834	0.000921	20.806706
1063.286800	-3.024300	3.604500	-10.899000	25.137936	0.000922	20.803489
1064.284325	-2.997700	3.605500	-10.807000	25.136071	0.000920	20.793557
1065.288348	-2.987800	3.606100	-10.774000	25.161400	0.000919	20.809975
1066.284763	-3.005200	3.606800	-10.836000	25.172189	0.000920	20.802789
1067.285591	-3.007300	3.604800	-10.840000	25.162722	0.000920	20.785698
1068.285106	-3.000700	3.605300	-10.817000	25.168858	0.000921	20.810350
1069.286092	-3.004800	3.604900	-10.831000	25.162472	0.000919	20.794456
1070.287045	-3.003800	3.603700	-10.824000	25.176888	0.000918	20.780005
1071.284494	-2.986200	3.605200	-10.765000	25.202265	0.000918	20.796473
1072.286285	-2.995800	3.604300	-10.796000	25.161799	0.000917	20.784771
1073.285726	-3.009000	3.602100	-10.838000	25.156653	0.000917	20.795726
1074.290551	-3.009500	3.602900	-10.842000	25.178076	0.000919	20.799690
1075.289343	-2.994700	3.603300	-10.790000	25.181382	0.000919	20.794474
1076.284019	-3.016500	3.601400	-10.862000	25.154482	0.000916	20.803978
1077.291422	-3.015600	3.600600	-10.856000	25.168380	0.000914	20.778101
1078.287206	-3.020300	3.601100	-10.875000	25.152744	0.000915	20.788483
1079.285284	-2.992600	3.602800	-10.780000	25.164626	0.000913	20.789032
1080.288888	-2.996500	3.600300	-10.787000	25.161887	0.000914	20.793395
1081.287747	-2.991400	3.601200	-10.772000	25.167679	0.000913	20.793993
1082.286548	-3.024200	3.599000	-10.882000	25.204222	0.000911	20.793222
1083.286126	-3.010700	3.601300	-10.841000	25.195118	0.000911	20.783134
1084.287707	-2.998600	3.598100	-10.788000	25.183860	0.000912	20.781315
1085.290769	-2.975600	3.599300	-10.709000	25.202178	0.000910	20.769358
1086.290830	-3.003600	3.598900	-10.809000	25.199344	0.000910	20.791170
1087.288914	-2.968600	3.599600	-10.684000	25.215352	0.000909	20.772628
1088.289385	-2.997700	3.599000	-10.788000	25.198223	0.000908	20.770604
1089.290679	-3.023600	3.596400	-10.873000	25.181249	0.000908	20.768261
1090.289556	-3.003000	3.596800	-10.800000	25.181273	0.000908	20.786778
1091.294075	-2.991000	3.597000	-10.757000	25.192584	0.000909	20.778219
1092.297349	-2.963800	3.598200	-10.662000	25.183039	0.000909	20.784284
1093.289837	-3.004300	3.597600	-10.807000	25.185848	0.000905	20.790897
1094.293277	-2.992400	3.596900	-10.762000	25.214411	0.000906	20.777847
1095.291208	-2.979600	3.595900	-10.713000	25.229746	0.000905	20.784234
1096.293740	-3.014300	3.594700	-10.834000	25.241951	0.000905	20.769935
1097.291051	-3.002100	3.594500	-10.789000	25.218658	0.000908	20.785904
1098.291940	-2.998900	3.595200	-10.781000	25.221492	0.000905	20.772154
1099.291570	-3.011800	3.594300	-10.825000	25.229027	0.000906	20.779245
1100.292195	-2.998900	3.594000	-10.776000	25.229718	0.000904	20.759075
1101.293950	-3.009200	3.593100	-10.811000	25.246273	0.000904	20.776170
1102.294528	-2.977400	3.594800	-10.702000	25.253706	0.000903	20.774150
1103.294088	-2.980800	3.594500	-10.714000	25.275250	0.000903	20.766857
1104.293979	-2.996200	3.593800	-10.765000	25.282010	0.000904	20.779808
1105.295315	-2.987100	3.593000	-10.732000	25.312203	0.000902	20.757017
1106.294085	-3.008200	3.592900	-10.807000	25.299307	0.000904	20.745017
1107.295955	-3.001900	3.592100	-10.782000	25.275713	0.000902	20.769218
1108.293268	-2.997600	3.593000	-10.768000	25.272728	0.000902	20.757212
1109.295769	-3.005400	3.592400	-10.796000	25.303999	0.000900	20.759211
1110.295040	-3.020900	3.592200	-10.850000	25.312616	0.000901	20.756483
1111.294382	-2.991200	3.592100	-10.743000	25.284158	0.000899	20.772007
1112.296929	-3.004400	3.590700	-10.786000	25.249729	0.000898	20.768734
1113.295648	-2.996500	3.590400	-10.756000	25.200732	0.000898	20.744672
1114.296469	-3.004600	3.589800	-10.785000	25.199611	0.000898	20.757298
1115.295401	-2.982000	3.589600	-10.703000	25.232467	0.000898	20.752826
1116.295988	-2.986700	3.589000	-10.718000	25.249568	0.000897	20.743916
1117.293961	-3.014300	3.589600	-10.819000	25.254809	0.000897	20.765774
1118.299294	-2.999500	3.588800	-10.764000	25.268575	0.000894	20.753991
1119.294540	-2.995000	3.589600	-10.750000	25.280656	0.000894	20.769914
1120.295152	-3.001600	3.588000	-10.768000	25.278986	0.000896	20.771082
1121.300138	-3.000300	3.588200	-10.764000	25.320819	0.000895	20.765194
1122.294986	-3.010200	3.588200	-10.800000	25.349128	0.000894	20.758057
1123.297776	-2.994300	3.588300	-10.744000	25.343434	0.000892	20.756606
1124.294734	-2.999400	3.586800	-10.756000	25.317285	0.000894	20.749791
1125.296401	-3.020100	3.586000	-10.828000	25.310747	0.000895	20.743701
1126.295704	-3.001900	3.586900	-10.766000	25.335751	0.000893	20.768333
1127.296437	-2.994500	3.585100	-10.735000	25.296654	0.000890	20.763217
1128.297969	-3.005800	3.585300	-10.775000	25.248406	0.000891	20.766932
1129.297805	-2.981800	3.586500	-10.693000	25.230139	0.000889	20.747643
1130.302927	-2.989900	3.586200	-10.721000	25.204960	0.000889	20.774996
1131.299982	-3.004400	3.585200	-10.770000	25.239189	0.000889	20.759101
1132.298062	-3.005200	3.585500	-10.773000	25.224771	0.000887	20.757902
1133.305937	-2.995200	3.584900	-10.737000	25.228401	0.000885	20.740683
1134.297894	-3.022100	3.582700	-10.826000	25.248335	0.000888	20.759749
1135.299455	-3.015100	3.583100	-10.803000	25.255768	0.000886	20.764366
1136.300336	-2.991500	3.582800	-10.717000	25.257312	0.000885	20.729405
1137.298190	-2.996400	3.582900	-10.735000	25.296284	0.000884	20.727756
1138.302952	-2.998500	3.583300	-10.743000	25.278764	0.000886	20.757108
1139.298465	-2.992900	3.582000	-10.719000	25.244736	0.000886	20.756609
1140.299786	-2.992200	3.582700	-10.719000	25.221697	0.000884	20.725890
1141.299279	-2.987500	3.582700	-10.702000	25.205219	0.000882	20.747281
1142.300942	-2.984900	3.580700	-10.687000	25.197515	0.000883	20.746184
1143.300429	-2.986000	3.581400	-10.692000	25.196866	0.000884	20.753120
1144.298865	-2.989800	3.581600	-10.707000	25.203760	0.000882	20.747238
1145.299250	-3.007100	3.580300	-10.764000	25.214943	0.000880	20.746138
1146.299426	-3.024000	3.579000	-10.822000	25.230627	0.000882	20.746237
1147.303661	-3.006900	3.580800	-10.766000	25.258667	0.000880	20.754475
1148.300017	-3.012300	3.579200	-10.780000	25.282682	0.000880	20.738282
1149.302159	-3.003300	3.580800	-10.753000	25.297124	0.000878	20.742351
1150.299983	-2.977900	3.579200	-10.657000	25.338113	0.000878	20.736091
1151.306248	-2.988400	3.578300	-10.692000	25.338015	0.000881	20.737414
1152.302232	-2.987500	3.578100	-10.688000	25.305631	0.000878	20.730503
1153.301832	-2.982300	3.579200	-10.672000	25.292732	0.000879	20.721819
1154.304363	-3.007900	3.577600	-10.759000	25.245858	0.000877	20.733553
1155.302787	-2.998300	3.578000	-10.727000	25.228205	0.000878	20.722941
1156.303924	-2.988600	3.577500	-10.691000	25.239148	0.000876	20.720176
1157.301947	-2.995700	3.576900	-10.714000	25.270490	0.000878	20.722721
1158.301008	-3.000300	3.576800	-10.731000	25.266292	0.000875	20.721825
1159.301822	-3.009500	3.576800	-10.764000	25.287787	0.000875	20.724915
1160.306435	-3.000800	3.577400	-10.734000	25.294776	0.000876	20.729561
1161.303149	-3.005300	3.575900	-10.746000	25.275886	0.000874	20.753270
1162.305058	-2.976600	3.575100	-10.640000	25.274222	0.000877	20.734055
1163.303634	-2.972800	3.577000	-10.633000	25.250782	0.000874	20.723796
1164.305137	-3.008800	3.574800	-10.755000	25.241861	0.000874	20.725272
1165.313998	-3.013400	3.573900	-10.769000	25.253887	0.000873	20.728337
1166.309020	-3.013700	3.573800	-10.769000	25.271740	0.000871	20.715441
1167.312590	-3.012400	3.572300	-10.758000	25.288615	0.000872	20.726220
1168.308366	-3.003000	3.573600	-10.730000	25.286599	0.000871	20.739370
1169.310666	-2.990500	3.573800	-10.686000	25.301912	0.000870	20.725820
1170.311372	-2.969900	3.574000	-10.612000	25.325598	0.000868	20.720679
1171.317845	-2.987800	3.573000	-10.674000	25.342253	0.000868	20.734557
1172.311760	-3.010400	3.571600	-10.750000	25.336244	0.000868	20.728997
1173.312317	-2.990400	3.572600	-10.682000	25.320710	0.000866	20.732840
1174.313663	-3.001300	3.570500	-10.714000	25.322179	0.000867	20.707287
1175.314574	-2.990500	3.572200	-10.680000	25.325460	0.000870	20.716272
1176.316664	-2.995000	3.571400	-10.695000	25.335803	0.000866	20.727606
1177.318891	-2.986500	3.571000	-10.663000	25.352504	0.000866	20.705967
1178.314438	-3.013200	3.570000	-10.756000	25.375075	0.000867	20.701604
1179.317670	-2.979700	3.571400	-10.641000	25.354572	0.000865	20.741237
1180.316436	-3.004300	3.570100	-10.725000	25.349430	0.000864	20.712839
1181.320869	-3.004300	3.568700	-10.721000	25.317590	0.000864	20.713111
1182.318040	-2.981300	3.571200	-10.645000	25.301290	0.000864	20.713341
1183.319069	-2.988200	3.569200	-10.663000	25.337353	0.000862	20.704505
1184.317557	-3.015400	3.567100	-10.755000	25.325325	0.000863	20.731785
1185.317998	-2.997500	3.568500	-10.695000	25.364474	0.000862	20.714668
1186.318151	-3.018800	3.566800	-10.767000	25.361246	0.000860	20.715694
1187.319856	-3.011600	3.567700	-10.744000	25.333856	0.000860	20.711900
1188.317686	-2.989100	3.568000	-10.664000	25.334705	0.000860	20.721288
1189.318512	-2.970400	3.569000	-10.600000	25.319597	0.000858	20.728404
1190.319793	-3.030700	3.565800	-10.806000	25.368656	0.000858	20.713652
1191.319694	-3.007900	3.566500	-10.727000	25.363194	0.000858	20.720495
1192.320750	-2.992900	3.566000	-10.672000	25.365009	0.000857	20.723740
1193.319145	-3.038200	3.564900	-10.829000	25.334441	0.000857	20.722919
1194.325548	-3.006500	3.565200	-10.717000	25.335635	0.000858	20.740241
1195.321266	-3.008100	3.566400	-10.727000	25.355222	0.000856	20.710593
1196.321591	-3.014900	3.564900	-10.747000	25.355426	0.000855	20.725024
1197.325624	-3.023000	3.564200	-10.772000	25.356398	0.000857	20.703239
1198.320661	-3.005100	3.563300	-10.706000	25.370639	0.000855	20.712798
1199.323009	-2.990700	3.564200	-10.659000	25.362516	0.000855	20.724082
1200.321754	-3.005000	3.563500	-10.708000	25.374917	0.000853	20.728000
1201.322577	-3.013100	3.563900	-10.736000	25.375170	0.000852	20.714977
1202.326433	-3.019600	3.562600	-10.756000	25.367742	0.000853	20.704672
1203.321296	-2.997100	3.562700	-10.676000	25.345628	0.000852	20.725143
1204.324360	-3.026400	3.561300	-10.777000	25.341325	0.000850	20.701855
1205.322820	-2.972300	3.563500	-10.590000	25.295398	0.000849	20.726866
1206.323349	-2.977400	3.563100	-10.608000	25.283225	0.000852	20.732663
1207.324014	-2.993900	3.561200	-10.659000	25.294213	0.000851	20.736583
1208.324757	-2.988900	3.561100	-10.642000	25.340472	0.000852	20.728501
1209.323497	-3.009800	3.560200	-10.715000	25.358592	0.000850	20.718720
1210.323298	-2.980200	3.561800	-10.614000	25.373682	0.000849	20.709215
1211.323468	-2.980800	3.560900	-10.613000	25.332975	0.000849	20.720974
1212.323609	-2.987200	3.561000	-10.636000	25.362482	0.000848	20.712668
1213.323793	-2.992000	3.559500	-10.649000	25.375831	0.000847	20.722753
1214.323390	-2.984200	3.559300	-10.621000	25.382491	0.000848	20.709051
1215.330629	-3.005100	3.559100	-10.694000	25.385032	0.000846	20.713025
1216.324907	-2.998600	3.558200	-10.669000	25.382752	0.000847	20.730177
1217.324383	-3.007200	3.558700	-10.700000	25.381881	0.000847	20.723613
1218.331922	-2.955600	3.560400	-10.522000	25.328104	0.000844	20.722247
1219.326655	-2.995200	3.557600	-10.655000	25.321073	0.000845	20.715187
1220.327034	-2.997500	3.558500	-10.665000	25.302881	0.000845	20.700239
1221.327208	-2.991900	3.558200	-10.645000	25.322719	0.000846	20.722055
1222.325431	-2.976100	3.557700	-10.586000	25.330179	0.000846	20.711528
1223.327536	-2.996300	3.558200	-10.661000	25.345319	0.000845	20.701124
1224.330145	-3.001100	3.556900	-10.673000	25.355461	0.000842	20.718895
1225.326694	-2.996200	3.557000	-10.656000	25.331804	0.000841	20.709365
1226.327700	-3.010400	3.555900	-10.703000	25.321069	0.000842	20.717554
1227.326968	-3.006600	3.555200	-10.687000	25.336135	0.000842	20.694272
1228.328391	-3.009700	3.555100	-10.697000	25.338373	0.000841	20.728290
1229.331382	-3.013300	3.552900	-10.705000	25.362213	0.000841	20.705285
1230.327960	-2.995900	3.554600	-10.648000	25.411820	0.000840	20.712897
1231.328586	-3.021400	3.553300	-10.734000	25.404617	0.000837	20.729847
1232.327221	-2.997700	3.553000	-10.650000	25.400321	0.000841	20.727430
1233.327992	-2.997000	3.553100	-10.647000	25.413867	0.000839	20.719694
1234.330359	-3.003300	3.553200	-10.671000	25.420132	0.000840	20.730254
1235.328827	-2.990100	3.553800	-10.625000	25.420932	0.000838	20.705925
1236.328934	-3.007300	3.552100	-10.681000	25.417232	0.000837	20.711219
1237.327487	-3.001400	3.552000	-10.660000	25.395786	0.000836	20.705330
1238.327912	-2.997300	3.551700	-10.643000	25.377320	0.000837	20.723774
1239.328961	-3.008600	3.551400	-10.683000	25.387363	0.000835	20.706357
1240.329835	-3.003000	3.551300	-10.663000	25.393132	0.000834	20.742971
1241.329634	-3.002000	3.550500	-10.657000	25.383121	0.000835	20.708260
1242.331125	-3.015800	3.550100	-10.704000	25.398457	0.000834	20.749267
1243.330251	-3.005500	3.550600	-10.670000	25.432906	0.000833	20.707992
1244.330349	-3.024700	3.549400	-10.735000	25.442329	0.000833	20.722196
1245.332283	-2.988500	3.550400	-10.608000	25.450134	0.000831	20.716757
1246.330950	-3.009700	3.548800	-10.681000	25.494395	0.000831	20.723272
1247.340510	-2.996400	3.549100	-10.634000	25.481153	0.000830	20.730837
1248.331314	-2.994900	3.549400	-10.629000	25.476357	0.000832	20.731711
1249.335533	-2.990100	3.549600	-10.613000	25.466991	0.000830	20.708554
1250.336465	-3.014000	3.548000	-10.692000	25.484842	0.000831	20.742129
1251.336230	-2.992800	3.548700	-10.620000	25.463496	0.000828	20.705992
1252.332827	-3.009500	3.546000	-10.671000	25.472837	0.000825	20.710157
1253.335720	-3.026400	3.546700	-10.732000	25.479106	0.000828	20.716927
1254.334867	-3.002400	3.547200	-10.649000	25.467108	0.000827	20.713887
1255.333661	-2.989900	3.546900	-10.603000	25.468154	0.000828	20.711145
1256.339499	-2.993600	3.546600	-10.616000	25.453591	0.000827	20.720229
1257.335334	-3.040200	3.545600	-10.779000	25.468584	0.000827	20.697351
1258.340944	-3.009200	3.545100	-10.666000	25.457798	0.000825	20.726825
1259.336289	-3.013200	3.544500	-10.680000	25.462372	0.000825	20.712925
1260.336619	-3.019400	3.544600	-10.702000	25.451963	0.000825	20.735190
1261.341589	-3.002600	3.543400	-10.638000	25.480691	0.000825	20.746970
1262.336453	-2.998900	3.544400	-10.628000	25.483130	0.000821	20.723339
1263.337450	-3.010800	3.542400	-10.663000	25.514867	0.000824	20.734822
1264.337259	-3.014600	3.543400	-10.682000	25.493250	0.000822	20.726864
1265.337279	-2.982100	3.543500	-10.566000	25.510026	0.000821	20.714786
1266.335628	-3.029400	3.542300	-10.730000	25.521065	0.000823	20.729667
1267.338526	-3.018500	3.543100	-10.694000	25.546614	0.000820	20.735884
1268.339102	-2.995300	3.543100	-10.611000	25.557691	0.000823	20.743690
1269.337475	-3.004400	3.541700	-10.640000	25.547008	0.000820	20.740074
1270.338746	-3.004500	3.541200	-10.638000	25.535483	0.000819	20.748414
1271.336842	-2.990100	3.541100	-10.586000	25.526685	0.000819	20.747165
1272.342779	-3.004200	3.541200	-10.637000	25.526364	0.000820	20.746369
1273.340003	-3.015600	3.540500	-10.676000	25.491999	0.000818	20.737937
1274.348263	-2.979400	3.542100	-10.552000	25.457161	0.000818	20.745626
1275.339571	-2.997800	3.538300	-10.606000	25.408106	0.000817	20.719125
1276.339061	-3.011200	3.538500	-10.655000	25.412204	0.000819	20.732724
1277.342693	-2.999700	3.539800	-10.617000	25.411658	0.000819	20.726011
1278.340469	-2.989600	3.538700	-10.579000	25.446555	0.000816	20.739717
1279.339120	-2.980300	3.539800	-10.548000	25.476577	0.000815	20.739993
1280.340173	-2.985400	3.539500	-10.565000	25.449190	0.000814	20.734777
1281.342302	-2.993500	3.538700	-10.592000	25.481224	0.000813	20.737073
1282.338943	-3.005900	3.536500	-10.629000	25.494026	0.000815	20.761309
1283.341433	-3.004100	3.537100	-10.624000	25.509184	0.000814	20.751876
1284.340070	-2.992700	3.537400	-10.586000	25.524244	0.000815	20.727643
1285.344492	-3.002600	3.535400	-10.614000	25.503201	0.000812	20.740651
1286.342484	-3.008100	3.535800	-10.635000	25.484910	0.000813	20.741723
1287.341733	-2.998300	3.537500	-10.606000	25.491799	0.000813	20.743426
1288.343654	-2.976400	3.537300	-10.528000	25.506986	0.000813	20.734968
1289.342570	-3.007200	3.536100	-10.633000	25.539864	0.000810	20.748072
1290.343362	-3.013100	3.534600	-10.649000	25.505598	0.000808	20.751593
1291.344100	-3.046700	3.532900	-10.762000	25.509678	0.000808	20.761855
1292.343454	-3.014100	3.534000	-10.651000	25.515023	0.000808	20.729289
1293.343966	-2.993600	3.533900	-10.578000	25.516493	0.000808	20.749258
1294.346964	-2.998700	3.534600	-10.598000	25.530358	0.000808	20.733309
1295.344791	-2.971500	3.535200	-10.503000	25.576631	0.000808	20.770773
1296.345152	-2.986100	3.533900	-10.552000	25.575888	0.000808	20.728299
1297.346817	-2.999000	3.534100	-10.596000	25.589960	0.000805	20.751916
1298.346438	-3.009100	3.531800	-10.627000	25.591676	0.000805	20.744156
1299.347906	-3.020400	3.531400	-10.665000	25.581564	0.000805	20.753441
1300.346237	-3.033000	3.532100	-10.711000	25.566386	0.000805	20.757638
1301.353528	-3.026800	3.531300	-10.687000	25.546285	0.000804	20.740296
1302.347017	-2.985300	3.533000	-10.546000	25.520662	0.000804	20.753445
1303.349463	-3.006900	3.529800	-10.613000	25.510976	0.000803	20.779754
1304.351519	-3.002800	3.530100	-10.599000	25.520920	0.000804	20.743272
1305.348582	-3.018600	3.530100	-10.656000	25.527406	0.000801	20.744096
1306.350018	-2.968700	3.532000	-10.483000	25.499578	0.000801	20.746022
1307.347081	-2.996100	3.531000	-10.578000	25.498112	0.000802	20.762568
1308.346283	-3.006900	3.528100	-10.608000	25.456392	0.000799	20.751492
1309.348467	-3.034600	3.528800	-10.707000	25.504603	0.000801	20.750119
1310.350382	-2.998200	3.527800	-10.576000	25.484899	0.000800	20.758308
1311.348461	-3.003800	3.528500	-10.598000	25.526202	0.000799	20.762802
1312.352940	-2.999800	3.527500	-10.580000	25.524120	0.000798	20.756918
1313.350341	-2.993900	3.527900	-10.561000	25.504142	0.000799	20.786167
1314.351398	-2.984400	3.528000	-10.528000	25.495076	0.000798	20.762364
1315.353873	-2.974800	3.528300	-10.496000	25.499026	0.000796	20.747838
1316.351983	-3.002900	3.526500	-10.589000	25.499300	0.000796	20.749536
1317.351735	-2.994900	3.525400	-10.558000	25.530417	0.000793	20.747120
1318.350998	-2.989400	3.526000	-10.540000	25.563692	0.000794	20.749243
1319.351360	-3.009600	3.525200	-10.609000	25.577314	0.000796	20.757234
1320.351566	-3.020400	3.524500	-10.645000	25.570359	0.000792	20.772060
1321.354384	-2.980900	3.524600	-10.504000	25.614964	0.000793	20.753794
1322.350982	-3.009600	3.524300	-10.605000	25.602442	0.000793	20.751176
1323.351502	-3.014000	3.524400	-10.621000	25.628088	0.000792	20.766027
1324.356784	-2.998100	3.524800	-10.566000	25.623892	0.000795	20.756597
1325.352391	-3.016300	3.523500	-10.627000	25.635945	0.000792	20.761590
1326.351038	-3.009100	3.524100	-10.603000	25.691085	0.000791	20.761495
1327.351789	-3.012000	3.523700	-10.612000	25.686713	0.000790	20.760423
1328.352798	-3.001900	3.521900	-10.572000	25.662045	0.000790	20.794917
1329.353665	-3.009800	3.521200	-10.598000	25.619129	0.000788	20.772203
1330.353508	-3.013600	3.522200	-10.614000	25.585071	0.000790	20.740841
1331.352739	-2.997300	3.520700	-10.551000	25.554833	0.000789	20.768796
1332.354254	-3.030200	3.519800	-10.665000	25.553220	0.000786	20.784245
1333.353744	-3.020100	3.520000	-10.628000	25.569325	0.000787	20.759168
1334.353224	-2.996000	3.522300	-10.552000	25.588609	0.000787	20.779483
1335.356628	-2.981600	3.522000	-10.500000	25.597960	0.000784	20.763744
1336.356830	-2.995500	3.520300	-10.544000	25.625195	0.000783	20.762173
1337.355497	-2.995700	3.520500	-10.546000	25.639538	0.000787	20.774208
1338.356207	-2.996200	3.519000	-10.542000	25.619114	0.000785	20.778826
1339.354385	-3.003100	3.518800	-10.567000	25.573520	0.000784	20.772864
1340.354353	-3.000800	3.517800	-10.555000	25.546686	0.000784	20.790012
1341.358009	-3.025200	3.519300	-10.644000	25.530809	0.000784	20.776438
1342.356019	-2.995100	3.517100	-10.532000	25.554371	0.000781	20.792040
1343.358809	-2.999500	3.518600	-10.553000	25.530969	0.000782	20.787030
1344.357091	-3.015400	3.516700	-10.602000	25.519838	0.000782	20.780593
1345.358794	-2.985300	3.517400	-10.499000	25.564051	0.000780	20.784691
1346.362197	-3.031300	3.515000	-10.653000	25.583088	0.000780	20.785318
1347.362199	-2.983900	3.515400	-10.488000	25.596110	0.000780	20.778482
1348.359843	-3.022500	3.514400	-10.622000	25.604435	0.000779	20.782102
1349.359203	-2.987400	3.515300	-10.502000	25.597333	0.000780	20.769278
1350.360809	-2.992800	3.514100	-10.515000	25.569707	0.000780	20.780889
1351.361640	-2.986600	3.514400	-10.495000	25.566878	0.000779	20.772358
1352.363436	-2.992600	3.514600	-10.517000	25.561840	0.000779	20.799067
1353.362100	-2.995400	3.514900	-10.527000	25.583657	0.000778	20.787312
1354.365293	-3.005900	3.513600	-10.559000	25.581050	0.000778	20.790858
1355.362689	-2.990600	3.513700	-10.506000	25.605903	0.000776	20.787369
1356.363156	-3.007500	3.513100	-10.564000	25.591641	0.000778	20.778735
1357.365886	-3.011800	3.511500	-10.573000	25.585931	0.000777	20.785328
1358.363885	-3.024700	3.512500	-10.622000	25.603854	0.000778	20.785311
1359.364374	-3.006800	3.512200	-10.559000	25.624951	0.000775	20.772834
1360.362487	-2.999800	3.512200	-10.535000	25.640235	0.000776	20.797668
1361.363827	-2.985400	3.513200	-10.486000	25.640707	0.000775	20.784391
1362.362923	-2.994500	3.510900	-10.512000	25.643667	0.000775	20.778829
1363.370401	-3.007000	3.510600	-10.554000	25.678524	0.000774	20.776854
1364.362864	-3.014000	3.510300	-10.580000	25.679968	0.000774	20.790159
1365.364310	-3.014300	3.509900	-10.578000	25.678429	0.000774	20.783872
1366.375144	-3.010900	3.508100	-10.561000	25.648437	0.000773	20.765128
1367.367379	-3.005100	3.510200	-10.547000	25.618575	0.000775	20.794880
1368.369078	-3.005300	3.510200	-10.548000	25.652341	0.000771	20.803662
1369.365699	-2.985300	3.508500	-10.472000	25.653860	0.000773	20.802817
1370.366757	-2.974500	3.508600	-10.435000	25.649213	0.000771	20.786770
1371.369187	-2.992500	3.507700	-10.496000	25.698975	0.000771	20.784593
1372.368934	-2.968200	3.507900	-10.411000	25.703798	0.000770	20.808404
1373.368974	-2.983100	3.508000	-10.464000	25.729585	0.000769	20.817236
1374.367623	-3.009300	3.506700	-10.552000	25.745684	0.000768	20.801164
1375.373977	-3.010800	3.505800	-10.554000	25.743697	0.000767	20.793953
1376.368010	-2.997300	3.507000	-10.510000	25.711992	0.000768	20.796719
1377.366541	-2.987900	3.505800	-10.474000	25.689381	0.000767	20.808623
1378.368137	-2.998700	3.504600	-10.507000	25.659119	0.000766	20.800513
1379.371286	-3.022300	3.504200	-10.589000	25.665753	0.000766	20.792003
1380.368855	-2.998200	3.505500	-10.510000	25.675617	0.000766	20.795272
1381.371666	-2.990100	3.505400	-10.481000	25.704636	0.000766	20.819677
1382.370507	-3.005900	3.502600	-10.527000	25.691393	0.000766	20.832454
1383.371833	-2.979000	3.503700	-10.436000	25.707915	0.000765	20.811591
1384.374652	-3.008000	3.502300	-10.534000	25.727598	0.000765	20.802438
1385.371683	-2.989400	3.502400	-10.469000	25.723297	0.000765	20.805704
1386.377604	-2.983500	3.503400	-10.451000	25.746534	0.000764	20.789689
1387.373629	-3.010400	3.502400	-10.542000	25.742405	0.000766	20.812094
1388.373405	-2.996800	3.500900	-10.491000	25.771072	0.000766	20.821924
1389.374776	-3.003600	3.501100	-10.514000	25.744913	0.000764	20.804656
1390.375731	-3.008200	3.501900	-10.534000	25.770797	0.000764	20.826389
1391.375222	-3.013800	3.500400	-10.548000	25.773383	0.000761	20.821400
1392.373197	-3.004300	3.499400	-10.511000	25.793730	0.000764	20.797742
1393.371724	-3.020000	3.499000	-10.565000	25.793726	0.000764	20.824765
1394.373285	-3.001900	3.499000	-10.501000	25.784113	0.000763	20.802781
1395.373465	-2.996300	3.500300	-10.486000	25.789182	0.000761	20.828261
1396.372571	-2.993100	3.499900	-10.473000	25.782594	0.000761	20.822118
1397.375482	-3.015900	3.498500	-10.551000	25.759612	0.000760	20.823214
1398.373174	-3.016400	3.498700	-10.551000	25.730817	0.000758	20.831275
1399.374946	-2.986500	3.498900	-10.448000	25.723712	0.000758	20.834569
1400.376110	-2.964600	3.496800	-10.366000	25.757967	0.000757	20.829148
1401.375280	-3.043700	3.495300	-10.636000	25.762215	0.000758	20.813975
1402.376330	-3.031200	3.495200	-10.593000	25.790513	0.000758	20.830545
1403.373734	-3.001800	3.495800	-10.492000	25.796124	0.000755	20.835708
1404.374783	-3.008100	3.494300	-10.510000	25.820197	0.000757	20.845190
1405.379274	-2.993100	3.495700	-10.462000	25.807547	0.000755	20.835803
1406.373311	-3.015200	3.496300	-10.541000	25.813909	0.000753	20.833184
1407.376420	-2.995900	3.494900	-10.468000	25.796469	0.000755	20.830364
1408.374647	-2.979700	3.494700	-10.412000	25.764120	0.000754	20.822053
1409.374204	-2.995400	3.494700	-10.467000	25.761017	0.000751	20.836953
1410.375333	-3.001000	3.493800	-10.484000	25.763525	0.000752	20.837575
1411.379488	-3.001600	3.493600	-10.485000	25.775552	0.000751	20.847759
1412.375750	-2.997800	3.492800	-10.469000	25.795451	0.000750	20.841195
1413.381506	-3.000800	3.493300	-10.482000	25.783474	0.000750	20.832958
1414.376896	-2.997200	3.493600	-10.470000	25.769517	0.000750	20.839327
1415.379243	-3.006700	3.493600	-10.504000	25.789216	0.000750	20.836829
1416.375435	-3.016400	3.491700	-10.531000	25.760446	0.000748	20.840173
1417.375646	-3.015300	3.490900	-10.525000	25.758456	0.000748	20.837225
1418.379677	-3.018400	3.490800	-10.535000	25.770117	0.000747	20.866480
1419.374939	-3.012600	3.489800	-10.512000	25.784228	0.000750	20.842724
1420.377523	-2.998000	3.490600	-10.464000	25.790886	0.000748	20.851308
1421.382370	-3.001700	3.489600	-10.473000	25.793271	0.000748	20.840428
1422.379569	-2.998500	3.489100	-10.461000	25.770092	0.000747	20.850335
1423.380891	-2.990700	3.488800	-10.433000	25.767210	0.000748	20.840329
1424.383090	-2.991300	3.488200	-10.433000	25.765355	0.000745	20.838465
1425.380187	-3.005100	3.489000	-10.483000	25.781178	0.000747	20.845825
1426.381863	-3.010800	3.488700	-10.501000	25.781527	0.000746	20.864666
1427.383237	-3.011400	3.487900	-10.502000	25.769427	0.000745	20.855357
1428.380043	-3.002600	3.487600	-10.471000	25.781027	0.000745	20.854207
1429.383637	-3.020100	3.485000	-10.524000	25.756558	0.000745	20.859500
1430.386253	-3.000400	3.486100	-10.458000	25.753648	0.000743	20.855155
1431.381398	-3.007200	3.485800	-10.482000	25.763167	0.000743	20.856655
1432.383840	-3.015400	3.486500	-10.512000	25.793123	0.000743	20.853081
1433.387614	-3.008400	3.484300	-10.481000	25.759461	0.000741	20.860993
1434.384462	-3.001800	3.485500	-10.462000	25.722763	0.000742	20.835513
1435.385598	-2.977000	3.485300	-10.374000	25.686114	0.000743	20.853230
1436.388643	-3.016900	3.482300	-10.504000	25.679879	0.000741	20.872096
1437.385189	-3.000000	3.483500	-10.447000	25.670191	0.000741	20.859995
1438.384502	-3.000300	3.484100	-10.452000	25.649764	0.000738	20.851333
1439.387544	-2.995400	3.483700	-10.434000	25.686960	0.000740	20.839381
1440.387264	-3.009200	3.482200	-10.477000	25.676024	0.000740	20.856846
1441.385408	-3.010900	3.482500	-10.484000	25.684497	0.000738	20.860614
1442.387077	-3.008300	3.482700	-10.476000	25.715753	0.000737	20.840799
1443.387146	-3.003400	3.481500	-10.455000	25.718412	0.000739	20.856272
1444.387313	-2.992100	3.481100	-10.415000	25.736375	0.000737	20.828323
1445.391416	-3.022600	3.481000	-10.521000	25.775428	0.000736	20.836256
1446.388676	-3.008900	3.481000	-10.473000	25.747923	0.000738	20.853671
1447.389214	-3.004300	3.481000	-10.457000	25.720096	0.000737	20.854170
1448.389798	-3.006900	3.480000	-10.464000	25.704448	0.000735	20.834660
1449.388690	-3.003700	3.480800	-10.454000	25.668513	0.000736	20.846456
1450.392970	-3.005700	3.480700	-10.460000	25.669703	0.000734	20.841488
1451.392593	-2.983000	3.480600	-10.382000	25.675467	0.000736	20.835424
1452.389400	-3.005600	3.478000	-10.453000	25.677581	0.000733	20.847029
1453.389472	-2.997800	3.478600	-10.426000	25.672663	0.000732	20.845409
1454.395465	-2.994100	3.478500	-10.414000	25.657359	0.000732	20.827668
1455.392385	-3.023600	3.476100	-10.509000	25.663098	0.000733	20.842915
1456.391066	-2.991000	3.477700	-10.401000	25.709386	0.000731	20.834879
1457.392025	-3.015300	3.477100	-10.484000	25.717190	0.000732	20.829915
1458.390987	-3.002900	3.477200	-10.441000	25.727600	0.000731	20.834681
1459.391536	-3.000800	3.476000	-10.430000	25.735230	0.000731	20.831440
1460.397405	-3.003600	3.476000	-10.439000	25.709111	0.000732	20.827491
1461.391896	-2.970400	3.477400	-10.328000	25.687149	0.000729	20.834830
1462.391908	-3.006900	3.475000	-10.448000	25.648692	0.000731	20.839826
1463.396856	-2.997500	3.475300	-10.416000	25.673812	0.000727	20.822856
1464.392167	-3.015900	3.473800	-10.476000	25.685019	0.000726	20.804715
1465.393089	-3.020000	3.474400	-10.492000	25.695749	0.000727	20.832562
1466.398200	-3.005300	3.472200	-10.434000	25.723852	0.000728	20.806261
1467.395092	-2.999600	3.473600	-10.419000	25.716500	0.000726	20.822110
1468.393521	-3.018000	3.472400	-10.479000	25.770014	0.000725	20.827499
1469.397592	-3.000900	3.471500	-10.417000	25.775954	0.000727	20.792214
1470.396012	-3.021400	3.471200	-10.486000	25.772198	0.000724	20.822106
1471.393109	-3.013400	3.471000	-10.459000	25.746014	0.000724	20.822357
1472.396341	-3.007000	3.471600	-10.439000	25.720847	0.000723	20.815097
1473.396567	-2.981700	3.470600	-10.346000	25.692251	0.000724	20.817669
1474.394391	-2.976700	3.470200	-10.329000	25.651250	0.000726	20.828171
1475.398235	-2.988600	3.469400	-10.366000	25.650950	0.000723	20.802266
1476.394642	-2.975400	3.470500	-10.325000	25.612464	0.000722	20.810553
1477.396175	-3.004700	3.469100	-10.423000	25.595365	0.000723	20.824201
1478.401066	-2.994700	3.470100	-10.392000	25.638352	0.000722	20.825174
1479.396695	-3.011600	3.468900	-10.446000	25.664292	0.000720	20.818511
1480.395592	-2.965000	3.469200	-10.285000	25.702309	0.000722	20.808331
1481.397441	-3.000800	3.467300	-10.403000	25.699723	0.000721	20.807630
1482.399006	-3.003000	3.466200	-10.408000	25.670183	0.000720	20.815893
1483.395823	-3.000700	3.467200	-10.401000	25.677092	0.000720	20.800547
1484.400037	-2.998000	3.466800	-10.392000	25.637707	0.000720	20.802715
1485.399105	-2.992700	3.465800	-10.371000	25.661037	0.000721	20.789637
1486.396283	-3.001700	3.465300	-10.401000	25.672515	0.000719	20.805433
1487.400207	-2.985500	3.465500	-10.345000	25.681460	0.000719	20.816787
1488.399911	-3.000400	3.465200	-10.395000	25.704292	0.000717	20.806055
1489.398301	-3.014000	3.464600	-10.441000	25.696341	0.000719	20.802336
1490.402253	-2.999500	3.466200	-10.395000	25.714205	0.000718	20.784718
1491.400514	-2.969400	3.465600	-10.290000	25.701530	0.000717	20.811341
1492.400651	-2.977600	3.465400	-10.317000	25.695216	0.000718	20.793621
1493.402095	-3.019100	3.461900	-10.450000	25.703513	0.000716	20.805272
1494.401731	-3.000100	3.462600	-10.388000	25.718914	0.000714	20.808414
1495.397538	-2.976300	3.462500	-10.304000	25.700458	0.000713	20.797463
1496.403329	-2.987500	3.463500	-10.345000	25.693447	0.000714	20.802749
1497.401313	-2.985500	3.462200	-10.334000	25.702039	0.000714	20.784827
1498.398590	-3.011000	3.460800	-10.419000	25.686510	0.000713	20.785350
1499.400388	-3.008700	3.460500	-10.410000	25.683103	0.000711	20.809429
1500.403222	-2.981200	3.461200	-10.317000	25.704621	0.000712	20.800222
1501.399638	-3.001900	3.460400	-10.385000	25.717388	0.000710	20.805459
1502.402170	-3.006700	3.459700	-10.402000	25.751352	0.000712	20.800693
1503.400894	-3.000400	3.459600	-10.380000	25.796963	0.000710	20.803835
1504.400474	-2.990800	3.459400	-10.345000	25.826479	0.000710	20.801715
1505.402770	-2.971700	3.459400	-10.280000	25.824070	0.000707	20.791708
1506.402360	-2.999200	3.457600	-10.369000	25.795050	0.000707	20.802387
1507.400408	-2.983500	3.458700	-10.317000	25.789587	0.000710	20.790261
1508.401709	-2.984100	3.458800	-10.320000	25.769138	0.000708	20.818084
1509.402264	-2.979400	3.456800	-10.298000	25.769634	0.000707	20.801039
1510.399958	-2.984600	3.457200	-10.317000	25.788142	0.000707	20.771740
1511.404349	-3.007700	3.456000	-10.393000	25.812294	0.000707	20.803587
1512.405888	-3.001700	3.455500	-10.371000	25.767496	0.000704	20.797469
1513.402794	-2.997800	3.455300	-10.357000	25.737162	0.000706	20.809199
1514.405435	-2.988400	3.455000	-10.324000	25.755001	0.000703	20.776857
1515.406677	-2.991300	3.455500	-10.335000	25.759964	0.000707	20.787532
1516.401944	-3.005900	3.454400	-10.383000	25.771822	0.000703	20.792805
1517.405537	-2.997600	3.454700	-10.355000	25.797435	0.000703	20.797196
1518.403891	-3.012500	3.452500	-10.400000	25.792387	0.000702	20.794970
1519.405965	-2.977300	3.453800	-10.282000	25.783418	0.000703	20.799238
1520.402595	-2.996600	3.452800	-10.345000	25.804413	0.000701	20.794723
1521.402160	-2.997900	3.452800	-10.348000	25.828708	0.000701	20.786411
1522.403392	-2.993200	3.452600	-10.334000	25.862541	0.000701	20.792422
1523.405008	-3.004600	3.452200	-10.370000	25.886768	0.000702	20.803484
1524.405466	-2.995200	3.451100	-10.335000	25.874218	0.000699	20.790876
1525.405888	-3.027900	3.449700	-10.443000	25.885845	0.000697	20.791177
1526.405707	-2.984200	3.451000	-10.297000	25.865845	0.000700	20.777724
1527.405513	-2.991700	3.451300	-10.324000	25.881766	0.000697	20.787553
1528.404377	-2.988300	3.450800	-10.311000	25.871833	0.000696	20.769988
1529.408384	-2.979600	3.450000	-10.278000	25.876726	0.000698	20.797663
1530.407525	-2.969200	3.450200	-10.243000	25.865796	0.000697	20.791899
1531.405871	-3.006800	3.449200	-10.371000	25.870614	0.000696	20.770661
1532.405517	-3.003400	3.448800	-10.357000	25.824066	0.000694	20.794550
1533.406787	-2.987300	3.449000	-10.301000	25.845532	0.000696	20.782448
1534.410451	-3.018700	3.447700	-10.405000	25.851541	0.000692	20.773311
1535.406742	-2.995700	3.447300	-10.326000	25.842429	0.000694	20.787866
1536.409729	-2.999200	3.447700	-10.338000	25.802832	0.000694	20.778910
1537.408078	-2.995400	3.447400	-10.324000	25.862109	0.000694	20.787721
1538.407768	-3.006600	3.446800	-10.362000	25.850063	0.000692	20.774197
1539.408385	-3.006700	3.446600	-10.362000	25.860919	0.000691	20.767559
1540.409924	-2.993900	3.446700	-10.318000	25.874635	0.000692	20.793192
1541.411053	-3.013700	3.446300	-10.384000	25.892402	0.000691	20.794919
1542.410117	-2.997400	3.446100	-10.329000	25.882889	0.000692	20.771137
1543.416421	-3.020200	3.444400	-10.401000	25.854375	0.000692	20.776159
1544.411633	-3.001800	3.445200	-10.339000	25.804215	0.000691	20.776505
1545.410345	-3.010000	3.444400	-10.367000	25.794679	0.000690	20.771194
1546.410395	-3.013600	3.443600	-10.377000	25.793415	0.000688	20.783675
1547.411594	-2.988900	3.443300	-10.290000	25.804321	0.000690	20.765232
1548.410853	-3.010300	3.443100	-10.364000	25.826186	0.000688	20.769178
1549.412003	-2.988700	3.442700	-10.288000	25.850287	0.000688	20.769207
1550.412646	-3.013000	3.441600	-10.368000	25.868970	0.000688	20.787975
1551.413357	-2.984500	3.441900	-10.272000	25.860626	0.000687	20.762048
1552.412923	-2.991700	3.441200	-10.293000	25.850192	0.000687	20.770534
1553.413565	-3.002900	3.440600	-10.331000	25.841372	0.000684	20.786330
1554.412270	-2.983100	3.442100	-10.266000	25.837202	0.000686	20.754165
1555.413910	-3.012100	3.440200	-10.361000	25.828410	0.000686	20.763351
1556.412820	-2.988600	3.440400	-10.281000	25.860531	0.000685	20.774756
1557.412973	-2.981600	3.440000	-10.256000	25.899833	0.000685	20.761133
1558.413144	-2.994200	3.439900	-10.299000	25.886100	0.000684	20.768674
1559.412789	-2.989300	3.439600	-10.280000	25.866252	0.000683	20.774339
1560.413655	-3.012800	3.437900	-10.356000	25.855823	0.000683	20.744895
1561.413654	-2.992900	3.437900	-10.288000	25.874329	0.000683	20.766806
1562.412814	-3.028200	3.437800	-10.408000	25.865464	0.000684	20.760270
1563.414306	-2.988500	3.437700	-10.273000	25.845569	0.000681	20.743604
1564.413485	-3.008300	3.436700	-10.337000	25.810616	0.000680	20.760649
1565.414062	-3.000900	3.437500	-10.314000	25.790375	0.000681	20.757388
1566.417206	-3.004300	3.438000	-10.328000	25.819641	0.000681	20.787260
1567.415806	-3.006100	3.437400	-10.331000	25.812713	0.000680	20.764178
1568.415249	-3.003600	3.436000	-10.319000	25.833358	0.000679	20.763581
1569.418161	-3.007900	3.435400	-10.331000	25.875818	0.000679	20.765456
1570.414065	-3.011800	3.434900	-10.344000	25.875990	0.000679	20.742395
1571.414785	-3.011900	3.435100	-10.345000	25.911147	0.000677	20.755903
1572.417433	-3.024200	3.432900	-10.380000	25.908118	0.000678	20.727728
1573.415524	-2.989600	3.435000	-10.268000	25.867978	0.000678	20.763745
1574.416885	-2.996800	3.433700	-10.289000	25.862343	0.000677	20.750023
1575.418755	-2.988900	3.433600	-10.262000	25.885520	0.000678	20.757659
1576.417414	-3.010700	3.433000	-10.333000	25.866595	0.000676	20.761881
1577.417546	-2.975800	3.433200	-10.215000	25.881604	0.000675	20.743767
1578.421241	-2.976200	3.432800	-10.215000	25.861058	0.000675	20.736403
1579.416708	-3.005500	3.430600	-10.309000	25.815396	0.000676	20.744114
1580.416822	-2.993400	3.431800	-10.271000	25.797709	0.000675	20.745314
1581.418653	-3.000300	3.430700	-10.291000	25.782333	0.000674	20.742196
1582.417085	-3.006200	3.430200	-10.310000	25.793912	0.000674	20.742448
1583.415905	-2.989800	3.431100	-10.258000	25.827102	0.000674	20.728845
1584.419116	-2.993200	3.430500	-10.267000	25.849237	0.000673	20.752030
1585.417222	-2.995600	3.430300	-10.275000	25.819824	0.000674	20.735760
1586.417254	-3.009600	3.429000	-10.319000	25.794430	0.000673	20.746287
1587.420548	-2.989100	3.429100	-10.249000	25.761116	0.000672	20.763559
1588.417695	-2.975900	3.429500	-10.205000	25.754158	0.000674	20.754199
1589.418787	-3.006200	3.427900	-10.305000	25.690877	0.000671	20.733311
1590.420927	-3.010200	3.427800	-10.317000	25.663443	0.000670	20.746060
1591.419291	-3.005500	3.427000	-10.298000	25.622026	0.000670	20.743817
1592.416449	-2.997900	3.427600	-10.274000	25.577869	0.000670	20.752101
1593.422180	-3.003200	3.426700	-10.291000	25.600457	0.000670	20.757242
1594.418375	-3.003700	3.425500	-10.288000	25.624801	0.000669	20.746130
1595.417464	-2.998800	3.426300	-10.274000	25.646867	0.000667	20.727514
1596.421790	-3.002800	3.425600	-10.285000	25.690299	0.000667	20.724669
1597.418414	-3.002000	3.425900	-10.283000	25.727444	0.000667	20.730210
1598.417269	-3.020900	3.424000	-10.343000	25.740884	0.000668	20.733752
1599.420559	-3.020700	3.424100	-10.343000	25.767766	0.000665	20.738943
1600.419062	-2.998800	3.424600	-10.269000	25.753009	0.000668	20.763951
1601.418323	-3.023500	3.423600	-10.349000	25.720909	0.000664	20.759683
1602.423337	-2.989700	3.424000	-10.235000	25.737534	0.000665	20.732284
1603.419032	-3.007600	3.423300	-10.294000	25.766428	0.000664	20.740918
1604.418326	-3.008100	3.422400	-10.294000	25.760115	0.000665	20.754492
1605.422293	-3.024400	3.422500	-10.350000	25.776689	0.000663	20.740795
1606.421067	-3.006700	3.422600	-10.290000	25.769535	0.000665	20.723176
1607.418045	-3.011300	3.422100	-10.304000	25.742078	0.000662	20.731633
1608.422203	-2.986300	3.422400	-10.219000	25.732218	0.000662	20.725996
1609.417818	-3.022900	3.420400	-10.339000	25.734082	0.000660	20.736403
1610.418344	-2.997600	3.419900	-10.251000	25.731619	0.000663	20.724446
1611.421728	-2.978700	3.420600	-10.188000	25.705257	0.000661	20.721675
1612.420296	-2.985900	3.420600	-10.213000	25.722629	0.000659	20.732486
1613.419216	-2.972400	3.421000	-10.167000	25.737760	0.000659	20.733933
1614.421138	-3.008600	3.420400	-10.290000	25.715450	0.000661	20.720058
1615.421565	-3.008800	3.419100	-10.286000	25.670775	0.000659	20.728767
1616.421124	-3.016400	3.417300	-10.307000	25.631567	0.000660	20.743442
1617.423291	-3.003300	3.418200	-10.265000	25.612280	0.000658	20.697042
1618.428896	-3.004000	3.417800	-10.266000	25.564103	0.000659	20.730214
1619.421432	-2.988400	3.417400	-10.212000	25.567010	0.000658	20.732659
1620.422266	-3.006300	3.417800	-10.272000	25.574363	0.000656	20.713490
1621.422822	-2.992300	3.417500	-10.225000	25.634448	0.000654	20.726421
1622.422568	-3.015400	3.415700	-10.298000	25.670824	0.000656	20.722178
1623.423649	-3.043300	3.414200	-10.390000	25.735346	0.000654	20.731509
1624.423583	-2.993800	3.415000	-10.223000	25.751031	0.000653	20.732090
1625.423331	-3.009700	3.415500	-10.279000	25.778430	0.000653	20.720256
1626.425455	-2.970900	3.415700	-10.147000	25.786261	0.000652	20.726701
1627.424569	-3.006000	3.415400	-10.265000	25.792972	0.000654	20.737236
1628.425233	-2.983800	3.415900	-10.191000	25.819356	0.000652	20.720116
1629.426118	-3.012700	3.413900	-10.283000	25.848744	0.000651	20.731620
1630.428189	-3.002500	3.414000	-10.250000	25.864197	0.000652	20.721064
1631.425692	-3.020300	3.412100	-10.305000	25.863927	0.000650	20.723163
1632.430302	-3.009400	3.413400	-10.271000	25.821503	0.000651	20.717056
1633.426682	-3.008600	3.413400	-10.268000	25.807482	0.000649	20.714826
1634.428445	-3.008100	3.413000	-10.265000	25.821946	0.000649	20.706121
1635.431805	-3.016500	3.411300	-10.289000	25.817308	0.000649	20.733706
1636.426222	-3.001900	3.410900	-10.238000	25.811816	0.000647	20.708273
1637.427397	-2.974400	3.411900	-10.147000	25.802199	0.000648	20.720425
1638.431620	-2.979100	3.411500	-10.162000	25.796436	0.000648	20.713687
1639.431839	-2.996000	3.410800	-10.218000	25.793411	0.000646	20.717287
1640.430116	-2.988400	3.409400	-10.187000	25.741162	0.000647	20.706529
1641.438441	-3.002200	3.409900	-10.236000	25.719800	0.000646	20.709729
1642.432006	-3.000300	3.409900	-10.229000	25.713167	0.000644	20.708755
1643.430015	-2.988900	3.409900	-10.190000	25.735009	0.000646	20.720264
1644.436742	-2.991500	3.408200	-10.194000	25.747660	0.000645	20.724911
1645.436147	-2.980000	3.409000	-10.158000	25.761620	0.000643	20.699577
1646.432767	-2.999800	3.409200	-10.226000	25.797450	0.000642	20.727034
1647.438023	-2.999900	3.408400	-10.223000	25.804928	0.000644	20.687128
1648.439078	-3.011000	3.406800	-10.258000	25.843662	0.000643	20.714660
1649.432605	-3.031400	3.405500	-10.323000	25.880150	0.000642	20.723814
1650.437950	-3.005900	3.407200	-10.241000	25.852630	0.000642	20.726989
1651.443219	-3.002200	3.404900	-10.222000	25.890066	0.000642	20.718128
1652.435544	-3.018500	3.405400	-10.278000	25.869524	0.000639	20.715509
1653.439638	-3.005200	3.404800	-10.230000	25.887989	0.000640	20.703238
1654.441398	-2.990600	3.404400	-10.180000	25.885157	0.000642	20.712722
1655.435220	-3.001500	3.403600	-10.215000	25.898796	0.000638	20.715991
1656.440701	-3.000000	3.404200	-10.212000	25.925949	0.000639	20.711501
1657.439021	-2.983100	3.404600	-10.156000	25.975263	0.000640	20.715051
1658.437853	-2.982700	3.403600	-10.151000	25.956335	0.000639	20.731124
1659.446766	-3.012300	3.402000	-10.247000	25.896920	0.000639	20.728807
1660.439542	-2.985800	3.402700	-10.159000	25.865867	0.000639	20.718474
1661.437600	-3.013600	3.401000	-10.249000	25.862567	0.000638	20.694768
1662.440438	-3.000900	3.402100	-10.208000	25.864032	0.000638	20.719475
1663.438592	-3.005300	3.401100	-10.219000	25.845525	0.000638	20.708944
1664.436250	-2.986100	3.400800	-10.154000	25.816035	0.000637	20.717727
1665.440862	-3.003600	3.400800	-10.214000	25.820262	0.000640	20.720077
1666.439192	-2.970600	3.400600	-10.100000	25.840362	0.000637	20.706602
1667.443982	-2.983800	3.401800	-10.149000	25.850996	0.000639	20.722028
1668.445589	-2.991600	3.400900	-10.174000	25.898294	0.000638	20.717385
1669.441651	-2.973500	3.401000	-10.111000	25.908477	0.000636	20.720976
1670.437574	-3.007700	3.398600	-10.220000	25.928550	0.000636	20.718383
1671.441334	-2.997300	3.399000	-10.187000	25.949342	0.000635	20.714614
1672.440514	-3.000800	3.398700	-10.198000	25.905469	0.000637	20.720325
1673.438749	-3.013000	3.397300	-10.234000	25.914239	0.000634	20.720601
1674.442470	-2.994300	3.398000	-10.174000	25.900847	0.000632	20.720898
1675.439804	-3.007300	3.397200	-10.215000	25.928243	0.000633	20.732773
1676.441350	-3.007200	3.397200	-10.215000	25.931945	0.000634	20.711361
1677.443727	-3.012700	3.396400	-10.231000	25.966624	0.000633	20.730081
1678.444483	-2.979700	3.396900	-10.121000	25.983212	0.000631	20.697906
1679.440979	-2.991400	3.396800	-10.159000	25.956208	0.000634	20.736686
1680.443891	-3.006100	3.395000	-10.205000	25.945578	0.000631	20.728378
1681.445560	-3.001000	3.395000	-10.187000	25.968011	0.000633	20.717249
1682.445841	-3.028300	3.394000	-10.276000	25.969271	0.000630	20.727999
1683.443881	-3.011300	3.395000	-10.221000	25.998384	0.000628	20.739230
1684.443394	-2.997400	3.393400	-10.170000	25.983056	0.000630	20.709130
1685.439737	-2.988400	3.393200	-10.139000	26.026819	0.000630	20.731289
1686.447661	-3.011800	3.392300	-10.215000	26.022596	0.000629	20.718037
1687.445884	-3.015300	3.394000	-10.232000	26.052820	0.000629	20.731809
1688.442382	-3.002400	3.394600	-10.191000	26.055007	0.000628	20.719781
1689.448864	-3.007100	3.391000	-10.196000	26.068287	0.000629	20.729805
1690.448917	-2.996700	3.392100	-10.163000	26.079834	0.000627	20.726234
1691.445242	-2.980200	3.391900	-10.106000	26.077573	0.000629	20.723962
1692.451256	-3.000600	3.392100	-10.176000	26.124168	0.000627	20.720993
1693.448942	-3.003100	3.391600	-10.185000	26.118403	0.000627	20.727529
1694.446298	-3.005300	3.390600	-10.188000	26.116532	0.000626	20.756945
1695.449776	-2.987200	3.390800	-10.127000	26.114394	0.000627	20.748158
1696.448065	-2.987500	3.390500	-10.129000	26.109819	0.000624	20.739293
1697.446744	-3.019000	3.388800	-10.229000	26.118140	0.000624	20.752397
1698.450354	-2.995900	3.390100	-10.155000	26.127377	0.000624	20.757411
1699.449057	-2.995600	3.388800	-10.150000	26.104624	0.000624	20.735022
1700.446210	-2.990200	3.390400	-10.137000	26.111706	0.000623	20.742612
1701.450098	-2.985200	3.388800	-10.115000	26.075732	0.000623	20.751036
1702.451919	-2.987100	3.389200	-10.123000	26.048488	0.000622	20.732671
1703.448853	-2.980000	3.389400	-10.099000	26.044983	0.000620	20.743850
1704.455798	-3.004900	3.388000	-10.179000	26.048779	0.000620	20.738654
1705.449101	-2.986300	3.387100	-10.113000	26.059112	0.000620	20.746666
1706.449403	-2.991900	3.387800	-10.135000	26.033153	0.000618	20.746662
1707.454240	-2.992400	3.388300	-10.137000	26.037749	0.000621	20.736581
1708.452090	-3.016400	3.386800	-10.215000	26.002424	0.000619	20.739496
1709.453920	-3.038500	3.385800	-10.287000	25.983472	0.000619	20.717135
1710.451179	-2.989700	3.387200	-10.126000	25.940819	0.000617	20.746831
1711.453786	-2.993300	3.385100	-10.131000	25.958159	0.000617	20.731534
1712.453146	-3.008700	3.384100	-10.181000	25.975100	0.000616	20.750926
1713.452866	-3.020000	3.384400	-10.220000	25.996810	0.000616	20.749977
1714.453765	-3.016800	3.383500	-10.206000	26.026964	0.000614	20.740444
1715.452415	-3.011100	3.383900	-10.188000	26.016504	0.000615	20.765497
1716.456136	-2.984400	3.384000	-10.099000	26.004976	0.000613	20.755338
1717.455245	-2.992500	3.382700	-10.121000	26.015634	0.000614	20.755614
1718.456705	-3.010800	3.383600	-10.186000	25.988187	0.000613	20.755540
1719.456762	-3.009500	3.382600	-10.178000	25.958553	0.000613	20.758484
1720.456728	-2.991700	3.383200	-10.121000	25.933789	0.000614	20.747355
1721.456674	-2.980900	3.381800	-10.079000	25.898887	0.000613	20.742164
1722.458805	-3.007400	3.381800	-10.169000	25.931302	0.000611	20.747227
1723.459630	-3.006700	3.380600	-10.163000	25.932669	0.000611	20.770886
1724.460157	-3.012800	3.381900	-10.188000	25.963494	0.000611	20.777199
1725.459177	-3.016900	3.380100	-10.197000	25.942851	0.000611	20.764520
1726.462640	-2.995600	3.380400	-10.126000	25.957457	0.000610	20.773030
1727.461874	-3.024300	3.378800	-10.216000	25.994294	0.000610	20.775426
1728.459032	-3.002900	3.380200	-10.150000	25.999362	0.000609	20.775302
1729.466000	-3.004800	3.378600	-10.151000	26.024474	0.000609	20.757857
1730.462198	-3.010900	3.378000	-10.170000	26.035792	0.000607	20.764961
1731.465846	-3.003000	3.377700	-10.142000	26.069971	0.000607	20.753783
1732.464851	-3.011800	3.378000	-10.173000	26.084600	0.000606	20.772276
1733.463176	-3.015500	3.376000	-10.179000	26.111252	0.000606	20.762071
1734.462870	-3.009000	3.377200	-10.161000	26.103230	0.000604	20.754010
1735.465326	-2.992100	3.378500	-10.107000	26.086365	0.000605	20.774049
1736.466174	-3.013900	3.375400	-10.171000	26.062195	0.000605	20.755928
1737.464379	-3.018200	3.375300	-10.186000	26.028713	0.000605	20.782506
1738.470906	-2.998600	3.377200	-10.127000	26.055436	0.000606	20.773793
1739.463597	-3.006000	3.374300	-10.142000	26.035415	0.000603	20.759841
1740.464495	-2.999000	3.376500	-10.124000	26.007472	0.000603	20.770648
1741.467497	-3.015800	3.375100	-10.178000	25.961767	0.000601	20.779257
1742.464474	-2.986900	3.375200	-10.081000	25.928352	0.000603	20.775558
1743.464694	-2.997500	3.373400	-10.111000	25.929743	0.000602	20.775060
1744.468923	-3.040900	3.372900	-10.256000	25.925418	0.000600	20.783990
1745.465077	-3.023400	3.371300	-10.192000	25.937759	0.000601	20.766991
1746.474444	-3.008700	3.372300	-10.145000	25.974227	0.000600	20.784663
1747.468711	-2.983800	3.372900	-10.063000	26.008281	0.000599	20.777624
1748.466125	-2.996100	3.373100	-10.106000	25.978372	0.000600	20.792620
1749.469009	-3.004700	3.372000	-10.131000	25.967168	0.000599	20.766191
1750.472314	-2.994300	3.372300	-10.097000	25.939544	0.000599	20.778742
1751.468403	-2.990000	3.373100	-10.085000	25.932067	0.000599	20.764591
1752.473885	-3.002100	3.370900	-10.119000	25.901438	0.000598	20.786926
1753.473045	-3.000200	3.372900	-10.118000	25.906281	0.000595	20.793688
1754.468338	-2.967000	3.371400	-10.001000	25.893586	0.000597	20.788048
1755.468287	-2.986400	3.371000	-10.066000	25.932186	0.000598	20.784152
1756.471017	-3.011300	3.370200	-10.148000	25.936881	0.000596	20.776540
1757.468574	-2.988400	3.371300	-10.073000	25.961247	0.000596	20.804813
1758.470265	-2.989400	3.370700	-10.075000	25.998178	0.000595	20.789760
1759.473294	-3.012800	3.369000	-10.149000	26.044157	0.000596	20.790910
1760.472667	-2.977100	3.372100	-10.037000	26.073711	0.000594	20.790258
1761.469510	-3.041700	3.367300	-10.241000	26.074232	0.000593	20.796472
1762.472657	-2.990900	3.370000	-10.079000	26.105698	0.000592	20.801535
1763.471819	-2.999600	3.368400	-10.103000	26.083420	0.000593	20.803807
1764.472764	-3.009200	3.367300	-10.132000	26.047403	0.000594	20.793697
1765.474992	-2.994100	3.367500	-10.082000	26.053189	0.000592	20.797614
1766.473425	-2.988000	3.367900	-10.063000	26.074848	0.000589	20.788082
1767.471841	-3.004800	3.367300	-10.116000	26.056517	0.000592	20.787208
1768.473919	-3.006500	3.366800	-10.121000	26.082374	0.000591	20.799437
1769.474171	-3.006600	3.366500	-10.120000	26.095706	0.000590	20.795763
1770.470799	-2.995800	3.364900	-10.080000	26.088328	0.000589	20.780764
1771.474954	-3.002800	3.365900	-10.106000	26.048294	0.000589	20.794118
1772.475007	-3.000800	3.365300	-10.097000	26.000945	0.000590	20.815299
1773.471284	-2.997600	3.365200	-10.087000	25.978566	0.000588	20.807988
1774.483346	-2.992500	3.365500	-10.070000	25.960628	0.000586	20.797553
1775.473316	-2.997500	3.364600	-10.084000	25.993439	0.000588	20.807758
1776.475399	-3.000800	3.362500	-10.090000	26.006108	0.000586	20.797252
1777.474522	-3.000100	3.364000	-10.091000	26.027419	0.000586	20.809180
1778.473745	-2.991100	3.363100	-10.059000	26.034719	0.000585	20.806558
1779.475208	-2.991500	3.362800	-10.059000	26.069145	0.000586	20.804637
1780.475986	-2.992400	3.363100	-10.062000	26.067056	0.000584	20.803961
1781.474746	-3.019500	3.361500	-10.149000	26.095444	0.000585	20.804983
1782.474630	-2.986100	3.362500	-10.039000	26.126565	0.000585	20.789311
1783.474469	-3.011800	3.360700	-10.120000	26.155698	0.000586	20.826171
1784.474805	-3.000400	3.360300	-10.081000	26.187285	0.000582	20.806703
1785.476738	-3.016000	3.360300	-10.133000	26.186165	0.000583	20.810793
1786.472868	-3.041700	3.358900	-10.216000	26.249396	0.000584	20.809374
1787.475053	-3.038700	3.359500	-10.207000	26.198929	0.000582	20.817456
1788.473820	-3.010400	3.358900	-10.111000	26.177048	0.000580	20.804477
1789.475060	-3.024000	3.358400	-10.155000	26.173248	0.000582	20.811564
1790.473455	-3.021100	3.359500	-10.149000	26.196221	0.000581	20.807148
1791.478973	-3.006300	3.358300	-10.094000	26.205257	0.000580	20.805322
1792.473658	-2.998600	3.358100	-10.069000	26.198728	0.000582	20.830056
1793.475456	-2.989100	3.358700	-10.038000	26.207538	0.000578	20.842701
1794.474802	-3.008500	3.358100	-10.101000	26.174459	0.000579	20.796660
1795.473977	-2.977900	3.358600	-10.001000	26.131818	0.000579	20.808340
1796.475818	-2.997600	3.356300	-10.060000	26.097715	0.000578	20.828601
1797.476520	-3.007000	3.358200	-10.097000	26.079483	0.000575	20.837783
1798.476754	-3.013300	3.356300	-10.112000	26.070045	0.000576	20.815972
1799.478491	-3.006700	3.355300	-10.086000	26.062568	0.000577	20.827900
1800.480989	-2.992900	3.355800	-10.042000	26.064205	0.000577	20.821485
1801.478711	-3.004600	3.355500	-10.081000	26.086434	0.000577	20.815845
1802.478871	-3.004900	3.356200	-10.085000	26.102701	0.000575	20.844990
1803.478937	-3.000800	3.356300	-10.071000	26.134912	0.000575	20.825674
1804.478084	-3.010200	3.355300	-10.099000	26.127214	0.000575	20.826474
1805.480896	-3.007000	3.353200	-10.081000	26.123809	0.000574	20.822104
1806.479144	-2.996100	3.354700	-10.050000	26.142388	0.000573	20.838401
1807.480626	-2.988300	3.354200	-10.023000	26.153463	0.000573	20.820607
1808.480592	-3.002300	3.353000	-10.065000	26.142709	0.000573	20.839197
1809.480266	-2.981400	3.352900	-9.995200	26.176458	0.000571	20.837074
1810.482193	-2.990500	3.353200	-10.026000	26.186441	0.000569	20.839045
1811.483457	-3.003000	3.351300	-10.063000	26.192181	0.000572	20.829166
1812.481306	-3.018700	3.352000	-10.117000	26.175789	0.000570	20.827867
1813.484042	-2.995400	3.351900	-10.039000	26.193843	0.000572	20.821353
1814.482885	-2.991100	3.351100	-10.022000	26.197047	0.000572	20.849228
1815.483100	-3.008000	3.350700	-10.078000	26.206480	0.000569	20.831681
1816.485719	-2.987800	3.351200	-10.012000	26.258383	0.000568	20.819354
1817.483294	-2.982400	3.350500	-9.990600	26.285597	0.000568	20.830581
1818.485652	-2.986600	3.350600	-10.005000	26.292001	0.000569	20.846974
1819.484883	-2.979900	3.351500	-9.987000	26.336523	0.000567	20.847147
1820.488516	-3.003000	3.348700	-10.055000	26.328995	0.000568	20.857125
1821.487647	-2.975600	3.349700	-9.966500	26.367604	0.000567	20.853728
1822.485779	-3.001800	3.349800	-10.054000	26.348011	0.000565	20.828347
1823.488350	-2.997100	3.347900	-10.033000	26.310616	0.000564	20.847663
1824.487563	-2.986000	3.347400	-9.994200	26.278607	0.000567	20.836358
1825.486950	-2.983700	3.347400	-9.985900	26.224666	0.000563	20.846637
1826.487760	-2.989000	3.347100	-10.004000	26.248451	0.000562	20.849676
1827.487122	-2.984100	3.347200	-9.988200	26.270402	0.000565	20.843759
1828.489557	-3.012500	3.346500	-10.081000	26.291658	0.000562	20.857060
1829.490692	-3.007200	3.345400	-10.059000	26.303376	0.000562	20.871205
1830.492492	-2.990400	3.346200	-10.005000	26.299277	0.000560	20.855234
1831.496862	-2.984800	3.346000	-9.986100	26.300890	0.000561	20.858751
1832.490794	-2.991500	3.345800	-10.008000	26.317202	0.000562	20.862816
1833.489570	-2.997900	3.344200	-10.024000	26.288119	0.000561	20.867727
1834.496335	-2.998600	3.344900	-10.029000	26.248933	0.000560	20.851582
1835.491198	-2.999600	3.343900	-10.029000	26.251608	0.000559	20.878925
1836.491888	-3.017800	3.343400	-10.089000	26.274330	0.000558	20.871887
1837.489190	-3.008100	3.344200	-10.058000	26.288759	0.000559	20.837078
1838.491330	-3.004900	3.343300	-10.044000	26.287766	0.000559	20.889182
1839.490571	-3.005900	3.344000	-10.051000	26.264943	0.000557	20.855342
1840.489483	-3.017800	3.342200	-10.085000	26.245643	0.000557	20.854440
1841.489786	-3.000800	3.342100	-10.028000	26.234942	0.000556	20.871661
1842.492328	-3.001800	3.342400	-10.032000	26.234397	0.000555	20.876802
1843.491740	-3.032800	3.341200	-10.132000	26.231808	0.000555	20.871830
1844.496721	-3.017100	3.340400	-10.078000	26.229999	0.000553	20.849150
1845.489667	-3.008900	3.341300	-10.051000	26.222047	0.000553	20.895210
1846.491653	-3.000100	3.340500	-10.020000	26.189888	0.000555	20.882809
1847.493936	-2.985600	3.340000	-9.970400	26.216582	0.000553	20.881185
1848.492382	-2.977000	3.340400	-9.943800	26.247371	0.000552	20.883201
1849.491737	-2.983700	3.340100	-9.965200	26.242132	0.000554	20.860394
1850.491096	-2.991200	3.340000	-9.990000	26.216776	0.000551	20.878534
1851.492443	-2.993700	3.339000	-9.994700	26.230160	0.000552	20.873492
1852.493142	-3.005700	3.339300	-10.035000	26.228395	0.000553	20.879306
1853.495393	-2.997900	3.337100	-10.004000	26.259607	0.000551	20.889333
1854.493036	-3.006100	3.338700	-10.035000	26.269958	0.000554	20.856590
1855.491785	-3.019200	3.337900	-10.076000	26.265413	0.000551	20.876202
1856.493561	-2.981300	3.338000	-9.949700	26.266652	0.000549	20.887878
1857.493186	-2.996700	3.337400	-10.000000	26.255127	0.000550	20.875349
1858.495422	-3.004000	3.337200	-10.023000	26.227388	0.000548	20.885879
1859.496901	-2.984200	3.337300	-9.958200	26.248891	0.000548	20.874298
1860.493815	-2.997300	3.336000	-9.997100	26.235852	0.000548	20.900074
1861.493512	-2.986600	3.337500	-9.966200	26.264458	0.000547	20.884725
1862.493505	-3.002500	3.335200	-10.013000	26.266715	0.000546	20.897897
1863.495217	-3.008900	3.335400	-10.035000	26.274806	0.000548	20.882796
1864.495509	-3.004100	3.335200	-10.018000	26.265517	0.000542	20.890056
1865.495895	-2.996800	3.334300	-9.990800	26.278925	0.000544	20.894996
1866.496036	-3.007800	3.334400	-10.029000	26.305790	0.000545	20.895915
1867.499762	-3.004600	3.334300	-10.017000	26.316071	0.000541	20.905773
1868.493718	-3.009400	3.335400	-10.036000	26.368588	0.000544	20.883638
1869.497205	-2.987300	3.332400	-9.953600	26.385149	0.000543	20.888429
1870.499415	-2.992200	3.333600	-9.973300	26.412086	0.000543	20.918343
1871.499644	-2.997900	3.331900	-9.987800	26.412902	0.000544	20.895459
1872.497289	-3.007900	3.331100	-10.019000	26.375780	0.000539	20.903193
1873.498740	-3.012900	3.330700	-10.034000	26.377667	0.000540	20.903667
1874.497386	-3.023100	3.330000	-10.067000	26.359761	0.000539	20.908429
1875.497461	-2.987700	3.331100	-9.952000	26.345312	0.000539	20.892486
1876.498216	-2.997000	3.330400	-9.980300	26.295593	0.000540	20.893728
1877.498722	-3.007500	3.330800	-10.017000	26.282382	0.000538	20.914115
1878.497832	-3.019300	3.330100	-10.053000	26.278287	0.000539	20.908104
1879.500144	-3.009100	3.329500	-10.018000	26.291839	0.000537	20.908921
1880.500278	-2.979700	3.331200	-9.924800	26.278128	0.000536	20.915055
1881.502537	-2.988900	3.329800	-9.951200	26.302191	0.000535	20.894669
1882.498058	-2.999100	3.328300	-9.980500	26.285082	0.000536	20.888381
1883.503342	-3.011300	3.328800	-10.023000	26.306458	0.000535	20.901801
1884.506174	-2.990800	3.327900	-9.951400	26.327316	0.000535	20.885781
1885.501373	-3.001200	3.327800	-9.986700	26.362626	0.000535	20.886655
1886.505521	-2.974700	3.328100	-9.899300	26.374367	0.000534	20.909359
1887.506162	-2.984400	3.329300	-9.934500	26.382806	0.000534	20.889393
1888.501207	-2.989700	3.328200	-9.949000	26.387179	0.000532	20.916545
1889.504501	-2.990600	3.327300	-9.949800	26.401005	0.000533	20.898673
1890.501949	-3.000400	3.326100	-9.978800	26.410563	0.000531	20.899271
1891.506104	-3.010200	3.325400	-10.009000	26.383401	0.000532	20.896154
1892.501509	-2.988500	3.326000	-9.938500	26.376543	0.000531	20.893055
1893.505888	-3.000100	3.325600	-9.976500	26.338251	0.000531	20.865478
1894.504564	-3.001300	3.325800	-9.980100	26.288585	0.000531	20.872462
1895.505573	-2.976900	3.325200	-9.896600	26.255438	0.000529	20.886091
1896.503466	-3.001200	3.324200	-9.975700	26.213669	0.000532	20.885370
1897.506109	-3.016900	3.322500	-10.023000	26.199929	0.000528	20.899062
1898.504788	-3.022900	3.322700	-10.043000	26.189351	0.000528	20.882744
1899.505811	-2.991600	3.323500	-9.941700	26.180308	0.000527	20.889304
1900.506588	-2.976400	3.322200	-9.887500	26.168413	0.000529	20.867869
1901.505979	-3.017700	3.320600	-10.019000	26.177896	0.000528	20.885458
1902.506985	-2.973900	3.323000	-9.881000	26.182689	0.000528	20.864671
1903.504553	-2.981500	3.322100	-9.904300	26.199622	0.000526	20.903495
1904.505148	-2.992600	3.320200	-9.934200	26.235335	0.000527	20.871581
1905.504772	-2.996600	3.321000	-9.950500	26.284151	0.000525	20.885075
1906.505898	-2.994000	3.320200	-9.938700	26.303323	0.000525	20.884902
1907.506451	-2.991800	3.320800	-9.934600	26.340567	0.000525	20.892934
1908.505678	-2.992200	3.320800	-9.935800	26.354971	0.000524	20.878013
1909.509558	-2.995600	3.320200	-9.944200	26.384217	0.000523	20.880854
1910.506991	-2.993400	3.319800	-9.936300	26.387220	0.000524	20.888139
1911.507211	-2.976700	3.320400	-9.882300	26.415202	0.000520	20.866952
1912.511238	-2.989200	3.319000	-9.919800	26.443778	0.000522	20.881922
1913.512558	-3.009300	3.319500	-9.987500	26.464260	0.000522	20.878802
1914.508389	-3.027900	3.317700	-10.044000	26.459768	0.000521	20.884718
1915.509945	-3.009700	3.318000	-9.985000	26.424084	0.000522	20.884413
1916.510362	-3.017500	3.317000	-10.009000	26.362955	0.000520	20.869443
1917.510532	-2.990200	3.318500	-9.921400	26.339412	0.000520	20.871385
1918.509088	-3.004000	3.317000	-9.962900	26.277084	0.000519	20.880344
1919.510689	-3.036000	3.315600	-10.065000	26.296104	0.000516	20.859631
1920.509999	-2.995800	3.316200	-9.934700	26.292527	0.000518	20.864097
1921.510067	-3.009200	3.314700	-9.972700	26.272908	0.000518	20.871881
1922.510975	-2.997200	3.315300	-9.935100	26.257387	0.000516	20.863396
1923.511684	-3.021600	3.315200	-10.016000	26.269035	0.000516	20.856610
1924.510037	-3.000500	3.314800	-9.944900	26.242954	0.000517	20.874969
1925.512714	-2.998900	3.315200	-9.941000	26.238186	0.000517	20.850739
1926.513352	-3.002200	3.313000	-9.946100	26.209847	0.000515	20.856401
1927.512578	-3.008000	3.314200	-9.966800	26.209273	0.000515	20.851083
1928.513058	-2.981900	3.312600	-9.877200	26.222288	0.000512	20.862738
1929.512169	-2.983200	3.314400	-9.885700	26.230059	0.000513	20.864383
1930.513291	-2.995500	3.312700	-9.921600	26.271876	0.000513	20.876533
1931.518335	-3.005800	3.311800	-9.953400	26.274182	0.000514	20.868894
1932.520373	-2.977100	3.313700	-9.864600	26.279168	0.000511	20.859206
1933.513307	-3.010500	3.310800	-9.966700	26.305790	0.000508	20.869839
1934.515366	-3.011300	3.311100	-9.969400	26.302561	0.000511	20.843362
1935.513693	-2.989300	3.309800	-9.893200	26.309610	0.000511	20.852816
1936.513763	-3.017200	3.310700	-9.986300	26.295428	0.000512	20.864641
1937.518349	-3.008100	3.310300	-9.956700	26.277992	0.000509	20.861343
1938.516637	-3.015100	3.309300	-9.976200	26.287650	0.000509	20.847342
1939.514513	-3.004100	3.309500	-9.941000	26.320627	0.000508	20.842077
1940.526037	-2.978400	3.311900	-9.861800	26.356603	0.000509	20.846465
1941.519626	-3.016800	3.308500	-9.980000	26.375893	0.000504	20.855894
1942.517386	-2.997600	3.309700	-9.919000	26.423837	0.000506	20.879423
1943.522705	-2.991100	3.309400	-9.898000	26.417528	0.000506	20.847480
1944.518252	-3.002500	3.306800	-9.927300	26.413458	0.000506	20.854769
1945.517536	-3.009900	3.307300	-9.953000	26.390113	0.000505	20.859754
1946.519228	-3.022000	3.306600	-9.992100	26.382614	0.000503	20.853166
1947.517901	-3.018500	3.306400	-9.978800	26.365799	0.000504	20.865189
1948.517879	-3.045200	3.304300	-10.061000	26.370394	0.000504	20.853686
1949.518031	-3.022600	3.306300	-9.992600	26.373372	0.000503	20.833447
1950.521248	-2.994300	3.305700	-9.897100	26.403041	0.000502	20.866583
1951.519572	-2.977200	3.305600	-9.840200	26.423918	0.000502	20.853428
1952.518056	-3.022400	3.304200	-9.984800	26.417781	0.000501	20.854372
1953.520805	-3.023900	3.304300	-9.990500	26.398907	0.000501	20.835878
1954.528277	-3.010600	3.304000	-9.945400	26.403748	0.000500	20.849277
1955.518791	-3.005500	3.303400	-9.927200	26.421700	0.000501	20.852621
1956.519050	-2.984100	3.304000	-9.858700	26.411592	0.000497	20.830135
1957.524530	-2.998200	3.303400	-9.902800	26.414219	0.000498	20.854111
1958.520374	-3.013100	3.302700	-9.949200	26.456553	0.000499	20.836918
1959.521200	-2.977100	3.304000	-9.834700	26.410166	0.000498	20.831547
1960.519656	-3.005300	3.303100	-9.924600	26.404234	0.000496	20.848817
1961.520071	-2.973900	3.304000	-9.825200	26.358659	0.000495	20.841419
1962.520001	-3.002400	3.301500	-9.911400	26.357272	0.000497	20.843344
1963.520050	-3.000800	3.301700	-9.905900	26.322581	0.000493	20.862532
1964.521853	-2.969600	3.303400	-9.807800	26.295413	0.000494	20.860359
1965.520753	-2.997800	3.301100	-9.895200	26.329355	0.000494	20.856064
1966.522070	-2.992500	3.301700	-9.879400	26.387360	0.000493	20.842763
1967.522145	-2.987300	3.301000	-9.859800	26.367271	0.000493	20.837746
1968.519289	-2.988400	3.300200	-9.860400	26.383758	0.000493	20.847678
1969.523190	-3.031300	3.299600	-10.002000	26.402573	0.000491	20.851415
1970.520984	-2.998700	3.299600	-9.894000	26.436240	0.000492	20.844476
1971.521190	-3.009200	3.298600	-9.924600	26.449276	0.000492	20.849044
1972.522609	-3.023300	3.297000	-9.967000	26.482840	0.000490	20.871399
1973.519163	-3.010700	3.298000	-9.928300	26.505631	0.000491	20.862539
1974.520842	-2.993400	3.296900	-9.867700	26.543959	0.000489	20.845117
1975.526476	-2.990300	3.297400	-9.859300	26.553319	0.000490	20.844094
1976.523076	-3.010000	3.296800	-9.921800	26.587601	0.000490	20.850106
1977.523248	-3.002300	3.296800	-9.896800	26.565034	0.000489	20.853973
1978.526053	-3.012500	3.296100	-9.928700	26.531072	0.000487	20.844490
1979.523042	-2.985100	3.297500	-9.841600	26.490824	0.000486	20.850502
1980.526920	-2.998400	3.295700	-9.880000	26.456483	0.000488	20.865770
1981.524093	-3.017200	3.295200	-9.941500	26.497126	0.000487	20.848775
1982.526810	-3.004500	3.295100	-9.898100	26.499682	0.000485	20.834749
1983.524047	-3.011300	3.295000	-9.919300	26.517677	0.000483	20.840036
1984.524370	-2.986300	3.295500	-9.839900	26.555315	0.000484	20.837092
1985.524531	-2.981100	3.294500	-9.819500	26.600495	0.000483	20.822765
1986.528080	-3.011900	3.293500	-9.919100	26.615888	0.000482	20.847721
1987.524382	-2.995000	3.292500	-9.859600	26.639767	0.000483	20.849915
1988.527257	-3.014500	3.293700	-9.927500	26.685291	0.000482	20.814602
1989.529875	-2.991900	3.294800	-9.856300	26.705868	0.000481	20.839555
1990.523953	-2.990200	3.292700	-9.844200	26.721255	0.000481	20.853602
1991.529602	-3.007900	3.292100	-9.901300	26.731976	0.000482	20.840199
1992.527615	-3.030500	3.289500	-9.968100	26.758682	0.000481	20.837651
1993.526918	-3.019600	3.291100	-9.935400	26.749373	0.000480	20.814068
1994.528997	-3.001000	3.290600	-9.873800	26.740606	0.000478	20.837970
1995.526614	-2.994600	3.289800	-9.850300	26.741176	0.000480	20.834276
1996.527110	-2.983300	3.290000	-9.814900	26.742338	0.000476	20.803676
1997.527864	-2.992000	3.290800	-9.845200	26.708976	0.000475	20.836990
1998.527862	-2.994300	3.289800	-9.849300	26.696907	0.000475	20.828650
1999.527969	-2.987700	3.290000	-9.828400	26.690526	0.000475	20.808959
2000.530164	-3.037900	3.287400	-9.985600	26.690403	0.000474	20.819267
2001.527448	-2.998400	3.287300	-9.855500	26.718398	0.000474	20.838402
2002.529790	-3.003200	3.287300	-9.871900	26.726092	0.000473	20.830490
2003.535239	-2.996100	3.288400	-9.851000	26.722960	0.000473	20.827816
2004.530523	-2.994000	3.288600	-9.845000	26.740308	0.000470	20.827713
2005.528967	-3.008400	3.287400	-9.889200	26.752819	0.000473	20.829861
2006.527847	-2.998600	3.287800	-9.857600	26.755347	0.000471	20.834772
2007.530136	-3.007400	3.285300	-9.879400	26.778572	0.000469	20.842476
2008.529640	-3.000600	3.285700	-9.858300	26.774426	0.000472	20.835937
2009.530245	-3.020800	3.284600	-9.920800	26.766183	0.000469	20.826228
2010.532406	-3.009600	3.284800	-9.884300	26.794377	0.000471	20.832289
2011.530406	-2.993300	3.284000	-9.829300	26.768960	0.000468	20.830916
2012.532155	-3.017200	3.283100	-9.903800	26.745549	0.000466	20.844836
2013.531377	-2.999800	3.284800	-9.853100	26.745672	0.000466	20.808451
2014.535095	-3.016800	3.283300	-9.903800	26.734649	0.000467	20.838619
2015.529432	-3.011200	3.282300	-9.882000	26.744673	0.000467	20.813610
2016.531301	-2.986000	3.283700	-9.803600	26.708260	0.000463	20.820623
2017.533277	-2.991700	3.282500	-9.819700	26.707588	0.000464	20.815680
2018.531293	-3.021400	3.280700	-9.910800	26.718903	0.000464	20.831324
2019.530528	-2.993500	3.281700	-9.821600	26.713515	0.000465	20.846769
2020.537558	-3.000400	3.280700	-9.842900	26.748411	0.000462	20.818317
2021.534012	-2.987700	3.281800	-9.804300	26.778394	0.000463	20.813848
2022.533055	-2.978600	3.283700	-9.779900	26.784897	0.000460	20.825128
2023.535446	-3.007500	3.280000	-9.862700	26.767963	0.000461	20.816163
2024.536393	-3.010800	3.280000	-9.875200	26.716529	0.000461	20.834152
2025.534453	-3.033300	3.279000	-9.943800	26.650274	0.000460	20.814486
2026.536242	-3.016100	3.279200	-9.889700	26.623291	0.000459	20.822921
2027.534880	-3.009800	3.279000	-9.867600	26.579840	0.000458	20.793942
2028.536427	-3.009300	3.279300	-9.867200	26.549902	0.000458	20.811262
2029.534482	-3.015700	3.277100	-9.881600	26.510370	0.000457	20.806139
2030.536895	-3.020100	3.278000	-9.899100	26.481447	0.000456	20.812155
2031.536661	-2.979000	3.278400	-9.764900	26.510068	0.000457	20.817689
2032.534433	-2.984900	3.278000	-9.784000	26.561206	0.000456	20.818832
2033.535996	-2.987300	3.278300	-9.791200	26.588638	0.000455	20.800415
2034.536556	-3.004700	3.276200	-9.843800	26.617231	0.000454	20.804028
2035.534732	-3.009300	3.276200	-9.857500	26.638407	0.000455	20.813935
2036.535929	-2.994100	3.276600	-9.809200	26.668959	0.000454	20.809088
2037.535756	-2.967400	3.275400	-9.718200	26.617073	0.000451	20.812878
2038.535623	-2.985700	3.276000	-9.779000	26.670864	0.000452	20.819538
2039.535930	-3.024000	3.273400	-9.898100	26.657087	0.000451	20.811852
2040.536035	-2.985500	3.274900	-9.774800	26.643329	0.000453	20.800866
2041.539110	-2.988100	3.273300	-9.779500	26.649013	0.000452	20.819383
2042.539511	-2.990700	3.273700	-9.789500	26.607029	0.000452	20.809893
2043.537553	-3.011700	3.272000	-9.853100	26.593248	0.000450	20.808368
2044.537060	-2.996900	3.273200	-9.808700	26.606800	0.000450	20.797336
2045.538351	-2.980400	3.273500	-9.754000	26.623753	0.000449	20.812480
2046.537064	-3.001200	3.272000	-9.817500	26.615185	0.000447	20.812403
2047.535832	-2.995000	3.272100	-9.797700	26.631194	0.000446	20.812849
2048.539300	-2.996100	3.272600	-9.804300	26.637347	0.000445	20.799120
2049.537076	-3.002800	3.270400	-9.819700	26.637942	0.000445	20.810149
2050.537124	-3.010700	3.269500	-9.842000	26.664299	0.000444	20.799662
2051.540136	-2.959700	3.270400	-9.677900	26.660079	0.000442	20.808222
2052.539306	-2.997000	3.271500	-9.804100	26.701035	0.000443	20.803403
2053.539268	-3.027700	3.270200	-9.899700	26.691747	0.000444	20.831997
2054.538266	-3.022100	3.269900	-9.881000	26.724240	0.000442	20.810137
2055.539048	-3.000200	3.268800	-9.804600	26.715892	0.000443	20.793684
2056.538735	-3.004200	3.269500	-9.821500	26.744907	0.000441	20.799147
2057.542590	-2.990000	3.267800	-9.768900	26.718145	0.000440	20.812070
2058.542562	-3.014600	3.268200	-9.851800	26.740484	0.000440	20.825520
2059.541593	-3.007300	3.266600	-9.822600	26.777664	0.000438	20.810269
2060.540918	-3.001300	3.267300	-9.805200	26.784439	0.000436	20.812814
2061.540904	-3.010900	3.265800	-9.832200	26.786026	0.000437	20.831953
2062.541838	-2.991600	3.267500	-9.773900	26.789324	0.000436	20.803501
2063.545369	-2.993300	3.266400	-9.776400	26.789863	0.000436	20.815423
2064.540995	-2.994200	3.266000	-9.777500	26.826696	0.000435	20.794135
2065.542441	-3.023700	3.264300	-9.868700	26.826471	0.000435	20.793909
2066.543898	-2.995600	3.265300	-9.780600	26.848435	0.000434	20.804139
2067.541989	-3.001600	3.265800	-9.802100	26.779060	0.000431	20.790336
2068.541945	-2.995000	3.262500	-9.770100	26.784839	0.000432	20.795672
2069.543653	-2.996000	3.265900	-9.782800	26.775305	0.000433	20.797467
2070.542218	-3.015300	3.262900	-9.837300	26.808690	0.000432	20.795945
2071.548454	-2.996500	3.262900	-9.774700	26.823678	0.000432	20.798688
2072.542624	-2.963100	3.264400	-9.671700	26.855816	0.000430	20.783112
2073.547224	-2.995900	3.261800	-9.770800	26.873113	0.000429	20.788176
2074.542446	-2.990800	3.262700	-9.756800	26.869316	0.000430	20.796686
2075.544359	-2.986100	3.262600	-9.742200	26.827220	0.000428	20.792291
2076.549367	-2.996100	3.263400	-9.776600	26.826671	0.000427	20.793162
2077.544413	-2.997100	3.259700	-9.769100	26.864545	0.000427	20.789517
2078.544294	-2.994400	3.260200	-9.761700	26.872731	0.000427	20.787791
2079.550088	-2.999500	3.260700	-9.779100	26.884294	0.000426	20.787565
2080.549908	-3.014300	3.260100	-9.825600	26.887916	0.000425	20.782672
2081.546363	-2.987300	3.260800	-9.740500	26.892406	0.000423	20.793825
2082.554906	-3.003100	3.259100	-9.785200	26.882303	0.000423	20.789830
2083.545842	-2.975900	3.259900	-9.699600	26.887188	0.000424	20.775302
2084.545988	-3.003800	3.258900	-9.786800	26.895498	0.000425	20.792192
2085.545327	-3.001400	3.257700	-9.776000	26.913043	0.000420	20.787549
2086.546540	-2.983500	3.257700	-9.718600	26.934484	0.000424	20.767858
2087.546461	-3.030200	3.256800	-9.867500	26.930783	0.000421	20.788792
2088.547829	-2.988800	3.256600	-9.733300	26.947434	0.000420	20.777561
2089.552535	-3.001500	3.257600	-9.776300	26.951549	0.000421	20.782647
2090.548738	-3.013100	3.256100	-9.809500	26.923898	0.000417	20.774282
2091.547621	-2.999800	3.256900	-9.769500	26.935936	0.000420	20.784491
2092.550650	-2.986400	3.256600	-9.724200	26.924961	0.000418	20.779145
2093.549352	-2.981300	3.256400	-9.706400	26.955660	0.000416	20.788204
2094.547807	-3.000900	3.253800	-9.763200	26.944263	0.000417	20.788123
2095.550797	-3.001200	3.255400	-9.768100	26.946294	0.000415	20.775941
2096.550007	-3.020900	3.251900	-9.822800	26.973864	0.000414	20.779957
2097.547079	-2.988300	3.253000	-9.719100	26.979646	0.000413	20.781978
2098.549628	-3.024000	3.252000	-9.833100	26.949885	0.000413	20.772913
2099.551584	-3.008800	3.251700	-9.782700	26.994700	0.000412	20.801384
2100.550243	-3.003800	3.252000	-9.766700	27.014651	0.000413	20.774980
2101.551038	-2.998800	3.250300	-9.746800	27.043036	0.000411	20.788353
2102.553094	-3.002800	3.251700	-9.763300	27.068961	0.000412	20.776019
2103.552018	-3.003100	3.250700	-9.761500	27.075780	0.000410	20.798050
2104.555323	-2.978500	3.251300	-9.683200	27.076153	0.000407	20.763811
2105.549943	-3.020900	3.248900	-9.813200	27.079300	0.000408	20.773614
2106.554381	-2.993200	3.248700	-9.722700	27.102078	0.000408	20.768073
2107.558937	-3.013300	3.248400	-9.786500	27.115645	0.000407	20.774606
2108.554982	-2.987700	3.249900	-9.708900	27.114077	0.000408	20.774925
2109.554497	-3.014300	3.247400	-9.787900	27.117377	0.000405	20.766390
2110.557298	-2.996600	3.248700	-9.734200	27.154489	0.000408	20.773370
2111.556661	-2.989200	3.248200	-9.708600	27.126997	0.000408	20.768005
2112.555428	-2.989500	3.247000	-9.706000	27.148357	0.000403	20.763409
2113.554164	-2.977600	3.248400	-9.670800	27.125898	0.000405	20.774012
2114.554190	-3.013100	3.245800	-9.779800	27.044033	0.000403	20.762802
2115.554883	-3.018000	3.244700	-9.791400	26.963499	0.000401	20.781388
2116.553174	-3.016800	3.246300	-9.792100	26.915401	0.000401	20.771428
2117.556310	-2.991000	3.246300	-9.709000	26.830419	0.000403	20.771326
2118.558892	-3.005800	3.245200	-9.753000	26.787474	0.000401	20.766553
2119.557865	-2.989200	3.245200	-9.698500	26.812367	0.000403	20.775934
2120.557876	-2.984400	3.244000	-9.680100	26.808890	0.000399	20.775758
2121.558568	-2.969400	3.245100	-9.635200	26.808536	0.000397	20.759280
2122.556551	-2.990100	3.244700	-9.701300	26.789494	0.000398	20.762420
2123.557212	-3.008000	3.243300	-9.754800	26.754543	0.000398	20.761893
2124.557856	-3.008400	3.241700	-9.750800	26.722344	0.000397	20.764134
2125.564309	-3.019200	3.242100	-9.787000	26.702358	0.000396	20.776757
2126.559158	-2.997600	3.243100	-9.720100	26.668523	0.000394	20.755070
2127.557814	-3.006000	3.241300	-9.742800	26.729509	0.000396	20.765173
2128.562054	-2.995200	3.240800	-9.705900	26.780094	0.000395	20.773832
2129.560537	-2.998000	3.239900	-9.712700	26.833652	0.000393	20.766041
2130.558682	-3.011300	3.239100	-9.753100	26.837570	0.000394	20.755756
2131.563952	-2.980800	3.240600	-9.658700	26.884899	0.000391	20.766361
2132.562201	-2.999200	3.239700	-9.715900	26.902760	0.000391	20.772467
2133.559902	-2.996100	3.238800	-9.701400	26.908021	0.000391	20.765903
2134.566805	-2.995200	3.237000	-9.694500	26.925169	0.000390	20.764654
2135.559552	-2.984000	3.238500	-9.662600	26.980284	0.000389	20.774085
2136.560838	-2.986000	3.239000	-9.670300	26.964448	0.000388	20.764798
2137.561165	-3.018500	3.237400	-9.771200	26.922427	0.000388	20.772329
2138.561154	-3.010200	3.238000	-9.745800	26.908848	0.000387	20.761045
2139.561404	-2.961500	3.237300	-9.586500	26.858565	0.000386	20.768806
2140.561553	-3.005700	3.235600	-9.723400	26.838460	0.000386	20.775143
2141.560714	-2.995400	3.234100	-9.686600	26.832373	0.000386	20.747686
2142.561719	-2.997100	3.235900	-9.697700	26.798419	0.000385	20.769498
2143.560452	-3.015600	3.233900	-9.751800	26.805688	0.000383	20.767797
2144.564431	-3.010400	3.233400	-9.733300	26.816581	0.000384	20.768792
2145.566262	-3.032700	3.233400	-9.804300	26.836209	0.000384	20.761974
2146.566712	-2.996600	3.233000	-9.687700	26.873188	0.000383	20.763121
2147.562086	-3.024900	3.230500	-9.770700	26.939374	0.000382	20.779888
2148.565782	-3.019400	3.233300	-9.762100	26.959672	0.000381	20.750985
2149.565933	-3.012800	3.231900	-9.735600	26.972526	0.000378	20.759645
2150.562540	-2.999600	3.232300	-9.694800	26.936537	0.000379	20.784621
2151.567583	-2.999000	3.232600	-9.693500	26.958720	0.000380	20.796497
2152.562734	-2.997900	3.231900	-9.686800	26.973831	0.000378	20.765699
2153.563774	-3.006300	3.230100	-9.709500	26.966506	0.000377	20.768764
2154.564893	-3.015700	3.231000	-9.742900	26.993206	0.000377	20.752466
2155.563528	-3.009000	3.228400	-9.713300	26.977370	0.000376	20.789172
2156.570808	-3.028100	3.227300	-9.771100	26.987420	0.000375	20.741430
2157.565711	-3.018500	3.229200	-9.745400	27.007371	0.000376	20.772874
2158.566456	-3.019100	3.228700	-9.746100	27.052754	0.000374	20.761616
2159.565849	-3.019500	3.227600	-9.744600	27.090022	0.000372	20.768276
2160.568190	-2.981300	3.227700	-9.621200	27.120765	0.000375	20.776910
2161.570219	-3.011800	3.227800	-9.720300	27.141306	0.000373	20.773387
2162.569169	-3.001700	3.226500	-9.684400	27.152692	0.000371	20.774407
2163.569832	-2.973800	3.225400	-9.590700	27.152242	0.000370	20.768265
2164.574768	-2.971600	3.226200	-9.586000	27.133558	0.000369	20.772232
2165.570796	-2.963600	3.225900	-9.559500	27.107475	0.000371	20.773027
2166.572389	-2.970700	3.225000	-9.579100	27.096231	0.000368	20.758399
2167.573882	-3.002100	3.223900	-9.677500	27.130225	0.000368	20.777415
2168.573002	-3.013300	3.222800	-9.710300	27.167912	0.000366	20.764585
2169.572202	-3.008400	3.224400	-9.699000	27.169672	0.000368	20.783899
2170.577794	-2.994200	3.223800	-9.649800	27.168326	0.000366	20.767847
2171.572891	-2.988000	3.223400	-9.630500	27.155077	0.000365	20.761159
2172.570558	-3.017200	3.222500	-9.722400	27.159885	0.000365	20.768365
2173.573762	-3.013000	3.222700	-9.708500	27.184297	0.000362	20.759254
2174.574644	-3.022200	3.220900	-9.733300	27.184171	0.000363	20.784258
2175.572100	-3.028100	3.220100	-9.750100	27.153005	0.000361	20.768559
2176.575380	-3.013500	3.220000	-9.702800	27.107048	0.000360	20.776391
2177.573617	-3.008300	3.220300	-9.687000	27.112530	0.000361	20.773844
2178.587826	-3.014300	3.220000	-9.705700	27.113473	0.000362	20.773370
2179.571164	-3.024800	3.217800	-9.732500	27.160538	0.000359	20.766652
2180.572178	-3.009700	3.219100	-9.687700	27.184699	0.000360	20.784789
2181.572570	-2.988000	3.218800	-9.615400	27.187552	0.000360	20.772485
2182.572770	-3.019200	3.216000	-9.708700	27.186557	0.000357	20.780494
2183.573482	-2.991200	3.218000	-9.624500	27.167824	0.000357	20.761177
2184.572633	-3.001100	3.216900	-9.653100	27.180892	0.000358	20.773848
2185.573256	-2.979100	3.217400	-9.584000	27.192801	0.000357	20.782507
2186.573886	-2.995200	3.215700	-9.629500	27.197565	0.000357	20.784453
2187.573274	-3.011300	3.216100	-9.683400	27.210112	0.000357	20.785220
2188.573740	-3.006700	3.214900	-9.664800	27.174455	0.000355	20.776856
2189.575391	-2.995400	3.216000	-9.632300	27.195869	0.000353	20.780376
2190.574708	-3.003100	3.214900	-9.653100	27.217376	0.000354	20.791103
2191.575448	-2.995700	3.214000	-9.627300	27.241513	0.000354	20.782665
2192.578033	-2.980900	3.213700	-9.578100	27.283015	0.000352	20.778417
2193.575873	-3.010500	3.212700	-9.670900	27.298367	0.000352	20.784378
2194.576917	-3.016800	3.211800	-9.686800	27.279883	0.000350	20.773370
2195.578235	-3.009100	3.211800	-9.663600	27.230310	0.000351	20.766181
2196.578140	-2.997400	3.211800	-9.626400	27.181577	0.000349	20.795400
2197.577830	-2.984400	3.211900	-9.585200	27.125200	0.000350	20.799389
2198.577825	-3.002800	3.211600	-9.642300	27.125025	0.000351	20.790678
2199.578509	-3.001400	3.213200	-9.643000	27.103059	0.000349	20.787552
2200.579229	-3.016000	3.209400	-9.678700	27.124546	0.000347	20.776920
2201.583472	-3.012800	3.211100	-9.673300	27.123080	0.000346	20.783506
2202.580577	-3.006700	3.207700	-9.643700	27.159677	0.000346	20.774321
2203.580645	-2.995100	3.208800	-9.610100	27.165551	0.000344	20.766478
2204.581872	-2.984800	3.209300	-9.577900	27.178154	0.000345	20.801914
2205.583860	-2.982100	3.208900	-9.567900	27.167481	0.000343	20.776480
2206.582945	-2.970600	3.209500	-9.533000	27.142619	0.000343	20.790355
2207.582729	-2.987400	3.207000	-9.579900	27.150705	0.000341	20.782841
2208.583841	-2.979700	3.207400	-9.556100	27.132265	0.000343	20.783734
2209.584479	-2.989600	3.205200	-9.581400	27.158838	0.000342	20.785331
2210.583888	-2.966100	3.207300	-9.512600	27.170421	0.000341	20.800774
2211.585262	-2.990300	3.205600	-9.584600	27.166697	0.000341	20.802244
2212.585480	-2.990000	3.206100	-9.585700	27.159376	0.000339	20.789191
2213.583907	-2.979500	3.204900	-9.548400	27.161035	0.000338	20.799394
2214.585023	-2.990700	3.204700	-9.583800	27.166714	0.000339	20.788511
2215.584641	-2.982200	3.203500	-9.552900	27.172021	0.000336	20.801909
2216.584950	-2.992800	3.203900	-9.588200	27.213456	0.000336	20.783841
2217.587441	-3.003300	3.202400	-9.616500	27.179161	0.000334	20.791073
2218.592103	-3.015000	3.201200	-9.650600	27.164347	0.000334	20.795139
2219.587322	-2.980100	3.204900	-9.550300	27.195210	0.000335	20.810059
2220.590238	-3.004100	3.201500	-9.616500	27.191811	0.000336	20.790520
2221.589840	-3.020500	3.200700	-9.666500	27.190841	0.000334	20.809933
2222.589400	-2.983300	3.200900	-9.548200	27.217956	0.000331	20.813498
2223.590731	-2.978700	3.201500	-9.535500	27.251151	0.000329	20.823179
2224.589929	-2.986200	3.199800	-9.553600	27.263230	0.000330	20.781749
2225.588132	-2.998200	3.198600	-9.589500	27.234028	0.000333	20.810698
2226.591518	-2.986700	3.198700	-9.552800	27.233976	0.000332	20.787412
2227.591732	-3.013000	3.198100	-9.635300	27.266552	0.000330	20.793626
2228.590918	-2.985400	3.196300	-9.541700	27.312369	0.000327	20.800833
2229.594342	-2.990700	3.197300	-9.561000	27.350250	0.000326	20.791523
2230.594317	-3.003600	3.195300	-9.596300	27.381405	0.000329	20.818597
2231.592276	-3.002800	3.195500	-9.593900	27.381351	0.000327	20.799577
2232.591175	-3.008900	3.194200	-9.609900	27.391447	0.000328	20.837233
2233.593143	-2.985800	3.195100	-9.539000	27.426771	0.000325	20.780785
2234.592746	-3.014300	3.193700	-9.626000	27.441799	0.000325	20.810128
2235.591352	-3.001700	3.194300	-9.587300	27.426023	0.000323	20.826025
2236.592829	-2.998300	3.193000	-9.572500	27.409002	0.000327	20.825023
2237.593671	-2.971300	3.194300	-9.489400	27.436361	0.000324	20.812243
2238.598721	-2.965200	3.193200	-9.467400	27.421254	0.000322	20.815063
2239.593389	-3.016200	3.191700	-9.625800	27.453150	0.000322	20.800211
2240.595118	-3.006700	3.190800	-9.591700	27.479491	0.000321	20.807745
2241.595216	-3.002600	3.189300	-9.574700	27.497792	0.000321	20.811459
2242.593120	-2.995800	3.192400	-9.562600	27.496203	0.000321	20.813180
2243.597248	-3.004100	3.189500	-9.580700	27.499650	0.000319	20.819493
2244.599517	-2.978400	3.190600	-9.502700	27.480449	0.000320	20.792588
2245.598720	-2.988300	3.189400	-9.530100	27.525467	0.000320	20.817018
2246.600045	-3.022800	3.188500	-9.637100	27.521917	0.000318	20.811075
2247.596663	-2.982700	3.189400	-9.511700	27.474138	0.000316	20.836024
2248.597203	-2.996000	3.188700	-9.552500	27.424654	0.000317	20.825596
2249.598941	-2.984500	3.187700	-9.512500	27.363747	0.000316	20.820748
2250.596871	-2.996600	3.185600	-9.545100	27.336111	0.000316	20.836094
2251.598449	-2.977000	3.187100	-9.487000	27.310035	0.000316	20.826934
2252.599563	-3.002100	3.185600	-9.563200	27.346227	0.000317	20.825408
2253.597474	-2.986300	3.186200	-9.514400	27.328014	0.000315	20.835537
2254.595829	-3.002400	3.183300	-9.556800	27.311317	0.000315	20.839129
2255.600024	-2.981000	3.186000	-9.496300	27.349843	0.000314	20.810080
2256.598523	-3.003000	3.184400	-9.561200	27.385785	0.000314	20.814943
2257.600482	-2.978600	3.183600	-9.481200	27.370229	0.000313	20.812096
2258.600021	-2.982300	3.184200	-9.494400	27.357550	0.000312	20.808824
2259.599912	-3.000300	3.181600	-9.545500	27.377593	0.000311	20.834677
2260.597660	-3.008500	3.182000	-9.571900	27.405078	0.000310	20.843360
2261.599144	-2.988300	3.180500	-9.503200	27.441390	0.000310	20.819199
2262.599003	-3.011900	3.179500	-9.575700	27.467060	0.000309	20.816576
2263.598131	-3.006400	3.180100	-9.560200	27.506224	0.000308	20.836537
2264.601565	-3.017400	3.180800	-9.596900	27.552307	0.000307	20.840703
2265.598007	-3.039900	3.178500	-9.660700	27.524500	0.000304	20.828847
2266.600331	-3.010500	3.178400	-9.567100	27.476948	0.000306	20.831265
2267.599399	-2.998300	3.179600	-9.532900	27.386107	0.000308	20.825224
2268.599682	-3.002000	3.175900	-9.533100	27.357502	0.000306	20.819207
2269.601745	-2.996800	3.177700	-9.522800	27.268138	0.000305	20.836946
2270.599089	-3.038500	3.174400	-9.644500	27.267418	0.000305	20.840015
2271.601029	-3.005300	3.176200	-9.544700	27.250470	0.000305	20.840038
2272.602019	-3.004600	3.175100	-9.538800	27.302915	0.000304	20.843953
2273.599928	-3.015900	3.174200	-9.572100	27.318764	0.000302	20.834292
2274.601865	-2.991200	3.175500	-9.497300	27.359598	0.000303	20.818471
2275.603911	-3.001100	3.174500	-9.526300	27.396706	0.000301	20.843946
2276.601885	-2.989400	3.174800	-9.489200	27.443811	0.000301	20.846290
2277.602567	-3.030100	3.171100	-9.607800	27.453210	0.000300	20.830142
2278.601683	-2.970300	3.173300	-9.424600	27.449511	0.000298	20.856766
2279.602489	-2.999700	3.172400	-9.515800	27.513582	0.000299	20.846785
2280.603492	-3.013800	3.173200	-9.562700	27.545924	0.000299	20.852298
2281.603292	-3.004700	3.170700	-9.526600	27.560504	0.000299	20.852269
2282.602995	-3.000800	3.170000	-9.511800	27.589398	0.000298	20.840565
2283.603484	-2.993300	3.170300	-9.489200	27.607875	0.000297	20.837819
2284.602773	-2.978200	3.168300	-9.434300	27.634560	0.000295	20.865143
2285.602880	-3.000400	3.170400	-9.511400	27.644030	0.000296	20.869930
2286.602845	-3.005200	3.168500	-9.520900	27.660891	0.000296	20.858447
2287.602585	-2.984400	3.169400	-9.458600	27.673687	0.000295	20.851884
2288.603316	-2.984900	3.168300	-9.455400	27.696228	0.000291	20.839006
2289.602978	-3.004500	3.165600	-9.509800	27.675990	0.000294	20.850882
2290.602543	-2.990500	3.167500	-9.471200	27.630976	0.000295	20.867226
2291.606870	-3.030600	3.163900	-9.587400	27.636727	0.000292	20.867323
2292.603780	-2.994700	3.165300	-9.477800	27.638933	0.000291	20.865275
2293.605999	-3.006700	3.163000	-9.508200	27.629531	0.000291	20.861979
2294.603206	-3.024500	3.161800	-9.561800	27.619360	0.000290	20.871659
2295.604832	-2.987600	3.161200	-9.443500	27.546712	0.000291	20.857832
2296.606997	-2.980500	3.164800	-9.430400	27.502882	0.000288	20.858779
2297.607185	-2.992100	3.161000	-9.456800	27.501738	0.000289	20.864739
2298.604770	-2.987200	3.160700	-9.440900	27.523538	0.000289	20.853957
2299.609947	-3.000400	3.159000	-9.477500	27.519568	0.000288	20.850437
2300.605538	-3.013900	3.161200	-9.525700	27.538541	0.000286	20.857671
2301.608277	-3.011200	3.159000	-9.511600	27.571600	0.000287	20.850158
2302.610351	-2.992400	3.159400	-9.452400	27.617876	0.000288	20.867796
2303.605684	-2.983300	3.159300	-9.422900	27.624101	0.000285	20.867895
2304.605976	-3.008400	3.157000	-9.496300	27.662391	0.000287	20.864224
2305.605635	-3.016100	3.156900	-9.520200	27.632530	0.000284	20.876850
2306.609353	-3.003900	3.156900	-9.481200	27.660821	0.000285	20.881610
2307.606384	-3.012900	3.156000	-9.507900	27.677363	0.000284	20.876444
2308.609253	-3.000100	3.154800	-9.463300	27.704120	0.000284	20.876817
2309.612019	-3.006200	3.153000	-9.478500	27.689511	0.000283	20.872548
2310.608649	-2.993200	3.153400	-9.437500	27.677505	0.000282	20.872320
2311.608952	-3.014400	3.151800	-9.499900	27.693129	0.000281	20.888989
2312.612843	-3.006400	3.152700	-9.477300	27.674973	0.000282	20.873565
2313.610049	-3.013900	3.152100	-9.498600	27.687891	0.000279	20.878503
2314.608053	-3.008500	3.151100	-9.479500	27.686648	0.000281	20.870615
2315.611972	-2.991000	3.151200	-9.423900	27.715588	0.000279	20.881718
2316.608610	-3.022100	3.152100	-9.524500	27.746460	0.000279	20.867741
2317.609622	-2.997200	3.149600	-9.439300	27.744771	0.000278	20.874576
2318.614058	-3.002800	3.149300	-9.456100	27.723418	0.000279	20.876796
2319.609807	-3.004700	3.147600	-9.456900	27.720266	0.000279	20.872676
2320.608881	-3.029300	3.146700	-9.530400	27.743403	0.000278	20.870355
2321.613831	-2.991700	3.146700	-9.412800	27.778911	0.000276	20.881906
2322.609132	-2.971200	3.147500	-9.349900	27.782528	0.000276	20.885072
2323.611569	-3.011700	3.144900	-9.470200	27.741187	0.000276	20.885668
2324.612766	-2.976900	3.145900	-9.364800	27.724324	0.000275	20.888138
2325.611675	-2.998700	3.145600	-9.432400	27.751673	0.000275	20.881996
2326.612825	-3.009100	3.143800	-9.459000	27.776124	0.000274	20.887635
2327.610690	-3.001100	3.143100	-9.431000	27.792214	0.000275	20.893870
2328.612479	-3.008200	3.141600	-9.449300	27.763942	0.000274	20.889601
2329.611887	-3.006600	3.141200	-9.442000	27.753748	0.000274	20.898307
2330.612350	-2.996400	3.141400	-9.412400	27.741720	0.000272	20.884781
2331.612706	-3.006000	3.140600	-9.439700	27.773558	0.000272	20.916344
2332.614426	-3.028500	3.139400	-9.507500	27.771422	0.000271	20.900920
2333.612547	-3.028400	3.138500	-9.503500	27.767355	0.000272	20.894931
2334.615018	-3.004500	3.137800	-9.425900	27.796762	0.000274	20.891809
2335.613273	-2.991900	3.137000	-9.384700	27.808512	0.000270	20.892255
2336.611784	-2.988300	3.138600	-9.377600	27.825943	0.000270	20.902683
2337.615621	-3.010200	3.136200	-9.438800	27.856441	0.000271	20.897342
2338.615825	-3.023000	3.135500	-9.477300	27.842949	0.000268	20.910315
2339.617257	-3.000600	3.134700	-9.404000	27.868363	0.000270	20.908866
2340.618111	-3.006400	3.133700	-9.420600	27.893378	0.000270	20.906542
2341.615788	-3.006500	3.133400	-9.419100	27.904411	0.000270	20.892043
2342.616045	-3.008900	3.132200	-9.423400	27.894639	0.000269	20.906389
2343.619336	-2.981300	3.133000	-9.339400	27.899670	0.000268	20.922356
2344.621374	-2.997300	3.132200	-9.387200	27.855482	0.000268	20.911549
2345.616923	-3.001000	3.130900	-9.394900	27.869415	0.000268	20.913717
2346.618246	-2.989900	3.131500	-9.361900	27.862918	0.000268	20.893904
2347.617950	-2.999800	3.129800	-9.387900	27.856568	0.000268	20.915012
2348.617152	-2.996100	3.128200	-9.372000	27.828967	0.000266	20.897667
2349.618134	-2.992900	3.129400	-9.365700	27.807192	0.000266	20.906572
2350.618037	-2.990700	3.128000	-9.353800	27.811111	0.000263	20.912412
2351.623974	-2.979700	3.127200	-9.316800	27.820778	0.000266	20.932570
2352.617350	-3.026100	3.125000	-9.455800	27.841160	0.000263	20.893817
2353.622590	-2.979900	3.125600	-9.313000	27.854152	0.000262	20.924908
2354.625102	-3.009900	3.124900	-9.405100	27.880335	0.000264	20.915225
2355.619837	-2.997400	3.123400	-9.360900	27.908972	0.000263	20.904694
2356.622450	-2.989300	3.122800	-9.334000	27.933416	0.000263	20.921234
2357.623703	-2.997200	3.122000	-9.356100	27.965573	0.000262	20.908084
2358.622840	-2.993300	3.121600	-9.343200	27.995372	0.000261	20.938549
2359.627712	-3.002400	3.121900	-9.372400	27.994799	0.000264	20.927067
2360.624127	-3.006400	3.120600	-9.380300	27.959171	0.000264	20.924397
2361.620304	-3.012700	3.118800	-9.395500	27.958846	0.000262	20.910795
2362.620645	-3.029700	3.116200	-9.440000	27.953934	0.000261	20.932876
2363.623676	-3.013600	3.117700	-9.394100	27.940545	0.000261	20.943580
2364.621564	-2.989100	3.116800	-9.315700	27.919445	0.000263	20.919500
2365.622416	-2.976300	3.117000	-9.275800	27.978499	0.000261	20.922515
2366.625465	-2.990500	3.116200	-9.317100	27.922091	0.000261	20.928801
2367.622293	-2.988700	3.113500	-9.304300	27.869699	0.000259	20.929648
2368.624266	-2.989300	3.114600	-9.309400	27.870367	0.000261	20.932218
2369.624281	-3.018900	3.111900	-9.393200	27.862752	0.000259	20.934984
2370.622441	-3.007000	3.111800	-9.355900	27.828879	0.000259	20.913224
2371.623581	-3.003300	3.112000	-9.345500	27.832124	0.000259	20.943039
2372.623240	-2.999100	3.110500	-9.328000	27.814170	0.000259	20.938247
2373.623141	-2.995700	3.109100	-9.311600	27.841048	0.000256	20.918358
2374.621942	-3.007800	3.109800	-9.352200	27.862668	0.000255	20.944856
2375.623690	-3.026100	3.108100	-9.403900	27.911141	0.000256	20.925841
2376.622421	-2.999900	3.106400	-9.317000	27.883145	0.000257	20.925639
2377.622851	-2.982100	3.107300	-9.265000	27.846843	0.000256	20.931301
2378.624421	-3.002300	3.105100	-9.321000	27.838386	0.000255	20.931325
2379.624506	-3.009000	3.105500	-9.342300	27.888794	0.000254	20.922315
2380.624908	-3.009600	3.102700	-9.336700	27.935282	0.000257	20.954403
2381.623590	-2.985900	3.102700	-9.262700	27.919513	0.000255	20.939007
2382.625422	-2.989300	3.103300	-9.275800	27.918966	0.000253	20.950309
2383.625531	-3.023500	3.102100	-9.378400	27.870414	0.000254	20.941273
2384.625598	-2.996800	3.101800	-9.294000	27.834434	0.000253	20.929245
2385.626876	-2.976500	3.100600	-9.228500	27.788037	0.000254	20.937551
2386.626449	-2.976400	3.100300	-9.226200	27.735613	0.000253	20.947856
2387.625987	-2.988500	3.098700	-9.259800	27.684104	0.000253	20.944860
2388.626976	-2.989400	3.099400	-9.263500	27.708530	0.000252	20.964696
2389.626989	-2.975500	3.096400	-9.213300	27.716835	0.000253	20.944607
2390.628924	-2.983500	3.096200	-9.236100	27.758396	0.000250	20.941386
2391.630851	-3.011700	3.095200	-9.320500	27.782176	0.000251	20.938766
2392.631747	-2.991500	3.094800	-9.257400	27.802656	0.000251	20.926661
2393.629004	-3.011400	3.092800	-9.312900	27.848380	0.000249	20.940433
2394.629906	-2.988100	3.090900	-9.234100	27.888051	0.000250	20.935790
2395.630288	-2.992500	3.091500	-9.250500	27.864668	0.000248	20.939757
2396.627829	-2.993800	3.090100	-9.250000	27.890827	0.000252	20.929576
2397.631137	-2.994300	3.089600	-9.250100	27.863524	0.000249	20.949984
2398.633419	-3.025600	3.087600	-9.340500	27.902278	0.000250	20.947738
2399.632093	-3.013700	3.086700	-9.301600	27.914499	0.000249	20.919264
2400.633150	-3.001800	3.087000	-9.265900	27.978962	0.000247	20.922981
2401.633592	-2.985500	3.085500	-9.210300	28.002787	0.000249	20.957863
2402.633741	-3.019400	3.084800	-9.313700	28.012727	0.000249	20.955067
2403.633640	-2.980000	3.085700	-9.194300	28.034616	0.000248	20.952445
2404.633504	-2.990400	3.084700	-9.223000	28.064638	0.000248	20.939046
2405.643144	-2.977700	3.083900	-9.182100	28.095029	0.000248	20.935026
2406.635573	-2.991800	3.082000	-9.219700	28.144584	0.000247	20.927066
2407.639637	-2.993400	3.081700	-9.223100	28.166445	0.000246	20.945753
2408.638426	-3.019400	3.078400	-9.293700	28.183648	0.000246	20.917082
2409.635159	-2.992200	3.078500	-9.209700	28.200924	0.000245	20.909820
2410.640662	-2.978700	3.079000	-9.170400	28.176307	0.000247	20.903529
2411.638889	-2.989700	3.076600	-9.197100	28.124722	0.000247	20.931253
2412.636292	-2.980900	3.075500	-9.166700	28.103945	0.000248	20.919347
2413.643080	-3.010500	3.075000	-9.254300	28.087211	0.000245	20.906296
2414.637831	-2.986700	3.075100	-9.183500	28.017125	0.000243	20.917773
2415.639323	-2.992200	3.072700	-9.193200	28.030240	0.000244	20.921491
2416.638713	-3.005000	3.072100	-9.230600	27.993272	0.000245	20.922687
2417.639311	-2.976700	3.071500	-9.142000	28.005271	0.000246	20.922911
2418.640283	-2.995900	3.069000	-9.193200	27.982634	0.000245	20.896334
2419.640408	-2.982700	3.068600	-9.150800	27.922559	0.000244	20.903196
2420.639443	-2.999700	3.066500	-9.197700	27.901829	0.000244	20.907935
2421.640897	-3.021900	3.065500	-9.262300	27.895927	0.000244	20.903418
2422.640786	-2.969700	3.066800	-9.105800	27.862006	0.000246	20.917166
2423.642893	-3.011800	3.063200	-9.223900	27.867411	0.000242	20.916442
2424.642147	-3.001000	3.064100	-9.194600	27.854516	0.000244	20.917688
2425.643025	-3.008900	3.062400	-9.213200	27.898353	0.000244	20.905859
2426.641418	-2.994600	3.062400	-9.170000	27.964725	0.000243	20.911023
2427.643507	-3.007800	3.061100	-9.206600	28.007144	0.000244	20.900142
2428.642221	-3.002600	3.061000	-9.189700	28.027276	0.000244	20.931309
2429.642820	-2.975200	3.059500	-9.100200	28.031787	0.000246	20.883223
2430.644384	-3.013800	3.057400	-9.212300	28.048271	0.000243	20.881324
2431.643938	-2.999300	3.056200	-9.166200	28.072071	0.000242	20.867351
2432.644016	-3.007200	3.056100	-9.189000	28.071151	0.000240	20.910992
2433.649409	-2.997800	3.054200	-9.154900	28.097924	0.000242	20.895270
2434.643482	-3.007900	3.053300	-9.182600	28.092395	0.000242	20.897765
2435.645647	-3.028600	3.051500	-9.241000	28.038002	0.000241	20.899435
2436.645990	-3.013200	3.049700	-9.188600	28.005920	0.000241	20.906969
2437.644217	-3.002500	3.049100	-9.154300	27.973788	0.000242	20.875578
2438.642841	-3.008700	3.049400	-9.173800	28.002522	0.000241	20.902127
2439.649752	-3.008900	3.047400	-9.168500	27.979785	0.000240	20.878295
2440.644769	-3.007200	3.046500	-9.159700	27.981072	0.000241	20.877693
2441.647014	-3.022500	3.045500	-9.203500	27.982880	0.000242	20.882833
2442.651757	-3.023000	3.043000	-9.197900	28.037645	0.000244	20.897653
2443.654446	-3.000100	3.043800	-9.131100	28.073616	0.000240	20.885501
2444.648651	-3.022400	3.041600	-9.192400	28.100835	0.000241	20.885874
2445.648561	-2.998900	3.041500	-9.120000	28.080356	0.000240	20.876165
2446.650305	-2.983700	3.041200	-9.073100	28.114094	0.000242	20.885470
2447.649724	-2.978800	3.040300	-9.055500	28.091980	0.000241	20.883598
2448.648937	-3.011200	3.038700	-9.149300	28.052636	0.000241	20.883822
2449.653682	-2.972500	3.037200	-9.026600	28.058758	0.000239	20.865804
2450.651581	-3.002400	3.036700	-9.115800	28.094455	0.000241	20.870443
2451.650582	-2.992700	3.035500	-9.083500	28.115575	0.000241	20.882694
2452.653452	-2.985600	3.033900	-9.056100	28.128439	0.000239	20.857713
2453.654141	-3.017900	3.031700	-9.148800	28.139444	0.000239	20.889178
2454.652007	-2.991000	3.031200	-9.065100	28.097078	0.000238	20.850799
2455.653393	-3.004500	3.028900	-9.099600	28.059989	0.000235	20.880318
2456.653839	-2.995600	3.029600	-9.074500	28.052378	0.000239	20.878820
2457.654396	-2.995900	3.028300	-9.071800	28.063828	0.000238	20.867114
2458.655682	-3.020800	3.026600	-9.141500	28.061200	0.000239	20.890071
2459.656413	-3.004100	3.025900	-9.089400	28.065338	0.000240	20.884753
2460.654593	-2.985600	3.024400	-9.028600	28.081154	0.000238	20.885501
2461.655761	-3.001100	3.023000	-9.072000	28.096300	0.000239	20.882257
2462.659009	-3.004800	3.021300	-9.077900	28.114990	0.000237	20.860296
2463.655990	-2.967800	3.021600	-8.965300	28.139332	0.000237	20.862042
2464.660119	-3.013100	3.018100	-9.092700	28.172276	0.000238	20.891411
2465.658454	-2.981300	3.019500	-9.000600	28.189254	0.000236	20.866306
2466.659083	-3.019800	3.016200	-9.107400	28.212306	0.000238	20.864858
2467.658110	-2.997900	3.015400	-9.038300	28.190566	0.000238	20.876161
2468.660058	-3.013900	3.013600	-9.081100	28.180179	0.000238	20.863334
2469.662419	-2.995600	3.013300	-9.025600	28.182134	0.000237	20.876681
2470.657598	-2.974800	3.013200	-8.962200	28.127722	0.000237	20.873587
2471.658506	-2.984800	3.010600	-8.984800	28.054763	0.000237	20.870316
2472.661277	-2.999800	3.010500	-9.029100	28.026028	0.000238	20.891176
2473.660533	-2.997500	3.008300	-9.016600	28.010606	0.000237	20.856689
2474.663552	-3.022900	3.005100	-9.083300	28.017546	0.000237	20.857510
2475.660067	-2.997600	3.006200	-9.010300	28.049999	0.000236	20.879270
2476.660642	-3.018700	3.003200	-9.064700	28.076077	0.000237	20.872331
2477.663183	-2.961300	3.004000	-8.895100	28.099899	0.000238	20.870708
2478.659989	-2.990400	3.002500	-8.977400	28.156667	0.000237	20.855312
2479.660640	-2.975100	3.000700	-8.926800	28.142709	0.000236	20.872078
2480.665288	-2.971000	2.998500	-8.907600	28.167992	0.000239	20.853437
2481.659112	-2.969700	2.998000	-8.902500	28.187673	0.000239	20.858551
2482.663142	-2.983000	2.995700	-8.934700	28.196919	0.000237	20.863117
2483.663895	-2.961400	2.995400	-8.869900	28.194066	0.000239	20.874943
2484.659293	-2.992100	2.992300	-8.951700	28.163972	0.000237	20.869777
2485.666001	-2.987600	2.992500	-8.938800	28.169547	0.000236	20.855950
2486.664391	-3.001300	2.990300	-8.973400	28.167787	0.000238	20.871721
2487.660830	-3.038700	2.988800	-9.080500	28.189921	0.000240	20.851331
2488.664309	-2.989700	2.990400	-8.939800	28.215030	0.000237	20.866652
2489.662762	-3.015500	2.987300	-9.006300	28.277936	0.000238	20.867398
2490.662103	-2.999800	2.986600	-8.958200	28.308198	0.000234	20.867522
2491.663757	-3.026600	2.982900	-9.027300	28.330975	0.000238	20.852524
2492.666021	-2.994700	2.982200	-8.929300	28.326140	0.000241	20.864725
2493.660656	-2.988900	2.981700	-8.911500	28.366166	0.000237	20.865198
2494.660380	-2.987600	2.980600	-8.903500	28.363513	0.000235	20.850199
2495.663988	-2.981000	2.979000	-8.879500	28.362147	0.000236	20.857833
2496.660320	-2.985500	2.978700	-8.891700	28.340411	0.000236	20.866291
2497.660746	-2.994200	2.977000	-8.912700	28.338476	0.000234	20.871929
2498.662323	-3.008400	2.976700	-8.954100	28.340531	0.000235	20.857878
2499.662272	-3.022400	2.973800	-8.987900	28.345933	0.000237	20.853834
2500.663024	-2.989400	2.972900	-8.885400	28.380531	0.000234	20.868756
2501.666754	-3.007700	2.969300	-8.929200	28.376911	0.000236	20.867008
2502.662604	-3.015600	2.967700	-8.948700	28.385609	0.000237	20.869128
2503.662290	-3.009300	2.966400	-8.925300	28.374355	0.000236	20.842150
2504.664365	-3.009300	2.966700	-8.926900	28.413835	0.000237	20.874791
2505.662304	-3.009600	2.963600	-8.917800	28.416857	0.000236	20.872618
2506.662860	-2.982000	2.964500	-8.839600	28.411057	0.000235	20.869623
2507.667441	-2.984100	2.963400	-8.842200	28.363695	0.000233	20.839003
2508.663605	-2.980300	2.961700	-8.825700	28.386321	0.000236	20.848509
2509.663096	-3.005500	2.959900	-8.894500	28.399183	0.000235	20.862882
2510.665784	-2.992100	2.958000	-8.850100	28.387212	0.000236	20.856992
2511.661968	-3.004400	2.955600	-8.878700	28.351521	0.000237	20.834331
2512.662888	-2.980600	2.955100	-8.807000	28.309609	0.000235	20.858511
2513.667401	-2.994200	2.954200	-8.844400	28.254608	0.000236	20.862403
2514.663105	-3.008200	2.952200	-8.879800	28.215593	0.000235	20.862952
2515.662886	-2.992000	2.951300	-8.829600	28.220747	0.000235	20.883312
2516.665765	-3.025600	2.946100	-8.912900	28.198487	0.000235	20.874179
2517.665368	-3.003600	2.945800	-8.846900	28.182325	0.000234	20.854115
2518.665430	-3.005600	2.944900	-8.849400	28.172285	0.000235	20.834525
2519.664464	-3.009000	2.944100	-8.857700	28.206789	0.000234	20.844132
2520.664451	-2.992800	2.941600	-8.802700	28.261840	0.000234	20.851667
2521.665249	-2.983700	2.941300	-8.774900	28.300728	0.000235	20.850044
2522.664443	-2.989800	2.939300	-8.787100	28.357336	0.000232	20.848247
2523.665204	-3.014200	2.937200	-8.852800	28.380880	0.000231	20.851565
2524.668049	-2.985500	2.936800	-8.765400	28.382044	0.000232	20.838987
2525.664563	-3.004700	2.933200	-8.812000	28.371708	0.000234	20.849442
2526.664331	-3.010800	2.931400	-8.825300	28.344445	0.000232	20.849491
2527.669243	-3.006400	2.931400	-8.812200	28.355200	0.000234	20.835666
2528.666060	-3.009300	2.931400	-8.820100	28.342560	0.000232	20.847594
2529.668401	-3.024700	2.926900	-8.851800	28.342039	0.000234	20.839957
2530.666290	-2.996500	2.927800	-8.772200	28.356388	0.000234	20.846818
2531.666102	-3.015200	2.923900	-8.813900	28.351703	0.000232	20.836885
2532.667672	-2.990100	2.922900	-8.738500	28.366796	0.000234	20.837859
2533.665366	-2.997700	2.922100	-8.758300	28.358963	0.000232	20.856997
2534.669638	-3.016000	2.920300	-8.807300	28.406993	0.000235	20.840402
2535.668598	-3.017300	2.919500	-8.808000	28.416237	0.000232	20.829322
2536.668199	-3.026000	2.915500	-8.820900	28.442728	0.000233	20.839402
2537.668466	-2.953100	2.915300	-8.608000	28.490111	0.000233	20.823581
2538.667655	-2.972200	2.914300	-8.661000	28.453061	0.000232	20.849333
2539.668278	-3.000400	2.912400	-8.737900	28.474273	0.000234	20.846987
2540.667044	-2.958700	2.912100	-8.616000	28.509264	0.000233	20.835283
2541.668342	-3.018600	2.907800	-8.776900	28.529731	0.000234	20.851153
2542.668436	-2.975300	2.908300	-8.651700	28.549680	0.000235	20.825250
2543.668932	-2.988500	2.906000	-8.684000	28.562390	0.000235	20.824775
2544.669093	-2.996900	2.904800	-8.704600	28.588754	0.000234	20.832360
2545.668846	-3.005700	2.901200	-8.718800	28.613209	0.000235	20.835653
2546.668405	-3.008100	2.899500	-8.721200	28.595840	0.000231	20.836651
2547.667532	-2.953700	2.898800	-8.560300	28.601414	0.000234	20.820929
2548.671785	-3.002200	2.897400	-8.697900	28.538995	0.000231	20.818283
2549.673624	-3.006000	2.894500	-8.699700	28.481007	0.000233	20.831483
2550.667772	-2.977800	2.894000	-8.616900	28.466708	0.000233	20.830834
2551.669030	-3.019900	2.889800	-8.725400	28.470226	0.000232	20.811618
2552.667521	-2.980700	2.890800	-8.614800	28.472282	0.000233	20.826490
2553.667754	-2.995100	2.889000	-8.651300	28.468564	0.000234	20.840290
2554.670614	-2.998900	2.887400	-8.657600	28.473049	0.000231	20.815408
2555.668043	-3.006600	2.883900	-8.669100	28.474634	0.000234	20.843557
2556.668678	-3.023900	2.883500	-8.717700	28.463903	0.000233	20.844130
2557.668758	-3.002900	2.880400	-8.647900	28.383532	0.000232	20.830055
2558.676789	-2.974700	2.878100	-8.560800	28.327321	0.000233	20.822767
2559.667774	-2.985700	2.876400	-8.586800	28.365314	0.000234	20.813607
2560.667606	-3.029800	2.874100	-8.707400	28.350493	0.000233	20.831400
2561.670311	-2.999900	2.871900	-8.614800	28.335919	0.000233	20.839484
2562.669203	-2.994900	2.871600	-8.599200	28.377630	0.000233	20.844974
2563.668536	-3.000000	2.867900	-8.602500	28.363427	0.000233	20.826880
2564.673419	-2.985900	2.866200	-8.556500	28.322954	0.000232	20.814577
2565.668002	-3.008500	2.865100	-8.619100	28.265897	0.000233	20.823510
2566.670710	-3.001600	2.862100	-8.590200	28.222444	0.000234	20.817694
2567.672913	-2.984900	2.861300	-8.539600	28.247454	0.000234	20.820589
2568.673638	-3.006000	2.860100	-8.595800	28.302552	0.000233	20.819165
2569.671851	-3.022400	2.856200	-8.631900	28.348676	0.000234	20.815347
2570.669610	-3.026700	2.853500	-8.635100	28.398466	0.000234	20.828022
2571.671541	-3.004900	2.853000	-8.572200	28.455019	0.000233	20.822856
2572.672998	-2.986200	2.851400	-8.513900	28.514220	0.000231	20.824153
2573.671789	-2.995000	2.850000	-8.534300	28.570544	0.000231	20.825401
2574.674173	-3.007200	2.844400	-8.552700	28.543707	0.000233	20.822080
2575.676350	-3.013100	2.843500	-8.566600	28.503042	0.000231	20.802939
2576.672408	-2.989400	2.843500	-8.499400	28.455957	0.000232	20.810050
2577.671553	-3.005100	2.840000	-8.533300	28.488123	0.000233	20.817312
2578.673265	-2.978100	2.839200	-8.452800	28.466513	0.000231	20.814991
2579.673575	-2.995200	2.837800	-8.499000	28.433652	0.000232	20.817461
2580.673032	-3.005400	2.833700	-8.515600	28.458730	0.000233	20.828964
2581.676826	-3.016100	2.831100	-8.538500	28.478183	0.000232	20.811096
2582.676668	-3.015200	2.827900	-8.524800	28.498850	0.000234	20.809623
2583.676518	-2.986300	2.828600	-8.445600	28.521202	0.000233	20.809847
2584.680217	-3.003100	2.826800	-8.487800	28.524348	0.000233	20.805903
2585.682512	-2.975300	2.824000	-8.401100	28.472680	0.000233	20.815985
2586.676862	-2.996000	2.822900	-8.455200	28.510965	0.000230	20.800961
2587.681723	-2.995500	2.818500	-8.442000	28.471762	0.000235	20.804155
2588.677372	-2.995800	2.816800	-8.436900	28.464797	0.000234	20.823220
2589.677705	-3.013300	2.815500	-8.482900	28.490470	0.000233	20.817305
2590.680054	-2.993300	2.813000	-8.418800	28.524667	0.000233	20.813337
2591.680376	-2.998600	2.809100	-8.421400	28.565825	0.000231	20.811165
2592.678277	-3.002900	2.806500	-8.426600	28.635923	0.000231	20.810166
2593.680729	-3.014800	2.804000	-8.451500	28.620932	0.000232	20.799810
2594.682514	-2.991300	2.802100	-8.381500	28.548478	0.000229	20.814558
2595.684337	-3.022200	2.798500	-8.456600	28.559653	0.000234	20.813958
2596.680856	-3.023900	2.796500	-8.455500	28.584184	0.000231	20.803102
2597.685220	-3.015800	2.794400	-8.426700	28.602470	0.000233	20.813458
2598.681429	-3.041800	2.791600	-8.490300	28.598703	0.000233	20.803026
2599.679305	-3.044700	2.788100	-8.488000	28.593995	0.000233	20.819147
2600.681321	-2.999600	2.786200	-8.356900	28.592780	0.000232	20.827406
2601.683003	-3.014100	2.782800	-8.386600	28.628337	0.000233	20.814379
2602.684775	-3.032100	2.779700	-8.427400	28.642261	0.000234	20.808015
2603.683214	-3.013900	2.777100	-8.369000	28.716293	0.000231	20.805295
2604.682755	-3.008700	2.776000	-8.351100	28.705638	0.000234	20.795985
2605.684034	-3.024800	2.772000	-8.383800	28.710544	0.000233	20.822737
2606.683287	-3.000200	2.770300	-8.310200	28.688839	0.000233	20.785703
2607.684483	-3.040500	2.765800	-8.408300	28.665301	0.000233	20.808936
2608.684690	-2.998600	2.764800	-8.288800	28.675286	0.000231	20.807138
2609.689128	-3.021700	2.761600	-8.344100	28.649195	0.000231	20.812154
2610.685060	-2.989000	2.758300	-8.243700	28.676895	0.000232	20.800225
2611.683195	-2.996700	2.757300	-8.262000	28.712548	0.000233	20.798677
2612.684987	-3.009400	2.753000	-8.283800	28.703579	0.000232	20.804342
2613.685590	-2.982800	2.750600	-8.203100	28.697334	0.000233	20.813699
2614.684827	-2.980400	2.747300	-8.186700	28.706897	0.000230	20.793460
2615.685009	-2.989000	2.744100	-8.200500	28.684301	0.000234	20.802943
2616.688015	-3.006800	2.740700	-8.239800	28.710414	0.000233	20.793684
2617.685513	-3.006400	2.738000	-8.230600	28.751368	0.000232	20.791312
2618.684983	-3.013400	2.732900	-8.234000	28.791403	0.000231	20.806984
2619.687394	-3.005100	2.731200	-8.206000	28.828662	0.000232	20.817964
2620.689312	-3.020000	2.727600	-8.235800	28.850189	0.000232	20.801718
2621.686771	-3.032400	2.723500	-8.257100	28.894407	0.000233	20.796477
2622.691680	-2.991100	2.721100	-8.137900	28.942388	0.000232	20.802615
2623.690873	-2.991800	2.717900	-8.130000	28.940827	0.000232	20.811474
2624.690697	-3.000700	2.716100	-8.149400	28.922124	0.000230	20.798322
2625.688578	-2.977200	2.711500	-8.071900	28.952666	0.000232	20.789737
2626.690853	-3.003200	2.708400	-8.133100	28.987021	0.000233	20.808229
2627.689799	-2.994800	2.703700	-8.095800	29.014713	0.000233	20.802463
2628.691438	-2.981500	2.700700	-8.050600	29.039109	0.000230	20.801914
2629.692683	-2.963800	2.697700	-7.994100	29.062762	0.000231	20.808676
2630.692603	-3.007900	2.694100	-8.102600	29.004135	0.000232	20.803186
2631.691126	-2.981700	2.690700	-8.021400	29.007007	0.000231	20.790907
2632.694112	-2.985200	2.686600	-8.019100	29.004134	0.000233	20.810771
2633.691990	-2.994300	2.682000	-8.029200	29.025212	0.000232	20.799291
2634.692341	-3.010600	2.677700	-8.060300	29.056369	0.000232	20.818356
2635.696370	-3.002100	2.674800	-8.029000	29.076604	0.000230	20.797019
2636.695736	-3.010600	2.669900	-8.035900	29.070783	0.000232	20.811069
2637.696894	-3.037800	2.665300	-8.095700	29.078708	0.000230	20.817157
2638.695430	-3.016600	2.662600	-8.031800	29.103301	0.000232	20.796893
2639.694144	-3.012700	2.657700	-8.005700	28.994744	0.000232	20.819802
2640.693180	-3.027200	2.653700	-8.031400	28.943643	0.000232	20.796293
2641.696750	-2.977400	2.650900	-7.891900	28.875026	0.000232	20.799712
2642.694858	-3.009400	2.644600	-7.957600	28.865365	0.000231	20.808945
2643.695549	-2.988400	2.640600	-7.890200	28.912802	0.000230	20.816431
2644.701854	-3.008900	2.637800	-7.935700	28.964869	0.000230	20.816730
2645.694331	-2.997900	2.631300	-7.887800	28.987831	0.000234	20.806673
2646.700005	-3.002800	2.627900	-7.890000	28.999249	0.000232	20.817703
2647.697587	-3.025600	2.623100	-7.935300	29.058693	0.000231	20.815482
2648.696417	-2.984200	2.618000	-7.812000	29.070853	0.000231	20.810665
2649.697140	-2.974200	2.615700	-7.779200	29.070680	0.000230	20.805748
2650.695662	-2.979800	2.610300	-7.776900	29.059485	0.000233	20.812960
2651.695219	-2.970300	2.604200	-7.734700	29.090617	0.000232	20.804974
2652.695621	-2.995500	2.598900	-7.784200	29.088858	0.000232	20.784236
2653.694677	-2.970100	2.594000	-7.703200	29.045316	0.000232	20.791098
2654.699098	-2.997800	2.588800	-7.759200	29.031570	0.000233	20.804749
2655.698469	-3.002900	2.581800	-7.751200	29.018022	0.000232	20.797262
2656.696488	-2.985700	2.579400	-7.698400	29.063174	0.000231	20.809565
2657.697161	-3.032800	2.571000	-7.795900	29.027037	0.000231	20.804449
2658.700597	-2.996200	2.567800	-7.693400	28.968160	0.000234	20.794916
2659.696910	-3.022800	2.560600	-7.739800	28.934349	0.000232	20.802577
2660.696455	-2.987700	2.556200	-7.636300	28.904970	0.000235	20.820869
2661.703572	-3.012000	2.548400	-7.674700	28.883716	0.000234	20.798983
2662.698800	-3.010700	2.542900	-7.653800	28.820249	0.000232	20.809489
2663.701295	-2.993000	2.538100	-7.595400	28.809819	0.000232	20.807992
2664.700819	-2.977000	2.533200	-7.539800	28.847846	0.000233	20.815478
2665.700736	-3.004100	2.526600	-7.588500	28.883840	0.000232	20.819970
2666.698530	-3.011600	2.519000	-7.585600	28.964815	0.000234	20.789649
2667.702456	-2.994000	2.514200	-7.525700	29.004719	0.000234	20.818472
2668.700005	-3.020500	2.507000	-7.571200	28.970364	0.000233	20.826533
2669.698810	-3.028400	2.500300	-7.570600	28.924216	0.000233	20.811335
2670.700026	-2.945900	2.496100	-7.351200	28.878439	0.000231	20.818797
