LabVIEW Measurement	
Writer_Version	2
Reader_Version	2
Separator	Tab
Decimal_Separator	.
Multi_Headings	No
X_Columns	One
Time_Pref	Absolute
Operator	admin
Description	Clolumns are: time, Current, Voltage, Power, Battery Temp, and Chamber Temp
Date	2024/08/16
Time	13:06:06.104549407958984375
***End_of_Header***	
	
Channels	6						
Samples	1	1	1	1	1	1	
Date	2024/08/23	2024/08/23	2024/08/23	2024/08/23	2024/08/23	2024/08/23	
Time	13:58:58.7324414253234863281	13:58:58.7393794059753417969	13:58:58.752437591552734375	13:58:58.7132625579833984375	13:58:58.7132625579833984375	13:58:58.7132625579833984375	
X_Dimension	Time	Time	Time	Time	Time	Time	
X0	0.0000000000000000E+0	0.0000000000000000E+0	0.0000000000000000E+0	0.0000000000000000E+0	0.0000000000000000E+0	0.0000000000000000E+0	
Delta_X	1.000000	1.000000	1.000000	1.000000	1.000000	1.000000	
***End_of_Header***							
X_Value	Untitled	Untitled 1	Untitled 2	Untitled 3	Untitled 4	Untitled 5	Comment
0.000000	-0.006407	4.108200	-0.026378	21.057353	0.000981	20.783321
0.998312	-2.993500	3.954600	-11.838000	21.045624	0.000980	20.774435
2.003245	-2.990600	3.946800	-11.803000	21.029726	0.000982	20.776551
3.001040	-2.993300	3.942000	-11.798000	21.042925	0.000979	20.752294
4.005475	-3.006900	3.936500	-11.835000	21.056742	0.000980	20.768959
5.004215	-3.022400	3.933400	-11.886000	21.038850	0.000979	20.784255
6.000153	-3.007100	3.930300	-11.818000	21.049101	0.000977	20.776964
7.001996	-2.996900	3.929500	-11.775000	21.056134	0.000977	20.776412
8.001861	-3.028400	3.925100	-11.885000	21.052191	0.000976	20.770097
9.001134	-2.993600	3.925300	-11.750000	21.070773	0.000976	20.779675
9.998368	-3.001200	3.923700	-11.774000	21.063183	0.000973	20.750746
11.001022	-2.990200	3.921200	-11.725000	21.071365	0.000974	20.749920
12.002250	-3.004900	3.919100	-11.776000	21.056468	0.000971	20.770583
13.003771	-3.010400	3.917800	-11.793000	21.076247	0.000970	20.775193
14.005736	-2.996100	3.917700	-11.737000	21.088871	0.000971	20.756999
15.010745	-3.016800	3.913900	-11.807000	21.067458	0.000970	20.772092
16.003857	-2.998600	3.913300	-11.733000	21.057302	0.000971	20.769046
17.004226	-3.028800	3.911100	-11.845000	21.068300	0.000969	20.764399
18.006401	-2.999400	3.912100	-11.733000	21.080500	0.000968	20.755739
19.004233	-3.009800	3.910200	-11.768000	21.103797	0.000968	20.755808
20.006596	-3.016300	3.908700	-11.787000	21.106315	0.000967	20.750266
21.003783	-3.009200	3.907900	-11.759000	21.084906	0.000965	20.777216
22.009595	-3.009100	3.909800	-11.764000	21.098999	0.000966	20.758595
23.006975	-2.995400	3.907400	-11.703000	21.120377	0.000966	20.763384
24.007211	-2.998700	3.907200	-11.716000	21.099342	0.000965	20.741868
25.004621	-2.990600	3.906200	-11.681000	21.130527	0.000965	20.745087
26.013499	-2.986400	3.905200	-11.662000	21.103926	0.000966	20.769214
27.008372	-2.994100	3.905100	-11.692000	21.125631	0.000964	20.742086
28.004472	-2.999300	3.904300	-11.709000	21.120436	0.000964	20.770082
29.007666	-3.003600	3.902800	-11.721000	21.138246	0.000965	20.750437
30.005342	-3.015400	3.901400	-11.764000	21.132307	0.000963	20.770102
31.012122	-3.019800	3.900100	-11.777000	21.133026	0.000959	20.751380
32.007223	-3.003700	3.900200	-11.715000	21.170992	0.000960	20.761857
33.008776	-3.000000	3.900000	-11.699000	21.137086	0.000961	20.750700
34.007267	-3.001400	3.900600	-11.706000	21.141400	0.000960	20.749799
35.008750	-3.021900	3.898500	-11.779000	21.142697	0.000960	20.724068
36.008927	-3.002100	3.898700	-11.703000	21.159530	0.000959	20.774574
37.007094	-3.018000	3.897200	-11.759000	21.166239	0.000960	20.761844
38.011681	-2.992200	3.897200	-11.660000	21.166758	0.000958	20.755725
39.008931	-3.001900	3.896400	-11.696000	21.191604	0.000957	20.763509
40.011464	-2.999600	3.895800	-11.685000	21.200032	0.000958	20.745862
41.012643	-3.000100	3.896500	-11.689000	21.201301	0.000958	20.769417
42.015295	-2.990700	3.895500	-11.649000	21.189697	0.000956	20.758283
43.013954	-3.013800	3.893200	-11.731000	21.208953	0.000956	20.762372
44.011968	-3.001700	3.894100	-11.688000	21.226314	0.000957	20.741333
45.010077	-3.006100	3.895700	-11.710000	21.222043	0.000958	20.756976
46.008724	-3.009100	3.893000	-11.713000	21.230048	0.000956	20.753130
47.017580	-2.988900	3.895400	-11.642000	21.239327	0.000956	20.753877
48.010686	-2.990000	3.893200	-11.640000	21.250574	0.000958	20.762284
49.012094	-2.994400	3.892500	-11.655000	21.251720	0.000956	20.754422
50.011739	-2.999800	3.892300	-11.676000	21.242015	0.000954	20.765576
51.011306	-2.997800	3.891800	-11.666000	21.254286	0.000954	20.737547
52.014136	-2.985200	3.892500	-11.618000	21.255457	0.000952	20.743460
53.016674	-2.984300	3.893100	-11.616000	21.271143	0.000952	20.750618
54.013663	-2.989300	3.892300	-11.634000	21.244799	0.000954	20.752239
55.010080	-2.997400	3.890400	-11.660000	21.257047	0.000951	20.758802
56.012395	-2.998800	3.889100	-11.662000	21.271235	0.000951	20.768255
57.020824	-3.003100	3.890700	-11.683000	21.289020	0.000951	20.771348
58.012209	-2.985800	3.890300	-11.615000	21.299592	0.000952	20.747311
59.014096	-2.987300	3.890500	-11.621000	21.281482	0.000950	20.763333
60.017568	-3.013700	3.888500	-11.718000	21.303655	0.000950	20.770342
61.015016	-3.014400	3.889300	-11.723000	21.307293	0.000950	20.735575
62.014922	-2.978300	3.890700	-11.586000	21.311556	0.000949	20.738892
63.020308	-2.988000	3.890000	-11.622000	21.314049	0.000950	20.756559
64.014066	-2.994800	3.888000	-11.642000	21.329188	0.000948	20.757954
65.016718	-3.006600	3.887700	-11.688000	21.333350	0.000947	20.761170
66.017077	-2.995700	3.885900	-11.640000	21.369787	0.000950	20.756373
67.017979	-2.988800	3.888500	-11.621000	21.363900	0.000948	20.753802
68.018525	-2.987800	3.887000	-11.612000	21.377415	0.000948	20.754048
69.023290	-3.016100	3.886600	-11.721000	21.373594	0.000951	20.760656
70.017969	-3.003900	3.886500	-11.673000	21.377232	0.000950	20.764297
71.018483	-2.998600	3.885900	-11.652000	21.375111	0.000949	20.749846
72.018088	-3.014200	3.884100	-11.706000	21.391623	0.000948	20.769211
73.014014	-2.998300	3.884500	-11.646000	21.387253	0.000950	20.758200
74.019063	-3.001800	3.883800	-11.656000	21.390595	0.000948	20.768183
75.015590	-3.021500	3.883400	-11.732000	21.408077	0.000949	20.750586
76.020125	-3.021700	3.884900	-11.738000	21.382882	0.000949	20.755724
77.019156	-3.013500	3.883100	-11.700000	21.417849	0.000947	20.755622
78.017666	-2.998700	3.883700	-11.645000	21.419945	0.000949	20.764357
79.020583	-2.992200	3.883900	-11.621000	21.420018	0.000948	20.755895
80.020224	-3.022700	3.882300	-11.734000	21.438372	0.000947	20.766199
81.023233	-2.998300	3.883200	-11.642000	21.431986	0.000947	20.764077
82.016643	-2.990200	3.883100	-11.610000	21.447025	0.000949	20.743088
83.017493	-3.013400	3.880400	-11.692000	21.441611	0.000947	20.764699
84.019276	-3.003700	3.881600	-11.658000	21.460043	0.000948	20.768442
85.021423	-2.996900	3.882400	-11.633000	21.462808	0.000946	20.774054
86.022523	-3.027500	3.881200	-11.749000	21.440862	0.000947	20.766320
87.028386	-3.011000	3.881700	-11.687000	21.474580	0.000949	20.784885
88.021427	-2.980800	3.883200	-11.573000	21.458917	0.000947	20.781066
89.024324	-3.021800	3.882000	-11.728000	21.471612	0.000946	20.752516
90.027564	-3.009900	3.880100	-11.678000	21.492061	0.000947	20.757331
91.022635	-3.000900	3.880800	-11.645000	21.491860	0.000948	20.765665
92.028371	-3.015600	3.879900	-11.699000	21.479064	0.000948	20.765663
93.029070	-3.002400	3.880500	-11.649000	21.512259	0.000947	20.779913
94.027744	-2.988000	3.881500	-11.596000	21.502058	0.000945	20.754057
95.022090	-2.981000	3.880700	-11.565000	21.526771	0.000946	20.752233
96.028806	-2.989200	3.879200	-11.594000	21.524550	0.000946	20.778460
97.024752	-2.985600	3.881400	-11.587000	21.547593	0.000946	20.759318
98.022399	-3.004600	3.879800	-11.655000	21.549536	0.000945	20.765530
99.028070	-2.995500	3.879300	-11.619000	21.542677	0.000946	20.782848
100.020682	-2.998400	3.879800	-11.632000	21.554097	0.000946	20.771991
101.029842	-3.027900	3.878100	-11.741000	21.562599	0.000946	20.777179
102.025134	-3.017600	3.876900	-11.697000	21.567262	0.000946	20.768095
103.026034	-2.995600	3.879400	-11.620000	21.561548	0.000947	20.769016
104.024960	-2.996300	3.878700	-11.621000	21.581771	0.000947	20.781665
105.025662	-3.002800	3.879800	-11.650000	21.604860	0.000947	20.768735
106.026696	-3.008600	3.878800	-11.667000	21.625408	0.000947	20.777917
107.023540	-2.998100	3.878400	-11.626000	21.600967	0.000947	20.774796
108.027795	-3.008500	3.878800	-11.668000	21.630617	0.000948	20.781234
109.028209	-2.995400	3.875900	-11.609000	21.639465	0.000947	20.789140
110.028115	-2.991300	3.877000	-11.597000	21.638515	0.000948	20.777758
111.033312	-3.009900	3.875500	-11.664000	21.647465	0.000947	20.787662
112.029218	-2.995700	3.876700	-11.612000	21.632674	0.000947	20.779025
113.033058	-2.969500	3.877800	-11.514000	21.638631	0.000947	20.781193
114.030124	-3.009400	3.875800	-11.663000	21.661998	0.000948	20.756213
115.030850	-3.025700	3.875900	-11.727000	21.652765	0.000948	20.766888
116.028829	-3.001800	3.875200	-11.631000	21.656606	0.000948	20.776422
117.025208	-3.000200	3.877400	-11.632000	21.672111	0.000945	20.770128
118.040638	-3.007300	3.875400	-11.653000	21.671936	0.000945	20.763314
119.026426	-3.001100	3.875300	-11.629000	21.682854	0.000947	20.783249
120.030652	-2.982200	3.874500	-11.552000	21.707712	0.000947	20.772090
121.031667	-2.996500	3.874100	-11.607000	21.702249	0.000946	20.765676
122.034281	-3.003000	3.874000	-11.633000	21.703892	0.000946	20.788182
123.032345	-3.005000	3.873400	-11.636000	21.709623	0.000947	20.762149
124.032184	-2.988800	3.874600	-11.579000	21.721814	0.000947	20.790471
125.031063	-2.994500	3.873100	-11.597000	21.702263	0.000947	20.768060
126.032509	-2.991000	3.874400	-11.588000	21.706824	0.000949	20.778788
127.034287	-3.035500	3.870600	-11.747000	21.707318	0.000949	20.793982
128.032643	-3.009500	3.874400	-11.659000	21.712976	0.000949	20.767876
129.036254	-2.997000	3.872700	-11.605000	21.730451	0.000947	20.763080
130.034665	-3.021500	3.870400	-11.693000	21.735537	0.000949	20.797568
131.033982	-2.986900	3.872900	-11.568000	21.744412	0.000948	20.783216
132.041600	-3.007700	3.872500	-11.647000	21.736877	0.000948	20.781839
133.034244	-3.001000	3.872300	-11.620000	21.742335	0.000948	20.780663
134.030672	-2.998800	3.872300	-11.611000	21.744178	0.000946	20.795310
135.034755	-2.978300	3.873500	-11.535000	21.764595	0.000948	20.794881
136.035412	-3.023500	3.871100	-11.703000	21.759507	0.000949	20.785996
137.035022	-2.990900	3.872000	-11.579000	21.781869	0.000947	20.788462
138.038116	-2.991400	3.870800	-11.577000	21.806675	0.000948	20.784840
139.031344	-3.029600	3.869400	-11.722000	21.787498	0.000947	20.782242
140.035493	-3.011700	3.871600	-11.659000	21.788915	0.000949	20.784134
141.035138	-2.999000	3.869800	-11.604000	21.806316	0.000950	20.770730
142.036768	-3.013300	3.869500	-11.658000	21.813693	0.000949	20.790442
143.037307	-2.998500	3.870300	-11.604000	21.818852	0.000949	20.788968
144.035066	-2.996300	3.870300	-11.594000	21.831789	0.000949	20.787691
145.035622	-3.004300	3.870500	-11.627000	21.832459	0.000951	20.778879
146.035874	-2.984700	3.871700	-11.555000	21.858386	0.000949	20.789183
147.036784	-2.975200	3.869700	-11.511000	21.832926	0.000951	20.779347
148.036853	-2.977900	3.870800	-11.525000	21.874359	0.000952	20.779092
149.035580	-2.975200	3.870000	-11.512000	21.849523	0.000953	20.785053
150.032792	-2.983900	3.868400	-11.542000	21.864578	0.000950	20.776414
151.037278	-2.993500	3.868800	-11.579000	21.892924	0.000952	20.786294
152.038974	-3.005600	3.867900	-11.623000	21.880480	0.000953	20.775261
153.036606	-3.035300	3.867000	-11.736000	21.899624	0.000952	20.791105
154.037913	-2.992900	3.869400	-11.579000	21.895355	0.000951	20.791573
155.037903	-2.976200	3.869200	-11.514000	21.905052	0.000951	20.792271
156.039185	-2.989500	3.868600	-11.564000	21.904523	0.000951	20.805965
157.038724	-2.994000	3.867400	-11.578000	21.921972	0.000952	20.777439
158.039428	-3.007000	3.867300	-11.627000	21.930770	0.000952	20.810427
159.036751	-3.006200	3.867500	-11.626000	21.928496	0.000952	20.812418
160.038687	-2.997600	3.867500	-11.592000	21.954524	0.000955	20.797694
161.041474	-3.012200	3.867100	-11.646000	21.949334	0.000952	20.779223
162.038392	-3.008900	3.866800	-11.633000	21.943870	0.000954	20.804573
163.038211	-2.996600	3.868100	-11.589000	21.938457	0.000955	20.793940
164.045628	-2.999400	3.868000	-11.601000	21.952117	0.000956	20.797182
165.040549	-3.014300	3.866300	-11.653000	21.944684	0.000956	20.785474
166.038671	-3.011000	3.865100	-11.636000	21.959913	0.000955	20.800244
167.035779	-2.999700	3.866200	-11.596000	21.952107	0.000955	20.781525
168.037248	-3.001900	3.865600	-11.603000	21.959486	0.000956	20.815464
169.037130	-2.998300	3.865800	-11.588000	21.975539	0.000959	20.820153
170.040397	-2.980500	3.865800	-11.520000	21.987351	0.000957	20.805900
171.037514	-3.012200	3.865700	-11.643000	21.990613	0.000956	20.805372
172.041342	-3.028900	3.864100	-11.703000	21.995025	0.000958	20.801253
173.037607	-3.007600	3.863400	-11.617000	21.997166	0.000959	20.795336
174.039390	-3.001000	3.864900	-11.598000	21.991230	0.000960	20.791764
175.038860	-3.009900	3.864000	-11.629000	22.007207	0.000958	20.781206
176.037653	-2.981600	3.865100	-11.523000	22.026076	0.000959	20.797250
177.037920	-3.005700	3.864700	-11.615000	22.028243	0.000961	20.807953
178.037695	-3.010700	3.862700	-11.628000	22.029511	0.000960	20.824870
179.038818	-3.006200	3.864900	-11.617000	22.029138	0.000960	20.794151
180.035965	-3.013800	3.862900	-11.641000	22.031381	0.000960	20.807776
181.043210	-3.003000	3.862500	-11.598000	22.034893	0.000963	20.767669
182.038871	-2.979900	3.863100	-11.511000	22.017565	0.000963	20.789204
183.043635	-2.994300	3.862200	-11.563000	22.044986	0.000959	20.801956
184.042356	-3.006600	3.861400	-11.609000	22.055031	0.000962	20.809640
185.042066	-3.002200	3.862600	-11.595000	22.062159	0.000961	20.808715
186.045992	-2.991600	3.863300	-11.557000	22.083472	0.000963	20.822940
187.044005	-3.025400	3.860400	-11.677000	22.054155	0.000963	20.808290
188.045959	-2.995900	3.863100	-11.573000	22.073522	0.000964	20.826729
189.042249	-3.004000	3.861800	-11.599000	22.100268	0.000964	20.811780
190.039973	-3.006600	3.861200	-11.608000	22.092217	0.000964	20.821263
191.043895	-3.003300	3.861800	-11.597000	22.070380	0.000965	20.827851
192.047827	-2.992700	3.861300	-11.552000	22.099142	0.000964	20.811601
193.042804	-3.005900	3.861000	-11.605000	22.109115	0.000968	20.834861
194.043887	-2.999900	3.861200	-11.582000	22.112304	0.000967	20.812450
195.043501	-3.012500	3.860100	-11.627000	22.127632	0.000968	20.790812
196.042589	-3.009500	3.860400	-11.616000	22.133364	0.000970	20.813620
197.044642	-3.016000	3.859300	-11.638000	22.145479	0.000968	20.813421
198.039552	-3.013800	3.860100	-11.633000	22.139969	0.000971	20.824974
199.043162	-2.981900	3.859800	-11.508000	22.122021	0.000972	20.821703
200.042997	-3.004700	3.860200	-11.597000	22.148991	0.000971	20.834006
201.039437	-2.995300	3.860600	-11.562000	22.166365	0.000971	20.820107
202.044404	-3.006200	3.859000	-11.600000	22.161553	0.000972	20.817186
203.042722	-2.989400	3.860100	-11.538000	22.175537	0.000971	20.825497
204.042906	-2.996600	3.859600	-11.564000	22.174166	0.000973	20.823176
205.043225	-3.013700	3.856700	-11.621000	22.185607	0.000975	20.825148
206.042207	-2.996500	3.858100	-11.559000	22.195452	0.000973	20.842591
207.044026	-3.002400	3.857500	-11.580000	22.229628	0.000976	20.836031
208.045018	-2.995900	3.857900	-11.557000	22.213103	0.000976	20.828021
209.043216	-3.009400	3.855900	-11.603000	22.218984	0.000977	20.843392
210.045707	-2.986800	3.857600	-11.521000	22.229405	0.000977	20.809256
211.043314	-3.015500	3.857000	-11.630000	22.228084	0.000976	20.824529
212.043526	-3.015700	3.857100	-11.630000	22.230328	0.000977	20.835784
213.046261	-2.995300	3.856400	-11.550000	22.227887	0.000979	20.826702
214.044868	-3.008400	3.856500	-11.601000	22.248726	0.000979	20.848040
215.050997	-3.011000	3.857400	-11.613000	22.246233	0.000979	20.843648
216.047516	-3.001700	3.856000	-11.574000	22.262859	0.000976	20.814303
217.048521	-2.994400	3.857200	-11.549000	22.257153	0.000978	20.831349
218.052337	-3.005800	3.857100	-11.591000	22.266749	0.000980	20.837638
219.048043	-2.982600	3.857200	-11.503000	22.278813	0.000978	20.864415
220.050541	-2.997400	3.856300	-11.558000	22.286667	0.000979	20.869433
221.050086	-3.018800	3.855400	-11.638000	22.281858	0.000980	20.842335
222.048291	-3.000400	3.856000	-11.569000	22.303866	0.000981	20.840664
223.051961	-3.008000	3.855700	-11.597000	22.298657	0.000982	20.837819
224.049498	-3.015800	3.854300	-11.622000	22.325400	0.000980	20.841363
225.052745	-2.998600	3.854800	-11.558000	22.312468	0.000982	20.862552
226.057655	-2.987100	3.855800	-11.516000	22.298462	0.000984	20.844262
227.053253	-3.015700	3.852600	-11.616000	22.332855	0.000982	20.855940
228.053854	-2.995900	3.854200	-11.546000	22.323711	0.000982	20.850103
229.057253	-2.996000	3.853800	-11.544000	22.331213	0.000983	20.848132
230.052511	-3.008700	3.853600	-11.593000	22.358455	0.000983	20.853125
231.053736	-3.007000	3.854200	-11.589000	22.354442	0.000983	20.878977
232.050750	-3.006200	3.853100	-11.581000	22.385221	0.000985	20.855272
233.053818	-3.019900	3.852100	-11.632000	22.364989	0.000987	20.864410
234.054615	-2.994700	3.853900	-11.540000	22.382457	0.000984	20.862936
235.058306	-2.979000	3.853900	-11.479000	22.393299	0.000984	20.871422
236.054782	-3.009100	3.851600	-11.589000	22.392953	0.000986	20.871075
237.054501	-3.001400	3.853100	-11.562000	22.386947	0.000987	20.866484
238.057135	-2.992500	3.852500	-11.528000	22.388070	0.000987	20.869978
239.054406	-2.990500	3.852100	-11.519000	22.390762	0.000987	20.857502
240.060827	-2.997300	3.851500	-11.543000	22.370279	0.000988	20.882033
241.053348	-2.984900	3.852000	-11.498000	22.384135	0.000989	20.877417
242.058488	-3.001500	3.851900	-11.560000	22.375091	0.000989	20.880214
243.053934	-2.982700	3.851900	-11.488000	22.356476	0.000990	20.874376
244.058766	-3.014700	3.850800	-11.608000	22.387153	0.000989	20.896085
245.063307	-2.985800	3.850800	-11.497000	22.392414	0.000991	20.875276
246.061217	-3.001300	3.851200	-11.557000	22.417984	0.000992	20.886657
247.057824	-2.982900	3.850600	-11.485000	22.424462	0.000992	20.897885
248.061269	-3.002800	3.850200	-11.561000	22.434783	0.000992	20.895892
249.061247	-2.978800	3.851600	-11.471000	22.429750	0.000994	20.884215
250.063220	-2.990900	3.850800	-11.516000	22.449164	0.000992	20.881846
251.063435	-3.011300	3.849900	-11.592000	22.434862	0.000993	20.880799
252.060245	-2.991600	3.850100	-11.517000	22.461103	0.000995	20.900438
253.068244	-3.016200	3.848900	-11.608000	22.472641	0.000994	20.893502
254.064925	-2.971600	3.850400	-11.441000	22.482760	0.000998	20.887990
255.069139	-3.008800	3.848500	-11.579000	22.498261	0.000996	20.906831
256.065210	-3.006500	3.849200	-11.572000	22.487424	0.000996	20.891238
257.065979	-2.988300	3.849700	-11.503000	22.503275	0.000998	20.898577
258.069260	-2.991100	3.848500	-11.510000	22.499362	0.000996	20.935906
259.069150	-2.994900	3.847600	-11.522000	22.486904	0.000998	20.910156
260.068088	-2.971800	3.849700	-11.439000	22.463181	0.000999	20.884504
261.064687	-2.999200	3.847300	-11.537000	22.475843	0.001000	20.891968
262.072098	-2.998300	3.847400	-11.534000	22.500863	0.000999	20.915600
263.071032	-3.011200	3.847700	-11.586000	22.487408	0.000999	20.903075
264.069195	-3.026700	3.846300	-11.640000	22.514347	0.000999	20.920095
265.066265	-2.992700	3.849200	-11.518000	22.504557	0.000999	20.915980
266.068692	-2.993700	3.847600	-11.518000	22.520679	0.001000	20.901308
267.073731	-2.997800	3.847400	-11.531000	22.538594	0.001001	20.914033
268.071060	-3.001000	3.847300	-11.546000	22.551054	0.001000	20.907546
269.075142	-2.991300	3.846300	-11.504000	22.557062	0.001002	20.924468
270.068038	-3.010600	3.847000	-11.581000	22.542261	0.001002	20.933350
271.070046	-2.981800	3.845500	-11.465000	22.532646	0.001003	20.907602
272.074824	-2.989100	3.847200	-11.498000	22.547247	0.001003	20.933603
273.071967	-2.998800	3.846800	-11.534000	22.550761	0.001005	20.939018
274.070066	-2.991400	3.845500	-11.502000	22.568130	0.001004	20.939818
275.072382	-3.002000	3.845400	-11.543000	22.567781	0.001004	20.925721
276.073015	-3.006000	3.845400	-11.558000	22.577698	0.001004	20.915265
277.074392	-2.963300	3.845200	-11.393000	22.596338	0.001005	20.924451
278.077908	-3.001500	3.843900	-11.537000	22.597557	0.001005	20.910025
279.072592	-3.007300	3.844000	-11.558000	22.605481	0.001007	20.916065
280.075495	-3.001100	3.843900	-11.535000	22.620657	0.001006	20.925574
281.071630	-2.987300	3.844500	-11.483000	22.616397	0.001007	20.927945
282.072380	-2.988900	3.844500	-11.489000	22.607577	0.001006	20.937602
283.072077	-3.002300	3.843700	-11.539000	22.597884	0.001007	20.923628
284.072218	-2.995200	3.843900	-11.512000	22.617642	0.001008	20.926347
285.072937	-2.994200	3.843200	-11.505000	22.623024	0.001007	20.925100
286.071202	-2.984500	3.843600	-11.470000	22.610092	0.001007	20.936802
287.070308	-2.992300	3.842700	-11.498000	22.615898	0.001008	20.918438
288.075743	-2.976100	3.843700	-11.437000	22.621902	0.001009	20.929666
289.075643	-3.000700	3.842100	-11.527000	22.634336	0.001010	20.921731
290.074111	-3.008800	3.840400	-11.553000	22.658877	0.001010	20.915019
291.074800	-2.981800	3.841800	-11.455000	22.664034	0.001011	20.898375
292.072474	-3.014800	3.841600	-11.580000	22.657580	0.001012	20.910875
293.073498	-2.983800	3.841600	-11.460000	22.674920	0.001011	20.914966
294.077272	-3.001800	3.841800	-11.530000	22.671533	0.001011	20.894032
295.075287	-3.006300	3.839800	-11.542000	22.690739	0.001012	20.912794
296.080414	-2.994300	3.840100	-11.497000	22.713586	0.001014	20.911023
297.073872	-3.001500	3.840200	-11.526000	22.709822	0.001014	20.910572
298.075944	-3.000700	3.839900	-11.521000	22.705937	0.001013	20.909052
299.081203	-2.996000	3.840100	-11.504000	22.736705	0.001015	20.893880
300.077137	-2.974200	3.841300	-11.423000	22.731450	0.001014	20.916115
301.075687	-3.010500	3.838800	-11.556000	22.731696	0.001017	20.895975
302.076380	-3.006900	3.838900	-11.543000	22.734586	0.001018	20.913567
303.078292	-3.002600	3.840000	-11.529000	22.760895	0.001018	20.901042
304.080260	-3.008400	3.841200	-11.555000	22.760447	0.001018	20.914342
305.084160	-3.016200	3.837700	-11.574000	22.771657	0.001019	20.903287
306.074868	-2.976700	3.839400	-11.427000	22.754792	0.001019	20.894454
307.077776	-3.023900	3.837500	-11.603000	22.739597	0.001019	20.914793
308.078057	-2.973500	3.841100	-11.421000	22.712019	0.001021	20.903291
309.078710	-2.985900	3.838700	-11.461000	22.734690	0.001022	20.895655
310.083040	-3.003600	3.838200	-11.528000	22.733022	0.001022	20.888295
311.087427	-2.996200	3.838800	-11.501000	22.733821	0.001023	20.905689
312.082195	-3.004800	3.837700	-11.531000	22.716457	0.001022	20.902046
313.078135	-2.987200	3.837300	-11.461000	22.738829	0.001022	20.905490
314.080636	-3.006400	3.837400	-11.534000	22.737835	0.001023	20.904020
315.080539	-2.992300	3.837300	-11.480000	22.746132	0.001026	20.903796
316.087110	-3.006500	3.836900	-11.535000	22.766114	0.001023	20.890149
317.078204	-3.020700	3.836800	-11.588000	22.772618	0.001024	20.890974
318.081652	-3.000600	3.836600	-11.512000	22.782983	0.001027	20.885237
319.079285	-3.011400	3.835100	-11.548000	22.787270	0.001028	20.892376
320.081702	-2.996200	3.836400	-11.493000	22.792353	0.001027	20.889882
321.084616	-2.990100	3.836700	-11.471000	22.780547	0.001027	20.886116
322.083230	-2.979400	3.835800	-11.427000	22.774569	0.001026	20.889136
323.085754	-2.994300	3.835700	-11.484000	22.772154	0.001028	20.886243
324.080839	-3.001800	3.835000	-11.511000	22.793955	0.001029	20.886270
325.085545	-2.995500	3.832900	-11.481000	22.799436	0.001029	20.869478
326.085996	-2.982100	3.834000	-11.432000	22.796724	0.001030	20.885251
327.094698	-3.014700	3.833300	-11.554000	22.824601	0.001030	20.888522
328.082857	-2.979000	3.835900	-11.426000	22.801734	0.001029	20.892166
329.086234	-2.997200	3.833200	-11.488000	22.827596	0.001031	20.894366
330.085932	-3.018500	3.833400	-11.570000	22.829241	0.001031	20.877049
331.085432	-3.001200	3.832600	-11.501000	22.847376	0.001030	20.885259
332.102118	-2.992400	3.834100	-11.472000	22.836941	0.001031	20.889029
333.083558	-2.992800	3.832900	-11.470000	22.833880	0.001031	20.880748
334.087068	-2.988000	3.832000	-11.449000	22.854034	0.001031	20.875808
335.087192	-3.004900	3.832700	-11.516000	22.846040	0.001033	20.882498
336.086855	-2.971200	3.833200	-11.387000	22.834806	0.001033	20.887365
337.089451	-2.977600	3.832900	-11.412000	22.841109	0.001031	20.867128
338.087943	-3.000900	3.831000	-11.495000	22.866869	0.001033	20.894829
339.087291	-2.998300	3.831500	-11.486000	22.875391	0.001034	20.879186
340.089622	-2.997100	3.830500	-11.480000	22.885880	0.001034	20.888745
341.089665	-3.011200	3.829300	-11.530000	22.907105	0.001032	20.887724
342.088558	-3.000000	3.831600	-11.494000	22.895448	0.001034	20.889796
343.091058	-3.003000	3.831000	-11.503000	22.927157	0.001034	20.879365
344.092900	-2.993100	3.831700	-11.467000	22.907055	0.001034	20.890993
345.091387	-3.006600	3.829400	-11.513000	22.900506	0.001034	20.872579
346.094645	-2.988900	3.830100	-11.447000	22.906409	0.001037	20.865217
347.093386	-2.994500	3.829400	-11.465000	22.898963	0.001035	20.868189
348.093447	-2.960400	3.830900	-11.340000	22.911640	0.001035	20.860501
349.092201	-3.021500	3.828100	-11.564000	22.915753	0.001036	20.880268
350.094471	-2.989500	3.830200	-11.449000	22.910570	0.001035	20.887402
351.089148	-3.012500	3.827500	-11.529000	22.920634	0.001036	20.870459
352.093251	-3.012700	3.827500	-11.529000	22.932441	0.001039	20.855736
353.096314	-2.989200	3.829600	-11.447000	22.926536	0.001038	20.880639
354.093840	-3.021500	3.826900	-11.562000	22.957321	0.001040	20.863594
355.096945	-3.004100	3.828400	-11.500000	22.948329	0.001039	20.874973
356.095490	-3.026800	3.826000	-11.580000	22.972788	0.001037	20.869133
357.095947	-3.004800	3.826700	-11.498000	22.979114	0.001039	20.844652
358.091214	-3.010700	3.826600	-11.520000	22.994781	0.001039	20.853236
359.099082	-2.982500	3.827700	-11.415000	22.999511	0.001038	20.861294
360.092742	-2.998600	3.826500	-11.474000	23.002100	0.001040	20.854406
361.098258	-2.971500	3.826400	-11.367000	23.018861	0.001039	20.846070
362.090725	-2.993500	3.827200	-11.456000	23.000576	0.001041	20.861413
363.094987	-2.978500	3.826400	-11.396000	23.007102	0.001042	20.857520
364.100984	-3.017000	3.826700	-11.544000	22.980275	0.001042	20.854823
365.093971	-2.990900	3.826100	-11.442000	22.957384	0.001042	20.875984
366.096195	-2.986900	3.826800	-11.430000	22.941839	0.001043	20.845713
367.099924	-3.022000	3.826000	-11.561000	22.934040	0.001044	20.827468
368.099235	-3.000500	3.825600	-11.478000	22.926690	0.001044	20.850450
369.100376	-3.002000	3.825500	-11.483000	22.928431	0.001044	20.844134
370.096926	-2.982800	3.824700	-11.407000	22.939738	0.001044	20.863995
371.100255	-2.984800	3.825600	-11.418000	22.919858	0.001045	20.840286
372.103275	-2.994300	3.824700	-11.451000	22.943795	0.001046	20.847198
373.101397	-2.992200	3.824900	-11.444000	22.945087	0.001046	20.858924
374.101802	-3.006900	3.824500	-11.499000	22.945882	0.001048	20.873469
375.103149	-3.006700	3.823100	-11.495000	22.968748	0.001047	20.841853
376.102232	-3.008400	3.823100	-11.500000	22.954000	0.001046	20.838931
377.101914	-3.000700	3.823000	-11.471000	22.980300	0.001047	20.835409
378.098109	-3.003700	3.821000	-11.475000	22.995967	0.001048	20.833563
379.102007	-2.999600	3.823500	-11.469000	23.029342	0.001052	20.837130
380.106225	-3.012800	3.821600	-11.513000	23.019277	0.001048	20.841270
381.103658	-3.019100	3.821000	-11.534000	23.042240	0.001049	20.843415
382.104425	-2.993700	3.822700	-11.443000	23.071056	0.001049	20.833883
383.099453	-3.000500	3.820700	-11.463000	23.070906	0.001051	20.844163
384.103263	-3.006800	3.820200	-11.485000	23.055390	0.001051	20.840945
385.104156	-3.018300	3.819200	-11.526000	23.059071	0.001052	20.832306
386.104987	-2.989600	3.820700	-11.421000	23.060093	0.001050	20.829536
387.103349	-3.008300	3.820200	-11.491000	23.076905	0.001052	20.853493
388.101353	-2.997700	3.820900	-11.453000	23.046119	0.001053	20.816484
389.103499	-3.000300	3.819600	-11.456000	23.058846	0.001053	20.848675
390.103404	-3.014900	3.818400	-11.509000	23.056878	0.001053	20.828686
391.107370	-3.004100	3.818700	-11.471000	23.083676	0.001055	20.834200
392.103610	-2.969000	3.819200	-11.338000	23.077122	0.001053	20.830478
393.106800	-3.000500	3.818600	-11.457000	23.099363	0.001055	20.833797
394.099836	-3.002500	3.817800	-11.461000	23.103246	0.001053	20.847646
395.101889	-2.978200	3.818300	-11.370000	23.120556	0.001053	20.838913
396.101874	-3.002700	3.818500	-11.465000	23.096025	0.001055	20.812910
397.103680	-2.992000	3.817600	-11.422000	23.071415	0.001054	20.831872
398.103035	-2.996400	3.817600	-11.438000	23.067679	0.001057	20.815327
399.101212	-3.006900	3.816200	-11.474000	23.073481	0.001056	20.835364
400.105371	-2.998300	3.816800	-11.443000	23.078038	0.001057	20.820965
401.106404	-3.024100	3.815000	-11.536000	23.108049	0.001057	20.834441
402.110116	-3.013200	3.816500	-11.498000	23.109217	0.001057	20.842249
403.104893	-3.004800	3.816500	-11.467000	23.101471	0.001056	20.820737
404.106757	-3.004900	3.816100	-11.466000	23.103263	0.001059	20.813999
405.103484	-3.007700	3.816400	-11.478000	23.112177	0.001058	20.832413
406.108633	-2.995500	3.816900	-11.433000	23.118427	0.001059	20.816391
407.112888	-2.988000	3.815400	-11.400000	23.142434	0.001060	20.831438
408.108236	-2.984100	3.815500	-11.385000	23.151447	0.001059	20.820556
409.109675	-2.984600	3.814400	-11.383000	23.142582	0.001059	20.811198
410.108437	-2.976800	3.815800	-11.358000	23.138271	0.001060	20.816836
411.109394	-2.990200	3.815100	-11.407000	23.136602	0.001059	20.804732
412.108774	-3.000500	3.814200	-11.443000	23.151668	0.001061	20.806553
413.113068	-2.996900	3.812800	-11.425000	23.154209	0.001062	20.815737
414.110451	-3.008900	3.813800	-11.475000	23.180257	0.001061	20.799639
415.111995	-3.003900	3.812600	-11.451000	23.200627	0.001063	20.813415
416.114010	-2.978600	3.813500	-11.358000	23.174354	0.001062	20.795620
417.112992	-2.974600	3.815200	-11.348000	23.202368	0.001061	20.812788
418.112600	-2.980200	3.813400	-11.364000	23.209763	0.001060	20.804552
419.112956	-3.003500	3.811800	-11.447000	23.199875	0.001062	20.795117
420.116726	-3.020700	3.810300	-11.508000	23.195865	0.001063	20.803901
421.109750	-2.991300	3.811300	-11.399000	23.187746	0.001065	20.797187
422.110211	-2.991900	3.812900	-11.407000	23.184482	0.001063	20.824736
423.113390	-3.009400	3.811300	-11.467000	23.184082	0.001062	20.822913
424.116613	-3.003300	3.810400	-11.442000	23.154546	0.001064	20.801850
425.115517	-3.026500	3.808900	-11.526000	23.162838	0.001065	20.812530
426.113748	-2.987100	3.810200	-11.381000	23.158402	0.001066	20.786748
427.116560	-2.990200	3.810300	-11.392000	23.129614	0.001066	20.797255
428.117851	-2.988800	3.809200	-11.383000	23.116786	0.001067	20.807160
429.119873	-3.002000	3.808400	-11.432000	23.133445	0.001064	20.793982
430.113830	-2.999300	3.809700	-11.426000	23.148885	0.001068	20.801393
431.114247	-2.989100	3.809400	-11.386000	23.139818	0.001065	20.811747
432.123259	-3.004400	3.807700	-11.438000	23.155506	0.001068	20.798545
433.121154	-2.999800	3.808700	-11.425000	23.151195	0.001066	20.792329
434.124459	-3.010700	3.809700	-11.469000	23.182648	0.001067	20.803932
435.120867	-2.993100	3.807800	-11.396000	23.177416	0.001066	20.799163
436.119988	-3.017600	3.808000	-11.490000	23.189468	0.001067	20.801758
437.117698	-3.013200	3.808300	-11.473000	23.217230	0.001066	20.778844
438.119066	-3.013700	3.806900	-11.472000	23.226966	0.001067	20.794765
439.125904	-3.015500	3.806300	-11.477000	23.206844	0.001068	20.762746
440.119010	-2.995100	3.806800	-11.400000	23.192496	0.001067	20.810008
441.117955	-3.020200	3.804500	-11.490000	23.200163	0.001069	20.786871
442.122005	-3.001000	3.805600	-11.420000	23.186268	0.001068	20.790964
443.121561	-2.991300	3.805600	-11.382000	23.240278	0.001068	20.791036
444.123271	-3.018300	3.804300	-11.481000	23.218960	0.001069	20.782474
445.123065	-3.001400	3.804700	-11.418000	23.213929	0.001069	20.786915
446.119196	-3.005100	3.805000	-11.434000	23.254417	0.001069	20.790506
447.121856	-3.000100	3.804900	-11.414000	23.266218	0.001069	20.783841
448.117760	-3.005200	3.804300	-11.430000	23.267661	0.001070	20.806150
449.117277	-2.991500	3.805400	-11.382000	23.259441	0.001070	20.798386
450.124259	-3.008700	3.802700	-11.439000	23.271415	0.001070	20.793791
451.118216	-2.995800	3.804100	-11.396000	23.305205	0.001071	20.791619
452.118001	-2.986700	3.804500	-11.362000	23.324648	0.001071	20.780760
453.118974	-3.008200	3.804800	-11.443000	23.338691	0.001073	20.785351
454.119474	-3.002400	3.802200	-11.415000	23.322877	0.001072	20.785623
455.119318	-3.012200	3.802300	-11.452000	23.319712	0.001073	20.789563
456.127597	-2.982900	3.801700	-11.337000	23.316075	0.001074	20.781177
457.120625	-2.981100	3.802600	-11.336000	23.341496	0.001071	20.786740
458.122687	-2.975700	3.802900	-11.315000	23.330190	0.001069	20.776831
459.123010	-2.990300	3.802100	-11.369000	23.344752	0.001073	20.770563
460.129570	-3.009400	3.801500	-11.440000	23.341839	0.001073	20.770962
461.130291	-3.003700	3.802600	-11.421000	23.338476	0.001075	20.765220
462.127059	-3.015900	3.800500	-11.461000	23.309267	0.001075	20.780043
463.127759	-3.003400	3.800900	-11.415000	23.300897	0.001075	20.795837
464.127719	-3.000300	3.800800	-11.402000	23.304977	0.001074	20.779063
465.128115	-2.999100	3.801200	-11.399000	23.329901	0.001076	20.779861
466.124968	-2.991500	3.800400	-11.367000	23.341179	0.001075	20.769826
467.127986	-3.020400	3.799200	-11.472000	23.349243	0.001076	20.757045
468.127780	-2.992200	3.800300	-11.370000	23.380090	0.001076	20.766626
469.131230	-3.009500	3.798800	-11.431000	23.386736	0.001075	20.799366
470.128698	-2.985300	3.798900	-11.340000	23.380037	0.001074	20.760882
471.131444	-3.005500	3.797800	-11.412000	23.380358	0.001078	20.775429
472.133697	-2.982000	3.798600	-11.326000	23.373335	0.001077	20.776451
473.129441	-2.987800	3.797600	-11.345000	23.382570	0.001077	20.767215
474.130353	-3.003600	3.798200	-11.407000	23.396884	0.001078	20.798631
475.126050	-2.997300	3.797600	-11.382000	23.412817	0.001078	20.767659
476.132922	-2.982600	3.797200	-11.325000	23.409352	0.001079	20.766557
477.133019	-2.977100	3.797900	-11.306000	23.413135	0.001077	20.777936
478.127054	-3.004100	3.796500	-11.403000	23.384923	0.001077	20.763883
479.134537	-2.986200	3.797700	-11.340000	23.365277	0.001080	20.768374
480.128850	-2.998300	3.795500	-11.378000	23.383674	0.001080	20.764053
481.132226	-2.988300	3.795000	-11.339000	23.401973	0.001081	20.778128
482.127683	-2.996200	3.795500	-11.371000	23.378018	0.001078	20.764549
483.135828	-2.989700	3.796000	-11.348000	23.382148	0.001079	20.754463
484.125770	-3.007800	3.794300	-11.412000	23.367506	0.001081	20.760177
485.129851	-3.006100	3.795100	-11.408000	23.369472	0.001081	20.759302
486.128808	-2.996200	3.794500	-11.368000	23.381222	0.001079	20.762545
487.133142	-2.996500	3.794000	-11.368000	23.394565	0.001081	20.757426
488.132595	-3.013000	3.793200	-11.429000	23.392048	0.001079	20.777189
489.139609	-3.014100	3.792800	-11.431000	23.398172	0.001083	20.758196
490.131774	-3.006200	3.793100	-11.402000	23.398568	0.001082	20.767602
491.132284	-3.020200	3.792900	-11.453000	23.408426	0.001082	20.752352
492.133343	-2.993000	3.793300	-11.352000	23.407552	0.001082	20.765701
493.135284	-3.004800	3.791200	-11.391000	23.403842	0.001082	20.768147
494.136979	-3.002000	3.792300	-11.383000	23.416212	0.001083	20.743087
495.150576	-2.984400	3.791100	-11.313000	23.423058	0.001083	20.741414
496.135748	-2.996200	3.790900	-11.357000	23.405254	0.001083	20.734473
497.136686	-2.988800	3.791100	-11.329000	23.400970	0.001083	20.747724
498.139906	-2.984600	3.792000	-11.315000	23.403234	0.001085	20.749045
499.135989	-3.000300	3.790700	-11.372000	23.434754	0.001084	20.744602
500.137239	-3.003000	3.789200	-11.378000	23.431266	0.001083	20.750115
501.136715	-3.004800	3.788300	-11.382000	23.459323	0.001083	20.756901
502.132049	-2.998100	3.790900	-11.363000	23.474634	0.001084	20.752807
503.138157	-3.003500	3.789600	-11.381000	23.485387	0.001083	20.776863
504.135749	-2.979600	3.789800	-11.291000	23.504357	0.001087	20.745142
505.137059	-2.996300	3.789100	-11.351000	23.488521	0.001085	20.761037
506.134792	-2.997700	3.787200	-11.352000	23.501541	0.001087	20.750380
507.136707	-2.991100	3.787200	-11.326000	23.482893	0.001083	20.748757
508.135688	-3.027500	3.786200	-11.461000	23.489564	0.001085	20.769669
509.133634	-3.026100	3.787400	-11.460000	23.498326	0.001086	20.749529
510.137264	-2.986900	3.787600	-11.311000	23.510001	0.001086	20.750800
511.135607	-2.981200	3.787100	-11.289000	23.515651	0.001086	20.742238
512.138281	-3.037100	3.785000	-11.494000	23.508306	0.001087	20.741040
513.137825	-2.999500	3.786800	-11.358000	23.488140	0.001086	20.747379
514.142042	-3.007500	3.786400	-11.388000	23.488660	0.001087	20.759281
515.136856	-3.018800	3.785700	-11.427000	23.513108	0.001087	20.743009
516.136796	-3.005300	3.786100	-11.378000	23.498491	0.001089	20.741159
517.139355	-3.012600	3.785000	-11.401000	23.518111	0.001088	20.744705
518.133005	-2.980900	3.785000	-11.282000	23.512534	0.001091	20.770883
519.138291	-3.017000	3.785000	-11.418000	23.488481	0.001090	20.770007
520.139274	-2.998700	3.784500	-11.348000	23.500806	0.001090	20.758654
521.139214	-3.011800	3.782300	-11.391000	23.493933	0.001089	20.759824
522.137046	-3.009500	3.783000	-11.384000	23.507451	0.001090	20.758202
523.137969	-3.022400	3.782900	-11.432000	23.521643	0.001088	20.746823
524.138101	-2.986900	3.785000	-11.304000	23.537524	0.001089	20.763217
525.141425	-3.004000	3.782700	-11.362000	23.526545	0.001091	20.774497
526.140338	-3.013000	3.782500	-11.396000	23.526469	0.001091	20.751661
527.136450	-3.022400	3.781600	-11.428000	23.531748	0.001091	20.756005
528.138429	-2.980500	3.782700	-11.273000	23.526422	0.001092	20.754932
529.144495	-3.005600	3.781600	-11.365000	23.527666	0.001090	20.764715
530.149267	-2.991400	3.781000	-11.309000	23.523807	0.001092	20.763691
531.138967	-3.020900	3.781100	-11.421000	23.534263	0.001091	20.761371
532.142077	-2.991500	3.780300	-11.308000	23.562718	0.001093	20.777093
533.140281	-3.006800	3.780700	-11.366000	23.568742	0.001093	20.754208
534.141285	-2.992600	3.781100	-11.314000	23.577033	0.001094	20.765364
535.142869	-3.005800	3.780200	-11.361000	23.581714	0.001094	20.764841
536.138396	-2.986000	3.779700	-11.285000	23.591474	0.001094	20.767038
537.141377	-2.976000	3.780100	-11.249000	23.607805	0.001092	20.754960
538.145168	-2.981800	3.778800	-11.267000	23.601431	0.001094	20.768012
539.137695	-2.985300	3.779300	-11.282000	23.571261	0.001093	20.774277
540.153665	-3.003800	3.778200	-11.348000	23.564341	0.001093	20.779668
541.146729	-3.007800	3.777900	-11.362000	23.564791	0.001095	20.778222
542.146810	-2.989200	3.778800	-11.293000	23.564741	0.001094	20.784336
543.146087	-2.995900	3.777900	-11.317000	23.567830	0.001094	20.773682
544.144839	-2.995300	3.777300	-11.312000	23.591479	0.001094	20.783166
545.139491	-2.989300	3.776200	-11.287000	23.628521	0.001094	20.785687
546.142978	-2.987800	3.777400	-11.284000	23.602409	0.001096	20.778475
547.149096	-2.991500	3.774800	-11.291000	23.622722	0.001094	20.773235
548.143330	-2.982100	3.776900	-11.262000	23.624691	0.001094	20.787536
549.142795	-3.017100	3.774300	-11.386000	23.663648	0.001092	20.779176
550.147354	-3.000200	3.775000	-11.324000	23.655261	0.001093	20.779777
551.148034	-3.024600	3.773800	-11.413000	23.653967	0.001093	20.778006
552.150600	-2.985000	3.774800	-11.266000	23.661784	0.001095	20.791058
553.147969	-2.991700	3.774100	-11.288000	23.663676	0.001094	20.771143
554.146312	-2.991100	3.774500	-11.289000	23.659969	0.001095	20.773117
555.149475	-3.013900	3.774700	-11.376000	23.676622	0.001095	20.796925
556.149047	-2.995900	3.773200	-11.303000	23.668484	0.001094	20.781653
557.151419	-3.006800	3.772000	-11.340000	23.691783	0.001093	20.803115
558.149679	-3.006400	3.773800	-11.345000	23.702735	0.001095	20.784224
559.152778	-2.995800	3.772000	-11.298000	23.757099	0.001094	20.791787
560.153117	-3.016500	3.772100	-11.376000	23.724740	0.001095	20.793009
561.155487	-3.024500	3.771800	-11.406000	23.724467	0.001095	20.779459
562.150302	-3.022600	3.771300	-11.398000	23.711574	0.001092	20.790715
563.152290	-3.026000	3.771900	-11.412000	23.716728	0.001094	20.791141
564.153501	-3.015200	3.770600	-11.368000	23.717872	0.001094	20.804142
565.156951	-3.023600	3.770400	-11.398000	23.719516	0.001094	20.805315
566.155588	-2.999900	3.770800	-11.311000	23.720537	0.001093	20.770303
567.152413	-3.017200	3.769400	-11.372000	23.737887	0.001094	20.800974
568.163206	-3.009000	3.769700	-11.341000	23.727930	0.001094	20.800475
569.156282	-2.992800	3.769400	-11.279000	23.734403	0.001094	20.813602
570.157026	-2.981000	3.769200	-11.234000	23.767658	0.001094	20.810909
571.158299	-3.002400	3.768300	-11.313000	23.768979	0.001094	20.800853
572.157081	-2.985700	3.769200	-11.252000	23.795486	0.001095	20.798982
573.167909	-2.981100	3.768800	-11.234000	23.778886	0.001093	20.796563
574.162279	-3.003600	3.767800	-11.315000	23.763681	0.001093	20.814982
575.158774	-3.005400	3.767300	-11.320000	23.775156	0.001095	20.822220
576.158853	-2.986500	3.767800	-11.252000	23.767639	0.001094	20.807097
577.160162	-2.986400	3.769100	-11.255000	23.746833	0.001095	20.811366
578.158826	-2.985200	3.767700	-11.246000	23.780260	0.001094	20.814535
579.159695	-2.994100	3.767000	-11.278000	23.778693	0.001095	20.809644
580.160144	-3.033100	3.766600	-11.424000	23.785116	0.001095	20.811818
581.164935	-3.017600	3.764700	-11.359000	23.809159	0.001094	20.799415
582.161402	-2.992500	3.765900	-11.268000	23.819938	0.001092	20.813067
583.159847	-3.029300	3.766000	-11.407000	23.845575	0.001093	20.803685
584.163620	-3.006700	3.765500	-11.320000	23.819343	0.001095	20.840919
585.159998	-3.005400	3.764200	-11.312000	23.846895	0.001093	20.809277
586.163602	-3.019100	3.764600	-11.364000	23.868051	0.001095	20.802041
587.160066	-2.997800	3.764300	-11.284000	23.834054	0.001094	20.834333
588.159635	-3.017300	3.763400	-11.354000	23.822158	0.001093	20.821457
589.162467	-3.004600	3.764600	-11.310000	23.828779	0.001095	20.833311
590.164895	-3.024000	3.762100	-11.375000	23.820765	0.001096	20.821956
591.163176	-3.004700	3.763000	-11.306000	23.763495	0.001094	20.831865
592.163302	-3.000200	3.762200	-11.286000	23.772630	0.001095	20.815894
593.164767	-3.015500	3.761700	-11.342000	23.765413	0.001097	20.822409
594.164121	-2.978100	3.762200	-11.203000	23.787267	0.001095	20.829147
595.168319	-3.013700	3.760800	-11.333000	23.763348	0.001095	20.819864
596.166263	-2.979300	3.762100	-11.207000	23.783412	0.001095	20.828126
597.164233	-3.018500	3.759900	-11.348000	23.799441	0.001097	20.821913
598.165401	-2.989600	3.760400	-11.241000	23.825526	0.001097	20.839058
599.166048	-3.027700	3.760100	-11.383000	23.820376	0.001100	20.835791
600.168340	-3.023900	3.760900	-11.371000	23.821671	0.001098	20.827133
601.167922	-2.996500	3.760100	-11.266000	23.801810	0.001098	20.829504
602.167578	-3.008900	3.759400	-11.310000	23.793449	0.001098	20.822069
603.177017	-3.001400	3.759900	-11.284000	23.858136	0.001097	20.854212
604.168384	-3.001400	3.758900	-11.280000	23.860053	0.001096	20.847125
605.166816	-3.009700	3.758000	-11.309000	23.871901	0.001097	20.822970
606.165827	-3.017100	3.759300	-11.342000	23.893230	0.001098	20.837719
607.168615	-3.026800	3.756700	-11.370000	23.897039	0.001098	20.840590
608.174215	-3.000900	3.757300	-11.274000	23.930588	0.001096	20.860955
609.176280	-3.018100	3.757400	-11.340000	23.904633	0.001097	20.838722
610.169694	-3.006800	3.758000	-11.297000	23.899706	0.001097	20.836627
611.170595	-3.002700	3.756100	-11.276000	23.836716	0.001095	20.855019
612.171036	-2.982300	3.757200	-11.204000	23.863397	0.001098	20.850953
613.174212	-3.001700	3.758100	-11.280000	23.844336	0.001097	20.834685
614.171904	-3.013400	3.755900	-11.317000	23.856059	0.001095	20.843121
615.169586	-3.007100	3.757000	-11.296000	23.863902	0.001096	20.846243
616.175843	-3.013100	3.754800	-11.313000	23.861810	0.001096	20.840353
617.172418	-3.003700	3.754600	-11.277000	23.841428	0.001096	20.833192
618.170788	-3.011500	3.753400	-11.303000	23.864103	0.001095	20.829376
619.173154	-3.017900	3.754000	-11.328000	23.866519	0.001096	20.846971
620.171062	-3.011700	3.753900	-11.304000	23.865973	0.001096	20.855432
621.171367	-2.989600	3.755200	-11.226000	23.873763	0.001093	20.867510
622.173765	-3.001600	3.753700	-11.265000	23.884816	0.001095	20.850618
623.172546	-3.001300	3.751800	-11.258000	23.882353	0.001094	20.856684
624.168562	-3.001100	3.752500	-11.260000	23.880638	0.001095	20.855438
625.170003	-2.975300	3.753700	-11.167000	23.927253	0.001095	20.824421
626.174490	-2.996800	3.753100	-11.246000	23.897911	0.001091	20.880343
627.174053	-2.987300	3.752400	-11.208000	23.884176	0.001093	20.868468
628.173653	-2.998500	3.752100	-11.249000	23.913169	0.001095	20.842066
629.172321	-2.992000	3.753200	-11.228000	23.929124	0.001091	20.889356
630.172909	-3.011600	3.750400	-11.294000	23.922781	0.001093	20.855497
631.175580	-2.988300	3.751300	-11.209000	23.937091	0.001093	20.870794
632.175019	-2.998900	3.750500	-11.245000	23.953192	0.001095	20.862285
633.174110	-3.015900	3.749800	-11.308000	23.965312	0.001092	20.875387
634.174549	-3.010400	3.748900	-11.285000	23.981340	0.001094	20.871545
635.178590	-2.994300	3.750100	-11.228000	23.964642	0.001090	20.871869
636.176226	-2.995300	3.749700	-11.230000	23.967057	0.001093	20.849637
637.177440	-3.004000	3.747800	-11.258000	23.973953	0.001091	20.854181
638.181378	-3.016800	3.748400	-11.306000	23.995005	0.001094	20.864387
639.174828	-2.986600	3.749700	-11.197000	24.011902	0.001094	20.872322
640.176706	-2.990500	3.748700	-11.209000	24.030542	0.001093	20.879636
641.178820	-2.980000	3.749000	-11.170000	24.042189	0.001092	20.864764
642.180088	-3.001600	3.748300	-11.250000	24.019422	0.001092	20.871328
643.182829	-2.993200	3.747600	-11.216000	23.993815	0.001091	20.903019
644.180558	-3.006300	3.746800	-11.263000	23.982418	0.001092	20.853661
645.179783	-3.007100	3.746300	-11.265000	23.969578	0.001092	20.886302
646.181260	-2.999400	3.747600	-11.240000	23.966293	0.001091	20.889646
647.182543	-3.029400	3.745000	-11.344000	23.978911	0.001090	20.872429
648.183367	-3.017300	3.745300	-11.299000	24.026765	0.001091	20.889123
649.181371	-2.996000	3.744600	-11.217000	24.012208	0.001091	20.875474
650.181076	-2.997300	3.746000	-11.227000	24.024974	0.001090	20.891120
651.183093	-3.000600	3.745500	-11.238000	24.032589	0.001091	20.889273
652.180788	-3.002000	3.745700	-11.243000	24.030299	0.001088	20.883659
653.182549	-3.002100	3.744400	-11.240000	24.018205	0.001090	20.892392
654.182368	-3.017700	3.743700	-11.297000	24.043040	0.001089	20.877945
655.183479	-3.006600	3.744500	-11.257000	24.031345	0.001089	20.887078
656.186416	-3.036400	3.742400	-11.362000	24.052844	0.001089	20.887302
657.181633	-2.989900	3.740700	-11.183000	24.038610	0.001091	20.870183
658.183095	-3.011400	3.742700	-11.269000	24.070535	0.001090	20.890819
659.188578	-2.996800	3.744100	-11.219000	24.086684	0.001089	20.887575
660.186582	-3.001800	3.742900	-11.234000	24.078872	0.001089	20.892068
661.189821	-3.020400	3.741500	-11.300000	24.059561	0.001090	20.887400
662.189054	-3.020000	3.741300	-11.298000	24.088474	0.001090	20.898378
663.187360	-3.011300	3.740900	-11.264000	24.096835	0.001087	20.892540
664.189827	-3.005100	3.740900	-11.241000	24.091933	0.001088	20.891891
665.192408	-2.988200	3.742500	-11.182000	24.099893	0.001091	20.898452
666.188530	-2.993200	3.741200	-11.197000	24.094618	0.001088	20.904066
667.183051	-3.001100	3.740900	-11.226000	24.095638	0.001089	20.894659
668.188495	-3.005200	3.738100	-11.233000	24.083345	0.001087	20.887071
669.188430	-3.004100	3.738700	-11.230000	24.060801	0.001087	20.909505
670.192870	-3.008100	3.738600	-11.245000	24.088370	0.001089	20.888318
671.190793	-3.002200	3.737800	-11.221000	24.034621	0.001087	20.897475
672.187614	-3.000800	3.737900	-11.215000	24.047634	0.001090	20.900094
673.189164	-2.984800	3.738400	-11.157000	24.039424	0.001089	20.882852
674.184031	-3.010700	3.737700	-11.252000	24.037156	0.001089	20.888639
675.189054	-2.990800	3.737000	-11.176000	24.053454	0.001092	20.884595
676.189197	-2.993700	3.738400	-11.190000	24.072540	0.001089	20.904683
677.195859	-2.990700	3.737600	-11.175000	24.056791	0.001089	20.918758
678.192451	-3.002300	3.736400	-11.216000	24.074282	0.001089	20.903111
679.191475	-3.018800	3.735700	-11.277000	24.071916	0.001087	20.898842
680.194801	-2.994200	3.736300	-11.185000	24.061940	0.001088	20.906379
681.192239	-3.006000	3.737600	-11.234000	24.104889	0.001088	20.905358
682.192517	-3.006800	3.735300	-11.230000	24.090131	0.001089	20.892455
683.197981	-3.015900	3.736100	-11.266000	24.105410	0.001088	20.908251
684.191687	-3.012900	3.736500	-11.256000	24.124197	0.001090	20.905757
685.191152	-3.009900	3.735800	-11.243000	24.081500	0.001089	20.905134
686.199237	-2.989300	3.736100	-11.167000	24.119842	0.001089	20.916087
687.194486	-3.028100	3.733200	-11.304000	24.127134	0.001089	20.910598
688.194118	-3.002500	3.733800	-11.210000	24.129299	0.001090	20.908977
689.194848	-2.980000	3.735700	-11.131000	24.116535	0.001092	20.906607
690.195327	-2.990400	3.733300	-11.163000	24.104468	0.001090	20.907306
691.201515	-2.973700	3.733100	-11.100000	24.115118	0.001092	20.927943
692.191787	-3.029300	3.732400	-11.305000	24.120270	0.001089	20.913197
693.198447	-2.994200	3.733000	-11.176000	24.129353	0.001090	20.936529
694.196235	-3.000300	3.733700	-11.201000	24.136569	0.001092	20.919112
695.197571	-2.976300	3.734100	-11.113000	24.133260	0.001089	20.922431
696.199488	-3.011400	3.732000	-11.236000	24.154810	0.001090	20.907062
697.201465	-3.008300	3.730800	-11.223000	24.121319	0.001089	20.946962
698.198262	-2.983100	3.731900	-11.131000	24.126273	0.001090	20.920166
699.195974	-3.003200	3.730900	-11.203000	24.117764	0.001089	20.934863
700.197970	-2.998000	3.731300	-11.186000	24.116222	0.001090	20.936636
701.193960	-2.999700	3.730000	-11.188000	24.145383	0.001088	20.944071
702.200655	-2.982300	3.731700	-11.128000	24.138395	0.001091	20.928055
703.198638	-3.006100	3.730200	-11.212000	24.141655	0.001089	20.943176
704.199760	-2.998000	3.730300	-11.182000	24.168952	0.001090	20.925987
705.198607	-2.983300	3.729700	-11.125000	24.171364	0.001091	20.944525
706.200916	-2.996200	3.729100	-11.172000	24.164029	0.001089	20.937643
707.202391	-3.006300	3.727900	-11.206000	24.179752	0.001091	20.934922
708.200931	-2.985800	3.729700	-11.136000	24.165674	0.001091	20.945929
709.207750	-2.981800	3.729900	-11.120000	24.166444	0.001090	20.925842
710.207659	-2.959800	3.728700	-11.035000	24.146343	0.001090	20.952145
711.202328	-2.992900	3.727900	-11.157000	24.145572	0.001089	20.937149
712.203309	-3.021500	3.726700	-11.259000	24.169784	0.001092	20.954318
713.208294	-2.982300	3.730000	-11.122000	24.187872	0.001089	20.925050
714.204768	-2.996700	3.728300	-11.171000	24.191085	0.001088	20.953399
715.205245	-3.006400	3.727900	-11.207000	24.221564	0.001088	20.951728
716.205793	-3.014500	3.726400	-11.232000	24.206264	0.001086	20.937331
717.206482	-3.016400	3.725800	-11.237000	24.215945	0.001087	20.943248
718.208280	-2.997200	3.726700	-11.169000	24.201838	0.001087	20.947590
719.206825	-2.983000	3.727200	-11.118000	24.185570	0.001085	20.942652
720.208714	-3.000100	3.724900	-11.173000	24.149169	0.001086	20.956875
721.208580	-3.009500	3.724300	-11.206000	24.138945	0.001083	20.937140
722.207662	-3.004800	3.724400	-11.189000	24.094359	0.001085	20.934149
723.209890	-2.986000	3.724800	-11.122000	24.067884	0.001084	20.953113
724.208323	-3.003200	3.724900	-11.186000	24.061591	0.001086	20.940640
725.211862	-2.985500	3.724900	-11.119000	24.065823	0.001086	20.952469
726.211073	-3.003700	3.724900	-11.188000	24.078115	0.001087	20.937772
727.209446	-3.003800	3.724100	-11.186000	24.100935	0.001085	20.971085
728.203484	-3.001100	3.724000	-11.175000	24.131667	0.001085	20.943116
729.208822	-3.005100	3.722400	-11.184000	24.100591	0.001084	20.939924
730.209561	-2.993200	3.722900	-11.142000	24.116417	0.001085	20.943468
731.209250	-3.004600	3.723000	-11.185000	24.117591	0.001085	20.944646
732.205648	-2.986900	3.722200	-11.117000	24.136081	0.001083	20.948965
733.204947	-3.005600	3.721900	-11.185000	24.133692	0.001083	20.957947
734.210436	-3.000600	3.721900	-11.166000	24.148051	0.001081	20.936790
735.205876	-2.975100	3.721700	-11.072000	24.172883	0.001082	20.946997
736.212019	-3.008300	3.720400	-11.191000	24.202197	0.001080	20.913814
737.208162	-3.011200	3.720400	-11.202000	24.218471	0.001083	20.948625
738.208134	-3.022400	3.719200	-11.240000	24.229193	0.001083	20.949423
739.209389	-3.000600	3.720500	-11.162000	24.235765	0.001081	20.948429
740.213701	-3.017700	3.720900	-11.228000	24.251939	0.001081	20.932886
741.210930	-2.986700	3.719700	-11.108000	24.271744	0.001080	20.944216
742.213835	-2.979100	3.720200	-11.082000	24.284684	0.001080	20.932541
743.212674	-2.997800	3.719200	-11.149000	24.269707	0.001079	20.957344
744.217067	-3.000000	3.719700	-11.158000	24.246299	0.001081	20.944297
745.214216	-3.022800	3.717000	-11.235000	24.224802	0.001078	20.943597
746.212738	-2.995100	3.718800	-11.137000	24.227570	0.001078	20.943528
747.218481	-3.012500	3.718300	-11.200000	24.231849	0.001078	20.934071
748.211611	-2.987400	3.719800	-11.112000	24.240955	0.001078	20.928981
749.214536	-3.031000	3.717900	-11.267000	24.253670	0.001075	20.927037
750.214806	-2.992800	3.717900	-11.125000	24.258822	0.001076	20.919403
751.212546	-2.977400	3.719100	-11.072000	24.262953	0.001075	20.936821
752.212604	-3.016800	3.715800	-11.209000	24.269571	0.001075	20.924969
753.213428	-3.003100	3.716800	-11.161000	24.282261	0.001076	20.935326
754.215035	-3.009800	3.715900	-11.183000	24.284749	0.001074	20.928814
755.213464	-3.008100	3.714000	-11.171000	24.251912	0.001076	20.930489
756.215934	-3.001700	3.715700	-11.152000	24.273261	0.001074	20.936729
757.214965	-3.001800	3.715300	-11.151000	24.265400	0.001075	20.944964
758.212857	-3.012100	3.715300	-11.189000	24.279083	0.001077	20.946835
759.211893	-3.013100	3.714700	-11.192000	24.287918	0.001074	20.947637
760.210550	-3.011100	3.713400	-11.179000	24.288614	0.001074	20.923682
761.213207	-3.005800	3.715000	-11.165000	24.249405	0.001072	20.939826
762.210109	-3.011300	3.713200	-11.180000	24.245153	0.001074	20.935087
763.212351	-3.003500	3.714300	-11.155000	24.243462	0.001073	20.939080
764.213822	-2.992300	3.712800	-11.107000	24.246771	0.001072	20.935762
765.210373	-3.003800	3.713400	-11.152000	24.279687	0.001071	20.922314
766.216721	-2.995300	3.713900	-11.124000	24.277196	0.001072	20.938780
767.214595	-3.032900	3.710600	-11.253000	24.307850	0.001073	20.934916
768.213030	-2.995000	3.711600	-11.115000	24.294067	0.001070	20.914454
769.214235	-3.006900	3.712700	-11.163000	24.235253	0.001071	20.926580
770.212907	-3.002500	3.711800	-11.143000	24.250629	0.001071	20.930624
771.218969	-3.025600	3.710500	-11.225000	24.262370	0.001071	20.912531
772.210583	-2.988400	3.710500	-11.086000	24.242989	0.001071	20.901626
773.218010	-3.001200	3.710500	-11.134000	24.210497	0.001073	20.920716
774.216826	-3.014400	3.710300	-11.183000	24.215449	0.001070	20.905770
775.217341	-2.989700	3.712100	-11.097000	24.217340	0.001071	20.923786
776.218010	-3.018000	3.710000	-11.197000	24.212113	0.001072	20.928500
777.215394	-3.003600	3.708900	-11.138000	24.234880	0.001070	20.915776
778.213866	-2.994400	3.709900	-11.108000	24.228908	0.001071	20.906942
779.219857	-2.991300	3.709400	-11.094000	24.255404	0.001073	20.904122
780.217519	-3.013600	3.708900	-11.176000	24.272694	0.001070	20.917671
781.217133	-2.978700	3.709100	-11.047000	24.269783	0.001071	20.931819
782.226976	-3.002800	3.709700	-11.139000	24.289313	0.001071	20.923435
783.216228	-3.012400	3.708600	-11.170000	24.293592	0.001071	20.918245
784.225754	-3.010500	3.708100	-11.162000	24.306628	0.001071	20.916148
785.221323	-2.996400	3.707100	-11.107000	24.316131	0.001072	20.890596
786.224082	-3.004900	3.706000	-11.135000	24.307325	0.001071	20.917796
787.222176	-2.990800	3.707500	-11.086000	24.331084	0.001071	20.907965
788.220384	-3.005100	3.706600	-11.138000	24.328693	0.001069	20.915050
789.215951	-3.018900	3.707200	-11.190000	24.312624	0.001069	20.898458
790.217157	-3.034000	3.705400	-11.241000	24.338174	0.001070	20.916499
791.221401	-2.971100	3.706300	-11.011000	24.349940	0.001070	20.922138
792.217380	-3.006600	3.705700	-11.140000	24.363749	0.001069	20.914181
793.223330	-2.998400	3.705400	-11.110000	24.372855	0.001070	20.919995
794.220842	-3.016900	3.704000	-11.174000	24.398130	0.001069	20.915480
795.221334	-2.997600	3.705700	-11.106000	24.398927	0.001068	20.910116
796.222307	-3.007400	3.705000	-11.140000	24.375593	0.001069	20.925112
797.222734	-3.004400	3.702700	-11.123000	24.379724	0.001068	20.915981
798.225693	-2.989300	3.705200	-11.073000	24.370050	0.001068	20.910544
799.223350	-3.000100	3.704000	-11.112000	24.384577	0.001067	20.884817
800.222698	-3.013800	3.703900	-11.162000	24.362487	0.001066	20.882097
801.220631	-3.008000	3.703100	-11.137000	24.400751	0.001068	20.910049
802.223495	-2.987200	3.704700	-11.064000	24.379257	0.001068	20.888489
803.227962	-2.995700	3.701800	-11.088000	24.378112	0.001066	20.910097
804.220622	-2.997700	3.702900	-11.099000	24.351048	0.001064	20.895276
805.235445	-3.012600	3.701900	-11.151000	24.365727	0.001065	20.902415
806.224005	-3.020200	3.701300	-11.177000	24.345551	0.001066	20.915364
807.225386	-3.030200	3.700500	-11.211000	24.328909	0.001067	20.880656
808.226167	-3.006000	3.701400	-11.125000	24.331922	0.001067	20.919237
809.232536	-3.006300	3.701300	-11.126000	24.342146	0.001067	20.900571
810.228529	-3.024400	3.699500	-11.187000	24.366302	0.001066	20.911526
811.225354	-3.010500	3.701000	-11.141000	24.362870	0.001067	20.907135
812.222362	-3.011100	3.700800	-11.142000	24.377350	0.001065	20.892265
813.227241	-2.987500	3.701700	-11.058000	24.373000	0.001067	20.892168
814.232589	-3.006100	3.699300	-11.119000	24.381010	0.001065	20.912530
815.224906	-2.993200	3.699800	-11.074000	24.387852	0.001064	20.897110
816.232252	-2.990700	3.699600	-11.064000	24.392755	0.001064	20.899184
817.230997	-3.003800	3.699000	-11.108000	24.374967	0.001066	20.887979
818.231037	-3.020000	3.698900	-11.170000	24.365467	0.001063	20.889827
819.230108	-3.010900	3.699100	-11.137000	24.337136	0.001063	20.897442
820.226375	-3.007300	3.697400	-11.118000	24.322258	0.001060	20.890105
821.226974	-3.008400	3.697800	-11.122000	24.325197	0.001063	20.891155
822.227739	-3.019300	3.699200	-11.168000	24.343803	0.001064	20.900337
823.229451	-2.989800	3.698300	-11.055000	24.344851	0.001063	20.884319
824.230373	-2.988600	3.698100	-11.050000	24.379779	0.001061	20.880004
825.233869	-2.976300	3.698300	-11.005000	24.393363	0.001063	20.886045
826.229620	-2.980900	3.697800	-11.022000	24.419560	0.001059	20.899522
827.230786	-3.013400	3.696700	-11.138000	24.405754	0.001061	20.868680
828.230062	-2.985700	3.696600	-11.035000	24.412025	0.001060	20.912350
829.234681	-3.013800	3.696900	-11.141000	24.414265	0.001058	20.883306
830.238318	-3.001700	3.695400	-11.091000	24.441826	0.001060	20.880136
831.233240	-3.023400	3.694600	-11.169000	24.438421	0.001060	20.899852
832.234479	-2.997600	3.695000	-11.075000	24.449242	0.001059	20.891369
833.235616	-2.987500	3.695900	-11.040000	24.441109	0.001056	20.877047
834.236000	-2.992000	3.694000	-11.051000	24.444195	0.001056	20.880616
835.235780	-3.007700	3.694200	-11.110000	24.450637	0.001058	20.903198
836.236380	-3.001300	3.694300	-11.086000	24.427455	0.001057	20.905072
837.237832	-2.980500	3.695300	-11.012000	24.412059	0.001056	20.896264
838.235986	-3.004800	3.694100	-11.099000	24.411436	0.001058	20.879520
839.236258	-2.995500	3.693400	-11.063000	24.418802	0.001056	20.896866
840.237933	-3.010700	3.693400	-11.119000	24.432781	0.001057	20.895717
841.233785	-2.998900	3.693200	-11.075000	24.449771	0.001056	20.875305
842.236584	-3.009000	3.693300	-11.112000	24.454870	0.001053	20.879946
843.247641	-2.997700	3.693300	-11.071000	24.470616	0.001056	20.890053
844.237415	-3.017100	3.690600	-11.134000	24.486362	0.001054	20.887833
845.241550	-2.999300	3.693000	-11.075000	24.499149	0.001055	20.871740
846.248444	-3.001200	3.689900	-11.073000	24.525264	0.001054	20.891776
847.240085	-2.981400	3.690500	-11.002000	24.528845	0.001053	20.868818
848.242578	-3.008200	3.691400	-11.103000	24.542077	0.001052	20.883990
849.241776	-3.008000	3.690200	-11.099000	24.548445	0.001052	20.872836
850.238111	-3.009300	3.691100	-11.106000	24.525912	0.001051	20.863978
851.241594	-3.018200	3.690300	-11.136000	24.502578	0.001055	20.863327
852.240827	-3.008800	3.689800	-11.101000	24.504893	0.001052	20.889355
853.242575	-2.998900	3.690800	-11.067000	24.487582	0.001051	20.875307
854.248634	-2.987300	3.689300	-11.020000	24.485914	0.001051	20.868893
855.241901	-2.988800	3.689900	-11.027000	24.478775	0.001050	20.884015
856.246134	-2.987900	3.690100	-11.024000	24.481063	0.001051	20.872086
857.245447	-3.009900	3.689100	-11.103000	24.522826	0.001051	20.853297
858.246257	-2.997700	3.689100	-11.058000	24.546828	0.001048	20.875955
859.243906	-3.008900	3.689400	-11.100000	24.550136	0.001049	20.864576
860.247884	-3.000300	3.689200	-11.066000	24.557374	0.001048	20.876579
861.244761	-2.999300	3.688300	-11.061000	24.562745	0.001048	20.875804
862.246005	-3.012400	3.687700	-11.108000	24.546901	0.001049	20.861330
863.246433	-3.005000	3.687300	-11.079000	24.533671	0.001046	20.877926
864.250554	-3.006800	3.687600	-11.086000	24.508349	0.001047	20.865323
865.248931	-3.004100	3.687700	-11.077000	24.502678	0.001047	20.874806
866.248554	-2.991100	3.688400	-11.031000	24.458603	0.001044	20.872786
867.251891	-2.990200	3.686500	-11.022000	24.443774	0.001047	20.867393
868.247764	-3.054900	3.684900	-11.255000	24.449048	0.001044	20.871736
869.253049	-3.025000	3.684100	-11.143000	24.419995	0.001047	20.873409
870.246891	-2.987700	3.686600	-11.014000	24.440689	0.001047	20.867143
871.249694	-2.996400	3.684500	-11.039000	24.434895	0.001045	20.861330
872.248298	-2.991600	3.684900	-11.023000	24.472354	0.001045	20.845807
873.254513	-2.999700	3.684600	-11.051000	24.477503	0.001046	20.849076
874.253479	-3.017600	3.683800	-11.115000	24.502351	0.001043	20.860254
875.253822	-2.979400	3.684600	-10.976000	24.513420	0.001043	20.845282
876.252588	-3.016300	3.682900	-11.107000	24.542123	0.001044	20.851321
877.248759	-2.983700	3.684900	-10.994000	24.499190	0.001044	20.890272
878.255797	-3.021800	3.682500	-11.127000	24.474467	0.001041	20.855987
879.254235	-3.003900	3.682800	-11.062000	24.444913	0.001041	20.867113
880.258308	-2.974700	3.684500	-10.958000	24.407005	0.001044	20.839990
881.252761	-2.995100	3.683300	-11.031000	24.388622	0.001043	20.857583
882.256741	-3.002900	3.682300	-11.056000	24.427006	0.001043	20.863372
883.262028	-3.001600	3.682700	-11.053000	24.428821	0.001043	20.850496
884.259627	-3.003100	3.681900	-11.056000	24.428869	0.001040	20.851018
885.258514	-3.005300	3.681800	-11.064000	24.390733	0.001040	20.863968
886.254870	-2.987000	3.682200	-10.996000	24.425908	0.001040	20.854212
887.254678	-3.002100	3.680800	-11.048000	24.446056	0.001040	20.829855
888.260507	-2.999300	3.681500	-11.041000	24.444391	0.001040	20.856158
889.263701	-2.991800	3.679500	-11.007000	24.496375	0.001041	20.852363
890.257509	-2.988500	3.681500	-11.001000	24.494035	0.001040	20.845274
891.261035	-2.981100	3.680400	-10.971000	24.490132	0.001040	20.843728
892.258399	-3.006500	3.679200	-11.060000	24.517790	0.001038	20.852985
893.257846	-3.026900	3.679400	-11.135000	24.555024	0.001038	20.858575
894.264656	-2.971300	3.679000	-10.930000	24.561342	0.001036	20.829354
895.256003	-3.020600	3.679600	-11.114000	24.552834	0.001035	20.833145
896.261758	-3.016000	3.678600	-11.093000	24.573652	0.001038	20.851187
897.259129	-3.021300	3.677700	-11.110000	24.556889	0.001037	20.830102
898.256558	-2.988100	3.678000	-10.990000	24.520476	0.001037	20.832921
899.256839	-3.000100	3.677500	-11.031000	24.493885	0.001038	20.846072
900.256068	-2.992000	3.678800	-11.006000	24.445032	0.001036	20.839733
901.255867	-3.008700	3.677300	-11.063000	24.466200	0.001033	20.825882
902.255840	-3.019200	3.675900	-11.097000	24.476099	0.001033	20.829650
903.255286	-2.996700	3.678300	-11.021000	24.499554	0.001033	20.839432
904.255274	-3.007700	3.676300	-11.057000	24.525872	0.001032	20.815102
905.257019	-2.991200	3.677600	-11.000000	24.540672	0.001032	20.828529
906.256798	-3.006000	3.675600	-11.048000	24.544275	0.001035	20.821239
907.258921	-2.976400	3.677400	-10.945000	24.531616	0.001033	20.817546
908.256488	-3.026100	3.675900	-11.121000	24.560863	0.001033	20.841201
909.260067	-2.990400	3.676700	-10.994000	24.559743	0.001033	20.828224
910.259330	-2.993100	3.675700	-11.000000	24.578298	0.001031	20.828349
911.259491	-2.985200	3.676400	-10.973000	24.590185	0.001033	20.800448
912.260927	-3.016900	3.674000	-11.083000	24.579614	0.001033	20.817816
913.259810	-3.016500	3.674100	-11.081000	24.584787	0.001032	20.847187
914.265539	-2.993700	3.675600	-11.003000	24.593768	0.001032	20.825379
915.262458	-2.999200	3.672100	-11.011000	24.589165	0.001031	20.823606
916.266984	-3.019300	3.672600	-11.088000	24.605606	0.001032	20.825404
917.260213	-2.999100	3.673400	-11.016000	24.585832	0.001031	20.814572
918.262202	-2.990100	3.673200	-10.982000	24.563846	0.001032	20.839453
919.262426	-3.008300	3.672200	-11.046000	24.559843	0.001031	20.832117
920.262647	-3.006900	3.671700	-11.039000	24.501811	0.001032	20.829368
921.264884	-2.985800	3.672800	-10.964000	24.489228	0.001029	20.827175
922.261479	-3.009500	3.671000	-11.047000	24.456443	0.001030	20.821310
923.268655	-3.020300	3.671000	-11.086000	24.500473	0.001029	20.806689
924.262709	-3.010800	3.669600	-11.047000	24.499305	0.001030	20.825905
925.268024	-3.019700	3.669800	-11.079000	24.518731	0.001031	20.808412
926.278626	-2.991100	3.671700	-10.981000	24.494431	0.001032	20.828602
927.267241	-3.005400	3.670100	-11.029000	24.473886	0.001028	20.802775
928.267107	-3.004800	3.670500	-11.028000	24.500079	0.001030	20.822415
929.275899	-2.987100	3.670300	-10.963000	24.522468	0.001027	20.828756
930.269052	-2.996500	3.669600	-10.995000	24.530899	0.001029	20.818724
931.269979	-3.016500	3.667200	-11.062000	24.561940	0.001026	20.815255
932.269216	-3.000100	3.670100	-11.009000	24.547964	0.001027	20.827785
933.268310	-2.979100	3.670600	-10.934000	24.517719	0.001027	20.823518
934.268046	-2.988500	3.668500	-10.962000	24.508167	0.001025	20.805874
935.272679	-3.025300	3.667200	-11.092000	24.499288	0.001026	20.818302
936.268647	-2.986100	3.668400	-10.953000	24.524485	0.001025	20.802332
937.268861	-2.983700	3.668500	-10.944000	24.549134	0.001025	20.797191
938.269158	-2.994800	3.668200	-10.984000	24.542916	0.001025	20.816082
939.276007	-2.970600	3.668700	-10.897000	24.573085	0.001025	20.799886
940.267160	-2.998000	3.667800	-10.995000	24.541073	0.001025	20.807121
941.271070	-2.992400	3.669300	-10.979000	24.530006	0.001024	20.787957
942.279644	-2.995000	3.667500	-10.983000	24.523688	0.001023	20.807222
943.282685	-2.999000	3.666300	-10.995000	24.515752	0.001026	20.834820
944.282501	-2.995400	3.666000	-10.980000	24.492745	0.001025	20.807470
945.276137	-2.989300	3.666800	-10.960000	24.463891	0.001022	20.798436
946.272645	-2.993700	3.667000	-10.976000	24.492222	0.001022	20.813110
947.278285	-2.980300	3.666800	-10.926000	24.485953	0.001019	20.814881
948.274898	-2.984800	3.665500	-10.940000	24.517467	0.001021	20.826110
949.273648	-2.993400	3.665600	-10.971000	24.515897	0.001023	20.799405
950.277747	-2.983200	3.666000	-10.934000	24.543484	0.001021	20.809540
951.277461	-2.977000	3.665600	-10.912000	24.569473	0.001022	20.807167
952.283104	-2.990500	3.664500	-10.957000	24.569076	0.001020	20.781164
953.282656	-2.991500	3.663900	-10.958000	24.587456	0.001019	20.821891
954.279602	-2.990400	3.663600	-10.954000	24.622052	0.001020	20.801129
955.279749	-2.983500	3.663100	-10.927000	24.609093	0.001019	20.806144
956.286522	-3.014900	3.662700	-11.042000	24.560792	0.001020	20.806043
957.285357	-2.996500	3.663800	-10.978000	24.568824	0.001020	20.806990
958.277750	-3.007500	3.661300	-11.010000	24.570939	0.001018	20.810060
959.278646	-3.012900	3.662300	-11.033000	24.558105	0.001017	20.809511
960.280474	-3.011900	3.660600	-11.025000	24.519701	0.001017	20.807015
961.296717	-3.015400	3.662100	-11.042000	24.504628	0.001016	20.792366
962.287994	-2.996300	3.662400	-10.973000	24.503456	0.001017	20.804941
963.280052	-2.999200	3.660500	-10.977000	24.513455	0.001017	20.794110
964.290190	-3.020400	3.660500	-11.054000	24.508879	0.001015	20.797106
965.281930	-2.988900	3.660700	-10.941000	24.493357	0.001015	20.808084
966.281801	-2.969100	3.661900	-10.872000	24.526013	0.001016	20.797701
967.277886	-2.998600	3.660700	-10.976000	24.540016	0.001015	20.790413
968.284083	-3.011700	3.659800	-11.022000	24.554193	0.001014	20.812698
969.282755	-3.039400	3.658400	-11.117000	24.555336	0.001015	20.803888
970.280667	-3.016100	3.658400	-11.032000	24.544442	0.001013	20.801966
971.280266	-3.010600	3.658100	-11.012000	24.534018	0.001015	20.808103
972.282529	-2.995200	3.659600	-10.959000	24.538844	0.001013	20.794453
973.290987	-3.001800	3.660800	-10.987000	24.559708	0.001012	20.790256
974.281260	-3.004600	3.659700	-10.995000	24.582091	0.001013	20.770041
975.287829	-2.984200	3.658200	-10.916000	24.595922	0.001013	20.791031
976.282306	-2.994200	3.659700	-10.955000	24.602634	0.001013	20.814361
977.285028	-2.987400	3.658400	-10.928000	24.605494	0.001010	20.776928
978.286758	-3.002800	3.658700	-10.985000	24.619396	0.001009	20.796567
979.283000	-2.987700	3.658100	-10.928000	24.606310	0.001008	20.783911
980.288778	-2.993600	3.658200	-10.949000	24.620387	0.001009	20.789975
981.289427	-3.015900	3.656500	-11.027000	24.618024	0.001009	20.775276
982.285928	-3.016000	3.655600	-11.024000	24.620557	0.001009	20.802948
983.286411	-3.008000	3.655700	-10.995000	24.626773	0.001007	20.802547
984.287004	-3.002200	3.655800	-10.975000	24.621748	0.001007	20.811255
985.286502	-3.006500	3.654500	-10.986000	24.622841	0.001008	20.791963
986.288562	-3.026800	3.655100	-11.062000	24.615305	0.001006	20.802894
987.290122	-3.016100	3.654200	-11.020000	24.584290	0.001008	20.795955
988.286373	-2.986000	3.655400	-10.914000	24.529468	0.001007	20.786942
989.290951	-3.005100	3.654600	-10.982000	24.545360	0.001008	20.791034
990.288521	-2.994500	3.654300	-10.941000	24.580953	0.001006	20.810625
991.291237	-3.006100	3.654000	-10.982000	24.608211	0.001004	20.797672
992.286220	-2.991500	3.656000	-10.935000	24.585279	0.001006	20.789361
993.289969	-3.010400	3.653700	-10.998000	24.590673	0.001006	20.780074
994.288679	-2.991000	3.653400	-10.925000	24.557393	0.001006	20.804530
995.289342	-2.982400	3.653400	-10.894000	24.589476	0.001005	20.767967
996.289711	-3.010000	3.654000	-10.997000	24.606463	0.001004	20.798289
997.291127	-2.996200	3.651700	-10.940000	24.603551	0.001005	20.789677
998.292404	-2.998400	3.653300	-10.953000	24.589349	0.001004	20.800557
999.289413	-3.006600	3.651400	-10.977000	24.567411	0.001005	20.796563
1000.287242	-2.991400	3.652900	-10.926000	24.579076	0.001003	20.777921
1001.291507	-3.018500	3.650700	-11.019000	24.553730	0.001003	20.762921
1002.288743	-3.003700	3.652000	-10.967000	24.568752	0.001004	20.794115
1003.288179	-3.007600	3.651000	-10.979000	24.552833	0.001003	20.792367
1004.291960	-3.007800	3.650400	-10.979000	24.574494	0.001001	20.798454
1005.293616	-3.008900	3.649900	-10.981000	24.590709	0.001002	20.779636
1006.287735	-2.990000	3.650600	-10.914000	24.619187	0.001003	20.811530
1007.295369	-2.998100	3.650800	-10.944000	24.626747	0.001001	20.793038
1008.286826	-2.993800	3.650400	-10.927000	24.628040	0.001000	20.794335
1009.288167	-3.010700	3.649000	-10.984000	24.657410	0.001000	20.772597
1010.296051	-3.022500	3.648700	-11.027000	24.637837	0.000999	20.786621
1011.292904	-3.010600	3.649400	-10.986000	24.626868	0.001000	20.808332
1012.291388	-2.985200	3.648000	-10.888000	24.621893	0.000999	20.787219
1013.293719	-2.986100	3.648800	-10.895000	24.646813	0.000998	20.793257
1014.290658	-2.969800	3.648300	-10.833000	24.640645	0.000998	20.785172
1015.293575	-3.009500	3.647000	-10.974000	24.648851	0.000996	20.781078
1016.293031	-2.978700	3.647400	-10.863000	24.631567	0.000998	20.800245
1017.290977	-3.018300	3.647300	-11.007000	24.633707	0.000998	20.797176
1018.290763	-2.993700	3.647900	-10.920000	24.642685	0.000996	20.806659
1019.293993	-2.982700	3.647400	-10.878000	24.650370	0.000996	20.798724
1020.297691	-3.006800	3.645500	-10.960000	24.641740	0.000996	20.827047
1021.297155	-2.979800	3.647200	-10.867000	24.661361	0.000997	20.801218
1022.293156	-3.036600	3.644800	-11.066000	24.654698	0.000995	20.793109
1023.294274	-3.020500	3.645100	-11.009000	24.681359	0.000996	20.810853
1024.293327	-3.006600	3.645300	-10.959000	24.702147	0.000994	20.790937
1025.294940	-2.993000	3.645600	-10.910000	24.705630	0.000994	20.783526
1026.290939	-2.991700	3.645400	-10.905000	24.742310	0.000995	20.810377
1027.291373	-2.996800	3.643900	-10.919000	24.774439	0.000995	20.805636
1028.298884	-3.010600	3.645300	-10.974000	24.786423	0.000992	20.791584
1029.295275	-2.990900	3.644500	-10.899000	24.784459	0.000992	20.815691
1030.296856	-2.999100	3.642800	-10.924000	24.782968	0.000991	20.800919
1031.297278	-2.986400	3.644900	-10.884000	24.745617	0.000992	20.789989
1032.292475	-2.980400	3.644400	-10.861000	24.710328	0.000991	20.799620
1033.295270	-3.000000	3.643400	-10.929000	24.666857	0.000991	20.805310
1034.298485	-3.003700	3.641600	-10.937000	24.669419	0.000989	20.781328
1035.294458	-2.984300	3.643000	-10.871000	24.692471	0.000991	20.809675
1036.294335	-2.991000	3.643100	-10.895000	24.689885	0.000987	20.805185
1037.293927	-3.009100	3.641400	-10.956000	24.673397	0.000988	20.818985
1038.296447	-2.984700	3.642800	-10.872000	24.668122	0.000987	20.808951
1039.300173	-2.982800	3.641500	-10.860000	24.670958	0.000985	20.822701
1040.298298	-2.978500	3.642200	-10.847000	24.693613	0.000986	20.829314
1041.299234	-2.973000	3.641800	-10.826000	24.719376	0.000985	20.793053
1042.297275	-3.030400	3.639100	-11.027000	24.755284	0.000988	20.813914
1043.301156	-3.002900	3.639200	-10.928000	24.748919	0.000986	20.822225
1044.298488	-2.975200	3.640700	-10.830000	24.806411	0.000986	20.812592
1045.296520	-2.998900	3.639100	-10.913000	24.824587	0.000984	20.806651
1046.299925	-3.025600	3.638300	-11.006000	24.817151	0.000985	20.822896
1047.300697	-2.991600	3.640000	-10.889000	24.819636	0.000985	20.814484
1048.298031	-3.001700	3.639700	-10.924000	24.810310	0.000981	20.823142
1049.297154	-2.989300	3.639100	-10.877000	24.786984	0.000985	20.836243
1050.295577	-3.025000	3.638100	-11.004000	24.764826	0.000984	20.806420
1051.300096	-3.000900	3.638700	-10.918000	24.713622	0.000982	20.800555
1052.299378	-2.961500	3.640200	-10.780000	24.704667	0.000982	20.807216
1053.296118	-2.992300	3.638100	-10.885000	24.688998	0.000980	20.805242
1054.297070	-2.991100	3.638400	-10.882000	24.719211	0.000981	20.812802
1055.297172	-2.994800	3.637500	-10.891000	24.716424	0.000981	20.804789
1056.298192	-3.014600	3.636900	-10.962000	24.697747	0.000980	20.813073
1057.298216	-2.988400	3.638000	-10.871000	24.709805	0.000979	20.792932
1058.298120	-3.007900	3.637800	-10.941000	24.717089	0.000981	20.809724
1059.296668	-3.031100	3.635300	-11.017000	24.700997	0.000980	20.816335
1060.297236	-2.990500	3.636700	-10.874000	24.702587	0.000979	20.808922
1061.300020	-2.985300	3.637200	-10.857000	24.738246	0.000977	20.820997
1062.303738	-2.982000	3.636800	-10.844000	24.730409	0.000977	20.812659
1063.299403	-2.980700	3.635400	-10.834000	24.733765	0.000977	20.803699
1064.299882	-2.998900	3.636500	-10.904000	24.730306	0.000977	20.805917
1065.302110	-2.983000	3.635500	-10.844000	24.729757	0.000976	20.816272
1066.302042	-2.986200	3.635300	-10.855000	24.737338	0.000976	20.818664
1067.298783	-2.997500	3.633800	-10.891000	24.726989	0.000975	20.808753
1068.303093	-3.009800	3.633300	-10.934000	24.726042	0.000978	20.810174
1069.300202	-2.993100	3.633100	-10.873000	24.709926	0.000973	20.819605
1070.303676	-2.990600	3.634200	-10.867000	24.728972	0.000975	20.826389
1071.302325	-2.981100	3.633800	-10.831000	24.726830	0.000972	20.811913
1072.304355	-2.991300	3.633600	-10.868000	24.753561	0.000975	20.820719
1073.301320	-2.980800	3.633500	-10.830000	24.751544	0.000973	20.825334
1074.304892	-2.995400	3.633000	-10.881000	24.716229	0.000973	20.820240
1075.305897	-3.004300	3.632200	-10.912000	24.725304	0.000973	20.813700
1076.306218	-3.005300	3.631000	-10.911000	24.723710	0.000971	20.822058
1077.307766	-2.995400	3.632700	-10.880000	24.735223	0.000972	20.796153
1078.304925	-3.006400	3.630100	-10.913000	24.774363	0.000973	20.822154
1079.304744	-3.022700	3.630300	-10.972000	24.803132	0.000973	20.816887
1080.303881	-3.005800	3.631800	-10.915000	24.796542	0.000969	20.833033
1081.314027	-2.988300	3.631600	-10.850000	24.792112	0.000972	20.802034
1082.307832	-2.984000	3.631200	-10.835000	24.758241	0.000970	20.829683
1083.312867	-3.003700	3.630900	-10.905000	24.768312	0.000971	20.816556
1084.306668	-3.022000	3.628900	-10.966000	24.751623	0.000970	20.815456
1085.306692	-3.007600	3.629400	-10.915000	24.758710	0.000970	20.808344
1086.308507	-2.991800	3.629600	-10.858000	24.796232	0.000969	20.819920
1087.301741	-2.989600	3.629100	-10.849000	24.786485	0.000971	20.825311
1088.306813	-3.013200	3.629000	-10.932000	24.826020	0.000967	20.826581
1089.306695	-2.996100	3.628000	-10.869000	24.822663	0.000969	20.809936
1090.304250	-2.998300	3.627600	-10.875000	24.774372	0.000970	20.821690
1091.305428	-2.982800	3.628200	-10.819000	24.779617	0.000967	20.822212
1092.307292	-2.975600	3.627900	-10.794000	24.794362	0.000966	20.837009
1093.307924	-2.988600	3.626900	-10.838000	24.806596	0.000967	20.830321
1094.306592	-2.981500	3.626400	-10.811000	24.838397	0.000967	20.817666
1095.306679	-2.974600	3.626800	-10.787000	24.838422	0.000967	20.824329
1096.304572	-2.981600	3.626400	-10.811000	24.825939	0.000966	20.841198
1097.303472	-2.979100	3.628600	-10.809000	24.833224	0.000966	20.832862
1098.304088	-2.983600	3.625800	-10.816000	24.810619	0.000962	20.825823
1099.306416	-2.981200	3.624700	-10.805000	24.818897	0.000964	20.836975
1100.311605	-2.991100	3.624500	-10.840000	24.845479	0.000964	20.836626
1101.308000	-3.013300	3.625200	-10.923000	24.843389	0.000965	20.823624
1102.307882	-2.983900	3.625400	-10.816000	24.842992	0.000965	20.831286
1103.305291	-3.008400	3.624000	-10.900000	24.863605	0.000964	20.812619
1104.305122	-3.016400	3.623500	-10.929000	24.869297	0.000961	20.843461
1105.305611	-3.021800	3.621900	-10.943000	24.870937	0.000961	20.825194
1106.306045	-2.998900	3.624500	-10.868000	24.895753	0.000961	20.835875
1107.308658	-2.996200	3.623500	-10.856000	24.907065	0.000962	20.818779
1108.308527	-2.983400	3.622800	-10.807000	24.900848	0.000959	20.833877
1109.306011	-3.022100	3.620700	-10.941000	24.911564	0.000961	20.851744
1110.309430	-2.995300	3.621000	-10.845000	24.858453	0.000960	20.825940
1111.309792	-3.003200	3.621500	-10.875000	24.807528	0.000959	20.816557
1112.307057	-3.000300	3.621200	-10.864000	24.819215	0.000959	20.834449
1113.311649	-3.007700	3.621400	-10.890000	24.809143	0.000958	20.844256
1114.311387	-3.012100	3.620900	-10.905000	24.812301	0.000957	20.827511
1115.307737	-2.996200	3.621100	-10.848000	24.831545	0.000955	20.829755
1116.309385	-3.009000	3.620700	-10.893000	24.857455	0.000958	20.849119
1117.311775	-3.001600	3.619800	-10.864000	24.887539	0.000957	20.842329
1118.309922	-2.982500	3.620400	-10.796000	24.882890	0.000956	20.842879
1119.311719	-2.989200	3.619800	-10.818000	24.916082	0.000956	20.849166
1120.310282	-2.995900	3.619100	-10.842000	24.918544	0.000956	20.854956
1121.308308	-2.996400	3.618100	-10.840000	24.901311	0.000954	20.849039
1122.309687	-2.986200	3.618200	-10.803000	24.907926	0.000955	20.844299
1123.314035	-2.994600	3.619800	-10.838000	24.861229	0.000955	20.843899
1124.311941	-2.979400	3.619200	-10.781000	24.867793	0.000952	20.857599
1125.313468	-2.989900	3.619100	-10.821000	24.891962	0.000953	20.824010
1126.312038	-2.995200	3.618100	-10.834000	24.894572	0.000954	20.833742
1127.312887	-2.997100	3.617100	-10.840000	24.933359	0.000954	20.829049
1128.311834	-2.979800	3.617400	-10.777000	24.929554	0.000954	20.841351
1129.313380	-2.984300	3.617200	-10.794000	24.957749	0.000952	20.844520
1130.311444	-2.999700	3.615800	-10.846000	24.979155	0.000953	20.848936
1131.313703	-2.996700	3.616500	-10.836000	24.967396	0.000952	20.868427
1132.318753	-3.028000	3.614400	-10.943000	24.998547	0.000953	20.843745
1133.317327	-3.021400	3.614700	-10.921000	25.003645	0.000950	20.838431
1134.315396	-2.972600	3.616100	-10.747000	25.036089	0.000951	20.848238
1135.318363	-3.009300	3.615300	-10.878000	25.048419	0.000950	20.874363
1136.314508	-2.994700	3.616300	-10.829000	25.042253	0.000949	20.867226
1137.317780	-3.003400	3.612800	-10.850000	25.014583	0.000951	20.846565
1138.316791	-2.980400	3.614600	-10.772000	24.983381	0.000951	20.869772
1139.316519	-2.973100	3.615900	-10.749000	24.982039	0.000948	20.882175
1140.317180	-3.004400	3.613400	-10.854000	24.999815	0.000949	20.869198
1141.359240	-3.001200	3.613800	-10.844000	25.017193	0.000950	20.850607
1142.324741	-2.973500	3.614000	-10.745000	25.027410	0.000949	20.848061
1143.322887	-3.001200	3.612100	-10.839000	25.021494	0.000948	20.884320
1144.325043	-2.998600	3.613700	-10.835000	25.007248	0.000948	20.880926
1145.325489	-3.011400	3.610800	-10.872000	25.020948	0.000946	20.858644
1146.320466	-2.988900	3.612700	-10.796000	25.004116	0.000947	20.869722
1147.324483	-2.999900	3.612300	-10.835000	25.029822	0.000945	20.872292
1148.323958	-2.999600	3.612600	-10.834000	25.039642	0.000945	20.889260
1149.320476	-2.995500	3.609700	-10.812000	25.031066	0.000944	20.882074
1150.326156	-3.022800	3.610600	-10.914000	25.046504	0.000946	20.873390
1151.326171	-3.010300	3.610900	-10.869000	25.047151	0.000946	20.894901
1152.327590	-3.000300	3.610600	-10.832000	25.071712	0.000942	20.866926
1153.330478	-2.980600	3.609900	-10.759000	25.086777	0.000942	20.892952
1154.323573	-2.992800	3.609100	-10.800000	25.104104	0.000943	20.885216
1155.326921	-3.017400	3.608800	-10.889000	25.110914	0.000940	20.887312
1156.330323	-3.024200	3.607900	-10.910000	25.097242	0.000941	20.882121
1157.332249	-2.987000	3.610400	-10.783000	25.104501	0.000938	20.886089
1158.328022	-2.990900	3.609100	-10.793000	25.101591	0.000936	20.881272
1159.328189	-3.004200	3.607900	-10.838000	25.122473	0.000940	20.879949
1160.326661	-3.001100	3.608100	-10.828000	25.112677	0.000938	20.876754
1161.326378	-3.020400	3.606600	-10.893000	25.097365	0.000937	20.884141
1162.329637	-2.990200	3.607000	-10.785000	25.094953	0.000937	20.884091
1163.323916	-3.006400	3.606100	-10.840000	25.050376	0.000937	20.873484
1164.330897	-2.997700	3.606200	-10.809000	25.022806	0.000938	20.869517
1165.329767	-3.005900	3.606600	-10.840000	24.998665	0.000935	20.878949
1166.326650	-3.005900	3.604400	-10.833000	24.979421	0.000939	20.861530
1167.330419	-3.003800	3.605900	-10.829000	24.986557	0.000935	20.879123
1168.334404	-3.009900	3.606300	-10.854000	24.975193	0.000936	20.890949
1169.328752	-3.022900	3.604700	-10.895000	24.946600	0.000934	20.864622
1170.327194	-3.003900	3.604300	-10.825000	24.937426	0.000935	20.891449
1171.335346	-3.020200	3.602700	-10.880000	24.918255	0.000934	20.888328
1172.335146	-3.036400	3.602900	-10.938000	24.901348	0.000932	20.889377
1173.327501	-3.018600	3.602900	-10.875000	24.897964	0.000934	20.887878
1174.333108	-2.995100	3.604300	-10.794000	24.907587	0.000933	20.889949
1175.332963	-3.001200	3.603500	-10.814000	24.900104	0.000932	20.898559
1176.332237	-3.020700	3.601800	-10.879000	24.965893	0.000931	20.900106
1177.333200	-3.000200	3.602600	-10.808000	24.964401	0.000931	20.891497
1178.335222	-2.996000	3.603000	-10.794000	24.920093	0.000934	20.885906
1179.336135	-2.991800	3.603800	-10.781000	24.898983	0.000929	20.899330
1180.334882	-3.002400	3.601700	-10.813000	24.915642	0.000931	20.894714
1181.332648	-3.004300	3.601500	-10.819000	24.929342	0.000930	20.890921
1182.336575	-2.980900	3.602600	-10.738000	24.950005	0.000929	20.897909
1183.340838	-3.002900	3.599900	-10.809000	24.982400	0.000929	20.901976
1184.338539	-2.992500	3.600600	-10.773000	24.989834	0.000932	20.892843
1185.337100	-2.955500	3.602400	-10.644000	25.017331	0.000927	20.887253
1186.334614	-3.020800	3.598800	-10.871000	25.048432	0.000928	20.896661
1187.342016	-3.030700	3.599700	-10.908000	25.080303	0.000927	20.902574
1188.337828	-3.000900	3.598500	-10.798000	25.079855	0.000926	20.905917
1189.342372	-3.012000	3.599100	-10.840000	25.089079	0.000928	20.895737
1190.336740	-2.984900	3.599800	-10.743000	25.106978	0.000925	20.901851
1191.336160	-2.968200	3.599000	-10.681000	25.101733	0.000926	20.925980
1192.341632	-3.001700	3.597500	-10.796000	25.104914	0.000926	20.909735
1193.342737	-2.982600	3.598100	-10.731000	25.110905	0.000924	20.916223
1194.342611	-2.974200	3.600000	-10.707000	25.094623	0.000925	20.899405
1195.338914	-3.001100	3.598000	-10.797000	25.090545	0.000924	20.926129
1196.340075	-2.987600	3.597100	-10.745000	25.080798	0.000923	20.904019
1197.339790	-2.997800	3.596400	-10.780000	25.093402	0.000922	20.891542
1198.348335	-3.011800	3.595100	-10.827000	25.083880	0.000922	20.938404
1199.340817	-2.999400	3.595300	-10.782000	25.055466	0.000923	20.909884
1200.337606	-2.991200	3.595500	-10.754000	25.067571	0.000920	20.915396
1201.341583	-2.984200	3.596000	-10.730000	25.040449	0.000918	20.916620
1202.343601	-2.974900	3.596400	-10.697000	25.017601	0.000921	20.932564
1203.342160	-3.009600	3.593200	-10.813000	25.021381	0.000919	20.906964
1204.343113	-2.992600	3.595400	-10.758000	25.011260	0.000920	20.910081
1205.346808	-3.016600	3.593800	-10.838000	25.000171	0.000918	20.929768
1206.342155	-3.002600	3.593800	-10.789000	25.005269	0.000918	20.923032
1207.346583	-2.994800	3.594000	-10.762000	24.999177	0.000918	20.922132
1208.343161	-2.982800	3.593300	-10.717000	24.994426	0.000917	20.933010
1209.339239	-2.982300	3.593400	-10.716000	25.040373	0.000916	20.924603
1210.342965	-2.983400	3.593200	-10.719000	25.109606	0.000913	20.926298
1211.349886	-3.014100	3.591500	-10.822000	25.115846	0.000915	20.926398
1212.344723	-3.020100	3.591400	-10.846000	25.103963	0.000915	20.925849
1213.345798	-2.995100	3.593200	-10.760000	25.090387	0.000914	20.932608
1214.347400	-3.020900	3.591000	-10.847000	25.103241	0.000912	20.934606
1215.341108	-3.026200	3.591000	-10.867000	25.139586	0.000913	20.935529
1216.346960	-3.013500	3.590400	-10.818000	25.152932	0.000912	20.954141
1217.346665	-3.007800	3.590200	-10.798000	25.165187	0.000911	20.906706
1218.342760	-3.009600	3.590200	-10.804000	25.189150	0.000912	20.935975
1219.349890	-3.019200	3.589900	-10.838000	25.187906	0.000911	20.920504
1220.343742	-2.992700	3.590500	-10.744000	25.174407	0.000908	20.920702
1221.345656	-2.995600	3.589700	-10.752000	25.205429	0.000909	20.917233
1222.349312	-2.987900	3.589800	-10.726000	25.198867	0.000909	20.914913
1223.345227	-3.011500	3.588000	-10.804000	25.219994	0.000910	20.934224
1224.346987	-3.008000	3.588300	-10.793000	25.225638	0.000910	20.927089
1225.347488	-3.012500	3.589100	-10.811000	25.235354	0.000906	20.922621
1226.352899	-3.018200	3.586300	-10.822000	25.255090	0.000910	20.924417
1227.343294	-3.000300	3.587100	-10.761000	25.287999	0.000907	20.929956
1228.349544	-3.005000	3.587100	-10.779000	25.271071	0.000906	20.925763
1229.352575	-3.011200	3.587200	-10.801000	25.283797	0.000906	20.905351
1230.342996	-3.018600	3.586600	-10.826000	25.270846	0.000906	20.921270
1231.346681	-2.995400	3.586300	-10.741000	25.256678	0.000905	20.928382
1232.347693	-2.985300	3.585900	-10.703000	25.259412	0.000903	20.910266
1233.345945	-3.008800	3.585100	-10.786000	25.255559	0.000903	20.911139
1234.347662	-2.994700	3.586300	-10.738000	25.292992	0.000904	20.906997
1235.346910	-2.982700	3.587000	-10.698000	25.296247	0.000902	20.925436
1236.348556	-3.014100	3.585100	-10.804000	25.304697	0.000904	20.907370
1237.347599	-2.999500	3.585200	-10.752000	25.254315	0.000904	20.923639
1238.348655	-3.006000	3.584500	-10.774000	25.234653	0.000902	20.913857
1239.353605	-3.012600	3.584900	-10.799000	25.208279	0.000903	20.913456
1240.344293	-2.977800	3.583800	-10.670000	25.195154	0.000902	20.902178
1241.349253	-3.022900	3.582500	-10.829000	25.191574	0.000903	20.914229
1242.346141	-2.976800	3.583800	-10.667000	25.198484	0.000901	20.909313
1243.345591	-2.994900	3.581900	-10.727000	25.195725	0.000899	20.917922
1244.350688	-3.010300	3.583100	-10.785000	25.224261	0.000900	20.917174
1245.348748	-3.006200	3.581900	-10.767000	25.229827	0.000902	20.891470
1246.349112	-3.019600	3.582200	-10.815000	25.223141	0.000899	20.907041
1247.348238	-3.013500	3.581100	-10.791000	25.187295	0.000900	20.912305
1248.349677	-2.999600	3.580800	-10.740000	25.177751	0.000899	20.894664
1249.357816	-3.011600	3.581400	-10.784000	25.198432	0.000897	20.892668
1250.347033	-3.003500	3.579900	-10.750000	25.183889	0.000897	20.884706
1251.347396	-2.990300	3.580800	-10.707000	25.205442	0.000897	20.906342
1252.350051	-3.020400	3.579900	-10.811000	25.171907	0.000895	20.894961
1253.350863	-2.977700	3.580500	-10.661000	25.169025	0.000897	20.907240
1254.352963	-2.965300	3.579800	-10.614000	25.142699	0.000894	20.914001
1255.356598	-3.013000	3.579200	-10.784000	25.133252	0.000893	20.888873
1256.354197	-2.978300	3.580600	-10.663000	25.116871	0.000894	20.892816
1257.353834	-3.008400	3.577200	-10.761000	25.110879	0.000894	20.893913
1258.363120	-3.012300	3.577900	-10.777000	25.067472	0.000892	20.890169
1259.354726	-2.994300	3.579000	-10.715000	25.079605	0.000893	20.887650
1260.351812	-2.988400	3.578500	-10.693000	25.050617	0.000892	20.895534
1261.353992	-2.996100	3.577000	-10.715000	25.049025	0.000891	20.903893
1262.356148	-3.007000	3.577400	-10.756000	25.059317	0.000890	20.893837
1263.358775	-3.010500	3.574600	-10.760000	25.101805	0.000889	20.907088
1264.358718	-3.015900	3.576300	-10.784000	25.055786	0.000889	20.898352
1265.358204	-3.002500	3.576400	-10.737000	25.082411	0.000889	20.899474
1266.357674	-2.993100	3.576600	-10.705000	25.072144	0.000888	20.894384
1267.369008	-3.004300	3.574300	-10.737000	25.061378	0.000889	20.892586
1268.359423	-2.994700	3.575300	-10.706000	25.086462	0.000887	20.888369
1269.359334	-3.001200	3.574100	-10.726000	25.093471	0.000887	20.875966
1270.357035	-2.989500	3.574600	-10.685000	25.107641	0.000887	20.882129
1271.360034	-2.987200	3.575100	-10.678000	25.131605	0.000886	20.884375
1272.358623	-3.003900	3.571700	-10.726000	25.149751	0.000884	20.878410
1273.364599	-3.002000	3.573200	-10.725000	25.152608	0.000883	20.871796
1274.361428	-2.989500	3.573200	-10.681000	25.109007	0.000884	20.896301
1275.358598	-3.000600	3.571800	-10.717000	25.103785	0.000883	20.884422
1276.366709	-2.988900	3.572600	-10.677000	25.114821	0.000884	20.883647
1277.361596	-3.006000	3.572800	-10.738000	25.108159	0.000882	20.880753
1278.360955	-2.986800	3.571800	-10.667000	25.094759	0.000882	20.880577
1279.363727	-2.998900	3.573100	-10.714000	25.072386	0.000882	20.887515
1280.363131	-3.011100	3.572500	-10.757000	25.050530	0.000881	20.869845
1281.363522	-2.994600	3.571900	-10.695000	25.064777	0.000880	20.855223
1282.369256	-3.015500	3.568500	-10.760000	25.084913	0.000881	20.863108
1283.366734	-2.985800	3.570700	-10.661000	25.115888	0.000881	20.892778
1284.362900	-2.999200	3.570300	-10.707000	25.128790	0.000878	20.873015
1285.365994	-3.004800	3.569100	-10.723000	25.130728	0.000878	20.865478
1286.363134	-2.989800	3.570300	-10.674000	25.150864	0.000878	20.873364
1287.366366	-2.995100	3.567800	-10.685000	25.167021	0.000878	20.887212
1288.362707	-3.022700	3.568000	-10.784000	25.136097	0.000876	20.870867
1289.365914	-3.006700	3.568300	-10.728000	25.097614	0.000875	20.870641
1290.363517	-3.001200	3.569100	-10.710000	25.036606	0.000875	20.866773
1291.363655	-3.005200	3.568500	-10.723000	25.020446	0.000875	20.880897
1292.364635	-2.976300	3.570200	-10.625000	24.985365	0.000873	20.860859
1293.364092	-3.007500	3.567000	-10.727000	24.997397	0.000874	20.852074
1294.367419	-3.011500	3.567800	-10.744000	25.008212	0.000874	20.843015
1295.362742	-2.983200	3.567200	-10.640000	24.990012	0.000874	20.847981
1296.372672	-2.995700	3.567000	-10.685000	25.003959	0.000871	20.860557
1297.369407	-2.988900	3.566900	-10.659000	25.024767	0.000871	20.872433
1298.373764	-2.986400	3.566100	-10.647000	25.027974	0.000871	20.862377
1299.368742	-3.008200	3.564900	-10.723000	25.066308	0.000870	20.872881
1300.370626	-2.999700	3.565400	-10.694000	25.081768	0.000870	20.873701
1301.367113	-3.017500	3.563700	-10.751000	25.124478	0.000870	20.872953
1302.368635	-3.001000	3.564300	-10.695000	25.146825	0.000869	20.864094
1303.369203	-2.985100	3.565300	-10.642000	25.163005	0.000870	20.844777
1304.365778	-2.988000	3.565800	-10.653000	25.178863	0.000868	20.855006
1305.368590	-2.996500	3.564400	-10.680000	25.184308	0.000868	20.832024
1306.371145	-2.984800	3.564400	-10.638000	25.196137	0.000868	20.859072
1307.369596	-2.994800	3.563500	-10.671000	25.203220	0.000865	20.833467
1308.367207	-2.965900	3.564700	-10.571000	25.213660	0.000867	20.855801
1309.372155	-2.994300	3.563000	-10.667000	25.210079	0.000863	20.855999
1310.370574	-3.016400	3.562500	-10.745000	25.238787	0.000866	20.835509
1311.369658	-3.007800	3.560900	-10.709000	25.238165	0.000867	20.824928
1312.374006	-2.992200	3.561800	-10.656000	25.262397	0.000864	20.841196
1313.369481	-3.012900	3.561000	-10.728000	25.268038	0.000864	20.830739
1314.373480	-3.001300	3.562300	-10.690000	25.250141	0.000865	20.836951
1315.372197	-2.994700	3.561000	-10.662000	25.269603	0.000864	20.826146
1316.370536	-2.988700	3.561600	-10.643000	25.275442	0.000865	20.827267
1317.371321	-2.995600	3.562000	-10.670000	25.263982	0.000863	20.838994
1318.371526	-2.999200	3.560200	-10.677000	25.261247	0.000862	20.847153
1319.375386	-3.003400	3.559500	-10.689000	25.216404	0.000863	20.848599
1320.374467	-2.994900	3.558900	-10.659000	25.215955	0.000862	20.857157
1321.369891	-2.994000	3.559500	-10.655000	25.219135	0.000862	20.835695
1322.371005	-3.012200	3.558400	-10.718000	25.230222	0.000862	20.832127
1323.388221	-2.987300	3.559300	-10.631000	25.223681	0.000862	20.826982
1324.376730	-2.996000	3.558700	-10.661000	25.220077	0.000860	20.826209
1325.376458	-2.985900	3.557800	-10.622000	25.229871	0.000859	20.837938
1326.378592	-3.006700	3.557600	-10.696000	25.234444	0.000861	20.840632
1327.375689	-2.984700	3.556800	-10.614000	25.213563	0.000861	20.834367
1328.378786	-3.013700	3.557100	-10.719000	25.209212	0.000859	20.819094
1329.378789	-2.975400	3.556100	-10.579000	25.205856	0.000859	20.816674
1330.374721	-3.000300	3.556300	-10.668000	25.183211	0.000858	20.818595
1331.375994	-2.991600	3.555100	-10.635000	25.150074	0.000858	20.828002
1332.389185	-3.013800	3.556700	-10.718000	25.171028	0.000857	20.819641
1333.379054	-2.984700	3.555200	-10.610000	25.188728	0.000858	20.826504
1334.376335	-2.963800	3.556400	-10.539000	25.235062	0.000856	20.826080
1335.376590	-2.996200	3.555400	-10.651000	25.243139	0.000855	20.832767
1336.375958	-3.002500	3.554400	-10.672000	25.232227	0.000857	20.828924
1337.377678	-3.008700	3.554000	-10.692000	25.263447	0.000856	20.822336
1338.375979	-3.001600	3.554600	-10.668000	25.259569	0.000853	20.827925
1339.379311	-3.021400	3.552000	-10.729000	25.217934	0.000855	20.828799
1340.376567	-2.984100	3.553200	-10.602000	25.227429	0.000852	20.825056
1341.380180	-3.011100	3.552900	-10.697000	25.225690	0.000853	20.802921
1342.380655	-2.999800	3.552400	-10.655000	25.228149	0.000851	20.826727
1343.376880	-2.986600	3.552900	-10.610000	25.262948	0.000850	20.813301
1344.382198	-2.973400	3.553700	-10.564000	25.280769	0.000851	20.829297
1345.380809	-2.998000	3.552200	-10.648000	25.292426	0.000851	20.833888
1346.382970	-3.010100	3.552200	-10.692000	25.308035	0.000848	20.833439
1347.378136	-2.987500	3.552500	-10.612000	25.292303	0.000850	20.847040
1348.380942	-2.987000	3.551700	-10.608000	25.288051	0.000849	20.810530
1349.383996	-2.983700	3.551900	-10.597000	25.280918	0.000848	20.830868
1350.385344	-3.005200	3.549200	-10.665000	25.303810	0.000848	20.821610
1351.384542	-3.009100	3.549700	-10.680000	25.287628	0.000847	20.822432
1352.383320	-3.016800	3.549100	-10.705000	25.298017	0.000846	20.831441
1353.390565	-3.000200	3.548300	-10.645000	25.265929	0.000843	20.821983
1354.383442	-2.982200	3.548800	-10.583000	25.222107	0.000846	20.821609
1355.389080	-2.990800	3.548100	-10.610000	25.192104	0.000845	20.819462
1356.385804	-2.953100	3.549900	-10.482000	25.192079	0.000845	20.798574
1357.383931	-3.006300	3.545900	-10.659000	25.200828	0.000844	20.823953
1358.385731	-3.001200	3.547600	-10.646000	25.194961	0.000843	20.827546
1359.388861	-2.987400	3.547400	-10.596000	25.219023	0.000843	20.797650
1360.386330	-2.983700	3.546700	-10.581000	25.187604	0.000840	20.804513
1361.390887	-2.995500	3.545300	-10.617000	25.204482	0.000841	20.783051
1362.389157	-2.971400	3.545800	-10.535000	25.167045	0.000840	20.812798
1363.387687	-3.005600	3.545700	-10.656000	25.156604	0.000840	20.807057
1364.389519	-2.989900	3.545500	-10.600000	25.167814	0.000839	20.823527
1365.385282	-2.996900	3.545200	-10.623000	25.171568	0.000839	20.818760
1366.388631	-3.012200	3.543100	-10.672000	25.175992	0.000839	20.796175
1367.388608	-3.012700	3.543800	-10.675000	25.210544	0.000837	20.822802
1368.388886	-2.986200	3.546100	-10.588000	25.236967	0.000838	20.814243
1369.388361	-3.028700	3.543400	-10.731000	25.230404	0.000835	20.799593
1370.390224	-3.000700	3.544500	-10.635000	25.292990	0.000834	20.816911
1371.392026	-3.000000	3.543700	-10.629000	25.287870	0.000836	20.814141
1372.390495	-2.981300	3.543600	-10.563000	25.257869	0.000836	20.813417
1373.389793	-2.986300	3.542900	-10.579000	25.248944	0.000835	20.800189
1374.389988	-3.003700	3.541500	-10.636000	25.240790	0.000836	20.814288
1375.394182	-3.017300	3.540900	-10.682000	25.248893	0.000836	20.793974
1376.392910	-3.004100	3.541600	-10.638000	25.281405	0.000835	20.810969
1377.394373	-2.981600	3.542800	-10.562000	25.305339	0.000834	20.815559
1378.390894	-3.013100	3.540000	-10.666000	25.332504	0.000832	20.818178
1379.395763	-2.991000	3.540900	-10.589000	25.349355	0.000833	20.783415
1380.394799	-2.993800	3.539700	-10.596000	25.352885	0.000832	20.795968
1381.391007	-3.004900	3.540100	-10.636000	25.380372	0.000832	20.774256
1382.392476	-3.019700	3.539700	-10.688000	25.368740	0.000832	20.802879
1383.393858	-3.002400	3.538900	-10.623000	25.382210	0.000832	20.803602
1384.390956	-2.995800	3.539100	-10.601000	25.372542	0.000831	20.796266
1385.395875	-2.988900	3.538800	-10.576000	25.355044	0.000831	20.770635
1386.395432	-2.991000	3.539200	-10.585000	25.329123	0.000830	20.805300
1387.392144	-3.009600	3.536100	-10.640000	25.275460	0.000830	20.796465
1388.397748	-2.998000	3.537300	-10.603000	25.279487	0.000829	20.794819
1389.399779	-3.028500	3.536000	-10.707000	25.266262	0.000829	20.792921
1390.391815	-3.004100	3.537200	-10.625000	25.295220	0.000827	20.786433
1391.397628	-3.000200	3.536000	-10.608000	25.266262	0.000828	20.789128
1392.396698	-3.001500	3.537400	-10.616000	25.293182	0.000826	20.795293
1393.394818	-3.010300	3.535500	-10.642000	25.277450	0.000825	20.797989
1394.396319	-3.022800	3.535500	-10.686000	25.305560	0.000823	20.812936
1395.401645	-3.006500	3.534300	-10.626000	25.300267	0.000825	20.795294
1396.398875	-3.002500	3.535500	-10.614000	25.310756	0.000823	20.791601
1397.402327	-2.982800	3.537400	-10.551000	25.306182	0.000823	20.802655
1398.399826	-3.005900	3.534900	-10.624000	25.307700	0.000821	20.808921
1399.400739	-3.007700	3.532500	-10.624000	25.298155	0.000822	20.780371
1400.402051	-2.997900	3.533600	-10.592000	25.258138	0.000820	20.785712
1401.404650	-2.989200	3.534200	-10.564000	25.219611	0.000823	20.775481
1402.398170	-2.988600	3.533400	-10.558000	25.215436	0.000820	20.777928
1403.398651	-3.002300	3.533700	-10.607000	25.220184	0.000819	20.777953
1404.399712	-2.999400	3.533000	-10.596000	25.228637	0.000819	20.795922
1405.398736	-2.998700	3.533000	-10.593000	25.252922	0.000818	20.792329
1406.402515	-2.988500	3.532900	-10.557000	25.287421	0.000818	20.784766
1407.406785	-3.011100	3.531900	-10.634000	25.296147	0.000813	20.776932
1408.397391	-2.997500	3.530900	-10.582000	25.325228	0.000815	20.781949
1409.401767	-2.992900	3.530800	-10.566000	25.323661	0.000815	20.781799
1410.405686	-2.997300	3.530700	-10.582000	25.362856	0.000814	20.790808
1411.400198	-3.010900	3.529400	-10.624000	25.400484	0.000816	20.776433
1412.404454	-3.011000	3.530900	-10.630000	25.437341	0.000814	20.776459
1413.405996	-2.991600	3.530300	-10.559000	25.433812	0.000813	20.807528
1414.398319	-2.996200	3.531100	-10.579000	25.410898	0.000813	20.791632
1415.403422	-3.007700	3.529300	-10.614000	25.436174	0.000814	20.787141
1416.402103	-3.022400	3.527900	-10.661000	25.431352	0.000814	20.778032
1417.398879	-2.990200	3.528400	-10.550000	25.412142	0.000811	20.773440
1418.405417	-2.985200	3.527700	-10.528000	25.389055	0.000814	20.790561
1419.404097	-2.987600	3.527900	-10.539000	25.368973	0.000812	20.778457
1420.398911	-2.995500	3.527700	-10.566000	25.376877	0.000812	20.788765
1421.405550	-2.989000	3.526400	-10.539000	25.339695	0.000812	20.760913
1422.406420	-2.979200	3.526900	-10.506000	25.322819	0.000810	20.778108
1423.399744	-3.004300	3.524500	-10.588000	25.297193	0.000808	20.776086
1424.404995	-2.976000	3.527800	-10.497000	25.324435	0.000808	20.785421
1425.403494	-3.007500	3.524400	-10.598000	25.344245	0.000809	20.775914
1426.409651	-3.011400	3.524500	-10.611000	25.350805	0.000808	20.788665
1427.407189	-3.010900	3.526100	-10.615000	25.338378	0.000807	20.771445
1428.405976	-2.979900	3.524900	-10.502000	25.336986	0.000808	20.771944
1429.402682	-3.013100	3.524000	-10.617000	25.344468	0.000807	20.768551
1430.408007	-2.991100	3.524200	-10.540000	25.349836	0.000808	20.782476
1431.407216	-3.006400	3.523700	-10.593000	25.346331	0.000808	20.764257
1432.403160	-3.011100	3.523600	-10.609000	25.320706	0.000804	20.764132
1433.408420	-2.990100	3.524100	-10.536000	25.324981	0.000806	20.777434
1434.408742	-2.959900	3.525400	-10.433000	25.305420	0.000805	20.763957
1435.403768	-3.023600	3.521600	-10.647000	25.322121	0.000805	20.796374
1436.408731	-2.995200	3.522900	-10.550000	25.331069	0.000802	20.738975
1437.408007	-3.000800	3.521700	-10.566000	25.364497	0.000803	20.757842
1438.408394	-2.996600	3.522300	-10.554000	25.337183	0.000804	20.766452
1439.412019	-3.018100	3.519800	-10.621000	25.333653	0.000805	20.752950
1440.409625	-3.000900	3.520700	-10.563000	25.338301	0.000804	20.779902
1441.405555	-2.996700	3.521000	-10.551000	25.392904	0.000803	20.755070
1442.412554	-3.010800	3.520700	-10.600000	25.367554	0.000803	20.762807
1443.408505	-3.008000	3.520100	-10.587000	25.350379	0.000803	20.774960
1444.409925	-3.004800	3.519500	-10.575000	25.346029	0.000802	20.773912
1445.412047	-2.986600	3.520900	-10.515000	25.331838	0.000804	20.757765
1446.406632	-2.999000	3.517600	-10.548000	25.391710	0.000803	20.774261
1447.408865	-3.001500	3.518500	-10.560000	25.376426	0.000802	20.764604
1448.412169	-2.998600	3.517800	-10.547000	25.378935	0.000801	20.748631
1449.409959	-3.015900	3.516100	-10.602000	25.385523	0.000801	20.763306
1450.411018	-3.011700	3.516700	-10.590000	25.381248	0.000800	20.753324
1451.414855	-2.985600	3.518300	-10.503000	25.396383	0.000799	20.760461
1452.407229	-2.996100	3.518600	-10.541000	25.399913	0.000802	20.769696
1453.412402	-2.997100	3.518400	-10.542000	25.386642	0.000799	20.760162
1454.410844	-3.027000	3.515300	-10.639000	25.408017	0.000800	20.744167
1455.409379	-2.981200	3.516100	-10.480000	25.427500	0.000798	20.749981
1456.412487	-3.011400	3.514400	-10.582000	25.420295	0.000797	20.774041
1457.414972	-2.997100	3.516400	-10.538000	25.452254	0.000798	20.741647
1458.410611	-2.998000	3.515000	-10.537000	25.451162	0.000799	20.751930
1459.414520	-3.000900	3.514300	-10.544000	25.442290	0.000798	20.774790
1460.415216	-3.010300	3.514400	-10.578000	25.389578	0.000798	20.740825
1461.414588	-2.989700	3.514500	-10.506000	25.368179	0.000798	20.761539
1462.412949	-2.986600	3.514200	-10.495000	25.340071	0.000797	20.766507
1463.412917	-2.983700	3.514200	-10.484000	25.302889	0.000797	20.773744
1464.415264	-2.976700	3.514400	-10.460000	25.305699	0.000795	20.769453
1465.415460	-3.000400	3.511600	-10.535000	25.319519	0.000796	20.736861
1466.417793	-3.023000	3.511100	-10.613000	25.296230	0.000797	20.745721
1467.413141	-3.022300	3.511600	-10.611000	25.320191	0.000797	20.782108
1468.413280	-2.997100	3.512700	-10.527000	25.336249	0.000795	20.762669
1469.418680	-3.016500	3.510200	-10.587000	25.358395	0.000794	20.754085
1470.417586	-2.982900	3.511000	-10.472000	25.393017	0.000794	20.757556
1471.418664	-3.013800	3.509600	-10.575000	25.420332	0.000791	20.765543
1472.418018	-2.981800	3.509800	-10.465000	25.430796	0.000792	20.761352
1473.416726	-2.997500	3.512000	-10.525000	25.473019	0.000793	20.790950
1474.420265	-3.010400	3.508900	-10.562000	25.475357	0.000794	20.762951
1475.422359	-3.022400	3.507900	-10.600000	25.469990	0.000792	20.756138
1476.418051	-3.002800	3.508500	-10.534000	25.461068	0.000789	20.764723
1477.420625	-3.004700	3.509300	-10.543000	25.438182	0.000789	20.764501
1478.421148	-3.005300	3.509600	-10.547000	25.424341	0.000788	20.759612
1479.419856	-3.001700	3.508100	-10.529000	25.419521	0.000790	20.765203
1480.421611	-3.010400	3.507100	-10.556000	25.372302	0.000790	20.759988
1481.418746	-3.012100	3.507800	-10.565000	25.352170	0.000789	20.769171
1482.421966	-2.998000	3.505700	-10.508000	25.344592	0.000786	20.787641
1483.421647	-3.011800	3.506200	-10.559000	25.327493	0.000787	20.769999
1484.427156	-2.991000	3.506200	-10.485000	25.330576	0.000787	20.773568
1485.420789	-2.999000	3.504700	-10.509000	25.342656	0.000786	20.753454
1486.422794	-3.003200	3.505100	-10.526000	25.335474	0.000785	20.780383
1487.427604	-3.000900	3.504800	-10.516000	25.340720	0.000784	20.767632
1488.423820	-2.996400	3.505300	-10.502000	25.331227	0.000784	20.766635
1489.425739	-3.006300	3.503900	-10.532000	25.291683	0.000783	20.775295
1490.421216	-2.998100	3.504200	-10.506000	25.275975	0.000782	20.767111
1491.423692	-2.995000	3.503300	-10.492000	25.265214	0.000784	20.760100
1492.423565	-2.981300	3.503800	-10.445000	25.269539	0.000783	20.790521
1493.426070	-2.993100	3.503500	-10.485000	25.249383	0.000781	20.768387
1494.421005	-2.988400	3.503100	-10.468000	25.254704	0.000781	20.770410
1495.421335	-3.007100	3.503400	-10.534000	25.280331	0.000781	20.773381
1496.423716	-3.005300	3.504400	-10.531000	25.314185	0.000779	20.784612
1497.421925	-2.998100	3.501300	-10.496000	25.321293	0.000779	20.770886
1498.427326	-2.977800	3.502700	-10.430000	25.339662	0.000779	20.766096
1499.427537	-3.021900	3.500700	-10.576000	25.388899	0.000777	20.776654
1500.424882	-3.021200	3.500800	-10.575000	25.376372	0.000779	20.777352
1501.421777	-3.016000	3.501200	-10.559000	25.408234	0.000777	20.783267
1502.427995	-3.001300	3.501200	-10.506000	25.426156	0.000775	20.790357
1503.421825	-2.997700	3.500000	-10.491000	25.430231	0.000776	20.771216
1504.424659	-3.016600	3.498700	-10.553000	25.405256	0.000773	20.767474
1505.428023	-3.004600	3.498700	-10.510000	25.397774	0.000774	20.801213
1506.422771	-2.997900	3.499900	-10.491000	25.376675	0.000772	20.780976
1507.427403	-2.973400	3.500500	-10.408000	25.391836	0.000775	20.799992
1508.427818	-3.000100	3.499200	-10.497000	25.369271	0.000772	20.785869
1509.429735	-3.006300	3.496800	-10.512000	25.386693	0.000771	20.776810
1510.429080	-3.005100	3.497700	-10.510000	25.408863	0.000769	20.776312
1511.430266	-2.981300	3.497900	-10.427000	25.407322	0.000770	20.789938
1512.426636	-3.013700	3.496700	-10.537000	25.419077	0.000769	20.769024
1513.435661	-3.013500	3.496100	-10.533000	25.402327	0.000770	20.776387
1514.431817	-2.988300	3.496500	-10.447000	25.409186	0.000770	20.784223
1515.426589	-2.998600	3.496500	-10.484000	25.404390	0.000768	20.777511
1516.430611	-3.012400	3.495200	-10.528000	25.403967	0.000768	20.779930
1517.428483	-3.002300	3.494200	-10.490000	25.417066	0.000767	20.786446
1518.430621	-2.991400	3.494100	-10.451000	25.375361	0.000764	20.773492
1519.425746	-3.015000	3.491900	-10.526000	25.391914	0.000765	20.792484
1520.432612	-2.993000	3.494900	-10.459000	25.364477	0.000767	20.784374
1521.430583	-2.964400	3.494200	-10.357000	25.369423	0.000765	20.806885
1522.428929	-2.984200	3.494400	-10.427000	25.369000	0.000764	20.799347
1523.434205	-2.992300	3.493600	-10.453000	25.378344	0.000763	20.813946
1524.427727	-3.005100	3.493100	-10.496000	25.398626	0.000765	20.797327
1525.432931	-2.990000	3.493300	-10.444000	25.398029	0.000764	20.787244
1526.433830	-2.995000	3.491900	-10.457000	25.374244	0.000763	20.778060
1527.440950	-3.001800	3.490500	-10.477000	25.380955	0.000762	20.798075
1528.432178	-2.992400	3.491600	-10.448000	25.379812	0.000761	20.780332
1529.437397	-2.988300	3.491400	-10.433000	25.401359	0.000761	20.791537
1530.433511	-2.997000	3.491000	-10.462000	25.409261	0.000760	20.831238
1531.431379	-3.006100	3.489800	-10.491000	25.424023	0.000761	20.783949
1532.440845	-3.015200	3.489100	-10.518000	25.451385	0.000759	20.767328
1533.437829	-3.005800	3.488600	-10.485000	25.457771	0.000759	20.800768
1534.434858	-3.024700	3.488600	-10.551000	25.467687	0.000760	20.779431
1535.438991	-3.009000	3.488600	-10.496000	25.474918	0.000760	20.789063
1536.439408	-2.987500	3.488400	-10.421000	25.487442	0.000759	20.804011
1537.435244	-2.975600	3.488800	-10.379000	25.466966	0.000757	20.806682
1538.435335	-2.991400	3.488000	-10.433000	25.442313	0.000756	20.789038
1539.438277	-3.017300	3.486900	-10.520000	25.410724	0.000757	20.799044
1540.432949	-3.005200	3.488200	-10.482000	25.423995	0.000755	20.803361
1541.436888	-3.013700	3.487600	-10.509000	25.463086	0.000753	20.786190
1542.436153	-2.997200	3.487100	-10.449000	25.451853	0.000755	20.786764
1543.441224	-3.032900	3.484700	-10.568000	25.469398	0.000755	20.778779
1544.436796	-3.011200	3.485100	-10.494000	25.466662	0.000753	20.790730
1545.437520	-3.008300	3.485000	-10.483000	25.458710	0.000754	20.809771
1546.437829	-3.042400	3.484200	-10.599000	25.437262	0.000754	20.798665
1547.437984	-3.014100	3.485100	-10.503000	25.436690	0.000751	20.788608
1548.438533	-2.996900	3.484500	-10.442000	25.425980	0.000752	20.799190
1549.435749	-3.018100	3.484500	-10.516000	25.398069	0.000752	20.786336
1550.438914	-3.002900	3.483600	-10.460000	25.387431	0.000750	20.803155
1551.438048	-2.993500	3.482500	-10.424000	25.366828	0.000752	20.811865
1552.439333	-2.994300	3.483800	-10.431000	25.386734	0.000752	20.806249
1553.439288	-2.999800	3.482400	-10.445000	25.415835	0.000752	20.787580
1554.442859	-2.993700	3.481700	-10.422000	25.421154	0.000750	20.797663
1555.446229	-2.986500	3.480800	-10.394000	25.437903	0.000751	20.804999
1556.441402	-2.989200	3.482500	-10.409000	25.435318	0.000749	20.817576
1557.441350	-2.985900	3.480500	-10.391000	25.451645	0.000750	20.810263
1558.437797	-2.985800	3.480900	-10.391000	25.459225	0.000749	20.803650
1559.441060	-3.010700	3.480400	-10.477000	25.450726	0.000749	20.781365
1560.443921	-2.984800	3.480800	-10.388000	25.462430	0.000750	20.811136
1561.441168	-3.020100	3.479600	-10.508000	25.486014	0.000749	20.816801
1562.442462	-3.011200	3.479600	-10.477000	25.490164	0.000749	20.806270
1563.445943	-3.003500	3.478600	-10.447000	25.491083	0.000747	20.784908
1564.448722	-2.984900	3.480000	-10.384000	25.511933	0.000747	20.805371
1565.444796	-3.010900	3.477600	-10.469000	25.501198	0.000746	20.806445
1566.448541	-3.015600	3.477800	-10.487000	25.509300	0.000745	20.819796
1567.448938	-2.993200	3.479300	-10.414000	25.538199	0.000747	20.807093
1568.444267	-2.983500	3.478800	-10.378000	25.511561	0.000744	20.810687
1569.447002	-2.987500	3.478500	-10.392000	25.488300	0.000745	20.809140
1570.448095	-3.005400	3.477600	-10.450000	25.496874	0.000747	20.820120
1571.448201	-2.981800	3.477100	-10.366000	25.495236	0.000746	20.802828
1572.448274	-2.971600	3.477500	-10.333000	25.507015	0.000744	20.803277
1573.449696	-3.000700	3.476000	-10.429000	25.490788	0.000746	20.813061
1574.447529	-2.999300	3.473900	-10.418000	25.500182	0.000745	20.793096
1575.450026	-3.025400	3.474800	-10.512000	25.512509	0.000743	20.826338
1576.446536	-2.988300	3.475800	-10.385000	25.516288	0.000743	20.830133
1577.448503	-2.993900	3.473400	-10.398000	25.542853	0.000742	20.816982
1578.448922	-3.016600	3.473600	-10.476000	25.515940	0.000741	20.807499
1579.445935	-3.007900	3.473200	-10.446000	25.517184	0.000743	20.820601
1580.445320	-2.989900	3.472200	-10.380000	25.489749	0.000742	20.821025
1581.451855	-3.005800	3.473500	-10.439000	25.509307	0.000741	20.822174
1582.454904	-2.994200	3.472500	-10.396000	25.531772	0.000740	20.815337
1583.450360	-3.027900	3.469600	-10.504000	25.543054	0.000740	20.804856
1584.450207	-2.986100	3.471800	-10.367000	25.564226	0.000740	20.822326
1585.450749	-2.978600	3.471900	-10.340000	25.557344	0.000737	20.831535
1586.451989	-3.000400	3.471700	-10.414000	25.535825	0.000739	20.826045
1587.451249	-3.006800	3.469700	-10.431000	25.499369	0.000737	20.823100
1588.454072	-2.982000	3.471000	-10.349000	25.503147	0.000736	20.821678
1589.450851	-3.003800	3.470100	-10.422000	25.493083	0.000736	20.836227
1590.451726	-3.005200	3.468400	-10.421000	25.477749	0.000735	20.839795
1591.454555	-3.024400	3.467400	-10.485000	25.454564	0.000734	20.825996
1592.455177	-3.009100	3.468100	-10.435000	25.449420	0.000735	20.832210
1593.455218	-2.989600	3.467900	-10.367000	25.481008	0.000735	20.835955
1594.451855	-3.001000	3.468500	-10.408000	25.461772	0.000731	20.834656
1595.451281	-3.014100	3.466800	-10.447000	25.398698	0.000733	20.832012
1596.452414	-2.998700	3.468300	-10.398000	25.396436	0.000731	20.813146
1597.457644	-2.982100	3.467600	-10.340000	25.398324	0.000731	20.836852
1598.456210	-3.002400	3.466400	-10.407000	25.431131	0.000730	20.821432
1599.456842	-3.008700	3.466800	-10.430000	25.462891	0.000731	20.838150
1600.457949	-3.001700	3.466200	-10.404000	25.469849	0.000729	20.826646
1601.458704	-2.982200	3.465000	-10.333000	25.495595	0.000727	20.838275
1602.457862	-2.974200	3.465600	-10.305000	25.508516	0.000730	20.836553
1603.454918	-2.971500	3.464700	-10.293000	25.537839	0.000729	20.834232
1604.456854	-2.999300	3.465400	-10.392000	25.535106	0.000729	20.830539
1605.455523	-3.006100	3.463700	-10.411000	25.526160	0.000727	20.818236
1606.458354	-2.996100	3.463300	-10.375000	25.513884	0.000729	20.853797
1607.461418	-3.009500	3.462300	-10.419000	25.516544	0.000729	20.842244
1608.458995	-3.003300	3.462400	-10.397000	25.475988	0.000728	20.842294
1609.454634	-3.016500	3.460600	-10.437000	25.486102	0.000727	20.847708
1610.462877	-3.010200	3.461300	-10.418000	25.501362	0.000728	20.854023
1611.460428	-3.010300	3.461200	-10.418000	25.490998	0.000728	20.832711
1612.455382	-3.004100	3.459400	-10.391000	25.477978	0.000726	20.847611
1613.459540	-3.003100	3.460900	-10.393000	25.504916	0.000724	20.831041
1614.457824	-3.013400	3.461800	-10.429000	25.469033	0.000727	20.851905
1615.461417	-3.003200	3.461100	-10.393000	25.474476	0.000727	20.824655
1616.463663	-2.988500	3.460500	-10.341000	25.453253	0.000726	20.833689
1617.463080	-2.990700	3.461000	-10.350000	25.454199	0.000725	20.838906
1618.459352	-3.006500	3.459900	-10.401000	25.474877	0.000725	20.843548
1619.466420	-2.991700	3.458900	-10.345000	25.475025	0.000723	20.839904
1620.462266	-2.976400	3.458400	-10.292000	25.490111	0.000723	20.835139
1621.457936	-2.990900	3.458800	-10.344000	25.468565	0.000723	20.842900
1622.461773	-3.021300	3.458300	-10.447000	25.453880	0.000723	20.844274
1623.460004	-2.986600	3.458500	-10.327000	25.446822	0.000721	20.852834
1624.460878	-2.994800	3.457500	-10.354000	25.422617	0.000720	20.852236
1625.463860	-2.997300	3.455400	-10.354000	25.392049	0.000723	20.874171
1626.463220	-3.004400	3.454600	-10.378000	25.435940	0.000721	20.849493
1627.467146	-2.998400	3.457100	-10.364000	25.431045	0.000721	20.846000
1628.463929	-2.991600	3.456500	-10.340000	25.449087	0.000719	20.864117
1629.467113	-2.973600	3.457200	-10.279000	25.443546	0.000720	20.872777
1630.462638	-3.004800	3.453300	-10.376000	25.449686	0.000720	20.855235
1631.466140	-3.009600	3.454700	-10.397000	25.460671	0.000721	20.864843
1632.468536	-3.015300	3.453700	-10.414000	25.449589	0.000719	20.839492
1633.467853	-3.003100	3.453800	-10.371000	25.410994	0.000718	20.855263
1634.467710	-3.009200	3.452200	-10.387000	25.408237	0.000720	20.850125
1635.465384	-3.012500	3.453900	-10.403000	25.420391	0.000719	20.875604
1636.466568	-2.997900	3.453100	-10.351000	25.448847	0.000717	20.843962
1637.468447	-3.002800	3.452700	-10.367000	25.425140	0.000718	20.864726
1638.467459	-3.007700	3.450700	-10.377000	25.442215	0.000717	20.851052
1639.464229	-2.992100	3.453000	-10.331000	25.460558	0.000715	20.891281
1640.468462	-3.017700	3.450600	-10.412000	25.462522	0.000715	20.862435
1641.464058	-2.983300	3.450700	-10.294000	25.489462	0.000719	20.870521
1642.467550	-3.003400	3.450000	-10.361000	25.490953	0.000716	20.863485
1643.468526	-2.986400	3.451800	-10.307000	25.506960	0.000714	20.861541
1644.468604	-3.002500	3.449300	-10.355000	25.543192	0.000715	20.869478
1645.468598	-3.006400	3.449200	-10.369000	25.560066	0.000716	20.863665
1646.468359	-2.999200	3.449200	-10.343000	25.580644	0.000715	20.875321
1647.469890	-3.017300	3.449000	-10.405000	25.600672	0.000714	20.876469
1648.465633	-2.996400	3.449200	-10.334000	25.591107	0.000713	20.889147
1649.470731	-3.009900	3.449000	-10.380000	25.579380	0.000714	20.872629
1650.465469	-3.014000	3.447600	-10.390000	25.579283	0.000714	20.878222
1651.469054	-3.003200	3.449200	-10.357000	25.543700	0.000713	20.885160
1652.470443	-2.996600	3.447700	-10.331000	25.522778	0.000714	20.889752
1653.469784	-2.996100	3.447500	-10.328000	25.549941	0.000713	20.893797
1654.471292	-2.991300	3.446600	-10.308000	25.525837	0.000712	20.877652
1655.472120	-2.989600	3.446600	-10.303000	25.555785	0.000713	20.881175
1656.472046	-2.971300	3.448300	-10.245000	25.569998	0.000710	20.893078
1657.471454	-2.996400	3.446200	-10.323000	25.592266	0.000710	20.868028
1658.472249	-2.992000	3.446600	-10.310000	25.607128	0.000710	20.883427
1659.476475	-3.019300	3.444200	-10.398000	25.609191	0.000710	20.892610
1660.473162	-2.994000	3.445700	-10.315000	25.608621	0.000709	20.883503
1661.472746	-2.997100	3.444900	-10.324000	25.624129	0.000710	20.907611
1662.474494	-3.002500	3.444300	-10.340000	25.667464	0.000710	20.883807
1663.477702	-3.008300	3.442600	-10.354000	25.656112	0.000709	20.904646
1664.477007	-3.011400	3.443100	-10.367000	25.648956	0.000708	20.897934
1665.482164	-2.997600	3.441900	-10.316000	25.609377	0.000707	20.907494
1666.478679	-2.972100	3.443400	-10.233000	25.583263	0.000706	20.889804
1667.480548	-3.007700	3.441300	-10.348000	25.541469	0.000707	20.911366
1668.483582	-2.991200	3.443100	-10.298000	25.561650	0.000704	20.899865
1669.480194	-3.006800	3.441200	-10.346000	25.527680	0.000707	20.897520
1670.478791	-3.000100	3.439200	-10.317000	25.534417	0.000705	20.899069
1671.482824	-3.008300	3.440800	-10.350000	25.520602	0.000702	20.906057
1672.477832	-3.003100	3.440500	-10.330000	25.540408	0.000704	20.905086
1673.483495	-3.008200	3.439800	-10.345000	25.553954	0.000703	20.903042
1674.490187	-3.021100	3.437800	-10.385000	25.558132	0.000702	20.896333
1675.481440	-2.980600	3.439700	-10.250000	25.605621	0.000703	20.903722
1676.481503	-3.000100	3.438000	-10.313000	25.620705	0.000702	20.914603
1677.487182	-2.983600	3.439100	-10.259000	25.578017	0.000702	20.910138
1678.486639	-2.997400	3.438600	-10.306000	25.563855	0.000703	20.914406
1679.483436	-3.025900	3.438200	-10.402000	25.549992	0.000701	20.933673
1680.487737	-2.998200	3.437600	-10.306000	25.546364	0.000697	20.901584
1681.481790	-2.992500	3.439100	-10.290000	25.564108	0.000697	20.933624
1682.482996	-3.014700	3.437600	-10.362000	25.591518	0.000697	20.910894
1683.487973	-2.997800	3.435500	-10.298000	25.613164	0.000697	20.923624
1684.482619	-3.018500	3.434300	-10.364000	25.599449	0.000698	20.920756
1685.487369	-3.006600	3.436200	-10.330000	25.615626	0.000696	20.927518
1686.490763	-3.023300	3.433700	-10.380000	25.632176	0.000696	20.937501
1687.483916	-3.009400	3.434000	-10.334000	25.651780	0.000695	20.934431
1688.487313	-3.000000	3.435300	-10.305000	25.646489	0.000693	20.929118
1689.490639	-3.006300	3.434800	-10.325000	25.628104	0.000693	20.943842
1690.488797	-2.986700	3.435600	-10.260000	25.604945	0.000692	20.936705
1691.490524	-3.008100	3.432500	-10.324000	25.588396	0.000692	20.903967
1692.490356	-2.999200	3.432200	-10.293000	25.562730	0.000693	20.921811
1693.492970	-3.026800	3.432800	-10.389000	25.575180	0.000689	20.922935
1694.485651	-2.992400	3.433200	-10.273000	25.589939	0.000689	20.926851
1695.490024	-3.025400	3.431400	-10.380000	25.611234	0.000689	20.930694
1696.492815	-3.024400	3.430100	-10.373000	25.624852	0.000687	20.931569
1697.491207	-2.987800	3.432900	-10.256000	25.601794	0.000688	20.941600
1698.489854	-3.006800	3.430700	-10.315000	25.610265	0.000686	20.935884
1699.494761	-2.968400	3.432900	-10.188000	25.599234	0.000687	20.929073
1700.499636	-2.993800	3.429800	-10.267000	25.616304	0.000685	20.938156
1701.495434	-2.993200	3.429500	-10.263000	25.644061	0.000686	20.942325
1702.489934	-2.993300	3.430900	-10.269000	25.650967	0.000684	20.939779
1703.488909	-3.001100	3.429800	-10.292000	25.636555	0.000687	20.921513
1704.496444	-2.992300	3.428500	-10.258000	25.669402	0.000683	20.954025
1705.493047	-3.002800	3.428900	-10.295000	25.672185	0.000683	20.927900
1706.494474	-2.999000	3.429200	-10.283000	25.686048	0.000684	20.956045
1707.495060	-2.997300	3.429600	-10.279000	25.715019	0.000682	20.944842
1708.496809	-2.997000	3.428900	-10.275000	25.734968	0.000684	20.932639
1709.494243	-3.013100	3.425700	-10.321000	25.735291	0.000685	20.941970
1710.496025	-3.003400	3.427500	-10.294000	25.727886	0.000683	20.931215
1711.492672	-2.994300	3.427100	-10.261000	25.703240	0.000680	20.957191
1712.488859	-2.988300	3.427600	-10.242000	25.662914	0.000682	20.938027
1713.494603	-2.989300	3.427000	-10.243000	25.695411	0.000681	20.943165
1714.493138	-3.024200	3.425100	-10.356000	25.664154	0.000684	20.940221
1715.490710	-2.998800	3.426500	-10.274000	25.670042	0.000680	20.958934
1716.498914	-3.016500	3.424600	-10.329000	25.625070	0.000683	20.957862
1717.496372	-3.001500	3.424800	-10.278000	25.676875	0.000681	20.937351
1718.496216	-2.996300	3.424900	-10.260000	25.680850	0.000679	20.952721
1719.500731	-3.010900	3.422600	-10.305000	25.656549	0.000680	20.947754
1720.500603	-2.984400	3.424400	-10.218000	25.682266	0.000681	20.952246
1721.494516	-3.012800	3.422200	-10.309000	25.693692	0.000677	20.958980
1722.501598	-2.986200	3.423400	-10.222000	25.684427	0.000679	20.970536
1723.495768	-2.990500	3.422000	-10.232000	25.701719	0.000678	20.973205
1724.497808	-2.987700	3.423400	-10.227000	25.679879	0.000678	20.947005
1725.502687	-2.997100	3.421900	-10.254000	25.684078	0.000676	20.947903
1726.497881	-2.999500	3.422700	-10.265000	25.710886	0.000678	20.944958
1727.496164	-2.966300	3.422600	-10.151000	25.723806	0.000675	20.972630
1728.500600	-3.003800	3.421100	-10.275000	25.724724	0.000675	20.943684
1729.494771	-2.981300	3.420500	-10.196000	25.728328	0.000675	20.943985
1730.497778	-2.984400	3.420700	-10.208000	25.727681	0.000675	20.945232
1731.500519	-2.987400	3.422400	-10.223000	25.704774	0.000674	20.955413
1732.496013	-3.003300	3.419200	-10.268000	25.683331	0.000674	20.950472
1733.498375	-2.995000	3.419300	-10.240000	25.684525	0.000674	20.957360
1734.502299	-3.006600	3.419500	-10.280000	25.704177	0.000672	20.957184
1735.498643	-2.998900	3.419200	-10.253000	25.704103	0.000672	20.956161
1736.498075	-3.019900	3.419700	-10.326000	25.709694	0.000673	20.930486
1737.499622	-3.002000	3.418200	-10.261000	25.710786	0.000670	20.954814
1738.496858	-2.985600	3.420000	-10.210000	25.707906	0.000670	20.948602
1739.498590	-3.003200	3.417900	-10.263000	25.690487	0.000669	20.943910
1740.499347	-3.011600	3.416200	-10.287000	25.666684	0.000669	20.941813
1741.501840	-2.998800	3.417100	-10.246000	25.657167	0.000668	20.951220
1742.500854	-3.023800	3.417100	-10.332000	25.674139	0.000669	20.936025
1743.515930	-3.010700	3.416500	-10.284000	25.686064	0.000668	20.942312
1744.504053	-3.010500	3.416000	-10.283000	25.686388	0.000667	20.935052
1745.497240	-3.011800	3.415300	-10.285000	25.709915	0.000667	20.945879
1746.504199	-3.036000	3.413800	-10.364000	25.728700	0.000667	20.937247
1747.501254	-3.007800	3.413100	-10.265000	25.725171	0.000666	20.943185
1748.503312	-2.985000	3.416200	-10.194000	25.713492	0.000667	20.931930
1749.510160	-3.008500	3.413400	-10.268000	25.707975	0.000664	20.924967
1750.504450	-3.006800	3.413400	-10.262000	25.639049	0.000663	20.928284
1751.505678	-3.002500	3.413400	-10.246000	25.658655	0.000663	20.920949
1752.505496	-2.994000	3.413200	-10.217000	25.688097	0.000664	20.917804
1753.510316	-3.009500	3.412500	-10.269000	25.680891	0.000664	20.940909
1754.506818	-3.007600	3.412900	-10.264000	25.664840	0.000662	20.918153
1755.512955	-2.995500	3.412400	-10.221000	25.621305	0.000662	20.946023
1756.505865	-3.012000	3.411200	-10.273000	25.583784	0.000661	20.935367
1757.507572	-3.013300	3.412200	-10.280000	25.604431	0.000663	20.914854
1758.511012	-3.007300	3.409700	-10.253000	25.607039	0.000661	20.899931
1759.506315	-3.019800	3.408800	-10.293000	25.584650	0.000659	20.912057
1760.509001	-2.995400	3.408900	-10.210000	25.552741	0.000659	20.905617
1761.509495	-3.010900	3.410300	-10.267000	25.500854	0.000659	20.926528
1762.508886	-3.001000	3.409600	-10.231000	25.488029	0.000659	20.906064
1763.505571	-3.004200	3.410200	-10.244000	25.442549	0.000658	20.905438
1764.511867	-3.002100	3.410500	-10.238000	25.463225	0.000657	20.928095
1765.510076	-3.015500	3.407900	-10.275000	25.485763	0.000658	20.901892
1766.509179	-3.000500	3.407700	-10.224000	25.537226	0.000656	20.905683
1767.514273	-2.994100	3.409200	-10.207000	25.556657	0.000656	20.909550
1768.508911	-2.992500	3.407600	-10.197000	25.575740	0.000657	20.918756
1769.513296	-2.994600	3.406800	-10.201000	25.632840	0.000656	20.886964
1770.514100	-3.012900	3.406800	-10.263000	25.681064	0.000655	20.891303
1771.512645	-2.981700	3.408400	-10.161000	25.700865	0.000654	20.895543
1772.511217	-3.012400	3.407400	-10.263000	25.701783	0.000653	20.904999
1773.515961	-3.001700	3.405900	-10.222000	25.735992	0.000653	20.917073
1774.512394	-3.013200	3.405300	-10.260000	25.699419	0.000652	20.897410
1775.511090	-3.003700	3.404700	-10.225000	25.713977	0.000652	20.899229
1776.515919	-2.999000	3.405200	-10.211000	25.687787	0.000651	20.902321
1777.510453	-2.979400	3.404100	-10.141000	25.712780	0.000652	20.904665
1778.514363	-2.979600	3.403800	-10.141000	25.727909	0.000649	20.907059
1779.513332	-2.995700	3.404500	-10.197000	25.729422	0.000650	20.890088
1780.515460	-3.004900	3.406000	-10.233000	25.746811	0.000651	20.893330
1781.521689	-3.005100	3.404400	-10.229000	25.738486	0.000652	20.903932
1782.517838	-3.001800	3.403100	-10.215000	25.728298	0.000649	20.887063
1783.516510	-2.988100	3.404000	-10.171000	25.693535	0.000650	20.868742
1784.515860	-2.978100	3.404300	-10.137000	25.670898	0.000648	20.882990
1785.520561	-2.981400	3.403300	-10.145000	25.692215	0.000648	20.881167
1786.521022	-2.983800	3.402600	-10.151000	25.680063	0.000648	20.864694
1787.515460	-2.998500	3.401200	-10.197000	25.673799	0.000648	20.868835
1788.518748	-3.013000	3.400100	-10.243000	25.695911	0.000646	20.896731
1789.522327	-2.986100	3.402200	-10.157000	25.700555	0.000649	20.872948
1790.519925	-3.011500	3.400700	-10.240000	25.728231	0.000645	20.864237
1791.518492	-3.008000	3.400400	-10.227000	25.751759	0.000647	20.881705
1792.521723	-2.999200	3.401300	-10.200000	25.778887	0.000647	20.892357
1793.520198	-2.991100	3.399000	-10.165000	25.781965	0.000648	20.867950
1794.523063	-2.976000	3.400000	-10.118000	25.801741	0.000646	20.851306
1795.519780	-2.988800	3.400100	-10.162000	25.813689	0.000648	20.871368
1796.518470	-3.002400	3.399600	-10.205000	25.833464	0.000645	20.877481
1797.521546	-2.993300	3.399100	-10.174000	25.823077	0.000644	20.863729
1798.526405	-2.992800	3.397600	-10.167000	25.831226	0.000644	20.863854
1799.519872	-3.012300	3.398300	-10.236000	25.796964	0.000646	20.876378
1800.527156	-3.012500	3.396800	-10.232000	25.785314	0.000647	20.863255
1801.520874	-2.997100	3.396900	-10.180000	25.728667	0.000647	20.866098
1802.521421	-2.981600	3.398000	-10.130000	25.718629	0.000644	20.877826
1803.526661	-2.994500	3.397000	-10.171000	25.730429	0.000643	20.880195
1804.522068	-3.038000	3.396000	-10.316000	25.771273	0.000642	20.868116
1805.523535	-3.011000	3.395300	-10.222000	25.779150	0.000643	20.861804
1806.524737	-2.985700	3.396800	-10.141000	25.782928	0.000642	20.870814
1807.529604	-2.987800	3.395000	-10.142000	25.750083	0.000642	20.856315
1808.524966	-3.007100	3.394500	-10.207000	25.743077	0.000641	20.846433
1809.533072	-3.019100	3.393400	-10.244000	25.739177	0.000641	20.883766
1810.530165	-2.999700	3.395000	-10.183000	25.718157	0.000639	20.883989
1811.528266	-2.995800	3.393600	-10.166000	25.692642	0.000640	20.855044
1812.527487	-2.981900	3.392900	-10.116000	25.696543	0.000639	20.878876
1813.527713	-3.017800	3.393700	-10.240000	25.671995	0.000641	20.860859
1814.526638	-3.000100	3.391900	-10.175000	25.666205	0.000640	20.846984
1815.525860	-2.995500	3.392200	-10.159000	25.699154	0.000639	20.875809
1816.530044	-2.996700	3.391800	-10.163000	25.707948	0.000638	20.861882
1817.523138	-2.996600	3.390700	-10.160000	25.711402	0.000639	20.863929
1818.529860	-3.008800	3.391400	-10.202000	25.739577	0.000637	20.858565
1819.530728	-3.018900	3.392000	-10.239000	25.748869	0.000638	20.855096
1820.530262	-2.996400	3.391300	-10.161000	25.736025	0.000639	20.832713
1821.530510	-3.013300	3.390800	-10.217000	25.733913	0.000639	20.866625
1822.525856	-3.004100	3.389600	-10.182000	25.740821	0.000639	20.849857
1823.527488	-2.997700	3.390200	-10.162000	25.736996	0.000637	20.852179
1824.526605	-3.019900	3.389400	-10.235000	25.698114	0.000635	20.860066
1825.528443	-2.999100	3.389600	-10.164000	25.704028	0.000636	20.866480
1826.527146	-2.998600	3.390200	-10.164000	25.723110	0.000635	20.869525
1827.530602	-3.013000	3.388700	-10.208000	25.698689	0.000635	20.856376
1828.530979	-3.005100	3.388500	-10.182000	25.678612	0.000636	20.836686
1829.528027	-3.019400	3.387200	-10.226000	25.686291	0.000636	20.861942
1830.529756	-2.994500	3.386900	-10.141000	25.678663	0.000633	20.850962
1831.527285	-3.016300	3.385900	-10.212000	25.679684	0.000633	20.852935
1832.530200	-2.978900	3.388400	-10.092000	25.667858	0.000632	20.856230
1833.536439	-2.994800	3.386300	-10.141000	25.648105	0.000634	20.843504
1834.531376	-2.972600	3.387600	-10.067000	25.667983	0.000633	20.856356
1835.530965	-2.983100	3.387000	-10.103000	25.677750	0.000634	20.850993
1836.533951	-2.991700	3.384900	-10.126000	25.688534	0.000632	20.860401
1837.532920	-3.009800	3.385600	-10.189000	25.697829	0.000633	20.846030
1838.531225	-2.988700	3.385500	-10.118000	25.728613	0.000631	20.848026
1839.539103	-2.999200	3.384500	-10.150000	25.761236	0.000630	20.854242
1840.536900	-3.003600	3.386500	-10.170000	25.751027	0.000633	20.848255
1841.531152	-3.000400	3.385100	-10.156000	25.748893	0.000628	20.856068
1842.539152	-2.996000	3.385100	-10.141000	25.770460	0.000630	20.846912
1843.536421	-3.018400	3.383800	-10.213000	25.709888	0.000629	20.848659
1844.535390	-2.990300	3.384300	-10.119000	25.677514	0.000627	20.855023
1845.535496	-2.992600	3.383400	-10.124000	25.666212	0.000625	20.850310
1846.536541	-3.010100	3.381900	-10.178000	25.676598	0.000626	20.857422
1847.538411	-3.031700	3.382500	-10.253000	25.676154	0.000627	20.863139
1848.536438	-3.000700	3.382400	-10.148000	25.718493	0.000625	20.853508
1849.534817	-3.017600	3.381400	-10.202000	25.740134	0.000626	20.851538
1850.536201	-2.994000	3.382300	-10.126000	25.762695	0.000625	20.855707
1851.536984	-2.987600	3.381100	-10.100000	25.743392	0.000625	20.820198
1852.536092	-3.009500	3.381300	-10.175000	25.710847	0.000625	20.834924
1853.538672	-2.993200	3.381000	-10.119000	25.685504	0.000625	20.831281
1854.537563	-3.003200	3.381000	-10.152000	25.686749	0.000624	20.843910
1855.537346	-3.003700	3.380900	-10.154000	25.712590	0.000625	20.847580
1856.540962	-2.999400	3.379500	-10.135000	25.740543	0.000623	20.824923
1857.537831	-3.013000	3.379000	-10.180000	25.744295	0.000622	20.841493
1858.538169	-3.033800	3.378200	-10.248000	25.747403	0.000622	20.830865
1859.540032	-3.013500	3.379400	-10.183000	25.771331	0.000620	20.844942
1860.539076	-3.005600	3.378300	-10.153000	25.799803	0.000621	20.838455
1861.541635	-3.019900	3.377700	-10.199000	25.771210	0.000620	20.864260
1862.541208	-3.011200	3.377400	-10.169000	25.794961	0.000620	20.841652
1863.543207	-2.998600	3.376900	-10.124000	25.811858	0.000619	20.833495
1864.542659	-3.012500	3.377100	-10.173000	25.773028	0.000620	20.852337
1865.537855	-2.974900	3.377200	-10.045000	25.759366	0.000620	20.856156
1866.540150	-2.996700	3.377500	-10.120000	25.709205	0.000617	20.801507
1867.542202	-2.991100	3.377600	-10.102000	25.755543	0.000618	20.843308
1868.539201	-3.004600	3.376300	-10.143000	25.746601	0.000619	20.830533
1869.558202	-2.984900	3.376100	-10.076000	25.763796	0.000618	20.844485
1870.588879	-3.009000	3.374400	-10.152000	25.775002	0.000617	20.851000
1871.548878	-3.008500	3.374800	-10.152000	25.806012	0.000616	20.825251
1872.786877	-3.014900	3.374400	-10.171000	25.830480	0.000616	20.837502
1873.742878	-3.007800	3.375000	-10.150000	25.799255	0.000617	20.819413
1874.542877	-3.021600	3.374500	-10.196000	25.768500	0.000614	20.860590
1875.541624	-3.011800	3.373500	-10.159000	25.726935	0.000613	20.833065
1876.545339	-2.998600	3.375400	-10.120000	25.749994	0.000612	20.841054
1877.558759	-2.985800	3.372000	-10.067000	25.709821	0.000612	20.840057
1878.543706	-3.014600	3.372900	-10.168000	25.714493	0.000610	20.836690
1879.542760	-2.991200	3.373700	-10.090000	25.733999	0.000610	20.850118
1880.546900	-3.001500	3.371300	-10.118000	25.746969	0.000609	20.826162
1881.544048	-3.014400	3.371400	-10.162000	25.799467	0.000607	20.838118
1882.546747	-2.987700	3.371900	-10.073000	25.816063	0.000608	20.834400
1883.553876	-3.008600	3.371200	-10.142000	25.834894	0.000607	20.830556
1884.547415	-3.018700	3.371200	-10.175000	25.869452	0.000606	20.822598
1885.545012	-3.005500	3.370300	-10.128000	25.888184	0.000606	20.843312
1886.545280	-3.001000	3.371100	-10.115000	25.894792	0.000605	20.844260
1887.544434	-3.011600	3.369900	-10.148000	25.825085	0.000603	20.831609
1888.548085	-3.005400	3.370900	-10.130000	25.808067	0.000605	20.834902
1889.544199	-3.024200	3.368300	-10.185000	25.815050	0.000604	20.838597
1890.551016	-3.012300	3.368500	-10.145000	25.809113	0.000604	20.839272
1891.545166	-2.981500	3.370800	-10.049000	25.826854	0.000604	20.843342
1892.546559	-3.015200	3.369000	-10.156000	25.844092	0.000603	20.830313
1893.553077	-3.012300	3.366800	-10.141000	25.818981	0.000603	20.816468
1894.546729	-2.998700	3.368700	-10.100000	25.810905	0.000600	20.838701
1895.550227	-3.025900	3.367000	-10.187000	25.814111	0.000600	20.836232
1896.559954	-2.976800	3.368000	-10.025000	25.807008	0.000599	20.831942
1897.547084	-2.985400	3.368300	-10.055000	25.746166	0.000599	20.826778
1898.547072	-3.019600	3.366000	-10.163000	25.718837	0.000600	20.817345
1899.553497	-3.004600	3.365700	-10.112000	25.768677	0.000599	20.834690
1900.550155	-3.001500	3.365500	-10.101000	25.756829	0.000599	20.830850
1901.553346	-2.992600	3.366800	-10.075000	25.731711	0.000598	20.832647
1902.546856	-2.977300	3.366100	-10.021000	25.713028	0.000598	20.830002
1903.545783	-2.988000	3.366300	-10.057000	25.699338	0.000597	20.819571
1904.546445	-2.984100	3.364400	-10.039000	25.692335	0.000596	20.818702
1905.550828	-3.003800	3.364800	-10.105000	25.703763	0.000596	20.820697
1906.546062	-3.013800	3.364600	-10.139000	25.716461	0.000594	20.839614
1907.546195	-3.005800	3.364300	-10.111000	25.749083	0.000595	20.830181
1908.546879	-3.002300	3.364400	-10.101000	25.746724	0.000597	20.832080
1909.547309	-3.024200	3.361900	-10.165000	25.756415	0.000596	20.821899
1910.547191	-2.995100	3.363600	-10.074000	25.779643	0.000593	20.832429
1911.549659	-2.988600	3.364200	-10.053000	25.768663	0.000594	20.827564
1912.547244	-2.987100	3.362400	-10.043000	25.774103	0.000592	20.802683
1913.545883	-2.995700	3.361500	-10.069000	25.739918	0.000592	20.829511
1914.545788	-2.993400	3.362600	-10.065000	25.736715	0.000589	20.826294
1915.548707	-2.999300	3.361800	-10.083000	25.721607	0.000592	20.841464
1916.551107	-2.996800	3.361700	-10.074000	25.710652	0.000591	20.820978
1917.546798	-2.992900	3.361700	-10.060000	25.699495	0.000589	20.816884
1918.551082	-3.022500	3.359600	-10.153000	25.687321	0.000588	20.827415
1919.549464	-3.006700	3.360200	-10.103000	25.705482	0.000588	20.818156
1920.547906	-2.996300	3.359900	-10.067000	25.714699	0.000588	20.829784
1921.548322	-2.987200	3.359600	-10.034000	25.748265	0.000587	20.818929
1922.550647	-3.006100	3.358500	-10.096000	25.787495	0.000585	20.822298
1923.549820	-2.993500	3.360400	-10.059000	25.832360	0.000587	20.813787
1924.563992	-2.993700	3.359900	-10.057000	25.843241	0.000585	20.802432
1925.551155	-3.027800	3.357100	-10.163000	25.829054	0.000583	20.818052
1926.556522	-3.038300	3.357000	-10.198000	25.833502	0.000584	20.810192
1927.551699	-3.025900	3.356900	-10.156000	25.806146	0.000584	20.818274
1928.560530	-3.006900	3.357000	-10.093000	25.778793	0.000583	20.821144
1929.555124	-3.025300	3.355600	-10.151000	25.746393	0.000583	20.799979
1930.553118	-3.008500	3.357400	-10.100000	25.768280	0.000582	20.808687
1931.555207	-2.975600	3.356500	-9.987300	25.796005	0.000580	20.814252
1932.553439	-2.997400	3.356500	-10.060000	25.835306	0.000581	20.832392
1933.571399	-2.980700	3.356400	-10.003000	25.846732	0.000584	20.788869
1934.556173	-2.968000	3.357100	-9.962700	25.830311	0.000581	20.815048
1935.562907	-3.000500	3.356300	-10.068000	25.843650	0.000580	20.797153
1936.557321	-2.989900	3.355100	-10.031000	25.883247	0.000580	20.798998
1937.558634	-2.982900	3.356100	-10.010000	25.830331	0.000580	20.812222
1938.563883	-2.974400	3.355500	-9.979400	25.816519	0.000578	20.789340
1939.560866	-3.009100	3.355300	-10.094000	25.816542	0.000579	20.789363
1940.560350	-2.993100	3.355600	-10.042000	25.818457	0.000580	20.820684
1941.561919	-3.005100	3.355000	-10.080000	25.840043	0.000577	20.816763
1942.559563	-2.998200	3.355200	-10.059000	25.832142	0.000578	20.786067
1943.560179	-2.993200	3.353200	-10.036000	25.789535	0.000575	20.817236
1944.564989	-3.005400	3.352100	-10.073000	25.810554	0.000577	20.830762
1945.564516	-3.007800	3.353100	-10.084000	25.813806	0.000574	20.793253
1946.561051	-3.022800	3.350200	-10.125000	25.842028	0.000575	20.803110
1947.567106	-3.023200	3.351300	-10.131000	25.870050	0.000575	20.799018
1948.565690	-2.992900	3.353300	-10.035000	25.893351	0.000574	20.815786
1949.565806	-3.011600	3.349900	-10.087000	25.903660	0.000576	20.790581
1950.572956	-2.999000	3.350400	-10.047000	25.913546	0.000574	20.806203
1951.566849	-2.989800	3.350900	-10.018000	25.930066	0.000573	20.806203
1952.564670	-3.003600	3.351100	-10.064000	25.949589	0.000571	20.804480
1953.572528	-2.990100	3.350300	-10.017000	25.969087	0.000572	20.803680
1954.574055	-3.037900	3.348600	-10.172000	25.982649	0.000573	20.805452
1955.568774	-2.984500	3.348600	-9.993000	26.006841	0.000571	20.802730
1956.578805	-2.995500	3.350300	-10.034000	26.007787	0.000570	20.806051
1957.567167	-3.004300	3.349700	-10.061000	25.992535	0.000570	20.801159
1958.568011	-3.015300	3.348800	-10.097000	26.008007	0.000570	20.807221
1959.569963	-2.998000	3.348900	-10.039000	26.015087	0.000569	20.789678
1960.568428	-3.002700	3.347100	-10.049000	25.967942	0.000570	20.793995
1961.571470	-2.984300	3.349100	-9.994200	25.986893	0.000570	20.817302
1962.584036	-3.016000	3.348000	-10.096000	25.961630	0.000567	20.795715
1963.570661	-3.005100	3.347900	-10.060000	25.934329	0.000569	20.789150
1964.572408	-2.988900	3.347800	-10.005000	25.934477	0.000565	20.816799
1965.573217	-2.998600	3.346500	-10.034000	25.873194	0.000570	20.811184
1966.571771	-2.973800	3.346600	-9.950600	25.842337	0.000567	20.797257
1967.575928	-2.997100	3.345000	-10.024000	25.830760	0.000567	20.801274
1968.575076	-2.986400	3.345700	-9.990000	25.861141	0.000566	20.807137
1969.577037	-2.998800	3.345200	-10.030000	25.850955	0.000568	20.809232
1970.575679	-2.986800	3.344600	-9.988200	25.873363	0.000565	20.805665
1971.574698	-3.009200	3.343700	-10.061000	25.859649	0.000565	20.805638
1972.572256	-2.993200	3.344000	-10.008000	25.888713	0.000565	20.824877
1973.573571	-2.980500	3.344100	-9.965500	25.872216	0.000565	20.813047
1974.576562	-3.008900	3.342800	-10.057000	25.890325	0.000566	20.808953
1975.578413	-3.012000	3.343500	-10.070000	25.882996	0.000562	20.839522
1976.576816	-2.982000	3.344200	-9.971600	25.930716	0.000563	20.806856
1977.577933	-2.996700	3.342800	-10.016000	25.936627	0.000562	20.819433
1978.576344	-2.979700	3.343600	-9.960300	25.961317	0.000562	20.821478
1979.577105	-3.009000	3.341500	-10.054000	25.948772	0.000562	20.796547
1980.583711	-2.983800	3.341700	-9.970000	25.907860	0.000562	20.809973
1981.582323	-3.010700	3.342600	-10.063000	25.865653	0.000562	20.798393
1982.581230	-3.001700	3.341200	-10.028000	25.886072	0.000561	20.782870
1983.579169	-3.009000	3.341000	-10.051000	25.906914	0.000558	20.816135
1984.580760	-2.983100	3.341500	-9.966900	25.948348	0.000558	20.818880
1985.582892	-2.982100	3.340800	-9.960400	25.989011	0.000560	20.802360
1986.582414	-3.001800	3.340200	-10.025000	26.003612	0.000560	20.819875
1987.582594	-2.998600	3.338600	-10.010000	26.013448	0.000558	20.810791
1988.581746	-2.987700	3.339400	-9.974900	25.998546	0.000561	20.808147
1989.581375	-3.020900	3.338700	-10.085000	25.988809	0.000558	20.806899
1990.585023	-3.014300	3.338100	-10.061000	25.986947	0.000556	20.790329
1991.582022	-3.011300	3.338600	-10.052000	25.974254	0.000557	20.794647
1992.583146	-3.005100	3.338300	-10.031000	25.987641	0.000556	20.817105
1993.581928	-3.005900	3.338600	-10.033000	25.981406	0.000558	20.829807
1994.583704	-2.990300	3.338500	-9.980200	25.986402	0.000555	20.799739
1995.587369	-3.004800	3.337200	-10.027000	26.021548	0.000553	20.806127
1996.588785	-3.020300	3.336800	-10.077000	26.041419	0.000555	20.811392
1997.585067	-2.999900	3.337400	-10.011000	26.061191	0.000553	20.811344
1998.586232	-2.996800	3.336400	-9.997600	26.088462	0.000556	20.802709
1999.584853	-3.021000	3.335000	-10.074000	26.063702	0.000553	20.815763
2000.585243	-3.011300	3.335800	-10.044000	26.030343	0.000556	20.807377
2001.586714	-3.014700	3.335300	-10.054000	26.044850	0.000556	20.803460
2002.586581	-3.018900	3.335300	-10.067000	26.043361	0.000554	20.813818
2003.589187	-3.026000	3.334100	-10.088000	26.042020	0.000554	20.825747
2004.594791	-2.980500	3.335700	-9.941100	26.045424	0.000552	20.827270
2005.591660	-2.996000	3.334500	-9.988100	26.048606	0.000552	20.803915
2006.585295	-2.973000	3.336300	-9.916700	26.071632	0.000553	20.804291
2007.587116	-3.005900	3.334000	-10.021000	26.082760	0.000552	20.824006
2008.590023	-3.019300	3.332400	-10.061000	26.090387	0.000551	20.827402
2009.586287	-3.001300	3.332300	-9.998700	26.092599	0.000553	20.819193
2010.589604	-3.004400	3.333800	-10.015000	26.058324	0.000550	20.839756
2011.591179	-3.014200	3.332600	-10.044000	26.033736	0.000550	20.831648
2012.587342	-3.010000	3.331300	-10.026000	26.031501	0.000548	20.808066
2013.591656	-3.002700	3.332400	-10.005000	26.042311	0.000547	20.807073
2014.587627	-3.020200	3.329400	-10.054000	26.064541	0.000548	20.826563
2015.588844	-2.996400	3.332600	-9.985100	26.081754	0.000546	20.828685
2016.594348	-2.989100	3.330200	-9.953600	26.087568	0.000545	20.820777
2017.590847	-3.013300	3.330900	-10.035000	26.110718	0.000544	20.822700
2018.591496	-2.981600	3.330500	-9.928600	26.118692	0.000544	20.830238
2019.594975	-3.001600	3.331000	-9.996200	26.123932	0.000543	20.829814
2020.598203	-2.994300	3.330500	-9.971600	26.093904	0.000542	20.831410
2021.597585	-3.016400	3.329400	-10.041000	26.059234	0.000544	20.823602
2022.598295	-3.002000	3.328400	-9.990700	26.050342	0.000543	20.839324
2023.591988	-3.012000	3.327700	-10.022000	26.014750	0.000541	20.829168
2024.594635	-2.988100	3.328800	-9.945900	25.968300	0.000542	20.814743
2025.623667	-3.032400	3.325300	-10.082000	25.964302	0.000540	20.834908
2026.622838	-3.021000	3.326200	-10.047000	25.983128	0.000540	20.855244
2027.622005	-3.002600	3.328200	-9.992800	25.969741	0.000539	20.834682
2028.632479	-3.017500	3.325900	-10.035000	25.960551	0.000539	20.822605
2029.624358	-3.003100	3.326500	-9.989000	25.953297	0.000538	20.840447
2030.628999	-2.990800	3.326200	-9.946600	25.987353	0.000539	20.847160
2031.632132	-2.984600	3.326400	-9.927100	26.021208	0.000540	20.835656
2032.629310	-3.007400	3.325300	-9.997900	26.071009	0.000540	20.825949
2033.625465	-3.004600	3.325200	-9.990000	26.092243	0.000536	20.843017
2034.626500	-3.009700	3.324100	-10.004000	26.104934	0.000537	20.837277
2035.623225	-3.002200	3.324300	-9.978800	26.130466	0.000534	20.853447
2036.622928	-3.005300	3.325000	-9.991100	26.168216	0.000535	20.839223
2037.629498	-3.005100	3.323300	-9.985700	26.187610	0.000536	20.832160
2038.625155	-3.001200	3.324900	-9.976700	26.185897	0.000535	20.834232
2039.626670	-2.990700	3.324200	-9.941800	26.171245	0.000534	20.830888
2040.631027	-3.029400	3.323000	-10.065000	26.160068	0.000534	20.854743
2041.628391	-2.990900	3.321400	-9.932900	26.175068	0.000533	20.841367
2042.635115	-2.985800	3.323700	-9.922200	26.163048	0.000531	20.852048
2043.627045	-3.016900	3.320000	-10.015000	26.146405	0.000530	20.868040
2044.629003	-2.996400	3.321000	-9.950600	26.140272	0.000532	20.849551
2045.634511	-2.994800	3.320600	-9.943300	26.107959	0.000531	20.836998
2046.640699	-3.007500	3.320100	-9.983800	26.074403	0.000531	20.836472
2047.641474	-2.990800	3.321100	-9.932000	26.059998	0.000529	20.839068
2048.648818	-2.978900	3.320300	-9.889800	26.065137	0.000530	20.838067
2049.631360	-3.027200	3.319800	-10.048000	26.062505	0.000528	20.849173
2050.639183	-2.996000	3.321100	-9.949000	26.111209	0.000530	20.845004
2051.630602	-3.007600	3.318100	-9.977800	26.116872	0.000528	20.842634
2052.632835	-3.012400	3.320300	-10.000000	26.139595	0.000528	20.867362
2053.635942	-3.013900	3.318200	-9.999500	26.144537	0.000528	20.852413
2054.638677	-3.004900	3.318800	-9.969900	26.143292	0.000527	20.852111
2055.636960	-2.983600	3.318200	-9.898900	26.161549	0.000526	20.847697
2056.636807	-3.017500	3.316900	-10.007000	26.155336	0.000525	20.849515
2057.646327	-3.020800	3.316200	-10.016000	26.141007	0.000526	20.855031
2058.647657	-3.020600	3.316400	-10.017000	26.104075	0.000525	20.833095
2059.650132	-2.991900	3.316600	-9.922200	26.103951	0.000524	20.873271
2060.633231	-3.008100	3.316100	-9.973300	26.105837	0.000523	20.841977
2061.636152	-2.976900	3.317000	-9.873700	26.143910	0.000521	20.840878
2062.634221	-2.995000	3.315500	-9.928600	26.157968	0.000522	20.839832
2063.639224	-2.977500	3.315600	-9.871400	26.182429	0.000521	20.865832
2064.645059	-3.008900	3.315800	-9.975500	26.212428	0.000520	20.866106
2065.644958	-2.995000	3.313800	-9.924400	26.227203	0.000519	20.849185
2066.644271	-2.999700	3.314100	-9.940800	26.215084	0.000517	20.871146
2067.641435	-3.014300	3.314000	-9.988800	26.187021	0.000516	20.864282
2068.641745	-2.998200	3.313400	-9.933600	26.181930	0.000518	20.875288
2069.646191	-2.995200	3.314300	-9.926700	26.185083	0.000515	20.867551
2070.643446	-3.010400	3.312000	-9.969700	26.167274	0.000517	20.871940
2071.641134	-2.997600	3.313100	-9.929900	26.164519	0.000515	20.861112
2072.642107	-3.004600	3.313800	-9.954500	26.143557	0.000514	20.862334
2073.643064	-3.006500	3.312200	-9.957600	26.120009	0.000514	20.850053
2074.646613	-2.986400	3.312800	-9.892600	26.140400	0.000514	20.875282
2075.648266	-3.014700	3.311200	-9.982100	26.174448	0.000512	20.851649
2076.648516	-2.993600	3.311300	-9.911200	26.200350	0.000512	20.859185
2077.643662	-3.012700	3.310700	-9.973600	26.199058	0.000512	20.851249
2078.649674	-3.002600	3.311000	-9.940900	26.214107	0.000511	20.854517
2079.647707	-3.009400	3.310300	-9.960600	26.193716	0.000511	20.865794
2080.644680	-2.999700	3.309900	-9.927900	26.154354	0.000512	20.867018
2081.649179	-3.006000	3.309500	-9.947000	26.140618	0.000509	20.880242
2082.645579	-3.009200	3.309600	-9.957900	26.129463	0.000509	20.847225
2083.646832	-2.990400	3.308100	-9.892300	26.138105	0.000507	20.859227
2084.644334	-3.010500	3.308400	-9.959100	26.136887	0.000507	20.852787
2085.648286	-2.993700	3.309300	-9.905600	26.145231	0.000506	20.865913
2086.662082	-2.992500	3.307500	-9.896400	26.158043	0.000506	20.863140
2087.648609	-3.014400	3.308300	-9.971900	26.183275	0.000508	20.855303
2088.646765	-3.004400	3.307700	-9.937200	26.182379	0.000506	20.865308
2089.650747	-2.991800	3.306700	-9.891600	26.211310	0.000505	20.864983
2090.650079	-2.994700	3.307500	-9.902800	26.231299	0.000505	20.867051
2091.649825	-2.980300	3.308300	-9.859000	26.272968	0.000503	20.872889
2092.651231	-3.002100	3.306100	-9.924900	26.318036	0.000505	20.860809
2093.657469	-2.986200	3.306300	-9.872000	26.340830	0.000503	20.859535
2094.652445	-2.979600	3.306200	-9.848800	26.354957	0.000504	20.872784
2095.655906	-3.004600	3.305100	-9.929500	26.418893	0.000505	20.879196
2096.661427	-2.983100	3.305800	-9.859300	26.419785	0.000500	20.884360
2097.651238	-2.989000	3.304000	-9.874200	26.440341	0.000502	20.853814
2098.654890	-3.000400	3.304700	-9.913800	26.442748	0.000500	20.862871
2099.653036	-3.010700	3.304200	-9.946700	26.425838	0.000500	20.870056
2100.654687	-2.980300	3.303800	-9.845700	26.429561	0.000500	20.881383
2101.666000	-2.983200	3.303700	-9.854000	26.434252	0.000501	20.843426
2102.662136	-3.000400	3.302800	-9.908000	26.423847	0.000499	20.878011
2103.667463	-2.999200	3.302300	-9.902700	26.430822	0.000499	20.846143
2104.657992	-3.016700	3.301700	-9.959400	26.394967	0.000498	20.852779
2105.659997	-2.980000	3.303500	-9.843500	26.402141	0.000497	20.874687
2106.653937	-3.002200	3.301600	-9.911400	26.365391	0.000496	20.865727
2107.660051	-3.013200	3.300200	-9.943400	26.322681	0.000494	20.863580
2108.662963	-3.009800	3.300100	-9.932200	26.316743	0.000495	20.859036
2109.655147	-2.994500	3.300600	-9.881500	26.309367	0.000495	20.883390
2110.662778	-3.008000	3.299600	-9.923400	26.338368	0.000493	20.875552
2111.656731	-2.981400	3.300400	-9.837800	26.345345	0.000494	20.871659
2112.662031	-3.001900	3.298900	-9.901100	26.335212	0.000494	20.879966
2113.660797	-2.988300	3.299500	-9.859100	26.313832	0.000491	20.877920
2114.660762	-3.007300	3.298000	-9.916700	26.267616	0.000491	20.871778
2115.664586	-2.995800	3.297000	-9.876400	26.242806	0.000492	20.892364
2116.663480	-2.975000	3.298600	-9.812500	26.225048	0.000491	20.864563
2117.663210	-3.002300	3.297800	-9.899300	26.210098	0.000490	20.877514
2118.660400	-2.998400	3.298200	-9.887900	26.218688	0.000490	20.892309
2119.663923	-3.004500	3.296400	-9.902900	26.242377	0.000489	20.881027
2120.660388	-2.997200	3.296800	-9.879300	26.262019	0.000488	20.870421
2121.668342	-2.992100	3.297000	-9.863900	26.327277	0.000487	20.884794
2122.662155	-3.020500	3.295600	-9.952400	26.331447	0.000488	20.879027
2123.663875	-3.027000	3.294800	-9.971500	26.315527	0.000487	20.886261
2124.660718	-3.017000	3.294800	-9.939900	26.309095	0.000485	20.871737
2125.664647	-3.004400	3.294700	-9.897500	26.312644	0.000486	20.889527
2126.663980	-2.991400	3.295300	-9.856300	26.285177	0.000486	20.889425
2127.664993	-2.991600	3.293600	-9.852400	26.271171	0.000484	20.876299
2128.669040	-2.983700	3.294900	-9.830000	26.283535	0.000485	20.890145
2129.664688	-2.982800	3.294700	-9.826500	26.303897	0.000484	20.885005
2130.667440	-2.990100	3.292800	-9.844800	26.302231	0.000485	20.905614
2131.665420	-2.997500	3.292900	-9.869900	26.315291	0.000482	20.880809
2132.667981	-2.990900	3.292600	-9.846400	26.343250	0.000483	20.889940
2133.666776	-2.998600	3.292800	-9.872500	26.353330	0.000480	20.892959
2134.666592	-2.998800	3.291400	-9.868600	26.357773	0.000481	20.892682
2135.671939	-2.998700	3.291300	-9.869000	26.343742	0.000481	20.889961
2136.667781	-2.997400	3.292000	-9.866200	26.373041	0.000480	20.870097
2137.672184	-3.029000	3.290700	-9.966300	26.390693	0.000479	20.904430
2138.675495	-3.008300	3.290900	-9.899100	26.422102	0.000479	20.899963
2139.677704	-2.989700	3.291000	-9.838600	26.436054	0.000478	20.924415
2140.669088	-3.021000	3.290000	-9.938700	26.481539	0.000476	20.898538
2141.675679	-3.022100	3.288300	-9.936400	26.504627	0.000475	20.903727
2142.679599	-2.990700	3.290000	-9.838400	26.501794	0.000474	20.902775
2143.672401	-3.006600	3.289300	-9.888100	26.542982	0.000475	20.877798
2144.672876	-2.991300	3.288100	-9.834500	26.559935	0.000474	20.904794
2145.672499	-3.018800	3.288900	-9.927200	26.540669	0.000474	20.911505
2146.677810	-2.985600	3.288900	-9.818900	26.553055	0.000475	20.897404
2147.675586	-2.986400	3.289300	-9.822000	26.571401	0.000473	20.905414
2148.672615	-3.002600	3.287100	-9.869400	26.587263	0.000472	20.911875
2149.677513	-3.015800	3.286400	-9.908900	26.604639	0.000470	20.898524
2150.679388	-2.991600	3.287900	-9.835100	26.592300	0.000470	20.906034
2151.672118	-2.998200	3.286900	-9.854700	26.554414	0.000471	20.912994
2152.673055	-3.012300	3.284700	-9.892600	26.580580	0.000469	20.908003
2153.678688	-3.007500	3.284000	-9.876000	26.588745	0.000471	20.890134
2154.676099	-2.992000	3.283900	-9.823200	26.594281	0.000468	20.891905
2155.674553	-2.972100	3.285800	-9.764100	26.611307	0.000468	20.906175
2156.676260	-2.986200	3.284300	-9.806100	26.606791	0.000468	20.903532
2157.674760	-3.007900	3.282900	-9.873600	26.603511	0.000465	20.913036
2158.674088	-3.001900	3.284300	-9.858200	26.600828	0.000464	20.910813
2159.674937	-3.017100	3.282800	-9.903800	26.578609	0.000465	20.924038
2160.680253	-3.012400	3.283400	-9.889300	26.529478	0.000466	20.902628
2161.683468	-3.014500	3.282000	-9.892200	26.515897	0.000464	20.904149
2162.674006	-3.024200	3.283300	-9.927600	26.474904	0.000462	20.910834
2163.675303	-3.010000	3.282700	-9.880000	26.463333	0.000462	20.930496
2164.679055	-2.997500	3.282300	-9.837000	26.505814	0.000462	20.913927
2165.681098	-3.001700	3.280600	-9.846200	26.495285	0.000461	20.927525
2166.681947	-3.003200	3.281400	-9.854000	26.539326	0.000461	20.905415
2167.681641	-2.992500	3.281100	-9.817100	26.508788	0.000462	20.923080
2168.679576	-3.018400	3.279600	-9.898000	26.546523	0.000460	20.895107
2169.675112	-2.999400	3.279900	-9.836100	26.584332	0.000460	20.931686
2170.675887	-3.019900	3.280000	-9.904400	26.594211	0.000459	20.921704
2171.678264	-3.014600	3.279800	-9.885700	26.617471	0.000457	20.918534
2172.679303	-3.008600	3.278900	-9.863800	26.640979	0.000458	20.913243
2173.674547	-2.998400	3.278900	-9.830400	26.621938	0.000457	20.912593
2174.681345	-2.996200	3.278300	-9.821800	26.580278	0.000455	20.929034
2175.682596	-3.030800	3.276900	-9.930700	26.553689	0.000455	20.921274
2176.679291	-3.006800	3.277800	-9.853300	26.523251	0.000454	20.932876
2177.680377	-2.984000	3.278300	-9.780900	26.494650	0.000455	20.912189
2178.678401	-2.998900	3.276700	-9.825900	26.440126	0.000456	20.920448
2179.684659	-3.005500	3.275700	-9.844900	26.413011	0.000455	20.920695
2180.681806	-2.995900	3.276900	-9.816400	26.386145	0.000452	20.910290
2181.681594	-3.009100	3.276400	-9.857600	26.352374	0.000453	20.917599
2182.678675	-2.989200	3.275500	-9.790200	26.353441	0.000454	20.913456
2183.683768	-3.002800	3.276400	-9.837100	26.348696	0.000451	20.918171
2184.688231	-2.992900	3.275400	-9.802000	26.308370	0.000451	20.904671
2185.687271	-2.999900	3.274800	-9.822100	26.279663	0.000450	20.921338
2186.683040	-3.029200	3.273200	-9.913800	26.258604	0.000449	20.905393
2187.681207	-3.015400	3.274500	-9.872700	26.257684	0.000450	20.907313
2188.682580	-3.019700	3.272500	-9.880000	26.233372	0.000446	20.899952
2189.679092	-3.010500	3.272600	-9.849700	26.254280	0.000447	20.902945
2190.682064	-3.002200	3.272600	-9.823700	26.317030	0.000449	20.908633
2191.682228	-3.035900	3.271500	-9.930700	26.378486	0.000446	20.902119
2192.683212	-3.020300	3.272100	-9.881700	26.424618	0.000445	20.892061
2193.681285	-3.006800	3.271400	-9.835300	26.466454	0.000446	20.891911
2194.685805	-2.992300	3.272300	-9.790700	26.471766	0.000446	20.926171
2195.684350	-3.006500	3.270900	-9.832800	26.498604	0.000443	20.900992
2196.684374	-2.987500	3.271900	-9.774100	26.503420	0.000443	20.923374
2197.687893	-2.988100	3.272200	-9.777500	26.480156	0.000445	20.892407
2198.686282	-2.994300	3.269400	-9.788300	26.439089	0.000441	20.900916
2199.688978	-2.997300	3.270300	-9.800300	26.446661	0.000441	20.895250
2200.687575	-3.005700	3.269900	-9.826900	26.458527	0.000441	20.877781
2201.692677	-3.005800	3.269700	-9.826800	26.508977	0.000442	20.899565
2202.684523	-3.056500	3.268400	-9.987900	26.557141	0.000441	20.895348
2203.688857	-3.002200	3.269300	-9.814300	26.628885	0.000441	20.888285
2204.689110	-2.983100	3.268900	-9.749700	26.630350	0.000438	20.897817
2205.692868	-3.016900	3.268200	-9.858400	26.642810	0.000439	20.891852
2206.691823	-2.994600	3.268300	-9.785200	26.633277	0.000439	20.882743
2207.695362	-3.000200	3.268000	-9.803600	26.629627	0.000440	20.865799
2208.687981	-2.979900	3.267400	-9.735100	26.630594	0.000437	20.872460
2209.691919	-2.966600	3.266600	-9.689600	26.628309	0.000436	20.875379
2210.690074	-2.999100	3.265600	-9.793300	26.616667	0.000437	20.893546
2211.687837	-3.001300	3.265300	-9.799200	26.599313	0.000436	20.896015
2212.692054	-2.999200	3.265400	-9.792600	26.564706	0.000434	20.881617
2213.695668	-3.017200	3.262500	-9.842300	26.560682	0.000435	20.897011
2214.690086	-2.973500	3.265900	-9.710200	26.561476	0.000433	20.874103
2215.693998	-2.999800	3.264600	-9.791700	26.588312	0.000433	20.883060
2216.691450	-2.991500	3.264700	-9.765500	26.606782	0.000432	20.877446
2217.694252	-3.011700	3.263500	-9.827500	26.666509	0.000433	20.890546
2218.692107	-3.000100	3.262500	-9.787400	26.713101	0.000431	20.892817
2219.692939	-2.977800	3.262600	-9.713900	26.726430	0.000429	20.891518
2220.696030	-3.006400	3.263200	-9.809100	26.762123	0.000431	20.886627
2221.692434	-3.003000	3.262500	-9.796400	26.802555	0.000431	20.861372
2222.698290	-3.028700	3.260400	-9.873600	26.795108	0.000430	20.888496
2223.695569	-3.034400	3.259300	-9.889100	26.757454	0.000430	20.869605
2224.691387	-3.023800	3.259600	-9.855400	26.735585	0.000429	20.884602
2225.692721	-2.997300	3.259900	-9.768900	26.732309	0.000427	20.857602
2226.690490	-3.001700	3.260000	-9.784800	26.758794	0.000427	20.879487
2227.689237	-2.986700	3.259800	-9.734800	26.730794	0.000428	20.871252
2228.691935	-3.004100	3.257900	-9.786400	26.722354	0.000425	20.864663
2229.694334	-2.988100	3.260200	-9.740800	26.717812	0.000426	20.855830
2230.691943	-3.020800	3.258600	-9.843100	26.702793	0.000424	20.864912
2231.690875	-2.961900	3.259200	-9.652900	26.676654	0.000423	20.876565
2232.694531	-3.017700	3.256200	-9.824700	26.701477	0.000424	20.874493
2233.694272	-2.985900	3.257500	-9.725300	26.714061	0.000422	20.862016
2234.698140	-3.020300	3.254900	-9.829100	26.641304	0.000424	20.889864
2235.700003	-2.999600	3.256600	-9.767800	26.639963	0.000419	20.869077
2236.696822	-3.025400	3.255600	-9.847800	26.571247	0.000419	20.856900
2237.694885	-2.984800	3.255000	-9.714300	26.524275	0.000420	20.858047
2238.697387	-3.031300	3.254100	-9.861600	26.500192	0.000417	20.867977
2239.704116	-3.011300	3.255000	-9.799700	26.483359	0.000416	20.859593
2240.702831	-3.005700	3.255300	-9.783200	26.470250	0.000416	20.862538
2241.706510	-3.015200	3.254100	-9.810200	26.467816	0.000417	20.860565
2242.695181	-3.000800	3.253300	-9.760300	26.522883	0.000415	20.882250
2243.695302	-2.978500	3.253400	-9.688400	26.581522	0.000416	20.861538
2244.709347	-3.013600	3.253700	-9.803200	26.594134	0.000413	20.869948
2245.710731	-2.990000	3.253400	-9.726900	26.679802	0.000413	20.851282
2246.706920	-2.985600	3.253900	-9.714100	26.706586	0.000413	20.870147
2247.704317	-2.996100	3.251700	-9.739900	26.741783	0.000413	20.864756
2248.704439	-2.991300	3.250600	-9.722200	26.757446	0.000411	20.848262
2249.703687	-2.988400	3.250300	-9.712100	26.749006	0.000410	20.839776
2250.700567	-2.991000	3.251500	-9.723900	26.746573	0.000410	20.878580
2251.696876	-2.997300	3.250500	-9.740900	26.752752	0.000408	20.856345
2252.699290	-3.004500	3.248800	-9.760200	26.756871	0.000409	20.876132
2253.702834	-3.015100	3.250300	-9.798900	26.762406	0.000409	20.859413
2254.702850	-3.024800	3.247300	-9.821100	26.767295	0.000409	20.848682
2255.700777	-3.003200	3.249500	-9.758000	26.719563	0.000407	20.860435
2256.701965	-2.994100	3.248100	-9.723700	26.678754	0.000407	20.841220
2257.700453	-3.028900	3.246500	-9.832000	26.692654	0.000402	20.837650
2258.698531	-2.989200	3.248100	-9.708600	26.707994	0.000405	20.840270
2259.701992	-3.036300	3.246200	-9.855200	26.748255	0.000404	20.844237
2260.697088	-2.989900	3.248500	-9.710600	26.743141	0.000404	20.851897
2261.702287	-2.996600	3.246700	-9.727300	26.773423	0.000404	20.847256
2262.702350	-2.986400	3.246700	-9.695200	26.773397	0.000402	20.837747
2263.701381	-2.995000	3.245100	-9.718200	26.811646	0.000402	20.854866
2264.702218	-2.993000	3.244600	-9.710000	26.863122	0.000402	20.844036
2265.703112	-3.003100	3.245600	-9.745000	26.900224	0.000401	20.839144
2266.703504	-2.996100	3.246000	-9.724100	26.908637	0.000401	20.860879
2267.704187	-2.986900	3.243300	-9.685100	26.934720	0.000399	20.848700
2268.706479	-2.989500	3.244000	-9.696300	26.944696	0.000400	20.839292
2269.702735	-3.004800	3.243100	-9.743700	26.988125	0.000396	20.850247
2270.703320	-3.003500	3.243200	-9.739600	26.997528	0.000398	20.840263
2271.704248	-3.010100	3.243000	-9.760700	27.009390	0.000398	20.837019
2272.705782	-2.981600	3.242700	-9.667600	26.976012	0.000398	20.855135
2273.705002	-3.016700	3.241800	-9.777700	26.970774	0.000396	20.846550
2274.706608	-2.998800	3.241600	-9.720600	26.919725	0.000395	20.841209
2275.708926	-2.996300	3.240800	-9.709300	26.935012	0.000395	20.834770
2276.703531	-2.987300	3.240000	-9.677500	26.909648	0.000395	20.850516
2277.713065	-3.013000	3.239200	-9.758800	26.913743	0.000395	20.851788
2278.705914	-2.993500	3.239200	-9.696100	26.892423	0.000392	20.830825
2279.711109	-3.004200	3.238800	-9.729100	26.934836	0.000392	20.828904
2280.712397	-3.018000	3.237000	-9.768500	26.936200	0.000394	20.831223
2281.707344	-3.005800	3.238600	-9.733300	26.947814	0.000393	20.854281
2282.710910	-2.997400	3.237900	-9.704400	26.897509	0.000393	20.821715
2283.714768	-2.980100	3.236300	-9.643200	26.879664	0.000391	20.851660
2284.708057	-2.998300	3.236100	-9.701600	26.861000	0.000389	20.841428
2285.709575	-2.991200	3.236300	-9.679600	26.862687	0.000391	20.834590
2286.716482	-2.994700	3.235900	-9.689800	26.845736	0.000388	20.848365
2287.705508	-3.002400	3.235500	-9.713200	26.836031	0.000387	20.821538
2288.708526	-3.024100	3.235400	-9.782700	26.847695	0.000387	20.831844
2289.704500	-2.974200	3.235900	-9.623600	26.844666	0.000388	20.843971
2290.713614	-3.020500	3.233500	-9.765900	26.843003	0.000388	20.845617
2291.716797	-3.016600	3.233400	-9.752800	26.881448	0.000387	20.818367
2292.707651	-3.038500	3.232800	-9.820500	26.858836	0.000383	20.834985
2293.709672	-3.007600	3.233700	-9.724900	26.828506	0.000385	20.837206
2294.713201	-3.001800	3.230700	-9.697100	26.778369	0.000384	20.833263
2295.706771	-3.007200	3.232000	-9.718200	26.733764	0.000383	20.824928
2296.709478	-2.992200	3.231600	-9.669000	26.720830	0.000384	20.822830
2297.711856	-3.007700	3.231000	-9.716600	26.747639	0.000384	20.839825
2298.714093	-3.008500	3.231300	-9.720100	26.776729	0.000384	20.829718
2299.705962	-2.999300	3.229800	-9.686500	26.792267	0.000384	20.836331
2300.705494	-2.998200	3.230300	-9.684200	26.804925	0.000383	20.832937
2301.707875	-3.006300	3.230800	-9.711000	26.826023	0.000382	20.826649
2302.708434	-2.998500	3.228600	-9.679500	26.879360	0.000381	20.825751
2303.709610	-3.045300	3.226900	-9.825500	26.916984	0.000381	20.816168
2304.710857	-2.997800	3.227800	-9.675300	26.942026	0.000381	20.828072
2305.711258	-3.016700	3.228000	-9.736600	26.977686	0.000380	20.819362
2306.711492	-2.992700	3.226200	-9.652500	26.977810	0.000378	20.833237
2307.710819	-3.019200	3.226000	-9.739300	26.975924	0.000376	20.824702
2308.711152	-3.017900	3.225200	-9.732700	26.960638	0.000377	20.817391
2309.710290	-3.009100	3.225100	-9.702500	26.958653	0.000377	20.829620
2310.713068	-3.014100	3.224000	-9.716500	26.985058	0.000377	20.816344
2311.712360	-3.007900	3.224400	-9.697900	26.991238	0.000374	20.803593
2312.719469	-2.991800	3.225500	-9.649100	26.985605	0.000374	20.820213
2313.715125	-2.994900	3.224500	-9.654700	26.951880	0.000373	20.796256
2314.713619	-3.006700	3.223600	-9.691800	26.925599	0.000372	20.796382
2315.712355	-3.004300	3.222500	-9.680500	26.939844	0.000373	20.824456
2316.714584	-3.030300	3.221900	-9.762800	26.976896	0.000371	20.799602
2317.715439	-2.985500	3.221400	-9.617100	26.961385	0.000371	20.832841
2318.716575	-2.988500	3.221300	-9.625800	26.985135	0.000372	20.824955
2319.714443	-2.997800	3.222600	-9.659200	26.987021	0.000370	20.818317
2320.715980	-3.005400	3.221000	-9.679300	27.000149	0.000369	20.832468
2321.715338	-3.021300	3.221400	-9.731700	27.003648	0.000368	20.837882
2322.717389	-2.989400	3.220800	-9.626100	26.981859	0.000368	20.810756
2323.724141	-3.004400	3.218600	-9.668500	26.947289	0.000367	20.812028
2324.720142	-2.999300	3.219500	-9.653600	26.934980	0.000368	20.813401
2325.720220	-2.994900	3.218700	-9.638300	26.913910	0.000366	20.823508
2326.725228	-2.997600	3.218300	-9.646500	26.952079	0.000366	20.821586
2327.720529	-3.001400	3.217000	-9.653600	26.963097	0.000368	20.809907
2328.725172	-2.999900	3.217700	-9.650900	26.996524	0.000367	20.811753
2329.725595	-2.995200	3.217600	-9.636000	27.012854	0.000366	20.818217
2330.720826	-3.001000	3.215900	-9.649900	27.062682	0.000365	20.805740
2331.721209	-2.999200	3.215200	-9.642100	27.048562	0.000363	20.815722
2332.723836	-3.018600	3.213800	-9.699900	27.076405	0.000363	20.833765
2333.726288	-3.015900	3.214200	-9.693200	27.075685	0.000362	20.816446
2334.722377	-2.991500	3.214800	-9.615500	27.068910	0.000362	20.800150
2335.729722	-2.988700	3.215000	-9.607200	27.049009	0.000362	20.799101
2336.725189	-3.008600	3.213400	-9.666300	27.084494	0.000360	20.797330
2337.721652	-2.995100	3.213000	-9.622100	27.070003	0.000359	20.812154
2338.725971	-2.993600	3.215500	-9.624500	27.066677	0.000358	20.807387
2339.723061	-2.998600	3.212700	-9.632300	27.043327	0.000359	20.841750
2340.721122	-3.003900	3.212000	-9.648000	27.030274	0.000358	20.801597
2341.725262	-2.982300	3.209900	-9.571700	27.010720	0.000357	20.799002
2342.727703	-2.974500	3.211800	-9.552300	27.023648	0.000359	20.821961
2343.727139	-2.980700	3.211000	-9.570400	27.021912	0.000355	20.827326
2344.728411	-3.016600	3.210300	-9.683400	27.036652	0.000355	20.794261
2345.719946	-3.004700	3.209000	-9.641200	27.050226	0.000355	20.797006
2346.722912	-2.996300	3.209600	-9.616100	27.053277	0.000355	20.803394
2347.736239	-2.990600	3.209300	-9.596800	27.101366	0.000353	20.799600
2348.722133	-2.992100	3.207100	-9.595300	27.113177	0.000352	20.803892
2349.720581	-2.976900	3.207500	-9.547100	27.109753	0.000352	20.783378
2350.723823	-3.000700	3.206800	-9.620900	27.130868	0.000348	20.802244
2351.720894	-3.005300	3.205000	-9.631300	27.155332	0.000350	20.800771
2352.720894	-2.991500	3.205400	-9.588100	27.165729	0.000351	20.803167
2353.724698	-3.003800	3.205400	-9.627900	27.125210	0.000350	20.782329
2354.723747	-2.985300	3.207100	-9.573700	27.127096	0.000350	20.786122
2355.725673	-3.005700	3.204000	-9.629000	27.112752	0.000348	20.784025
2356.729700	-2.961100	3.206000	-9.492400	27.110915	0.000349	20.794031
2357.727357	-2.997000	3.203800	-9.601000	27.083546	0.000349	20.782152
2358.727357	-2.992300	3.202600	-9.582700	27.030814	0.000346	20.786968
2359.730341	-2.990200	3.203700	-9.579200	26.984210	0.000347	20.806008
2360.730675	-2.994000	3.202400	-9.587500	26.972695	0.000347	20.791583
2361.727247	-2.992100	3.202600	-9.581300	26.944304	0.000345	20.820881
2362.733182	-2.979100	3.202200	-9.538800	26.956638	0.000345	20.775437
2363.727978	-2.993600	3.203000	-9.586400	26.950507	0.000347	20.792979
2364.727969	-2.987200	3.201200	-9.561700	26.945518	0.000346	20.789859
2365.731983	-2.984300	3.202700	-9.556700	26.961178	0.000344	20.789485
2366.727996	-2.981900	3.201200	-9.544400	26.988897	0.000345	20.800764
2367.743945	-2.996700	3.199600	-9.586000	27.012894	0.000346	20.764678
2368.730946	-2.964500	3.199300	-9.483400	27.033069	0.000344	20.790657
2369.727943	-2.992600	3.199400	-9.574500	27.056071	0.000345	20.780599
2370.727947	-2.980100	3.199300	-9.533100	27.083838	0.000343	20.780075
2371.732043	-3.000500	3.197700	-9.593200	27.100661	0.000342	20.787985
2372.728643	-2.990900	3.198400	-9.565100	27.134878	0.000343	20.770241
2373.733973	-2.999900	3.195800	-9.585700	27.156341	0.000341	20.771440
2374.734592	-2.977800	3.197600	-9.520700	27.160683	0.000341	20.756840
2375.730773	-2.978600	3.197400	-9.522600	27.131603	0.000341	20.776905
2376.730361	-3.004200	3.195900	-9.599500	27.129469	0.000340	20.782820
2377.738388	-3.014400	3.194100	-9.626600	27.119420	0.000341	20.781247
2378.731266	-3.005800	3.194800	-9.601900	27.171526	0.000341	20.731708
2379.729031	-2.997400	3.192500	-9.568300	27.187382	0.000340	20.770892
2380.732638	-2.995900	3.192700	-9.563600	27.167631	0.000342	20.787062
2381.733364	-3.002400	3.193700	-9.588100	27.158996	0.000340	20.767471
2382.731914	-3.026200	3.190900	-9.654700	27.126419	0.000339	20.783545
2383.737357	-2.982600	3.192700	-9.521400	27.075823	0.000339	20.771066
2384.735643	-3.003900	3.189800	-9.579400	27.009891	0.000339	20.763555
2385.733520	-2.987400	3.192800	-9.537200	26.995995	0.000339	20.772814
2386.735528	-2.989700	3.191900	-9.542700	26.939463	0.000340	20.763855
2387.735359	-3.040000	3.187800	-9.690100	26.948819	0.000339	20.778479
2388.733360	-2.984400	3.190000	-9.518800	26.917326	0.000335	20.777158
2389.737535	-2.997000	3.187400	-9.551100	26.929886	0.000336	20.762285
2390.737197	-3.016400	3.188000	-9.615400	26.984011	0.000336	20.777359
2391.733998	-2.990200	3.187000	-9.529100	27.008306	0.000336	20.768125
2392.735456	-2.996300	3.187000	-9.548900	27.024288	0.000334	20.748635
2393.736562	-2.977600	3.187800	-9.491300	27.068310	0.000337	20.778209
2394.734551	-3.003500	3.186400	-9.569100	27.105457	0.000333	20.776687
2395.737278	-3.010700	3.186400	-9.592000	27.152800	0.000334	20.750334
2396.738859	-2.999900	3.185600	-9.555500	27.199421	0.000332	20.758345
2397.735935	-3.009200	3.186000	-9.585900	27.205377	0.000332	20.770500
2398.741119	-2.984200	3.183900	-9.500600	27.165829	0.000332	20.759645
2399.737826	-3.001100	3.183500	-9.552400	27.098538	0.000332	20.762616
2400.738308	-2.974400	3.184400	-9.470400	27.040249	0.000331	20.762316
2401.739509	-3.014600	3.181400	-9.589600	27.025411	0.000332	20.773473
2402.740512	-3.025800	3.181000	-9.624600	27.073552	0.000332	20.769256
2403.741395	-3.014900	3.180500	-9.588400	27.090228	0.000331	20.757577
2404.740828	-3.005500	3.180300	-9.557200	27.140748	0.000330	20.776620
2405.741835	-2.995900	3.182100	-9.532900	27.196205	0.000330	20.773128
2406.741726	-2.997300	3.180500	-9.532000	27.225159	0.000329	20.776647
2407.742481	-2.996900	3.179900	-9.528900	27.268329	0.000328	20.790673
2408.743414	-2.988200	3.178300	-9.495200	27.261410	0.000328	20.762375
2409.743424	-3.003900	3.177500	-9.543800	27.277412	0.000329	20.773256
2410.744168	-2.999800	3.178400	-9.533300	27.302422	0.000329	20.773757
2411.745862	-3.003000	3.176900	-9.539600	27.336757	0.000328	20.770838
2412.744791	-2.973000	3.177100	-9.444000	27.332591	0.000326	20.777552
2413.745378	-2.997500	3.177600	-9.524300	27.364842	0.000327	20.758787
2414.746877	-3.008400	3.176500	-9.554900	27.382705	0.000327	20.790982
2415.747591	-3.006400	3.175100	-9.544700	27.408704	0.000325	20.772566
2416.746495	-2.987000	3.174500	-9.480200	27.380226	0.000327	20.766677
2417.746125	-2.995500	3.173000	-9.503600	27.374151	0.000325	20.769574
2418.746788	-2.971500	3.173300	-9.428700	27.305086	0.000325	20.785921
2419.746788	-2.989700	3.174200	-9.488800	27.224630	0.000325	20.770899
2420.747173	-3.010800	3.171300	-9.547000	27.175977	0.000327	20.785500
2421.748187	-2.980700	3.172300	-9.454900	27.142061	0.000324	20.768457
2422.748609	-2.992300	3.171300	-9.488000	27.150300	0.000325	20.773898
2423.748748	-3.013500	3.169300	-9.549500	27.130476	0.000322	20.762021
2424.748748	-3.001400	3.169800	-9.513000	27.053108	0.000320	20.783784
2425.748746	-2.997500	3.170600	-9.502600	27.054574	0.000320	20.763446
2426.749875	-3.014100	3.168100	-9.547900	27.003134	0.000321	20.761501
2427.768613	-3.027900	3.167000	-9.588000	26.973033	0.000319	20.793820
2428.749450	-3.021100	3.167600	-9.567800	26.973431	0.000320	20.785686
2429.749450	-2.988000	3.169100	-9.468100	26.981722	0.000318	20.773634
2430.749420	-3.031500	3.165600	-9.594800	27.021304	0.000319	20.784516
2431.750102	-3.014100	3.165800	-9.540900	27.047833	0.000319	20.775159
2432.750134	-3.000500	3.164700	-9.494300	27.059124	0.000316	20.794576
2433.750137	-2.997800	3.165900	-9.489800	27.068357	0.000315	20.759764
2434.750134	-2.983700	3.163100	-9.435200	27.076844	0.000316	20.771618
2435.751037	-3.006300	3.162200	-9.505700	27.105282	0.000318	20.777459
2436.750038	-2.997500	3.161700	-9.475600	27.169421	0.000314	20.773690
2437.754040	-3.014000	3.161100	-9.526700	27.177587	0.000314	20.808456
2438.749566	-2.996700	3.161900	-9.474900	27.155654	0.000316	20.804888
2439.750930	-3.022900	3.160100	-9.552000	27.128485	0.000313	20.762388
2440.751935	-3.006100	3.158800	-9.494800	27.167342	0.000316	20.775392
2441.752702	-3.004200	3.158500	-9.486900	27.185703	0.000315	20.789118
2442.750260	-3.008900	3.158000	-9.501100	27.185158	0.000315	20.764862
2443.753293	-3.010000	3.157700	-9.503400	27.205950	0.000316	20.771076
2444.752996	-3.001700	3.157400	-9.476600	27.254828	0.000316	20.775195
2445.752380	-2.989400	3.155600	-9.432800	27.241927	0.000315	20.780711
2446.752131	-2.987400	3.155800	-9.427000	27.246096	0.000315	20.794387
2447.755538	-3.014400	3.154000	-9.505800	27.233370	0.000313	20.783009
2448.752467	-3.019200	3.156600	-9.529600	27.199975	0.000313	20.768859
2449.752861	-2.995000	3.156500	-9.451900	27.231982	0.000313	20.767388
2450.756213	-2.989900	3.155100	-9.432000	27.275152	0.000312	20.763869
2451.753238	-2.984900	3.154600	-9.415300	27.309067	0.000312	20.797511
2452.755341	-2.964700	3.152500	-9.345200	27.328840	0.000312	20.797961
2453.757807	-3.001800	3.152000	-9.460700	27.338093	0.000313	20.784510
2454.755177	-3.019900	3.150500	-9.512700	27.369500	0.000311	20.805199
2455.754377	-3.000000	3.149700	-9.448300	27.405248	0.000314	20.805599
2456.757395	-3.006000	3.150800	-9.470200	27.464881	0.000308	20.784987
2457.757550	-3.014600	3.148700	-9.490100	27.465379	0.000308	20.799237
2458.756328	-2.999800	3.147800	-9.441700	27.383000	0.000308	20.784640
2459.758932	-3.022500	3.145900	-9.507600	27.327407	0.000308	20.792253
2460.758057	-2.984400	3.147200	-9.391600	27.320660	0.000309	20.800639
2461.759623	-2.988600	3.146400	-9.402900	27.308332	0.000306	20.802936
2462.762043	-2.989500	3.146000	-9.403200	27.325500	0.000307	20.795075
2463.758913	-2.964700	3.145300	-9.323600	27.349639	0.000307	20.803711
2464.759907	-3.001700	3.144900	-9.437300	27.368890	0.000305	20.790360
2465.763888	-2.997400	3.142900	-9.419000	27.399701	0.000304	20.806183
2466.760162	-2.988900	3.144000	-9.395800	27.424211	0.000306	20.796702
2467.764572	-3.009400	3.141400	-9.452300	27.399729	0.000304	20.791038
2468.764573	-3.002800	3.142200	-9.434500	27.365497	0.000304	20.791215
2469.761840	-2.988800	3.140600	-9.385700	27.405064	0.000304	20.806362
2470.761407	-2.997900	3.140500	-9.413300	27.388469	0.000304	20.802945
2471.765580	-2.968100	3.139600	-9.315500	27.375645	0.000303	20.798578
2472.791517	-3.021300	3.138400	-9.481200	27.359298	0.000302	20.815324
2473.761278	-3.006700	3.136900	-9.431400	27.363987	0.000301	20.817671
2474.763380	-2.995700	3.136900	-9.395700	27.386067	0.000302	20.820916
2475.761309	-2.986000	3.136900	-9.364700	27.415811	0.000301	20.809114
2476.763124	-2.987400	3.135800	-9.367000	27.438658	0.000300	20.799382
2477.764620	-2.979000	3.135400	-9.338000	27.444561	0.000299	20.803898
2478.763682	-3.001800	3.133300	-9.404700	27.431242	0.000302	20.815154
2479.763101	-3.013600	3.133800	-9.443700	27.370019	0.000299	20.801928
2480.765879	-2.995600	3.132300	-9.382200	27.357343	0.000300	20.798659
2481.765331	-2.966600	3.132000	-9.290400	27.365827	0.000302	20.821892
2482.763603	-3.013200	3.130000	-9.431100	27.327898	0.000299	20.790850
2483.765531	-3.016500	3.130100	-9.439900	27.275229	0.000299	20.805674
2484.765482	-2.988100	3.129700	-9.350900	27.263347	0.000298	20.788505
2485.764826	-2.997800	3.128500	-9.377800	27.280837	0.000299	20.804202
2486.769570	-2.995400	3.128200	-9.368900	27.328543	0.000300	20.776326
2487.765161	-3.007200	3.126300	-9.400500	27.331275	0.000301	20.810368
2488.766234	-3.011900	3.125700	-9.413900	27.329985	0.000298	20.801958
2489.775786	-2.994500	3.125100	-9.356800	27.366355	0.000297	20.813414
2490.767786	-3.007500	3.123700	-9.393800	27.387664	0.000299	20.804031
2491.765787	-3.001500	3.122800	-9.372100	27.391931	0.000300	20.814487
2492.769786	-3.011800	3.122400	-9.402300	27.444298	0.000299	20.804108
2493.768786	-3.005800	3.122700	-9.385300	27.472106	0.000298	20.808376
2494.766788	-3.015000	3.121000	-9.408600	27.498475	0.000297	20.811672
2495.771789	-2.989600	3.120100	-9.326000	27.561029	0.000297	20.820555
2496.779790	-3.008500	3.117900	-9.379500	27.567900	0.000295	20.813244
2497.769379	-3.021800	3.119100	-9.424100	27.576259	0.000296	20.823078
2498.772570	-3.008200	3.116900	-9.375500	27.529382	0.000298	20.805784
2499.769826	-3.006900	3.116100	-9.368700	27.499644	0.000295	20.811900
2500.771355	-3.007700	3.116300	-9.370300	27.474518	0.000294	20.798475
2501.776748	-2.973700	3.116500	-9.266400	27.458098	0.000296	20.817043
2502.772806	-3.016800	3.114000	-9.393600	27.485509	0.000295	20.833714
2503.772895	-2.959100	3.115400	-9.217600	27.529066	0.000296	20.814949
2504.776714	-2.988600	3.112000	-9.299700	27.533085	0.000295	20.799552
2505.776796	-3.008300	3.111500	-9.359300	27.520412	0.000294	20.813828
2506.776360	-2.981400	3.113300	-9.279600	27.505875	0.000294	20.815324
2507.776593	-3.004500	3.111200	-9.347000	27.515727	0.000294	20.830925
2508.778637	-3.004400	3.110700	-9.344400	27.499381	0.000293	20.841506
2509.776792	-3.008300	3.110100	-9.355700	27.529071	0.000293	20.821118
2510.781287	-2.993700	3.108100	-9.303300	27.534183	0.000292	20.824365
2511.780814	-3.007500	3.107300	-9.343100	27.547578	0.000294	20.820298
2512.778763	-2.998700	3.106800	-9.315700	27.547529	0.000291	20.843008
2513.779968	-2.998900	3.106300	-9.314400	27.544305	0.000289	20.812738
2514.782178	-3.005100	3.103900	-9.325900	27.539793	0.000291	20.830009
2515.781374	-2.984200	3.104800	-9.263600	27.564099	0.000290	20.834076
2516.782811	-3.000600	3.101600	-9.305800	27.563729	0.000291	20.838919
2517.784102	-2.981100	3.102500	-9.247600	27.559290	0.000291	20.825444
2518.781378	-3.002500	3.100800	-9.310000	27.516158	0.000291	20.826618
2519.785352	-2.992100	3.101500	-9.278600	27.457224	0.000290	20.826594
2520.785965	-2.999700	3.100000	-9.299000	27.454942	0.000290	20.852273
2521.783371	-3.033900	3.097800	-9.397600	27.453057	0.000290	20.843264
2522.786264	-3.007400	3.097100	-9.312600	27.483370	0.000291	20.831562
2523.785621	-2.992200	3.096700	-9.265500	27.487066	0.000292	20.812996
2524.783994	-2.993200	3.096200	-9.266500	27.504702	0.000291	20.836903
2525.789997	-3.006100	3.094300	-9.300000	27.492500	0.000290	20.852127
2526.789526	-2.996800	3.092500	-9.266700	27.475610	0.000292	20.829919
2527.787282	-3.014300	3.091200	-9.317000	27.449317	0.000291	20.827174
2528.787914	-3.014600	3.091900	-9.319600	27.473529	0.000290	20.846317
2529.786006	-3.009400	3.091300	-9.301400	27.491413	0.000292	20.842498
2530.787031	-2.988700	3.092000	-9.240000	27.500989	0.000291	20.842176
2531.795244	-2.986300	3.090400	-9.228200	27.469461	0.000292	20.862138
2532.789679	-2.982400	3.090000	-9.214300	27.484150	0.000289	20.844201
2533.804338	-3.009000	3.087600	-9.289000	27.479438	0.000288	20.825235
2534.791882	-2.993800	3.087600	-9.242400	27.520142	0.000289	20.834419
2535.793058	-2.997300	3.086600	-9.250600	27.539391	0.000290	20.840983
2536.793496	-3.001400	3.084200	-9.255900	27.544773	0.000290	20.836916
2537.793420	-3.001300	3.082800	-9.251100	27.585302	0.000290	20.858254
2538.790467	-2.977800	3.083900	-9.182200	27.602989	0.000292	20.849023
2539.788648	-2.992800	3.083100	-9.226200	27.670423	0.000291	20.825841
2540.794754	-3.007000	3.081400	-9.265400	27.687687	0.000292	20.836575
2541.793203	-2.999600	3.079800	-9.236900	27.725185	0.000292	20.849652
2542.792060	-3.003200	3.079200	-9.246700	27.754970	0.000290	20.866348
2543.796560	-3.006500	3.078300	-9.254300	27.760723	0.000289	20.866922
2544.792768	-3.007400	3.077600	-9.254700	27.754128	0.000290	20.843692
2545.797910	-2.984300	3.076100	-9.178700	27.731613	0.000289	20.864181
2546.793346	-2.987300	3.075300	-9.186000	27.739303	0.000289	20.853428
2547.795315	-3.008900	3.074100	-9.248700	27.771491	0.000288	20.864483
2548.796315	-3.005100	3.071800	-9.230100	27.711629	0.000289	20.861615
2549.796495	-3.000000	3.071500	-9.213700	27.652658	0.000289	20.843052
2550.796673	-3.008300	3.070100	-9.234200	27.626718	0.000289	20.853933
2551.795528	-2.987000	3.069300	-9.167000	27.638500	0.000288	20.864366
2552.798127	-3.026200	3.068200	-9.282200	27.680761	0.000288	20.849045
2553.816782	-2.984300	3.068500	-9.155500	27.688426	0.000290	20.845379
2554.798693	-3.014300	3.066000	-9.241500	27.720269	0.000289	20.866042
2555.800434	-3.020500	3.064300	-9.254000	27.685006	0.000289	20.868489
2556.801775	-2.996700	3.064200	-9.182000	27.656464	0.000289	20.861579
2557.801584	-2.978900	3.063700	-9.126100	27.624890	0.000287	20.871534
2558.802532	-2.995000	3.062900	-9.171700	27.651951	0.000286	20.868417
2559.805379	-2.984100	3.061300	-9.134200	27.617231	0.000288	20.881370
2560.802217	-2.994200	3.058900	-9.157000	27.589652	0.000287	20.880647
2561.801458	-3.000000	3.058300	-9.174000	27.548357	0.000288	20.867073
2562.803936	-2.979700	3.059300	-9.114800	27.506787	0.000287	20.882620
2563.802382	-2.965000	3.058000	-9.066000	27.512864	0.000285	20.874036
2564.802304	-2.981200	3.057100	-9.112700	27.486476	0.000287	20.868350
2565.803447	-3.002800	3.054600	-9.170700	27.504361	0.000287	20.862637
2566.803490	-3.005700	3.055100	-9.181900	27.551116	0.000288	20.891184
2567.802812	-2.981100	3.052800	-9.100100	27.580656	0.000287	20.868751
2568.804895	-2.993600	3.052600	-9.137300	27.618457	0.000287	20.870276
2569.802749	-3.005900	3.049900	-9.165900	27.638323	0.000286	20.874144
2570.802595	-3.001300	3.050600	-9.154300	27.668680	0.000286	20.890939
2571.806470	-3.016700	3.048800	-9.196600	27.707965	0.000286	20.876418
2572.803715	-2.994700	3.046300	-9.121400	27.714540	0.000286	20.879241
2573.803290	-3.004200	3.046600	-9.151200	27.700305	0.000287	20.878667
2574.806810	-2.985200	3.046300	-9.093000	27.715507	0.000285	20.891593
2575.805470	-3.024900	3.043200	-9.204500	27.756229	0.000287	20.879468
2576.803254	-3.005100	3.044200	-9.146000	27.770538	0.000286	20.889126
2577.807092	-2.993400	3.043600	-9.109800	27.821571	0.000286	20.878371
2578.806180	-2.997000	3.040000	-9.110000	27.865562	0.000286	20.886608
2579.807922	-2.997000	3.039600	-9.108500	27.867000	0.000284	20.879996
2580.807224	-3.013300	3.039000	-9.155400	27.897972	0.000284	20.880348
2581.821607	-3.000700	3.036700	-9.111300	27.936156	0.000283	20.896019
2582.804985	-2.979900	3.037100	-9.048900	27.879947	0.000283	20.892078
2583.806113	-3.002800	3.035600	-9.114500	27.826737	0.000284	20.880725
2584.809594	-3.018200	3.033800	-9.156000	27.794924	0.000284	20.868624
2585.807877	-3.006700	3.031800	-9.114800	27.811438	0.000282	20.912267
2586.813687	-3.016500	3.030000	-9.138900	27.822127	0.000284	20.874190
2587.811358	-2.963300	3.031500	-8.981700	27.798968	0.000283	20.885495
2588.812080	-3.027400	3.028400	-9.167300	27.769806	0.000283	20.890286
2589.821862	-3.012300	3.028100	-9.119500	27.767353	0.000283	20.891610
2590.814799	-2.980300	3.026300	-9.018500	27.736851	0.000285	20.896951
2591.815203	-2.995300	3.025900	-9.061600	27.714930	0.000281	20.881056
2592.825012	-2.986200	3.025300	-9.033600	27.704688	0.000283	20.895405
2593.817579	-3.006000	3.022900	-9.086300	27.765024	0.000283	20.904912
2594.813501	-2.992300	3.022800	-9.043800	27.780719	0.000283	20.892734
2595.813969	-3.018600	3.020800	-9.117600	27.781639	0.000284	20.879435
2596.816597	-3.021300	3.019400	-9.121500	27.783029	0.000282	20.907385
2597.815042	-3.001000	3.018700	-9.057400	27.777126	0.000283	20.917090
2598.813832	-3.021400	3.016700	-9.113000	27.818463	0.000282	20.900845
2599.814312	-3.004800	3.017400	-9.065600	27.795080	0.000285	20.912874
2600.819594	-2.999600	3.015500	-9.044400	27.741367	0.000284	20.907184
2601.816918	-2.985300	3.014000	-8.997300	27.749923	0.000284	20.910104
2602.815341	-2.993200	3.013300	-9.018000	27.713196	0.000284	20.900173
2603.814036	-3.000800	3.010900	-9.033400	27.676817	0.000285	20.926624
2604.816676	-3.006800	3.009900	-9.049300	27.661987	0.000285	20.892739
2605.825197	-3.047100	3.006400	-9.158600	27.614518	0.000284	20.920362
2606.818195	-3.000800	3.006400	-9.021200	27.617842	0.000285	20.899527
2607.818429	-3.002400	3.005200	-9.022400	27.638007	0.000285	20.911755
2608.817756	-3.002000	3.005000	-9.020500	27.644755	0.000285	20.940353
2609.821477	-3.008000	3.002300	-9.030000	27.686717	0.000285	20.910510
2610.819498	-3.004800	3.001700	-9.018500	27.699019	0.000283	20.930948
2611.821436	-3.047000	2.999900	-9.140000	27.686744	0.000283	20.918597
2612.822447	-3.028700	2.998400	-9.080200	27.651752	0.000282	20.906146
2613.821427	-3.008100	2.998400	-9.017600	27.663879	0.000285	20.908866
2614.827315	-3.027100	2.996900	-9.071200	27.635336	0.000283	20.927084
2615.821255	-2.990600	2.995400	-8.956800	27.591117	0.000283	20.906300
2616.824467	-2.979900	2.995900	-8.926800	27.600468	0.000284	20.910494
2617.820558	-2.963200	2.995000	-8.874000	27.643897	0.000285	20.903933
2618.822119	-2.987400	2.992700	-8.939000	27.661010	0.000286	20.899816
2619.823019	-2.994500	2.991100	-8.956300	27.710116	0.000286	20.918408
2620.830999	-3.024800	2.989000	-9.040200	27.725196	0.000284	20.923151
2621.823287	-2.998000	2.989700	-8.961300	27.744713	0.000285	20.903913
2622.824782	-2.973600	2.989300	-8.887900	27.714263	0.000285	20.921632
2623.833183	-3.020100	2.983800	-9.009600	27.675652	0.000285	20.920711
2624.825232	-2.986900	2.986300	-8.918900	27.682350	0.000283	20.935036
2625.828183	-3.006700	2.984400	-8.971400	27.694578	0.000284	20.930746
2626.827851	-2.993300	2.982300	-8.926100	27.746360	0.000284	20.918845
2627.834387	-3.009400	2.980600	-8.968600	27.756702	0.000284	20.939682
2628.826963	-2.995600	2.979300	-8.924700	27.830203	0.000284	20.923565
2629.829179	-3.002600	2.977800	-8.940100	27.877863	0.000283	20.911315
2630.832494	-3.016300	2.974300	-8.970900	27.882553	0.000281	20.906553
2631.825664	-3.003900	2.975300	-8.936500	27.901644	0.000283	20.929084
2632.832682	-2.998200	2.974500	-8.917100	27.929069	0.000284	20.951943
2633.828115	-2.994300	2.972200	-8.898700	27.892352	0.000282	20.922103
2634.833118	-2.988300	2.970700	-8.876100	27.868302	0.000283	20.934881
2635.831002	-3.031300	2.968500	-8.997300	27.874626	0.000283	20.930340
2636.830038	-2.989600	2.968300	-8.872800	27.870488	0.000283	20.945613
2637.830604	-3.019200	2.966100	-8.954200	27.836693	0.000283	20.936733
2638.840764	-2.994200	2.964400	-8.874500	27.836448	0.000280	20.935538
2639.830489	-2.988100	2.962200	-8.850000	27.829802	0.000280	20.968200
2640.830172	-3.001100	2.962400	-8.889400	27.822812	0.000280	20.955003
2641.834905	-3.018100	2.960600	-8.934800	27.850013	0.000281	20.930698
2642.832573	-3.028900	2.959000	-8.961600	27.912770	0.000280	20.953081
2643.832646	-3.026200	2.956600	-8.945400	27.952245	0.000282	20.942555
2644.832651	-2.976000	2.957400	-8.799800	28.023276	0.000279	20.951462
2645.835886	-3.026300	2.953500	-8.937600	28.042170	0.000281	20.909319
2646.833120	-3.020900	2.952600	-8.917300	28.047351	0.000281	20.958626
2647.838542	-2.996400	2.953100	-8.847600	28.028906	0.000280	20.935320
2648.836442	-3.020000	2.950500	-8.907900	28.016065	0.000281	20.948945
2649.831164	-3.009100	2.949400	-8.874700	28.041006	0.000282	20.957928
2650.837720	-2.990600	2.946700	-8.811000	28.029750	0.000282	20.946600
2651.830845	-3.035900	2.945400	-8.941000	28.048739	0.000281	20.955756
2652.833616	-3.017800	2.944900	-8.886100	28.053549	0.000281	20.947797
2653.835638	-2.997000	2.943400	-8.819800	28.046710	0.000281	20.965091
2654.833006	-3.018300	2.940200	-8.873200	28.048270	0.000281	20.975669
2655.834967	-3.020000	2.938500	-8.873600	28.085629	0.000282	20.949743
2656.834165	-2.976800	2.939700	-8.749900	28.064806	0.000282	20.963867
2657.836005	-2.999300	2.936400	-8.805500	28.097776	0.000282	20.948695
2658.840247	-2.988800	2.935700	-8.772300	28.091208	0.000279	20.942558
2659.847433	-3.000700	2.934600	-8.804600	28.037536	0.000279	20.956332
2660.838539	-2.956300	2.934000	-8.673100	28.064904	0.000281	20.980085
2661.834759	-2.991900	2.931100	-8.768200	28.093190	0.000279	20.967783
2662.838050	-3.012500	2.929400	-8.823800	28.095744	0.000279	20.957554
2663.837045	-3.005600	2.927800	-8.799200	28.132012	0.000278	20.969406
2664.836298	-2.981700	2.925800	-8.722700	28.158908	0.000279	20.954760
2665.838549	-2.979900	2.924400	-8.713500	28.155387	0.000279	20.963068
2666.839279	-3.007500	2.923200	-8.790000	28.154124	0.000281	20.967485
2667.840434	-2.994600	2.921800	-8.748600	28.200031	0.000278	20.954908
2668.841001	-3.000400	2.919300	-8.757700	28.216342	0.000280	20.960898
2669.837864	-3.036300	2.917800	-8.858300	28.253622	0.000280	20.958128
2670.838604	-2.992800	2.916800	-8.729000	28.290925	0.000279	20.976244
2671.840036	-3.004100	2.916000	-8.759200	28.285942	0.000278	20.961746
2672.838376	-2.957400	2.914900	-8.619000	28.268891	0.000278	20.948847
2673.837062	-3.010400	2.910400	-8.760100	28.299773	0.000279	20.956232
2674.843836	-3.002000	2.910600	-8.736600	28.290257	0.000279	20.961823
2675.836330	-2.995000	2.907600	-8.707400	28.294917	0.000277	20.970780
2676.840972	-3.001600	2.908500	-8.729300	28.284332	0.000281	20.966288
2677.844038	-2.973600	2.904000	-8.634400	28.330385	0.000280	20.971879
2678.835438	-2.972200	2.903300	-8.626800	28.356384	0.000280	20.958705
2679.840015	-2.976500	2.901700	-8.635700	28.360249	0.000280	20.958803
2680.843333	-3.041600	2.898200	-8.814100	28.359334	0.000280	20.963097
2681.842748	-2.987800	2.899400	-8.662200	28.310090	0.000280	20.966143
2682.840478	-2.988700	2.896500	-8.655900	28.261682	0.000279	20.954390
2683.843244	-3.030300	2.893000	-8.765200	28.214288	0.000277	20.957882
2684.843133	-3.003500	2.893300	-8.688600	28.196988	0.000277	20.948527
2685.844264	-3.000800	2.891400	-8.675800	28.171829	0.000279	20.940269
2686.844133	-3.011000	2.888200	-8.694300	28.130953	0.000282	20.949851
2687.847111	-3.008200	2.887400	-8.684900	28.109582	0.000277	20.943510
2688.844158	-2.996900	2.885600	-8.645800	28.096868	0.000277	20.981441
2689.845704	-2.994500	2.883400	-8.633200	28.116972	0.000278	20.935304
2690.844054	-3.001100	2.881600	-8.647100	28.050237	0.000279	20.950152
2691.844638	-2.996700	2.881500	-8.633100	28.045798	0.000277	20.928617
2692.845747	-3.023900	2.876900	-8.697800	28.045080	0.000278	20.930265
2693.844072	-2.988200	2.877000	-8.595700	28.088863	0.000277	20.947783
2694.845850	-2.982400	2.876800	-8.578400	28.112461	0.000276	20.937401
2695.846122	-2.993300	2.871400	-8.594900	28.131252	0.000280	20.928343
2696.844798	-2.994600	2.869600	-8.592900	28.091218	0.000278	20.947783
2697.845676	-2.991000	2.869600	-8.580900	28.094243	0.000279	20.944191
2698.845650	-2.997200	2.866400	-8.590000	28.101754	0.000279	20.947010
2699.846260	-2.999500	2.865000	-8.592400	28.149896	0.000280	20.953748
2700.851378	-2.993700	2.862400	-8.568300	28.159687	0.000280	20.953648
2701.851564	-3.012500	2.859900	-8.614500	28.150218	0.000279	20.940797
2702.847139	-3.019900	2.857800	-8.629300	28.158521	0.000280	20.926399
2703.849088	-2.992800	2.856800	-8.548500	28.179989	0.000280	20.935208
2704.848149	-2.995800	2.855200	-8.552600	28.223119	0.000279	20.920785
2705.849178	-2.987300	2.853400	-8.521800	28.264341	0.000279	20.932414
2706.852079	-2.975300	2.851300	-8.482900	28.257897	0.000279	20.922608
2707.849807	-2.989500	2.849000	-8.515700	28.276064	0.000278	20.932363
2708.849203	-3.008000	2.846000	-8.559900	28.291879	0.000278	20.924105
2709.850306	-3.007300	2.844400	-8.552600	28.295621	0.000279	20.917917
2710.850512	-2.979400	2.843200	-8.469100	28.307768	0.000279	20.929671
2711.854488	-3.008300	2.841000	-8.544900	28.326378	0.000278	20.909057
2712.851931	-3.009600	2.838200	-8.540300	28.305859	0.000280	20.930120
2713.852078	-3.021200	2.835100	-8.564500	28.331313	0.000279	20.914026
2714.850973	-3.039800	2.833400	-8.611300	28.319638	0.000277	20.924080
2715.856147	-2.993800	2.833000	-8.480800	28.333394	0.000279	20.940774
2716.850290	-2.985700	2.829000	-8.445300	28.351635	0.000278	20.908884
2717.852294	-2.997400	2.826500	-8.471400	28.392132	0.000278	20.915047
2718.853136	-2.981800	2.826900	-8.428400	28.388786	0.000280	20.915945
2719.853395	-2.998700	2.823400	-8.464700	28.445861	0.000278	20.910830
2720.855323	-3.002100	2.819400	-8.461400	28.438178	0.000279	20.917317
2721.857839	-3.011100	2.817000	-8.480600	28.422195	0.000279	20.899802
2722.854670	-3.011000	2.815600	-8.475900	28.424796	0.000279	20.897680
2723.856163	-3.014300	2.813900	-8.481200	28.435404	0.000279	20.928274
2724.856588	-3.001200	2.811200	-8.435200	28.387078	0.000281	20.918019
2725.853021	-2.959900	2.810000	-8.316900	28.402941	0.000277	20.930671
2726.860960	-2.998100	2.807600	-8.416000	28.375530	0.000281	20.909236
2727.856445	-2.980100	2.804100	-8.355300	28.354910	0.000279	20.904121
2728.857887	-2.995100	2.801700	-8.390900	28.320584	0.000280	20.916024
2729.856519	-2.955300	2.800000	-8.274000	28.309780	0.000281	20.913681
2730.856072	-3.014100	2.796300	-8.427300	28.311217	0.000278	20.886207
2731.853853	-2.999100	2.794600	-8.381100	28.344878	0.000281	20.912037
2732.859066	-2.997700	2.792500	-8.370200	28.355933	0.000281	20.894246
2733.857813	-2.992700	2.789600	-8.346900	28.380593	0.000281	20.899163
2734.854835	-2.996300	2.786600	-8.348300	28.406965	0.000280	20.898216
2735.862239	-2.989300	2.783600	-8.320200	28.399134	0.000281	20.895073
2736.862686	-3.007200	2.780300	-8.359800	28.378145	0.000279	20.888164
2737.859684	-2.995000	2.777900	-8.319000	28.331947	0.000278	20.883847
2738.859567	-2.977900	2.775100	-8.262300	28.328404	0.000277	20.908726
2739.863830	-2.982700	2.772200	-8.267500	28.309843	0.000279	20.887669
2740.865716	-2.984000	2.769500	-8.263400	28.341122	0.000279	20.903515
2741.856494	-3.019300	2.765000	-8.346600	28.361325	0.000279	20.915321
2742.857446	-2.988200	2.764600	-8.260200	28.392997	0.000280	20.905962
2743.884249	-3.000100	2.759500	-8.277000	28.388390	0.000280	20.902272
2744.861861	-2.994800	2.758400	-8.259800	28.440584	0.000280	20.906466
2745.858328	-2.967600	2.755800	-8.177500	28.455183	0.000281	20.890348
2746.857990	-3.000000	2.750300	-8.249100	28.519740	0.000279	20.901305
2747.859000	-2.995400	2.748600	-8.232500	28.540779	0.000279	20.894993
2748.859069	-3.020900	2.745800	-8.293800	28.530199	0.000280	20.902829
2749.859525	-2.998600	2.742400	-8.222600	28.507303	0.000279	20.893048
2750.862398	-3.000700	2.739400	-8.219600	28.491373	0.000280	20.894550
2751.860762	-3.004100	2.734700	-8.213900	28.523342	0.000281	20.890235
2752.862705	-2.975200	2.732700	-8.129100	28.529986	0.000280	20.890761
2753.866781	-2.993800	2.729300	-8.170100	28.504660	0.000279	20.898921
2754.860241	-3.023300	2.725700	-8.239700	28.514303	0.000279	20.900097
2755.859583	-3.003900	2.723100	-8.178500	28.519086	0.000281	20.888793
2756.860750	-2.999900	2.719600	-8.157900	28.499809	0.000281	20.897354
2757.859971	-3.005200	2.714800	-8.157400	28.481921	0.000280	20.894514
2758.860575	-3.010700	2.711100	-8.161700	28.433523	0.000280	20.896985
2759.861929	-3.012200	2.708700	-8.157200	28.389684	0.000279	20.891721
2760.861066	-2.988800	2.706800	-8.088000	28.405028	0.000282	20.907645
2761.861399	-2.990600	2.701200	-8.077800	28.429638	0.000281	20.894021
2762.862243	-3.009900	2.697900	-8.119500	28.410952	0.000282	20.899861
2763.863588	-3.004300	2.693400	-8.090200	28.428179	0.000282	20.897294
2764.860587	-2.995600	2.691100	-8.060000	28.423622	0.000282	20.868051
2765.864671	-2.999800	2.687400	-8.060900	28.405235	0.000281	20.895053
2766.861059	-3.041900	2.681600	-8.155800	28.436190	0.000280	20.879758
2767.860156	-2.995600	2.678700	-8.023400	28.490487	0.000280	20.906933
2768.865880	-3.012400	2.675300	-8.057700	28.527687	0.000281	20.889395
2769.861017	-2.999300	2.671900	-8.013000	28.593528	0.000281	20.876046
2770.865642	-2.978600	2.667600	-7.944500	28.638155	0.000282	20.903921
2771.862820	-2.975900	2.664500	-7.928600	28.692691	0.000280	20.888676
2772.861650	-3.010400	2.659000	-8.003400	28.715361	0.000281	20.892070
2773.864024	-2.983400	2.655400	-7.919000	28.761671	0.000282	20.887509
2774.861641	-3.011000	2.650400	-7.979400	28.759614	0.000283	20.871213
2775.863363	-3.013900	2.646700	-7.975800	28.772402	0.000281	20.877456
2776.866178	-2.993800	2.642300	-7.909300	28.757934	0.000283	20.896072
2777.864651	-3.012100	2.637100	-7.942200	28.771736	0.000281	20.883424
2778.865372	-2.984200	2.634400	-7.861200	28.765049	0.000281	20.870999
2779.864865	-2.962500	2.630800	-7.792700	28.775531	0.000282	20.892461
2780.869195	-3.013100	2.624100	-7.906300	28.744142	0.000281	20.885026
2781.873426	-2.991100	2.619800	-7.835100	28.701557	0.000283	20.866314
2782.864882	-3.005900	2.616100	-7.862500	28.600887	0.000282	20.901000
2783.866692	-2.979000	2.609900	-7.773700	28.589119	0.000283	20.896735
2784.868573	-2.998300	2.604600	-7.808300	28.558816	0.000282	20.863373
2785.864944	-2.987800	2.600100	-7.768000	28.493174	0.000280	20.877399
2786.865426	-2.987700	2.595200	-7.752500	28.482300	0.000281	20.885887
2787.870615	-2.986200	2.589300	-7.731500	28.488348	0.000283	20.882021
2788.866663	-2.999500	2.585200	-7.752900	28.524281	0.000282	20.885964
2789.870194	-3.018200	2.577000	-7.776700	28.545644	0.000282	20.868126
2790.867717	-2.994300	2.574800	-7.708500	28.572184	0.000282	20.882051
2791.867678	-3.000800	2.568300	-7.706200	28.626451	0.000281	20.855627
2792.870056	-3.003100	2.561200	-7.690900	28.640724	0.000284	20.854829
2793.871272	-3.013600	2.556700	-7.702700	28.665256	0.000282	20.896604
2794.869279	-3.024300	2.551900	-7.716700	28.607029	0.000281	20.896755
2795.872230	-3.003500	2.544400	-7.640700	28.599496	0.000279	20.871152
2796.869361	-2.991100	2.539100	-7.593700	28.613376	0.000279	20.878492
2797.871897	-3.023800	2.531900	-7.654400	28.640706	0.000279	20.875672
2798.873100	-2.975500	2.527700	-7.519200	28.627576	0.000281	20.868613
2799.874181	-3.011300	2.521200	-7.591000	28.645366	0.000279	20.863297
2800.869967	-3.011700	2.514600	-7.572400	28.677427	0.000280	20.869985
2801.871373	-2.996000	2.507000	-7.510400	28.685903	0.000279	20.879470
2802.870634	-2.991500	2.502800	-7.486200	28.696932	0.000279	20.862604
2803.871378	-2.977600	2.497200	-7.433500	28.741154	0.000279	20.854991
