LabVIEW Measurement	
Writer_Version	2
Reader_Version	2
Separator	Tab
Decimal_Separator	.
Multi_Headings	No
X_Columns	One
Time_Pref	Absolute
Operator	admin
Description	Clolumns are: time, Current, Voltage, Power, Battery Temp, and Chamber Temp
Date	2024/08/16
Time	13:06:06.104549407958984375
***End_of_Header***	
	
Channels	6						
Samples	1	1	1	1	1	1	
Date	2024/09/10	2024/09/10	2024/09/10	2024/09/10	2024/09/10	2024/09/10	
Time	21:50:26.1561350822448730469	21:50:26.162158966064453125	21:50:26.1681256294250488281	21:50:26.1310873031616210937	21:50:26.1310873031616210937	21:50:26.1310873031616210937	
X_Dimension	Time	Time	Time	Time	Time	Time	
X0	0.0000000000000000E+0	0.0000000000000000E+0	0.0000000000000000E+0	0.0000000000000000E+0	0.0000000000000000E+0	0.0000000000000000E+0	
Delta_X	1.000000	1.000000	1.000000	1.000000	1.000000	1.000000	
***End_of_Header***							
X_Value	Untitled	Untitled 1	Untitled 2	Untitled 3	Untitled 4	Untitled 5	Comment
0.000000	0.030534	4.094700	0.124960	20.978610	0.000910	20.736805
0.993326	-3.001400	3.919500	-11.763000	20.968581	0.000909	20.744792
1.996717	-3.011400	3.912700	-11.781000	20.971296	0.000908	20.756517
2.994094	-2.990200	3.907200	-11.682000	20.979934	0.000907	20.751880
3.997285	-3.002800	3.902900	-11.718000	20.976068	0.000907	20.741374
4.996375	-2.988300	3.900400	-11.654000	20.962646	0.000905	20.725105
5.992756	-3.024800	3.897600	-11.789000	20.983758	0.000907	20.753808
6.994436	-3.015300	3.894700	-11.743000	20.998504	0.000904	20.753383
7.991947	-3.015900	3.891500	-11.736000	20.987649	0.000905	20.752010
9.005340	-3.020500	3.889600	-11.747000	20.995389	0.000902	20.764967
10.003843	-3.008200	3.888100	-11.696000	21.006169	0.000901	20.749670
10.995787	-2.986200	3.887000	-11.606000	20.999163	0.000900	20.753095
12.001096	-2.982500	3.885500	-11.587000	20.985064	0.000900	20.755588
12.993826	-2.978800	3.885400	-11.573000	21.011317	0.000899	20.752448
14.000996	-2.999800	3.882400	-11.645000	20.985650	0.000900	20.756649
14.995878	-2.986100	3.881400	-11.588000	21.016858	0.000899	20.749930
16.007447	-2.989700	3.882100	-11.604000	21.019235	0.000897	20.773645
17.002608	-2.998800	3.880000	-11.633000	21.030434	0.000896	20.738377
18.012780	-2.987700	3.877900	-11.585000	21.041098	0.000895	20.771804
19.007516	-2.998600	3.878100	-11.626000	21.052942	0.000895	20.749986
20.007121	-2.995100	3.875700	-11.607000	21.024913	0.000896	20.748977
21.001143	-2.998600	3.874900	-11.618000	21.028028	0.000895	20.754464
21.998823	-2.990100	3.874100	-11.583000	21.040034	0.000893	20.769791
23.003742	-2.995400	3.873200	-11.601000	21.054034	0.000896	20.778105
23.997941	-2.977800	3.873800	-11.533000	21.053886	0.000894	20.749981
24.998855	-2.999900	3.872300	-11.615000	21.068785	0.000894	20.763936
26.004530	-3.011600	3.870100	-11.654000	21.085605	0.000894	20.737610
27.000926	-3.029500	3.869800	-11.723000	21.084786	0.000891	20.760975
28.007958	-3.005300	3.870800	-11.630000	21.082275	0.000893	20.748979
29.010370	-2.991000	3.869000	-11.571000	21.118049	0.000892	20.772435
30.022015	-3.017300	3.867100	-11.667000	21.090415	0.000890	20.751431
31.008774	-2.994800	3.868900	-11.586000	21.098153	0.000891	20.755379
32.005603	-3.004900	3.867300	-11.620000	21.127722	0.000892	20.754609
33.003235	-3.025600	3.865800	-11.695000	21.125197	0.000890	20.744971
34.008366	-3.016100	3.866800	-11.661000	21.140250	0.000892	20.749597
35.003950	-3.001000	3.865400	-11.598000	21.137567	0.000891	20.771096
36.015206	-2.999000	3.864600	-11.588000	21.163360	0.000888	20.771293
37.013774	-3.000500	3.863800	-11.593000	21.126468	0.000888	20.756200
38.006455	-2.979500	3.864900	-11.514000	21.147984	0.000891	20.780568
39.006230	-3.016600	3.861800	-11.649000	21.187253	0.000890	20.759157
40.007053	-2.992700	3.863300	-11.560000	21.187277	0.000892	20.770087
41.007349	-2.987100	3.863100	-11.538000	21.180820	0.000892	20.785914
42.007851	-2.985000	3.864800	-11.536000	21.217054	0.000890	20.747242
43.013085	-3.001900	3.861600	-11.590000	21.179984	0.000890	20.759947
44.007767	-3.021300	3.861000	-11.663000	21.207205	0.000890	20.768211
45.010666	-2.997900	3.861200	-11.575000	21.206289	0.000890	20.765397
46.007555	-2.988200	3.861500	-11.538000	21.226989	0.000888	20.759553
47.010991	-3.007500	3.860400	-11.609000	21.232782	0.000890	20.770564
48.010980	-2.995500	3.860800	-11.564000	21.236451	0.000889	20.775183
49.010423	-2.997100	3.859100	-11.565000	21.234710	0.000890	20.768225
50.010741	-2.989600	3.860000	-11.538000	21.215245	0.000888	20.763926
51.011133	-3.002400	3.859700	-11.586000	21.253005	0.000887	20.787950
52.011228	-3.011700	3.858700	-11.620000	21.254869	0.000886	20.771323
53.008879	-2.984300	3.857500	-11.511000	21.266578	0.000887	20.756957
54.011322	-2.995700	3.857400	-11.555000	21.282741	0.000887	20.763170
55.008150	-3.019300	3.855800	-11.640000	21.285887	0.000889	20.767265
56.011551	-3.000100	3.857100	-11.570000	21.292775	0.000890	20.792649
57.011016	-3.026900	3.855500	-11.669000	21.305940	0.000888	20.759352
58.011198	-3.006400	3.855000	-11.588000	21.296967	0.000887	20.776928
59.012506	-3.019800	3.854200	-11.638000	21.323680	0.000888	20.760978
60.010964	-2.977300	3.856000	-11.478000	21.333035	0.000887	20.797366
61.011331	-3.003600	3.855700	-11.580000	21.329749	0.000888	20.780328
62.015134	-2.992000	3.856100	-11.537000	21.326333	0.000887	20.785445
63.018444	-2.999000	3.853800	-11.557000	21.358764	0.000887	20.779959
64.014710	-3.019800	3.854200	-11.638000	21.358069	0.000888	20.791117
65.021199	-3.003100	3.854400	-11.573000	21.372311	0.000888	20.785926
66.017214	-2.996000	3.853700	-11.544000	21.398383	0.000885	20.776924
67.014409	-2.999700	3.853300	-11.557000	21.386880	0.000885	20.789596
68.019090	-2.996100	3.853200	-11.543000	21.374361	0.000886	20.788451
69.014827	-3.003500	3.852800	-11.571000	21.409136	0.000887	20.786259
70.013133	-2.992400	3.852200	-11.527000	21.408089	0.000887	20.796592
71.018837	-2.999200	3.854100	-11.558000	21.386241	0.000888	20.806026
72.019441	-3.013000	3.852400	-11.606000	21.405899	0.000888	20.816212
73.016862	-2.993800	3.852300	-11.531000	21.406780	0.000887	20.786747
74.020265	-3.010200	3.850400	-11.589000	21.428702	0.000888	20.808207
75.021542	-3.006000	3.851300	-11.576000	21.437078	0.000887	20.789087
76.017342	-3.010100	3.851600	-11.593000	21.444341	0.000887	20.796353
77.021401	-3.015200	3.850500	-11.609000	21.462797	0.000885	20.799174
78.024438	-3.004600	3.850500	-11.568000	21.461948	0.000887	20.808755
79.020193	-3.017400	3.849700	-11.615000	21.478190	0.000887	20.782332
80.023383	-2.974900	3.850800	-11.454000	21.499170	0.000887	20.791471
81.026014	-2.985300	3.850700	-11.494000	21.478074	0.000886	20.801657
82.019817	-2.979100	3.849100	-11.466000	21.478098	0.000889	20.800259
83.022513	-2.997000	3.848700	-11.533000	21.493859	0.000889	20.790424
84.023631	-2.993800	3.847900	-11.518000	21.513442	0.000886	20.775406
85.020675	-3.013900	3.848700	-11.599000	21.509928	0.000888	20.810771
86.024753	-3.006700	3.847400	-11.567000	21.520279	0.000888	20.788412
87.022759	-3.016100	3.848000	-11.604000	21.538064	0.000887	20.802415
88.021623	-3.038800	3.846300	-11.686000	21.544298	0.000887	20.793006
89.023263	-3.021500	3.846500	-11.621000	21.543400	0.000888	20.806331
90.027957	-3.009000	3.846900	-11.573000	21.574901	0.000889	20.799921
91.021046	-2.997400	3.847100	-11.530000	21.544312	0.000889	20.814830
92.025755	-3.005500	3.847600	-11.561000	21.584065	0.000889	20.774004
93.028288	-3.013400	3.846900	-11.591000	21.564189	0.000887	20.803900
94.023330	-2.995600	3.845800	-11.519000	21.588828	0.000888	20.825237
95.033872	-2.996400	3.846800	-11.525000	21.597789	0.000890	20.823298
96.025130	-3.017600	3.845700	-11.603000	21.601555	0.000889	20.809049
97.033128	-2.996900	3.845600	-11.523000	21.600386	0.000890	20.831113
98.024458	-2.990400	3.846400	-11.501000	21.611487	0.000891	20.817092
99.027156	-3.016000	3.844600	-11.594000	21.617850	0.000891	20.798330
100.025515	-2.982600	3.845300	-11.467000	21.599126	0.000889	20.800929
101.027152	-2.985800	3.846400	-11.484000	21.639596	0.000888	20.815824
102.027126	-2.999200	3.844000	-11.527000	21.642095	0.000890	20.828282
103.024925	-2.997500	3.842900	-11.519000	21.665329	0.000891	20.805540
104.031491	-3.002500	3.843900	-11.540000	21.663799	0.000889	20.791681
105.029659	-3.007300	3.844100	-11.558000	21.678430	0.000891	20.797789
106.026343	-3.008400	3.842000	-11.557000	21.685113	0.000890	20.815381
107.026263	-2.990300	3.844000	-11.494000	21.695567	0.000892	20.808775
108.029170	-2.994600	3.842900	-11.507000	21.700102	0.000891	20.828011
109.027747	-2.999900	3.841600	-11.522000	21.688657	0.000892	20.823196
110.029934	-3.000100	3.842200	-11.525000	21.697536	0.000890	20.804107
111.029929	-3.009700	3.840600	-11.558000	21.710156	0.000892	20.827642
112.029979	-2.991100	3.842100	-11.491000	21.734891	0.000891	20.817309
113.027610	-3.005700	3.841500	-11.545000	21.722513	0.000891	20.832422
114.028997	-3.008400	3.840700	-11.553000	21.746693	0.000894	20.849034
115.026805	-2.977800	3.839800	-11.433000	21.750458	0.000892	20.815820
116.031700	-3.000200	3.841200	-11.521000	21.761909	0.000892	20.824910
117.034111	-3.001400	3.840000	-11.524000	21.764432	0.000892	20.833124
118.029454	-3.006000	3.841100	-11.546000	21.788520	0.000893	20.803180
119.030520	-3.028500	3.839600	-11.627000	21.799637	0.000893	20.839910
120.032084	-2.981100	3.840100	-11.446000	21.794001	0.000894	20.832847
121.031750	-2.979600	3.841100	-11.444000	21.811937	0.000894	20.828987
122.030111	-2.997400	3.839600	-11.507000	21.813979	0.000895	20.822022
123.032611	-2.999700	3.839400	-11.516000	21.821990	0.000897	20.831463
124.031698	-3.020100	3.839900	-11.594000	21.850267	0.000896	20.825626
125.033779	-3.012800	3.838700	-11.564000	21.848070	0.000896	20.832910
126.035320	-2.979300	3.839800	-11.439000	21.849337	0.000897	20.845083
127.033295	-3.001900	3.837900	-11.518000	21.859250	0.000895	20.824660
128.037391	-3.007600	3.837700	-11.542000	21.861439	0.000897	20.851032
129.033398	-2.997200	3.837700	-11.500000	21.866724	0.000899	20.834037
130.033954	-2.990400	3.837700	-11.475000	21.880068	0.000898	20.835540
131.034459	-2.998300	3.836900	-11.503000	21.868071	0.000897	20.842498
132.040012	-3.003000	3.837100	-11.521000	21.875830	0.000896	20.839358
133.033686	-3.017900	3.835200	-11.573000	21.889272	0.000899	20.833373
134.034962	-2.957700	3.837900	-11.349000	21.897725	0.000897	20.843257
135.035393	-2.997900	3.836600	-11.500000	21.883988	0.000898	20.830929
136.033878	-2.997900	3.837800	-11.505000	21.884258	0.000900	20.808441
137.033577	-3.010200	3.836000	-11.546000	21.895241	0.000899	20.833184
138.038771	-3.008000	3.836100	-11.538000	21.910953	0.000900	20.809557
139.032351	-3.017600	3.835300	-11.573000	21.909182	0.000898	20.821060
140.036475	-3.008100	3.834900	-11.534000	21.921898	0.000899	20.836158
141.037364	-2.980900	3.834000	-11.426000	21.940070	0.000901	20.816891
142.035363	-2.984000	3.836300	-11.447000	21.924845	0.000902	20.822988
143.037424	-2.978000	3.835700	-11.422000	21.939031	0.000899	20.825808
144.038740	-3.000400	3.835000	-11.503000	21.971241	0.000901	20.821067
145.037473	-2.996100	3.835900	-11.490000	21.979970	0.000902	20.808943
146.038465	-2.989300	3.833700	-11.459000	21.971623	0.000902	20.822398
147.034635	-3.012100	3.833400	-11.545000	21.978918	0.000902	20.808363
148.034619	-2.993700	3.835000	-11.481000	21.972620	0.000903	20.819602
149.041291	-2.963000	3.834600	-11.360000	21.990921	0.000905	20.836499
150.037577	-3.001000	3.832400	-11.500000	21.994089	0.000904	20.817386
151.035474	-2.989000	3.832600	-11.455000	22.013860	0.000904	20.801142
152.035156	-2.999000	3.832400	-11.491000	22.016800	0.000904	20.792705
153.043538	-2.989600	3.833700	-11.460000	22.027768	0.000905	20.796572
154.035064	-3.023500	3.831000	-11.582000	22.033999	0.000905	20.815138
155.039054	-2.996200	3.832300	-11.481000	22.038188	0.000906	20.816487
156.047582	-2.992800	3.832600	-11.469000	22.036041	0.000905	20.803906
157.037249	-2.983200	3.832100	-11.431000	22.035833	0.000906	20.809863
158.040096	-2.990000	3.832700	-11.458000	22.064269	0.000908	20.809880
159.040283	-3.017500	3.830000	-11.556000	22.035728	0.000907	20.812602
160.040342	-3.008600	3.830000	-11.522000	22.020172	0.000909	20.788968
161.038035	-3.007000	3.831300	-11.517000	22.012249	0.000906	20.808538
162.034962	-3.015400	3.829100	-11.545000	22.044008	0.000907	20.809037
163.034759	-3.004300	3.829700	-11.504000	22.053790	0.000908	20.804131
164.045122	-3.005900	3.830300	-11.512000	22.056558	0.000909	20.778927
165.037174	-3.009400	3.830400	-11.526000	22.063336	0.000910	20.782867
166.040956	-2.999800	3.830000	-11.487000	22.056035	0.000910	20.787886
167.044589	-3.006300	3.829300	-11.511000	22.076654	0.000911	20.801416
168.039039	-2.992600	3.828200	-11.455000	22.098458	0.000909	20.798114
169.038115	-2.987700	3.829900	-11.441000	22.106492	0.000910	20.786717
170.045259	-2.966100	3.829300	-11.356000	22.093459	0.000910	20.785523
171.040973	-3.001700	3.827300	-11.487000	22.126710	0.000911	20.785147
172.038249	-2.988400	3.829700	-11.444000	22.143956	0.000911	20.796723
173.039271	-3.029400	3.825900	-11.588000	22.129485	0.000912	20.777019
174.042188	-2.993300	3.828100	-11.457000	22.147857	0.000913	20.804896
175.041101	-3.001600	3.826000	-11.483000	22.161117	0.000913	20.785456
176.039104	-2.966500	3.828700	-11.356000	22.174125	0.000912	20.797057
177.047819	-3.008000	3.827500	-11.511000	22.189532	0.000913	20.797310
178.040422	-2.996300	3.826800	-11.465000	22.169046	0.000915	20.787704
179.039005	-2.999100	3.826200	-11.474000	22.183523	0.000916	20.786552
180.042291	-2.995600	3.827200	-11.464000	22.183179	0.000917	20.765818
181.042396	-2.999600	3.826700	-11.479000	22.167102	0.000918	20.779120
182.042099	-2.983600	3.827000	-11.416000	22.200228	0.000916	20.785259
183.041953	-2.996300	3.825500	-11.462000	22.168653	0.000918	20.774982
184.041306	-2.994400	3.825400	-11.454000	22.173610	0.000918	20.789428
185.041451	-2.991100	3.825400	-11.442000	22.206515	0.000916	20.791553
186.044847	-3.000200	3.824800	-11.474000	22.207430	0.000920	20.782038
187.042284	-2.972400	3.826800	-11.373000	22.191711	0.000920	20.780050
188.042132	-3.014500	3.823800	-11.526000	22.214867	0.000918	20.778579
189.044818	-3.005500	3.823700	-11.491000	22.212997	0.000919	20.771491
190.043284	-3.010200	3.823500	-11.509000	22.227057	0.000921	20.811172
191.043187	-3.002500	3.824500	-11.482000	22.221399	0.000919	20.787964
192.044032	-3.016700	3.821800	-11.528000	22.236381	0.000922	20.780679
193.044321	-3.008800	3.825100	-11.508000	22.242211	0.000921	20.774662
194.043811	-2.979800	3.824300	-11.394000	22.240113	0.000923	20.785364
195.048631	-3.004500	3.822000	-11.482000	22.260206	0.000921	20.781301
196.046692	-2.998700	3.823000	-11.463000	22.244873	0.000924	20.749827
197.051830	-3.004800	3.822700	-11.485000	22.240464	0.000924	20.777181
198.047420	-2.987500	3.823600	-11.421000	22.245168	0.000926	20.770037
199.045919	-3.019400	3.820700	-11.534000	22.266779	0.000925	20.781719
200.046516	-3.022700	3.821100	-11.549000	22.253773	0.000925	20.762057
201.049052	-2.998500	3.821400	-11.457000	22.272504	0.000927	20.760898
202.049009	-3.001800	3.821200	-11.470000	22.274928	0.000925	20.795568
203.048440	-2.990800	3.821700	-11.428000	22.295764	0.000927	20.779920
204.053319	-2.979800	3.822300	-11.389000	22.310043	0.000926	20.776675
205.051384	-2.977200	3.822700	-11.380000	22.325189	0.000927	20.781884
206.054320	-3.002400	3.821200	-11.471000	22.371046	0.000929	20.780862
207.057229	-2.996200	3.820800	-11.447000	22.365764	0.000926	20.756606
208.054860	-3.007900	3.819600	-11.488000	22.371039	0.000928	20.772794
209.055806	-2.974000	3.822100	-11.366000	22.367332	0.000928	20.765288
210.054745	-2.994800	3.819800	-11.438000	22.375707	0.000929	20.760873
211.051269	-3.003400	3.819700	-11.471000	22.366329	0.000927	20.778983
212.053833	-3.015700	3.820200	-11.519000	22.347143	0.000929	20.749813
213.054279	-3.001700	3.817600	-11.458000	22.344228	0.000931	20.774396
214.056966	-3.025500	3.818000	-11.550000	22.350605	0.000930	20.778410
215.054880	-2.996600	3.818800	-11.442000	22.352972	0.000933	20.762289
216.052861	-3.016700	3.817200	-11.514000	22.376974	0.000931	20.769728
217.052633	-3.012700	3.817600	-11.501000	22.393392	0.000933	20.779531
218.053380	-3.013900	3.817000	-11.503000	22.418659	0.000931	20.775435
219.066028	-3.004500	3.817800	-11.470000	22.408838	0.000933	20.759437
220.060010	-3.004900	3.816100	-11.466000	22.429622	0.000933	20.768871
221.052655	-3.023600	3.816900	-11.540000	22.456032	0.000934	20.763550
222.059385	-3.014700	3.816300	-11.504000	22.449077	0.000934	20.765120
223.051538	-2.989500	3.818400	-11.412000	22.466423	0.000934	20.767793
224.063736	-3.018200	3.815200	-11.514000	22.473722	0.000938	20.770834
225.052033	-2.979300	3.817700	-11.373000	22.498937	0.000935	20.737291
226.053347	-2.989800	3.815300	-11.406000	22.507207	0.000937	20.773549
227.055018	-3.034700	3.814300	-11.574000	22.486670	0.000938	20.774793
228.056373	-2.998400	3.815100	-11.437000	22.498783	0.000937	20.778389
229.059913	-3.006400	3.815600	-11.470000	22.495813	0.000940	20.771147
230.056202	-2.987100	3.816600	-11.400000	22.498303	0.000940	20.746139
231.056732	-3.008800	3.814700	-11.476000	22.523918	0.000938	20.754249
232.053092	-3.012900	3.813900	-11.489000	22.533737	0.000939	20.765032
233.053236	-3.011100	3.814300	-11.483000	22.525363	0.000941	20.754274
234.054902	-3.015800	3.813800	-11.501000	22.532065	0.000940	20.761460
235.065177	-3.016100	3.813000	-11.498000	22.524139	0.000942	20.754470
236.052895	-3.024900	3.812500	-11.531000	22.536701	0.000941	20.731963
237.062550	-2.998100	3.813900	-11.434000	22.551689	0.000943	20.755036
238.059740	-2.997300	3.814100	-11.431000	22.546187	0.000943	20.761379
239.057695	-3.010800	3.813300	-11.480000	22.548677	0.000942	20.766718
240.058975	-3.010200	3.811800	-11.473000	22.538956	0.000944	20.753663
241.065919	-3.003000	3.813100	-11.451000	22.546401	0.000945	20.763016
242.060683	-2.987900	3.812900	-11.392000	22.557746	0.000945	20.744980
243.063625	-2.989900	3.813200	-11.400000	22.545037	0.000944	20.759753
244.062077	-2.996900	3.811700	-11.422000	22.578594	0.000947	20.761594
245.058244	-2.995700	3.812500	-11.420000	22.577223	0.000946	20.762591
246.071280	-2.995000	3.811400	-11.414000	22.584773	0.000946	20.743125
247.061622	-2.983100	3.811100	-11.368000	22.581834	0.000946	20.750140
248.060851	-2.999700	3.810900	-11.430000	22.569574	0.000948	20.754931
249.060555	-2.984000	3.810300	-11.369000	22.574375	0.000947	20.756420
250.063977	-2.996100	3.809600	-11.413000	22.588062	0.000949	20.750213
251.058565	-2.982000	3.810200	-11.361000	22.584601	0.000949	20.740108
252.064928	-3.004800	3.809600	-11.445000	22.582904	0.000949	20.733192
253.066625	-2.987200	3.810000	-11.380000	22.583377	0.000950	20.763065
254.058796	-2.988300	3.809500	-11.383000	22.602468	0.000951	20.735243
255.063264	-3.004200	3.809100	-11.442000	22.583401	0.000950	20.755503
256.059792	-2.997400	3.808900	-11.415000	22.584829	0.000953	20.739388
257.066041	-3.015800	3.809100	-11.485000	22.588265	0.000951	20.755633
258.060422	-2.987800	3.810900	-11.385000	22.613510	0.000953	20.758158
259.064095	-3.008000	3.807700	-11.452000	22.613847	0.000953	20.739529
260.060123	-2.997300	3.809500	-11.417000	22.633638	0.000953	20.750343
261.065305	-3.022600	3.806700	-11.505000	22.641784	0.000953	20.742381
262.064105	-3.022700	3.807800	-11.509000	22.651830	0.000955	20.741064
263.062963	-2.995100	3.808300	-11.405000	22.684378	0.000956	20.738102
264.061832	-3.007600	3.806600	-11.448000	22.673883	0.000953	20.724745
265.062571	-2.993000	3.807900	-11.395000	22.682582	0.000953	20.749107
266.068614	-2.997900	3.807100	-11.412000	22.655354	0.000957	20.749809
267.063024	-3.011900	3.805600	-11.461000	22.658286	0.000957	20.755591
268.070427	-3.009200	3.805000	-11.449000	22.677081	0.000957	20.741225
269.065175	-3.008800	3.806100	-11.450000	22.664724	0.000957	20.738331
270.067348	-2.994200	3.806200	-11.395000	22.688214	0.000959	20.748109
271.070281	-3.004100	3.805700	-11.430000	22.677000	0.000957	20.738773
272.069285	-3.002100	3.806400	-11.426000	22.685300	0.000958	20.748984
273.065696	-2.994500	3.803900	-11.388000	22.673122	0.000958	20.732518
274.066720	-3.010700	3.804800	-11.454000	22.695868	0.000959	20.731120
275.069039	-3.017900	3.804000	-11.478000	22.725494	0.000959	20.732346
276.068672	-2.987200	3.804600	-11.363000	22.737783	0.000960	20.745605
277.075849	-3.016700	3.802800	-11.470000	22.714256	0.000962	20.722036
278.074145	-3.009400	3.803600	-11.444000	22.731598	0.000963	20.738461
279.070614	-3.024100	3.801000	-11.493000	22.729729	0.000963	20.734692
280.074396	-3.016000	3.802800	-11.468000	22.753372	0.000963	20.767385
281.070138	-3.022500	3.801400	-11.489000	22.738477	0.000964	20.740610
282.074137	-3.006500	3.802200	-11.430000	22.757460	0.000964	20.734495
283.069452	-3.000600	3.802500	-11.408000	22.777235	0.000963	20.744822
284.070967	-3.003700	3.801700	-11.417000	22.796764	0.000967	20.733564
285.073633	-2.980200	3.802000	-11.330000	22.804769	0.000964	20.712184
286.072766	-2.994700	3.801300	-11.382000	22.809870	0.000966	20.732468
287.074228	-2.996500	3.802700	-11.391000	22.824599	0.000966	20.726360
288.075743	-2.994700	3.801400	-11.384000	22.831741	0.000967	20.739680
289.071244	-2.997000	3.801700	-11.392000	22.830647	0.000967	20.716771
290.069239	-3.015300	3.800200	-11.458000	22.851024	0.000968	20.731496
291.074597	-3.003400	3.800600	-11.414000	22.863305	0.000970	20.736687
292.070374	-2.993200	3.800700	-11.374000	22.862211	0.000968	20.723262
293.072737	-3.014900	3.799500	-11.454000	22.835787	0.000969	20.741362
294.076299	-2.994700	3.801400	-11.383000	22.838023	0.000970	20.722739
295.075945	-2.994800	3.799900	-11.378000	22.836334	0.000968	20.717727
296.077368	-3.010800	3.800300	-11.441000	22.835362	0.000971	20.711538
297.074234	-3.010900	3.799300	-11.438000	22.865310	0.000970	20.727316
298.073662	-2.998400	3.798100	-11.387000	22.845432	0.000971	20.728738
299.072747	-3.006900	3.797300	-11.416000	22.873591	0.000971	20.727551
300.079532	-2.997700	3.798600	-11.385000	22.889798	0.000973	20.719606
301.081589	-3.000600	3.798500	-11.398000	22.905897	0.000973	20.740951
302.076643	-2.996200	3.797200	-11.376000	22.863873	0.000973	20.728246
303.084587	-2.982000	3.798700	-11.327000	22.891225	0.000972	20.722458
304.075749	-3.024800	3.796900	-11.484000	22.862183	0.000972	20.731295
305.078860	-3.022900	3.795500	-11.472000	22.854887	0.000974	20.720666
306.080256	-3.012100	3.797100	-11.436000	22.852790	0.000973	20.728050
307.082748	-3.001500	3.795400	-11.391000	22.877882	0.000973	20.722366
308.078430	-3.012700	3.795300	-11.433000	22.887151	0.000975	20.707944
309.080669	-3.013500	3.794800	-11.435000	22.896470	0.000976	20.694519
310.087642	-3.018800	3.795400	-11.457000	22.882345	0.000976	20.707870
311.079625	-3.015400	3.795300	-11.443000	22.919366	0.000977	20.701337
312.084937	-3.017700	3.793700	-11.447000	22.913662	0.000977	20.697045
313.080960	-3.020500	3.795500	-11.463000	22.893139	0.000978	20.692131
314.086270	-3.008800	3.794300	-11.416000	22.905003	0.000977	20.695482
315.084536	-3.021900	3.793300	-11.462000	22.914991	0.000977	20.705489
316.079123	-3.013600	3.793100	-11.431000	22.929613	0.000978	20.709707
317.086734	-2.989900	3.794200	-11.343000	22.943688	0.000979	20.704843
318.081134	-3.043400	3.791400	-11.537000	22.938556	0.000979	20.709658
319.082750	-2.978000	3.794700	-11.300000	22.925687	0.000980	20.690125
320.080998	-2.988800	3.792600	-11.334000	22.928950	0.000981	20.705250
321.086252	-3.001900	3.792600	-11.385000	22.927033	0.000983	20.693845
322.085610	-3.004700	3.792400	-11.393000	22.909921	0.000981	20.696616
323.087474	-3.008200	3.792600	-11.406000	22.906878	0.000981	20.694041
324.083085	-2.990200	3.791700	-11.337000	22.948810	0.000982	20.698120
325.083347	-3.003300	3.792500	-11.389000	22.958668	0.000982	20.703729
326.086932	-3.012000	3.790700	-11.417000	22.983904	0.000983	20.695822
327.084585	-2.984100	3.792600	-11.317000	23.001635	0.000982	20.702682
328.083210	-2.994500	3.792000	-11.354000	22.999164	0.000986	20.700206
329.090103	-2.986600	3.792100	-11.324000	23.018468	0.000983	20.710066
330.091161	-2.994300	3.791800	-11.353000	22.997793	0.000985	20.696462
331.086133	-3.011400	3.789600	-11.411000	22.979540	0.000984	20.704727
332.091799	-3.012500	3.791000	-11.419000	22.972441	0.000987	20.676749
333.087769	-3.008700	3.789000	-11.399000	22.949055	0.000985	20.706901
334.084549	-3.021300	3.787900	-11.444000	22.955828	0.000986	20.696142
335.084308	-3.001100	3.789100	-11.370000	22.956670	0.000986	20.687027
336.082247	-3.001000	3.789700	-11.372000	22.987880	0.000987	20.717351
337.085011	-3.005900	3.788900	-11.388000	22.997628	0.000986	20.693926
338.088732	-3.006300	3.789100	-11.390000	22.983824	0.000985	20.679145
339.086327	-3.000000	3.788600	-11.364000	23.022801	0.000988	20.677420
340.086285	-3.020900	3.787700	-11.442000	23.031995	0.000987	20.704179
341.084161	-3.010300	3.787900	-11.401000	23.043475	0.000988	20.691498
342.089272	-3.001500	3.788000	-11.368000	23.056775	0.000990	20.692970
343.090239	-3.001800	3.786900	-11.367000	23.087281	0.000991	20.695088
344.089903	-3.006000	3.786700	-11.381000	23.057420	0.000991	20.686504
345.088854	-3.006500	3.785200	-11.380000	23.075850	0.000992	20.683160
346.086939	-3.004700	3.787300	-11.379000	23.074921	0.000991	20.704516
347.089587	-3.002300	3.785600	-11.365000	23.105066	0.000992	20.690624
348.089274	-3.003400	3.786400	-11.371000	23.109914	0.000990	20.690740
349.092875	-2.998900	3.786100	-11.353000	23.097894	0.000992	20.700508
350.091809	-3.002100	3.785200	-11.363000	23.099282	0.000992	20.703796
351.086992	-2.999100	3.784600	-11.349000	23.110941	0.000993	20.699830
352.092262	-3.024100	3.783400	-11.440000	23.085584	0.000993	20.673472
353.088034	-2.993400	3.784800	-11.329000	23.126409	0.000994	20.687354
354.088418	-3.007500	3.783300	-11.377000	23.093636	0.000993	20.692921
355.090821	-2.999900	3.784200	-11.352000	23.134232	0.000994	20.706100
356.101460	-3.001400	3.782400	-11.352000	23.110068	0.000994	20.692317
357.092188	-3.005900	3.783200	-11.371000	23.126261	0.000994	20.702854
358.092650	-3.008700	3.783500	-11.382000	23.140352	0.000994	20.699904
359.095772	-3.004800	3.782400	-11.364000	23.138361	0.000995	20.697435
360.096745	-2.982000	3.782700	-11.278000	23.149170	0.000998	20.693093
361.104401	-2.989200	3.783000	-11.307000	23.139339	0.000996	20.701734
362.090827	-2.986000	3.781000	-11.288000	23.120215	0.000996	20.687311
363.099941	-2.994900	3.782600	-11.327000	23.121431	0.000999	20.705127
364.101618	-2.996700	3.781000	-11.330000	23.107881	0.001000	20.699609
365.097034	-2.996600	3.781100	-11.329000	23.145017	0.000998	20.698889
366.097940	-3.021200	3.779800	-11.418000	23.173807	0.000999	20.680321
367.101656	-3.002100	3.780300	-11.348000	23.182625	0.000999	20.688211
368.093582	-3.009200	3.779500	-11.372000	23.190644	0.000999	20.688186
369.092638	-3.004700	3.778600	-11.353000	23.212255	0.000999	20.689454
370.097334	-3.014600	3.779400	-11.391000	23.244011	0.001002	20.691881
371.097778	-3.009800	3.778600	-11.371000	23.240454	0.000999	20.696377
372.090723	-2.990600	3.779000	-11.301000	23.252233	0.001001	20.701544
373.105062	-2.999200	3.778400	-11.332000	23.274218	0.001003	20.700817
374.100163	-3.011100	3.779600	-11.380000	23.270741	0.001002	20.680262
375.095050	-3.019700	3.777200	-11.405000	23.269511	0.001003	20.692780
376.099601	-3.022500	3.777500	-11.417000	23.293900	0.001001	20.698257
377.100002	-2.996200	3.778100	-11.319000	23.300621	0.001004	20.692665
378.095652	-2.989400	3.777800	-11.292000	23.302619	0.001002	20.692296
379.102589	-3.015100	3.776400	-11.385000	23.298305	0.001002	20.700301
380.097428	-3.033600	3.774700	-11.450000	23.299878	0.001004	20.682436
381.097143	-2.996500	3.775000	-11.311000	23.305181	0.001003	20.681112
382.100977	-2.994700	3.775800	-11.306000	23.268628	0.001003	20.692844
383.101957	-3.000400	3.775200	-11.325000	23.281802	0.001004	20.698934
384.095585	-2.990000	3.775600	-11.289000	23.290318	0.001007	20.671905
385.098926	-2.971200	3.777300	-11.221000	23.328917	0.001003	20.692099
386.102581	-2.996700	3.774400	-11.309000	23.371014	0.001003	20.688773
387.096335	-2.971200	3.775800	-11.218000	23.333518	0.001006	20.697185
388.103001	-2.985200	3.774500	-11.266000	23.370615	0.001006	20.699753
389.105942	-2.969100	3.774700	-11.206000	23.364262	0.001005	20.710930
390.102765	-2.980900	3.774700	-11.251000	23.356521	0.001007	20.703645
391.108784	-2.994100	3.774100	-11.299000	23.368723	0.001005	20.707340
392.105630	-3.014300	3.773400	-11.373000	23.334334	0.001008	20.694684
393.106936	-2.992300	3.771900	-11.285000	23.325640	0.001006	20.701144
394.101264	-2.981500	3.772900	-11.247000	23.329344	0.001007	20.691105
395.098279	-2.989800	3.773100	-11.280000	23.325020	0.001010	20.687245
396.102031	-3.010900	3.771000	-11.353000	23.351180	0.001008	20.698292
397.101972	-3.001700	3.771300	-11.319000	23.369010	0.001008	20.695773
398.104074	-2.996500	3.772100	-11.300000	23.356139	0.001009	20.709426
399.103187	-3.018500	3.769800	-11.378000	23.379761	0.001008	20.696592
400.107571	-3.035100	3.769500	-11.440000	23.409116	0.001007	20.698513
401.109938	-3.021400	3.769900	-11.389000	23.394157	0.001007	20.690631
402.105967	-3.012900	3.769800	-11.357000	23.401253	0.001009	20.694899
403.106268	-3.003500	3.769700	-11.321000	23.405258	0.001009	20.702233
404.106950	-3.009800	3.768500	-11.342000	23.414001	0.001011	20.700090
405.104623	-2.992500	3.769400	-11.279000	23.402591	0.001008	20.656407
406.106245	-2.990600	3.769100	-11.271000	23.444546	0.001008	20.699412
407.109167	-3.006800	3.768200	-11.330000	23.419425	0.001012	20.690827
408.107875	-3.022700	3.768400	-11.390000	23.428536	0.001011	20.693321
409.104372	-3.015000	3.767300	-11.358000	23.412347	0.001009	20.691319
410.103031	-2.991800	3.769100	-11.275000	23.423381	0.001012	20.708071
411.102335	-3.005600	3.766500	-11.320000	23.398081	0.001010	20.695513
412.104855	-3.007000	3.766400	-11.324000	23.409435	0.001013	20.679391
413.109154	-2.979100	3.768100	-11.224000	23.412501	0.001012	20.694793
414.104750	-2.974300	3.767400	-11.204000	23.425869	0.001012	20.702977
415.115612	-2.988400	3.767200	-11.256000	23.423038	0.001014	20.679749
416.107106	-2.983100	3.766700	-11.235000	23.414744	0.001011	20.709844
417.106022	-2.978900	3.766200	-11.218000	23.442794	0.001016	20.702872
418.110371	-2.994000	3.765500	-11.273000	23.445296	0.001016	20.694948
419.110358	-2.973500	3.766900	-11.200000	23.465483	0.001015	20.699061
420.103955	-2.986000	3.765000	-11.241000	23.463272	0.001013	20.715812
421.123998	-2.985800	3.765500	-11.243000	23.488483	0.001013	20.698882
422.107774	-2.977600	3.765100	-11.210000	23.497926	0.001014	20.717832
423.109887	-3.004600	3.764100	-11.309000	23.484036	0.001013	20.710547
424.111136	-2.997300	3.763700	-11.279000	23.495039	0.001016	20.704980
425.107748	-3.002700	3.763000	-11.298000	23.507491	0.001015	20.720782
426.115166	-3.009400	3.762700	-11.322000	23.532064	0.001016	20.707955
427.118419	-3.000200	3.762800	-11.288000	23.547452	0.001016	20.711527
428.110003	-3.011800	3.763200	-11.333000	23.533637	0.001016	20.704790
429.106999	-3.015700	3.761000	-11.341000	23.554001	0.001016	20.709556
430.114038	-2.984300	3.763000	-11.229000	23.524061	0.001016	20.691396
431.110591	-3.015400	3.761000	-11.339000	23.545487	0.001016	20.698650
432.114683	-2.986900	3.761000	-11.232000	23.541065	0.001016	20.713185
433.114287	-3.009700	3.760400	-11.317000	23.550353	0.001016	20.713013
434.112849	-2.986800	3.760200	-11.231000	23.536938	0.001018	20.712366
435.109098	-2.992800	3.760200	-11.253000	23.545655	0.001017	20.704035
436.114704	-3.006400	3.760300	-11.303000	23.535315	0.001016	20.696988
437.124581	-3.021000	3.758800	-11.353000	23.555066	0.001018	20.701615
438.109455	-2.995400	3.758300	-11.257000	23.568913	0.001017	20.726402
439.117354	-2.997800	3.759200	-11.268000	23.568944	0.001017	20.713631
440.124742	-2.988000	3.759800	-11.234000	23.572034	0.001019	20.693968
441.120852	-3.014800	3.757700	-11.327000	23.594135	0.001016	20.711857
442.117621	-3.021200	3.756300	-11.347000	23.576396	0.001018	20.713041
443.117601	-3.003000	3.757000	-11.282000	23.618418	0.001019	20.716286
444.117292	-3.004500	3.757100	-11.285000	23.608044	0.001018	20.693557
445.111337	-2.987300	3.757200	-11.223000	23.575457	0.001018	20.723006
446.119900	-2.988900	3.756300	-11.225000	23.571502	0.001017	20.703392
447.115505	-2.986700	3.756900	-11.220000	23.558584	0.001018	20.725057
448.120482	-2.999900	3.756700	-11.269000	23.568296	0.001020	20.697333
449.113276	-2.988200	3.756400	-11.225000	23.588813	0.001020	20.720747
450.114441	-3.008900	3.755400	-11.298000	23.616670	0.001020	20.702205
451.115613	-2.998900	3.755400	-11.261000	23.625811	0.001021	20.709472
452.122958	-2.985000	3.756800	-11.213000	23.630019	0.001019	20.712742
453.117515	-3.003200	3.755600	-11.278000	23.624539	0.001021	20.722897
454.114454	-2.998800	3.755100	-11.260000	23.640603	0.001021	20.726199
455.118590	-3.007200	3.754400	-11.289000	23.635824	0.001021	20.729469
456.115030	-2.990300	3.753900	-11.223000	23.703057	0.001020	20.707730
457.125775	-3.012400	3.752900	-11.304000	23.715353	0.001020	20.720059
458.128952	-3.023700	3.752100	-11.344000	23.713265	0.001021	20.718914
459.132057	-2.993000	3.753300	-11.233000	23.694901	0.001020	20.715201
460.124411	-2.980200	3.754200	-11.188000	23.693009	0.001020	20.723736
461.125102	-3.002300	3.750800	-11.260000	23.698856	0.001022	20.717744
462.121656	-2.995100	3.752000	-11.236000	23.690890	0.001021	20.718292
463.124495	-3.006600	3.750300	-11.274000	23.684104	0.001022	20.710540
464.125828	-2.999600	3.751300	-11.250000	23.670862	0.001022	20.726188
465.119811	-2.991200	3.751500	-11.220000	23.678478	0.001022	20.731453
466.118671	-2.991700	3.750100	-11.217000	23.656753	0.001023	20.724372
467.126105	-3.010600	3.749600	-11.288000	23.669996	0.001023	20.727692
468.126293	-2.983200	3.750300	-11.186000	23.706290	0.001022	20.715240
469.122335	-3.007700	3.750400	-11.280000	23.704903	0.001024	20.709581
470.124733	-3.004100	3.749500	-11.263000	23.706494	0.001022	20.711176
471.123890	-2.997000	3.749000	-11.234000	23.724815	0.001021	20.732391
472.133325	-2.993000	3.750000	-11.224000	23.746220	0.001023	20.721134
473.124078	-3.011300	3.747800	-11.284000	23.760887	0.001023	20.728254
474.119977	-2.995000	3.748400	-11.225000	23.770825	0.001024	20.733003
475.124342	-2.987200	3.749600	-11.199000	23.796803	0.001023	20.705468
476.124672	-3.002300	3.747500	-11.249000	23.787058	0.001024	20.715138
477.125390	-2.984800	3.747400	-11.184000	23.803788	0.001022	20.735233
478.124223	-2.980300	3.747900	-11.168000	23.836393	0.001024	20.739002
479.129914	-3.011200	3.745700	-11.278000	23.824441	0.001023	20.713266
480.131910	-3.011600	3.745700	-11.279000	23.820942	0.001024	20.734415
481.123508	-3.019500	3.744100	-11.304000	23.818455	0.001024	20.715799
482.126040	-2.984300	3.747500	-11.183000	23.853000	0.001023	20.739058
483.125546	-2.989400	3.744600	-11.193000	23.858829	0.001024	20.729255
484.126635	-3.004100	3.745100	-11.248000	23.873137	0.001025	20.703772
485.128142	-3.011400	3.744100	-11.274000	23.879113	0.001025	20.739164
486.123969	-2.990300	3.743900	-11.195000	23.874311	0.001024	20.731503
487.131334	-3.004900	3.744100	-11.250000	23.893747	0.001026	20.732501
488.130582	-3.000500	3.743900	-11.230000	23.856895	0.001025	20.718307
489.128147	-3.007600	3.742100	-11.254000	23.879575	0.001025	20.730144
490.126917	-2.993300	3.744000	-11.206000	23.888609	0.001026	20.726400
491.138052	-2.991900	3.743400	-11.199000	23.930489	0.001025	20.743266
492.125957	-2.993100	3.743400	-11.204000	23.921414	0.001026	20.764987
493.130069	-3.020800	3.741400	-11.301000	23.916644	0.001025	20.728908
494.127268	-3.004000	3.742100	-11.241000	23.920224	0.001026	20.741981
495.127369	-3.031800	3.740000	-11.338000	23.918682	0.001026	20.733797
496.126957	-3.018400	3.740600	-11.289000	23.914157	0.001026	20.742536
497.132525	-2.998800	3.740900	-11.217000	23.884367	0.001025	20.740165
498.130411	-2.980600	3.742500	-11.153000	23.888280	0.001027	20.736502
499.130953	-3.005800	3.740300	-11.241000	23.893702	0.001027	20.756164
500.135873	-3.019600	3.739400	-11.291000	23.906868	0.001025	20.744710
501.130917	-3.004300	3.739900	-11.235000	23.882735	0.001024	20.738528
502.133045	-3.029000	3.738000	-11.321000	23.878823	0.001027	20.725121
503.131835	-3.015500	3.738700	-11.274000	23.899499	0.001025	20.724991
504.129438	-2.987100	3.739800	-11.170000	23.912322	0.001025	20.729315
505.137595	-3.015200	3.738200	-11.270000	23.908564	0.001025	20.728866
506.138010	-2.999700	3.739500	-11.216000	23.923204	0.001024	20.717468
507.132401	-2.994000	3.739300	-11.194000	23.936437	0.001025	20.747334
508.133958	-3.024500	3.736500	-11.300000	23.923327	0.001026	20.744619
509.135239	-3.020500	3.736500	-11.284000	23.927681	0.001026	20.729069
510.137017	-3.007300	3.736600	-11.236000	23.962874	0.001026	20.748240
511.135632	-3.005200	3.737600	-11.231000	23.933110	0.001026	20.728824
512.135198	-3.009900	3.737500	-11.248000	23.940602	0.001025	20.750562
513.142001	-3.011100	3.735900	-11.247000	23.947123	0.001026	20.730548
514.134854	-2.993000	3.735800	-11.180000	23.914497	0.001027	20.749041
515.138902	-2.986000	3.736900	-11.157000	23.904795	0.001026	20.758753
516.142023	-3.002300	3.736400	-11.217000	23.900767	0.001024	20.752817
517.136391	-3.005600	3.734400	-11.223000	23.911016	0.001024	20.754559
518.145247	-3.002500	3.734900	-11.213000	23.893895	0.001026	20.737391
519.138019	-3.000800	3.734900	-11.206000	23.901933	0.001026	20.755883
520.136280	-2.985000	3.735100	-11.147000	23.908137	0.001027	20.740292
521.142729	-3.013500	3.732000	-11.245000	23.912059	0.001027	20.746122
522.137179	-3.003600	3.732900	-11.211000	23.918172	0.001025	20.749881
523.141892	-3.005300	3.733900	-11.220000	23.943372	0.001026	20.750021
524.144278	-2.990200	3.733500	-11.163000	23.936083	0.001025	20.754092
525.142737	-2.997800	3.733400	-11.192000	23.927923	0.001026	20.757763
526.144199	-2.999300	3.732000	-11.192000	23.945141	0.001026	20.762701
527.142500	-2.987500	3.733100	-11.152000	23.937250	0.001025	20.773280
528.142620	-3.014000	3.731000	-11.244000	23.945288	0.001028	20.789401
529.135540	-3.005000	3.731500	-11.212000	23.949463	0.001028	20.767983
530.139525	-3.031900	3.729600	-11.307000	23.955046	0.001028	20.763625
531.137342	-3.006200	3.730000	-11.212000	23.961739	0.001027	20.754689
532.142156	-3.019300	3.729200	-11.259000	23.974831	0.001029	20.772560
533.154502	-2.993200	3.731200	-11.166000	24.009445	0.001027	20.752269
534.139060	-2.987500	3.730200	-11.143000	24.018901	0.001028	20.775503
535.141279	-3.004800	3.728100	-11.200000	24.010439	0.001024	20.770337
536.145511	-2.985300	3.729000	-11.132000	24.022389	0.001026	20.774260
537.140934	-3.018700	3.727800	-11.252000	24.033256	0.001025	20.763347
538.149292	-2.991500	3.728800	-11.154000	24.029498	0.001027	20.777597
539.142318	-3.005000	3.728500	-11.203000	24.053944	0.001026	20.765128
540.140684	-2.992800	3.727300	-11.153000	24.066660	0.001026	20.749431
541.144938	-3.029900	3.726900	-11.292000	24.091024	0.001026	20.754900
542.144858	-3.016000	3.726700	-11.238000	24.083085	0.001025	20.776810
543.147320	-2.994300	3.726500	-11.157000	24.056714	0.001027	20.754630
544.150087	-2.968500	3.727800	-11.064000	24.029814	0.001029	20.764162
545.154399	-3.005100	3.726300	-11.197000	24.028973	0.001027	20.784657
546.146744	-3.024800	3.724800	-11.266000	24.041560	0.001027	20.786848
547.147558	-3.013000	3.724000	-11.220000	24.044772	0.001028	20.770154
548.155602	-3.018400	3.724900	-11.243000	24.036310	0.001029	20.774945
549.150169	-3.007900	3.726000	-11.206000	24.069266	0.001025	20.787607
550.146143	-3.034900	3.724100	-11.301000	24.083368	0.001027	20.786578
551.148904	-3.015300	3.723600	-11.227000	24.084444	0.001028	20.750197
552.158057	-2.999300	3.724800	-11.171000	24.101397	0.001025	20.787116
553.155417	-2.986900	3.724500	-11.123000	24.079145	0.001025	20.762427
554.151069	-2.991900	3.724100	-11.141000	24.092463	0.001027	20.762508
555.153755	-3.023600	3.724400	-11.259000	24.063501	0.001026	20.794628
556.153755	-3.006500	3.722700	-11.191000	24.073633	0.001026	20.778711
557.155331	-3.002400	3.722000	-11.174000	24.084384	0.001027	20.775269
558.151726	-3.019900	3.720300	-11.234000	24.085256	0.001026	20.781833
559.149706	-3.004100	3.721500	-11.179000	24.101282	0.001026	20.778939
560.149467	-3.015400	3.720500	-11.218000	24.118326	0.001025	20.777541
561.147422	-3.001500	3.720500	-11.165000	24.143511	0.001025	20.773404
562.155025	-3.007000	3.721200	-11.188000	24.099748	0.001025	20.785936
563.155138	-3.024500	3.721800	-11.254000	24.106636	0.001026	20.792370
564.152282	-3.017000	3.719700	-11.222000	24.097360	0.001026	20.792075
565.157208	-2.992700	3.720000	-11.130000	24.100546	0.001025	20.781047
566.152721	-2.999200	3.721700	-11.161000	24.154668	0.001025	20.789336
567.152533	-3.008300	3.720200	-11.190000	24.151229	0.001024	20.794896
568.150423	-3.002800	3.718500	-11.164000	24.134592	0.001023	20.791011
569.153249	-3.024000	3.718100	-11.243000	24.135881	0.001027	20.784243
570.160291	-3.009200	3.718100	-11.186000	24.132302	0.001025	20.787292
571.152074	-2.995600	3.719100	-11.140000	24.141586	0.001027	20.773843
572.164959	-3.025200	3.718500	-11.248000	24.176120	0.001026	20.797576
573.158862	-2.993600	3.718400	-11.131000	24.158237	0.001025	20.805243
574.154787	-2.992000	3.717600	-11.122000	24.196430	0.001025	20.792817
575.155169	-3.009400	3.715400	-11.180000	24.182998	0.001026	20.791672
576.154467	-2.992100	3.718000	-11.123000	24.193251	0.001025	20.794369
577.158949	-2.994200	3.716300	-11.127000	24.193773	0.001025	20.784461
578.160951	-2.999000	3.717000	-11.146000	24.190985	0.001024	20.793519
579.152310	-2.977300	3.716700	-11.064000	24.196560	0.001024	20.789628
580.152240	-3.005600	3.715600	-11.166000	24.181611	0.001026	20.776530
581.159930	-3.014400	3.714600	-11.196000	24.173403	0.001028	20.792006
582.152478	-2.996900	3.713900	-11.129000	24.195874	0.001026	20.798423
583.152682	-2.971200	3.716200	-11.041000	24.146629	0.001026	20.787910
584.162209	-3.004000	3.714200	-11.156000	24.180918	0.001026	20.807604
585.153863	-2.986600	3.713900	-11.091000	24.155065	0.001026	20.803958
586.161510	-3.015400	3.713400	-11.196000	24.169327	0.001024	20.801194
587.155187	-2.988300	3.714000	-11.098000	24.176443	0.001026	20.787942
588.155581	-2.993300	3.713800	-11.115000	24.187477	0.001023	20.790475
589.158792	-3.001700	3.712200	-11.141000	24.196998	0.001024	20.805240
590.160119	-2.993700	3.712700	-11.113000	24.223397	0.001025	20.804218
591.155490	-2.988200	3.712600	-11.093000	24.245345	0.001025	20.777869
592.157538	-2.990100	3.710700	-11.093000	24.224465	0.001024	20.818091
593.157652	-2.993600	3.711000	-11.108000	24.241825	0.001024	20.807530
594.156473	-3.016900	3.712200	-11.198000	24.212475	0.001024	20.803221
595.160084	-2.991300	3.710900	-11.099000	24.221751	0.001027	20.815843
596.159375	-2.996300	3.709700	-11.114000	24.216909	0.001023	20.792020
597.160944	-2.995100	3.710100	-11.110000	24.241213	0.001024	20.812605
598.162017	-2.984400	3.710900	-11.074000	24.257513	0.001025	20.799083
599.158963	-3.009000	3.709500	-11.161000	24.270202	0.001025	20.809441
600.159459	-2.986400	3.709900	-11.077000	24.302933	0.001024	20.806712
601.168445	-2.999200	3.709300	-11.124000	24.318009	0.001025	20.804292
602.157371	-2.975000	3.709200	-11.033000	24.357192	0.001023	20.804243
603.162292	-2.996100	3.710500	-11.116000	24.333615	0.001025	20.803825
604.174828	-2.997100	3.708000	-11.112000	24.397153	0.001024	20.819675
605.159107	-3.016100	3.708100	-11.183000	24.372341	0.001023	20.808060
606.163446	-2.993600	3.708800	-11.100000	24.374134	0.001025	20.828824
607.173396	-2.992900	3.707700	-11.096000	24.387914	0.001025	20.815148
608.159739	-3.000600	3.708300	-11.126000	24.380890	0.001023	20.820904
609.168537	-2.986100	3.706000	-11.065000	24.378233	0.001023	20.821083
610.165318	-2.992100	3.707500	-11.093000	24.413510	0.001024	20.823756
611.166578	-2.997700	3.706900	-11.112000	24.411808	0.001023	20.847653
612.165894	-3.003300	3.707600	-11.134000	24.411612	0.001025	20.828016
613.159829	-3.017900	3.704900	-11.180000	24.397156	0.001021	20.825842
614.166946	-3.014100	3.705700	-11.168000	24.411108	0.001023	20.827985
615.164719	-2.997300	3.705700	-11.106000	24.399897	0.001021	20.835704
616.168927	-2.994000	3.705500	-11.093000	24.416079	0.001023	20.838661
617.165423	-2.987600	3.705100	-11.068000	24.413359	0.001023	20.819811
618.170870	-2.969800	3.703500	-10.998000	24.408485	0.001021	20.834362
619.165109	-3.007900	3.705200	-11.144000	24.406122	0.001022	20.826776
620.171866	-2.976200	3.705200	-11.027000	24.395374	0.001021	20.851080
621.168221	-3.004500	3.702200	-11.122000	24.387633	0.001019	20.846159
622.164875	-2.974900	3.704500	-11.019000	24.402211	0.001022	20.840396
623.179721	-3.002600	3.702800	-11.117000	24.418722	0.001022	20.841313
624.165690	-2.979500	3.703500	-11.034000	24.434245	0.001020	20.836023
625.167457	-3.002800	3.701600	-11.114000	24.428412	0.001019	20.836810
626.175351	-2.993500	3.701900	-11.081000	24.420010	0.001021	20.836441
627.167403	-2.998500	3.701600	-11.098000	24.411177	0.001021	20.856028
628.168656	-2.979100	3.701500	-11.025000	24.408219	0.001020	20.821767
629.169273	-3.000900	3.700500	-11.103000	24.407372	0.001021	20.847943
630.169917	-2.992800	3.700800	-11.074000	24.398017	0.001020	20.837611
631.174187	-2.960800	3.701600	-10.958000	24.358559	0.001021	20.822210
632.173924	-2.991200	3.700300	-11.067000	24.350370	0.001021	20.826797
633.169500	-3.004800	3.699100	-11.114000	24.354085	0.001020	20.826256
634.169899	-2.995000	3.699700	-11.080000	24.367589	0.001020	20.835061
635.173206	-3.018800	3.698900	-11.166000	24.369154	0.001019	20.828096
636.172633	-3.013300	3.697500	-11.139000	24.414275	0.001022	20.838274
637.170335	-2.994600	3.699500	-11.078000	24.408009	0.001017	20.848582
638.174938	-3.008500	3.696800	-11.121000	24.422212	0.001018	20.824426
639.173458	-3.004300	3.698400	-11.111000	24.441362	0.001019	20.816611
640.173198	-2.998500	3.697800	-11.087000	24.447751	0.001018	20.834874
641.184257	-2.999200	3.697700	-11.089000	24.455134	0.001017	20.820471
642.174086	-2.996000	3.697300	-11.076000	24.458345	0.001019	20.812786
643.182887	-2.999900	3.696800	-11.088000	24.449120	0.001017	20.825342
644.174806	-2.980800	3.696000	-11.015000	24.410708	0.001017	20.820945
645.180446	-3.007600	3.695700	-11.114000	24.379513	0.001016	20.825687
646.172762	-3.005000	3.694200	-11.099000	24.368814	0.001017	20.809738
647.176429	-2.992600	3.694800	-11.055000	24.337072	0.001018	20.824837
648.188319	-2.980800	3.695900	-11.016000	24.348661	0.001016	20.803272
649.176175	-3.013800	3.694800	-11.133000	24.368887	0.001017	20.821191
650.184806	-2.978200	3.695300	-11.004000	24.358317	0.001016	20.798734
651.182585	-3.009600	3.694200	-11.116000	24.334831	0.001016	20.790347
652.182266	-2.995500	3.693400	-11.063000	24.336127	0.001016	20.821043
653.180666	-3.021400	3.692700	-11.156000	24.341816	0.001015	20.822483
654.179551	-3.001700	3.694600	-11.089000	24.360397	0.001016	20.808406
655.173384	-2.996400	3.692800	-11.064000	24.362680	0.001016	20.814015
656.178355	-2.998700	3.691500	-11.068000	24.333063	0.001017	20.802797
657.174761	-2.982000	3.692800	-11.011000	24.349029	0.001014	20.812649
658.186252	-2.995100	3.691500	-11.056000	24.369549	0.001014	20.818061
659.182085	-2.993200	3.690600	-11.046000	24.371040	0.001016	20.821454
660.184404	-2.982100	3.691800	-11.009000	24.422289	0.001016	20.812175
661.184737	-3.000500	3.690700	-11.073000	24.431286	0.001014	20.814089
662.193048	-2.996100	3.689700	-11.054000	24.425565	0.001015	20.801238
663.184371	-3.013300	3.690000	-11.117000	24.433152	0.001013	20.816909
664.178924	-3.002500	3.689300	-11.076000	24.403222	0.001013	20.814858
665.194905	-3.005700	3.689300	-11.086000	24.419911	0.001014	20.801729
666.183920	-3.013800	3.689400	-11.118000	24.416008	0.001015	20.821047
667.189083	-2.995000	3.689900	-11.050000	24.421476	0.001013	20.809463
668.185398	-3.000100	3.688800	-11.066000	24.449165	0.001012	20.812586
669.188279	-3.024600	3.687700	-11.152000	24.436208	0.001011	20.801958
670.182564	-3.011800	3.688900	-11.109000	24.423041	0.001013	20.792067
671.184127	-2.997200	3.687400	-11.049000	24.388367	0.001013	20.807068
672.186780	-3.011100	3.687100	-11.101000	24.365354	0.001013	20.803422
673.184283	-2.993700	3.689200	-11.042000	24.401535	0.001013	20.792777
674.186811	-3.005400	3.687200	-11.081000	24.427970	0.001012	20.804125
675.189188	-3.006000	3.687900	-11.084000	24.436600	0.001012	20.801403
676.191058	-2.980800	3.688300	-10.992000	24.454861	0.001012	20.809291
677.187559	-2.987600	3.685800	-11.011000	24.486918	0.001011	20.833392
678.188838	-2.997800	3.686700	-11.050000	24.491301	0.001012	20.788478
679.193017	-3.005200	3.685900	-11.075000	24.514409	0.001012	20.798386
680.187085	-2.996700	3.684900	-11.042000	24.516649	0.001012	20.786409
681.187460	-3.009900	3.686100	-11.093000	24.514500	0.001011	20.780459
682.189550	-3.012100	3.684300	-11.096000	24.548459	0.001011	20.785134
683.196860	-3.015500	3.684100	-11.108000	24.567141	0.001009	20.800086
684.189982	-3.005500	3.685400	-11.075000	24.565122	0.001010	20.783360
685.189151	-3.005800	3.684200	-11.073000	24.527862	0.001009	20.811409
686.194999	-2.972900	3.683700	-10.950000	24.492123	0.001010	20.785510
687.186814	-3.006100	3.684600	-11.076000	24.451055	0.001008	20.784137
688.191847	-3.000200	3.683600	-11.050000	24.405365	0.001010	20.788084
689.190018	-3.018500	3.681900	-11.113000	24.435638	0.001009	20.792851
690.190951	-3.003000	3.682500	-11.056000	24.440094	0.001009	20.780252
691.190865	-2.984900	3.683800	-10.994000	24.449522	0.001007	20.788288
692.199592	-2.981900	3.682900	-10.981000	24.496083	0.001008	20.776206
693.203026	-2.992900	3.681600	-11.017000	24.498838	0.001008	20.779444
694.191108	-3.014300	3.681500	-11.096000	24.497500	0.001008	20.765774
695.200041	-3.028600	3.679300	-11.142000	24.496279	0.001007	20.781618
696.188604	-3.029800	3.680200	-11.149000	24.495676	0.001007	20.771531
697.191617	-3.009200	3.680700	-11.075000	24.517594	0.001007	20.777400
698.192276	-2.999200	3.679500	-11.035000	24.555866	0.001006	20.790195
699.194711	-3.025300	3.678500	-11.127000	24.569007	0.001007	20.781569
700.195744	-2.991100	3.680900	-11.009000	24.557266	0.001007	20.779746
701.194517	-3.018700	3.679700	-11.107000	24.555954	0.001006	20.785542
702.194017	-3.023900	3.677700	-11.120000	24.553038	0.001007	20.762701
703.193487	-3.017400	3.678800	-11.100000	24.560175	0.001006	20.780768
704.196187	-3.005300	3.678100	-11.052000	24.586191	0.001006	20.781741
705.193619	-2.986100	3.678300	-10.983000	24.602282	0.001004	20.783188
706.196366	-2.997500	3.677200	-11.021000	24.604424	0.001005	20.776803
707.194732	-2.992700	3.678500	-11.008000	24.609811	0.001005	20.793114
708.202625	-2.982500	3.677500	-10.967000	24.625983	0.001006	20.780417
709.199059	-2.982500	3.677100	-10.966000	24.648714	0.001006	20.776673
710.202286	-3.010400	3.677200	-11.069000	24.645308	0.001002	20.767091
711.211644	-2.988300	3.676400	-10.985000	24.679519	0.001005	20.771074
712.197740	-2.992200	3.676100	-10.999000	24.656096	0.001004	20.768907
713.203364	-2.987200	3.676600	-10.980000	24.624509	0.001004	20.771826
714.201305	-3.016000	3.675100	-11.083000	24.647215	0.001002	20.774221
715.206711	-3.005400	3.674900	-11.042000	24.659648	0.001003	20.768679
716.203354	-3.006100	3.674700	-11.046000	24.655371	0.001004	20.773396
717.206618	-3.010800	3.674300	-11.062000	24.659274	0.001003	20.764984
718.201876	-3.012800	3.675300	-11.072000	24.654198	0.001002	20.778857
719.208488	-3.013500	3.673200	-11.068000	24.623182	0.001003	20.769072
720.206036	-3.014400	3.673100	-11.070000	24.637660	0.001004	20.768900
721.206555	-3.000800	3.674500	-11.026000	24.586968	0.001003	20.766399
722.206594	-3.032600	3.671400	-11.132000	24.582813	0.001002	20.766972
723.205478	-2.994500	3.674300	-11.001000	24.562247	0.001000	20.790908
724.215419	-3.013800	3.672000	-11.065000	24.512056	0.001000	20.776585
725.207606	-2.989900	3.672900	-10.980000	24.500602	0.001001	20.763196
726.207722	-2.996500	3.671300	-11.000000	24.484761	0.001001	20.768640
727.205653	-2.977800	3.672300	-10.933000	24.496096	0.000999	20.750614
728.206168	-3.008800	3.671400	-11.045000	24.492053	0.001000	20.754144
729.207060	-2.991600	3.672100	-10.983000	24.512189	0.001000	20.756803
730.206900	-3.006900	3.670000	-11.034000	24.541619	0.001001	20.763097
731.204521	-2.986200	3.671000	-10.961000	24.584045	0.001001	20.763466
732.210307	-3.011400	3.670000	-11.051000	24.610802	0.000999	20.781779
733.210278	-2.981700	3.670100	-10.943000	24.603363	0.001000	20.764358
734.207689	-3.006400	3.670400	-11.034000	24.608708	0.000999	20.753126
735.208575	-3.031700	3.668900	-11.122000	24.571572	0.000998	20.758064
736.209877	-3.017700	3.669100	-11.071000	24.567865	0.000998	20.782794
737.209694	-3.018900	3.667500	-11.069000	24.562096	0.000997	20.769893
738.211758	-3.008300	3.669500	-11.038000	24.559303	0.000996	20.757133
739.216538	-3.007600	3.667300	-11.029000	24.595064	0.000997	20.772626
740.212921	-3.005100	3.668900	-11.024000	24.622195	0.000998	20.722086
741.212997	-3.011700	3.667900	-11.045000	24.597125	0.000997	20.751460
742.217687	-3.022800	3.666800	-11.083000	24.593688	0.000997	20.759866
743.211727	-2.995300	3.667800	-10.984000	24.587643	0.000997	20.768025
744.211029	-3.000800	3.667300	-11.004000	24.551567	0.000996	20.775450
745.210032	-2.992700	3.666700	-10.971000	24.577736	0.000995	20.737695
746.211074	-2.989800	3.666300	-10.960000	24.592323	0.000998	20.750909
747.213465	-2.994800	3.665800	-10.977000	24.637148	0.000996	20.755110
748.211792	-3.009100	3.665500	-11.029000	24.664254	0.000994	20.769507
749.211497	-2.997200	3.664000	-10.980000	24.646119	0.000997	20.746567
750.210783	-2.981300	3.666100	-10.929000	24.685289	0.000996	20.758847
751.213683	-3.000900	3.666000	-11.000000	24.719131	0.000997	20.750607
752.211109	-2.981800	3.665500	-10.929000	24.710619	0.000994	20.753919
753.217988	-3.019000	3.663400	-11.058000	24.756150	0.000996	20.760729
754.214535	-3.037100	3.664400	-11.127000	24.757998	0.000991	20.735556
755.214473	-2.990700	3.663900	-10.957000	24.767213	0.000993	20.787479
756.212008	-3.018200	3.663200	-11.054000	24.736771	0.000993	20.754084
757.210694	-3.005700	3.663200	-11.009000	24.756640	0.000993	20.733719
758.211296	-2.990900	3.662400	-10.952000	24.729414	0.000992	20.733424
759.228425	-2.983100	3.663100	-10.927000	24.739403	0.000993	20.751509
760.225927	-3.021100	3.661800	-11.061000	24.742784	0.000991	20.734987
761.218984	-2.998800	3.662100	-10.981000	24.742035	0.000992	20.742770
762.216486	-3.014700	3.661500	-11.037000	24.715127	0.000991	20.742795
763.219110	-3.030600	3.661400	-11.096000	24.708309	0.000991	20.741169
764.221619	-3.018000	3.660900	-11.048000	24.691127	0.000992	20.753799
765.221758	-3.000200	3.661800	-10.985000	24.678313	0.000991	20.745682
766.224541	-2.987700	3.660700	-10.936000	24.688243	0.000991	20.750431
767.216537	-2.993100	3.661400	-10.957000	24.691869	0.000990	20.756441
768.216545	-2.983700	3.660300	-10.920000	24.701988	0.000992	20.738144
769.217322	-2.990900	3.660700	-10.948000	24.711113	0.000990	20.740189
770.228443	-3.016800	3.658800	-11.037000	24.713654	0.000991	20.733729
771.225659	-2.971900	3.661500	-10.880000	24.689972	0.000989	20.739837
772.219381	-3.004400	3.659500	-10.992000	24.683977	0.000987	20.723863
773.223086	-3.002900	3.658600	-10.984000	24.711113	0.000989	20.725489
774.222084	-3.027000	3.657600	-11.071000	24.713696	0.000988	20.735668
775.224469	-3.000000	3.658100	-10.973000	24.719887	0.000988	20.756107
776.218301	-2.977200	3.658300	-10.891000	24.711603	0.000988	20.732145
777.222995	-3.012700	3.657900	-11.019000	24.738234	0.000988	20.734688
778.219147	-2.993300	3.656800	-10.944000	24.755968	0.000987	20.737312
779.221313	-2.979700	3.659500	-10.903000	24.761214	0.000989	20.731671
780.226427	-2.967500	3.658300	-10.855000	24.780946	0.000987	20.727765
781.221082	-2.988900	3.656300	-10.927000	24.796692	0.000987	20.739300
782.223145	-3.013100	3.655800	-11.012000	24.752206	0.000986	20.719785
783.222422	-3.003600	3.654900	-10.977000	24.758960	0.000986	20.739367
784.225373	-3.009700	3.656100	-11.002000	24.756052	0.000987	20.735499
785.226056	-2.987900	3.656600	-10.924000	24.768043	0.000986	20.732834
786.227137	-3.009800	3.654900	-10.999000	24.772613	0.000984	20.732205
787.222314	-3.009300	3.654500	-10.997000	24.800384	0.000986	20.726409
788.229482	-2.995600	3.653700	-10.943000	24.808913	0.000986	20.742556
789.224829	-3.008600	3.653200	-10.989000	24.832707	0.000984	20.719019
790.227095	-2.994500	3.653100	-10.938000	24.837701	0.000984	20.746792
791.223794	-3.001000	3.653000	-10.961000	24.804223	0.000984	20.732633
792.228443	-3.006500	3.653600	-10.984000	24.755909	0.000984	20.722078
793.226613	-2.971000	3.654400	-10.856000	24.753644	0.000983	20.718383
794.223811	-2.991600	3.652900	-10.928000	24.707756	0.000985	20.725914
795.228300	-2.989100	3.653700	-10.921000	24.673882	0.000984	20.722268
796.229096	-2.988700	3.652200	-10.914000	24.668653	0.000986	20.726504
797.228336	-3.028700	3.650900	-11.056000	24.662136	0.000983	20.731818
798.224471	-3.026900	3.651600	-11.052000	24.707595	0.000984	20.702517
799.233219	-2.981400	3.652500	-10.889000	24.723384	0.000982	20.722630
800.234818	-3.003800	3.651600	-10.968000	24.738521	0.000983	20.728812
801.230965	-2.977000	3.651300	-10.868000	24.768631	0.000979	20.722517
802.233401	-2.987500	3.650500	-10.905000	24.722180	0.000982	20.712886
803.228992	-2.985400	3.651100	-10.899000	24.713073	0.000983	20.716550
804.229618	-2.966300	3.652000	-10.832000	24.714368	0.000980	20.707891
805.230100	-3.002000	3.649200	-10.953000	24.747257	0.000981	20.711973
806.230384	-2.969600	3.650600	-10.839000	24.778700	0.000981	20.717923
807.230405	-3.007700	3.647100	-10.968000	24.770905	0.000977	20.728594
808.230651	-2.975800	3.648700	-10.857000	24.747306	0.000979	20.723403
809.232648	-2.966100	3.649200	-10.823000	24.797959	0.000979	20.718759
810.235190	-3.010500	3.647800	-10.981000	24.781195	0.000978	20.709047
811.231526	-2.968500	3.649700	-10.833000	24.789724	0.000978	20.728039
812.233057	-3.017700	3.646900	-11.004000	24.781261	0.000978	20.718598
813.231062	-3.005900	3.646600	-10.960000	24.795835	0.000977	20.722791
814.230811	-2.997300	3.646100	-10.927000	24.810229	0.000979	20.703097
815.232461	-2.984500	3.646300	-10.880000	24.839994	0.000976	20.713055
816.230742	-2.995600	3.648200	-10.927000	24.876567	0.000976	20.704716
817.234272	-2.991500	3.646600	-10.907000	24.896507	0.000978	20.697702
818.236369	-3.012300	3.646200	-10.982000	24.882744	0.000977	20.721348
819.235068	-2.982800	3.646600	-10.875000	24.883622	0.000978	20.706581
820.238910	-2.980300	3.646100	-10.864000	24.862737	0.000976	20.698896
821.233135	-2.996300	3.644200	-10.918000	24.809288	0.000976	20.711162
822.235483	-2.974000	3.645700	-10.841000	24.799268	0.000976	20.718650
823.233736	-2.994700	3.644800	-10.914000	24.793549	0.000973	20.707695
824.234254	-2.975800	3.645000	-10.845000	24.792457	0.000976	20.712289
825.232266	-3.010700	3.643400	-10.968000	24.816319	0.000972	20.723434
826.238069	-2.996300	3.644300	-10.918000	24.865324	0.000974	20.716666
827.236148	-3.000000	3.642500	-10.926000	24.877093	0.000972	20.723262
828.234972	-3.012100	3.642900	-10.971000	24.908836	0.000973	20.722405
829.236631	-2.999600	3.643900	-10.929000	24.906481	0.000972	20.694435
830.233833	-2.990100	3.643900	-10.894000	24.909665	0.000974	20.722289
831.236036	-3.024900	3.641200	-11.012000	24.897456	0.000973	20.702447
832.234218	-2.995200	3.641300	-10.906000	24.880841	0.000973	20.721334
833.238076	-3.004200	3.641300	-10.938000	24.852403	0.000973	20.689472
834.241601	-2.998600	3.641700	-10.918000	24.877583	0.000970	20.692458
835.238404	-3.019200	3.639800	-10.987000	24.876711	0.000970	20.709128
836.237582	-2.976000	3.642800	-10.839000	24.874821	0.000972	20.711499
837.237868	-2.996600	3.641900	-10.912000	24.917787	0.000970	20.701991
838.232846	-3.007700	3.640500	-10.948000	24.945163	0.000972	20.701492
839.235749	-3.011000	3.640400	-10.961000	24.964947	0.000968	20.706178
840.240750	-2.993600	3.640000	-10.895000	24.930518	0.000970	20.713821
841.233967	-3.011700	3.639000	-10.959000	24.883245	0.000968	20.713315
842.239732	-2.973000	3.639400	-10.819000	24.865226	0.000967	20.710403
843.236437	-2.985300	3.638500	-10.861000	24.857936	0.000967	20.702612
844.246473	-3.007800	3.638000	-10.940000	24.834240	0.000969	20.706806
845.235046	-2.989200	3.638300	-10.874000	24.807905	0.000968	20.711197
846.242579	-2.995500	3.639400	-10.901000	24.830331	0.000966	20.720428
847.246555	-2.991000	3.637400	-10.877000	24.844774	0.000968	20.689402
848.236767	-3.005200	3.638100	-10.933000	24.862752	0.000967	20.710291
849.244730	-2.978500	3.638200	-10.835000	24.891693	0.000965	20.708991
850.236811	-3.001500	3.636500	-10.914000	24.923107	0.000968	20.698794
851.250675	-2.988400	3.636700	-10.867000	24.936051	0.000965	20.699932
852.237529	-2.998100	3.636900	-10.903000	24.942223	0.000964	20.703758
853.238125	-2.988800	3.637900	-10.871000	24.932205	0.000965	20.713617
854.244622	-3.007900	3.636200	-10.936000	24.962592	0.000965	20.699072
855.242914	-3.021000	3.634300	-10.977000	24.972635	0.000965	20.713420
856.243350	-2.991500	3.634300	-10.871000	24.965297	0.000964	20.697993
857.246051	-3.004000	3.634200	-10.917000	24.969720	0.000962	20.706227
858.245269	-2.997300	3.634100	-10.891000	24.914628	0.000962	20.704983
859.248319	-3.006700	3.633400	-10.924000	24.927155	0.000962	20.716610
860.243903	-2.989700	3.635200	-10.867000	24.957960	0.000964	20.708173
861.244397	-3.001800	3.634000	-10.908000	24.936603	0.000964	20.700487
862.256180	-3.021300	3.631600	-10.971000	24.966806	0.000962	20.720846
863.248326	-3.003400	3.633800	-10.913000	24.977352	0.000964	20.687807
864.252687	-3.000000	3.632800	-10.896000	24.972303	0.000961	20.691274
865.252898	-2.991600	3.631800	-10.864000	24.932075	0.000963	20.718703
866.249679	-2.995800	3.630900	-10.875000	24.920989	0.000960	20.705205
867.252180	-3.005400	3.631600	-10.913000	24.932149	0.000960	20.706448
868.252181	-2.981200	3.631300	-10.824000	24.926455	0.000960	20.708320
869.247484	-2.993800	3.632100	-10.873000	24.914474	0.000960	20.707674
870.249835	-2.995900	3.631700	-10.879000	24.909277	0.000960	20.697716
871.254981	-3.006000	3.630400	-10.911000	24.933836	0.000961	20.714780
872.247700	-2.982000	3.631200	-10.826000	24.976033	0.000959	20.700709
873.260566	-3.009800	3.629700	-10.922000	24.982762	0.000958	20.702721
874.252484	-3.042600	3.627100	-11.034000	25.023663	0.000959	20.709163
875.250094	-2.985800	3.631300	-10.841000	25.034104	0.000959	20.694038
876.253518	-2.997000	3.629700	-10.876000	25.046410	0.000958	20.714927
877.253175	-3.026100	3.628700	-10.980000	25.062690	0.000956	20.710881
878.251047	-2.992400	3.629000	-10.858000	25.055164	0.000957	20.711387
879.255059	-2.998800	3.628700	-10.880000	25.064065	0.000955	20.708942
880.248624	-3.022300	3.627800	-10.963000	25.063456	0.000955	20.688889
881.248339	-2.999600	3.629200	-10.886000	25.068554	0.000954	20.705862
882.256464	-3.009400	3.629200	-10.920000	25.048096	0.000956	20.687695
883.251918	-2.994200	3.627900	-10.862000	25.082872	0.000955	20.719286
884.249295	-3.004600	3.625900	-10.894000	25.065272	0.000954	20.711102
885.252510	-2.997100	3.627900	-10.872000	25.054685	0.000956	20.689567
886.250563	-2.979100	3.626100	-10.802000	25.057585	0.000953	20.709550
887.249112	-3.013600	3.625400	-10.923000	25.096538	0.000954	20.696020
888.252148	-2.993400	3.627200	-10.856000	25.065437	0.000953	20.708897
889.252283	-2.986900	3.626000	-10.828000	25.020195	0.000955	20.713270
890.252157	-3.000900	3.626300	-10.881000	25.011367	0.000952	20.695872
891.252735	-2.988600	3.626500	-10.837000	25.005839	0.000954	20.710713
892.253030	-2.991400	3.625800	-10.845000	24.991863	0.000952	20.705693
893.253080	-3.015000	3.624700	-10.927000	24.985852	0.000952	20.712936
894.254274	-3.031800	3.623700	-10.985000	24.988784	0.000952	20.703076
895.253314	-3.000700	3.624000	-10.873000	24.995520	0.000951	20.699406
896.252860	-3.011400	3.624900	-10.915000	24.967642	0.000951	20.720737
897.258976	-3.001800	3.623900	-10.878000	24.963912	0.000949	20.730270
898.257123	-2.987000	3.623600	-10.822000	24.964654	0.000950	20.713470
899.254779	-3.021500	3.621300	-10.941000	25.013131	0.000950	20.722775
900.257684	-2.984400	3.622100	-10.809000	25.019401	0.000948	20.708205
901.257259	-3.001000	3.621400	-10.866000	25.033173	0.000948	20.719659
902.257250	-2.991100	3.621700	-10.832000	25.031137	0.000949	20.726150
903.259873	-2.978200	3.623500	-10.790000	25.048184	0.000949	20.698690
904.257566	-3.002200	3.620600	-10.867000	25.071207	0.000948	20.701412
905.260314	-3.006300	3.621000	-10.885000	25.109085	0.000948	20.720945
906.262150	-3.011500	3.619800	-10.900000	25.092364	0.000947	20.720755
907.260267	-3.014200	3.619900	-10.910000	25.123678	0.000945	20.716628
908.261562	-3.000500	3.620500	-10.862000	25.138499	0.000944	20.723920
909.264799	-3.008700	3.620900	-10.892000	25.138817	0.000946	20.702901
910.264173	-3.011500	3.619400	-10.898000	25.142921	0.000945	20.722669
911.264117	-3.009200	3.619500	-10.890000	25.151888	0.000946	20.710334
912.264890	-3.006500	3.619000	-10.879000	25.116758	0.000944	20.701619
913.266160	-3.023300	3.618300	-10.937000	25.101619	0.000944	20.720562
914.267259	-3.004900	3.617000	-10.868000	25.101815	0.000942	20.737829
915.268415	-2.988700	3.617500	-10.810000	25.104404	0.000943	20.703442
916.266067	-2.999800	3.618000	-10.852000	25.104747	0.000943	20.721331
917.266358	-2.988400	3.618700	-10.812000	25.118063	0.000943	20.709094
918.266971	-2.987900	3.617500	-10.807000	25.116352	0.000941	20.727292
919.264914	-2.959100	3.617200	-10.703000	25.122013	0.000942	20.741985
920.265892	-2.984800	3.618000	-10.798000	25.108162	0.000942	20.736140
921.266541	-3.012900	3.615400	-10.892000	25.119701	0.000942	20.717851
922.268064	-3.001000	3.616900	-10.853000	25.111500	0.000941	20.725740
923.274431	-3.005200	3.615000	-10.863000	25.145629	0.000941	20.725863
924.268496	-2.983100	3.616200	-10.786000	25.135256	0.000939	20.724932
925.269461	-2.979000	3.615600	-10.770000	25.130778	0.000939	20.732291
926.274384	-2.997300	3.614900	-10.834000	25.160240	0.000939	20.720141
927.268703	-2.987100	3.615700	-10.800000	25.153449	0.000937	20.724704
928.267765	-3.005500	3.614200	-10.861000	25.144776	0.000937	20.719790
929.271938	-3.004800	3.614300	-10.859000	25.150867	0.000938	20.726379
930.268242	-3.021900	3.612800	-10.917000	25.131299	0.000938	20.738978
931.276172	-3.019000	3.611600	-10.901000	25.091445	0.000937	20.723626
932.275051	-2.995000	3.612300	-10.817000	25.057443	0.000935	20.731694
933.271619	-3.002400	3.612700	-10.845000	25.035616	0.000938	20.729224
934.269701	-2.992300	3.614200	-10.814000	25.043647	0.000936	20.716895
935.270329	-2.995900	3.613100	-10.823000	25.044112	0.000937	20.732537
936.270477	-3.001400	3.612400	-10.842000	25.027163	0.000937	20.736860
937.274450	-3.000800	3.612700	-10.840000	25.068975	0.000937	20.719562
938.271825	-3.015000	3.611200	-10.886000	25.094604	0.000933	20.728694
939.270794	-3.003800	3.610800	-10.844000	25.110688	0.000935	20.734409
940.272991	-2.992200	3.611000	-10.804000	25.141788	0.000936	20.740973
941.271828	-2.985700	3.610500	-10.777000	25.109394	0.000934	20.729790
942.272956	-2.998900	3.609300	-10.823000	25.143702	0.000934	20.730566
943.271832	-2.986200	3.611300	-10.783000	25.161258	0.000934	20.742501
944.272978	-3.005700	3.609400	-10.848000	25.160754	0.000932	20.736780
945.275741	-3.000300	3.609600	-10.828000	25.185191	0.000933	20.736657
946.273462	-3.012200	3.608400	-10.869000	25.182781	0.000932	20.736607
947.275653	-3.003400	3.609200	-10.839000	25.189890	0.000932	20.755125
948.275908	-2.990800	3.608300	-10.791000	25.224587	0.000932	20.710773
949.277373	-2.991300	3.607600	-10.791000	25.213455	0.000931	20.749860
950.277310	-3.005600	3.608700	-10.845000	25.177984	0.000928	20.720886
951.286046	-2.998000	3.608000	-10.816000	25.154215	0.000929	20.746337
952.276892	-2.987000	3.608800	-10.777000	25.111853	0.000928	20.752175
953.277180	-2.998900	3.608000	-10.819000	25.074637	0.000928	20.750850
954.282314	-2.984300	3.607300	-10.764000	25.059969	0.000928	20.734230
955.276757	-3.005300	3.605400	-10.834000	25.048633	0.000927	20.748929
956.277297	-3.005500	3.605700	-10.835000	25.065882	0.000928	20.748701
957.276160	-3.002800	3.605900	-10.827000	25.061215	0.000928	20.735954
958.276700	-3.014600	3.604600	-10.866000	25.065067	0.000927	20.731286
959.277771	-3.004600	3.605100	-10.831000	25.086365	0.000927	20.750770
960.277411	-3.002700	3.605500	-10.825000	25.112938	0.000927	20.728606
961.278825	-3.022300	3.602700	-10.888000	25.111252	0.000927	20.747777
962.280118	-3.017000	3.604000	-10.872000	25.066649	0.000925	20.753738
963.281593	-3.031600	3.602400	-10.919000	25.071365	0.000924	20.731445
964.276178	-2.986800	3.603000	-10.760000	25.101032	0.000925	20.736569
965.284295	-3.018000	3.601000	-10.866000	25.122654	0.000924	20.752112
966.278643	-3.007600	3.601600	-10.830000	25.142810	0.000924	20.732990
967.280580	-3.028000	3.601600	-10.904000	25.167223	0.000923	20.759870
968.279778	-2.994000	3.601900	-10.783000	25.185213	0.000922	20.733359
969.279807	-2.997500	3.601300	-10.793000	25.183128	0.000922	20.719885
970.278418	-2.968200	3.603600	-10.695000	25.225787	0.000922	20.746119
971.281436	-3.017800	3.601300	-10.866000	25.248898	0.000923	20.754623
972.284996	-2.992800	3.600900	-10.776000	25.264402	0.000920	20.754068
973.287807	-3.021800	3.599800	-10.877000	25.278153	0.000919	20.728519
974.280947	-2.999600	3.601300	-10.801000	25.289390	0.000920	20.745017
975.284204	-3.015300	3.598300	-10.849000	25.287850	0.000920	20.759593
976.280646	-3.012100	3.598900	-10.838000	25.318190	0.000919	20.753545
977.282399	-2.988100	3.599100	-10.754000	25.338318	0.000921	20.738666
978.279416	-2.987700	3.598500	-10.750000	25.347241	0.000919	20.746678
979.286616	-3.002900	3.598900	-10.806000	25.343463	0.000920	20.758533
980.281466	-2.998400	3.598600	-10.789000	25.354545	0.000919	20.754486
981.281971	-2.984700	3.598800	-10.740000	25.357035	0.000917	20.735175
982.281015	-3.007200	3.597100	-10.816000	25.369061	0.000918	20.764321
983.286954	-2.998000	3.597500	-10.784000	25.387575	0.000917	20.752565
984.287057	-2.994300	3.597300	-10.770000	25.415705	0.000916	20.754732
985.282940	-2.981700	3.597700	-10.727000	25.400024	0.000915	20.758427
986.282067	-2.988300	3.598100	-10.750000	25.397712	0.000915	20.753735
987.284332	-3.005100	3.597700	-10.809000	25.405838	0.000915	20.775171
988.283028	-2.996500	3.596400	-10.776000	25.429699	0.000914	20.761199
989.284938	-3.005300	3.595600	-10.804000	25.429895	0.000913	20.772775
990.288071	-2.997400	3.595700	-10.776000	25.400318	0.000914	20.767732
991.285692	-3.001400	3.593600	-10.785000	25.387243	0.000914	20.768827
992.287148	-3.009900	3.595000	-10.820000	25.336894	0.000913	20.732495
993.286618	-3.013600	3.594300	-10.831000	25.339629	0.000913	20.765115
994.286849	-2.993700	3.593900	-10.756000	25.326774	0.000910	20.761216
995.286142	-3.004200	3.593300	-10.793000	25.314202	0.000914	20.772301
996.286870	-3.010300	3.592600	-10.813000	25.301990	0.000912	20.755298
997.286683	-3.004800	3.594000	-10.797000	25.290247	0.000912	20.774802
998.286539	-3.013600	3.592600	-10.824000	25.289124	0.000911	20.776994
999.287756	-3.001400	3.592800	-10.783000	25.273858	0.000910	20.765459
1000.288251	-3.029700	3.592800	-10.885000	25.274558	0.000909	20.754307
1001.288795	-2.964900	3.594200	-10.656000	25.285713	0.000910	20.780682
1002.288551	-3.036200	3.591200	-10.902000	25.289792	0.000908	20.766759
1003.291543	-3.011700	3.592000	-10.816000	25.296152	0.000909	20.759868
1004.290358	-3.000000	3.591200	-10.772000	25.315612	0.000906	20.786519
1005.296065	-3.008300	3.590100	-10.799000	25.367540	0.000905	20.791243
1006.290442	-3.017500	3.589100	-10.828000	25.378051	0.000906	20.764339
1007.291387	-2.996400	3.590300	-10.758000	25.335852	0.000905	20.774598
1008.290668	-2.986500	3.591300	-10.724000	25.313226	0.000905	20.773692
1009.293499	-3.011700	3.588500	-10.806000	25.297814	0.000905	20.771493
1010.293811	-3.009900	3.588800	-10.800000	25.343953	0.000906	20.771827
1011.293046	-2.997500	3.588500	-10.756000	25.330356	0.000904	20.767658
1012.292912	-2.988500	3.588600	-10.723000	25.346657	0.000903	20.784974
1013.294133	-3.015800	3.586800	-10.815000	25.368404	0.000901	20.773144
1014.294791	-2.988400	3.587000	-10.718000	25.397835	0.000902	20.766186
1015.293394	-3.011100	3.586400	-10.797000	25.409241	0.000902	20.796132
1016.294186	-3.022600	3.586500	-10.839000	25.442165	0.000900	20.783200
1017.294969	-3.021200	3.586300	-10.833000	25.460010	0.000900	20.773144
1018.294253	-2.990500	3.586600	-10.724000	25.452057	0.000902	20.783175
1019.298084	-3.011800	3.585700	-10.798000	25.439608	0.000901	20.783477
1020.293405	-3.009900	3.585400	-10.791000	25.451738	0.000899	20.774321
1021.292497	-3.001800	3.585500	-10.762000	25.464536	0.000901	20.779586
1022.299098	-2.997300	3.585900	-10.747000	25.439167	0.000899	20.778293
1023.295090	-3.013500	3.583900	-10.799000	25.447936	0.000899	20.793262
1024.295619	-3.004900	3.583500	-10.766000	25.469828	0.000897	20.783003
1025.295863	-2.985200	3.584500	-10.700000	25.469191	0.000899	20.781415
1026.296255	-3.001600	3.582700	-10.753000	25.457338	0.000898	20.778047
1027.294597	-2.980200	3.583200	-10.677000	25.493247	0.000896	20.780442
1028.296792	-3.009100	3.582200	-10.777000	25.499312	0.000898	20.778946
1029.293782	-3.013800	3.582700	-10.797000	25.470135	0.000896	20.780941
1030.298282	-2.976000	3.583100	-10.662000	25.433176	0.000898	20.804993
1031.294215	-3.021200	3.581300	-10.818000	25.446324	0.000897	20.803971
1032.296520	-2.993700	3.582200	-10.723000	25.455743	0.000894	20.775497
1033.295051	-3.014700	3.582100	-10.797000	25.464487	0.000894	20.798503
1034.297149	-2.985800	3.581100	-10.691000	25.462378	0.000895	20.762245
1035.297132	-3.003700	3.579800	-10.751000	25.490309	0.000893	20.795984
1036.294455	-2.968800	3.582200	-10.634000	25.497098	0.000894	20.796163
1037.297094	-2.999900	3.581500	-10.741000	25.443963	0.000893	20.801126
1038.296667	-3.030200	3.579200	-10.845000	25.434715	0.000892	20.789943
1039.299970	-2.995000	3.580000	-10.721000	25.423438	0.000891	20.794267
1040.296738	-2.996400	3.579000	-10.723000	25.456166	0.000891	20.794414
1041.298154	-2.978600	3.580500	-10.662000	25.466589	0.000892	20.795398
1042.299417	-3.014100	3.577300	-10.781000	25.494251	0.000890	20.797098
1043.300858	-3.008200	3.579100	-10.765000	25.502995	0.000891	20.785964
1044.304203	-3.011900	3.577400	-10.773000	25.498948	0.000890	20.779055
1045.301583	-2.997600	3.578600	-10.727000	25.488106	0.000889	20.803255
1046.300419	-2.992100	3.578200	-10.705000	25.481146	0.000889	20.791524
1047.303410	-3.012000	3.577400	-10.773000	25.478712	0.000889	20.814684
1048.303795	-3.019800	3.575800	-10.798000	25.435915	0.000889	20.813434
1049.301519	-2.994200	3.576500	-10.708000	25.458083	0.000888	20.802978
1050.306793	-3.003000	3.577100	-10.740000	25.475743	0.000885	20.788469
1051.304943	-2.990600	3.577900	-10.698000	25.479072	0.000887	20.788493
1052.307436	-2.996900	3.575500	-10.715000	25.488890	0.000886	20.793611
1053.303313	-3.004400	3.577000	-10.745000	25.522487	0.000886	20.813125
1054.304449	-2.997900	3.576000	-10.719000	25.505433	0.000885	20.817810
1055.305950	-3.004100	3.574900	-10.738000	25.548221	0.000885	20.811467
1056.305499	-2.972400	3.575400	-10.626000	25.539998	0.000882	20.817909
1057.311356	-2.989400	3.574700	-10.684000	25.540936	0.000883	20.809367
1058.306968	-3.013000	3.576100	-10.772000	25.514887	0.000881	20.800752
1059.309902	-3.003000	3.574300	-10.733000	25.529580	0.000883	20.814084
1060.308786	-3.027200	3.572800	-10.813000	25.531535	0.000881	20.820315
1061.306585	-2.999800	3.572600	-10.716000	25.520627	0.000881	20.819317
1062.306201	-2.994800	3.572700	-10.699000	25.530517	0.000881	20.814551
1063.310110	-3.004000	3.573300	-10.732000	25.550218	0.000880	20.801145
1064.308069	-3.001800	3.572400	-10.722000	25.535557	0.000881	20.809181
1065.310161	-2.997400	3.572600	-10.707000	25.532766	0.000880	20.806853
1066.309421	-3.005400	3.570900	-10.730000	25.572248	0.000877	20.842709
1067.308442	-3.014100	3.570200	-10.760000	25.559329	0.000878	20.809347
1068.309784	-2.986800	3.570400	-10.663000	25.561910	0.000877	20.814309
1069.311455	-2.996700	3.571900	-10.702000	25.570548	0.000878	20.804019
1070.309684	-3.006900	3.570700	-10.736000	25.579641	0.000878	20.824530
1071.307921	-3.030100	3.568800	-10.812000	25.545997	0.000874	20.817295
1072.309255	-3.013300	3.568500	-10.751000	25.489940	0.000877	20.821692
1073.312145	-2.977700	3.568700	-10.626000	25.473953	0.000876	20.817492
1074.311946	-2.989100	3.570200	-10.671000	25.477357	0.000875	20.828021
1075.313896	-2.976500	3.569300	-10.623000	25.433535	0.000875	20.828587
1076.317438	-2.994300	3.569000	-10.686000	25.429366	0.000875	20.848581
1077.312534	-3.009100	3.566700	-10.731000	25.448718	0.000873	20.833876
1078.312502	-3.021700	3.566500	-10.776000	25.434179	0.000874	20.831130
1079.312087	-2.991900	3.569200	-10.678000	25.441433	0.000873	20.825612
1080.312456	-2.992900	3.567500	-10.676000	25.434007	0.000872	20.836647
1081.312831	-2.998700	3.567000	-10.695000	25.450275	0.000871	20.816948
1082.311926	-3.014700	3.566600	-10.751000	25.467151	0.000870	20.838161
1083.317019	-3.012700	3.567000	-10.745000	25.448117	0.000870	20.842281
1084.312409	-3.011300	3.564700	-10.733000	25.448184	0.000871	20.844245
1085.315134	-2.974600	3.567800	-10.610000	25.475839	0.000869	20.828869
1086.316767	-3.018500	3.565300	-10.760000	25.505904	0.000869	20.829662
1087.314155	-3.001600	3.565300	-10.701000	25.546817	0.000869	20.834238
1088.317130	-3.003900	3.565400	-10.708000	25.521394	0.000867	20.819614
1089.314435	-2.993900	3.565500	-10.672000	25.496958	0.000866	20.849601
1090.313267	-3.004500	3.564400	-10.709000	25.460520	0.000867	20.840512
1091.316862	-3.007200	3.564400	-10.717000	25.468149	0.000867	20.834422
1092.317957	-3.015100	3.562800	-10.741000	25.511931	0.000866	20.826231
1093.318243	-2.976400	3.564000	-10.606000	25.477396	0.000866	20.838018
1094.316279	-2.982800	3.563400	-10.628000	25.480621	0.000864	20.839834
1095.317091	-2.978300	3.562900	-10.610000	25.491817	0.000865	20.861982
1096.315653	-3.028900	3.559900	-10.781000	25.521269	0.000865	20.854100
1097.318419	-3.004500	3.562400	-10.701000	25.548083	0.000864	20.833614
1098.316749	-2.983100	3.563200	-10.627000	25.578552	0.000861	20.858522
1099.319140	-2.998700	3.560800	-10.677000	25.582794	0.000863	20.854722
1100.318377	-2.973600	3.560900	-10.587000	25.594940	0.000862	20.833256
1101.316726	-2.980900	3.561100	-10.613000	25.555680	0.000862	20.840294
1102.317809	-2.976900	3.561900	-10.602000	25.503810	0.000862	20.846525
1103.319532	-2.987900	3.560500	-10.637000	25.498991	0.000861	20.859703
1104.324057	-2.985600	3.560200	-10.629000	25.462413	0.000859	20.868015
1105.318330	-2.996800	3.558300	-10.663000	25.490443	0.000859	20.854912
1106.317462	-3.005900	3.559000	-10.697000	25.529810	0.000859	20.846082
1107.317323	-2.989400	3.558300	-10.636000	25.520060	0.000859	20.854782
1108.317371	-3.014600	3.558000	-10.723000	25.542348	0.000859	20.845398
1109.317703	-2.988900	3.558000	-10.633000	25.528852	0.000858	20.850336
1110.318906	-3.008500	3.557700	-10.702000	25.537498	0.000857	20.849061
1111.323903	-2.991400	3.558300	-10.643000	25.568316	0.000857	20.841131
1112.323394	-3.008500	3.555500	-10.696000	25.585956	0.000856	20.833717
1113.318337	-3.019400	3.555700	-10.735000	25.577703	0.000854	20.857669
1114.332841	-2.985300	3.556100	-10.616000	25.603498	0.000856	20.842325
1115.328372	-2.977300	3.556800	-10.589000	25.633381	0.000853	20.846733
1116.319301	-2.977800	3.555800	-10.587000	25.680688	0.000853	20.840668
1117.321384	-2.996100	3.554100	-10.647000	25.681381	0.000854	20.848949
1118.322156	-3.000600	3.554800	-10.665000	25.698505	0.000852	20.854295
1119.320329	-2.982800	3.554200	-10.600000	25.689602	0.000851	20.820698
1120.322623	-2.985200	3.554400	-10.609000	25.684458	0.000851	20.845402
1121.323949	-2.997700	3.553600	-10.652000	25.676709	0.000853	20.863697
1122.323806	-3.005500	3.553400	-10.678000	25.700257	0.000849	20.857951
1123.326613	-3.004300	3.554100	-10.676000	25.702299	0.000850	20.848149
1124.327595	-2.995500	3.553000	-10.642000	25.717343	0.000849	20.827698
1125.322093	-3.005700	3.552200	-10.676000	25.719140	0.000849	20.829977
1126.328863	-2.994700	3.553300	-10.640000	25.663379	0.000849	20.825180
1127.330677	-2.996300	3.552900	-10.644000	25.682783	0.000849	20.843720
1128.325979	-3.011600	3.552500	-10.698000	25.685714	0.000846	20.837181
1129.333323	-3.014700	3.552100	-10.707000	25.709716	0.000848	20.837581
1130.327488	-3.016700	3.550400	-10.709000	25.711849	0.000846	20.841620
1131.331966	-2.989700	3.551100	-10.615000	25.705013	0.000846	20.824323
1132.331430	-2.996800	3.550500	-10.639000	25.666824	0.000845	20.837648
1133.328813	-3.027000	3.549300	-10.742000	25.678074	0.000845	20.839938
1134.327246	-3.015300	3.549400	-10.701000	25.685683	0.000846	20.834779
1135.331501	-3.005100	3.549900	-10.666000	25.707895	0.000845	20.854717
1136.326506	-3.004700	3.549900	-10.666000	25.743446	0.000843	20.843960
1137.330960	-2.974600	3.550200	-10.558000	25.715448	0.000845	20.824372
1138.332392	-2.999600	3.550000	-10.647000	25.748908	0.000842	20.823842
1139.332466	-3.004500	3.548200	-10.659000	25.756608	0.000842	20.851964
1140.325484	-2.985500	3.548800	-10.594000	25.709384	0.000842	20.835351
1141.327949	-2.980400	3.549000	-10.576000	25.698079	0.000841	20.829212
1142.331672	-2.988300	3.548100	-10.601000	25.696429	0.000840	20.836089
1143.325880	-2.997400	3.548600	-10.635000	25.700059	0.000840	20.828356
1144.328251	-3.042100	3.546100	-10.786000	25.693247	0.000840	20.844747
1145.329387	-3.001600	3.546200	-10.643000	25.681127	0.000838	20.809341
1146.330184	-3.001000	3.546200	-10.640000	25.675958	0.000838	20.831650
1147.328534	-2.996200	3.545400	-10.622000	25.682273	0.000836	20.812389
1148.329806	-2.996100	3.544900	-10.620000	25.721228	0.000837	20.836342
1149.328297	-2.994600	3.545600	-10.616000	25.690869	0.000837	20.812013
1150.331219	-3.001600	3.545000	-10.640000	25.677602	0.000834	20.820499
1151.330465	-3.006100	3.545100	-10.655000	25.651109	0.000836	20.821391
1152.328371	-2.993600	3.543700	-10.606000	25.622367	0.000835	20.810542
1153.331628	-2.976700	3.544900	-10.551000	25.600404	0.000836	20.817882
1154.331911	-2.982900	3.542900	-10.567000	25.629927	0.000834	20.829040
1155.329185	-2.976600	3.543400	-10.546000	25.648461	0.000834	20.798818
1156.329943	-2.982400	3.543900	-10.568000	25.661974	0.000834	20.822346
1157.333260	-3.022200	3.540800	-10.698000	25.698208	0.000832	20.784298
1158.330774	-3.004700	3.541800	-10.641000	25.730634	0.000832	20.801220
1159.333031	-3.015900	3.540800	-10.678000	25.740540	0.000830	20.816386
1160.333671	-2.988700	3.543500	-10.589000	25.737365	0.000833	20.817464
1161.333572	-2.999600	3.541500	-10.622000	25.735225	0.000830	20.798719
1162.335495	-2.988400	3.541900	-10.582000	25.722130	0.000829	20.811644
1163.337775	-2.989900	3.540000	-10.584000	25.717465	0.000828	20.820709
1164.330880	-3.003800	3.540000	-10.632000	25.679766	0.000830	20.827888
1165.334110	-2.995500	3.540200	-10.603000	25.674653	0.000827	20.811848
1166.332462	-2.973900	3.540100	-10.527000	25.634243	0.000825	20.800184
1167.332681	-2.990300	3.538800	-10.581000	25.589350	0.000828	20.794926
1168.337700	-2.999100	3.540200	-10.615000	25.587007	0.000824	20.816755
1169.340178	-3.002200	3.538600	-10.623000	25.599687	0.000826	20.808627
1170.336592	-3.009200	3.536800	-10.641000	25.611232	0.000827	20.799833
1171.337162	-2.998500	3.537500	-10.607000	25.602066	0.000826	20.791101
1172.339567	-2.992400	3.537400	-10.585000	25.606070	0.000824	20.797019
1173.336895	-2.987000	3.536900	-10.563000	25.638425	0.000823	20.803436
1174.337663	-2.996100	3.538500	-10.600000	25.644433	0.000824	20.805203
1175.334613	-2.992800	3.536500	-10.583000	25.625266	0.000824	20.801126
1176.336448	-2.998700	3.536300	-10.603000	25.618240	0.000823	20.796440
1177.339929	-2.992300	3.535500	-10.577000	25.587822	0.000821	20.756881
1178.336570	-3.006000	3.535300	-10.625000	25.584395	0.000820	20.787579
1179.341772	-2.995900	3.534600	-10.588000	25.558403	0.000819	20.802253
1180.339444	-3.000500	3.535700	-10.607000	25.585339	0.000818	20.780941
1181.338847	-3.009500	3.534100	-10.635000	25.593145	0.000818	20.806324
1182.342964	-3.002600	3.534000	-10.610000	25.585388	0.000819	20.775774
1183.341574	-3.005800	3.534300	-10.621000	25.570200	0.000818	20.797505
1184.340247	-3.025600	3.532300	-10.687000	25.576540	0.000819	20.791070
1185.339949	-3.015100	3.532700	-10.651000	25.566472	0.000816	20.774320
1186.341399	-2.974700	3.533900	-10.510000	25.592138	0.000816	20.789665
1187.342342	-3.015000	3.530400	-10.643000	25.577380	0.000818	20.789542
1188.343291	-3.003900	3.531000	-10.606000	25.594971	0.000816	20.784450
1189.344566	-2.978800	3.531900	-10.520000	25.576680	0.000815	20.788366
1190.346677	-2.972200	3.533300	-10.500000	25.558316	0.000815	20.790312
1191.344382	-3.012800	3.533000	-10.641000	25.569371	0.000813	20.786715
1192.346686	-2.976100	3.530900	-10.507000	25.554711	0.000813	20.791432
1193.346483	-3.006300	3.531100	-10.615000	25.530429	0.000814	20.797867
1194.343454	-2.965200	3.530500	-10.468000	25.549573	0.000813	20.766358
1195.345684	-2.999500	3.529500	-10.586000	25.570935	0.000812	20.794450
1196.345025	-2.990800	3.530200	-10.557000	25.630268	0.000811	20.793347
1197.347264	-2.972400	3.529200	-10.489000	25.626123	0.000811	20.796771
1198.347826	-2.981700	3.529000	-10.522000	25.638667	0.000811	20.802257
1199.352980	-2.990600	3.529200	-10.553000	25.644633	0.000810	20.788335
1200.347895	-2.991600	3.529100	-10.556000	25.667171	0.000810	20.788212
1201.347513	-3.014100	3.527700	-10.632000	25.659887	0.000808	20.790853
1202.346511	-2.988400	3.528100	-10.542000	25.686054	0.000809	20.785841
1203.345678	-2.982700	3.526900	-10.519000	25.724936	0.000806	20.801660
1204.352506	-3.017000	3.525500	-10.636000	25.715966	0.000806	20.784116
1205.346692	-2.986400	3.525900	-10.529000	25.687170	0.000808	20.765624
1206.351318	-2.972800	3.527900	-10.487000	25.689831	0.000806	20.777306
1207.350281	-2.985500	3.525500	-10.524000	25.684638	0.000806	20.775409
1208.349408	-3.008200	3.524700	-10.602000	25.650574	0.000806	20.783396
1209.351256	-3.013400	3.523800	-10.618000	25.661905	0.000803	20.753524
1210.350717	-2.986900	3.526000	-10.529000	25.633579	0.000804	20.768223
1211.348668	-3.015400	3.524200	-10.626000	25.610911	0.000803	20.790028
1212.348334	-2.994600	3.522900	-10.548000	25.633296	0.000802	20.788802
1213.351215	-3.006700	3.523600	-10.593000	25.617993	0.000802	20.763475
1214.348822	-2.981900	3.522500	-10.503000	25.612855	0.000803	20.783445
1215.350150	-3.011900	3.522400	-10.608000	25.614695	0.000802	20.762059
1216.351591	-3.003500	3.521200	-10.575000	25.626497	0.000801	20.764430
1217.348024	-3.010300	3.520500	-10.597000	25.611365	0.000799	20.758241
1218.352124	-3.004300	3.520800	-10.575000	25.600335	0.000800	20.777984
1219.352522	-2.982900	3.521700	-10.504000	25.620979	0.000800	20.770742
1220.353613	-3.021500	3.520700	-10.637000	25.638177	0.000800	20.755772
1221.357176	-3.016400	3.520800	-10.618000	25.656540	0.000796	20.766628
1222.350784	-3.017500	3.519200	-10.617000	25.644591	0.000799	20.764584
1223.353411	-3.009900	3.520500	-10.596000	25.630176	0.000797	20.755796
1224.351597	-3.008900	3.519900	-10.590000	25.646430	0.000797	20.762638
1225.354685	-2.986200	3.520900	-10.512000	25.693908	0.000796	20.757219
1226.352606	-3.027200	3.517800	-10.648000	25.706832	0.000796	20.757398
1227.354586	-3.010000	3.518800	-10.591000	25.722134	0.000795	20.757120
1228.352158	-2.994300	3.519400	-10.536000	25.716071	0.000793	20.752927
1229.354761	-2.971800	3.518400	-10.455000	25.726782	0.000794	20.762737
1230.354137	-2.991100	3.515400	-10.514000	25.723606	0.000794	20.764763
1231.354399	-2.982700	3.517800	-10.491000	25.732054	0.000794	20.776568
1232.355094	-3.002600	3.516700	-10.558000	25.694534	0.000793	20.764012
1233.356148	-3.004400	3.516400	-10.563000	25.704454	0.000792	20.762122
1234.355177	-3.007500	3.515300	-10.570000	25.713448	0.000791	20.749344
1235.357141	-3.005500	3.516600	-10.568000	25.733152	0.000791	20.744479
1236.353895	-2.994900	3.515700	-10.528000	25.754720	0.000791	20.746702
1237.357669	-2.991700	3.514600	-10.511000	25.728628	0.000790	20.758901
1238.358270	-3.010400	3.513900	-10.576000	25.727113	0.000789	20.761173
1239.361240	-3.030400	3.512200	-10.641000	25.734145	0.000788	20.767762
1240.357491	-3.012300	3.513000	-10.581000	25.744310	0.000789	20.741936
1241.356735	-3.004000	3.513900	-10.555000	25.759146	0.000788	20.745459
1242.356621	-3.003700	3.512900	-10.551000	25.749705	0.000789	20.763477
1243.357094	-2.992900	3.512800	-10.512000	25.739670	0.000787	20.753871
1244.362189	-3.003900	3.511900	-10.549000	25.736544	0.000787	20.750256
1245.363778	-3.010200	3.513000	-10.574000	25.729015	0.000785	20.747910
1246.361206	-2.996100	3.512000	-10.521000	25.725147	0.000785	20.746870
1247.365208	-3.004600	3.510800	-10.548000	25.752373	0.000785	20.757622
1248.366199	-3.004300	3.512100	-10.550000	25.753299	0.000783	20.766139
1249.366462	-2.985500	3.511900	-10.484000	25.780150	0.000782	20.755651
1250.362205	-2.992500	3.511000	-10.506000	25.784283	0.000784	20.763596
1251.363793	-3.005200	3.508300	-10.542000	25.797248	0.000782	20.738212
1252.367949	-2.992800	3.510000	-10.503000	25.785821	0.000779	20.734794
1253.365247	-2.981200	3.509000	-10.459000	25.767038	0.000782	20.760498
1254.362432	-2.990900	3.509100	-10.494000	25.776405	0.000782	20.746199
1255.365871	-3.005100	3.507900	-10.540000	25.788653	0.000781	20.757080
1256.365995	-3.023100	3.505900	-10.597000	25.778471	0.000778	20.749697
1257.368480	-2.996100	3.507400	-10.507000	25.767835	0.000778	20.735693
1258.367615	-3.020900	3.506400	-10.591000	25.800160	0.000779	20.763424
1259.369387	-2.992300	3.507400	-10.494000	25.793699	0.000777	20.753614
1260.364959	-3.007400	3.505500	-10.541000	25.772027	0.000777	20.743698
1261.367980	-2.998800	3.506800	-10.515000	25.747886	0.000780	20.743157
1262.366143	-2.992800	3.505700	-10.491000	25.702991	0.000777	20.740737
1263.366041	-2.978700	3.507100	-10.446000	25.673478	0.000776	20.749500
1264.368186	-3.014400	3.504000	-10.562000	25.684605	0.000777	20.720372
1265.365047	-2.990400	3.504400	-10.478000	25.703310	0.000775	20.718770
1266.365058	-3.000600	3.505800	-10.518000	25.724511	0.000776	20.739118
1267.365224	-2.985100	3.505400	-10.464000	25.746152	0.000775	20.742837
1268.365429	-3.014500	3.503500	-10.561000	25.791290	0.000773	20.751194
1269.365337	-2.990000	3.505100	-10.479000	25.767111	0.000773	20.728802
1270.371568	-2.981400	3.504300	-10.445000	25.749376	0.000773	20.724738
1271.367175	-2.989400	3.502100	-10.468000	25.736735	0.000772	20.742862
1272.368032	-2.987700	3.502600	-10.464000	25.692613	0.000772	20.723199
1273.382082	-3.018800	3.501500	-10.569000	25.657997	0.000773	20.747228
1274.369472	-2.996500	3.501800	-10.491000	25.630192	0.000771	20.724517
1275.368996	-3.000500	3.500300	-10.501000	25.584145	0.000770	20.719996
1276.370067	-2.986700	3.501700	-10.457000	25.605366	0.000770	20.737516
1277.370164	-3.006200	3.499900	-10.520000	25.595728	0.000771	20.744906
1278.373204	-2.995200	3.500500	-10.484000	25.632871	0.000770	20.726259
1279.372650	-3.008600	3.498700	-10.525000	25.672723	0.000769	20.738784
1280.375103	-2.993800	3.498800	-10.472000	25.700876	0.000769	20.729603
1281.374692	-3.008800	3.498500	-10.525000	25.722560	0.000768	20.729097
1282.376238	-2.986200	3.498800	-10.446000	25.720923	0.000768	20.732195
1283.374247	-3.018900	3.496900	-10.556000	25.699600	0.000768	20.715044
1284.373920	-2.984100	3.497800	-10.437000	25.700747	0.000765	20.708609
1285.375222	-3.022000	3.495500	-10.562000	25.690312	0.000766	20.713302
1286.373953	-3.006000	3.496700	-10.510000	25.680962	0.000764	20.732835
1287.375238	-3.020900	3.496000	-10.559000	25.710758	0.000765	20.730994
1288.374755	-2.996700	3.497100	-10.479000	25.739173	0.000765	20.740569
1289.376067	-2.999300	3.496500	-10.487000	25.759950	0.000764	20.716867
1290.377303	-2.999100	3.495200	-10.480000	25.772566	0.000764	20.724798
1291.378954	-2.982300	3.495700	-10.423000	25.801532	0.000764	20.732557
1292.377371	-3.025800	3.494200	-10.571000	25.804493	0.000762	20.740748
1293.380255	-3.005300	3.493700	-10.497000	25.760188	0.000762	20.702406
1294.378388	-2.998500	3.494100	-10.476000	25.746989	0.000761	20.739411
1295.377208	-2.987900	3.494900	-10.441000	25.753475	0.000760	20.734072
1296.377456	-2.985200	3.494200	-10.429000	25.754622	0.000760	20.729059
1297.379350	-2.989100	3.493700	-10.442000	25.784574	0.000760	20.726429
1298.378138	-2.998000	3.492300	-10.469000	25.768997	0.000759	20.712203
1299.377708	-2.988700	3.493000	-10.438000	25.826284	0.000758	20.711427
1300.381530	-3.006500	3.491400	-10.495000	25.831826	0.000758	20.707985
1301.388650	-2.967000	3.492600	-10.360000	25.845360	0.000756	20.731540
1302.381091	-3.004100	3.490800	-10.484000	25.819449	0.000756	20.723528
1303.379124	-2.990300	3.490800	-10.437000	25.806753	0.000757	20.721206
1304.381220	-3.015500	3.490200	-10.524000	25.778057	0.000756	20.726046
1305.380798	-3.014600	3.489400	-10.519000	25.792064	0.000754	20.702183
1306.379865	-2.987900	3.490700	-10.429000	25.806348	0.000755	20.723170
1307.381393	-2.993300	3.490200	-10.445000	25.797183	0.000753	20.746208
1308.379353	-3.013900	3.490300	-10.518000	25.794093	0.000752	20.695685
1309.381721	-2.980900	3.489200	-10.400000	25.809970	0.000754	20.710687
1310.380375	-2.995200	3.489000	-10.450000	25.833369	0.000752	20.720441
1311.381227	-2.991300	3.487900	-10.432000	25.868989	0.000752	20.720662
1312.383068	-2.996700	3.487200	-10.450000	25.889586	0.000752	20.711955
1313.381502	-2.989100	3.488100	-10.425000	25.925873	0.000751	20.704312
1314.381806	-3.005700	3.486000	-10.476000	25.917769	0.000752	20.724621
1315.383193	-3.002500	3.486400	-10.467000	25.905050	0.000751	20.704256
1316.381505	-3.001000	3.485700	-10.459000	25.937494	0.000749	20.692752
1317.380633	-2.999100	3.485900	-10.454000	25.925989	0.000749	20.709644
1318.386038	-3.027100	3.483300	-10.544000	25.914532	0.000749	20.722318
1319.379291	-2.998400	3.483800	-10.445000	25.910382	0.000747	20.710561
1320.383970	-3.007600	3.482500	-10.473000	25.935624	0.000747	20.704151
1321.383257	-3.004300	3.483300	-10.464000	25.911025	0.000747	20.715950
1322.379999	-3.006300	3.483400	-10.470000	25.921556	0.000748	20.708984
1323.380815	-2.984300	3.484100	-10.396000	25.896639	0.000745	20.715247
1324.386569	-2.983100	3.483800	-10.391000	25.917805	0.000746	20.719441
1325.379586	-3.002700	3.482400	-10.456000	25.881308	0.000744	20.725925
1326.383141	-2.988100	3.481800	-10.402000	25.896185	0.000745	20.714791
1327.385898	-3.009000	3.481300	-10.474000	25.926042	0.000746	20.716811
1328.382841	-3.022400	3.480100	-10.517000	25.901849	0.000743	20.702462
1329.384513	-3.012100	3.481000	-10.484000	25.893916	0.000743	20.732902
1330.387036	-2.960600	3.482100	-10.307000	25.900695	0.000742	20.692294
1331.382510	-3.006000	3.480100	-10.459000	25.912495	0.000742	20.730229
1332.381287	-2.997300	3.480700	-10.430000	25.906450	0.000742	20.726053
1333.388313	-3.015400	3.478100	-10.486000	25.907345	0.000741	20.714149
1334.389927	-2.993400	3.478300	-10.411000	25.927389	0.000741	20.718638
1335.385486	-3.002300	3.478300	-10.443000	25.895319	0.000740	20.725776
1336.388357	-3.002500	3.476300	-10.435000	25.885480	0.000740	20.711150
1337.388201	-2.992700	3.479000	-10.411000	25.911660	0.000739	20.718958
1338.384477	-2.998100	3.477500	-10.424000	25.880135	0.000740	20.715737
1339.389201	-2.990800	3.476900	-10.396000	25.884064	0.000739	20.742446
1340.388416	-2.991500	3.477300	-10.401000	25.897892	0.000738	20.726465
1341.389983	-3.013000	3.476100	-10.472000	25.891064	0.000739	20.704431
1342.389540	-2.987800	3.474900	-10.381000	25.898396	0.000737	20.721280
1343.390794	-2.988400	3.475300	-10.384000	25.920352	0.000737	20.752822
1344.390680	-3.014300	3.474500	-10.472000	25.899210	0.000736	20.717357
1345.388740	-2.972400	3.475800	-10.330000	25.899584	0.000735	20.729587
1346.395129	-3.022000	3.473700	-10.496000	25.894061	0.000736	20.721667
1347.389576	-3.003800	3.473900	-10.435000	25.896900	0.000734	20.729260
1348.393386	-2.994900	3.473100	-10.400000	25.877272	0.000733	20.725664
1349.390117	-3.008800	3.473000	-10.449000	25.846396	0.000733	20.722622
1350.388443	-2.993500	3.472400	-10.394000	25.863056	0.000734	20.701899
1351.391482	-3.011100	3.472100	-10.454000	25.854088	0.000733	20.725608
1352.399769	-3.001800	3.471700	-10.420000	25.858962	0.000733	20.712485
1353.393359	-2.993700	3.471200	-10.390000	25.876947	0.000733	20.706844
1354.390472	-3.003700	3.470700	-10.424000	25.881513	0.000733	20.724235
1355.389760	-3.034300	3.468900	-10.524000	25.912419	0.000730	20.731576
1356.389760	-2.997200	3.470100	-10.400000	25.913210	0.000732	20.726205
1357.391276	-3.002600	3.471000	-10.422000	25.921607	0.000729	20.729426
1358.391718	-2.989800	3.470200	-10.375000	25.935270	0.000730	20.734143
1359.390458	-3.005500	3.469200	-10.426000	25.935620	0.000729	20.716001
1360.394231	-3.004700	3.467900	-10.418000	25.928834	0.000730	20.724358
1361.397265	-2.985100	3.468800	-10.353000	25.923593	0.000726	20.724783
1362.391874	-3.007300	3.466900	-10.426000	25.935669	0.000727	20.728379
1363.390349	-2.989800	3.467600	-10.367000	25.931292	0.000728	20.714498
1364.393644	-2.999700	3.466100	-10.396000	25.924562	0.000727	20.716272
1365.392927	-3.001000	3.466500	-10.401000	25.885510	0.000726	20.733466
1366.390685	-2.973900	3.467500	-10.311000	25.856718	0.000726	20.732517
1367.399643	-3.024200	3.465600	-10.479000	25.833736	0.000727	20.729820
1368.395972	-2.984800	3.464300	-10.339000	25.844641	0.000725	20.707582
1369.391961	-3.011100	3.465000	-10.431000	25.852721	0.000722	20.724709
1370.395584	-3.006600	3.463300	-10.411000	25.851428	0.000724	20.742851
1371.393019	-3.008700	3.464000	-10.421000	25.872343	0.000725	20.727350
1372.391345	-3.002100	3.464300	-10.400000	25.861781	0.000722	20.710101
1373.396457	-2.997300	3.464400	-10.383000	25.867402	0.000723	20.725232
1374.394887	-3.011000	3.463000	-10.426000	25.869284	0.000723	20.710052
1375.393710	-3.008700	3.462200	-10.416000	25.907417	0.000722	20.731292
1376.396525	-3.000900	3.462200	-10.388000	25.912836	0.000721	20.742900
1377.396297	-2.992000	3.462800	-10.359000	25.939340	0.000723	20.740129
1378.393986	-2.988500	3.461400	-10.344000	25.959634	0.000719	20.742974
1379.402638	-2.993700	3.460700	-10.360000	26.002484	0.000720	20.738134
1380.397799	-2.997800	3.461000	-10.375000	25.998726	0.000718	20.731987
1381.394959	-2.978600	3.462800	-10.313000	25.998058	0.000718	20.734635
1382.399623	-3.000800	3.461100	-10.385000	25.982337	0.000718	20.731168
1383.399046	-3.000400	3.460100	-10.381000	26.010524	0.000718	20.747635
1384.398190	-2.998000	3.459000	-10.369000	25.956673	0.000720	20.739051
1385.399574	-2.986700	3.460400	-10.333000	25.919682	0.000719	20.721327
1386.427943	-3.012400	3.457900	-10.415000	25.924450	0.000716	20.728489
1387.402794	-3.007000	3.458200	-10.398000	25.873777	0.000716	20.731636
1388.400401	-2.981200	3.459100	-10.311000	25.894219	0.000716	20.733206
1389.401009	-2.995100	3.458300	-10.356000	25.900827	0.000714	20.739370
1390.399046	-3.008400	3.456600	-10.398000	25.905792	0.000715	20.739142
1391.399994	-2.989400	3.457100	-10.334000	25.913466	0.000713	20.726463
1392.400358	-2.998700	3.454600	-10.358000	25.942802	0.000714	20.758306
1393.401179	-2.977300	3.456100	-10.289000	25.956342	0.000714	20.741562
1394.401251	-3.012300	3.456000	-10.409000	25.984058	0.000712	20.745226
1395.400374	-3.014400	3.454200	-10.410000	26.003432	0.000713	20.741932
1396.401047	-2.983600	3.455500	-10.308000	25.963586	0.000711	20.742202
1397.401346	-2.986400	3.454500	-10.315000	25.942739	0.000711	20.728371
1398.405669	-3.011400	3.453800	-10.400000	25.907813	0.000711	20.725051
1399.401663	-3.020200	3.452700	-10.426000	25.948305	0.000709	20.724005
1400.419727	-2.987600	3.454200	-10.318000	25.947931	0.000710	20.749709
1401.408913	-2.989800	3.452600	-10.322000	25.924099	0.000709	20.748051
1402.404480	-2.985500	3.453100	-10.309000	25.968537	0.000712	20.721097
1403.404248	-2.998300	3.451300	-10.347000	25.978595	0.000708	20.752540
1404.405719	-3.007600	3.451500	-10.380000	26.000029	0.000707	20.736141
1405.408666	-2.991200	3.453000	-10.328000	26.013365	0.000708	20.744799
1406.408631	-3.010500	3.450200	-10.386000	26.047816	0.000709	20.746222
1407.405927	-3.008200	3.452400	-10.384000	26.047945	0.000704	20.763422
1408.407248	-2.999900	3.450300	-10.350000	26.053074	0.000706	20.720209
1409.407364	-2.990800	3.451200	-10.321000	26.053668	0.000707	20.753999
1410.410410	-2.979000	3.450900	-10.279000	25.992464	0.000706	20.730912
1411.407058	-2.998600	3.449600	-10.342000	25.968217	0.000705	20.743062
1412.410408	-3.020100	3.447400	-10.410000	25.965728	0.000704	20.749096
1413.405930	-3.016100	3.447300	-10.396000	25.977772	0.000704	20.740807
1414.407356	-3.014200	3.449100	-10.395000	26.004047	0.000704	20.756775
1415.406806	-2.990200	3.446100	-10.303000	26.021533	0.000703	20.757273
1416.405770	-3.000700	3.446400	-10.340000	26.004041	0.000703	20.755346
1417.406002	-2.966900	3.447000	-10.226000	25.964715	0.000702	20.758036
1418.406385	-2.992600	3.445700	-10.310000	25.928675	0.000702	20.754545
1419.408531	-3.002700	3.446200	-10.347000	25.908600	0.000702	20.750025
1420.407882	-3.006400	3.446900	-10.361000	25.899944	0.000699	20.758399
1421.408505	-3.001800	3.445500	-10.341000	25.905185	0.000699	20.757500
1422.408336	-3.012700	3.443900	-10.375000	25.905479	0.000701	20.767753
1423.409962	-2.966000	3.445000	-10.216000	25.912926	0.000700	20.762906
1424.407945	-3.012600	3.443900	-10.374000	25.937070	0.000699	20.759186
1425.411309	-3.000700	3.443400	-10.331000	25.966007	0.000697	20.756489
1426.416038	-2.998100	3.444900	-10.327000	25.990395	0.000697	20.753016
1427.413150	-3.019200	3.442400	-10.392000	26.027010	0.000697	20.753293
1428.414344	-2.986900	3.443100	-10.283000	26.079889	0.000697	20.768491
1429.412637	-3.017000	3.441500	-10.383000	26.056692	0.000697	20.766046
1430.415240	-3.031600	3.440400	-10.428000	26.071112	0.000695	20.756827
1431.415367	-3.013000	3.440400	-10.366000	26.085374	0.000695	20.752190
1432.413748	-3.023600	3.439800	-10.399000	26.120557	0.000695	20.763834
1433.413359	-3.003300	3.438900	-10.327000	26.142883	0.000694	20.772043
1434.417022	-2.974500	3.441200	-10.234000	26.161684	0.000693	20.758218
1435.422006	-3.020000	3.437500	-10.379000	26.161157	0.000693	20.773336
1436.417487	-2.994000	3.440500	-10.300000	26.164680	0.000692	20.766445
1437.419679	-2.987900	3.439500	-10.276000	26.189426	0.000692	20.766181
1438.417851	-2.988000	3.438700	-10.274000	26.157609	0.000690	20.769771
1439.417716	-2.984600	3.439800	-10.266000	26.173677	0.000691	20.768373
1440.424265	-3.007500	3.438200	-10.339000	26.161261	0.000691	20.754948
1441.421042	-2.998500	3.437500	-10.305000	26.169424	0.000691	20.761254
1442.420059	-3.003800	3.436200	-10.321000	26.162695	0.000689	20.783416
1443.423057	-3.024200	3.435400	-10.389000	26.184076	0.000690	20.787831
1444.418378	-2.993300	3.436600	-10.285000	26.192073	0.000689	20.777849
1445.421661	-2.986200	3.436600	-10.261000	26.185743	0.000690	20.777178
1446.422611	-3.002400	3.435700	-10.314000	26.140069	0.000686	20.767319
1447.416327	-2.994400	3.434600	-10.283000	26.117940	0.000686	20.779697
1448.420338	-2.989000	3.436800	-10.271000	26.113907	0.000686	20.791292
1449.422045	-2.998400	3.433400	-10.294000	26.112516	0.000688	20.801273
1450.423888	-3.023900	3.433700	-10.381000	26.088308	0.000686	20.761777
1451.420218	-3.007500	3.432100	-10.321000	26.115494	0.000686	20.791464
1452.432822	-3.000600	3.433300	-10.302000	26.129877	0.000688	20.772725
1453.420793	-2.991200	3.433600	-10.269000	26.179418	0.000686	20.797849
1454.422398	-3.011600	3.431800	-10.334000	26.167750	0.000684	20.773323
1455.427842	-3.005500	3.431100	-10.311000	26.175349	0.000683	20.786174
1456.425646	-2.994600	3.433100	-10.279000	26.131189	0.000683	20.783052
1457.422328	-2.972300	3.431600	-10.199000	26.101313	0.000682	20.780534
1458.425351	-2.988100	3.430300	-10.250000	26.050175	0.000684	20.785103
1459.427599	-2.987300	3.430200	-10.246000	26.041821	0.000680	20.768648
1460.423229	-3.015900	3.429300	-10.341000	25.999127	0.000681	20.793083
1461.427153	-2.997800	3.430200	-10.282000	26.001186	0.000681	20.771444
1462.425686	-3.003700	3.428800	-10.298000	26.017256	0.000680	20.764830
1463.429775	-3.016300	3.428300	-10.339000	26.039192	0.000680	20.783551
1464.431269	-3.000500	3.427300	-10.282000	26.049703	0.000680	20.797905
1465.423683	-2.995700	3.427600	-10.267000	26.094577	0.000680	20.791310
1466.422244	-2.986200	3.428600	-10.238000	26.111939	0.000679	20.798323
1467.426610	-2.988500	3.428200	-10.243000	26.123932	0.000677	20.778606
1468.425782	-3.015100	3.426400	-10.329000	26.102599	0.000676	20.782301
1469.429444	-2.977900	3.427400	-10.206000	26.095601	0.000677	20.781433
1470.435619	-2.978800	3.426300	-10.205000	26.127095	0.000676	20.789370
1471.428562	-3.005800	3.426700	-10.298000	26.128143	0.000677	20.778095
1472.429732	-3.020800	3.424600	-10.344000	26.084999	0.000675	20.787375
1473.430500	-3.003000	3.425100	-10.285000	26.096974	0.000676	20.781390
1474.431885	-3.002700	3.423900	-10.280000	26.122554	0.000674	20.790972
1475.427294	-3.012300	3.424600	-10.315000	26.139542	0.000674	20.821317
1476.436597	-2.990000	3.425300	-10.241000	26.091447	0.000674	20.794328
1477.430924	-2.989300	3.423300	-10.233000	26.057420	0.000673	20.797598
1478.429749	-2.978500	3.423600	-10.196000	26.051181	0.000675	20.789907
1479.430650	-2.992200	3.422400	-10.238000	26.062507	0.000671	20.790381
1480.432850	-2.986300	3.423300	-10.222000	26.038495	0.000673	20.802765
1481.428094	-3.006700	3.422200	-10.288000	26.006795	0.000672	20.798417
1482.437534	-3.007300	3.421200	-10.287000	25.979582	0.000670	20.790991
1483.436534	-3.016800	3.420800	-10.319000	25.958449	0.000672	20.798683
1484.432748	-3.002200	3.422000	-10.273000	25.950720	0.000670	20.804194
1485.438468	-2.984100	3.420400	-10.206000	25.969825	0.000669	20.798732
1486.432221	-2.982800	3.420200	-10.201000	26.002015	0.000669	20.794089
1487.434642	-3.002000	3.420200	-10.267000	26.018386	0.000668	20.801528
1488.433225	-2.995000	3.419100	-10.239000	26.031827	0.000668	20.808868
1489.434669	-2.998700	3.419300	-10.253000	26.005099	0.000669	20.817575
1490.432519	-2.993900	3.418600	-10.234000	26.013569	0.000669	20.790050
1491.436402	-3.016500	3.417700	-10.308000	26.017400	0.000667	20.799114
1492.434747	-2.983700	3.419400	-10.201000	26.060915	0.000666	20.813911
1493.434468	-2.999500	3.417500	-10.250000	26.084682	0.000666	20.791799
1494.437358	-3.009500	3.415100	-10.276000	26.123604	0.000664	20.795820
1495.435524	-2.990100	3.416500	-10.215000	26.135880	0.000666	20.803887
1496.432647	-2.988500	3.416300	-10.209000	26.164210	0.000666	20.820500
1497.438711	-3.013200	3.415500	-10.291000	26.181596	0.000662	20.830857
1498.437886	-3.004100	3.416100	-10.261000	26.191088	0.000663	20.818586
1499.433593	-3.005600	3.414700	-10.262000	26.206733	0.000662	20.814866
1500.435131	-3.024400	3.414200	-10.324000	26.232489	0.000662	20.817514
1501.435730	-2.989700	3.413800	-10.204000	26.229903	0.000664	20.815390
1502.433430	-2.997400	3.414000	-10.233000	26.193000	0.000662	20.800118
1503.439003	-2.986600	3.413900	-10.195000	26.184538	0.000662	20.814848
1504.436683	-2.991900	3.413000	-10.211000	26.180169	0.000659	20.804768
1505.439540	-2.979200	3.414200	-10.170000	26.204331	0.000659	20.803444
1506.438182	-3.001600	3.412600	-10.243000	26.226613	0.000660	20.816351
1507.440998	-3.005600	3.412900	-10.257000	26.213370	0.000659	20.831018
1508.433288	-3.002500	3.411700	-10.243000	26.221091	0.000659	20.816018
1509.439741	-3.007600	3.411100	-10.258000	26.250995	0.000659	20.834688
1510.437921	-3.005700	3.410300	-10.249000	26.264482	0.000658	20.820267
1511.435684	-2.994900	3.409500	-10.211000	26.267834	0.000656	20.826955
1512.440923	-3.008800	3.409400	-10.257000	26.269966	0.000657	20.823407
1513.439622	-2.994000	3.409600	-10.207000	26.272325	0.000657	20.825304
1514.435527	-3.006500	3.408400	-10.246000	26.250247	0.000656	20.821609
1515.441955	-3.005800	3.408700	-10.244000	26.256080	0.000655	20.817514
1516.439751	-3.012100	3.408800	-10.266000	26.267509	0.000653	20.835637
1517.440453	-3.014700	3.408300	-10.273000	26.278109	0.000658	20.835858
1518.443640	-3.007000	3.406100	-10.240000	26.301008	0.000654	20.825206
1519.439564	-3.000400	3.407400	-10.223000	26.289230	0.000655	20.832810
1520.442381	-2.991300	3.406900	-10.190000	26.290523	0.000652	20.835058
1521.445360	-3.006100	3.404700	-10.234000	26.274317	0.000652	20.823038
1522.442818	-2.977100	3.406800	-10.141000	26.261791	0.000652	20.827046
1523.441883	-3.022400	3.406500	-10.295000	26.226551	0.000651	20.828142
1524.442455	-3.006100	3.406400	-10.239000	26.248188	0.000652	20.815273
1525.442080	-2.991800	3.404600	-10.184000	26.247643	0.000651	20.823734
1526.441696	-3.021500	3.403100	-10.281000	26.238010	0.000649	20.857201
1527.450300	-3.002000	3.403800	-10.217000	26.226110	0.000649	20.832915
1528.446811	-3.006800	3.404500	-10.235000	26.222440	0.000650	20.813106
1529.442166	-2.986400	3.405300	-10.169000	26.230737	0.000650	20.848470
1530.450666	-3.000100	3.404800	-10.214000	26.240401	0.000649	20.821198
1531.444999	-2.993700	3.404100	-10.190000	26.260095	0.000648	20.829135
1532.443937	-2.982800	3.403200	-10.150000	26.255971	0.000646	20.838267
1533.450016	-2.968600	3.403700	-10.104000	26.291438	0.000645	20.831709
1534.446368	-2.991500	3.404400	-10.182000	26.324317	0.000646	20.838674
1535.446593	-2.984200	3.403000	-10.155000	26.327246	0.000647	20.842565
1536.448184	-3.006000	3.401200	-10.223000	26.323870	0.000645	20.854819
1537.449122	-2.994400	3.400300	-10.181000	26.301751	0.000647	20.838280
1538.445922	-2.991000	3.401300	-10.172000	26.298693	0.000646	20.824302
1539.448646	-3.007800	3.399700	-10.224000	26.311487	0.000646	20.839056
1540.446950	-2.990200	3.401100	-10.167000	26.312088	0.000644	20.836341
1541.446333	-2.993400	3.398900	-10.173000	26.285115	0.000643	20.850958
1542.450390	-3.001700	3.398000	-10.197000	26.274336	0.000643	20.836334
1543.445968	-3.011600	3.396800	-10.229000	26.278859	0.000643	20.847516
1544.451250	-2.981800	3.398000	-10.131000	26.286187	0.000642	20.862467
1545.446865	-3.004900	3.397700	-10.208000	26.272959	0.000641	20.840639
1546.447633	-3.013700	3.397100	-10.237000	26.303148	0.000642	20.856279
1547.446550	-2.993900	3.396900	-10.169000	26.297235	0.000641	20.850811
1548.450535	-2.987500	3.397800	-10.150000	26.263840	0.000638	20.836218
1549.448524	-3.019300	3.394800	-10.249000	26.229219	0.000638	20.853108
1550.446169	-3.018500	3.396200	-10.250000	26.225370	0.000639	20.847344
1551.450766	-3.005800	3.394500	-10.201000	26.224807	0.000636	20.842037
1552.452548	-2.994000	3.394600	-10.162000	26.217405	0.000637	20.845029
1553.454139	-3.000500	3.393500	-10.181000	26.172921	0.000637	20.844900
1554.451755	-2.986100	3.394400	-10.135000	26.175979	0.000636	20.874998
1555.450218	-3.010200	3.393800	-10.215000	26.147814	0.000635	20.842431
1556.449318	-3.014900	3.394500	-10.233000	26.162896	0.000636	20.837197
1557.451838	-2.987500	3.394200	-10.139000	26.144689	0.000635	20.851144
1558.457026	-2.998400	3.392800	-10.171000	26.188052	0.000633	20.837345
1559.454158	-3.002700	3.391900	-10.182000	26.187507	0.000635	20.857185
1560.455961	-2.998200	3.392500	-10.171000	26.231150	0.000633	20.842247
1561.454062	-2.974900	3.391900	-10.090000	26.253676	0.000632	20.832641
1562.453087	-2.995200	3.391800	-10.158000	26.263885	0.000632	20.837685
1563.458079	-2.975700	3.391900	-10.092000	26.253976	0.000632	20.836262
1564.454276	-3.000900	3.389700	-10.171000	26.228522	0.000632	20.848614
1565.453255	-3.020000	3.389900	-10.236000	26.236697	0.000629	20.853510
1566.454630	-2.996500	3.389700	-10.157000	26.230042	0.000632	20.873848
1567.453520	-3.013000	3.389100	-10.211000	26.186865	0.000630	20.874557
1568.453690	-3.009000	3.389600	-10.199000	26.216959	0.000630	20.854539
1569.453588	-2.991900	3.390000	-10.141000	26.210538	0.000629	20.835759
1570.460863	-3.013200	3.387400	-10.205000	26.219080	0.000628	20.841023
1571.455458	-3.022000	3.387400	-10.236000	26.197259	0.000627	20.830002
1572.457231	-3.010600	3.388000	-10.199000	26.167232	0.000629	20.835390
1573.455902	-3.009000	3.387400	-10.191000	26.181492	0.000628	20.820322
1574.456310	-2.997800	3.387600	-10.154000	26.180034	0.000629	20.812693
1575.460089	-3.021400	3.385600	-10.228000	26.206808	0.000625	20.832484
1576.457567	-3.023000	3.385800	-10.235000	26.227380	0.000625	20.824708
1577.457757	-3.004100	3.385900	-10.171000	26.267289	0.000625	20.813606
1578.459098	-2.994300	3.385200	-10.135000	26.292271	0.000625	20.841555
1579.461483	-3.000900	3.384600	-10.156000	26.258160	0.000623	20.837147
1580.458615	-3.008900	3.384400	-10.183000	26.241670	0.000625	20.834327
1581.457972	-3.015300	3.383200	-10.201000	26.230150	0.000623	20.826544
1582.458082	-3.018000	3.384100	-10.212000	26.226921	0.000622	20.834204
1583.460786	-2.987700	3.383600	-10.108000	26.212950	0.000623	20.822536
1584.458081	-3.009200	3.383400	-10.180000	26.198592	0.000621	20.827548
1585.460227	-2.982300	3.382700	-10.087000	26.224680	0.000621	20.820572
1586.461330	-2.987100	3.382900	-10.104000	26.220286	0.000622	20.819477
1587.460287	-2.998300	3.381800	-10.138000	26.208546	0.000621	20.818584
1588.463386	-2.988900	3.382000	-10.107000	26.224693	0.000621	20.812525
1589.462728	-2.987200	3.382700	-10.104000	26.264009	0.000621	20.819792
1590.460377	-2.986700	3.383400	-10.104000	26.256386	0.000620	20.839158
1591.462694	-2.987700	3.382300	-10.104000	26.245265	0.000619	20.818499
1592.462140	-2.992900	3.380700	-10.117000	26.265658	0.000620	20.822397
1593.460949	-2.971100	3.380700	-10.044000	26.265070	0.000619	20.809479
1594.461771	-3.020700	3.379100	-10.206000	26.263637	0.000618	20.802823
1595.461378	-2.985400	3.380200	-10.091000	26.327363	0.000617	20.812812
1596.462265	-3.021300	3.380500	-10.213000	26.290856	0.000617	20.811210
1597.460983	-2.997000	3.380500	-10.131000	26.320862	0.000615	20.818132
1598.462166	-3.025200	3.378100	-10.218000	26.354740	0.000614	20.808558
1599.463437	-2.982700	3.378800	-10.077000	26.315410	0.000614	20.786100
1600.467353	-2.988100	3.379300	-10.097000	26.297960	0.000614	20.805073
1601.462832	-3.000000	3.377300	-10.131000	26.310104	0.000615	20.811588
1602.467578	-2.992700	3.377300	-10.106000	26.280289	0.000614	20.811497
1603.463614	-2.999500	3.377100	-10.129000	26.241704	0.000612	20.817292
1604.462579	-2.992500	3.377200	-10.105000	26.189336	0.000610	20.780314
1605.466339	-3.002600	3.376200	-10.136000	26.175327	0.000612	20.812230
1606.465487	-2.988400	3.376500	-10.089000	26.133515	0.000610	20.797717
1607.463518	-2.978000	3.374900	-10.049000	26.122546	0.000612	20.799024
1608.469737	-2.995800	3.375700	-10.112000	26.129551	0.000610	20.797527
1609.466702	-3.004800	3.375200	-10.140000	26.177192	0.000611	20.799880
1610.464972	-2.970000	3.375200	-10.023000	26.217373	0.000611	20.798532
1611.470838	-3.008100	3.375100	-10.152000	26.245813	0.000609	20.798661
1612.466955	-3.016000	3.374100	-10.175000	26.255483	0.000608	20.796526
1613.470126	-3.000100	3.373900	-10.120000	26.287175	0.000608	20.783804
1614.473172	-3.004400	3.373100	-10.134000	26.325692	0.000608	20.780787
1615.470580	-3.015200	3.371900	-10.166000	26.327083	0.000607	20.786452
1616.474198	-3.007400	3.371800	-10.139000	26.353192	0.000608	20.776182
1617.473551	-3.002300	3.371200	-10.120000	26.378466	0.000605	20.789729
1618.470297	-3.015800	3.372500	-10.169000	26.386174	0.000605	20.790364
1619.470937	-3.019900	3.370900	-10.178000	26.391860	0.000605	20.784699
1620.474357	-2.988700	3.372300	-10.077000	26.378259	0.000604	20.806591
1621.470499	-3.007400	3.370100	-10.133000	26.348561	0.000604	20.798555
1622.470507	-2.987900	3.371200	-10.072000	26.330517	0.000602	20.786110
1623.475169	-3.008100	3.369000	-10.134000	26.307724	0.000604	20.800662
1624.470778	-3.021300	3.367500	-10.173000	26.355253	0.000603	20.763554
1625.472575	-3.021000	3.368600	-10.176000	26.376465	0.000602	20.790564
1626.475214	-2.987000	3.368500	-10.060000	26.406414	0.000600	20.762342
1627.474994	-2.990600	3.367600	-10.071000	26.424439	0.000601	20.785200
1628.475019	-2.968200	3.367400	-9.993300	26.435345	0.000600	20.799481
1629.474374	-2.998900	3.368700	-10.101000	26.403964	0.000599	20.798287
1630.473110	-3.004300	3.368500	-10.119000	26.430064	0.000598	20.789906
1631.475519	-3.021300	3.365900	-10.169000	26.438587	0.000598	20.800843
1632.482036	-3.004700	3.367000	-10.116000	26.427915	0.000601	20.766883
1633.482631	-2.992800	3.365600	-10.070000	26.415104	0.000599	20.770602
1634.477242	-3.023800	3.365100	-10.174000	26.433135	0.000597	20.787777
1635.479575	-2.982300	3.365900	-10.038000	26.430312	0.000596	20.767395
1636.479581	-3.027600	3.365000	-10.187000	26.453979	0.000596	20.778382
1637.476996	-3.012900	3.364700	-10.136000	26.443577	0.000596	20.750381
1638.477008	-3.018200	3.363500	-10.150000	26.476133	0.000595	20.775519
1639.479851	-3.014800	3.364800	-10.142000	26.486990	0.000595	20.777897
1640.478931	-2.999700	3.363900	-10.090000	26.493203	0.000592	20.776081
1641.476442	-3.002400	3.364200	-10.099000	26.499181	0.000592	20.763598
1642.478313	-2.978500	3.365400	-10.023000	26.477918	0.000592	20.765933
1643.481518	-3.002500	3.363200	-10.098000	26.448891	0.000592	20.760939
1644.479905	-2.983500	3.361500	-10.028000	26.396655	0.000593	20.778613
1645.478987	-2.995500	3.363200	-10.073000	26.346524	0.000591	20.780386
1646.479242	-3.005500	3.362900	-10.105000	26.311667	0.000592	20.771433
1647.480405	-3.002400	3.360100	-10.087000	26.310503	0.000592	20.754142
1648.480630	-2.978300	3.363000	-10.014000	26.339975	0.000590	20.774278
1649.477981	-3.002900	3.362100	-10.095000	26.333922	0.000588	20.756815
1650.483045	-2.990600	3.360700	-10.050000	26.272293	0.000589	20.771693
1651.480939	-3.009900	3.360600	-10.113000	26.264272	0.000588	20.769322
1652.482647	-3.013000	3.359400	-10.120000	26.303562	0.000586	20.771823
1653.481279	-2.971700	3.360600	-9.985300	26.282761	0.000588	20.763720
1654.482447	-2.987900	3.358900	-10.035000	26.255126	0.000586	20.755863
1655.482859	-3.008100	3.358700	-10.102000	26.260169	0.000588	20.745283
1656.480625	-3.010700	3.357900	-10.108000	26.278888	0.000584	20.765518
1657.482313	-2.995600	3.358700	-10.060000	26.294986	0.000586	20.761781
1658.483092	-3.006900	3.357200	-10.094000	26.352374	0.000585	20.759238
1659.481992	-2.989100	3.358200	-10.037000	26.316280	0.000585	20.752835
1660.482985	-2.992400	3.357100	-10.045000	26.288614	0.000584	20.759171
1661.483189	-2.998400	3.357200	-10.065000	26.297953	0.000583	20.739632
1662.482967	-3.011000	3.355400	-10.103000	26.332216	0.000582	20.764109
1663.484286	-3.005000	3.355500	-10.081000	26.304540	0.000583	20.745304
1664.484410	-3.000600	3.356000	-10.069000	26.274669	0.000582	20.733302
1665.484428	-2.993100	3.355200	-10.042000	26.263688	0.000581	20.756407
1666.484831	-2.996700	3.355400	-10.054000	26.265055	0.000580	20.760625
1667.485525	-2.985400	3.355800	-10.018000	26.233847	0.000583	20.745385
1668.482501	-3.002600	3.355300	-10.074000	26.227241	0.000580	20.759610
1669.483240	-3.001600	3.353900	-10.067000	26.184034	0.000580	20.756494
1670.486626	-2.980900	3.354000	-9.997200	26.176833	0.000578	20.741198
1671.483538	-2.999800	3.353000	-10.058000	26.214355	0.000577	20.735754
1672.491863	-3.010300	3.352800	-10.093000	26.252703	0.000577	20.742996
1673.486508	-3.011600	3.352600	-10.095000	26.286527	0.000577	20.755177
1674.495691	-3.000800	3.352400	-10.059000	26.285301	0.000576	20.750625
1675.485305	-3.031500	3.352000	-10.160000	26.336930	0.000576	20.767425
1676.494284	-3.024800	3.350900	-10.135000	26.381106	0.000576	20.741647
1677.486723	-2.998000	3.351400	-10.046000	26.392031	0.000575	20.760214
1678.484045	-3.026000	3.350000	-10.136000	26.405338	0.000574	20.746087
1679.487844	-2.987900	3.351200	-10.010000	26.444965	0.000574	20.760786
1680.484860	-2.997700	3.350900	-10.044000	26.465177	0.000574	20.741746
1681.486310	-3.007600	3.350200	-10.075000	26.453156	0.000574	20.751001
1682.483707	-3.011900	3.348300	-10.084000	26.461005	0.000571	20.767899
1683.484779	-3.009400	3.350200	-10.081000	26.452838	0.000570	20.748310
1684.485084	-3.027100	3.348000	-10.134000	26.429202	0.000573	20.735458
1685.486224	-3.001400	3.350000	-10.054000	26.395633	0.000571	20.733488
1686.488355	-2.980400	3.348100	-9.976900	26.373883	0.000570	20.725378
1687.492793	-3.020400	3.346700	-10.107000	26.375868	0.000572	20.743495
1688.489782	-2.978300	3.348700	-9.971700	26.371573	0.000568	20.722582
1689.486581	-3.006500	3.346100	-10.059000	26.414602	0.000568	20.742596
1690.488431	-2.989800	3.346100	-10.004000	26.405271	0.000568	20.753607
1691.485841	-2.993400	3.346000	-10.015000	26.398268	0.000567	20.735662
1692.487763	-2.973100	3.345900	-9.946100	26.393226	0.000569	20.744819
1693.488551	-2.993300	3.345800	-10.014000	26.381830	0.000566	20.744271
1694.492815	-3.012500	3.344300	-10.074000	26.376696	0.000566	20.741956
1695.489050	-2.994700	3.345100	-10.017000	26.368774	0.000564	20.759125
1696.488046	-2.995100	3.345200	-10.018000	26.355490	0.000565	20.726333
1697.487501	-3.007300	3.343200	-10.053000	26.399935	0.000565	20.737812
1698.491895	-3.009700	3.343500	-10.062000	26.411956	0.000563	20.738040
1699.487579	-2.992800	3.343100	-10.004000	26.380275	0.000563	20.754562
1700.487954	-2.981700	3.342600	-9.964000	26.364087	0.000563	20.737344
1701.490020	-3.002200	3.342800	-10.035000	26.393945	0.000565	20.737955
1702.489984	-3.013500	3.342200	-10.070000	26.394312	0.000564	20.753972
1703.488644	-2.981900	3.342600	-9.966000	26.422293	0.000559	20.727092
1704.490317	-2.990600	3.342800	-9.995700	26.425651	0.000561	20.721457
1705.489377	-3.022900	3.341500	-10.099000	26.420713	0.000561	20.716494
1706.490623	-2.989800	3.340700	-9.988300	26.440632	0.000561	20.734144
1707.494886	-2.980700	3.341000	-9.957600	26.450238	0.000561	20.730049
1708.491970	-2.988700	3.340200	-9.982000	26.449277	0.000559	20.744731
1709.493307	-3.001300	3.339100	-10.021000	26.415017	0.000560	20.723098
1710.492167	-2.982100	3.340900	-9.962500	26.413025	0.000557	20.716828
1711.492653	-2.979200	3.340900	-9.951200	26.406924	0.000560	20.733930
1712.494629	-3.020100	3.337900	-10.080000	26.408248	0.000554	20.726726
1713.503456	-2.993300	3.338400	-9.991600	26.377436	0.000556	20.734639
1714.492823	-3.003100	3.339300	-10.027000	26.332390	0.000556	20.719711
1715.493141	-3.008200	3.337100	-10.038000	26.321790	0.000556	20.719490
1716.497723	-3.000100	3.337300	-10.012000	26.361274	0.000555	20.724084
1717.493422	-2.975700	3.338200	-9.932200	26.380463	0.000553	20.732465
1718.495983	-3.004400	3.337200	-10.026000	26.390010	0.000554	20.738268
1719.495958	-3.007700	3.336100	-10.033000	26.389765	0.000551	20.727116
1720.497075	-2.994100	3.337400	-9.991000	26.410498	0.000552	20.720452
1721.494349	-3.011100	3.335300	-10.042000	26.460137	0.000551	20.705858
1722.495186	-2.992800	3.335000	-9.980400	26.455217	0.000553	20.728889
1723.500371	-3.010600	3.334500	-10.038000	26.502341	0.000552	20.718408
1724.498725	-3.009400	3.335600	-10.038000	26.485789	0.000552	20.734488
1725.499688	-2.996600	3.335000	-9.991800	26.527894	0.000552	20.711376
1726.503678	-2.999200	3.332900	-9.995300	26.548055	0.000550	20.717892
1727.498246	-3.022600	3.331500	-10.068000	26.554739	0.000549	20.722714
1728.498075	-3.011800	3.332600	-10.035000	26.545703	0.000550	20.698457
1729.505780	-3.024200	3.331200	-10.073000	26.549250	0.000547	20.720516
1730.497005	-3.008400	3.331500	-10.022000	26.561944	0.000549	20.729009
1731.499665	-3.000600	3.330200	-9.991600	26.525053	0.000547	20.714211
1732.499362	-2.989000	3.330400	-9.953600	26.508341	0.000546	20.719223
1733.500065	-3.002600	3.330700	-9.998200	26.450943	0.000546	20.703729
1734.500146	-3.013500	3.329900	-10.033000	26.411942	0.000547	20.697245
1735.503017	-3.021200	3.330100	-10.060000	26.382025	0.000545	20.694677
1736.501810	-2.988300	3.330900	-9.952900	26.341776	0.000544	20.700220
1737.502326	-2.985700	3.331300	-9.945600	26.314087	0.000543	20.717439
1738.505485	-2.998900	3.328900	-9.982200	26.272948	0.000544	20.688896
1739.503872	-2.991200	3.330100	-9.959800	26.325159	0.000542	20.711970
1740.504443	-2.993600	3.329000	-9.964400	26.351299	0.000541	20.691772
1741.503912	-3.003800	3.329500	-10.001000	26.410467	0.000542	20.694814
1742.504594	-3.003700	3.327400	-9.992600	26.432615	0.000540	20.703799
1743.507263	-3.000500	3.327700	-9.982800	26.440128	0.000541	20.685271
1744.506626	-2.981200	3.328100	-9.919900	26.409880	0.000539	20.689956
1745.502581	-2.997600	3.328100	-9.974400	26.336607	0.000540	20.702612
1746.503594	-2.984300	3.326900	-9.928000	26.322534	0.000539	20.698899
1747.506569	-3.014700	3.324500	-10.021000	26.303005	0.000540	20.704404
1748.506707	-2.997800	3.324900	-9.965700	26.273287	0.000538	20.711523
1749.506295	-3.039300	3.323700	-10.101000	26.286205	0.000537	20.692261
1750.504167	-3.000700	3.324500	-9.974300	26.295665	0.000540	20.697976
1751.509376	-3.024600	3.323700	-10.052000	26.295267	0.000536	20.689514
1752.504279	-3.019600	3.322600	-10.032000	26.318263	0.000534	20.699823
1753.503819	-2.972800	3.324800	-9.881900	26.315432	0.000536	20.675165
1754.507618	-2.994100	3.323200	-9.949000	26.322338	0.000534	20.678786
1755.509021	-2.998900	3.322000	-9.961000	26.375112	0.000535	20.688204
1756.514139	-2.979700	3.323900	-9.903300	26.403956	0.000534	20.703919
1757.508467	-3.014600	3.321800	-10.012000	26.423379	0.000532	20.690248
1758.507491	-2.978900	3.322500	-9.895600	26.450513	0.000533	20.691442
1759.509678	-2.989500	3.321400	-9.928200	26.486494	0.000532	20.707695
1760.512005	-3.011400	3.321800	-10.002000	26.535724	0.000531	20.707867
1761.510067	-3.014100	3.321000	-10.008000	26.540773	0.000531	20.702036
1762.512778	-2.996500	3.322300	-9.954500	26.600402	0.000530	20.701284
1763.509281	-3.000500	3.320900	-9.963900	26.595783	0.000529	20.702805
1764.514292	-2.998000	3.320100	-9.952200	26.625100	0.000529	20.705250
1765.527287	-2.993500	3.319300	-9.935700	26.608769	0.000530	20.695471
1766.510140	-2.974700	3.321000	-9.877600	26.583218	0.000527	20.700132
1767.510935	-2.989800	3.319100	-9.922100	26.575630	0.000527	20.700090
1768.515632	-3.002400	3.319800	-9.966700	26.621057	0.000526	20.695970
1769.516314	-3.001600	3.316600	-9.954000	26.592862	0.000525	20.688014
1770.514112	-2.992400	3.317200	-9.925600	26.601995	0.000525	20.708576
1771.520078	-3.028200	3.316500	-10.042000	26.615373	0.000525	20.695471
1772.518644	-3.008500	3.317300	-9.978700	26.618032	0.000524	20.675857
1773.514449	-3.008000	3.316000	-9.973400	26.633541	0.000524	20.689078
1774.520060	-2.997100	3.316500	-9.938700	26.633076	0.000525	20.703311
1775.516564	-3.028200	3.313800	-10.034000	26.629058	0.000524	20.693107
1776.517770	-3.010800	3.315300	-9.980600	26.616592	0.000524	20.702861
1777.525239	-2.999600	3.314900	-9.943000	26.570546	0.000522	20.721060
1778.518010	-2.992000	3.314600	-9.916800	26.576384	0.000521	20.674294
1779.518212	-3.002100	3.313900	-9.947600	26.557663	0.000521	20.687719
1780.521830	-3.010800	3.313500	-9.974300	26.559183	0.000522	20.685927
1781.521095	-3.018100	3.313100	-9.998400	26.600667	0.000522	20.684480
1782.520970	-2.999600	3.312800	-9.935900	26.614035	0.000522	20.697445
1783.521923	-3.001100	3.313300	-9.943000	26.646842	0.000518	20.692967
1784.520272	-2.984500	3.314600	-9.891400	26.664894	0.000518	20.666067
1785.524784	-2.975500	3.313000	-9.855900	26.693063	0.000520	20.679689
1786.523350	-3.003500	3.312300	-9.947100	26.709846	0.000517	20.685183
1787.521491	-3.000400	3.311900	-9.935200	26.734849	0.000517	20.679025
1788.521714	-3.000200	3.310000	-9.929200	26.711918	0.000519	20.682998
1789.524674	-3.016600	3.309600	-9.982200	26.710545	0.000515	20.685411
1790.524552	-3.009000	3.309800	-9.958400	26.712285	0.000516	20.696644
1791.523961	-3.004700	3.309800	-9.944200	26.703348	0.000514	20.686711
1792.525406	-2.994600	3.309700	-9.910000	26.690621	0.000515	20.670595
1793.522562	-2.983000	3.309400	-9.871400	26.685384	0.000515	20.689040
1794.524652	-2.994800	3.308700	-9.907200	26.683001	0.000515	20.693757
1795.526941	-3.024400	3.308500	-10.005000	26.730140	0.000513	20.681403
1796.524786	-3.004800	3.308200	-9.939600	26.745686	0.000512	20.693241
1797.524361	-3.006100	3.308900	-9.945900	26.773210	0.000513	20.674445
1798.523577	-3.011100	3.306900	-9.956500	26.739237	0.000510	20.709044
1799.526137	-2.990000	3.308000	-9.889600	26.743041	0.000512	20.709549
1800.524515	-3.019900	3.306800	-9.985700	26.725322	0.000510	20.688414
1801.528316	-3.000000	3.308200	-9.924000	26.658228	0.000508	20.693033
1802.525714	-3.004700	3.306600	-9.934100	26.647900	0.000510	20.708257
1803.523808	-3.012800	3.305800	-9.959100	26.614559	0.000507	20.693230
1804.535600	-3.004000	3.304700	-9.926000	26.629163	0.000508	20.692738
1805.528839	-3.019000	3.305100	-9.977600	26.642076	0.000506	20.692443
1806.523731	-3.007400	3.305200	-9.938700	26.653819	0.000506	20.698559
1807.533259	-2.975700	3.307000	-9.840000	26.704204	0.000507	20.692788
1808.523818	-3.021700	3.303100	-9.979600	26.719254	0.000504	20.686107
1809.525192	-2.999100	3.303400	-9.906400	26.723425	0.000503	20.694568
1810.530226	-2.990000	3.303600	-9.876800	26.707740	0.000505	20.698239
1811.526292	-3.012800	3.303600	-9.952100	26.689377	0.000504	20.679303
1812.523534	-3.001000	3.302400	-9.908800	26.645116	0.000502	20.692180
1813.531785	-2.994900	3.302500	-9.889900	26.620572	0.000502	20.688843
1814.526258	-2.975100	3.304000	-9.829200	26.609357	0.000504	20.695587
1815.525617	-2.987400	3.301700	-9.862300	26.599525	0.000502	20.682858
1816.528016	-2.979600	3.302200	-9.838500	26.627556	0.000502	20.677845
1817.528830	-2.987000	3.301400	-9.858600	26.681300	0.000501	20.692521
1818.529107	-3.019900	3.298800	-9.961100	26.705850	0.000500	20.711513
1819.528640	-2.991300	3.300800	-9.871000	26.728201	0.000498	20.687041
1820.528790	-2.981300	3.300200	-9.838300	26.746839	0.000498	20.681597
1821.527471	-3.002700	3.298400	-9.902300	26.778339	0.000498	20.678653
1822.532025	-3.000200	3.299100	-9.896900	26.779492	0.000497	20.694987
1823.529047	-3.016600	3.298900	-9.950900	26.828561	0.000497	20.693589
1824.533307	-2.997600	3.298800	-9.887500	26.858043	0.000497	20.708535
1825.528974	-2.999800	3.298300	-9.892900	26.882822	0.000496	20.691249
1826.531502	-3.003900	3.298800	-9.908100	26.887660	0.000496	20.712711
1827.531079	-3.005700	3.297500	-9.909900	26.888432	0.000496	20.696416
1828.530847	-3.017500	3.296400	-9.944600	26.909107	0.000495	20.692075
1829.529100	-2.981800	3.296600	-9.828400	26.879756	0.000493	20.693856
1830.534938	-3.040300	3.294900	-10.016000	26.827859	0.000495	20.685296
1831.532458	-2.986400	3.296800	-9.843600	26.825201	0.000493	20.688313
1832.530954	-3.033000	3.295300	-9.993100	26.840144	0.000492	20.692433
1833.529030	-3.007100	3.295700	-9.909300	26.804979	0.000492	20.714924
1834.529124	-2.975500	3.294900	-9.803000	26.778545	0.000492	20.723909
1835.533027	-3.015600	3.294600	-9.934300	26.742434	0.000489	20.688549
1836.530419	-3.002000	3.292800	-9.884000	26.757508	0.000489	20.699912
1837.530591	-3.008000	3.293300	-9.905600	26.724520	0.000489	20.706575
1838.529490	-3.034900	3.291900	-9.988900	26.706703	0.000488	20.704784
1839.534218	-3.012200	3.293400	-9.919300	26.642608	0.000491	20.705781
1840.533557	-3.004900	3.292300	-9.891900	26.634897	0.000488	20.702297
1841.533106	-3.013000	3.291500	-9.916000	26.645494	0.000485	20.697302
1842.536346	-2.992200	3.292300	-9.850100	26.664262	0.000486	20.710007
1843.534864	-3.009400	3.290200	-9.901200	26.717484	0.000484	20.702346
1844.540460	-2.997000	3.290900	-9.862300	26.753554	0.000484	20.706842
1845.534960	-2.994400	3.291700	-9.855900	26.774077	0.000484	20.698553
1846.536711	-3.005700	3.291000	-9.891200	26.809999	0.000485	20.724714
1847.541362	-2.993800	3.290800	-9.851100	26.769002	0.000483	20.703407
1848.539583	-2.979200	3.290500	-9.802100	26.752202	0.000482	20.728244
1849.540394	-2.993800	3.289500	-9.847200	26.692551	0.000483	20.726593
1850.540734	-2.979000	3.289100	-9.797300	26.674593	0.000480	20.716600
1851.537992	-3.001400	3.288200	-9.868200	26.714267	0.000481	20.680144
1852.539507	-3.018300	3.287200	-9.920600	26.717739	0.000480	20.704500
1853.543143	-3.014500	3.287300	-9.908400	26.685668	0.000480	20.717777
1854.538527	-3.012000	3.287600	-9.900900	26.692628	0.000478	20.718610
1855.539484	-2.990500	3.287300	-9.829700	26.677983	0.000484	20.713369
1856.540650	-3.008200	3.286900	-9.886400	26.704744	0.000478	20.699969
1857.545922	-3.024000	3.287100	-9.938900	26.752304	0.000478	20.726450
1858.539301	-2.991100	3.286500	-9.829300	26.766232	0.000478	20.697303
1859.544449	-3.004700	3.285800	-9.871500	26.758044	0.000476	20.716573
1860.543166	-3.021700	3.283400	-9.918900	26.812829	0.000477	20.710489
1861.542593	-2.988500	3.284900	-9.816200	26.836335	0.000476	20.693344
1862.546686	-3.025100	3.283700	-9.932400	26.848327	0.000475	20.711093
1863.543674	-2.998900	3.284500	-9.849100	26.792516	0.000474	20.727999
1864.542723	-3.003800	3.283400	-9.862000	26.785760	0.000476	20.691332
1865.543341	-3.005900	3.285400	-9.874700	26.807338	0.000474	20.707339
1866.549516	-3.007900	3.282900	-9.873500	26.821779	0.000473	20.713798
1867.543200	-2.992600	3.282200	-9.822000	26.853528	0.000472	20.719643
1868.550486	-2.995100	3.283700	-9.834500	26.876390	0.000471	20.697584
1869.547447	-3.011100	3.282100	-9.881800	26.910212	0.000470	20.714999
1870.546007	-3.010500	3.281800	-9.878400	26.932364	0.000470	20.705031
1871.547165	-3.014800	3.280500	-9.888800	26.889852	0.000471	20.713493
1872.547127	-2.974600	3.282500	-9.763200	26.911243	0.000469	20.718407
1873.545059	-2.992600	3.281700	-9.820200	26.903209	0.000469	20.731666
1874.551089	-3.011100	3.279600	-9.873700	26.918306	0.000468	20.736415
1875.548427	-2.993900	3.279600	-9.817400	26.926891	0.000467	20.722288
1876.545409	-2.991600	3.279300	-9.808800	26.949556	0.000465	20.732278
1877.550634	-2.985300	3.277800	-9.784600	26.981920	0.000466	20.733528
1878.547596	-2.998700	3.279300	-9.832800	27.002194	0.000465	20.732580
1879.548660	-2.973100	3.278800	-9.747100	27.020964	0.000465	20.729644
1880.558086	-3.004900	3.277900	-9.848600	27.005502	0.000465	20.704136
1881.550140	-3.014600	3.278000	-9.881100	27.007322	0.000464	20.707863
1882.550049	-3.001500	3.277800	-9.837400	27.001989	0.000465	20.723364
1883.551902	-3.005100	3.276400	-9.845300	27.017702	0.000464	20.718777
1884.550348	-2.989300	3.275600	-9.790600	27.044234	0.000464	20.720803
1885.550112	-3.004300	3.275000	-9.838100	27.056566	0.000462	20.717558
1886.559522	-3.028200	3.274700	-9.915000	27.065727	0.000460	20.727245
1887.549286	-2.986500	3.274800	-9.777900	27.059874	0.000460	20.726575
1888.553639	-3.000600	3.274100	-9.822900	27.095957	0.000459	20.723034
1889.558087	-2.987600	3.275700	-9.786000	27.135988	0.000459	20.702128
1890.552036	-3.025900	3.272300	-9.900600	27.136013	0.000460	20.737716
1891.551124	-2.991200	3.274200	-9.793200	27.128274	0.000459	20.715707
1892.558089	-3.033900	3.272600	-9.926000	27.082868	0.000456	20.714612
1893.551207	-2.981000	3.275300	-9.762400	27.096198	0.000457	20.718535
1894.555239	-3.009200	3.271900	-9.844900	27.066374	0.000457	20.707032
1895.560251	-3.002300	3.272000	-9.821300	27.018290	0.000455	20.709884
1896.553638	-3.000000	3.272500	-9.816800	26.980374	0.000454	20.731974
1897.556873	-3.015600	3.270400	-9.860800	26.938385	0.000455	20.732424
1898.556771	-3.021200	3.271300	-9.881600	26.962408	0.000455	20.728606
1899.559449	-3.003100	3.271500	-9.822700	26.984593	0.000453	20.717724
1900.557177	-2.997100	3.270400	-9.800700	27.005518	0.000454	20.721223
1901.557983	-2.979000	3.270600	-9.742400	27.011329	0.000454	20.723274
1902.557083	-2.992500	3.271400	-9.787600	26.981161	0.000449	20.729446
1903.558523	-3.021000	3.269600	-9.876400	26.924749	0.000451	20.738153
1904.558317	-2.986700	3.270300	-9.766500	26.913781	0.000449	20.721434
1905.558222	-2.991500	3.268900	-9.777800	26.938333	0.000449	20.738062
1906.559202	-3.012900	3.268100	-9.844800	26.958088	0.000450	20.745125
1907.555593	-2.996100	3.269700	-9.794500	26.961340	0.000450	20.727532
1908.556743	-3.020800	3.266700	-9.867200	26.962405	0.000449	20.722439
1909.560563	-3.025200	3.267900	-9.885500	27.009685	0.000447	20.760029
1910.560087	-3.017400	3.265700	-9.853100	27.039372	0.000446	20.731561
1911.559640	-3.009500	3.264800	-9.824300	27.048508	0.000446	20.736008
1912.557995	-3.014300	3.266300	-9.844500	27.083544	0.000445	20.729042
1913.562412	-3.001900	3.266800	-9.805300	27.090005	0.000442	20.741231
1914.561401	-3.002000	3.263800	-9.796600	27.083062	0.000444	20.737093
1915.563474	-3.006700	3.265900	-9.818100	27.064919	0.000444	20.740184
1916.562435	-2.986100	3.265800	-9.749900	27.047506	0.000443	20.713662
1917.558830	-2.989900	3.265300	-9.761800	27.034410	0.000443	20.756444
1918.562090	-2.978100	3.264300	-9.719800	27.056318	0.000442	20.727266
1919.567541	-2.993500	3.264400	-9.770800	27.037913	0.000441	20.737680
1920.560635	-3.011300	3.262900	-9.824500	26.987243	0.000440	20.755004
1921.562631	-3.011100	3.260000	-9.814700	26.978463	0.000439	20.722465
1922.563744	-3.001600	3.263300	-9.794500	27.017150	0.000439	20.740034
1923.560614	-3.004900	3.261500	-9.798600	27.028155	0.000438	20.736877
1924.560754	-2.994400	3.263000	-9.770100	27.033684	0.000438	20.754291
1925.566278	-3.012800	3.260900	-9.823300	27.062996	0.000438	20.738724
1926.566157	-2.978600	3.261400	-9.713700	27.045332	0.000437	20.737081
1927.565451	-2.986500	3.261600	-9.739800	27.070051	0.000437	20.753407
1928.567094	-3.004800	3.260100	-9.794500	27.044159	0.000435	20.750601
1929.568735	-3.022200	3.260400	-9.852900	27.057490	0.000435	20.748834
1930.566520	-3.009800	3.258600	-9.806900	27.087192	0.000432	20.764956
1931.571516	-3.014800	3.258800	-9.822700	27.078413	0.000434	20.759445
1932.567463	-3.006600	3.260800	-9.803300	27.067715	0.000432	20.736832
1933.562605	-2.999800	3.257700	-9.771000	27.029736	0.000430	20.745579
1934.564321	-2.989300	3.258600	-9.739300	27.057822	0.000430	20.758177
1935.567317	-2.996400	3.258500	-9.762400	27.071827	0.000430	20.739545
1936.568643	-3.010200	3.257300	-9.803700	27.048798	0.000427	20.749102
1937.569517	-2.989000	3.258600	-9.739000	27.086970	0.000427	20.769948
1938.568982	-3.001900	3.255900	-9.772500	27.119678	0.000430	20.761592
1939.567091	-2.999700	3.255600	-9.765600	27.132813	0.000427	20.739240
1940.570048	-3.027700	3.255500	-9.855200	27.159416	0.000429	20.752721
1941.566758	-3.018900	3.254200	-9.823100	27.172347	0.000425	20.748183
1942.564247	-3.004100	3.255000	-9.776800	27.205793	0.000426	20.751477
1943.564716	-3.046700	3.253200	-9.910100	27.151863	0.000426	20.759349
1944.565067	-2.994700	3.253800	-9.743800	27.126535	0.000425	20.744780
1945.565486	-3.003500	3.254400	-9.773600	27.116041	0.000423	20.768366
1946.570291	-2.990800	3.253500	-9.730000	27.088152	0.000424	20.755489
1947.568153	-2.988600	3.253800	-9.722700	27.104531	0.000422	20.779075
1948.568514	-2.982100	3.252900	-9.699500	27.083892	0.000421	20.754050
1949.573250	-3.017200	3.251700	-9.809300	27.089403	0.000419	20.745367
1950.568857	-2.985200	3.254100	-9.712700	27.058789	0.000420	20.754408
1951.571550	-3.008900	3.251000	-9.780800	27.057326	0.000422	20.764791
1952.569806	-3.016800	3.249900	-9.803300	27.048368	0.000420	20.750092
1953.567359	-3.011400	3.250400	-9.786800	27.058080	0.000417	20.766498
1954.571962	-3.010100	3.249400	-9.779400	27.051448	0.000417	20.770734
1955.569379	-2.984900	3.250400	-9.699600	27.102220	0.000418	20.758732
1956.570598	-2.989400	3.249400	-9.713400	27.129205	0.000416	20.752681
1957.568826	-2.977100	3.249800	-9.674000	27.133269	0.000416	20.766253
1958.568162	-2.996500	3.250600	-9.739300	27.129359	0.000416	20.760897
1959.569427	-2.977700	3.248300	-9.671700	27.151638	0.000414	20.759597
1960.571959	-2.986700	3.249600	-9.703000	27.148338	0.000413	20.772400
1961.569555	-3.005500	3.246500	-9.756400	27.151817	0.000413	20.781588
1962.569026	-2.998900	3.247800	-9.738800	27.149386	0.000412	20.771557
1963.572662	-3.007800	3.247300	-9.765600	27.161651	0.000412	20.751649
1964.569040	-3.003200	3.246300	-9.747800	27.162586	0.000412	20.770609
1965.572534	-2.983600	3.246300	-9.684000	27.208842	0.000410	20.783467
1966.573211	-2.986300	3.245300	-9.690100	27.188798	0.000410	20.779903
1967.572981	-3.020900	3.246600	-9.806600	27.162975	0.000407	20.768628
1968.571009	-2.993800	3.246100	-9.717500	27.185969	0.000411	20.769471
1969.574994	-3.002600	3.244900	-9.742600	27.217432	0.000407	20.789737
1970.572820	-3.032600	3.243200	-9.834000	27.254899	0.000407	20.771948
1971.571830	-2.981600	3.243500	-9.669900	27.207239	0.000404	20.774743
1972.584874	-2.995000	3.243000	-9.712000	27.230143	0.000405	20.784504
1973.571947	-2.966400	3.243500	-9.620800	27.236498	0.000404	20.793742
1974.571718	-2.993700	3.242600	-9.707000	27.246624	0.000404	20.774530
1975.576914	-2.982900	3.242700	-9.671200	27.290885	0.000402	20.778274
1976.574355	-2.999900	3.243200	-9.728400	27.274639	0.000400	20.768570
1977.574653	-2.998300	3.242300	-9.719800	27.283002	0.000401	20.768921
1978.580946	-3.000600	3.240900	-9.723500	27.240992	0.000402	20.786882
1979.576825	-2.997700	3.241300	-9.714800	27.227248	0.000399	20.778274
1980.574253	-2.985200	3.242300	-9.677900	27.246136	0.000397	20.783996
1981.577628	-3.007100	3.239800	-9.741400	27.281636	0.000398	20.784617
1982.579687	-3.021700	3.238000	-9.783200	27.303407	0.000397	20.792767
1983.576497	-2.997100	3.239000	-9.706400	27.265495	0.000397	20.787821
1984.580031	-2.999100	3.237500	-9.708300	27.250085	0.000398	20.782753
1985.584474	-3.025700	3.238100	-9.795700	27.274507	0.000396	20.785981
1986.581468	-3.003200	3.238200	-9.722900	27.286316	0.000395	20.778419
1987.588523	-2.974500	3.237700	-9.629300	27.323725	0.000395	20.780013
1988.584292	-2.993800	3.238000	-9.693500	27.353532	0.000393	20.771117
1989.579710	-2.984400	3.236700	-9.657800	27.384941	0.000392	20.802240
1990.585194	-3.000200	3.235500	-9.704900	27.435917	0.000393	20.784770
1991.582495	-2.991700	3.237200	-9.684100	27.425719	0.000394	20.780674
1992.587350	-3.019800	3.237000	-9.773500	27.422695	0.000391	20.788064
1993.582838	-2.992400	3.234400	-9.678100	27.475108	0.000390	20.818034
1994.583339	-2.979400	3.236100	-9.640900	27.480746	0.000390	20.790042
1995.582125	-2.990100	3.233400	-9.666600	27.468817	0.000390	20.784205
1996.584303	-3.017500	3.233100	-9.755700	27.491617	0.000388	20.793393
1997.583967	-2.987300	3.234100	-9.660300	27.509306	0.000388	20.803603
1998.584193	-3.008600	3.233400	-9.727300	27.497134	0.000384	20.804633
1999.583306	-3.001600	3.231300	-9.698000	27.488406	0.000386	20.805336
2000.586287	-2.983000	3.233500	-9.644500	27.483694	0.000386	20.805810
2001.585753	-3.010300	3.232800	-9.729900	27.476485	0.000385	20.788126
2002.585140	-3.014200	3.229300	-9.732500	27.419978	0.000382	20.805719
2003.583706	-3.027600	3.229800	-9.778200	27.433914	0.000382	20.810731
2004.583810	-3.004700	3.231500	-9.709200	27.432142	0.000380	20.816059
2005.583901	-3.002600	3.230500	-9.698500	27.409445	0.000380	20.807451
2006.586502	-3.011500	3.230500	-9.727500	27.432694	0.000382	20.809977
2007.585013	-2.986700	3.230400	-9.647700	27.447402	0.000379	20.807230
2008.585553	-2.997100	3.228500	-9.674800	27.467594	0.000380	20.831812
2009.587628	-2.995600	3.226900	-9.665200	27.493588	0.000380	20.813394
2010.588071	-2.997500	3.228500	-9.675700	27.521108	0.000376	20.814055
2011.589049	-3.014500	3.226000	-9.722500	27.548595	0.000377	20.805675
2012.588465	-3.004900	3.226100	-9.693600	27.584466	0.000378	20.825172
2013.586157	-2.982200	3.227100	-9.622900	27.570874	0.000374	20.822400
2014.586804	-2.994300	3.226900	-9.661100	27.564730	0.000375	20.808633
2015.585423	-2.992600	3.225900	-9.653300	27.590072	0.000375	20.806631
2016.591184	-2.978500	3.225200	-9.604900	27.591770	0.000374	20.807864
2017.591464	-3.002500	3.225100	-9.682500	27.614770	0.000375	20.814886
2018.588094	-2.979600	3.225700	-9.610300	27.629053	0.000372	20.823093
2019.593760	-3.012600	3.225000	-9.714700	27.626111	0.000372	20.821081
2020.591759	-2.989900	3.223200	-9.635300	27.625193	0.000371	20.812097
2021.589552	-3.011900	3.222900	-9.704800	27.596773	0.000370	20.813372
2022.589326	-3.010800	3.224500	-9.706300	27.599063	0.000372	20.823737
2023.590849	-3.006700	3.223000	-9.689300	27.580214	0.000371	20.825634
2024.591225	-3.007200	3.221400	-9.685700	27.606456	0.000368	20.813633
2025.589038	-3.018600	3.220700	-9.720900	27.593936	0.000368	20.827587
2026.590317	-3.003800	3.221100	-9.674500	27.556707	0.000368	20.821897
2027.591854	-3.024700	3.221700	-9.743700	27.542814	0.000367	20.815505
2028.593466	-3.015500	3.219500	-9.707100	27.537889	0.000365	20.828567
2029.595808	-2.994200	3.218700	-9.635500	27.459901	0.000365	20.818856
2030.591695	-2.977300	3.220400	-9.587000	27.415468	0.000363	20.832476
2031.591221	-2.991500	3.218800	-9.627700	27.378143	0.000364	20.825747
2032.600519	-3.003300	3.218200	-9.665000	27.402733	0.000362	20.810656
2033.591840	-2.995900	3.218800	-9.642500	27.367725	0.000363	20.829965
2034.599077	-3.020700	3.217100	-9.717100	27.327189	0.000360	20.830914
2035.596260	-2.996500	3.218300	-9.642100	27.313933	0.000360	20.795294
2036.596451	-3.006400	3.217500	-9.672400	27.299467	0.000358	20.813459
2037.593950	-3.014000	3.216100	-9.691200	27.332211	0.000359	20.802775
2038.599006	-3.005900	3.216700	-9.667900	27.321824	0.000358	20.814137
2039.594978	-3.002900	3.216000	-9.656100	27.305522	0.000357	20.817178
2040.594155	-2.997800	3.214100	-9.634100	27.291933	0.000356	20.810147
2041.594504	-3.019400	3.213500	-9.702500	27.317687	0.000355	20.801915
2042.597371	-3.004300	3.214800	-9.657700	27.339702	0.000357	20.806517
2043.594852	-2.988600	3.214400	-9.605600	27.326552	0.000353	20.815100
2044.596115	-2.980600	3.213800	-9.578200	27.355183	0.000354	20.826357
2045.596712	-3.010400	3.212200	-9.668400	27.348137	0.000354	20.812157
2046.595287	-3.008600	3.211700	-9.662100	27.334842	0.000352	20.801628
2047.596319	-2.987300	3.212800	-9.596700	27.349615	0.000350	20.817911
2048.595862	-2.993800	3.212600	-9.616000	27.394636	0.000349	20.791130
2049.598954	-3.011300	3.211200	-9.667700	27.460002	0.000350	20.783396
2050.600315	-2.975700	3.213500	-9.561800	27.488912	0.000349	20.782136
2051.599694	-2.982800	3.210100	-9.574100	27.521007	0.000348	20.807790
2052.598514	-2.989800	3.211100	-9.599200	27.579841	0.000348	20.795388
2053.598180	-2.992300	3.211400	-9.607900	27.608538	0.000345	20.797710
2054.598268	-3.005300	3.209500	-9.644700	27.619327	0.000347	20.781539
2055.599503	-2.997800	3.208600	-9.617400	27.592946	0.000346	20.800039
2056.598871	-3.015200	3.207300	-9.668700	27.549266	0.000347	20.779798
2057.600438	-3.007100	3.208300	-9.646400	27.531886	0.000343	20.793131
2058.599417	-2.985600	3.209200	-9.580200	27.555896	0.000343	20.799270
2059.602814	-2.992900	3.207800	-9.599100	27.533568	0.000343	20.807151
2060.601885	-3.006100	3.207900	-9.642500	27.595310	0.000342	20.796253
2061.605366	-3.000800	3.206500	-9.621200	27.597195	0.000341	20.782503
2062.605329	-3.037800	3.205500	-9.736100	27.586349	0.000339	20.802884
2063.601854	-2.998300	3.205800	-9.611300	27.610982	0.000341	20.817239
2064.606152	-2.996900	3.205400	-9.604800	27.593864	0.000339	20.786738
2065.606768	-3.016300	3.203600	-9.661000	27.594758	0.000338	20.816086
2066.605852	-3.000900	3.202900	-9.610400	27.598479	0.000336	20.791855
2067.606663	-2.988400	3.205200	-9.577100	27.610040	0.000335	20.794479
2068.606094	-2.998300	3.202000	-9.599800	27.630002	0.000335	20.791332
2069.605239	-3.011500	3.201500	-9.640300	27.583577	0.000334	20.800096
2070.604885	-2.998100	3.202300	-9.599900	27.593181	0.000334	20.812129
2071.604914	-3.032400	3.201800	-9.708000	27.612501	0.000334	20.780835
2072.605680	-3.022900	3.199600	-9.670700	27.634966	0.000332	20.791585
2073.607452	-2.996000	3.200700	-9.588300	27.645836	0.000331	20.772177
2074.610758	-2.995200	3.200900	-9.586500	27.644268	0.000331	20.776764
2075.609796	-2.978100	3.202900	-9.537900	27.606009	0.000330	20.791846
2076.608882	-2.986900	3.200000	-9.556500	27.580416	0.000331	20.774629
2077.608318	-2.993200	3.200400	-9.578200	27.583414	0.000328	20.771956
2078.610292	-3.019400	3.198400	-9.656700	27.624956	0.000328	20.786254
2079.608079	-2.992500	3.198500	-9.569400	27.644479	0.000327	20.794045
2080.609457	-2.994300	3.198700	-9.576300	27.643917	0.000328	20.765030
2081.611980	-2.976500	3.199500	-9.522400	27.605196	0.000326	20.791502
2082.615648	-3.008500	3.198300	-9.621200	27.559720	0.000325	20.768030
2083.609770	-3.013900	3.196200	-9.631100	27.495530	0.000326	20.760345
2084.611567	-3.015000	3.197200	-9.638800	27.421390	0.000326	20.766362
2085.614635	-3.020600	3.193900	-9.646000	27.368577	0.000323	20.774398
2086.612406	-3.016900	3.194500	-9.636100	27.363945	0.000325	20.769738
2087.613453	-2.999400	3.195500	-9.582900	27.367935	0.000323	20.775175
2088.609722	-3.008400	3.194800	-9.610400	27.361515	0.000322	20.792898
2089.615457	-3.003700	3.193700	-9.591600	27.367569	0.000320	20.774332
2090.614711	-2.987000	3.193500	-9.537800	27.413385	0.000321	20.792923
2091.612731	-3.010300	3.191400	-9.605700	27.399424	0.000318	20.766549
2092.618250	-3.002500	3.193800	-9.588500	27.436714	0.000317	20.753803
2093.612763	-3.019000	3.191200	-9.632500	27.467373	0.000318	20.751931
2094.613167	-2.993700	3.191600	-9.553800	27.555111	0.000317	20.785204
2095.612409	-3.003400	3.192100	-9.585700	27.622125	0.000314	20.777242
2096.614159	-2.971100	3.190200	-9.477400	27.664542	0.000315	20.775827
2097.615133	-2.997800	3.188300	-9.556900	27.712506	0.000316	20.779996
2098.614553	-3.006300	3.189000	-9.586200	27.694682	0.000316	20.773439
2099.617685	-3.007300	3.188400	-9.588200	27.627233	0.000313	20.787598
2100.615646	-2.996100	3.188900	-9.553100	27.601730	0.000314	20.769049
2101.612295	-3.003200	3.187300	-9.571600	27.578322	0.000312	20.758298
2102.612136	-3.008600	3.186800	-9.586500	27.570514	0.000313	20.759924
2103.612119	-3.008500	3.187200	-9.587300	27.550827	0.000310	20.775203
2104.612621	-3.017300	3.185400	-9.610200	27.524087	0.000311	20.759205
2105.612444	-3.003400	3.184900	-9.564800	27.506926	0.000310	20.758060
2106.615318	-2.991100	3.186100	-9.529000	27.507900	0.000309	20.757144
2107.614694	-2.994900	3.185900	-9.539200	27.500855	0.000307	20.749581
2108.616887	-3.014500	3.184100	-9.597400	27.526734	0.000307	20.757601
2109.617314	-3.003300	3.186000	-9.567900	27.524874	0.000306	20.750039
2110.614727	-3.005200	3.182700	-9.563100	27.567189	0.000304	20.770804
2111.615991	-2.968300	3.184000	-9.450300	27.550200	0.000305	20.780262
2112.620837	-2.987300	3.182200	-9.505400	27.542367	0.000304	20.732077
2113.623563	-2.991800	3.182500	-9.520600	27.527667	0.000302	20.748582
2114.617507	-3.012500	3.180200	-9.578500	27.533664	0.000303	20.771686
2115.619350	-3.023100	3.180600	-9.614400	27.475900	0.000302	20.773313
2116.618550	-2.992600	3.180600	-9.517900	27.467961	0.000301	20.744936
2117.616718	-2.993800	3.180100	-9.519200	27.436287	0.000300	20.742941
2118.620919	-2.984100	3.181700	-9.493500	27.421928	0.000301	20.746039
2119.619618	-3.002700	3.179300	-9.545800	27.414833	0.000299	20.736057
2120.619626	-3.005700	3.178300	-9.551700	27.411842	0.000297	20.735419
2121.622520	-2.991300	3.177700	-9.504800	27.411290	0.000297	20.732967
2122.620913	-3.022800	3.176700	-9.601200	27.396525	0.000299	20.747985
2123.620568	-3.005900	3.177400	-9.549200	27.385961	0.000296	20.766756
2124.623069	-2.998100	3.177500	-9.525300	27.414760	0.000293	20.763960
2125.620498	-2.991600	3.178100	-9.506800	27.467749	0.000295	20.760370
2126.620406	-2.981800	3.176200	-9.469600	27.504087	0.000297	20.731021
2127.622131	-2.995800	3.174700	-9.509400	27.511391	0.000293	20.742637
2128.621820	-2.991800	3.173900	-9.494700	27.552708	0.000293	20.752440
2129.621710	-3.028200	3.173600	-9.609300	27.550733	0.000291	20.738124
2130.622878	-3.010200	3.172900	-9.549700	27.577270	0.000289	20.749652
2131.623356	-2.978600	3.174300	-9.454200	27.610972	0.000291	20.736146
2132.627817	-2.993500	3.174800	-9.503700	27.601725	0.000292	20.761457
2133.627338	-3.009100	3.171000	-9.540300	27.594137	0.000289	20.753347
2134.623599	-2.991900	3.171700	-9.488400	27.603017	0.000289	20.728142
2135.627264	-2.994000	3.171300	-9.493300	27.639375	0.000290	20.749553
2136.624979	-3.017900	3.170700	-9.567800	27.670499	0.000285	20.730137
2137.626902	-3.010500	3.170900	-9.545500	27.713255	0.000286	20.741394
2138.627082	-3.013700	3.169200	-9.550400	27.750056	0.000285	20.760884
2139.627055	-2.995100	3.169500	-9.491800	27.760153	0.000285	20.749234
2140.623863	-3.009200	3.168500	-9.533300	27.814157	0.000283	20.750477
2141.631051	-2.984800	3.168200	-9.455300	27.825716	0.000284	20.740773
2142.627523	-3.000800	3.168700	-9.507700	27.867842	0.000281	20.728640
2143.627489	-2.960600	3.168000	-9.377600	27.875599	0.000283	20.747354
2144.625878	-2.987700	3.166200	-9.457900	27.885817	0.000281	20.752897
2145.624737	-2.987800	3.165900	-9.458100	27.861116	0.000281	20.757435
2146.629945	-2.994600	3.165800	-9.479300	27.817172	0.000281	20.762520
2147.628082	-3.013700	3.165200	-9.538000	27.804036	0.000281	20.745507
2148.626547	-3.000500	3.163700	-9.491800	27.775345	0.000280	20.732279
2149.628900	-3.011200	3.164700	-9.527300	27.810625	0.000280	20.753086
2150.632130	-3.014300	3.163000	-9.533400	27.772811	0.000278	20.744428
2151.630651	-3.003600	3.163600	-9.502000	27.788254	0.000277	20.741477
2152.629096	-2.990600	3.164600	-9.463700	27.805247	0.000275	20.742458
2153.632302	-3.008300	3.161900	-9.509600	27.842686	0.000276	20.738411
2154.626033	-2.993300	3.162200	-9.464200	27.859046	0.000274	20.753454
2155.628056	-2.998000	3.160900	-9.474800	27.872164	0.000273	20.739630
2156.629557	-3.000300	3.159800	-9.479100	27.930507	0.000272	20.714424
2157.626866	-3.020300	3.157500	-9.535200	27.962045	0.000276	20.742851
2158.627706	-3.021600	3.158500	-9.542700	27.981628	0.000273	20.712299
2159.629839	-2.976300	3.159200	-9.401200	27.993697	0.000272	20.751476
2160.629680	-2.999800	3.156500	-9.467500	28.008925	0.000272	20.725552
2161.645948	-3.005200	3.156000	-9.483200	27.978777	0.000272	20.716068
2162.634779	-2.986000	3.157300	-9.426700	27.971760	0.000269	20.725126
2163.631064	-2.994200	3.155300	-9.445900	27.966902	0.000269	20.732566
2164.629319	-2.991700	3.156100	-9.441100	27.978184	0.000268	20.729696
2165.631538	-2.994400	3.157500	-9.453900	27.986062	0.000267	20.720082
2166.630575	-2.976500	3.153000	-9.383400	28.011272	0.000268	20.726966
2167.630236	-3.016600	3.152100	-9.507000	28.011248	0.000267	20.735003
2168.632020	-3.016000	3.151500	-9.504900	28.013977	0.000265	20.743440
2169.632353	-3.012200	3.152000	-9.492900	27.989457	0.000267	20.723500
2170.631913	-3.006300	3.151500	-9.473500	27.956929	0.000267	20.726320
2171.632248	-2.975400	3.151500	-9.375500	27.929362	0.000265	20.707582
2172.633806	-2.989400	3.151100	-9.419200	27.911112	0.000264	20.735207
2173.633800	-2.995200	3.150600	-9.436100	27.919340	0.000262	20.715987
2174.630835	-3.017000	3.147500	-9.495300	27.918203	0.000261	20.723377
2175.634455	-2.952200	3.150300	-9.299400	27.898026	0.000261	20.713026
2176.634070	-2.994400	3.148100	-9.426200	27.903948	0.000261	20.730367
2177.634199	-2.963700	3.148400	-9.329600	27.888028	0.000262	20.739949
2178.630268	-2.993300	3.147600	-9.420600	27.925033	0.000260	20.721717
2179.630708	-3.006800	3.146600	-9.459900	27.914815	0.000259	20.711432
2180.634928	-2.994900	3.145900	-9.419700	27.898732	0.000260	20.727488
2181.635464	-3.023400	3.147300	-9.514600	27.868102	0.000259	20.718471
2182.634156	-3.005500	3.145200	-9.450300	27.802152	0.000257	20.722746
2183.632724	-3.008300	3.143900	-9.456200	27.774305	0.000259	20.721749
2184.634505	-2.995400	3.144000	-9.416600	27.789682	0.000257	20.711145
2185.632517	-2.985100	3.145100	-9.388000	27.803021	0.000254	20.722673
2186.634991	-2.996400	3.142200	-9.413900	27.801193	0.000257	20.711823
2187.634418	-2.988600	3.142200	-9.390200	27.790859	0.000252	20.700475
2188.634696	-2.993800	3.141500	-9.404300	27.761542	0.000254	20.730717
2189.632944	-2.997600	3.139300	-9.409700	27.732232	0.000252	20.726351
2190.636415	-3.004100	3.140100	-9.431700	27.699696	0.000252	20.697875
2191.638480	-2.992200	3.139900	-9.393400	27.727130	0.000253	20.732122
2192.638260	-3.004400	3.138900	-9.429700	27.760014	0.000250	20.703099
2193.634775	-3.006700	3.137200	-9.431400	27.791590	0.000252	20.719229
2194.633584	-2.996500	3.138000	-9.401600	27.835422	0.000250	20.705969
2195.633222	-2.996300	3.135500	-9.393900	27.875029	0.000249	20.703630
2196.633218	-3.012600	3.134000	-9.440000	27.901728	0.000249	20.712959
2197.635555	-2.996100	3.135400	-9.393000	27.940316	0.000250	20.712917
2198.639007	-3.011900	3.133600	-9.436200	28.013705	0.000247	20.711396
2199.634695	-2.988900	3.134200	-9.366300	28.022257	0.000246	20.713841
2200.636267	-2.990400	3.134100	-9.371000	28.033716	0.000249	20.710202
2201.639828	-2.990800	3.133100	-9.368200	28.032596	0.000246	20.691529
2202.635114	-3.026700	3.130400	-9.473800	28.020031	0.000245	20.687891
2203.635214	-3.010700	3.130000	-9.422000	27.986708	0.000245	20.709826
2204.639071	-2.989800	3.130500	-9.358800	28.008702	0.000246	20.711102
2205.636104	-2.994300	3.131400	-9.375100	27.993660	0.000243	20.717298
2206.638080	-3.005900	3.128900	-9.402600	27.959467	0.000243	20.694734
2207.640926	-3.009800	3.128300	-9.413600	28.022028	0.000245	20.693220
2208.638272	-2.987400	3.129000	-9.346500	28.038483	0.000241	20.702198
2209.644343	-3.002500	3.127500	-9.389500	28.018836	0.000241	20.694275
2210.645347	-2.990800	3.127900	-9.353600	28.009090	0.000242	20.717657
2211.639358	-2.997800	3.125600	-9.368400	28.015214	0.000240	20.699164
2212.640832	-2.986800	3.126600	-9.337800	28.040602	0.000241	20.702434
2213.643898	-3.015800	3.123400	-9.418100	28.039115	0.000240	20.683867
2214.640765	-3.003100	3.123200	-9.378400	28.010658	0.000239	20.713545
2215.642869	-3.007900	3.122200	-9.390400	27.948135	0.000240	20.703717
2216.645142	-3.021900	3.121300	-9.431700	27.896616	0.000239	20.720142
2217.642742	-3.003500	3.121000	-9.372400	27.899288	0.000239	20.698174
2218.648435	-2.979500	3.120000	-9.295800	27.916621	0.000237	20.697128
2219.644837	-2.977900	3.121900	-9.295500	27.929544	0.000237	20.689270
2220.647050	-2.974300	3.120600	-9.280700	27.894219	0.000235	20.717255
2221.643801	-3.006000	3.119300	-9.375000	27.884521	0.000236	20.698484
2222.642828	-3.016200	3.117400	-9.401300	27.868877	0.000235	20.725889
2223.643396	-2.990100	3.118100	-9.322700	27.828206	0.000234	20.705344
2224.643995	-3.001900	3.115600	-9.351900	27.837709	0.000232	20.718228
2225.643673	-3.012000	3.115100	-9.381600	27.848748	0.000232	20.701361
2226.642880	-3.027700	3.114800	-9.429500	27.881873	0.000232	20.708622
2227.644922	-3.008700	3.112100	-9.362300	27.860274	0.000231	20.714860
2228.643114	-2.983700	3.113800	-9.289400	27.867837	0.000232	20.704452
2229.643334	-2.995200	3.111900	-9.320300	27.853427	0.000231	20.715555
2230.643102	-3.012900	3.112400	-9.376400	27.905899	0.000232	20.696293
2231.643939	-3.021600	3.109900	-9.395300	27.943245	0.000231	20.707804
2232.643013	-2.998200	3.109800	-9.323000	27.956410	0.000230	20.698770
2233.650247	-2.996700	3.109000	-9.315900	27.925985	0.000229	20.705605
2234.643335	-2.979600	3.109100	-9.262200	27.930679	0.000228	20.697052
2235.644179	-3.011500	3.107700	-9.358000	27.953015	0.000229	20.684445
2236.645160	-2.969000	3.109900	-9.232100	28.007366	0.000228	20.698377
2237.646773	-2.995000	3.106300	-9.302400	28.056038	0.000229	20.688574
2238.646586	-2.987500	3.105500	-9.276100	28.094686	0.000227	20.699505
2239.643175	-2.999100	3.104300	-9.308900	28.103611	0.000227	20.689522
2240.644582	-2.984400	3.105400	-9.266700	28.078484	0.000227	20.695048
2241.644782	-2.998100	3.104500	-9.306600	28.031917	0.000228	20.692743
2242.645040	-3.010500	3.103800	-9.342400	27.992998	0.000225	20.696716
2243.646195	-3.018500	3.102000	-9.362200	28.009071	0.000224	20.686341
2244.645535	-3.005400	3.100300	-9.315200	28.056426	0.000224	20.675687
2245.646095	-2.982500	3.101500	-9.249200	28.062144	0.000224	20.686660
2246.651377	-2.970700	3.100600	-9.210100	28.057173	0.000224	20.694933
2247.648524	-2.996400	3.100600	-9.290000	28.109164	0.000222	20.709813
2248.648842	-3.008300	3.096900	-9.315000	28.132162	0.000223	20.704989
2249.653311	-2.983900	3.098700	-9.244700	28.203938	0.000224	20.706599
2250.651529	-3.012800	3.095100	-9.323400	28.245106	0.000222	20.691621
2251.652303	-3.027700	3.094500	-9.367100	28.281076	0.000221	20.722623
2252.651415	-2.990300	3.094600	-9.252100	28.240453	0.000221	20.708275
2253.651042	-2.982700	3.095700	-9.232800	28.174055	0.000219	20.701170
2254.650098	-3.028400	3.092600	-9.364700	28.123342	0.000223	20.699428
2255.650434	-2.993500	3.092500	-9.255200	28.046216	0.000222	20.691964
2256.651741	-2.973800	3.093100	-9.197300	28.065577	0.000222	20.685374
2257.651910	-2.993100	3.091300	-9.251500	28.087674	0.000219	20.698136
2258.650884	-2.996900	3.089900	-9.259400	28.146818	0.000221	20.696509
2259.653128	-2.987900	3.089800	-9.230800	28.209742	0.000217	20.684466
2260.652102	-2.938300	3.090000	-9.077500	28.249619	0.000218	20.717978
2261.652050	-2.982500	3.086500	-9.204800	28.255952	0.000218	20.705387
2262.655678	-2.986100	3.086900	-9.216600	28.279247	0.000220	20.706556
2263.653159	-2.991200	3.087300	-9.233300	28.264136	0.000218	20.689918
2264.652720	-3.014600	3.085500	-9.299400	28.219518	0.000217	20.685773
2265.655227	-2.985800	3.085600	-9.211300	28.209010	0.000217	20.704594
2266.654043	-3.010500	3.082700	-9.279300	28.237746	0.000216	20.712188
2267.653720	-3.002800	3.082800	-9.255800	28.275795	0.000217	20.684587
2268.657404	-2.998000	3.082400	-9.240200	28.297019	0.000217	20.701690
2269.655288	-2.989600	3.079900	-9.206500	28.323115	0.000215	20.694774
2270.655905	-3.008900	3.079900	-9.265400	28.326387	0.000218	20.708975
2271.655983	-2.964900	3.080800	-9.133000	28.356947	0.000215	20.716513
2272.657843	-3.004600	3.076600	-9.244000	28.362915	0.000214	20.714461
2273.657835	-3.012400	3.075800	-9.264500	28.358043	0.000214	20.701968
2274.657609	-2.988000	3.076500	-9.191000	28.390534	0.000215	20.703391
2275.660613	-3.024800	3.073900	-9.296700	28.417057	0.000214	20.707813
2276.659133	-2.992700	3.076100	-9.204900	28.460547	0.000214	20.698976
2277.658065	-3.001400	3.072900	-9.220900	28.476142	0.000212	20.691920
2278.667455	-3.004600	3.072700	-9.230800	28.470175	0.000213	20.705352
2279.657296	-3.019200	3.070900	-9.270900	28.448710	0.000213	20.729258
2280.658126	-2.992400	3.070100	-9.185900	28.405366	0.000214	20.712637
2281.664133	-3.032900	3.067500	-9.302000	28.331095	0.000214	20.714190
2282.661308	-3.013900	3.069000	-9.248700	28.338483	0.000212	20.703610
2283.658010	-3.000500	3.068000	-9.204700	28.357319	0.000212	20.700765
2284.662931	-2.985800	3.066500	-9.154400	28.300663	0.000213	20.701092
2285.662034	-3.005800	3.066100	-9.215400	28.297935	0.000212	20.726322
2286.660147	-2.989300	3.065200	-9.162000	28.275704	0.000212	20.705360
2287.664078	-3.009700	3.063800	-9.220800	28.274633	0.000211	20.704755
2288.661187	-2.990900	3.063300	-9.159400	28.273301	0.000211	20.716691
2289.662101	-3.013600	3.061000	-9.223100	28.328716	0.000210	20.703733
2290.663319	-3.014800	3.060100	-9.224300	28.349792	0.000211	20.692712
2291.663967	-3.010600	3.061100	-9.214900	28.409075	0.000210	20.704517
2292.663262	-2.997400	3.059200	-9.168600	28.437872	0.000211	20.729249
2293.665033	-2.965900	3.059200	-9.071900	28.445105	0.000209	20.724205
2294.665685	-3.005200	3.057600	-9.185700	28.448733	0.000211	20.729281
2295.673854	-2.996600	3.056800	-9.158900	28.413516	0.000209	20.716102
2296.675457	-3.004600	3.055900	-9.180900	28.412379	0.000209	20.712112
2297.667685	-2.978400	3.055100	-9.098300	28.421902	0.000210	20.698941
2298.664797	-3.022500	3.052200	-9.222800	28.436499	0.000208	20.708899
2299.665382	-2.993100	3.051400	-9.132200	28.385547	0.000208	20.701688
2300.666094	-3.001400	3.049700	-9.152500	28.363261	0.000210	20.711016
2301.665701	-2.989300	3.049600	-9.115200	28.389858	0.000208	20.707926
2302.667908	-2.996300	3.047700	-9.131200	28.371964	0.000209	20.730687
2303.670112	-3.012700	3.048000	-9.182300	28.370154	0.000209	20.711793
2304.668383	-3.009000	3.046500	-9.165700	28.376649	0.000207	20.713117
2305.668214	-3.006600	3.044900	-9.153700	28.369066	0.000207	20.711172
2306.670983	-2.990300	3.043900	-9.100400	28.397822	0.000206	20.710255
2307.672879	-3.007000	3.041200	-9.143000	28.356644	0.000207	20.718579
2308.670580	-3.010100	3.043000	-9.158500	28.365372	0.000209	20.725945
2309.673018	-2.991900	3.040400	-9.095400	28.330696	0.000207	20.732755
2310.671207	-3.009200	3.040000	-9.147200	28.333675	0.000210	20.718685
2311.671459	-3.011800	3.039400	-9.153200	28.366833	0.000206	20.712243
2312.671309	-3.019200	3.036100	-9.165100	28.418711	0.000205	20.738878
2313.676228	-3.004600	3.036900	-9.124000	28.431295	0.000206	20.739222
2314.671655	-3.014500	3.034900	-9.147300	28.437595	0.000208	20.726125
2315.674395	-2.971400	3.035800	-9.020200	28.404365	0.000211	20.722535
2316.672519	-2.999500	3.032500	-9.094600	28.387706	0.000206	20.722356
2317.672056	-2.995400	3.031700	-9.079900	28.372386	0.000205	20.739647
2318.673248	-2.986800	3.031900	-9.055000	28.308473	0.000206	20.746890
2319.672904	-2.988500	3.030000	-9.053100	28.306597	0.000205	20.741682
2320.671225	-2.996800	3.029500	-9.077800	28.328820	0.000205	20.739876
2321.671948	-2.995000	3.027100	-9.064900	28.348208	0.000207	20.733793
2322.672268	-2.995100	3.026800	-9.065200	28.394201	0.000204	20.729370
2323.671522	-2.998500	3.025800	-9.071800	28.407913	0.000206	20.711882
2324.672122	-2.992600	3.024800	-9.050700	28.390564	0.000205	20.738510
2325.675954	-3.006700	3.021300	-9.082800	28.369723	0.000204	20.735068
2326.673645	-3.011800	3.022000	-9.100600	28.343645	0.000205	20.728724
2327.673965	-2.984400	3.022200	-9.018400	28.304413	0.000205	20.756079
2328.677059	-2.986100	3.020600	-9.019000	28.266738	0.000204	20.735215
2329.673728	-3.000000	3.018400	-9.054200	28.229639	0.000205	20.751917
2330.674841	-2.990900	3.016300	-9.020700	28.220788	0.000203	20.752490
2331.674372	-3.014800	3.014900	-9.087500	28.180861	0.000204	20.728887
2332.673101	-3.002000	3.014800	-9.049900	28.231718	0.000203	20.725086
2333.674991	-3.000200	3.014200	-9.042500	28.274354	0.000204	20.738142
2334.674532	-3.008100	3.012000	-9.059300	28.285210	0.000203	20.738641
2335.678774	-2.955600	3.011600	-8.899800	28.337734	0.000203	20.727039
2336.680151	-3.021700	3.008400	-9.089300	28.374886	0.000202	20.732680
2337.674387	-2.990000	3.009000	-8.995600	28.388273	0.000202	20.730988
2338.675728	-3.001300	3.007500	-9.023800	28.385075	0.000201	20.733457
2339.675150	-3.002700	3.005600	-9.023100	28.377809	0.000204	20.723295
2340.674666	-3.002300	3.004300	-9.019000	28.413847	0.000205	20.737299
2341.673626	-2.959200	3.003000	-8.885000	28.447952	0.000205	20.751255
2342.674963	-3.010400	3.000700	-9.031000	28.473476	0.000202	20.748508
2343.683144	-2.992800	3.001200	-8.980800	28.503902	0.000201	20.724619
2344.674674	-3.004900	2.999600	-9.012200	28.490248	0.000200	20.764450
2345.679710	-2.990600	2.998600	-8.966000	28.522077	0.000201	20.740553
2346.675161	-2.996100	2.998300	-8.982100	28.517564	0.000202	20.731740
2347.673918	-2.997200	2.994900	-8.975100	28.571554	0.000202	20.778053
2348.677488	-3.033900	2.992700	-9.078900	28.587439	0.000204	20.727194
2349.674669	-2.985500	2.995000	-8.940600	28.628746	0.000202	20.751729
2350.677485	-2.985900	2.990900	-8.929300	28.654517	0.000202	20.750184
2351.682021	-2.999400	2.989900	-8.965900	28.662017	0.000203	20.760583
2352.673534	-2.999900	2.987400	-8.959500	28.654988	0.000202	20.745916
2353.674749	-3.005700	2.987400	-8.978200	28.682828	0.000202	20.752146
2354.675758	-3.015100	2.985600	-9.000800	28.728433	0.000201	20.758728
2355.675803	-2.999500	2.985000	-8.952600	28.728141	0.000202	20.749424
2356.680387	-2.977700	2.984800	-8.886700	28.713921	0.000201	20.756438
2357.677746	-2.980200	2.983200	-8.889700	28.671530	0.000202	20.748353
2358.677752	-3.002100	2.981800	-8.950900	28.614315	0.000200	20.759480
2359.680117	-2.978200	2.980800	-8.876100	28.603633	0.000201	20.767688
2360.681314	-2.997100	2.978900	-8.926500	28.564833	0.000201	20.755163
2361.680246	-3.030300	2.975500	-9.015100	28.547762	0.000202	20.777800
2362.680277	-3.005800	2.975200	-8.941800	28.579403	0.000199	20.754664
2363.680369	-3.003300	2.973300	-8.928200	28.573510	0.000200	20.762954
2364.682168	-2.956200	2.973400	-8.789000	28.577691	0.000201	20.752939
2365.680494	-2.989400	2.970400	-8.878800	28.581262	0.000200	20.766968
2366.682879	-3.011200	2.969600	-8.940400	28.635013	0.000200	20.766575
2367.682806	-3.017600	2.968000	-8.955600	28.657034	0.000201	20.765047
2368.681341	-2.985500	2.968200	-8.860500	28.679013	0.000200	20.767745
2369.689260	-3.035300	2.963900	-8.994500	28.655175	0.000198	20.769339
2370.681870	-3.005700	2.963800	-8.907700	28.611344	0.000200	20.784463
2371.687403	-2.984300	2.964800	-8.847000	28.571797	0.000198	20.775928
2372.682535	-3.043100	2.958500	-9.002400	28.522362	0.000200	20.770712
2373.685287	-3.006000	2.959000	-8.892500	28.539165	0.000197	20.768194
2374.685801	-2.986500	2.956900	-8.830000	28.555148	0.000199	20.747780
2375.687482	-2.969200	2.957400	-8.779800	28.625638	0.000199	20.767091
2376.683349	-2.992800	2.954500	-8.839800	28.642959	0.000198	20.795916
2377.686895	-2.993200	2.953300	-8.838900	28.682730	0.000198	20.776230
2378.689199	-3.011600	2.952200	-8.889900	28.741207	0.000198	20.785345
2379.684289	-2.979900	2.950600	-8.791700	28.747587	0.000198	20.758580
2380.688535	-2.991700	2.948500	-8.820700	28.770092	0.000200	20.780302
2381.687726	-2.997600	2.945500	-8.828400	28.798529	0.000200	20.780972
2382.684532	-3.008500	2.946800	-8.864600	28.830829	0.000200	20.758981
2383.686391	-3.004000	2.944400	-8.844000	28.840892	0.000199	20.771963
2384.683734	-2.979800	2.942300	-8.766000	28.855880	0.000198	20.788011
2385.686618	-2.981600	2.940600	-8.766900	28.886515	0.000199	20.773827
2386.686808	-3.019400	2.938200	-8.869900	28.875048	0.000198	20.775552
2387.684824	-2.986400	2.936800	-8.769500	28.853373	0.000200	20.781218
2388.686062	-3.003900	2.935600	-8.817600	28.819070	0.000197	20.775584
2389.687393	-2.976500	2.935300	-8.735800	28.870464	0.000198	20.776149
2390.685511	-2.991800	2.932900	-8.773600	28.905325	0.000198	20.789458
2391.685884	-2.989400	2.932200	-8.764600	28.893485	0.000198	20.792229
2392.688633	-3.003800	2.929600	-8.799500	28.929401	0.000198	20.781945
2393.686049	-2.992600	2.927900	-8.760500	28.933239	0.000198	20.799088
2394.685334	-2.985300	2.927000	-8.737600	28.950304	0.000198	20.789728
2395.686398	-2.984800	2.925000	-8.730100	28.952016	0.000199	20.775331
2396.688571	-2.995600	2.922200	-8.752200	28.925262	0.000197	20.804803
2397.687947	-3.006100	2.922100	-8.783200	28.901016	0.000197	20.815462
2398.687041	-2.993400	2.920500	-8.741300	28.905527	0.000199	20.789662
2399.688694	-3.024900	2.918500	-8.827100	28.908343	0.000196	20.776852
2400.686513	-2.972700	2.917400	-8.669900	28.939958	0.000197	20.765079
2401.688306	-2.994000	2.915000	-8.726700	28.930342	0.000198	20.782419
2402.685058	-2.999100	2.913200	-8.735800	28.946627	0.000198	20.808309
2403.687264	-3.002500	2.911300	-8.740100	28.893120	0.000199	20.802292
2404.686827	-3.013000	2.910400	-8.767700	28.843480	0.000197	20.788321
2405.686575	-3.039500	2.906400	-8.832500	28.797798	0.000196	20.796831
2406.689821	-3.014000	2.906200	-8.758400	28.753129	0.000198	20.807312
2407.686146	-3.018500	2.903500	-8.762500	28.771414	0.000196	20.784004
2408.687099	-2.994000	2.902300	-8.688200	28.812536	0.000198	20.818789
2409.689887	-2.990500	2.901300	-8.674700	28.850450	0.000195	20.787756
2410.688890	-3.020500	2.899200	-8.756000	28.900723	0.000195	20.810901
2411.690521	-2.997200	2.898600	-8.687200	28.931769	0.000198	20.808039
2412.691672	-3.008400	2.894200	-8.705300	28.944282	0.000197	20.806420
2413.690944	-3.013600	2.892700	-8.715500	28.930187	0.000199	20.799332
2414.690648	-2.986900	2.892300	-8.638800	28.979806	0.000197	20.800959
2415.693893	-3.021000	2.888900	-8.725900	28.988967	0.000198	20.788378
2416.694331	-3.019100	2.888200	-8.718900	29.011167	0.000197	20.802210
2417.693147	-3.022800	2.886000	-8.722700	29.043777	0.000196	20.824634
2418.693646	-3.008100	2.882800	-8.670200	29.071005	0.000196	20.815085
2419.693933	-3.007900	2.882800	-8.670300	29.083979	0.000196	20.812036
2420.693099	-2.991200	2.881200	-8.617000	29.100846	0.000198	20.808644
2421.692826	-3.004900	2.877400	-8.644400	29.064190	0.000197	20.829081
2422.694511	-2.978000	2.877800	-8.569300	29.045764	0.000195	20.810042
2423.699640	-3.005300	2.873800	-8.636000	29.059638	0.000196	20.796520
2424.695063	-2.972900	2.874200	-8.544000	29.039500	0.000198	20.810368
2425.699768	-3.019200	2.870300	-8.665500	29.029512	0.000197	20.804573
2426.699561	-2.996300	2.868700	-8.595000	29.025455	0.000194	20.814235
2427.697011	-2.998100	2.868100	-8.597800	29.072961	0.000196	20.811366
2428.697854	-3.025100	2.864300	-8.664100	29.082121	0.000197	20.819173
2429.697940	-3.003800	2.864800	-8.604200	29.109000	0.000197	20.816385
2430.697636	-3.000000	2.861600	-8.583300	29.108497	0.000195	20.822042
2431.696640	-2.999600	2.859000	-8.575000	29.089236	0.000197	20.835351
2432.700105	-2.993800	2.858300	-8.555000	29.064393	0.000197	20.825492
2433.698308	-2.989700	2.855900	-8.537100	29.054210	0.000196	20.817603
2434.696727	-2.988700	2.854600	-8.530100	29.038178	0.000196	20.823261
2435.704754	-2.976900	2.852700	-8.491000	29.037310	0.000196	20.823809
2436.700587	-2.989000	2.849700	-8.516800	29.026657	0.000196	20.822084
2437.698268	-2.999400	2.845800	-8.534500	29.052661	0.000197	20.825051
2438.700378	-2.996600	2.846200	-8.528200	29.039826	0.000196	20.830611
2439.698888	-3.019600	2.843800	-8.585100	29.026227	0.000196	20.820228
2440.697638	-3.005600	2.840900	-8.537300	29.023371	0.000196	20.842007
2441.696274	-2.995700	2.840100	-8.507200	29.012450	0.000193	20.852813
2442.697506	-2.998900	2.836200	-8.505000	29.004206	0.000195	20.818430
2443.698891	-3.002300	2.835500	-8.512400	28.987232	0.000196	20.821243
2444.698426	-3.016500	2.832000	-8.541100	28.965649	0.000197	20.843119
2445.698655	-3.022200	2.830100	-8.552800	28.945436	0.000197	20.849781
2446.700747	-3.005900	2.826900	-8.496300	28.951505	0.000194	20.837405
2447.700616	-3.009800	2.824900	-8.502000	28.953632	0.000195	20.838598
2448.700982	-3.000800	2.823700	-8.473200	28.957754	0.000194	20.829476
2449.699118	-3.021100	2.820300	-8.519900	28.973131	0.000195	20.845442
2450.699854	-3.013500	2.818400	-8.492400	28.991956	0.000196	20.835959
2451.701627	-3.000900	2.815000	-8.445800	29.016209	0.000195	20.847117
2452.700273	-3.024400	2.814300	-8.510300	29.030887	0.000197	20.851949
2453.700083	-3.006100	2.810500	-8.447300	29.071974	0.000193	20.844510
2454.703398	-2.979900	2.809300	-8.370400	29.075115	0.000196	20.831554
2455.706204	-3.002300	2.807300	-8.426900	29.092428	0.000195	20.836197
2456.702513	-3.014100	2.803500	-8.449000	29.066490	0.000195	20.841830
2457.706740	-3.004500	2.800900	-8.414600	29.073054	0.000197	20.840857
2458.703146	-2.989800	2.800600	-8.370500	29.103066	0.000198	20.851656
2459.702919	-2.989300	2.796000	-8.357300	29.128232	0.000194	20.877013
2460.704642	-2.991200	2.794500	-8.357400	29.183424	0.000195	20.861981
2461.703239	-3.009200	2.791200	-8.398200	29.203243	0.000195	20.842598
2462.702944	-3.011500	2.789300	-8.399500	29.145691	0.000196	20.832968
2463.703411	-2.998900	2.787200	-8.357500	29.135129	0.000197	20.872583
2464.703930	-3.007000	2.786000	-8.375900	29.125467	0.000196	20.872804
2465.706153	-2.999200	2.781600	-8.341600	29.157147	0.000195	20.849727
2466.705762	-2.970900	2.781200	-8.261900	29.191910	0.000196	20.860575
2467.707879	-2.984700	2.776600	-8.286200	29.218235	0.000195	20.855335
2468.711381	-2.953400	2.776200	-8.197500	29.270429	0.000195	20.833019
2469.705938	-3.000500	2.771200	-8.313700	29.308514	0.000194	20.856701
2470.708370	-3.017100	2.768100	-8.350600	29.343077	0.000195	20.847439
2471.706113	-3.000200	2.764700	-8.293100	29.337254	0.000197	20.834932
2472.705284	-3.029400	2.760800	-8.362200	29.325768	0.000195	20.851330
2473.708466	-2.983100	2.759900	-8.231900	29.274015	0.000195	20.842796
2474.705982	-2.999400	2.756500	-8.267100	29.216014	0.000194	20.842191
2475.705671	-3.000500	2.752600	-8.258300	29.142367	0.000195	20.859489
2476.705508	-2.991400	2.751700	-8.229900	29.109996	0.000195	20.832087
2477.707539	-2.987300	2.747300	-8.205800	29.089656	0.000197	20.847628
2478.708401	-3.014000	2.743400	-8.267600	29.105234	0.000194	20.860478
2479.707686	-3.000500	2.740400	-8.222000	29.116503	0.000196	20.839592
2480.711555	-2.995700	2.737200	-8.198100	29.103181	0.000195	20.840393
2481.707366	-2.995100	2.733700	-8.186900	29.117298	0.000194	20.838022
2482.706367	-2.988500	2.731100	-8.161300	29.136720	0.000195	20.839101
2483.707971	-3.002200	2.727900	-8.188700	29.163014	0.000194	20.833829
2484.707428	-3.001400	2.723600	-8.172800	29.198426	0.000195	20.850072
2485.707564	-3.002200	2.722400	-8.171100	29.235629	0.000195	20.825923
2486.707381	-2.980400	2.718600	-8.102100	29.250214	0.000194	20.839673
2487.711197	-2.998400	2.714200	-8.136900	29.265019	0.000195	20.841791
2488.709478	-3.019900	2.710000	-8.182200	29.260980	0.000194	20.840565
2489.713131	-3.014500	2.708000	-8.162300	29.325687	0.000196	20.819482
2490.710641	-2.999500	2.702700	-8.106400	29.359341	0.000196	20.802666
2491.710543	-2.992600	2.700900	-8.082000	29.397171	0.000193	20.827992
2492.709939	-3.015100	2.694800	-8.124800	29.424237	0.000195	20.834883
2493.711779	-3.038000	2.692400	-8.178400	29.442980	0.000194	20.843818
2494.712494	-2.988500	2.689500	-8.037000	29.444489	0.000195	20.821157
2495.711067	-3.025500	2.685100	-8.122700	29.389149	0.000194	20.834605
2496.710830	-2.985600	2.680700	-8.003000	29.333514	0.000196	20.834957
2497.713351	-3.001500	2.679000	-8.040200	29.322450	0.000197	20.811004
2498.713120	-3.019900	2.674000	-8.074100	29.342356	0.000195	20.798823
2499.713317	-2.992600	2.670300	-7.990700	29.360038	0.000195	20.812377
2500.713193	-2.961100	2.666000	-7.893600	29.386059	0.000194	20.825801
2501.711091	-2.983100	2.662700	-7.943000	29.421885	0.000194	20.824926
2502.712593	-3.023900	2.658600	-8.038300	29.462292	0.000194	20.822506
2503.715492	-2.998300	2.654600	-7.958700	29.485244	0.000194	20.832365
2504.712879	-2.978500	2.651300	-7.896300	29.449193	0.000194	20.823054
2505.716055	-2.970600	2.647000	-7.862000	29.454124	0.000193	20.806213
2506.714027	-2.988400	2.642900	-7.896700	29.448723	0.000194	20.796502
2507.714286	-2.981500	2.637700	-7.863600	29.441447	0.000194	20.814773
2508.714316	-3.035100	2.632200	-7.988000	29.402353	0.000193	20.810930
2509.714203	-2.993800	2.627500	-7.864300	29.324754	0.000194	20.814748
2510.713791	-3.016600	2.623200	-7.911800	29.302268	0.000196	20.809631
2511.713747	-2.990400	2.618600	-7.829700	29.267031	0.000192	20.822008
2512.713750	-2.987200	2.615400	-7.811600	29.234647	0.000195	20.817822
2513.715083	-2.977000	2.610100	-7.769400	29.201411	0.000196	20.817993
2514.716068	-2.996400	2.604400	-7.802000	29.253337	0.000194	20.814846
2515.715570	-3.035900	2.598000	-7.886500	29.306681	0.000193	20.816448
2516.715958	-3.019000	2.593300	-7.828300	29.350280	0.000195	20.823405
2517.716187	-3.023100	2.586800	-7.819000	29.395394	0.000194	20.782105
2518.716486	-2.993300	2.584800	-7.736100	29.450012	0.000195	20.797327
2519.717883	-2.992800	2.577700	-7.713500	29.444716	0.000194	20.802420
2520.716787	-3.035000	2.571300	-7.802200	29.441245	0.000194	20.792758
2521.718905	-3.005600	2.566500	-7.712800	29.452486	0.000195	20.787019
2522.721617	-3.014500	2.560400	-7.715800	29.498780	0.000196	20.796224
2523.720963	-2.985800	2.555300	-7.628600	29.529745	0.000196	20.805151
2524.721525	-2.996300	2.549000	-7.637100	29.544431	0.000196	20.829439
2525.724670	-3.004400	2.542500	-7.637700	29.512292	0.000198	20.800361
2526.718268	-3.022200	2.535900	-7.663200	29.524724	0.000196	20.795823
2527.722553	-2.977400	2.533000	-7.540700	29.463914	0.000196	20.808021
2528.719761	-2.975100	2.526200	-7.515300	29.414521	0.000195	20.800435
2529.719588	-3.002400	2.520100	-7.564000	29.408171	0.000197	20.801146
2530.719699	-3.034200	2.511400	-7.618600	29.446801	0.000197	20.782711
2531.721931	-2.979200	2.507200	-7.467900	29.469795	0.000195	20.807785
2532.722051	-3.003400	2.501100	-7.511100	29.512406	0.000196	20.807114
2533.720280	-2.971000	2.496400	-7.415100	29.536590	0.000195	20.779809
