LabVIEW Measurement	
Writer_Version	2
Reader_Version	2
Separator	Tab
Decimal_Separator	.
Multi_Headings	No
X_Columns	One
Time_Pref	Absolute
Operator	admin
Description	Clolumns are: time, Current, Voltage, Power, Battery Temp, and Chamber Temp
Date	2024/08/16
Time	13:06:06.104549407958984375
***End_of_Header***	
	
Channels	6						
Samples	1	1	1	1	1	1	
Date	2024/09/08	2024/09/08	2024/09/08	2024/09/08	2024/09/08	2024/09/08	
Time	20:22:23.4665904045104980469	20:22:23.4775910377502441407	20:22:23.4827833175659179688	20:22:23.4505567550659179688	20:22:23.4505567550659179688	20:22:23.4505567550659179688	
X_Dimension	Time	Time	Time	Time	Time	Time	
X0	0.0000000000000000E+0	0.0000000000000000E+0	0.0000000000000000E+0	0.0000000000000000E+0	0.0000000000000000E+0	0.0000000000000000E+0	
Delta_X	1.000000	1.000000	1.000000	1.000000	1.000000	1.000000	
***End_of_Header***							
X_Value	Untitled	Untitled 1	Untitled 2	Untitled 3	Untitled 4	Untitled 5	Comment
0.000000	-0.005312	4.093600	-0.021893	20.987409	0.000906	20.716206
0.999062	-3.005600	3.920700	-11.783000	20.981842	0.000903	20.734822
2.002326	-3.016300	3.913800	-11.805000	20.988357	0.000903	20.701506
3.002600	-3.008000	3.908600	-11.756000	20.984515	0.000903	20.714260
4.001555	-2.990800	3.907200	-11.685000	20.990597	0.000902	20.709437
5.001970	-3.018200	3.902200	-11.777000	21.019539	0.000902	20.741231
6.000969	-3.009600	3.899200	-11.734000	20.994291	0.000901	20.726409
7.006841	-3.016300	3.896600	-11.752000	21.003389	0.000900	20.720335
8.003891	-2.987000	3.895000	-11.633000	21.014995	0.000899	20.730048
9.002409	-2.993200	3.892100	-11.647000	21.008383	0.000898	20.731969
10.007242	-3.018300	3.890100	-11.740000	20.996310	0.000897	20.726058
11.005031	-2.994300	3.888900	-11.644000	21.012274	0.000896	20.724954
12.005110	-3.010500	3.888700	-11.705000	21.028890	0.000894	20.726401
13.008800	-2.989600	3.887100	-11.620000	20.994161	0.000895	20.740030
14.007331	-2.983300	3.886200	-11.592000	21.037873	0.000897	20.726377
15.006815	-2.997500	3.884300	-11.642000	21.023202	0.000894	20.737308
16.006501	-3.007700	3.882600	-11.677000	21.030934	0.000892	20.753577
17.008286	-2.995400	3.880600	-11.622000	21.033533	0.000894	20.737209
18.006427	-2.964500	3.880600	-11.503000	21.046479	0.000893	20.736408
19.007901	-3.001600	3.880100	-11.645000	21.041395	0.000893	20.734168
20.006486	-3.000400	3.879500	-11.639000	21.055167	0.000892	20.727080
21.009119	-2.999800	3.878300	-11.634000	21.079989	0.000892	20.747167
22.007833	-2.994300	3.877900	-11.610000	21.063447	0.000892	20.744371
23.006420	-3.000800	3.875800	-11.630000	21.059770	0.000890	20.748754
24.010161	-3.008300	3.876600	-11.662000	21.077341	0.000892	20.731241
25.009647	-3.017300	3.874700	-11.690000	21.079385	0.000890	20.751778
26.010120	-3.006900	3.875000	-11.651000	21.082654	0.000889	20.736081
27.008066	-2.996000	3.874700	-11.607000	21.102139	0.000890	20.753201
28.008722	-3.008500	3.872900	-11.650000	21.091931	0.000889	20.738248
29.010679	-3.016100	3.873200	-11.679000	21.085768	0.000888	20.756267
30.013090	-2.996800	3.870800	-11.598000	21.108399	0.000888	20.746661
31.009515	-3.018000	3.869600	-11.677000	21.133318	0.000888	20.737447
32.010029	-3.005400	3.870200	-11.629000	21.133343	0.000887	20.755964
33.008771	-2.997700	3.870400	-11.602000	21.117553	0.000888	20.746808
34.009943	-3.014900	3.868400	-11.662000	21.144490	0.000887	20.734872
35.013259	-3.008400	3.870000	-11.641000	21.144213	0.000887	20.753087
36.010313	-2.999400	3.868200	-11.602000	21.154715	0.000886	20.741781
37.011397	-2.995600	3.867800	-11.584000	21.154992	0.000886	20.746326
38.010658	-3.003600	3.867600	-11.615000	21.150326	0.000887	20.735494
39.010537	-3.008000	3.865300	-11.626000	21.171885	0.000884	20.745206
40.014197	-2.986800	3.866600	-11.546000	21.185304	0.000885	20.751517
41.012119	-3.008100	3.865100	-11.626000	21.188450	0.000885	20.744707
42.011946	-3.000000	3.866300	-11.597000	21.184388	0.000885	20.751550
43.013262	-3.008000	3.865500	-11.626000	21.187674	0.000884	20.744879
44.013723	-2.993000	3.866200	-11.570000	21.198045	0.000886	20.742451
45.015007	-2.987700	3.866000	-11.550000	21.225683	0.000885	20.763936
46.016809	-3.009300	3.862900	-11.623000	21.224408	0.000884	20.744168
47.014711	-2.983400	3.864000	-11.526000	21.234419	0.000883	20.761770
48.015728	-2.997400	3.862800	-11.578000	21.237508	0.000882	20.746842
49.013878	-2.967800	3.863100	-11.462000	21.245745	0.000884	20.744650
50.014011	-2.990700	3.861900	-11.549000	21.240564	0.000884	20.752743
51.018380	-2.987900	3.862000	-11.538000	21.248842	0.000883	20.751068
52.017586	-2.994900	3.861800	-11.565000	21.251384	0.000886	20.757878
53.022875	-3.001800	3.861600	-11.591000	21.271666	0.000883	20.745451
54.016176	-3.020300	3.859300	-11.655000	21.272540	0.000883	20.757232
55.014577	-3.013200	3.859200	-11.627000	21.297014	0.000884	20.760379
56.016805	-3.020300	3.859100	-11.653000	21.289848	0.000884	20.772651
57.018372	-3.033700	3.858700	-11.704000	21.296066	0.000885	20.758483
58.016115	-3.004600	3.858800	-11.593000	21.321062	0.000883	20.755989
59.017949	-2.977500	3.859300	-11.490000	21.314574	0.000883	20.768465
60.017644	-3.003400	3.858800	-11.588000	21.314778	0.000884	20.764401
61.019943	-2.983200	3.859000	-11.511000	21.341434	0.000883	20.753610
62.022498	-2.986700	3.858600	-11.523000	21.334406	0.000882	20.755589
63.020495	-2.994400	3.858700	-11.552000	21.368725	0.000882	20.777122
64.020624	-3.014800	3.857800	-11.629000	21.370123	0.000883	20.760028
65.020557	-3.015700	3.858400	-11.635000	21.357081	0.000882	20.772585
66.017910	-2.986600	3.858700	-11.523000	21.367254	0.000883	20.761426
67.020227	-2.972300	3.858000	-11.466000	21.381897	0.000881	20.750471
68.019753	-3.008200	3.855600	-11.597000	21.407046	0.000884	20.768996
69.017767	-2.992000	3.856800	-11.539000	21.407054	0.000881	20.765684
70.018044	-2.996500	3.856200	-11.555000	21.410788	0.000886	20.767050
71.020056	-2.995800	3.855100	-11.549000	21.404276	0.000884	20.762905
72.020190	-3.000400	3.855600	-11.567000	21.419809	0.000883	20.777024
73.025050	-3.023600	3.852900	-11.649000	21.431615	0.000882	20.769870
74.021109	-3.004700	3.855700	-11.585000	21.430464	0.000883	20.768718
75.021714	-3.010400	3.853700	-11.600000	21.467549	0.000884	20.752719
76.020738	-2.984200	3.853100	-11.498000	21.448741	0.000884	20.780368
77.023942	-2.997300	3.854600	-11.552000	21.457590	0.000883	20.767885
78.020726	-3.011000	3.852400	-11.599000	21.475099	0.000883	20.779240
79.023668	-2.988100	3.853200	-11.512000	21.465165	0.000883	20.764558
80.023216	-3.016900	3.852000	-11.619000	21.505591	0.000884	20.782723
81.022164	-3.010200	3.854400	-11.602000	21.487886	0.000884	20.762637
82.029768	-3.011600	3.852500	-11.601000	21.499276	0.000883	20.767869
83.026165	-2.976000	3.853000	-11.466000	21.527160	0.000884	20.787236
84.023181	-2.992800	3.850800	-11.524000	21.512659	0.000885	20.775571
85.025311	-2.988300	3.851000	-11.508000	21.524481	0.000884	20.770331
86.030391	-2.997000	3.851500	-11.542000	21.497765	0.000886	20.785798
87.026195	-3.005400	3.851600	-11.574000	21.519081	0.000883	20.782472
88.030159	-3.009600	3.849900	-11.585000	21.546263	0.000885	20.779799
89.026242	-3.003400	3.851000	-11.565000	21.547856	0.000884	20.784238
90.033353	-3.016600	3.849400	-11.610000	21.540896	0.000884	20.782489
91.026000	-2.999600	3.850500	-11.549000	21.550667	0.000884	20.790370
92.027395	-3.001700	3.849000	-11.551000	21.577030	0.000885	20.786405
93.031529	-2.998400	3.850200	-11.543000	21.569065	0.000886	20.804513
94.026915	-3.004800	3.849300	-11.565000	21.577521	0.000884	20.763188
95.027873	-2.986400	3.851200	-11.500000	21.590061	0.000885	20.807505
96.028138	-2.993200	3.849200	-11.519000	21.594318	0.000884	20.788057
97.028448	-3.010000	3.847900	-11.580000	21.601548	0.000886	20.790077
98.026397	-2.974900	3.849000	-11.449000	21.605437	0.000886	20.795391
99.029509	-2.987900	3.848000	-11.497000	21.636186	0.000886	20.801031
100.028069	-3.016300	3.848400	-11.606000	21.648203	0.000886	20.803100
101.025828	-3.012700	3.847800	-11.591000	21.628376	0.000888	20.790371
102.028018	-3.011300	3.847300	-11.585000	21.641464	0.000888	20.797304
103.025772	-3.015400	3.846600	-11.598000	21.651389	0.000888	20.798228
104.030559	-2.984700	3.847900	-11.483000	21.648522	0.000885	20.807686
105.028199	-3.002900	3.846500	-11.550000	21.682888	0.000885	20.797034
106.029496	-3.004600	3.847700	-11.560000	21.678028	0.000886	20.779367
107.027462	-3.004700	3.846600	-11.557000	21.704658	0.000886	20.819769
108.027833	-3.008400	3.845600	-11.567000	21.713971	0.000887	20.803959
109.030075	-2.994200	3.845900	-11.515000	21.700647	0.000888	20.805797
110.031045	-3.028200	3.845900	-11.644000	21.712655	0.000887	20.812600
111.028615	-2.991000	3.845100	-11.500000	21.724622	0.000888	20.775738
112.028090	-2.996100	3.845300	-11.519000	21.731574	0.000887	20.814938
113.028760	-2.975200	3.845900	-11.441000	21.735642	0.000889	20.805259
114.037480	-3.022000	3.844500	-11.616000	21.775585	0.000889	20.810148
115.031877	-2.999000	3.844900	-11.530000	21.762099	0.000890	20.805185
116.035009	-3.015500	3.843200	-11.587000	21.757688	0.000888	20.792236
117.035626	-2.995200	3.844300	-11.513000	21.766183	0.000890	20.806428
118.032592	-3.002800	3.842900	-11.538000	21.786709	0.000887	20.810850
119.032391	-3.011500	3.843500	-11.574000	21.781000	0.000890	20.815567
120.037672	-2.982900	3.845700	-11.469000	21.807301	0.000890	20.800640
121.041423	-3.017800	3.843100	-11.596000	21.809351	0.000891	20.804588
122.033227	-2.986700	3.842400	-11.475000	21.801918	0.000892	20.812796
123.032791	-3.001900	3.842900	-11.536000	21.813737	0.000889	20.820358
124.034251	-3.007300	3.842400	-11.554000	21.817380	0.000891	20.822581
125.034644	-3.030500	3.841800	-11.641000	21.836427	0.000893	20.811300
126.038103	-2.998700	3.842100	-11.521000	21.841850	0.000891	20.817201
127.033498	-2.982500	3.841800	-11.457000	21.852558	0.000891	20.811799
128.037854	-3.011700	3.840000	-11.565000	21.875533	0.000894	20.828630
129.034776	-2.992600	3.841600	-11.496000	21.874423	0.000892	20.809028
130.033989	-3.008700	3.842000	-11.557000	21.879445	0.000891	20.809313
131.039297	-2.997900	3.841000	-11.514000	21.880694	0.000893	20.807244
132.034651	-3.028200	3.839300	-11.626000	21.871669	0.000894	20.826660
133.039803	-2.970600	3.842100	-11.411000	21.862620	0.000891	20.813335
134.036568	-2.995100	3.840100	-11.500000	21.882663	0.000894	20.816327
135.040870	-2.995200	3.841300	-11.504000	21.883365	0.000897	20.818452
136.039721	-3.010400	3.839800	-11.558000	21.876888	0.000894	20.827616
137.038483	-2.995200	3.840600	-11.503000	21.869627	0.000895	20.822245
138.046003	-2.994300	3.839800	-11.496000	21.929738	0.000893	20.830257
139.047923	-3.002000	3.839100	-11.524000	21.915429	0.000898	20.813089
140.041513	-2.992800	3.839200	-11.487000	21.927321	0.000897	20.818354
141.041113	-3.016600	3.838500	-11.577000	21.948195	0.000897	20.835929
142.041453	-3.000600	3.839600	-11.521000	21.940616	0.000898	20.826921
143.041616	-2.986700	3.839600	-11.466000	21.947419	0.000896	20.821403
144.043970	-2.996300	3.838500	-11.500000	21.937578	0.000896	20.826250
145.042618	-2.993200	3.839500	-11.492000	21.947108	0.000898	20.830100
146.043844	-2.992500	3.836800	-11.480000	21.962503	0.000900	20.841243
147.047904	-2.994800	3.837200	-11.490000	21.971862	0.000900	20.823111
148.043991	-3.010600	3.837600	-11.553000	21.979188	0.000901	20.835185
149.046673	-3.022300	3.835700	-11.591000	21.997889	0.000899	20.822612
150.046251	-3.015500	3.836200	-11.567000	21.997791	0.000898	20.835790
151.048266	-2.995600	3.836900	-11.493000	22.014491	0.000898	20.831645
152.048842	-3.008100	3.836600	-11.539000	22.035830	0.000901	20.835463
153.047073	-3.022500	3.834700	-11.589000	22.021392	0.000904	20.823855
154.050466	-2.971500	3.837800	-11.403000	22.042240	0.000901	20.832397
155.049944	-3.003400	3.835400	-11.518000	22.056000	0.000904	20.849965
156.048309	-2.985600	3.835400	-11.450000	22.051885	0.000902	20.817870
157.051455	-3.003400	3.836100	-11.520000	22.046054	0.000904	20.852809
158.047838	-2.992800	3.836400	-11.480000	22.049141	0.000904	20.833615
159.048853	-2.991700	3.835800	-11.475000	22.051551	0.000903	20.840295
160.049196	-2.995600	3.836400	-11.490000	22.045107	0.000905	20.866559
161.049985	-2.992600	3.836400	-11.479000	22.046675	0.000903	20.835414
162.051200	-3.012900	3.835200	-11.553000	22.080221	0.000905	20.844815
163.052141	-3.007100	3.834700	-11.530000	22.081193	0.000903	20.837253
164.054891	-3.001300	3.834300	-11.507000	22.077559	0.000906	20.843098
165.051902	-2.994400	3.834200	-11.480000	22.112427	0.000905	20.853824
166.052431	-2.986000	3.834000	-11.447000	22.118209	0.000905	20.850603
167.054714	-2.980900	3.833900	-11.427000	22.108516	0.000905	20.834735
168.053372	-3.006400	3.833700	-11.523000	22.113831	0.000906	20.836738
169.053774	-2.983400	3.834400	-11.438000	22.123043	0.000908	20.840744
170.057802	-3.025000	3.831300	-11.588000	22.127436	0.000907	20.849409
171.055232	-3.015200	3.832000	-11.552000	22.146299	0.000907	20.845535
172.053047	-2.997800	3.831300	-11.484000	22.153631	0.000909	20.849082
173.057469	-3.002000	3.831100	-11.499000	22.150119	0.000909	20.860265
174.059037	-2.990400	3.833100	-11.462000	22.159314	0.000909	20.839600
175.059229	-3.010300	3.831300	-11.532000	22.182169	0.000909	20.845412
176.056829	-2.985500	3.831300	-11.437000	22.201169	0.000908	20.859693
177.058378	-3.003800	3.832100	-11.510000	22.200067	0.000912	20.838202
178.058004	-3.006600	3.831600	-11.519000	22.209383	0.000910	20.833305
179.059539	-3.006400	3.830300	-11.515000	22.202010	0.000910	20.869069
180.060736	-3.002600	3.831100	-11.502000	22.227305	0.000912	20.851249
181.057656	-3.010700	3.831000	-11.532000	22.218013	0.000909	20.854273
182.057273	-2.998500	3.830600	-11.484000	22.222096	0.000911	20.822327
183.064130	-2.986300	3.829800	-11.436000	22.212151	0.000913	20.837025
184.062313	-3.021800	3.827600	-11.565000	22.207219	0.000915	20.842518
185.059549	-3.001300	3.828200	-11.488000	22.254347	0.000915	20.829962
186.062955	-2.993800	3.829100	-11.463000	22.253996	0.000915	20.821076
187.062139	-2.984300	3.828800	-11.425000	22.272766	0.000915	20.833232
188.062598	-2.986300	3.828400	-11.432000	22.260813	0.000914	20.832642
189.061882	-2.963600	3.829700	-11.349000	22.278081	0.000915	20.839027
190.064486	-2.989600	3.828100	-11.443000	22.248721	0.000915	20.824329
191.061282	-3.015000	3.827500	-11.539000	22.273493	0.000916	20.835381
192.061690	-2.972300	3.828600	-11.379000	22.282417	0.000918	20.839575
193.061281	-2.970800	3.829000	-11.373000	22.273353	0.000917	20.825759
194.063953	-2.998100	3.828000	-11.475000	22.308420	0.000918	20.816301
195.066233	-2.996400	3.827400	-11.466000	22.313996	0.000918	20.837057
196.063975	-2.995100	3.826000	-11.458000	22.317849	0.000918	20.849923
197.065974	-3.022000	3.827100	-11.565000	22.356424	0.000921	20.818851
198.064612	-2.985200	3.826400	-11.422000	22.353689	0.000919	20.834129
199.062787	-3.010100	3.825100	-11.512000	22.352734	0.000919	20.818949
200.065556	-3.024600	3.825000	-11.567000	22.348203	0.000921	20.815834
201.063211	-2.990800	3.826100	-11.442000	22.370017	0.000921	20.823927
202.063541	-2.994000	3.826800	-11.457000	22.349084	0.000921	20.802966
203.063869	-3.005800	3.824900	-11.496000	22.363567	0.000920	20.819365
204.066232	-3.004000	3.825600	-11.490000	22.386817	0.000923	20.811828
205.065403	-3.008800	3.825400	-11.508000	22.377944	0.000924	20.820011
206.069019	-2.997200	3.824700	-11.462000	22.377372	0.000925	20.815171
207.065225	-3.017200	3.823900	-11.537000	22.401503	0.000923	20.817525
208.067676	-2.992900	3.824000	-11.444000	22.390939	0.000924	20.815007
209.065460	-2.991000	3.823100	-11.434000	22.399806	0.000923	20.806816
210.064952	-2.995000	3.824500	-11.452000	22.400311	0.000923	20.816805
211.069487	-2.984300	3.824800	-11.414000	22.426304	0.000926	20.818179
212.067718	-2.982000	3.825800	-11.408000	22.418549	0.000927	20.814206
213.065525	-3.007100	3.822300	-11.492000	22.406516	0.000925	20.802630
214.065022	-3.012400	3.822100	-11.513000	22.436777	0.000926	20.794528
215.065530	-3.003300	3.822000	-11.476000	22.425708	0.000928	20.819953
216.066273	-2.995000	3.823200	-11.449000	22.452875	0.000928	20.805908
217.067759	-3.006100	3.822700	-11.491000	22.441683	0.000928	20.812718
218.065557	-2.990700	3.822700	-11.432000	22.449985	0.000929	20.789263
219.066151	-2.988100	3.822200	-11.420000	22.464582	0.000928	20.784440
220.065135	-2.978400	3.822600	-11.384000	22.442876	0.000928	20.794945
221.065901	-3.006200	3.820600	-11.484000	22.443862	0.000931	20.779812
222.068159	-3.027700	3.819200	-11.562000	22.451438	0.000930	20.805891
223.066879	-2.986600	3.822300	-11.413000	22.451602	0.000930	20.800839
224.069529	-3.006400	3.820600	-11.485000	22.442940	0.000933	20.792165
225.066602	-2.996700	3.820300	-11.447000	22.478744	0.000931	20.796727
226.068898	-2.993700	3.819100	-11.431000	22.453960	0.000934	20.783761
227.066600	-3.007600	3.818700	-11.484000	22.467136	0.000932	20.816396
228.070354	-3.014100	3.819200	-11.511000	22.456124	0.000936	20.790195
229.066192	-2.995400	3.819300	-11.439000	22.483805	0.000934	20.794683
230.066982	-2.990900	3.820000	-11.424000	22.493461	0.000934	20.781594
231.066082	-2.990600	3.819300	-11.419000	22.470278	0.000935	20.783033
232.066701	-2.995700	3.816900	-11.432000	22.469928	0.000936	20.797381
233.069969	-2.999200	3.819300	-11.454000	22.482507	0.000935	20.774891
234.067951	-2.984800	3.818500	-11.395000	22.501870	0.000938	20.791438
235.071218	-2.989700	3.817100	-11.411000	22.481764	0.000938	20.795010
236.068966	-3.003500	3.817900	-11.466000	22.482964	0.000937	20.788625
237.070277	-2.995300	3.817300	-11.432000	22.510726	0.000939	20.789401
238.071961	-3.008800	3.816200	-11.482000	22.500874	0.000940	20.797553
239.070990	-3.003200	3.817500	-11.464000	22.539009	0.000939	20.809667
240.070667	-3.011400	3.817500	-11.494000	22.562894	0.000940	20.797553
241.071101	-3.011500	3.816100	-11.490000	22.561179	0.000943	20.781137
242.073424	-3.021600	3.814600	-11.525000	22.574158	0.000940	20.789394
243.072475	-3.001000	3.815100	-11.447000	22.584850	0.000943	20.793465
244.074502	-2.982100	3.816400	-11.380000	22.594939	0.000941	20.781758
245.070999	-2.984500	3.815100	-11.384000	22.594286	0.000945	20.809079
246.072697	-2.992700	3.816100	-11.420000	22.614373	0.000941	20.767084
247.073863	-2.992400	3.815400	-11.416000	22.607240	0.000943	20.771319
248.073977	-2.999500	3.814300	-11.439000	22.634631	0.000944	20.780262
249.079393	-3.020000	3.813500	-11.515000	22.627800	0.000944	20.786222
250.077254	-2.996000	3.814300	-11.426000	22.636247	0.000945	20.778088
251.077234	-2.984500	3.817000	-11.391000	22.625401	0.000944	20.795199
252.074768	-3.011400	3.812900	-11.481000	22.645234	0.000946	20.773338
253.074714	-2.993300	3.814000	-11.415000	22.617108	0.000946	20.783573
254.078053	-2.988200	3.813300	-11.394000	22.627768	0.000947	20.767697
255.075407	-2.987700	3.814200	-11.394000	22.613011	0.000947	20.772358
256.078084	-3.030300	3.811900	-11.550000	22.599813	0.000948	20.768621
257.075763	-3.013200	3.812100	-11.485000	22.606514	0.000949	20.772488
258.076672	-2.992800	3.812400	-11.408000	22.599960	0.000950	20.801485
259.077293	-2.985300	3.812600	-11.380000	22.637154	0.000950	20.777574
260.076932	-2.993400	3.811100	-11.407000	22.620414	0.000950	20.764125
261.076789	-2.991800	3.812500	-11.405000	22.649536	0.000951	20.778121
262.074442	-3.004900	3.810600	-11.449000	22.650956	0.000950	20.774328
263.082731	-2.988300	3.809900	-11.384000	22.627932	0.000953	20.782561
264.076191	-2.996200	3.810600	-11.417000	22.639318	0.000951	20.761248
265.078089	-3.012600	3.810100	-11.477000	22.664873	0.000952	20.773568
266.076095	-2.976800	3.811900	-11.345000	22.684264	0.000950	20.774026
267.079039	-3.006200	3.809300	-11.451000	22.678176	0.000954	20.778833
268.078494	-2.988500	3.810900	-11.388000	22.703469	0.000951	20.759123
269.077423	-2.999100	3.809100	-11.424000	22.681686	0.000953	20.775711
270.081162	-2.986900	3.810200	-11.379000	22.669852	0.000952	20.761012
271.080056	-3.015300	3.808300	-11.483000	22.680013	0.000955	20.752223
272.081831	-2.996900	3.809000	-11.414000	22.683857	0.000954	20.747064
273.079225	-2.991000	3.809900	-11.394000	22.691448	0.000956	20.772686
274.078713	-3.009000	3.808200	-11.458000	22.674137	0.000955	20.757243
275.082846	-3.008300	3.808700	-11.458000	22.697324	0.000955	20.760080
276.084646	-2.991400	3.809100	-11.393000	22.734327	0.000956	20.762058
277.079858	-3.005300	3.806800	-11.440000	22.726248	0.000958	20.748275
278.081484	-2.994500	3.808000	-11.403000	22.735691	0.000959	20.753940
279.080051	-2.993400	3.808400	-11.400000	22.735340	0.000958	20.760702
280.081146	-2.999800	3.807000	-11.419000	22.789529	0.000961	20.745757
281.079581	-2.994300	3.805700	-11.395000	22.788606	0.000960	20.746730
282.081758	-3.001800	3.806700	-11.425000	22.780952	0.000960	20.758028
283.082541	-3.000700	3.806300	-11.420000	22.803973	0.000957	20.759753
284.083075	-2.996900	3.806400	-11.406000	22.756738	0.000960	20.751316
285.081817	-3.005100	3.804700	-11.432000	22.803378	0.000961	20.737344
286.085713	-3.002700	3.804500	-11.423000	22.795633	0.000961	20.761355
287.081883	-2.987800	3.805200	-11.367000	22.789251	0.000964	20.748798
288.084360	-3.015300	3.804400	-11.470000	22.799265	0.000962	20.746975
289.082171	-3.036200	3.804000	-11.548000	22.791267	0.000962	20.752240
290.083509	-3.003900	3.803500	-11.425000	22.786934	0.000964	20.756908
291.085136	-2.998400	3.803600	-11.403000	22.806217	0.000965	20.756311
292.084203	-2.983800	3.805100	-11.352000	22.830430	0.000965	20.766817
293.086685	-2.991700	3.806100	-11.386000	22.840769	0.000967	20.750147
294.086304	-3.025900	3.802600	-11.504000	22.838729	0.000967	20.755216
295.085147	-2.994500	3.804700	-11.393000	22.854323	0.000966	20.749501
296.085422	-3.016000	3.802500	-11.467000	22.843038	0.000966	20.765696
297.084895	-2.998400	3.804600	-11.406000	22.854593	0.000968	20.742184
298.084436	-2.998100	3.802700	-11.399000	22.880396	0.000971	20.763768
299.085435	-3.019600	3.801100	-11.477000	22.869893	0.000971	20.760832
300.083939	-3.018000	3.801800	-11.473000	22.858527	0.000969	20.752289
301.087688	-2.988300	3.801400	-11.359000	22.899784	0.000969	20.751896
302.091045	-2.995900	3.801800	-11.389000	22.857980	0.000973	20.756957
303.087305	-3.009100	3.800700	-11.436000	22.871950	0.000971	20.742504
304.092837	-2.991800	3.801000	-11.370000	22.882110	0.000971	20.756950
305.086974	-2.999300	3.801800	-11.402000	22.883049	0.000974	20.731811
306.088693	-3.001500	3.800600	-11.407000	22.915983	0.000972	20.742995
307.100950	-2.987100	3.801600	-11.354000	22.913486	0.000971	20.749028
308.086661	-3.014600	3.798400	-11.450000	22.905244	0.000972	20.758315
309.086592	-2.997700	3.799500	-11.388000	22.921777	0.000973	20.743584
310.086139	-3.003700	3.798900	-11.409000	22.923164	0.000974	20.757777
311.085999	-2.980400	3.799900	-11.324000	22.935649	0.000973	20.751318
312.086553	-2.992600	3.800200	-11.371000	22.963286	0.000975	20.732066
313.088973	-2.983000	3.799900	-11.333000	22.978602	0.000975	20.753101
314.086119	-3.010500	3.798700	-11.435000	22.978618	0.000975	20.741264
315.087747	-2.997600	3.798300	-11.385000	23.000510	0.000976	20.731903
316.087462	-3.006000	3.798300	-11.416000	22.970223	0.000977	20.722419
317.087382	-3.020300	3.795700	-11.462000	22.970124	0.000976	20.723744
318.096352	-2.980000	3.799600	-11.321000	22.989071	0.000975	20.736564
319.095135	-3.005000	3.797100	-11.409000	22.993085	0.000976	20.745801
320.090250	-2.978100	3.796800	-11.306000	22.987350	0.000980	20.737684
321.089213	-2.994400	3.796000	-11.365000	23.009470	0.000978	20.740880
322.085570	-3.002700	3.795700	-11.396000	23.027550	0.000977	20.748091
323.090585	-2.993600	3.796200	-11.363000	23.036836	0.000978	20.734635
324.093942	-3.009700	3.796400	-11.425000	23.055936	0.000978	20.735755
325.090803	-2.992300	3.797000	-11.360000	23.040099	0.000980	20.736956
326.091072	-2.997800	3.794600	-11.374000	23.069186	0.000979	20.733384
327.090616	-3.022400	3.793500	-11.464000	23.082590	0.000978	20.741126
328.091281	-3.000300	3.794400	-11.383000	23.082411	0.000981	20.710599
329.096821	-3.011800	3.794200	-11.426000	23.081783	0.000980	20.716608
330.093725	-3.016500	3.794100	-11.444000	23.089803	0.000982	20.721800
331.095558	-3.011400	3.792000	-11.419000	23.111472	0.000982	20.712218
332.094636	-2.972800	3.794000	-11.278000	23.113985	0.000982	20.733229
333.093109	-3.004600	3.793100	-11.395000	23.118889	0.000981	20.723917
334.096771	-2.969000	3.793800	-11.263000	23.134406	0.000985	20.728561
335.093059	-2.977300	3.793700	-11.293000	23.130547	0.000985	20.741290
336.091990	-2.996600	3.792500	-11.363000	23.140353	0.000984	20.733099
337.095164	-3.006800	3.793000	-11.404000	23.144465	0.000984	20.725839
338.096077	-2.997600	3.792400	-11.367000	23.137188	0.000986	20.711434
339.095102	-3.014400	3.792100	-11.431000	23.146448	0.000986	20.719765
340.098372	-3.015500	3.791300	-11.432000	23.144702	0.000986	20.731767
341.094878	-2.984600	3.792400	-11.318000	23.136536	0.000988	20.733066
342.096138	-2.984100	3.790100	-11.308000	23.161141	0.000988	20.729273
343.094540	-2.999500	3.791500	-11.372000	23.155512	0.000986	20.720787
344.097060	-2.990000	3.790800	-11.333000	23.182646	0.000988	20.715735
345.097646	-2.994600	3.790300	-11.350000	23.177605	0.000987	20.727754
346.096802	-2.998900	3.789900	-11.363000	23.190910	0.000988	20.715956
347.098006	-2.989400	3.790700	-11.331000	23.167963	0.000988	20.714772
348.096155	-2.992200	3.789900	-11.339000	23.183830	0.000990	20.709334
349.096122	-2.986000	3.789500	-11.314000	23.171373	0.000990	20.702541
350.097750	-2.998200	3.789800	-11.362000	23.171895	0.000989	20.720609
351.095766	-3.004500	3.788000	-11.380000	23.175705	0.000989	20.736282
352.104474	-3.002700	3.788400	-11.375000	23.191182	0.000989	20.722867
353.096577	-3.020500	3.787600	-11.439000	23.203263	0.000990	20.704152
354.098088	-2.996700	3.787700	-11.349000	23.208819	0.000991	20.711142
355.097428	-3.006800	3.788600	-11.390000	23.223577	0.000992	20.705543
356.099565	-2.996200	3.788000	-11.348000	23.215379	0.000993	20.707759
357.099106	-2.995300	3.785700	-11.338000	23.222133	0.000989	20.710734
358.099850	-3.008600	3.787200	-11.393000	23.231792	0.000992	20.721837
359.101928	-2.996600	3.787000	-11.347000	23.223659	0.000994	20.713213
360.098574	-3.016900	3.785000	-11.417000	23.188377	0.000994	20.746135
361.102253	-2.979300	3.787600	-11.282000	23.206626	0.000992	20.712739
362.098338	-2.994100	3.784300	-11.330000	23.211162	0.000993	20.711120
363.101397	-2.993800	3.786300	-11.334000	23.219597	0.000993	20.726212
364.099055	-3.014500	3.784900	-11.408000	23.207933	0.000994	20.704090
365.102814	-3.006700	3.784900	-11.379000	23.188582	0.000994	20.710778
366.101820	-2.992400	3.784300	-11.323000	23.185001	0.000995	20.711456
367.104158	-3.004300	3.783400	-11.364000	23.183525	0.000996	20.706657
368.100318	-2.981400	3.783300	-11.277000	23.203895	0.000998	20.714743
369.099767	-2.994600	3.783100	-11.327000	23.221141	0.000998	20.704050
370.098999	-2.996700	3.782900	-11.334000	23.239071	0.000997	20.731030
371.103025	-3.012700	3.782500	-11.395000	23.238819	0.000997	20.715603
372.104731	-2.975600	3.784600	-11.261000	23.255305	0.000995	20.714581
373.103474	-3.006800	3.781700	-11.370000	23.274549	0.000998	20.721539
374.105696	-3.001700	3.783300	-11.355000	23.271938	0.000997	20.730777
375.101730	-3.009400	3.781400	-11.378000	23.272273	0.000998	20.700765
376.103750	-2.999600	3.780200	-11.337000	23.268138	0.000998	20.731710
377.103172	-2.986500	3.782500	-11.295000	23.275512	0.000998	20.709227
378.105341	-3.013700	3.780400	-11.392000	23.261595	0.000997	20.702392
379.104311	-2.996700	3.780400	-11.327000	23.279745	0.001000	20.699718
380.104874	-2.988400	3.780100	-11.295000	23.286712	0.000997	20.708123
381.107344	-3.000400	3.780700	-11.343000	23.292936	0.000998	20.721000
382.108236	-2.988800	3.779200	-11.293000	23.325173	0.001000	20.707315
383.105926	-2.994500	3.779700	-11.317000	23.304259	0.001001	20.703897
384.104492	-2.987800	3.778600	-11.289000	23.300898	0.001002	20.703848
385.107683	-2.985000	3.778700	-11.278000	23.310833	0.000999	20.702900
386.105531	-2.982300	3.778800	-11.269000	23.309438	0.001001	20.721418
387.104774	-2.969100	3.779900	-11.221000	23.311926	0.001001	20.702099
388.109426	-2.987400	3.779100	-11.289000	23.345313	0.001000	20.711379
389.107086	-3.011900	3.778000	-11.378000	23.310076	0.001002	20.706408
390.109745	-2.981000	3.778700	-11.262000	23.306698	0.001003	20.703497
391.105666	-3.028000	3.777200	-11.435000	23.329676	0.001003	20.714199
392.106127	-3.009700	3.777200	-11.367000	23.335206	0.001003	20.717371
393.108106	-3.007400	3.777300	-11.359000	23.330777	0.001003	20.702499
394.110524	-2.985500	3.777600	-11.276000	23.352703	0.001003	20.713096
395.107726	-3.002100	3.775000	-11.332000	23.368364	0.001004	20.714568
396.109068	-3.014300	3.774800	-11.378000	23.360052	0.001005	20.701968
397.109031	-3.003200	3.776600	-11.341000	23.377255	0.001005	20.712098
398.111377	-2.996400	3.774800	-11.310000	23.361268	0.001003	20.714093
399.114590	-3.002100	3.776200	-11.336000	23.380191	0.001006	20.712671
400.110910	-2.988300	3.776400	-11.284000	23.394383	0.001004	20.701764
401.109823	-3.017000	3.775100	-11.389000	23.386863	0.001005	20.733584
402.111614	-2.984300	3.774800	-11.263000	23.406960	0.001007	20.727648
403.111396	-3.000600	3.774600	-11.325000	23.403698	0.001004	20.710627
404.115250	-3.011800	3.773000	-11.362000	23.411112	0.001006	20.714265
405.112692	-3.000400	3.773900	-11.322000	23.402923	0.001005	20.702737
406.115019	-2.987000	3.772900	-11.269000	23.400313	0.001004	20.686369
407.111639	-3.007000	3.773000	-11.345000	23.405288	0.001006	20.706057
408.113562	-3.000000	3.771200	-11.312000	23.434096	0.001007	20.717388
409.116758	-2.988400	3.773400	-11.276000	23.449601	0.001010	20.722024
410.112321	-2.968800	3.773200	-11.201000	23.466084	0.001008	20.700612
411.114017	-3.012200	3.770600	-11.357000	23.490380	0.001009	20.731606
412.115625	-2.985500	3.770300	-11.255000	23.479900	0.001008	20.692649
413.112100	-2.994100	3.771300	-11.290000	23.487248	0.001009	20.713767
414.114179	-3.007500	3.771000	-11.341000	23.507042	0.001010	20.725073
415.117062	-3.000600	3.769000	-11.308000	23.502483	0.001008	20.702010
416.113012	-2.987300	3.771200	-11.265000	23.524805	0.001007	20.706843
417.112757	-3.009600	3.769000	-11.341000	23.525016	0.001009	20.712744
418.111601	-2.995000	3.770000	-11.290000	23.547444	0.001010	20.710096
419.115372	-2.987700	3.769700	-11.262000	23.535692	0.001010	20.709695
420.111628	-2.984900	3.771200	-11.255000	23.513926	0.001010	20.726758
421.113169	-2.998800	3.768100	-11.299000	23.519129	0.001010	20.712059
422.114790	-2.995700	3.769400	-11.291000	23.528916	0.001011	20.690573
423.114062	-3.004400	3.767200	-11.318000	23.544125	0.001011	20.733798
424.114801	-3.006100	3.766700	-11.323000	23.541949	0.001011	20.719761
425.117567	-3.001600	3.766400	-11.303000	23.544191	0.001011	20.713948
426.113314	-2.992000	3.767600	-11.271000	23.529749	0.001010	20.708953
427.115407	-3.009500	3.766200	-11.334000	23.536028	0.001011	20.710032
428.114913	-3.003300	3.766400	-11.310000	23.532334	0.001011	20.697319
429.117373	-3.021100	3.765400	-11.375000	23.530067	0.001012	20.721601
430.121898	-3.010400	3.765700	-11.334000	23.528599	0.001012	20.704955
431.118831	-2.977700	3.765700	-11.212000	23.499051	0.001012	20.717063
432.122133	-3.007000	3.766100	-11.323000	23.490333	0.001012	20.718282
433.120617	-3.002900	3.765000	-11.305000	23.483059	0.001010	20.708619
434.119436	-2.995600	3.763700	-11.272000	23.481444	0.001011	20.722648
435.121381	-3.000500	3.764900	-11.295000	23.465696	0.001012	20.705439
436.122344	-2.966500	3.766300	-11.171000	23.473794	0.001013	20.733947
437.121481	-2.990600	3.765100	-11.257000	23.482130	0.001014	20.707213
438.122273	-2.987600	3.764500	-11.245000	23.490791	0.001013	20.732967
439.121136	-3.001700	3.764200	-11.297000	23.501882	0.001016	20.729859
440.121429	-2.988600	3.762800	-11.244000	23.500382	0.001015	20.736416
441.123462	-3.002900	3.762600	-11.297000	23.529376	0.001016	20.712373
442.123439	-3.004500	3.762500	-11.302000	23.544348	0.001014	20.732124
443.125208	-3.014100	3.761500	-11.335000	23.547855	0.001014	20.715250
444.125572	-3.014300	3.761000	-11.336000	23.560994	0.001015	20.722731
445.122959	-2.988500	3.762200	-11.242000	23.572027	0.001017	20.729999
446.125912	-2.991500	3.762100	-11.253000	23.570625	0.001013	20.716739
447.122933	-3.013600	3.759100	-11.327000	23.571351	0.001015	20.726950
448.125125	-3.015500	3.759600	-11.337000	23.566817	0.001015	20.735681
449.123483	-3.004400	3.759800	-11.295000	23.566768	0.001015	20.738003
450.124105	-3.008800	3.759200	-11.308000	23.574343	0.001016	20.717621
451.128566	-3.009900	3.759000	-11.314000	23.569655	0.001016	20.703437
452.123302	-3.012000	3.759200	-11.322000	23.583298	0.001016	20.737504
453.126697	-2.994700	3.759600	-11.257000	23.578396	0.001016	20.721684
454.123393	-3.018700	3.758200	-11.344000	23.612003	0.001016	20.725977
455.125141	-3.000000	3.758100	-11.272000	23.631468	0.001017	20.731740
456.128290	-2.992100	3.758400	-11.244000	23.642192	0.001017	20.734431
457.129244	-2.978200	3.759100	-11.194000	23.657114	0.001017	20.729475
458.127813	-2.992100	3.757500	-11.241000	23.665147	0.001019	20.730416
459.129567	-3.018300	3.757300	-11.340000	23.701171	0.001018	20.726704
460.128238	-3.013900	3.756800	-11.321000	23.666671	0.001017	20.718667
461.128586	-3.001500	3.756100	-11.272000	23.690294	0.001017	20.736188
462.131677	-3.002900	3.755800	-11.276000	23.684513	0.001017	20.745565
463.127402	-3.004000	3.755300	-11.280000	23.682278	0.001017	20.735738
464.132053	-3.008100	3.754300	-11.292000	23.704237	0.001019	20.725984
465.134195	-2.994800	3.754900	-11.245000	23.694974	0.001018	20.735190
466.130327	-3.008800	3.754700	-11.296000	23.715188	0.001017	20.729377
467.131077	-2.989000	3.754800	-11.222000	23.733176	0.001018	20.724178
468.129014	-3.018900	3.753300	-11.330000	23.735125	0.001019	20.721390
469.130404	-2.999900	3.753300	-11.259000	23.744608	0.001019	20.730898
470.129860	-2.977700	3.753600	-11.175000	23.757180	0.001018	20.731176
471.132581	-2.985200	3.754600	-11.207000	23.764894	0.001020	20.728952
472.130104	-2.994100	3.754100	-11.239000	23.803224	0.001020	20.752685
473.133547	-3.004500	3.752500	-11.274000	23.799717	0.001021	20.728780
474.130886	-3.007800	3.751600	-11.283000	23.811564	0.001021	20.732124
475.132556	-3.010900	3.752000	-11.296000	23.798911	0.001019	20.734610
476.134443	-3.010100	3.751100	-11.288000	23.804765	0.001020	20.737635
477.132432	-2.995100	3.753100	-11.240000	23.778258	0.001019	20.751835
478.135820	-2.998000	3.752400	-11.249000	23.735566	0.001021	20.711400
479.132802	-3.006100	3.751300	-11.276000	23.746695	0.001021	20.765235
480.135899	-2.981200	3.750600	-11.180000	23.779245	0.001021	20.744764
481.133636	-2.979900	3.750400	-11.175000	23.781862	0.001020	20.754027
482.133817	-2.997800	3.751500	-11.245000	23.782734	0.001020	20.735934
483.134420	-3.014500	3.749000	-11.301000	23.779400	0.001020	20.749187
484.134905	-3.004600	3.748400	-11.260000	23.783256	0.001020	20.753054
485.134715	-2.990500	3.749700	-11.213000	23.789901	0.001022	20.730318
486.134951	-3.007100	3.748700	-11.272000	23.772404	0.001021	20.734111
487.135298	-3.001700	3.747700	-11.248000	23.820934	0.001020	20.721129
488.135123	-2.999900	3.750200	-11.249000	23.816107	0.001021	20.726247
489.137811	-2.991200	3.746800	-11.206000	23.809469	0.001020	20.755629
490.133069	-3.000700	3.747100	-11.242000	23.816352	0.001022	20.735502
491.141490	-3.020200	3.746800	-11.315000	23.812226	0.001020	20.726149
492.135627	-3.013400	3.747600	-11.292000	23.820836	0.001022	20.754223
493.134992	-2.999600	3.747000	-11.238000	23.821326	0.001020	20.752344
494.137461	-3.024100	3.745100	-11.324000	23.813693	0.001021	20.732836
495.133322	-3.018100	3.744500	-11.300000	23.815259	0.001023	20.745786
496.135666	-2.991100	3.746600	-11.206000	23.794623	0.001022	20.746432
497.133707	-2.995200	3.746100	-11.219000	23.772950	0.001022	20.755049
498.135438	-3.009000	3.744800	-11.267000	23.796939	0.001022	20.766773
499.135877	-3.021800	3.743500	-11.311000	23.780069	0.001023	20.762186
500.137360	-3.003700	3.745800	-11.250000	23.831386	0.001022	20.752948
501.134067	-3.013600	3.743600	-11.280000	23.852592	0.001021	20.737227
502.135199	-3.019200	3.743300	-11.301000	23.842882	0.001022	20.729861
503.136468	-2.990300	3.743100	-11.193000	23.801023	0.001022	20.758066
504.136234	-2.981400	3.743900	-11.160000	23.810555	0.001022	20.757665
505.140522	-2.996500	3.743000	-11.215000	23.779238	0.001023	20.760404
506.139231	-2.993500	3.743200	-11.204000	23.776555	0.001023	20.745386
507.140095	-2.998200	3.742200	-11.218000	23.773489	0.001023	20.746580
508.141323	-2.993500	3.742300	-11.202000	23.799271	0.001021	20.771008
509.141925	-2.988200	3.742900	-11.184000	23.806487	0.001022	20.747897
510.141392	-2.987600	3.742700	-11.182000	23.814526	0.001023	20.772079
511.143177	-2.998400	3.740800	-11.215000	23.828166	0.001022	20.739762
512.141306	-3.004900	3.741500	-11.241000	23.847253	0.001023	20.766487
513.143984	-3.011900	3.740100	-11.264000	23.850637	0.001021	20.775096
514.142416	-2.994300	3.742000	-11.203000	23.870139	0.001023	20.762883
515.143095	-3.005700	3.740100	-11.241000	23.887415	0.001022	20.756024
516.144958	-3.022900	3.738000	-11.298000	23.890416	0.001022	20.750972
517.150070	-2.998800	3.740500	-11.216000	23.881912	0.001021	20.771843
518.145993	-2.971300	3.739900	-11.112000	23.878301	0.001025	20.740720
519.144229	-2.997300	3.738400	-11.204000	23.874265	0.001021	20.766072
520.143556	-2.983700	3.739100	-11.156000	23.897428	0.001023	20.771280
521.148164	-3.006500	3.738000	-11.238000	23.889022	0.001022	20.773757
522.144796	-3.013300	3.737200	-11.260000	23.919253	0.001024	20.761871
523.146057	-3.011900	3.737600	-11.256000	23.917957	0.001023	20.776219
524.144602	-3.005600	3.736700	-11.230000	23.902948	0.001022	20.757375
525.146134	-2.995800	3.736100	-11.192000	23.918853	0.001024	20.762893
526.150209	-3.011600	3.735900	-11.250000	23.922954	0.001023	20.765109
527.148122	-2.991300	3.734300	-11.170000	23.952246	0.001022	20.771723
528.149752	-3.031300	3.734900	-11.320000	23.959738	0.001023	20.786822
529.148220	-3.023200	3.733500	-11.286000	23.969187	0.001023	20.783495
530.150045	-3.018900	3.733700	-11.270000	23.975659	0.001024	20.770071
531.149734	-3.004200	3.733100	-11.214000	23.985084	0.001023	20.781894
532.149475	-3.036900	3.732200	-11.333000	23.996887	0.001024	20.777135
533.149200	-3.004200	3.734500	-11.219000	24.035601	0.001022	20.757637
534.152074	-3.003500	3.733100	-11.212000	24.048912	0.001024	20.774307
535.149086	-2.987700	3.734200	-11.155000	24.016559	0.001024	20.775051
536.151457	-3.006700	3.733200	-11.223000	24.037085	0.001022	20.779041
537.152195	-2.987600	3.733800	-11.154000	24.059926	0.001026	20.775869
538.151818	-2.992900	3.733800	-11.174000	24.062812	0.001024	20.774496
539.156599	-3.022700	3.733500	-11.285000	24.050071	0.001025	20.774046
540.151738	-2.988100	3.732500	-11.151000	24.053804	0.001022	20.773049
541.152318	-2.995900	3.731500	-11.177000	24.030630	0.001024	20.769722
542.159099	-3.001900	3.730700	-11.198000	24.016152	0.001023	20.771798
543.155387	-2.978200	3.732100	-11.115000	23.993352	0.001024	20.776908
544.158396	-2.995100	3.729600	-11.170000	23.999971	0.001023	20.789237
545.154404	-3.007800	3.730100	-11.219000	24.028592	0.001023	20.773368
546.155057	-3.005300	3.729200	-11.206000	24.025356	0.001023	20.770597
547.157949	-3.005800	3.729700	-11.210000	24.034331	0.001024	20.779124
548.160631	-3.015200	3.729100	-11.242000	24.030231	0.001023	20.800616
549.153138	-3.016300	3.728100	-11.244000	24.052151	0.001021	20.794150
550.156152	-3.001700	3.729000	-11.192000	24.037038	0.001022	20.785158
551.154611	-2.989100	3.728300	-11.143000	24.074200	0.001023	20.781176
552.156237	-3.009200	3.728200	-11.218000	24.052094	0.001022	20.772282
553.158127	-3.002000	3.728100	-11.191000	24.058272	0.001024	20.794600
554.155933	-2.994200	3.727300	-11.159000	24.053765	0.001023	20.786760
555.160154	-3.018500	3.726300	-11.247000	24.074339	0.001021	20.790325
556.155979	-2.997700	3.727800	-11.174000	24.090267	0.001021	20.786858
557.157745	-2.982600	3.727400	-11.115000	24.097873	0.001022	20.788797
558.161467	-2.991200	3.727600	-11.149000	24.097652	0.001024	20.803749
559.158843	-3.010700	3.726200	-11.217000	24.119115	0.001024	20.778333
560.159189	-3.011700	3.726000	-11.220000	24.101354	0.001022	20.799874
561.160306	-3.000800	3.726100	-11.180000	24.125408	0.001022	20.802663
562.163713	-2.989400	3.726000	-11.138000	24.127821	0.001022	20.794651
563.158704	-2.994500	3.724600	-11.151000	24.133413	0.001022	20.815433
564.161967	-3.003300	3.726000	-11.189000	24.128171	0.001023	20.805434
565.159943	-2.997900	3.724100	-11.163000	24.132541	0.001021	20.799385
566.160466	-2.978600	3.725200	-11.094000	24.155559	0.001021	20.803979
567.161364	-2.996300	3.723700	-11.157000	24.161330	0.001023	20.793646
568.159466	-2.979100	3.723800	-11.092000	24.184462	0.001021	20.802623
569.162809	-2.984500	3.723200	-11.111000	24.158591	0.001021	20.799908
570.160126	-3.006100	3.721800	-11.187000	24.173964	0.001023	20.801577
571.163224	-3.002100	3.722200	-11.173000	24.161045	0.001023	20.809482
572.162443	-3.000900	3.722400	-11.169000	24.173613	0.001024	20.801699
573.164120	-2.994900	3.722000	-11.145000	24.194984	0.001021	20.806539
574.163959	-2.983500	3.721200	-11.100000	24.198440	0.001021	20.797204
575.162580	-2.974500	3.722200	-11.071000	24.179899	0.001022	20.824124
576.160464	-3.008600	3.720300	-11.192000	24.182441	0.001021	20.795855
577.161897	-2.966500	3.721900	-11.040000	24.170272	0.001021	20.826797
578.161634	-2.997900	3.721400	-11.156000	24.154542	0.001021	20.821451
579.163804	-2.995000	3.719900	-11.140000	24.155838	0.001021	20.811371
580.161476	-2.998300	3.718800	-11.148000	24.169222	0.001021	20.811045
581.161310	-2.968200	3.720300	-11.041000	24.160852	0.001020	20.822564
582.164121	-2.986700	3.719500	-11.107000	24.182906	0.001021	20.788735
583.164948	-3.000400	3.719900	-11.160000	24.164470	0.001021	20.824770
584.164959	-3.027200	3.718200	-11.254000	24.180910	0.001022	20.818975
585.166330	-3.016000	3.719300	-11.217000	24.167624	0.001023	20.799960
586.162437	-3.012500	3.718800	-11.201000	24.167845	0.001021	20.803026
587.162294	-2.991000	3.717400	-11.117000	24.163762	0.001022	20.817896
588.162498	-2.982000	3.718400	-11.087000	24.133334	0.001020	20.836216
589.162842	-2.980500	3.717800	-11.080000	24.129398	0.001020	20.823734
590.162908	-3.015000	3.715200	-11.200000	24.135341	0.001020	20.824952
591.165955	-2.965100	3.718800	-11.025000	24.147306	0.001021	20.836953
592.163854	-2.987300	3.717900	-11.104000	24.195753	0.001018	20.823906
593.162616	-2.988700	3.716300	-11.107000	24.204581	0.001017	20.838449
594.162626	-2.996500	3.715100	-11.131000	24.199878	0.001019	20.810025
595.164321	-2.979600	3.715700	-11.071000	24.218738	0.001019	20.823252
596.166265	-3.007400	3.714500	-11.170000	24.257402	0.001019	20.828843
597.164699	-3.002300	3.714700	-11.152000	24.272700	0.001020	20.851300
598.166630	-2.992000	3.714700	-11.113000	24.259065	0.001019	20.831460
599.165766	-2.999500	3.713700	-11.138000	24.272325	0.001021	20.830536
600.165819	-2.993500	3.713300	-11.114000	24.277346	0.001019	20.824193
601.169245	-2.983500	3.715500	-11.084000	24.285154	0.001018	20.841982
602.169543	-3.022000	3.713100	-11.220000	24.308283	0.001018	20.836260
603.169678	-3.003400	3.714200	-11.154000	24.271526	0.001017	20.824994
604.167592	-2.976100	3.712700	-11.048000	24.289383	0.001019	20.827259
605.166739	-2.979000	3.713700	-11.063000	24.281877	0.001018	20.825419
606.172936	-2.987400	3.712500	-11.090000	24.292700	0.001020	20.838646
607.169175	-2.981300	3.713200	-11.069000	24.273011	0.001018	20.837862
608.171043	-3.009100	3.710500	-11.163000	24.306750	0.001016	20.838041
609.168928	-3.000200	3.711100	-11.133000	24.320059	0.001017	20.817253
610.168752	-3.008400	3.711100	-11.163000	24.357717	0.001019	20.833219
611.173452	-2.996400	3.710900	-11.118000	24.332201	0.001019	20.829433
612.171525	-2.973400	3.711900	-11.036000	24.326105	0.001017	20.820473
613.178292	-2.976100	3.709900	-11.041000	24.313987	0.001018	20.834870
614.170771	-2.973200	3.710400	-11.031000	24.327173	0.001017	20.866113
615.173172	-2.981300	3.710700	-11.062000	24.313392	0.001016	20.849919
616.172185	-2.979200	3.709900	-11.051000	24.295406	0.001018	20.865067
617.172670	-2.993100	3.708500	-11.099000	24.287916	0.001017	20.846175
618.177227	-3.007300	3.708100	-11.150000	24.273939	0.001018	20.838793
619.172130	-2.976100	3.710800	-11.043000	24.270035	0.001019	20.845308
620.172442	-2.993600	3.709900	-11.105000	24.266442	0.001017	20.837437
621.174698	-3.011800	3.706500	-11.162000	24.278739	0.001016	20.838867
622.176918	-3.006600	3.705900	-11.141000	24.287517	0.001015	20.855732
623.174452	-2.995200	3.706500	-11.101000	24.323644	0.001018	20.844556
624.177438	-2.987300	3.707700	-11.075000	24.318094	0.001017	20.854636
625.174047	-2.993300	3.706800	-11.095000	24.321158	0.001018	20.832106
626.175498	-3.005500	3.705600	-11.136000	24.327051	0.001016	20.874999
627.177914	-3.005300	3.705900	-11.135000	24.326529	0.001017	20.848398
628.174743	-3.008500	3.703800	-11.142000	24.341507	0.001016	20.854415
629.176851	-2.981700	3.704900	-11.046000	24.374334	0.001013	20.869326
630.178076	-3.007000	3.704300	-11.138000	24.413000	0.001018	20.869236
631.178230	-2.998500	3.704300	-11.106000	24.410181	0.001017	20.859296
632.179660	-3.015400	3.701600	-11.161000	24.373494	0.001017	20.851889
633.180522	-3.015800	3.703500	-11.168000	24.376428	0.001014	20.862418
634.177137	-3.017100	3.702400	-11.169000	24.359990	0.001016	20.843085
635.178453	-2.995700	3.703200	-11.093000	24.391300	0.001015	20.871648
636.176639	-3.017600	3.702000	-11.169000	24.408396	0.001016	20.841859
637.176896	-3.010100	3.702300	-11.143000	24.395309	0.001014	20.855282
638.180457	-3.000600	3.704100	-11.113000	24.392522	0.001013	20.852486
639.180190	-2.998900	3.701900	-11.101000	24.409089	0.001014	20.856778
640.180610	-2.995600	3.701900	-11.088000	24.424059	0.001014	20.856149
641.178054	-2.970600	3.702800	-10.998000	24.415405	0.001014	20.858847
642.179937	-2.998800	3.699900	-11.093000	24.404103	0.001014	20.847035
643.180760	-2.998400	3.701400	-11.097000	24.423138	0.001015	20.850958
644.180715	-3.009600	3.701300	-11.139000	24.423831	0.001014	20.855921
645.179788	-2.998900	3.701200	-11.099000	24.424402	0.001015	20.865976
646.182003	-2.988600	3.701300	-11.061000	24.428557	0.001013	20.855447
647.182501	-2.999800	3.699600	-11.097000	24.431841	0.001016	20.852577
648.180803	-3.022500	3.698800	-11.178000	24.464322	0.001014	20.829214
649.180696	-3.014000	3.699800	-11.150000	24.440691	0.001013	20.848654
650.180537	-3.015900	3.698200	-11.153000	24.467483	0.001015	20.833808
651.186079	-3.001000	3.698100	-11.096000	24.473522	0.001011	20.856935
652.178849	-3.023500	3.697700	-11.179000	24.462148	0.001012	20.839360
653.180822	-3.002600	3.697400	-11.101000	24.443618	0.001015	20.847322
654.185726	-3.006200	3.697500	-11.114000	24.433293	0.001012	20.845025
655.181331	-3.007800	3.697100	-11.119000	24.395157	0.001011	20.841854
656.183671	-3.022000	3.696700	-11.171000	24.431004	0.001014	20.841306
657.189879	-3.003000	3.696800	-11.101000	24.452093	0.001011	20.834015
658.182402	-2.995300	3.695700	-11.067000	24.468708	0.001010	20.833614
659.183907	-2.974100	3.695900	-10.991000	24.460999	0.001012	20.846743
660.186682	-2.987100	3.696300	-11.039000	24.446845	0.001009	20.847241
661.183700	-2.998200	3.695200	-11.077000	24.451441	0.001010	20.839051
662.185035	-3.004500	3.694800	-11.099000	24.432936	0.001011	20.851779
663.183758	-3.020900	3.695200	-11.161000	24.400944	0.001009	20.824900
664.184757	-2.995800	3.695300	-11.070000	24.359922	0.001008	20.826421
665.190206	-2.977700	3.695200	-11.001000	24.355815	0.001012	20.843637
666.185123	-3.005100	3.695800	-11.105000	24.365015	0.001009	20.832005
667.185689	-2.992300	3.693300	-11.051000	24.363451	0.001011	20.834228
668.186217	-2.980100	3.693900	-11.007000	24.392853	0.001009	20.844284
669.185889	-2.976600	3.695000	-10.998000	24.394141	0.001008	20.849843
670.188603	-3.022000	3.691600	-11.154000	24.405435	0.001007	20.836044
671.184855	-3.014600	3.692900	-11.132000	24.399070	0.001010	20.825392
672.187412	-2.996100	3.692500	-11.062000	24.399413	0.001009	20.825736
673.189170	-3.000200	3.692200	-11.077000	24.419866	0.001010	20.826340
674.187794	-3.012500	3.692300	-11.122000	24.432823	0.001007	20.830330
675.192573	-3.000600	3.693500	-11.082000	24.457644	0.001008	20.831049
676.190163	-3.008400	3.690000	-11.100000	24.476948	0.001007	20.829553
677.198451	-2.997300	3.690800	-11.062000	24.499233	0.001007	20.841480
678.188267	-3.007400	3.691900	-11.103000	24.539330	0.001008	20.828131
679.190194	-2.996800	3.692100	-11.064000	24.536617	0.001005	20.836314
680.191003	-2.994500	3.690600	-11.051000	24.547486	0.001008	20.824935
681.192481	-3.004700	3.691000	-11.089000	24.559504	0.001007	20.825139
682.188658	-3.005100	3.688800	-11.084000	24.557736	0.001007	20.825736
683.189240	-3.026900	3.687700	-11.160000	24.550427	0.001007	20.820299
684.194658	-2.990100	3.688900	-11.030000	24.583132	0.001005	20.812811
685.193191	-3.009000	3.689200	-11.099000	24.592485	0.001007	20.790428
686.194933	-2.988900	3.690200	-11.029000	24.556717	0.001007	20.849369
687.192530	-3.008700	3.687800	-11.094000	24.517689	0.001006	20.813531
688.196429	-3.013000	3.687100	-11.108000	24.490156	0.001005	20.813408
689.193974	-3.019700	3.688200	-11.136000	24.488966	0.001005	20.785661
690.192951	-3.021100	3.685800	-11.135000	24.501107	0.001004	20.817282
691.193822	-3.018500	3.686400	-11.126000	24.512001	0.001004	20.784590
692.192771	-3.003800	3.686000	-11.071000	24.516205	0.001005	20.819628
693.194971	-3.004200	3.686200	-11.074000	24.535606	0.001004	20.823920
694.192621	-3.004700	3.685900	-11.074000	24.558118	0.001004	20.804782
695.192905	-3.004200	3.687100	-11.075000	24.580475	0.001003	20.806826
696.195847	-2.987100	3.686100	-11.010000	24.565182	0.001004	20.816137
697.194331	-2.995700	3.685900	-11.041000	24.559136	0.001003	20.801537
698.193671	-3.014700	3.684800	-11.106000	24.573485	0.001003	20.799812
699.193645	-2.992800	3.685700	-11.030000	24.577420	0.001003	20.794751
700.193584	-2.987600	3.686400	-11.012000	24.555535	0.001001	20.820208
701.194712	-3.010700	3.682700	-11.087000	24.557694	0.001002	20.799616
702.196721	-3.007400	3.683400	-11.076000	24.518169	0.001004	20.814012
703.197454	-2.988900	3.685100	-11.011000	24.475457	0.001002	20.798186
704.201909	-2.995600	3.683500	-11.034000	24.461653	0.001001	20.790501
705.194344	-2.994000	3.684000	-11.029000	24.462255	0.001001	20.803434
706.195337	-3.002500	3.681600	-11.052000	24.454963	0.001003	20.804178
707.196348	-2.995500	3.683100	-11.032000	24.434917	0.001000	20.800662
708.195658	-2.998500	3.683300	-11.044000	24.457806	0.001000	20.781900
709.196103	-2.998000	3.682300	-11.039000	24.471627	0.001000	20.800982
710.195651	-3.005600	3.681500	-11.065000	24.512718	0.000999	20.795267
711.194597	-3.002200	3.681400	-11.052000	24.550672	0.000997	20.796363
712.196214	-3.036800	3.679600	-11.173000	24.547119	0.001002	20.797540
713.196443	-3.002400	3.680000	-11.048000	24.580524	0.000997	20.807350
714.196274	-2.985600	3.680700	-10.987000	24.593724	0.000999	20.785032
715.197278	-3.003000	3.679400	-11.049000	24.583058	0.000998	20.821272
716.195963	-3.031800	3.678700	-11.151000	24.559381	0.000999	20.816955
717.197281	-2.996400	3.680100	-11.026000	24.529602	0.000999	20.796085
718.204072	-2.992300	3.680200	-11.011000	24.511920	0.000999	20.812958
719.199911	-3.007600	3.678000	-11.059000	24.497620	0.000997	20.800508
720.197891	-3.012000	3.678600	-11.078000	24.469411	0.000997	20.811560
721.197350	-3.040100	3.678000	-11.179000	24.469606	0.000998	20.804171
722.197397	-3.025100	3.677000	-11.123000	24.484958	0.001000	20.788752
723.201217	-3.009000	3.677100	-11.063000	24.475848	0.000996	20.789570
724.198704	-2.989300	3.677300	-10.991000	24.499209	0.000994	20.796886
725.201906	-2.990700	3.678100	-10.999000	24.510404	0.000998	20.782040
726.198950	-3.001400	3.677200	-11.036000	24.532665	0.000998	20.796788
727.198351	-3.015300	3.676300	-11.084000	24.570911	0.000996	20.777790
728.202726	-3.011900	3.675400	-11.068000	24.594441	0.000996	20.821314
729.202437	-2.993500	3.677200	-11.006000	24.602499	0.000998	20.796682
730.199267	-3.002100	3.676100	-11.036000	24.588119	0.000995	20.798375
731.199282	-3.026800	3.675200	-11.123000	24.575336	0.000995	20.789816
732.198986	-2.995500	3.675200	-11.008000	24.584185	0.000995	20.790634
733.202147	-3.001600	3.674700	-11.029000	24.576428	0.000996	20.776687
734.204071	-3.000900	3.673300	-11.021000	24.630103	0.000995	20.775542
735.199752	-2.993100	3.674700	-10.996000	24.620351	0.000994	20.785197
736.203571	-2.999400	3.674800	-11.020000	24.623081	0.000996	20.778927
737.202868	-3.000900	3.675200	-11.026000	24.582718	0.000993	20.797697
738.198798	-3.002300	3.672400	-11.024000	24.580796	0.000994	20.790079
739.199538	-3.008300	3.673500	-11.050000	24.592529	0.000993	20.774825
740.200327	-3.019300	3.672200	-11.086000	24.610599	0.000994	20.788214
741.200085	-2.998500	3.672600	-11.011000	24.621281	0.000994	20.783286
742.201971	-3.003600	3.672900	-11.030000	24.651548	0.000992	20.780465
743.202621	-3.012100	3.672300	-11.059000	24.662791	0.000994	20.782264
744.203535	-3.018500	3.671500	-11.080000	24.651548	0.000994	20.779991
745.207010	-3.008100	3.670900	-11.041000	24.676616	0.000993	20.777645
746.202534	-3.002200	3.672400	-11.022000	24.673757	0.000992	20.795638
747.202291	-2.994800	3.671200	-10.994000	24.700918	0.000992	20.753192
748.206313	-3.011900	3.670100	-11.051000	24.702840	0.000992	20.782148
749.203460	-2.994700	3.670300	-10.991000	24.724176	0.000991	20.780325
750.206211	-3.004200	3.670700	-11.027000	24.701243	0.000989	20.797616
751.204533	-2.996300	3.670700	-10.998000	24.702514	0.000992	20.772812
752.206103	-3.010000	3.669800	-11.046000	24.719296	0.000990	20.773058
753.205161	-3.006600	3.669300	-11.031000	24.732029	0.000991	20.794371
754.205729	-2.994900	3.668900	-10.987000	24.725390	0.000990	20.768267
755.210010	-3.016200	3.668100	-11.061000	24.754726	0.000991	20.773525
756.210183	-3.027500	3.667300	-11.101000	24.762709	0.000990	20.763044
757.205934	-2.996200	3.667600	-10.988000	24.775848	0.000987	20.758686
758.207722	-2.998300	3.667500	-10.994000	24.763010	0.000988	20.783735
759.205724	-3.000800	3.666700	-11.002000	24.756249	0.000988	20.770786
760.206637	-2.993400	3.668500	-10.981000	24.734563	0.000986	20.760877
761.211281	-2.993600	3.666600	-10.975000	24.723346	0.000987	20.755310
762.209218	-3.007600	3.666400	-11.026000	24.735288	0.000986	20.782942
763.212655	-2.989600	3.668600	-10.967000	24.718351	0.000987	20.782541
764.207536	-3.012100	3.664700	-11.037000	24.711852	0.000988	20.774122
765.209819	-2.996600	3.665100	-10.982000	24.712422	0.000986	20.773272
766.210077	-2.995400	3.664900	-10.976000	24.726915	0.000986	20.757944
767.208107	-3.009500	3.665200	-11.029000	24.709188	0.000985	20.747266
768.211086	-2.985200	3.665400	-10.941000	24.692080	0.000987	20.769454
769.214559	-2.983300	3.665200	-10.933000	24.720048	0.000986	20.777132
770.210764	-2.981500	3.665100	-10.927000	24.709156	0.000986	20.771891
771.209326	-3.001900	3.663000	-10.995000	24.744992	0.000987	20.765179
772.213074	-2.991300	3.664600	-10.959000	24.715201	0.000985	20.768000
773.210703	-3.025300	3.662200	-11.077000	24.725889	0.000985	20.764975
774.211730	-2.995500	3.663500	-10.973000	24.689213	0.000985	20.784595
775.212309	-3.008100	3.663700	-11.020000	24.713205	0.000985	20.764575
776.213712	-2.990700	3.663500	-10.956000	24.679975	0.000983	20.772007
777.214770	-2.990600	3.663100	-10.954000	24.683731	0.000984	20.796164
778.214854	-2.990300	3.661100	-10.947000	24.636797	0.000983	20.756180
779.213308	-2.977500	3.661800	-10.902000	24.666542	0.000984	20.752836
780.219921	-2.995600	3.661900	-10.969000	24.703919	0.000984	20.749092
781.215986	-2.978300	3.662700	-10.907000	24.689296	0.000984	20.758600
782.215290	-3.021900	3.660900	-11.061000	24.697255	0.000983	20.749991
783.216324	-3.030400	3.659700	-11.089000	24.726071	0.000983	20.769899
784.213852	-3.021600	3.658900	-11.054000	24.734967	0.000983	20.751325
785.215257	-2.996100	3.660100	-10.965000	24.753842	0.000982	20.738024
786.215471	-3.011000	3.659100	-11.016000	24.719652	0.000982	20.751603
787.216520	-3.013100	3.658900	-11.023000	24.732272	0.000982	20.759052
788.217267	-3.003700	3.660600	-10.994000	24.767880	0.000983	20.744525
789.217130	-3.002200	3.659200	-10.984000	24.746293	0.000983	20.757001
790.218758	-2.994300	3.659600	-10.957000	24.765038	0.000984	20.752104
791.217892	-2.992400	3.660400	-10.951000	24.756428	0.000981	20.760534
792.217583	-3.007300	3.658400	-11.000000	24.758066	0.000981	20.746056
793.220801	-2.975800	3.658100	-10.885000	24.717977	0.000980	20.768889
794.218897	-2.979400	3.657400	-10.895000	24.696291	0.000980	20.744282
795.220860	-3.008500	3.655800	-10.997000	24.702549	0.000978	20.763364
796.218444	-3.006000	3.656200	-10.990000	24.716283	0.000979	20.761973
797.218797	-3.005600	3.656100	-10.987000	24.719331	0.000980	20.743220
798.225879	-2.998700	3.658000	-10.968000	24.728228	0.000978	20.754045
799.220560	-3.000700	3.656000	-10.970000	24.743079	0.000979	20.733386
800.216464	-2.983400	3.656300	-10.908000	24.740415	0.000977	20.753473
801.218019	-3.001300	3.656600	-10.974000	24.782434	0.000977	20.769089
802.220551	-2.968000	3.657800	-10.855000	24.818009	0.000977	20.747891
803.218956	-3.021200	3.654600	-11.040000	24.815762	0.000976	20.759387
804.221802	-3.025800	3.653200	-11.053000	24.811289	0.000975	20.741147
805.220901	-2.988800	3.653700	-10.919000	24.793874	0.000977	20.741688
806.220995	-2.990100	3.655400	-10.929000	24.800636	0.000977	20.758431
807.220648	-2.981700	3.654900	-10.897000	24.797997	0.000977	20.734919
808.219989	-2.988400	3.654200	-10.918000	24.799757	0.000976	20.743324
809.222763	-2.989400	3.654300	-10.923000	24.789779	0.000977	20.757019
810.219790	-2.993700	3.653300	-10.936000	24.812832	0.000976	20.747437
811.222008	-3.011500	3.652000	-10.997000	24.819992	0.000976	20.736605
812.221777	-2.975300	3.653300	-10.869000	24.835282	0.000974	20.741519
813.222879	-3.004000	3.653400	-10.974000	24.867929	0.000975	20.744887
814.222298	-2.992400	3.652600	-10.929000	24.865088	0.000974	20.741086
815.223065	-2.996500	3.652100	-10.942000	24.850687	0.000975	20.746074
816.223135	-3.024200	3.650900	-11.040000	24.883530	0.000975	20.755803
817.224022	-2.998600	3.650300	-10.945000	24.885013	0.000972	20.741644
818.225640	-2.991400	3.651900	-10.923000	24.888474	0.000972	20.725203
819.225643	-3.005300	3.650700	-10.971000	24.900677	0.000970	20.760685
820.226533	-3.017700	3.651400	-11.018000	24.910027	0.000972	20.744465
821.224760	-3.015800	3.649700	-11.006000	24.925764	0.000971	20.734180
822.227680	-3.013900	3.650700	-11.002000	24.906174	0.000971	20.730166
823.225054	-3.007700	3.648700	-10.972000	24.889884	0.000970	20.734679
824.226707	-2.980300	3.650500	-10.879000	24.876404	0.000972	20.750074
825.226441	-3.006400	3.648900	-10.969000	24.891106	0.000969	20.719309
826.224053	-3.009100	3.649800	-10.981000	24.908659	0.000969	20.757791
827.228671	-2.983000	3.649500	-10.884000	24.929812	0.000969	20.718803
828.226143	-3.007300	3.648900	-10.973000	24.930838	0.000972	20.729790
829.226213	-3.009000	3.647700	-10.974000	24.953009	0.000969	20.721697
830.226182	-3.001600	3.648700	-10.951000	24.941532	0.000971	20.753801
831.225538	-3.031400	3.646600	-11.053000	24.951168	0.000968	20.709417
832.225387	-2.998300	3.646600	-10.933000	24.916088	0.000969	20.720201
833.225701	-2.996900	3.646300	-10.927000	24.938861	0.000968	20.718876
834.226901	-3.001100	3.646800	-10.944000	24.927573	0.000969	20.734099
835.225829	-3.019600	3.646500	-11.009000	24.928077	0.000967	20.732234
836.227519	-3.007800	3.647500	-10.969000	24.941077	0.000968	20.715410
837.226193	-2.989400	3.647100	-10.901000	24.957628	0.000966	20.742455
838.228058	-3.000700	3.645800	-10.939000	24.945297	0.000967	20.722491
839.227674	-3.007400	3.644400	-10.959000	24.907944	0.000966	20.712975
840.227706	-3.038200	3.644100	-11.069000	24.893243	0.000964	20.713393
841.233958	-3.031100	3.643800	-11.043000	24.918565	0.000966	20.713203
842.231510	-3.016600	3.642900	-10.988000	24.903497	0.000963	20.728427
843.235941	-2.997500	3.644100	-10.922000	24.919601	0.000964	20.717562
844.234750	-2.990800	3.643600	-10.896000	24.934693	0.000963	20.719909
845.230418	-2.969500	3.644700	-10.821000	24.914380	0.000965	20.718012
846.235730	-3.008700	3.643100	-10.959000	24.884284	0.000964	20.720049
847.234304	-3.002900	3.644300	-10.943000	24.877328	0.000965	20.728714
848.230689	-3.009000	3.642700	-10.961000	24.874248	0.000964	20.718036
849.233577	-3.017900	3.641900	-10.990000	24.835777	0.000962	20.716884
850.231342	-3.005600	3.643100	-10.948000	24.832600	0.000963	20.704211
851.232677	-2.955400	3.643100	-10.766000	24.840974	0.000962	20.712142
852.233514	-2.993000	3.642200	-10.900000	24.826451	0.000963	20.707998
853.233121	-2.981500	3.642600	-10.859000	24.860369	0.000962	20.724022
854.236966	-2.995900	3.642200	-10.909000	24.863130	0.000962	20.733431
855.234016	-3.036500	3.638500	-11.046000	24.875364	0.000963	20.716312
856.235775	-3.005900	3.639800	-10.940000	24.903629	0.000962	20.714808
857.236952	-3.001100	3.640800	-10.924000	24.881961	0.000962	20.744745
858.235703	-2.994600	3.638300	-10.894000	24.891305	0.000959	20.712870
859.233979	-3.017800	3.637700	-10.975000	24.898790	0.000960	20.711847
860.235651	-2.997000	3.640400	-10.909000	24.919202	0.000961	20.720955
861.232758	-2.996500	3.639500	-10.905000	24.917410	0.000962	20.718683
862.235906	-2.996700	3.638700	-10.903000	24.903042	0.000960	20.712796
863.238533	-3.017400	3.638700	-10.979000	24.952571	0.000958	20.707032
864.237551	-2.986000	3.638500	-10.863000	24.946853	0.000959	20.689912
865.237538	-2.990200	3.637600	-10.876000	24.987528	0.000960	20.713670
866.238597	-2.997300	3.637300	-10.901000	24.974382	0.000959	20.706639
867.241790	-2.990000	3.638800	-10.878000	24.954240	0.000958	20.706811
868.238354	-3.015100	3.636700	-10.965000	24.980278	0.000956	20.699280
869.238214	-3.004900	3.637300	-10.928000	24.945394	0.000957	20.698405
870.238897	-2.995700	3.634900	-10.888000	24.940590	0.000956	20.716344
871.241934	-3.003300	3.636200	-10.920000	24.928559	0.000958	20.695258
872.239555	-3.016900	3.635500	-10.967000	24.951014	0.000957	20.718272
873.243726	-3.002300	3.635500	-10.914000	24.919933	0.000955	20.719793
874.241933	-2.982600	3.635100	-10.842000	24.939131	0.000955	20.723414
875.243275	-3.002400	3.634800	-10.911000	24.939351	0.000955	20.694710
876.246363	-2.999900	3.635400	-10.905000	24.973959	0.000954	20.719017
877.243119	-2.996000	3.635800	-10.892000	24.970179	0.000954	20.724233
878.244411	-2.995300	3.634000	-10.884000	24.983886	0.000953	20.721395
879.244007	-2.995900	3.634500	-10.888000	24.961995	0.000954	20.690885
880.242503	-3.022400	3.633200	-10.980000	24.925725	0.000951	20.719916
881.243845	-3.026600	3.632500	-10.993000	24.924014	0.000952	20.724837
882.243614	-3.005800	3.632500	-10.918000	24.910216	0.000952	20.716203
883.244586	-2.961100	3.634400	-10.760000	24.920381	0.000953	20.706017
884.248378	-3.014800	3.633700	-10.953000	24.917001	0.000951	20.706417
885.244889	-2.982600	3.632900	-10.834000	24.932737	0.000952	20.718894
886.247226	-3.030400	3.630900	-11.002000	24.966425	0.000950	20.717144
887.252958	-2.996600	3.633000	-10.886000	24.935523	0.000951	20.707938
888.250950	-2.994600	3.631100	-10.873000	24.943187	0.000951	20.695241
889.247141	-2.987900	3.632400	-10.852000	24.958313	0.000948	20.718012
890.247962	-3.015900	3.629300	-10.945000	24.966547	0.000950	20.704464
891.248740	-3.004000	3.631100	-10.907000	24.944540	0.000950	20.717464
892.248788	-3.027200	3.629700	-10.987000	24.951259	0.000949	20.733692
893.247977	-3.014600	3.629700	-10.940000	24.980597	0.000949	20.718093
894.249731	-3.008800	3.630800	-10.922000	24.976453	0.000948	20.706347
895.248369	-2.994100	3.629500	-10.866000	24.995086	0.000948	20.723628
896.248932	-2.999000	3.628400	-10.879000	25.009495	0.000947	20.717228
897.247586	-2.994500	3.628300	-10.864000	25.033855	0.000945	20.721292
898.246778	-3.001900	3.627900	-10.890000	25.034107	0.000947	20.710165
899.249846	-3.004700	3.629000	-10.903000	25.059436	0.000945	20.702873
900.252499	-3.024400	3.626900	-10.967000	25.056154	0.000947	20.714278
901.248212	-3.015300	3.626700	-10.934000	25.083414	0.000943	20.718408
902.252773	-3.006000	3.626900	-10.901000	25.088543	0.000943	20.715496
903.248192	-2.997000	3.626800	-10.868000	25.103479	0.000945	20.746613
904.249885	-2.995600	3.626800	-10.864000	25.094407	0.000945	20.701467
905.254660	-2.968500	3.626500	-10.764000	25.063047	0.000944	20.717403
906.249259	-2.986400	3.627900	-10.833000	25.028743	0.000945	20.713315
907.248472	-2.993000	3.626200	-10.852000	25.011713	0.000944	20.747905
908.249115	-2.988100	3.625600	-10.833000	25.001443	0.000944	20.736174
909.251368	-2.990700	3.625300	-10.840000	25.040919	0.000943	20.702303
910.249762	-3.013400	3.624500	-10.919000	25.057973	0.000942	20.711362
911.251968	-3.019800	3.624700	-10.944000	25.044446	0.000940	20.721966
912.250146	-3.024000	3.624100	-10.957000	25.045716	0.000939	20.707593
913.253979	-3.021300	3.623100	-10.946000	25.032980	0.000942	20.726578
914.248981	-3.007200	3.622900	-10.893000	25.026384	0.000941	20.724698
915.249961	-3.000400	3.623700	-10.871000	24.998668	0.000937	20.721059
916.254278	-2.996900	3.621900	-10.853000	24.991883	0.000940	20.705713
917.249153	-3.016500	3.623500	-10.929000	24.985214	0.000939	20.730789
918.250371	-2.998400	3.622300	-10.860000	24.967630	0.000940	20.734951
919.249123	-3.003000	3.623600	-10.880000	24.939098	0.000939	20.723855
920.248158	-3.014500	3.620500	-10.913000	24.973159	0.000936	20.732440
921.251205	-3.007700	3.622900	-10.894000	25.034316	0.000938	20.715116
922.249862	-3.015700	3.620700	-10.917000	25.055426	0.000938	20.721607
923.253434	-2.996900	3.621800	-10.853000	25.070436	0.000940	20.720553
924.251930	-3.010500	3.620000	-10.897000	25.031597	0.000938	20.738941
925.253742	-2.992300	3.620700	-10.832000	25.038267	0.000936	20.748955
926.251657	-2.995800	3.620900	-10.845000	25.011562	0.000935	20.724045
927.256042	-3.006300	3.619400	-10.879000	25.015219	0.000936	20.708274
928.253436	-2.977100	3.622500	-10.783000	25.013574	0.000935	20.738393
929.254959	-3.021000	3.618900	-10.932000	25.048529	0.000936	20.728435
930.252973	-2.989800	3.618900	-10.819000	25.052308	0.000934	20.744557
931.259525	-3.014200	3.618500	-10.905000	25.076285	0.000933	20.728323
932.256523	-2.998000	3.620300	-10.853000	25.107939	0.000935	20.727856
933.255587	-2.998700	3.617300	-10.846000	25.128820	0.000931	20.719893
934.259790	-3.055700	3.616900	-11.050000	25.146229	0.000931	20.739268
935.256481	-2.996700	3.616900	-10.838000	25.150000	0.000933	20.734045
936.256347	-3.008400	3.616300	-10.878000	25.127525	0.000931	20.722861
937.262239	-2.985500	3.617200	-10.798000	25.135107	0.000931	20.719566
938.262073	-3.007100	3.617800	-10.877000	25.119943	0.000931	20.750339
939.263910	-3.012100	3.615900	-10.891000	25.121434	0.000930	20.744248
940.258903	-3.049200	3.614800	-11.021000	25.114006	0.000932	20.723988
941.259125	-3.008100	3.615500	-10.875000	25.113852	0.000930	20.747069
942.261407	-2.979300	3.618200	-10.778000	25.123127	0.000930	20.730774
943.259913	-2.984000	3.617000	-10.792000	25.105056	0.000930	20.739187
944.259283	-2.994500	3.614300	-10.822000	25.067188	0.000930	20.742425
945.261177	-3.004400	3.614900	-10.859000	25.094193	0.000930	20.729703
946.261288	-3.032600	3.613100	-10.956000	25.084046	0.000928	20.759822
947.259141	-3.023100	3.614800	-10.926000	25.142321	0.000928	20.753363
948.262470	-2.980300	3.615800	-10.774000	25.172940	0.000928	20.739531
949.260594	-2.983500	3.613800	-10.781000	25.173763	0.000926	20.756478
950.260846	-3.003600	3.613100	-10.851000	25.196311	0.000927	20.741182
951.259767	-2.994500	3.613200	-10.818000	25.188680	0.000927	20.740160
952.260408	-2.994600	3.613500	-10.820000	25.185626	0.000925	20.746103
953.268391	-2.990000	3.613400	-10.803000	25.207964	0.000923	20.750511
954.263876	-3.002100	3.612500	-10.844000	25.227929	0.000924	20.726458
955.263891	-3.010200	3.611400	-10.869000	25.211399	0.000924	20.752537
956.264557	-2.994900	3.611000	-10.813000	25.230885	0.000923	20.749815
957.262931	-3.008000	3.610300	-10.858000	25.240380	0.000923	20.743700
958.264733	-3.009600	3.611200	-10.867000	25.253432	0.000924	20.749692
959.268030	-2.978400	3.612100	-10.757000	25.287263	0.000922	20.742882
960.268157	-3.001200	3.610000	-10.833000	25.262601	0.000921	20.738983
961.266204	-2.988900	3.611000	-10.793000	25.272501	0.000922	20.731853
962.264601	-3.013700	3.609500	-10.877000	25.255444	0.000923	20.738909
963.272873	-2.988600	3.610900	-10.790000	25.275384	0.000922	20.741860
964.270773	-3.009700	3.608400	-10.858000	25.280204	0.000922	20.746700
965.266274	-2.995600	3.610000	-10.813000	25.275628	0.000922	20.762021
966.267537	-2.992300	3.609200	-10.798000	25.275051	0.000920	20.750535
967.267293	-2.995700	3.610100	-10.812000	25.268870	0.000921	20.734371
968.267357	-3.005500	3.608000	-10.843000	25.273806	0.000919	20.731740
969.268465	-2.989600	3.607800	-10.784000	25.276989	0.000920	20.763387
970.267777	-3.003700	3.607900	-10.836000	25.246575	0.000919	20.737592
971.266672	-3.013500	3.607100	-10.869000	25.271158	0.000919	20.748523
972.266579	-2.983600	3.608500	-10.765000	25.273365	0.000918	20.744575
973.266891	-3.001500	3.606200	-10.823000	25.274645	0.000919	20.761982
974.266881	-2.981700	3.606300	-10.752000	25.257406	0.000917	20.768856
975.266282	-3.031800	3.604200	-10.926000	25.271493	0.000919	20.745066
976.267916	-2.995800	3.607000	-10.805000	25.261453	0.000917	20.746840
977.267949	-3.000500	3.603800	-10.813000	25.258994	0.000916	20.754329
978.267401	-3.008500	3.605700	-10.847000	25.275695	0.000917	20.766829
979.268299	-3.006200	3.605000	-10.836000	25.253645	0.000914	20.762709
980.268713	-3.031200	3.604300	-10.924000	25.286924	0.000914	20.730212
981.267917	-2.985500	3.603700	-10.758000	25.258231	0.000916	20.743605
982.268445	-3.013900	3.603100	-10.858000	25.266820	0.000916	20.744641
983.270920	-2.998400	3.603400	-10.803000	25.279815	0.000914	20.747732
984.270470	-2.993000	3.603800	-10.785000	25.293210	0.000914	20.760707
985.269344	-3.007400	3.602100	-10.832000	25.303543	0.000913	20.750219
986.269189	-3.005200	3.602400	-10.825000	25.293731	0.000913	20.750798
987.272008	-2.993700	3.603200	-10.785000	25.332878	0.000912	20.753594
988.269128	-2.988600	3.602800	-10.766000	25.328677	0.000911	20.774507
989.272110	-3.010400	3.603200	-10.845000	25.330534	0.000910	20.759776
990.273313	-2.998400	3.601300	-10.797000	25.287315	0.000911	20.771858
991.270317	-3.013600	3.601200	-10.852000	25.254925	0.000910	20.755459
992.269274	-2.977400	3.600300	-10.718000	25.287861	0.000910	20.766716
993.269530	-3.013500	3.600700	-10.850000	25.307101	0.000911	20.735298
994.270122	-2.996300	3.601500	-10.791000	25.310358	0.000911	20.742836
995.271792	-3.008900	3.597600	-10.823000	25.332252	0.000908	20.762449
996.271277	-3.019300	3.599000	-10.865000	25.351337	0.000908	20.766439
997.273844	-3.009500	3.599500	-10.831000	25.352250	0.000907	20.758346
998.271413	-3.030300	3.597400	-10.901000	25.369379	0.000909	20.785504
999.270451	-3.008200	3.598500	-10.824000	25.382878	0.000907	20.756383
1000.274984	-2.983900	3.598000	-10.735000	25.398314	0.000906	20.762874
1001.272322	-2.997100	3.598300	-10.783000	25.382927	0.000906	20.755958
1002.272757	-3.008000	3.597600	-10.820000	25.404753	0.000906	20.757012
1003.274388	-2.976900	3.599200	-10.713000	25.436887	0.000905	20.763201
1004.276191	-2.981100	3.598000	-10.723000	25.405649	0.000905	20.778300
1005.274453	-2.978900	3.597900	-10.716000	25.397873	0.000905	20.786614
1006.277341	-3.012600	3.594700	-10.829000	25.391238	0.000903	20.749604
1007.275425	-2.988600	3.597300	-10.749000	25.428811	0.000904	20.773109
1008.282503	-2.998700	3.596600	-10.783000	25.429584	0.000903	20.770092
1009.276150	-3.033500	3.594700	-10.904000	25.423746	0.000901	20.759488
1010.278099	-3.005800	3.594000	-10.802000	25.437814	0.000901	20.744216
1011.280916	-3.029200	3.594000	-10.885000	25.431749	0.000901	20.760412
1012.278745	-2.989800	3.595200	-10.748000	25.408790	0.000899	20.758694
1013.278984	-3.008800	3.594400	-10.813000	25.412308	0.000898	20.762228
1014.279117	-3.005900	3.593700	-10.801000	25.432424	0.000899	20.763461
1015.277930	-3.003500	3.595000	-10.796000	25.450783	0.000899	20.774310
1016.279716	-3.026600	3.592400	-10.871000	25.430039	0.000897	20.777187
1017.282653	-3.037300	3.589800	-10.902000	25.416296	0.000901	20.774767
1018.279075	-3.021900	3.591300	-10.850000	25.444001	0.000899	20.766077
1019.280610	-2.975500	3.593700	-10.691000	25.434631	0.000899	20.774686
1020.280197	-2.997600	3.593200	-10.771000	25.426709	0.000898	20.757247
1021.281531	-2.992400	3.591700	-10.745000	25.437073	0.000898	20.783302
1022.282048	-3.002500	3.593000	-10.787000	25.444701	0.000898	20.773892
1023.279325	-3.012100	3.591600	-10.817000	25.464582	0.000897	20.780106
1024.280871	-3.022500	3.589600	-10.848000	25.458622	0.000894	20.789294
1025.279742	-3.002700	3.590700	-10.779000	25.463889	0.000894	20.777039
1026.284510	-2.999400	3.589400	-10.764000	25.421791	0.000895	20.775543
1027.282829	-2.997000	3.590000	-10.757000	25.415530	0.000895	20.768308
1028.284747	-3.002800	3.590300	-10.780000	25.418706	0.000894	20.785248
1029.282075	-2.991000	3.589200	-10.734000	25.432928	0.000892	20.781985
1030.281594	-3.004900	3.589700	-10.786000	25.440378	0.000894	20.780457
1031.282109	-2.996900	3.587800	-10.752000	25.430983	0.000892	20.789989
1032.287921	-2.982600	3.589200	-10.704000	25.454592	0.000891	20.797101
1033.284858	-3.015400	3.587700	-10.817000	25.474123	0.000893	20.784471
1034.284079	-3.005700	3.585600	-10.776000	25.453648	0.000892	20.798998
1035.284369	-2.999800	3.587300	-10.759000	25.435925	0.000892	20.806332
1036.285143	-3.026200	3.586100	-10.851000	25.433523	0.000890	20.779263
1037.285528	-2.989100	3.587700	-10.723000	25.415107	0.000892	20.790168
1038.288730	-2.995100	3.588000	-10.744000	25.385554	0.000890	20.795107
1039.287348	-3.010300	3.584700	-10.790000	25.408146	0.000889	20.809257
1040.291089	-2.999600	3.586200	-10.756000	25.386173	0.000889	20.830815
1041.288147	-3.000300	3.586600	-10.760000	25.394477	0.000889	20.801221
1042.287363	-3.002200	3.584400	-10.760000	25.403253	0.000887	20.800551
1043.295334	-3.020800	3.584600	-10.827000	25.435037	0.000887	20.792637
1044.290471	-2.999000	3.586000	-10.753000	25.421644	0.000887	20.778241
1045.291139	-2.994200	3.584800	-10.732000	25.394558	0.000888	20.790397
1046.289725	-3.017200	3.585500	-10.816000	25.423337	0.000886	20.794165
1047.288211	-3.017500	3.583600	-10.813000	25.440882	0.000885	20.808464
1048.289024	-3.023100	3.582600	-10.828000	25.435411	0.000885	20.793962
1049.290005	-2.995800	3.582600	-10.731000	25.462529	0.000886	20.802700
1050.290741	-2.984700	3.582500	-10.692000	25.462259	0.000884	20.780145
1051.295664	-2.984100	3.581600	-10.686000	25.460990	0.000884	20.814905
1052.290165	-2.982100	3.583000	-10.682000	25.462903	0.000884	20.813981
1053.290317	-3.003200	3.581800	-10.756000	25.462675	0.000883	20.796210
1054.295575	-3.021500	3.580800	-10.819000	25.420756	0.000883	20.808169
1055.293042	-3.016000	3.580200	-10.797000	25.401004	0.000883	20.791180
1056.293846	-2.982000	3.580400	-10.676000	25.433057	0.000882	20.796340
1057.291329	-2.991000	3.580300	-10.707000	25.397104	0.000880	20.797221
1058.292278	-3.003100	3.578600	-10.746000	25.385593	0.000882	20.802258
1059.294049	-3.011100	3.580100	-10.780000	25.387922	0.000882	20.808864
1060.293971	-3.003700	3.579900	-10.752000	25.421585	0.000880	20.800467
1061.292478	-2.983900	3.580800	-10.683000	25.448248	0.000879	20.791679
1062.301374	-3.001400	3.579300	-10.742000	25.475375	0.000879	20.818920
1063.294381	-2.983200	3.578600	-10.673000	25.486438	0.000879	20.798261
1064.297221	-2.994300	3.577500	-10.711000	25.493675	0.000877	20.804105
1065.295438	-2.995900	3.578100	-10.718000	25.498372	0.000875	20.816883
1066.294618	-3.011600	3.577400	-10.773000	25.513082	0.000875	20.814112
1067.294186	-2.984900	3.578300	-10.680000	25.542201	0.000877	20.806371
1068.293685	-3.012700	3.577200	-10.776000	25.516460	0.000874	20.825565
1069.293146	-3.006300	3.576900	-10.752000	25.534182	0.000874	20.817283
1070.297519	-2.984500	3.576900	-10.675000	25.527149	0.000874	20.794099
1071.298688	-3.015100	3.576400	-10.780000	25.552711	0.000876	20.826408
1072.296124	-3.022200	3.575400	-10.804000	25.529006	0.000874	20.809714
1073.295979	-2.997400	3.575400	-10.715000	25.547223	0.000875	20.836544
1074.296128	-3.020400	3.574500	-10.796000	25.506668	0.000874	20.818575
1075.298000	-2.978200	3.575000	-10.646000	25.535021	0.000872	20.829505
1076.301555	-3.013100	3.575200	-10.772000	25.525172	0.000873	20.825305
1077.297801	-3.009800	3.574500	-10.757000	25.478086	0.000872	20.829228
1078.299686	-3.005300	3.573400	-10.739000	25.478191	0.000871	20.826488
1079.296356	-2.987800	3.574500	-10.678000	25.455219	0.000871	20.828076
1080.297341	-3.002500	3.573500	-10.728000	25.474291	0.000872	20.834426
1081.302385	-2.969100	3.574700	-10.613000	25.508955	0.000870	20.824191
1082.300827	-2.992700	3.572600	-10.691000	25.480625	0.000867	20.837467
1083.300223	-2.998000	3.571400	-10.706000	25.493594	0.000868	20.826783
1084.301281	-3.016700	3.571700	-10.773000	25.480643	0.000868	20.821364
1085.303638	-2.975800	3.572400	-10.629000	25.502019	0.000866	20.816753
1086.305005	-2.989100	3.571900	-10.676000	25.483084	0.000866	20.823816
1087.305793	-2.997100	3.570300	-10.700000	25.502044	0.000867	20.836217
1088.305434	-3.003600	3.570400	-10.723000	25.511935	0.000865	20.823865
1089.303839	-2.998000	3.571200	-10.706000	25.543821	0.000866	20.837868
1090.304206	-2.991600	3.570900	-10.681000	25.494937	0.000862	20.841408
1091.305493	-3.010000	3.568700	-10.740000	25.520507	0.000865	20.817300
1092.303961	-2.990200	3.569100	-10.672000	25.533108	0.000863	20.833274
1093.304485	-3.005200	3.570000	-10.726000	25.536658	0.000864	20.848218
1094.304628	-2.987800	3.568800	-10.661000	25.573663	0.000863	20.833225
1095.304540	-3.003400	3.567800	-10.715000	25.595080	0.000861	20.829604
1096.304398	-2.988000	3.568600	-10.661000	25.605676	0.000859	20.840720
1097.309813	-3.000700	3.567700	-10.705000	25.612181	0.000862	20.839192
1098.304966	-2.997800	3.567500	-10.694000	25.619882	0.000861	20.847874
1099.306476	-3.002600	3.567400	-10.709000	25.611425	0.000863	20.851709
1100.306674	-2.990900	3.568100	-10.670000	25.610765	0.000860	20.817856
1101.305707	-2.980200	3.568100	-10.632000	25.625376	0.000859	20.829210
1102.309886	-3.019000	3.567000	-10.768000	25.604480	0.000858	20.845208
1103.306246	-2.983700	3.567000	-10.642000	25.611929	0.000858	20.843680
1104.309365	-3.001900	3.565600	-10.703000	25.609079	0.000858	20.840344
1105.305321	-3.020300	3.565400	-10.767000	25.628575	0.000856	20.840484
1106.309686	-2.981400	3.566300	-10.630000	25.650030	0.000857	20.840221
1107.310877	-3.000700	3.564500	-10.695000	25.644543	0.000856	20.848461
1108.314588	-3.012800	3.562700	-10.732000	25.638252	0.000856	20.857789
1109.307281	-3.015100	3.564900	-10.747000	25.612108	0.000855	20.854765
1110.308022	-2.990500	3.564500	-10.658000	25.592017	0.000854	20.860665
1111.307954	-3.004900	3.562300	-10.703000	25.537470	0.000855	20.841921
1112.309971	-3.006400	3.561200	-10.705000	25.474893	0.000856	20.835504
1113.312658	-3.017800	3.562100	-10.749000	25.469552	0.000853	20.830141
1114.307379	-2.995300	3.561900	-10.668000	25.463022	0.000854	20.851558
1115.311280	-2.999500	3.561100	-10.680000	25.481112	0.000854	20.845542
1116.308434	-3.006600	3.562400	-10.709000	25.474973	0.000851	20.845068
1117.311079	-3.018900	3.561900	-10.752000	25.456541	0.000852	20.860697
1118.311927	-3.006200	3.560100	-10.701000	25.459619	0.000850	20.840555
1119.309177	-2.991000	3.560900	-10.649000	25.507186	0.000854	20.858449
1120.309071	-2.991500	3.561100	-10.651000	25.510816	0.000853	20.843129
1121.308418	-2.998900	3.559600	-10.674000	25.550151	0.000850	20.836165
1122.308103	-3.003300	3.560200	-10.691000	25.584162	0.000851	20.830018
1123.308859	-3.012300	3.558700	-10.719000	25.585708	0.000849	20.830148
1124.311248	-3.017600	3.559000	-10.739000	25.573782	0.000849	20.848991
1125.306814	-2.960900	3.562000	-10.546000	25.569152	0.000850	20.836755
1126.308836	-3.012400	3.558300	-10.717000	25.572187	0.000848	20.818941
1127.308693	-2.997400	3.560400	-10.671000	25.587890	0.000848	20.844668
1128.308189	-3.001700	3.557300	-10.675000	25.565570	0.000846	20.844063
1129.313734	-2.994700	3.558300	-10.654000	25.586019	0.000846	20.832357
1130.309202	-3.000300	3.557300	-10.672000	25.582445	0.000846	20.837777
1131.310590	-2.996300	3.558300	-10.661000	25.572506	0.000845	20.826373
1132.312274	-2.981300	3.557400	-10.605000	25.596626	0.000845	20.845854
1133.309007	-3.006000	3.555600	-10.687000	25.606687	0.000844	20.833674
1134.311635	-3.010400	3.556000	-10.704000	25.588030	0.000844	20.833428
1135.311086	-2.991600	3.554800	-10.634000	25.574778	0.000842	20.836716
1136.309052	-3.016500	3.554700	-10.720000	25.533605	0.000843	20.833773
1137.309559	-2.997100	3.554300	-10.652000	25.544740	0.000843	20.845429
1138.310348	-2.995300	3.555000	-10.648000	25.549682	0.000841	20.826685
1139.310639	-3.012800	3.554900	-10.710000	25.491730	0.000841	20.840084
1140.313473	-3.020000	3.552900	-10.728000	25.505398	0.000841	20.818249
1141.312096	-3.021400	3.553100	-10.734000	25.482808	0.000841	20.810736
1142.316008	-2.987400	3.553800	-10.614000	25.475375	0.000840	20.821290
1143.315911	-3.010500	3.553800	-10.698000	25.438944	0.000839	20.825484
1144.312652	-2.989600	3.553100	-10.621000	25.437422	0.000839	20.827275
1145.319631	-2.997100	3.552700	-10.646000	25.454250	0.000839	20.838008
1146.312254	-2.998100	3.551600	-10.647000	25.512693	0.000839	20.805661
1147.314058	-2.991600	3.552100	-10.625000	25.501043	0.000837	20.802022
1148.312259	-2.974300	3.552400	-10.564000	25.506807	0.000835	20.807336
1149.312441	-2.980500	3.552600	-10.587000	25.505895	0.000836	20.817325
1150.312272	-3.010900	3.549300	-10.684000	25.520157	0.000836	20.805096
1151.312360	-3.014300	3.550800	-10.702000	25.553679	0.000836	20.809363
1152.312210	-3.000400	3.551000	-10.654000	25.571596	0.000834	20.809338
1153.313185	-3.001100	3.550100	-10.653000	25.569309	0.000834	20.826007
1154.313611	-2.993700	3.549300	-10.624000	25.572264	0.000833	20.816647
1155.315237	-2.996700	3.549300	-10.635000	25.602749	0.000832	20.820236
1156.318514	-3.003700	3.549800	-10.661000	25.609089	0.000833	20.837983
1157.315740	-3.016500	3.548600	-10.704000	25.601486	0.000831	20.809486
1158.314796	-2.999400	3.549700	-10.646000	25.580965	0.000832	20.801204
1159.316006	-2.979700	3.548000	-10.571000	25.546377	0.000828	20.802978
1160.316925	-3.005100	3.548100	-10.660000	25.517153	0.000829	20.813932
1161.319175	-2.983300	3.548100	-10.584000	25.541372	0.000829	20.799848
1162.315921	-3.003100	3.547000	-10.651000	25.514687	0.000829	20.807663
1163.316995	-2.978400	3.548600	-10.569000	25.525033	0.000829	20.800983
1164.316200	-3.004600	3.545600	-10.653000	25.542729	0.000829	20.812117
1165.317466	-2.991200	3.545000	-10.601000	25.574135	0.000828	20.804302
1166.328430	-3.009100	3.546000	-10.669000	25.558628	0.000826	20.814807
1167.316844	-3.003600	3.545400	-10.647000	25.564367	0.000826	20.810613
1168.318513	-2.995700	3.545000	-10.619000	25.589495	0.000826	20.810719
1169.315571	-3.010100	3.544300	-10.668000	25.621144	0.000824	20.801253
1170.314269	-2.999100	3.544600	-10.630000	25.649169	0.000826	20.787201
1171.324652	-2.977000	3.545000	-10.552000	25.656576	0.000824	20.762871
1172.314677	-2.995800	3.544100	-10.616000	25.624001	0.000822	20.798907
1173.316211	-2.997600	3.545400	-10.627000	25.612426	0.000823	20.806722
1174.321883	-2.986800	3.542000	-10.578000	25.640808	0.000822	20.795873
1175.317523	-3.000200	3.543400	-10.629000	25.665105	0.000823	20.789930
1176.318341	-3.001500	3.542800	-10.633000	25.690500	0.000821	20.805479
1177.323161	-3.022000	3.541200	-10.701000	25.676883	0.000822	20.811716
1178.318927	-3.002900	3.542100	-10.636000	25.699039	0.000821	20.796512
1179.318991	-3.014500	3.540600	-10.672000	25.688888	0.000819	20.808127
1180.323962	-2.987700	3.541600	-10.579000	25.687667	0.000818	20.786038
1181.317558	-3.017000	3.540500	-10.681000	25.653946	0.000818	20.795792
1182.324190	-2.999600	3.540900	-10.619000	25.634020	0.000819	20.800909
1183.318529	-3.021400	3.540100	-10.695000	25.645326	0.000817	20.777177
1184.320979	-2.983100	3.541000	-10.562000	25.619791	0.000817	20.774764
1185.318727	-3.004900	3.538800	-10.632000	25.627442	0.000817	20.798096
1186.318493	-2.971600	3.538700	-10.514000	25.638325	0.000816	20.783422
1187.321574	-3.013000	3.538700	-10.660000	25.612807	0.000815	20.781026
1188.320392	-3.001200	3.538800	-10.621000	25.629950	0.000818	20.772639
1189.320241	-2.987700	3.539300	-10.573000	25.620336	0.000815	20.799494
1190.320095	-3.012600	3.539000	-10.660000	25.598147	0.000815	20.769622
1191.319769	-3.016100	3.536000	-10.664000	25.552106	0.000816	20.776014
1192.320717	-3.041100	3.534900	-10.749000	25.512225	0.000814	20.792863
1193.324046	-3.016200	3.536500	-10.665000	25.501789	0.000812	20.778589
1194.321947	-3.017600	3.535700	-10.669000	25.498264	0.000814	20.780739
1195.327901	-3.024800	3.536600	-10.696000	25.451942	0.000813	20.789224
1196.322517	-2.960600	3.537100	-10.471000	25.420452	0.000811	20.776095
1197.322483	-2.994200	3.535500	-10.585000	25.393568	0.000812	20.793671
1198.328024	-3.002100	3.534900	-10.611000	25.439022	0.000809	20.776724
1199.321530	-2.983500	3.536700	-10.551000	25.459903	0.000809	20.771614
1200.322774	-2.984600	3.535600	-10.551000	25.508365	0.000811	20.778080
1201.323366	-2.968200	3.535200	-10.492000	25.539820	0.000808	20.768418
1202.324222	-3.022000	3.533200	-10.676000	25.579203	0.000811	20.774778
1203.324437	-2.991000	3.535100	-10.573000	25.570565	0.000810	20.761836
1204.337926	-3.014200	3.532600	-10.647000	25.554390	0.000808	20.775463
1205.325294	-2.975100	3.534100	-10.512000	25.576157	0.000806	20.762236
1206.325346	-2.989900	3.532000	-10.560000	25.569467	0.000806	20.768793
1207.325936	-2.999700	3.533000	-10.597000	25.563298	0.000806	20.768287
1208.326593	-2.990200	3.532600	-10.562000	25.537736	0.000806	20.779127
1209.327697	-2.988700	3.532900	-10.557000	25.539348	0.000803	20.741390
1210.324328	-2.981900	3.531600	-10.528000	25.513803	0.000804	20.776903
1211.326773	-2.994700	3.530300	-10.571000	25.521260	0.000803	20.770641
1212.325366	-2.980300	3.530100	-10.519000	25.572992	0.000804	20.779920
1213.324788	-2.992200	3.530300	-10.563000	25.613325	0.000802	20.746458
1214.325661	-3.003000	3.529700	-10.599000	25.622019	0.000802	20.770838
1215.328071	-3.013000	3.528400	-10.630000	25.644036	0.000801	20.770666
1216.329329	-3.000600	3.528700	-10.586000	25.621400	0.000802	20.774009
1217.327571	-3.004100	3.528300	-10.599000	25.622792	0.000799	20.771140
1218.328046	-3.014600	3.528700	-10.636000	25.617109	0.000801	20.757846
1219.332988	-3.008000	3.528400	-10.612000	25.658769	0.000799	20.762703
1220.329945	-3.012000	3.528800	-10.627000	25.681576	0.000799	20.761428
1221.332875	-3.011800	3.527700	-10.623000	25.708712	0.000797	20.755018
1222.330343	-2.994700	3.527300	-10.562000	25.740242	0.000797	20.768671
1223.333077	-3.004000	3.526800	-10.594000	25.722548	0.000796	20.764175
1224.331783	-2.987900	3.527900	-10.539000	25.681104	0.000795	20.761428
1225.333077	-3.004900	3.525000	-10.591000	25.698546	0.000796	20.743859
1226.332239	-3.016900	3.524700	-10.633000	25.700882	0.000794	20.769914
1227.329470	-2.992600	3.524700	-10.547000	25.718398	0.000793	20.782291
1228.333181	-2.985500	3.525500	-10.524000	25.756903	0.000793	20.754112
1229.332377	-2.999000	3.524300	-10.568000	25.765726	0.000793	20.755861
1230.336562	-2.977000	3.524800	-10.493000	25.747592	0.000795	20.754716
1231.334621	-2.985800	3.524900	-10.524000	25.769974	0.000793	20.769137
1232.342678	-2.997600	3.524900	-10.565000	25.731266	0.000791	20.752542
1233.337886	-3.011100	3.522400	-10.605000	25.735221	0.000792	20.749876
1234.335632	-3.015300	3.522100	-10.618000	25.686825	0.000792	20.757217
1235.339122	-2.997500	3.523800	-10.562000	25.662521	0.000792	20.739918
1236.335733	-2.989600	3.523200	-10.531000	25.646299	0.000791	20.759187
1237.337183	-3.009600	3.521500	-10.597000	25.609198	0.000789	20.744684
1238.338345	-2.983800	3.521500	-10.506000	25.653307	0.000787	20.764803
1239.337966	-2.992400	3.521700	-10.537000	25.647089	0.000787	20.763300
1240.339519	-3.004300	3.521000	-10.577000	25.671019	0.000788	20.737547
1241.341463	-2.992200	3.521800	-10.538000	25.683178	0.000787	20.751657
1242.339139	-3.001900	3.520500	-10.567000	25.664361	0.000786	20.742240
1243.339423	-3.006900	3.519300	-10.581000	25.714237	0.000787	20.769577
1244.339858	-3.001900	3.520000	-10.566000	25.720129	0.000785	20.747519
1245.339040	-3.016100	3.518900	-10.612000	25.732525	0.000785	20.756652
1246.353503	-2.987100	3.519200	-10.511000	25.731913	0.000785	20.758408
1247.338839	-2.994800	3.518500	-10.536000	25.774496	0.000785	20.762300
1248.341115	-3.010900	3.517700	-10.590000	25.779419	0.000784	20.746856
1249.341136	-3.000200	3.518200	-10.554000	25.785083	0.000784	20.746856
1250.340085	-3.011700	3.516500	-10.590000	25.774234	0.000782	20.756346
1251.340729	-2.996500	3.518300	-10.541000	25.765664	0.000784	20.722132
1252.340095	-3.004300	3.516900	-10.565000	25.725116	0.000783	20.736407
1253.340037	-2.997700	3.517800	-10.544000	25.689620	0.000780	20.736316
1254.340150	-3.021900	3.516600	-10.625000	25.631578	0.000780	20.738711
1255.340562	-2.979500	3.515600	-10.472000	25.608721	0.000779	20.719547
1256.339075	-2.998500	3.515100	-10.539000	25.594337	0.000780	20.744932
1257.342146	-2.986200	3.515900	-10.497000	25.634368	0.000779	20.732505
1258.341915	-3.002400	3.515600	-10.554000	25.651843	0.000779	20.726348
1259.343006	-2.979500	3.515700	-10.475000	25.699149	0.000778	20.743991
1260.342374	-3.004500	3.514900	-10.559000	25.713889	0.000776	20.726077
1261.345747	-2.996100	3.513200	-10.525000	25.737663	0.000776	20.738104
1262.344460	-3.029600	3.512900	-10.640000	25.696821	0.000776	20.716046
1263.343484	-3.005300	3.513000	-10.556000	25.706563	0.000775	20.750963
1264.343858	-2.998500	3.512900	-10.532000	25.716746	0.000777	20.731318
1265.344382	-3.010200	3.511800	-10.571000	25.723061	0.000776	20.731023
1266.342660	-2.985600	3.512800	-10.486000	25.728156	0.000774	20.732821
1267.345589	-2.980500	3.512300	-10.468000	25.712969	0.000774	20.740801
1268.342551	-2.985500	3.511700	-10.483000	25.726942	0.000772	20.726861
1269.352392	-3.020300	3.509700	-10.599000	25.726593	0.000773	20.729355
1270.345643	-2.985200	3.511700	-10.482000	25.691660	0.000771	20.722242
1271.345447	-3.005300	3.510000	-10.548000	25.693223	0.000771	20.734718
1272.347621	-2.996300	3.509900	-10.515000	25.708556	0.000771	20.715031
1273.347302	-2.969900	3.510700	-10.424000	25.727512	0.000771	20.711311
1274.344334	-2.983400	3.509000	-10.467000	25.767588	0.000769	20.724539
1275.344121	-2.996200	3.507000	-10.506000	25.770095	0.000768	20.714729
1276.344450	-2.980500	3.509700	-10.460000	25.768043	0.000769	20.723573
1277.345789	-2.973200	3.509600	-10.433000	25.745255	0.000770	20.717753
1278.345109	-2.994800	3.507500	-10.502000	25.755070	0.000770	20.730932
1279.344635	-3.009500	3.506900	-10.553000	25.708661	0.000768	20.734104
1280.348289	-2.985200	3.506000	-10.464000	25.717631	0.000768	20.725094
1281.345586	-2.980700	3.507400	-10.453000	25.707847	0.000767	20.718112
1282.348120	-3.008200	3.507200	-10.549000	25.741216	0.000765	20.711800
1283.349711	-3.005100	3.507500	-10.539000	25.712616	0.000765	20.738551
1284.345075	-2.992900	3.505600	-10.491000	25.736097	0.000766	20.723254
1285.346544	-2.988700	3.504500	-10.473000	25.754882	0.000765	20.726475
1286.346594	-3.006100	3.506300	-10.538000	25.763312	0.000765	20.720244
1287.344751	-3.018000	3.502900	-10.571000	25.751707	0.000763	20.714750
1288.346066	-3.001800	3.502900	-10.514000	25.695465	0.000764	20.721323
1289.350273	-2.970700	3.504200	-10.408000	25.672627	0.000762	20.717824
1290.350951	-3.014900	3.502500	-10.559000	25.647141	0.000761	20.722099
1291.346658	-3.013100	3.501500	-10.549000	25.636748	0.000761	20.712134
1292.346097	-3.023900	3.501500	-10.586000	25.602235	0.000761	20.716352
1293.346422	-2.999400	3.502200	-10.503000	25.619735	0.000762	20.708323
1294.351948	-2.986000	3.500700	-10.451000	25.643015	0.000759	20.727912
1295.350826	-2.992200	3.501200	-10.475000	25.675775	0.000761	20.710554
1296.348418	-2.987700	3.500500	-10.457000	25.702431	0.000762	20.714094
1297.348919	-3.000000	3.500900	-10.502000	25.733042	0.000758	20.720185
1298.348835	-2.992800	3.501100	-10.477000	25.726580	0.000758	20.690458
1299.348277	-2.993700	3.499500	-10.475000	25.741417	0.000759	20.702517
1300.348152	-3.015000	3.498500	-10.547000	25.719824	0.000757	20.708330
1301.350614	-2.989700	3.499600	-10.462000	25.710960	0.000758	20.702271
1302.347920	-3.007800	3.496900	-10.516000	25.731276	0.000756	20.692331
1303.348330	-3.006900	3.497500	-10.516000	25.739658	0.000754	20.709286
1304.348678	-3.005600	3.497100	-10.510000	25.779530	0.000757	20.692910
1305.350370	-2.980600	3.499400	-10.430000	25.811702	0.000755	20.689665
1306.350118	-2.990400	3.496200	-10.454000	25.794838	0.000753	20.704021
1307.351591	-2.987500	3.496500	-10.445000	25.834212	0.000754	20.705166
1308.348510	-3.001300	3.494800	-10.488000	25.828278	0.000753	20.706792
1309.349019	-2.990600	3.497600	-10.459000	25.811009	0.000753	20.701773
1310.355048	-3.011100	3.496200	-10.526000	25.784104	0.000751	20.702721
1311.349774	-3.011300	3.494000	-10.520000	25.787856	0.000750	20.694161
1312.349071	-3.007100	3.493600	-10.505000	25.770715	0.000752	20.693539
1313.349564	-2.993800	3.495200	-10.463000	25.769666	0.000750	20.709082
1314.350887	-2.993400	3.495200	-10.462000	25.760233	0.000752	20.691544
1315.351283	-2.995800	3.495100	-10.470000	25.753991	0.000750	20.705190
1316.353999	-3.030900	3.493700	-10.588000	25.761323	0.000749	20.695485
1317.350278	-2.982000	3.495100	-10.421000	25.774932	0.000749	20.686869
1318.350788	-2.983700	3.494300	-10.425000	25.749823	0.000748	20.694839
1319.349232	-2.989100	3.493500	-10.441000	25.765393	0.000748	20.686296
1320.353486	-3.012100	3.491400	-10.516000	25.767883	0.000747	20.704920
1321.354140	-2.985100	3.492900	-10.425000	25.771131	0.000746	20.701544
1322.350896	-2.998000	3.492200	-10.469000	25.769642	0.000746	20.700996
1323.358739	-2.984000	3.492600	-10.421000	25.758215	0.000749	20.686198
1324.352829	-3.012900	3.489800	-10.514000	25.756676	0.000745	20.688920
1325.352321	-3.015200	3.489700	-10.521000	25.758613	0.000745	20.707463
1326.355013	-3.009000	3.489800	-10.499000	25.802457	0.000744	20.686068
1327.352829	-3.006400	3.490500	-10.493000	25.771831	0.000745	20.685176
1328.359338	-3.007900	3.488700	-10.492000	25.786415	0.000744	20.690817
1329.353084	-2.987200	3.489800	-10.422000	25.776551	0.000741	20.713153
1330.354693	-2.993600	3.489800	-10.445000	25.778236	0.000743	20.699198
1331.356721	-2.992600	3.488200	-10.438000	25.800202	0.000742	20.706089
1332.356829	-3.019000	3.486500	-10.525000	25.770463	0.000743	20.684751
1333.355801	-2.996500	3.488500	-10.451000	25.772799	0.000742	20.707962
1334.360299	-2.994400	3.487700	-10.443000	25.765271	0.000740	20.707512
1335.357845	-3.014600	3.485300	-10.506000	25.793422	0.000740	20.707340
1336.357314	-3.007400	3.485600	-10.481000	25.817716	0.000740	20.725580
1337.360906	-2.977200	3.486200	-10.378000	25.825121	0.000737	20.675643
1338.357990	-2.982300	3.486400	-10.397000	25.833096	0.000738	20.691716
1339.358562	-2.989100	3.484600	-10.415000	25.804450	0.000738	20.719841
1340.357687	-2.969000	3.485800	-10.348000	25.813817	0.000737	20.700325
1341.357689	-2.987700	3.483200	-10.406000	25.748375	0.000737	20.706662
1342.361372	-3.003300	3.483400	-10.461000	25.705767	0.000738	20.708910
1343.360290	-2.998700	3.482800	-10.443000	25.673023	0.000736	20.713006
1344.359445	-3.004800	3.482000	-10.461000	25.641270	0.000736	20.702451
1345.360259	-3.019500	3.482800	-10.515000	25.631447	0.000737	20.696377
1346.360939	-2.990800	3.484100	-10.419000	25.642858	0.000734	20.693139
1347.362161	-3.012700	3.481600	-10.489000	25.643054	0.000735	20.677213
1348.359512	-3.000100	3.481500	-10.444000	25.665494	0.000735	20.682682
1349.359170	-3.023000	3.481200	-10.523000	25.668652	0.000734	20.700554
1350.359986	-2.999700	3.480900	-10.440000	25.687007	0.000734	20.670623
1351.360698	-3.007700	3.479600	-10.465000	25.711709	0.000730	20.689746
1352.361404	-2.994400	3.480000	-10.420000	25.745208	0.000733	20.686883
1353.361738	-3.006100	3.479900	-10.459000	25.787065	0.000730	20.708067
1354.362602	-3.021800	3.478100	-10.509000	25.803618	0.000732	20.697193
1355.363605	-3.001000	3.478000	-10.436000	25.834104	0.000731	20.688461
1356.362433	-2.984900	3.478900	-10.384000	25.809657	0.000730	20.688559
1357.362763	-3.008900	3.477800	-10.463000	25.768419	0.000729	20.703561
1358.368452	-2.970100	3.478300	-10.330000	25.788741	0.000730	20.688886
1359.365104	-2.993600	3.477800	-10.410000	25.761761	0.000729	20.690234
1360.370315	-2.999100	3.477400	-10.427000	25.763258	0.000728	20.690790
1361.364239	-3.009700	3.477100	-10.464000	25.796129	0.000728	20.708637
1362.363945	-2.998500	3.475900	-10.421000	25.804406	0.000727	20.688026
1363.366198	-3.012700	3.474400	-10.466000	25.776384	0.000729	20.710615
1364.370687	-3.013600	3.475400	-10.471000	25.778923	0.000727	20.693249
1365.365328	-2.998400	3.475200	-10.419000	25.795021	0.000726	20.705627
1366.367281	-3.022000	3.473200	-10.494000	25.789381	0.000726	20.704229
1367.365903	-3.013500	3.473500	-10.467000	25.823025	0.000724	20.698669
1368.365474	-3.011000	3.474400	-10.461000	25.839577	0.000725	20.697753
1369.368017	-3.026200	3.472300	-10.507000	25.797770	0.000725	20.707914
1370.365839	-3.017600	3.471300	-10.473000	25.847633	0.000723	20.697310
1371.368116	-3.015800	3.472200	-10.471000	25.842570	0.000723	20.702182
1372.366098	-3.003300	3.471800	-10.425000	25.840088	0.000719	20.698740
1373.367373	-3.002900	3.473100	-10.427000	25.848731	0.000723	20.694620
1374.366161	-3.024600	3.470000	-10.495000	25.846997	0.000721	20.699516
1375.363790	-3.010000	3.470100	-10.444000	25.841455	0.000722	20.719081
1376.366403	-2.978400	3.471700	-10.338000	25.870335	0.000721	20.700202
1377.365802	-2.973600	3.470100	-10.318000	25.894162	0.000720	20.711811
1378.366541	-3.016300	3.467600	-10.459000	25.918779	0.000720	20.699082
1379.366749	-3.002900	3.469200	-10.416000	25.935770	0.000720	20.696236
1380.369479	-2.992800	3.468400	-10.379000	25.953013	0.000719	20.699335
1381.367105	-3.006700	3.466700	-10.421000	25.940008	0.000718	20.684372
1382.367707	-3.012500	3.467000	-10.443000	25.912308	0.000719	20.695900
1383.367207	-2.994100	3.467100	-10.380000	25.894453	0.000716	20.689816
1384.367239	-2.990900	3.468800	-10.372000	25.874752	0.000717	20.693258
1385.371959	-3.001200	3.466500	-10.403000	25.887748	0.000717	20.710582
1386.370377	-2.984100	3.466900	-10.345000	25.876518	0.000717	20.716845
1387.373829	-3.036100	3.465200	-10.519000	25.889416	0.000713	20.717474
1388.369479	-3.010600	3.465700	-10.432000	25.877046	0.000715	20.709315
1389.368909	-3.008600	3.464900	-10.424000	25.905739	0.000713	20.707320
1390.375131	-2.994900	3.466800	-10.382000	25.900433	0.000713	20.718110
1391.371054	-2.980800	3.465800	-10.331000	25.916025	0.000715	20.707221
1392.373745	-2.995800	3.465000	-10.379000	25.912127	0.000715	20.708047
1393.372129	-2.999100	3.464000	-10.387000	25.910246	0.000712	20.708528
1394.374127	-2.986200	3.464000	-10.343000	25.916211	0.000712	20.722582
1395.373948	-3.022200	3.461500	-10.460000	25.898919	0.000713	20.717064
1396.372793	-2.973900	3.464300	-10.301000	25.888119	0.000712	20.705266
1397.372141	-3.008900	3.462600	-10.417000	25.881966	0.000710	20.720896
1398.375153	-3.003700	3.462600	-10.399000	25.887452	0.000709	20.722140
1399.372009	-2.989800	3.461300	-10.348000	25.888176	0.000708	20.701054
1400.372582	-2.968100	3.462400	-10.275000	25.911701	0.000709	20.713784
1401.378500	-2.974800	3.460700	-10.294000	25.917470	0.000709	20.725744
1402.374620	-3.005100	3.460300	-10.398000	25.888305	0.000708	20.714462
1403.373586	-2.979500	3.461100	-10.311000	25.875838	0.000709	20.728017
1404.373077	-3.005000	3.460100	-10.396000	25.912702	0.000707	20.738024
1405.372881	-2.998800	3.458700	-10.372000	25.910366	0.000707	20.724771
1406.374171	-3.017900	3.458300	-10.436000	25.895221	0.000707	20.713349
1407.373062	-3.006700	3.457700	-10.396000	25.911790	0.000706	20.722882
1408.373787	-2.992000	3.458300	-10.346000	25.891137	0.000705	20.703555
1409.375271	-3.013600	3.458500	-10.420000	25.893253	0.000705	20.711845
1410.373894	-3.007900	3.457700	-10.399000	25.891568	0.000704	20.733862
1411.375240	-3.004500	3.456500	-10.382000	25.882323	0.000704	20.730265
1412.374973	-3.026200	3.455900	-10.457000	25.860049	0.000703	20.729225
1413.380410	-3.013800	3.455400	-10.413000	25.875894	0.000704	20.709580
1414.374232	-2.999700	3.456300	-10.367000	25.887572	0.000702	20.740753
1415.379410	-3.013600	3.455600	-10.412000	25.898249	0.000702	20.717339
1416.381158	-2.985700	3.456400	-10.318000	25.905507	0.000702	20.710405
1417.374786	-2.988400	3.455300	-10.325000	25.931018	0.000700	20.702843
1418.374842	-2.985800	3.453800	-10.311000	25.941230	0.000699	20.711206
1419.375165	-3.014400	3.453200	-10.408000	25.977816	0.000699	20.705762
1420.374321	-2.990200	3.454100	-10.327000	26.005612	0.000698	20.724680
1421.376838	-2.992200	3.453000	-10.331000	26.010404	0.000699	20.723805
1422.377326	-3.014100	3.451800	-10.403000	26.023724	0.000697	20.731024
1423.374490	-2.978900	3.454100	-10.288000	25.975610	0.000698	20.724410
1424.375282	-3.004100	3.452400	-10.371000	25.980679	0.000698	20.713381
1425.375637	-3.000200	3.451300	-10.353000	26.013023	0.000697	20.706047
1426.373939	-3.013700	3.451400	-10.400000	26.012820	0.000697	20.719120
1427.379547	-3.032200	3.450300	-10.460000	26.014618	0.000698	20.723297
1428.375449	-3.005600	3.451100	-10.372000	26.004805	0.000695	20.750897
1429.378150	-2.992600	3.450600	-10.325000	25.997180	0.000695	20.729012
1430.378352	-3.003900	3.449100	-10.358000	25.983347	0.000694	20.724122
1431.382378	-2.991800	3.450300	-10.322000	26.002176	0.000696	20.741144
1432.381096	-2.995900	3.449800	-10.335000	25.986235	0.000693	20.731292
1433.381099	-3.018700	3.448000	-10.407000	25.991979	0.000694	20.715725
1434.378893	-2.990500	3.448000	-10.310000	25.955411	0.000694	20.721661
1435.380920	-2.999800	3.447700	-10.342000	25.959772	0.000692	20.735051
1436.380601	-3.031500	3.445400	-10.444000	25.942228	0.000692	20.731176
1437.381202	-3.016100	3.446300	-10.393000	25.945693	0.000692	20.734658
1438.387444	-3.000900	3.446500	-10.341000	25.954986	0.000692	20.740675
1439.386526	-2.976700	3.446300	-10.258000	26.007820	0.000691	20.735434
1440.384018	-3.017000	3.445300	-10.393000	26.006282	0.000690	20.742424
1441.382763	-2.992200	3.445200	-10.308000	26.005321	0.000690	20.735294
1442.383146	-3.009400	3.443800	-10.363000	26.018528	0.000690	20.731019
1443.390409	-3.000600	3.444700	-10.335000	26.021171	0.000692	20.732727
1444.382369	-3.029600	3.443500	-10.431000	26.006565	0.000689	20.732277
1445.386246	-2.995400	3.445200	-10.319000	26.035427	0.000688	20.733773
1446.384755	-2.999000	3.443300	-10.325000	26.024629	0.000687	20.742365
1447.383895	-3.007300	3.442400	-10.352000	26.073285	0.000687	20.724869
1448.385747	-3.016100	3.441800	-10.380000	26.050812	0.000687	20.725523
1449.389071	-3.000900	3.442500	-10.330000	26.044212	0.000687	20.705140
1450.384559	-3.019300	3.440100	-10.385000	26.048980	0.000689	20.733641
1451.384590	-2.982200	3.441400	-10.262000	26.034921	0.000687	20.745119
1452.386162	-2.996900	3.440600	-10.310000	26.052267	0.000686	20.744055
1453.387309	-3.012800	3.440200	-10.364000	26.060957	0.000686	20.745200
1454.392594	-3.018900	3.439200	-10.381000	26.068882	0.000685	20.740834
1455.388355	-3.005600	3.439000	-10.335000	26.057076	0.000683	20.750785
1456.391633	-2.987000	3.440100	-10.274000	26.045636	0.000683	20.753514
1457.388180	-2.962700	3.441000	-10.194000	26.038784	0.000680	20.744259
1458.389322	-2.992600	3.439500	-10.292000	26.036156	0.000681	20.734506
1459.388085	-2.977500	3.439500	-10.239000	26.056766	0.000681	20.735299
1460.389641	-2.988900	3.438200	-10.275000	26.054886	0.000681	20.754274
1461.389766	-2.997500	3.439600	-10.309000	26.058840	0.000681	20.737383
1462.389967	-3.008500	3.437000	-10.338000	26.035072	0.000681	20.747168
1463.390066	-3.005200	3.435700	-10.324000	25.984022	0.000680	20.744716
1464.391817	-2.997700	3.437800	-10.305000	25.989774	0.000679	20.767091
1465.392257	-3.006000	3.437000	-10.331000	25.971815	0.000680	20.737668
1466.391112	-3.007400	3.435800	-10.332000	25.994941	0.000678	20.762325
1467.391246	-3.000700	3.434600	-10.304000	25.973777	0.000678	20.757657
1468.392491	-2.995300	3.435900	-10.290000	25.998741	0.000678	20.751918
1469.391692	-3.014500	3.433200	-10.349000	25.971082	0.000678	20.739776
1470.397597	-2.989400	3.435400	-10.269000	25.964369	0.000677	20.731609
1471.392618	-2.978300	3.434500	-10.228000	25.959210	0.000676	20.738280
1472.394572	-3.001100	3.433600	-10.303000	25.970617	0.000675	20.752586
1473.392765	-3.005000	3.432300	-10.313000	25.965108	0.000675	20.734722
1474.393367	-3.007200	3.432000	-10.319000	25.965653	0.000675	20.741434
1475.394502	-2.993700	3.431800	-10.272000	25.972928	0.000676	20.735941
1476.397737	-2.991000	3.431700	-10.262000	25.947800	0.000674	20.744835
1477.396393	-3.013700	3.430600	-10.338000	25.953089	0.000674	20.757736
1478.392991	-3.000200	3.430700	-10.293000	25.937147	0.000674	20.739349
1479.392476	-3.004700	3.430300	-10.306000	25.976027	0.000673	20.757072
1480.398014	-2.992200	3.430700	-10.263000	26.000023	0.000670	20.750835
1481.395563	-2.984200	3.431000	-10.238000	26.036264	0.000671	20.754530
1482.395370	-3.020000	3.429400	-10.356000	25.986238	0.000670	20.742201
1483.393112	-2.999500	3.429800	-10.287000	25.971486	0.000672	20.753459
1484.393312	-2.989500	3.428800	-10.249000	25.921839	0.000672	20.777550
1485.393957	-2.993800	3.429600	-10.267000	25.893048	0.000671	20.740565
1486.395992	-3.003200	3.427800	-10.293000	25.860977	0.000669	20.761453
1487.395010	-2.998700	3.426500	-10.273000	25.862604	0.000667	20.772096
1488.394159	-2.984500	3.426900	-10.227000	25.893374	0.000669	20.773610
1489.394823	-3.003800	3.426100	-10.290000	25.892266	0.000669	20.744995
1490.393594	-3.013100	3.426100	-10.321000	25.926476	0.000667	20.756129
1491.399845	-2.998000	3.426000	-10.270000	25.914457	0.000667	20.759702
1492.397133	-2.996500	3.427200	-10.269000	25.918981	0.000666	20.775627
1493.397697	-2.993100	3.425600	-10.252000	25.930731	0.000667	20.767991
1494.398469	-3.009300	3.425000	-10.306000	25.917443	0.000665	20.755115
1495.398472	-2.996100	3.424800	-10.260000	25.912006	0.000666	20.762456
1496.402574	-3.001500	3.426400	-10.282000	25.920404	0.000664	20.760935
1497.397870	-3.011400	3.424100	-10.310000	25.938818	0.000665	20.767581
1498.401689	-3.002000	3.423900	-10.277000	25.920209	0.000663	20.757420
1499.403978	-3.005000	3.423400	-10.286000	25.926408	0.000663	20.756535
1500.400742	-2.995900	3.423300	-10.255000	25.935767	0.000663	20.763567
1501.403878	-2.980700	3.423300	-10.203000	25.947549	0.000662	20.774455
1502.400535	-3.021400	3.421000	-10.336000	25.969804	0.000662	20.775003
1503.402282	-3.001200	3.423000	-10.272000	25.991514	0.000661	20.753666
1504.401177	-3.034600	3.420300	-10.379000	26.027186	0.000662	20.772436
1505.405676	-3.001000	3.421400	-10.266000	26.063360	0.000662	20.791712
1506.401686	-3.013500	3.420400	-10.307000	26.088461	0.000661	20.776156
1507.410022	-3.001100	3.421300	-10.267000	26.114220	0.000660	20.785916
1508.402448	-3.010900	3.419300	-10.294000	26.103447	0.000658	20.795955
1509.400733	-3.024300	3.418800	-10.337000	26.070519	0.000658	20.788948
1510.408782	-3.016100	3.418000	-10.308000	26.072480	0.000657	20.771478
1511.402950	-2.981500	3.418100	-10.190000	26.099435	0.000658	20.767267
1512.407227	-2.998500	3.417600	-10.246000	26.098939	0.000658	20.778148
1513.405146	-2.985300	3.418600	-10.205000	26.103186	0.000657	20.764398
1514.409198	-3.002100	3.418400	-10.261000	26.088435	0.000657	20.794147
1515.407479	-2.981700	3.418800	-10.193000	26.122345	0.000657	20.784598
1516.407182	-3.019000	3.416300	-10.312000	26.075620	0.000655	20.785064
1517.409227	-2.990900	3.416600	-10.218000	26.108734	0.000656	20.774714
1518.408339	-2.995200	3.416200	-10.232000	26.104169	0.000654	20.791464
1519.406592	-3.007000	3.415500	-10.269000	26.123712	0.000654	20.794506
1520.405512	-2.983800	3.416900	-10.194000	26.158477	0.000653	20.773488
1521.405334	-2.982400	3.414700	-10.183000	26.133402	0.000654	20.774370
1522.408410	-2.992400	3.415500	-10.220000	26.138893	0.000653	20.796958
1523.417393	-3.007800	3.414000	-10.267000	26.083112	0.000652	20.798756
1524.406186	-2.998500	3.412700	-10.232000	26.085553	0.000653	20.806424
1525.409203	-2.999300	3.412600	-10.234000	26.054130	0.000651	20.797137
1526.406844	-3.009600	3.412600	-10.270000	26.026213	0.000650	20.813185
1527.406048	-3.007000	3.413100	-10.261000	25.982575	0.000649	20.805851
1528.408779	-2.994500	3.412500	-10.218000	25.997051	0.000650	20.809964
1529.408654	-3.027600	3.412000	-10.329000	25.985228	0.000649	20.775326
1530.406455	-3.014300	3.411100	-10.281000	25.978596	0.000649	20.800906
1531.405199	-3.004400	3.410700	-10.247000	25.989703	0.000647	20.790254
1532.405415	-3.002400	3.412800	-10.246000	26.001575	0.000649	20.813561
1533.405939	-3.013800	3.409300	-10.273000	26.028549	0.000647	20.791823
1534.406824	-2.979600	3.412000	-10.165000	26.004187	0.000647	20.787735
1535.409309	-2.993300	3.410800	-10.208000	26.005928	0.000647	20.807503
1536.404846	-2.996300	3.409700	-10.216000	25.950237	0.000646	20.808925
1537.406618	-2.990200	3.410600	-10.197000	25.951678	0.000647	20.816536
1538.406764	-3.009400	3.408300	-10.256000	25.930992	0.000646	20.802867
1539.413258	-2.992800	3.408300	-10.198000	25.959936	0.000646	20.794961
1540.407175	-2.996800	3.407900	-10.213000	25.973892	0.000643	20.792860
1541.407546	-2.996200	3.407900	-10.210000	25.986456	0.000644	20.802638
1542.409106	-3.007000	3.407900	-10.247000	26.016024	0.000644	20.796784
1543.408021	-2.995900	3.406200	-10.203000	26.025781	0.000642	20.812750
1544.409425	-2.997200	3.406500	-10.209000	26.035447	0.000643	20.784055
1545.408516	-3.004300	3.406900	-10.235000	26.012315	0.000641	20.810126
1546.408784	-2.988900	3.405700	-10.177000	26.028938	0.000642	20.817344
1547.407837	-3.004300	3.405600	-10.231000	26.060483	0.000641	20.805417
1548.410212	-3.007500	3.404800	-10.239000	26.062647	0.000641	20.820393
1549.408349	-3.002500	3.404500	-10.221000	26.087780	0.000641	20.820042
1550.411258	-3.005300	3.402700	-10.225000	26.102783	0.000638	20.813306
1551.409464	-2.993500	3.403000	-10.185000	26.135921	0.000639	20.821472
1552.412458	-3.008500	3.403500	-10.238000	26.174908	0.000639	20.807542
1553.410706	-3.000400	3.403400	-10.210000	26.189787	0.000639	20.826761
1554.410503	-3.023000	3.401400	-10.281000	26.204618	0.000637	20.809896
1555.415558	-2.971100	3.402600	-10.108000	26.211590	0.000638	20.817851
1556.412169	-3.010100	3.400800	-10.236000	26.211119	0.000636	20.812161
1557.414894	-3.012400	3.401000	-10.244000	26.188819	0.000635	20.834797
1558.413646	-2.965200	3.403400	-10.091000	26.200193	0.000636	20.830579
1559.414509	-3.005600	3.402000	-10.224000	26.179529	0.000636	20.819772
1560.414987	-3.004700	3.401000	-10.218000	26.200860	0.000635	20.815129
1561.416652	-3.012100	3.398800	-10.236000	26.197190	0.000634	20.820924
1562.417186	-2.984600	3.399900	-10.146000	26.183898	0.000635	20.818946
1563.413718	-2.994900	3.400700	-10.184000	26.168977	0.000635	20.832402
1564.417927	-2.991700	3.400600	-10.172000	26.200958	0.000634	20.812856
1565.422008	-3.002300	3.399500	-10.206000	26.220352	0.000634	20.827604
1566.417385	-3.014700	3.397300	-10.240000	26.193269	0.000632	20.816035
1567.417958	-2.994500	3.398600	-10.175000	26.140811	0.000631	20.817851
1568.421197	-2.995700	3.397800	-10.177000	26.120674	0.000633	20.836023
1569.418936	-3.000100	3.396900	-10.189000	26.130161	0.000631	20.846977
1570.417711	-2.990400	3.397700	-10.160000	26.118136	0.000629	20.829205
1571.419048	-2.987000	3.396900	-10.146000	26.048277	0.000630	20.821128
1572.418212	-3.007200	3.395800	-10.211000	26.057415	0.000628	20.822722
1573.417099	-3.003400	3.395100	-10.196000	26.042435	0.000630	20.834225
1574.417412	-2.998400	3.394400	-10.176000	26.086184	0.000629	20.840249
1575.418379	-3.003900	3.394000	-10.194000	26.105906	0.000629	20.831142
1576.419549	-2.996000	3.395300	-10.171000	26.140078	0.000628	20.858364
1577.417622	-3.001300	3.394100	-10.186000	26.168138	0.000627	20.829663
1578.420811	-3.025500	3.392700	-10.264000	26.171107	0.000627	20.845921
1579.425269	-2.989300	3.393700	-10.144000	26.188045	0.000625	20.821217
1580.420953	-2.990200	3.393100	-10.146000	26.199020	0.000626	20.844572
1581.424283	-2.996700	3.393600	-10.168000	26.229291	0.000624	20.855551
1582.428128	-2.984600	3.392600	-10.125000	26.261904	0.000623	20.834272
1583.420516	-2.988900	3.391800	-10.137000	26.280190	0.000623	20.844588
1584.423839	-2.993700	3.392400	-10.155000	26.257242	0.000623	20.826268
1585.422833	-3.006700	3.391900	-10.198000	26.247114	0.000624	20.850702
1586.424884	-3.007000	3.391600	-10.197000	26.253028	0.000624	20.834361
1587.423864	-2.999100	3.391200	-10.170000	26.250033	0.000622	20.839412
1588.426894	-2.996700	3.390400	-10.159000	26.245965	0.000621	20.808298
1589.425566	-2.966000	3.390800	-10.056000	26.265855	0.000623	20.840139
1590.423528	-2.992800	3.391300	-10.149000	26.293571	0.000621	20.826740
1591.428829	-2.981700	3.389900	-10.107000	26.279091	0.000620	20.836370
1592.422231	-2.998200	3.390200	-10.163000	26.258037	0.000619	20.837024
1593.423935	-2.994000	3.389100	-10.147000	26.263805	0.000618	20.826699
1594.424337	-2.973400	3.391400	-10.083000	26.256319	0.000621	20.821548
1595.424789	-3.000900	3.387500	-10.165000	26.248665	0.000619	20.816226
1596.425941	-2.996400	3.389200	-10.154000	26.193435	0.000617	20.815253
1597.429906	-3.004900	3.387200	-10.177000	26.226943	0.000617	20.811942
1598.425218	-3.013900	3.386300	-10.204000	26.206686	0.000617	20.808655
1599.425422	-2.995900	3.387400	-10.148000	26.171898	0.000617	20.809734
1600.429770	-2.988600	3.387700	-10.123000	26.158881	0.000615	20.799973
1601.428627	-3.007800	3.386100	-10.184000	26.170214	0.000615	20.809464
1602.432783	-3.008000	3.385100	-10.180000	26.176991	0.000615	20.821963
1603.429821	-3.003600	3.384800	-10.165000	26.177373	0.000617	20.814286
1604.429495	-2.999800	3.384400	-10.151000	26.186509	0.000614	20.832950
1605.430133	-3.002800	3.385200	-10.164000	26.202731	0.000613	20.800887
1606.431812	-2.991500	3.384300	-10.122000	26.240031	0.000613	20.816085
1607.430073	-2.997200	3.383500	-10.140000	26.230570	0.000612	20.833603
1608.430721	-2.993400	3.382400	-10.123000	26.231961	0.000612	20.812717
1609.430822	-3.009000	3.384000	-10.181000	26.252705	0.000610	20.805587
1610.430758	-3.001400	3.381400	-10.147000	26.275499	0.000609	20.818063
1611.432146	-2.991300	3.383100	-10.118000	26.292484	0.000612	20.811899
1612.432187	-2.990900	3.383000	-10.117000	26.290101	0.000610	20.823254
1613.434873	-2.997800	3.382100	-10.138000	26.299268	0.000608	20.803069
1614.432705	-3.010400	3.381000	-10.178000	26.307939	0.000608	20.794240
1615.434391	-2.991200	3.381800	-10.115000	26.324249	0.000608	20.781234
1616.434654	-2.996100	3.380900	-10.129000	26.306248	0.000608	20.802497
1617.435982	-3.011600	3.380200	-10.179000	26.325291	0.000608	20.807410
1618.439953	-3.008100	3.380500	-10.168000	26.316708	0.000608	20.793095
1619.439894	-3.014600	3.379000	-10.186000	26.338631	0.000606	20.817024
1620.437309	-2.995600	3.380600	-10.125000	26.361049	0.000606	20.813476
1621.435350	-3.001600	3.379500	-10.142000	26.361228	0.000605	20.799431
1622.435386	-3.013900	3.377800	-10.180000	26.358942	0.000603	20.803298
1623.438943	-2.994900	3.377100	-10.113000	26.367385	0.000607	20.807516
1624.440146	-3.012000	3.377900	-10.174000	26.366735	0.000603	20.788845
1625.436594	-2.985600	3.378300	-10.085000	26.395310	0.000603	20.814245
1626.437416	-2.991500	3.377000	-10.101000	26.353249	0.000602	20.786196
1627.440042	-3.007900	3.376300	-10.156000	26.380531	0.000601	20.812667
1628.437882	-3.007600	3.375600	-10.151000	26.383191	0.000601	20.791159
1629.438908	-3.008200	3.376100	-10.155000	26.372332	0.000601	20.798263
1630.437371	-2.995300	3.377200	-10.115000	26.377270	0.000602	20.793743
1631.438116	-3.000800	3.375500	-10.128000	26.389316	0.000601	20.790203
1632.437958	-3.021600	3.373700	-10.193000	26.334037	0.000601	20.788699
1633.438293	-3.013100	3.374500	-10.167000	26.290721	0.000598	20.798273
1634.439260	-2.983100	3.374000	-10.064000	26.289851	0.000600	20.800717
1635.437672	-3.010100	3.372900	-10.152000	26.313099	0.000599	20.785675
1636.440373	-2.994400	3.373000	-10.099000	26.304526	0.000597	20.795076
1637.438251	-2.983600	3.373600	-10.065000	26.310204	0.000596	20.784662
1638.438066	-2.970800	3.374000	-10.023000	26.302313	0.000596	20.797595
1639.437091	-2.995000	3.372900	-10.101000	26.272931	0.000595	20.805999
1640.437678	-2.992700	3.372000	-10.091000	26.242367	0.000598	20.776707
1641.437463	-2.995000	3.371500	-10.097000	26.190660	0.000594	20.793499
1642.439344	-3.011700	3.371400	-10.153000	26.167962	0.000596	20.775432
1643.439243	-3.009400	3.371000	-10.144000	26.146329	0.000595	20.791627
1644.439207	-3.000400	3.371800	-10.116000	26.159566	0.000593	20.776004
1645.442092	-3.005000	3.369900	-10.126000	26.163446	0.000594	20.780378
1646.440018	-2.995200	3.371100	-10.095000	26.211405	0.000592	20.783051
1647.444775	-3.014100	3.369100	-10.153000	26.229611	0.000591	20.790441
1648.439794	-2.994500	3.368200	-10.085000	26.244588	0.000592	20.798853
1649.442640	-2.988000	3.369400	-10.067000	26.200185	0.000589	20.787424
1650.444237	-2.987900	3.369600	-10.067000	26.197281	0.000590	20.790669
1651.443297	-2.982100	3.369100	-10.046000	26.182759	0.000590	20.776076
1652.444114	-3.041200	3.367000	-10.239000	26.203455	0.000590	20.777907
1653.443112	-3.006900	3.368000	-10.126000	26.234320	0.000590	20.774310
1654.444666	-2.997900	3.367200	-10.094000	26.245424	0.000589	20.767925
1655.444790	-2.992800	3.366900	-10.075000	26.246026	0.000588	20.776116
1656.446626	-2.992900	3.366600	-10.075000	26.259594	0.000588	20.754189
1657.445567	-2.988400	3.365800	-10.057000	26.231959	0.000588	20.800387
1658.447840	-3.004900	3.365700	-10.112000	26.218723	0.000586	20.766223
1659.447585	-2.998700	3.365100	-10.089000	26.250784	0.000587	20.787062
1660.448345	-3.038100	3.363800	-10.219000	26.260626	0.000586	20.768503
1661.453491	-2.998300	3.364100	-10.086000	26.310443	0.000586	20.792489
1662.449847	-2.993600	3.365800	-10.074000	26.313925	0.000585	20.777021
1663.449812	-2.993100	3.365500	-10.073000	26.301511	0.000585	20.782090
1664.450965	-2.981600	3.363500	-10.028000	26.291464	0.000584	20.776734
1665.453220	-2.991900	3.364300	-10.064000	26.293725	0.000584	20.778058
1666.449749	-3.002300	3.362300	-10.093000	26.261869	0.000584	20.765485
1667.451867	-2.981100	3.362700	-10.024000	26.286216	0.000582	20.759132
1668.449577	-3.011700	3.362200	-10.126000	26.256345	0.000582	20.788383
1669.449605	-2.991300	3.362900	-10.058000	26.250519	0.000582	20.773045
1670.449022	-2.995300	3.361200	-10.066000	26.251544	0.000583	20.752737
1671.450099	-2.989600	3.361900	-10.050000	26.207516	0.000581	20.761599
1672.452979	-2.973800	3.361700	-9.995700	26.171061	0.000580	20.761002
1673.449349	-2.998700	3.360400	-10.076000	26.181596	0.000577	20.781546
1674.451697	-2.999200	3.359700	-10.076000	26.194694	0.000579	20.762465
1675.448777	-2.987700	3.360300	-10.039000	26.233735	0.000580	20.773248
1676.448803	-2.997300	3.359500	-10.069000	26.269179	0.000579	20.763347
1677.452429	-3.001900	3.360400	-10.087000	26.271619	0.000580	20.760109
1678.449461	-2.984600	3.360100	-10.028000	26.285179	0.000577	20.768521
1679.455880	-3.007600	3.358700	-10.100000	26.278647	0.000575	20.763379
1680.451881	-3.007600	3.358100	-10.099000	26.302449	0.000577	20.757427
1681.451573	-3.015400	3.357600	-10.124000	26.304742	0.000574	20.740291
1682.456317	-3.011100	3.357200	-10.108000	26.333197	0.000576	20.768414
1683.452209	-2.976400	3.357900	-9.993100	26.351213	0.000576	20.751433
1684.452968	-3.007800	3.355900	-10.093000	26.342973	0.000577	20.740306
1685.452787	-2.993000	3.358200	-10.049000	26.313673	0.000574	20.763491
1686.453627	-2.999800	3.357600	-10.071000	26.315942	0.000573	20.753918
1687.453363	-2.992600	3.356900	-10.045000	26.323124	0.000572	20.773464
1688.456909	-2.999400	3.356900	-10.067000	26.343671	0.000573	20.754284
1689.453599	-2.989300	3.355600	-10.030000	26.330103	0.000572	20.758667
1690.453627	-2.969200	3.357300	-9.966900	26.344712	0.000572	20.758176
1691.455212	-2.986000	3.354400	-10.015000	26.372946	0.000571	20.741032
1692.454741	-3.012300	3.354600	-10.104000	26.333673	0.000569	20.753246
1693.458434	-3.007000	3.354900	-10.087000	26.339367	0.000570	20.753278
1694.456337	-2.994000	3.354000	-10.041000	26.308448	0.000569	20.740696
1695.457889	-3.002500	3.353300	-10.067000	26.331672	0.000569	20.762614
1696.456610	-3.009400	3.352600	-10.088000	26.327328	0.000568	20.753032
1697.461024	-2.988100	3.354100	-10.020000	26.330923	0.000568	20.744318
1698.459301	-2.990000	3.352000	-10.021000	26.366437	0.000567	20.734491
1699.457317	-2.995600	3.352000	-10.041000	26.356464	0.000568	20.733950
1700.457022	-3.001500	3.351900	-10.060000	26.364778	0.000568	20.754635
1701.464055	-3.006200	3.350600	-10.070000	26.364330	0.000564	20.759401
1702.462088	-2.974700	3.352700	-9.972600	26.360361	0.000567	20.752566
1703.461584	-2.995500	3.350300	-10.035000	26.342612	0.000565	20.747056
1704.462958	-2.993600	3.350300	-10.027000	26.324285	0.000564	20.738120
1705.459860	-2.991000	3.350100	-10.019000	26.295180	0.000565	20.741586
1706.461035	-2.998500	3.350600	-10.046000	26.243409	0.000563	20.726543
1707.458318	-3.001400	3.349100	-10.052000	26.203180	0.000562	20.743965
1708.458108	-2.995300	3.348500	-10.028000	26.184338	0.000562	20.751110
1709.461751	-2.994600	3.347600	-10.023000	26.181954	0.000562	20.743973
1710.457427	-2.994700	3.347700	-10.024000	26.222143	0.000561	20.739787
1711.460476	-2.996100	3.347200	-10.026000	26.261029	0.000558	20.734293
1712.459549	-2.981300	3.348100	-9.979700	26.277916	0.000560	20.739411
1713.459653	-2.977700	3.348900	-9.970600	26.299173	0.000561	20.729003
1714.461037	-2.999500	3.346300	-10.036000	26.278095	0.000559	20.744332
1715.462256	-3.008000	3.346700	-10.065000	26.309169	0.000559	20.726721
1716.460056	-3.007300	3.345200	-10.060000	26.281129	0.000557	20.727466
1717.463378	-3.008500	3.346100	-10.066000	26.259580	0.000557	20.743269
1718.460042	-3.008400	3.344800	-10.062000	26.271050	0.000556	20.749106
1719.463165	-3.007500	3.345100	-10.060000	26.264347	0.000556	20.728144
1720.461848	-2.985300	3.345500	-9.985900	26.259287	0.000556	20.751509
1721.459795	-3.004300	3.344000	-10.045000	26.299269	0.000556	20.736687
1722.462752	-3.000900	3.345200	-10.037000	26.315611	0.000555	20.724661
1723.461006	-3.004200	3.343400	-10.043000	26.354388	0.000555	20.735183
1724.463893	-3.028000	3.341000	-10.115000	26.392057	0.000554	20.727523
1725.462635	-2.995700	3.342900	-10.013000	26.393091	0.000554	20.729510
1726.462864	-3.005700	3.341600	-10.043000	26.382646	0.000553	20.721857
1727.463222	-2.974700	3.341500	-9.938100	26.351851	0.000552	20.731210
1728.464146	-3.007400	3.340800	-10.045000	26.351606	0.000554	20.712471
1729.463259	-2.995300	3.341700	-10.008000	26.334891	0.000550	20.726493
1730.463970	-2.995100	3.340300	-10.004000	26.332385	0.000552	20.737726
1731.469977	-2.990500	3.341200	-9.989500	26.373577	0.000550	20.719380
1732.465232	-3.004400	3.340400	-10.035000	26.395547	0.000549	20.744782
1733.470540	-3.008600	3.339700	-10.047000	26.386413	0.000548	20.750300
1734.467232	-3.003500	3.338500	-10.026000	26.359318	0.000547	20.726861
1735.465497	-3.006400	3.339500	-10.038000	26.361531	0.000547	20.727662
1736.470020	-2.978300	3.341000	-9.950000	26.336323	0.000549	20.722242
1737.465802	-3.018600	3.338300	-10.076000	26.315295	0.000548	20.724343
1738.470003	-2.984800	3.338800	-9.964400	26.294861	0.000546	20.727989
1739.470695	-2.993800	3.339200	-9.995800	26.342480	0.000545	20.736492
1740.466312	-3.003000	3.337700	-10.021000	26.360140	0.000544	20.718677
1741.471027	-3.005300	3.337200	-10.029000	26.379580	0.000546	20.709292
1742.470476	-2.990100	3.337100	-9.976300	26.397833	0.000542	20.725267
1743.467703	-2.984700	3.337100	-9.959200	26.385787	0.000545	20.718375
1744.470192	-2.995100	3.336000	-9.991200	26.335485	0.000544	20.737996
1745.469230	-2.993600	3.336700	-9.987800	26.345717	0.000543	20.718881
1746.468667	-2.983300	3.336400	-9.952700	26.356820	0.000543	20.734308
1747.472244	-3.001500	3.334800	-10.009000	26.365711	0.000542	20.717164
1748.468795	-2.988100	3.335500	-9.966100	26.401297	0.000540	20.706462
1749.471593	-2.981100	3.334300	-9.938000	26.417020	0.000539	20.731749
1750.466932	-2.994200	3.335800	-9.987300	26.443560	0.000540	20.714801
1751.468202	-2.982300	3.334700	-9.944400	26.453393	0.000540	20.709511
1752.472491	-3.008300	3.332700	-10.023000	26.475223	0.000539	20.726712
1753.468357	-3.005200	3.332400	-10.013000	26.482177	0.000538	20.727538
1754.471154	-3.016200	3.332700	-10.052000	26.446902	0.000539	20.737602
1755.469619	-2.991100	3.331900	-9.964500	26.427699	0.000538	20.698384
1756.470556	-3.002500	3.332100	-10.004000	26.409609	0.000537	20.734258
1757.470486	-3.004900	3.331000	-10.008000	26.419044	0.000537	20.719084
1758.474052	-2.994500	3.333000	-9.980000	26.450627	0.000536	20.713369
1759.471802	-2.988400	3.331800	-9.955800	26.451351	0.000538	20.699397
1760.473393	-2.991900	3.331000	-9.965000	26.476157	0.000535	20.709159
1761.471637	-2.987000	3.330100	-9.946100	26.509251	0.000534	20.712077
1762.472321	-2.990300	3.331500	-9.960300	26.531300	0.000535	20.719067
1763.472755	-2.978500	3.329400	-9.915900	26.544483	0.000536	20.701972
1764.474396	-2.989900	3.330500	-9.956200	26.539148	0.000532	20.704196
1765.474080	-3.011700	3.328800	-10.023000	26.545703	0.000532	20.701301
1766.473686	-3.011200	3.328900	-10.022000	26.540197	0.000531	20.690550
1767.474877	-3.011300	3.328900	-10.023000	26.567376	0.000530	20.718348
1768.477246	-2.993200	3.329400	-9.965000	26.561765	0.000532	20.701800
1769.474700	-2.989300	3.327900	-9.947100	26.588317	0.000531	20.694351
1770.473330	-2.997200	3.327600	-9.972200	26.559593	0.000529	20.689184
1771.475581	-2.998800	3.325800	-9.971700	26.581420	0.000532	20.694531
1772.492279	-2.991500	3.327700	-9.953900	26.580550	0.000530	20.717840
1773.477015	-3.004000	3.326300	-9.990700	26.602036	0.000528	20.706721
1774.475681	-2.995800	3.326100	-9.962900	26.605582	0.000528	20.713131
1775.474691	-3.002400	3.326700	-9.986000	26.605663	0.000529	20.703728
1776.481260	-2.995300	3.325400	-9.959700	26.607923	0.000528	20.708846
1777.477293	-2.998000	3.326100	-9.970700	26.582282	0.000527	20.730961
1778.476320	-3.014200	3.325000	-10.021000	26.604475	0.000526	20.718657
1779.483617	-2.981200	3.325400	-9.912800	26.607777	0.000525	20.695421
1780.479057	-2.982700	3.324100	-9.913500	26.629327	0.000525	20.697171
1781.486189	-3.001600	3.323200	-9.973100	26.618088	0.000523	20.706262
1782.480665	-3.012500	3.322700	-10.009000	26.613477	0.000524	20.696884
1783.479431	-3.013000	3.323400	-10.013000	26.563804	0.000522	20.725662
1784.481862	-3.008100	3.322900	-9.994800	26.550621	0.000522	20.701978
1785.483482	-2.990700	3.322000	-9.934500	26.522920	0.000523	20.715860
1786.482501	-2.992500	3.322300	-9.940600	26.511607	0.000520	20.686942
1787.479941	-3.005200	3.322200	-9.983000	26.525823	0.000520	20.711666
1788.480686	-3.002700	3.322300	-9.975600	26.524839	0.000520	20.694553
1789.482178	-3.004000	3.319800	-9.970900	26.540860	0.000521	20.665610
1790.479843	-2.997000	3.321900	-9.953800	26.534525	0.000519	20.734638
1791.480244	-2.997100	3.320200	-9.949100	26.561095	0.000518	20.693065
1792.481776	-3.008900	3.320300	-9.988800	26.584281	0.000519	20.694087
1793.483238	-3.009300	3.317800	-9.983600	26.594242	0.000517	20.694144
1794.483245	-2.999300	3.317800	-9.950300	26.548838	0.000518	20.682166
1795.482996	-2.984500	3.318200	-9.901300	26.578482	0.000517	20.713389
1796.481807	-3.018900	3.317400	-10.014000	26.588566	0.000517	20.695076
1797.486205	-2.975900	3.320100	-9.879000	26.604334	0.000517	20.684848
1798.481453	-3.015100	3.317300	-10.001000	26.621485	0.000514	20.686442
1799.483645	-2.989900	3.317700	-9.918200	26.602455	0.000514	20.689597
1800.487214	-3.028700	3.314500	-10.037000	26.581100	0.000515	20.683302
1801.486298	-2.998200	3.315700	-9.939700	26.582165	0.000513	20.693383
1802.484980	-2.978800	3.315700	-9.875400	26.607221	0.000513	20.683956
1803.486321	-2.998600	3.314800	-9.938900	26.597616	0.000513	20.695639
1804.487528	-2.998600	3.315200	-9.940200	26.557645	0.000511	20.691968
1805.488157	-3.012200	3.313700	-9.980300	26.574951	0.000511	20.693244
1806.493536	-3.016800	3.313900	-9.994900	26.583596	0.000511	20.704779
1807.491271	-3.010300	3.313700	-9.973500	26.580790	0.000511	20.685362
1808.489077	-2.980300	3.315600	-9.880200	26.598861	0.000511	20.683138
1809.489603	-3.012400	3.313800	-9.981600	26.566339	0.000510	20.706398
1810.490134	-2.966100	3.315200	-9.831500	26.546560	0.000506	20.662804
1811.496689	-3.017000	3.313500	-9.995200	26.558548	0.000510	20.680072
1812.489051	-2.984300	3.312200	-9.883500	26.569103	0.000508	20.694952
1813.493134	-3.009800	3.312300	-9.968700	26.595388	0.000507	20.678699
1814.492505	-3.027400	3.310600	-10.021000	26.631560	0.000506	20.691355
1815.494685	-3.000800	3.311500	-9.936400	26.627966	0.000506	20.704812
1816.493834	-2.995700	3.310500	-9.916000	26.688711	0.000503	20.680055
1817.492099	-2.997900	3.312200	-9.928800	26.700103	0.000508	20.693407
1818.499169	-2.989800	3.311400	-9.899300	26.702063	0.000506	20.703438
1819.492550	-2.992900	3.310600	-9.907500	26.704446	0.000505	20.692556
1820.492012	-2.996300	3.310100	-9.915900	26.683271	0.000503	20.704460
1821.491914	-2.987600	3.309300	-9.886200	26.689183	0.000503	20.688591
1822.496326	-3.005600	3.308400	-9.941700	26.689150	0.000502	20.699939
1823.494549	-2.984100	3.308700	-9.873000	26.701592	0.000503	20.683996
1824.495913	-2.995200	3.309300	-9.911400	26.680140	0.000500	20.715064
1825.493301	-2.980500	3.309800	-9.863600	26.714513	0.000501	20.688453
1826.492862	-2.991700	3.308400	-9.896700	26.710586	0.000499	20.703946
1827.493971	-3.028500	3.306600	-10.012000	26.702446	0.000498	20.697184
1828.493567	-2.991900	3.307700	-9.895400	26.673969	0.000499	20.713127
1829.494194	-2.992400	3.306200	-9.892300	26.663910	0.000498	20.701592
1830.494111	-2.995700	3.307200	-9.906500	26.682849	0.000496	20.696923
1831.495927	-3.006400	3.304700	-9.934300	26.675271	0.000497	20.699736
1832.496319	-2.997400	3.306300	-9.909100	26.678377	0.000498	20.688633
1833.497325	-2.988900	3.305600	-9.878900	26.675490	0.000497	20.693792
1834.497978	-3.023400	3.303800	-9.987400	26.691177	0.000496	20.702451
1835.497190	-2.997700	3.305500	-9.907300	26.696983	0.000496	20.691217
1836.494897	-3.018700	3.302600	-9.968200	26.681142	0.000495	20.702320
1837.495850	-3.018600	3.302100	-9.966500	26.678589	0.000496	20.712082
1838.500014	-3.012000	3.303400	-9.949000	26.617241	0.000493	20.713472
1839.496897	-3.028400	3.302600	-10.000000	26.561136	0.000494	20.709703
1840.498477	-3.012200	3.301500	-9.944500	26.567512	0.000492	20.710423
1841.496138	-2.993200	3.302900	-9.885200	26.579304	0.000491	20.722277
1842.495807	-3.046600	3.299700	-10.051000	26.625447	0.000490	20.706548
1843.499366	-3.019200	3.300100	-9.962500	26.659756	0.000491	20.700260
1844.497825	-2.987300	3.301300	-9.861200	26.680680	0.000490	20.706123
1845.496878	-2.982000	3.301000	-9.842700	26.648551	0.000491	20.700850
1846.497329	-2.969600	3.300900	-9.799900	26.636930	0.000489	20.695805
1847.496989	-2.961400	3.301100	-9.774400	26.625090	0.000488	20.720888
1848.497222	-2.994400	3.300000	-9.879800	26.601661	0.000487	20.715827
1849.499614	-3.000600	3.300100	-9.899700	26.609281	0.000487	20.696933
1850.500055	-2.996800	3.299800	-9.886500	26.660725	0.000487	20.718779
1851.499169	-3.002200	3.299600	-9.905200	26.664254	0.000486	20.706679
1852.499027	-3.015500	3.297400	-9.942500	26.676021	0.000486	20.699068
1853.500838	-2.990700	3.299200	-9.865300	26.704888	0.000485	20.714340
1854.501943	-2.995400	3.298000	-9.878000	26.694935	0.000485	20.715239
1855.501762	-2.984800	3.297900	-9.842400	26.677387	0.000481	20.705183
1856.502590	-2.999800	3.296400	-9.887300	26.690910	0.000484	20.711667
1857.500920	-3.022500	3.296100	-9.961400	26.699546	0.000483	20.706598
1858.502498	-2.988600	3.295700	-9.848900	26.727372	0.000483	20.710866
1859.504610	-3.016200	3.293700	-9.932500	26.781697	0.000482	20.712379
1860.502886	-3.012400	3.294300	-9.922800	26.789730	0.000480	20.730887
1861.500643	-3.021000	3.294200	-9.950400	26.784989	0.000480	20.712844
1862.500219	-2.998700	3.295900	-9.882000	26.773151	0.000479	20.727020
1863.502956	-3.008100	3.293700	-9.905400	26.761328	0.000479	20.743110
1864.501268	-3.013900	3.294900	-9.929400	26.743261	0.000478	20.728263
1865.504102	-2.993500	3.293700	-9.858600	26.727819	0.000478	20.711789
1866.503661	-2.981000	3.294900	-9.822000	26.728616	0.000477	20.723971
1867.504125	-2.973200	3.294300	-9.793600	26.736959	0.000478	20.729514
1868.501092	-2.982600	3.293500	-9.822300	26.699855	0.000478	20.715443
1869.502162	-2.994800	3.292900	-9.860100	26.673459	0.000477	20.724470
1870.506197	-3.020900	3.291400	-9.941500	26.639232	0.000475	20.695748
1871.503742	-3.009900	3.293100	-9.909900	26.645884	0.000475	20.729939
1872.503651	-3.012900	3.290700	-9.913600	26.630319	0.000476	20.708126
1873.504009	-2.980400	3.290900	-9.807700	26.670930	0.000475	20.704382
1874.505102	-2.990700	3.290100	-9.838700	26.699522	0.000473	20.708470
1875.511040	-3.002100	3.291000	-9.877500	26.756937	0.000475	20.724470
1876.504933	-3.005600	3.288500	-9.883000	26.776151	0.000472	20.711544
1877.511605	-2.996900	3.289700	-9.858500	26.820725	0.000471	20.717954
1878.507365	-3.018800	3.288900	-9.926800	26.827107	0.000474	20.713939
1879.507662	-2.977400	3.290200	-9.793800	26.809236	0.000469	20.729637
1880.507687	-3.013900	3.289200	-9.912000	26.724518	0.000469	20.722221
1881.508811	-2.981300	3.289300	-9.804900	26.694138	0.000469	20.717757
1882.508521	-2.983000	3.287800	-9.805800	26.705108	0.000469	20.714087
1883.507363	-2.996900	3.288100	-9.853000	26.715492	0.000470	20.728320
1884.507270	-3.000200	3.287000	-9.861000	26.735568	0.000466	20.713416
1885.507478	-2.990400	3.287700	-9.830500	26.758458	0.000469	20.721731
1886.509998	-3.008400	3.286100	-9.885100	26.764759	0.000467	20.721902
1887.507933	-2.996100	3.287100	-9.847400	26.728803	0.000467	20.745496
1888.513062	-2.998400	3.285000	-9.847600	26.699529	0.000465	20.726023
1889.506871	-3.008800	3.284800	-9.882700	26.688364	0.000463	20.711478
1890.508004	-2.996800	3.284900	-9.843200	26.653382	0.000463	20.735580
1891.510379	-2.996100	3.284500	-9.839300	26.626050	0.000463	20.716637
1892.510571	-3.009300	3.283100	-9.878600	26.626058	0.000463	20.724706
1893.510075	-2.979500	3.284100	-9.784100	26.605678	0.000461	20.742153
1894.508185	-2.959300	3.283400	-9.715300	26.666393	0.000461	20.732064
1895.509086	-2.991100	3.283200	-9.819300	26.706986	0.000463	20.741106
1896.509926	-3.015900	3.280600	-9.891200	26.742626	0.000460	20.733315
1897.508257	-2.988000	3.283100	-9.809100	26.704879	0.000462	20.708641
1898.507939	-3.002000	3.282500	-9.853000	26.711035	0.000460	20.738539
1899.511984	-3.011900	3.280400	-9.878900	26.744496	0.000461	20.726186
1900.510746	-3.007200	3.281300	-9.866300	26.756115	0.000458	20.729333
1901.512460	-3.010600	3.279300	-9.870500	26.732283	0.000457	20.734296
1902.516852	-2.980000	3.280100	-9.773500	26.749309	0.000457	20.729129
1903.511708	-3.001900	3.280600	-9.846200	26.710864	0.000459	20.727935
1904.512474	-2.995500	3.278700	-9.819900	26.713645	0.000457	20.744956
1905.510377	-2.981300	3.279900	-9.776800	26.742243	0.000455	20.733879
1906.511311	-2.985000	3.280900	-9.792200	26.716654	0.000455	20.731859
1907.511828	-2.998000	3.278600	-9.826900	26.729786	0.000453	20.741743
1908.517048	-3.003900	3.279200	-9.848900	26.720573	0.000455	20.749077
1909.512416	-3.019900	3.276700	-9.893700	26.738746	0.000453	20.749804
1910.513984	-3.016400	3.278500	-9.887800	26.686445	0.000453	20.754595
1911.514725	-2.981900	3.277300	-9.771100	26.680663	0.000451	20.741670
1912.514975	-2.984600	3.278300	-9.783500	26.707595	0.000452	20.754047
1913.519421	-2.976500	3.277000	-9.752900	26.731956	0.000452	20.738235
1914.513913	-2.999500	3.275800	-9.824600	26.701545	0.000450	20.760767
1915.515998	-2.974600	3.277000	-9.745300	26.683175	0.000448	20.747041
1916.514461	-3.019600	3.275200	-9.888500	26.676775	0.000449	20.758625
1917.512975	-3.012700	3.275300	-9.866900	26.659471	0.000447	20.735063
1918.519215	-3.010800	3.273800	-9.854400	26.638271	0.000448	20.733665
1919.514819	-3.003400	3.273800	-9.831700	26.620404	0.000445	20.738464
1920.516662	-3.013200	3.273000	-9.861300	26.648184	0.000446	20.741260
1921.516598	-2.984600	3.273800	-9.770600	26.693339	0.000446	20.734025
1922.517478	-3.006300	3.274100	-9.842100	26.733151	0.000445	20.747972
1923.519614	-2.994700	3.273500	-9.801600	26.782483	0.000445	20.756319
1924.520058	-2.988200	3.272800	-9.777700	26.820633	0.000445	20.744415
1925.520883	-2.993500	3.272300	-9.794500	26.835740	0.000442	20.753916
1926.519462	-3.015600	3.271700	-9.865200	26.889457	0.000443	20.758142
1927.516473	-2.992300	3.272000	-9.790100	26.897400	0.000443	20.753801
1928.518390	-2.998500	3.271100	-9.807500	26.901798	0.000439	20.741153
1929.522715	-2.993100	3.270700	-9.789100	26.937146	0.000440	20.753939
1930.524854	-2.984300	3.271700	-9.762700	26.966974	0.000437	20.754536
1931.519953	-2.973300	3.270900	-9.725200	26.941163	0.000438	20.748969
1932.524082	-2.981500	3.269700	-9.745800	26.959487	0.000438	20.766447
1933.523920	-3.002400	3.268900	-9.813700	26.960430	0.000438	20.755067
1934.519463	-2.993200	3.270000	-9.786900	26.943267	0.000436	20.759146
1935.524395	-2.993300	3.268800	-9.783300	26.963763	0.000436	20.755574
1936.523496	-2.990600	3.268700	-9.774400	26.950942	0.000436	20.755009
1937.522386	-3.001300	3.269000	-9.810000	26.971989	0.000433	20.746776
1938.522793	-3.023600	3.266800	-9.876500	27.003287	0.000436	20.743163
1939.523127	-2.993300	3.267200	-9.778900	27.022822	0.000432	20.756170
1940.523297	-2.988100	3.268000	-9.764900	27.017562	0.000433	20.753251
1941.525162	-3.011600	3.265300	-9.831600	27.033910	0.000432	20.753096
1942.526195	-3.000800	3.267100	-9.802600	27.002084	0.000432	20.751910
1943.523874	-2.979300	3.267400	-9.733400	26.999555	0.000431	20.752686
1944.526203	-3.006600	3.263700	-9.811900	27.020780	0.000431	20.755065
1945.524937	-3.008100	3.264800	-9.819600	27.002246	0.000430	20.753495
1946.527444	-2.988400	3.264500	-9.754100	26.983784	0.000430	20.760060
1947.530888	-2.989300	3.263300	-9.754300	26.961102	0.000428	20.762382
1948.527159	-3.003400	3.262700	-9.797400	26.979572	0.000428	20.733539
1949.524333	-3.023200	3.261300	-9.857900	26.995083	0.000428	20.774268
1950.526425	-3.012600	3.263100	-9.829100	26.998570	0.000427	20.753119
1951.528849	-3.013100	3.263000	-9.830200	27.025072	0.000428	20.744207
1952.527132	-3.003600	3.262100	-9.794900	27.032770	0.000426	20.770916
1953.533659	-3.016600	3.261500	-9.837400	27.017503	0.000425	20.747028
1954.529409	-2.988300	3.261600	-9.745200	26.993140	0.000424	20.764727
1955.530685	-3.006100	3.261500	-9.803100	26.985205	0.000423	20.758645
1956.530902	-3.000100	3.260300	-9.780700	27.029729	0.000424	20.768332
1957.530147	-3.004700	3.260100	-9.794100	27.041101	0.000421	20.766967
1958.528129	-3.002800	3.259600	-9.787200	27.047434	0.000422	20.763852
1959.532094	-2.974000	3.261300	-9.697400	27.085924	0.000420	20.771741
1960.530264	-2.986500	3.259300	-9.733000	27.090394	0.000420	20.779082
1961.530991	-2.997100	3.258100	-9.764300	27.123843	0.000419	20.761513
1962.538587	-2.990100	3.259700	-9.745600	27.157177	0.000418	20.767538
1963.532950	-2.997400	3.258600	-9.765400	27.205830	0.000419	20.778068
1964.530657	-2.991300	3.256900	-9.741500	27.204375	0.000416	20.773759
1965.531737	-3.004600	3.257700	-9.786800	27.187559	0.000415	20.772966
1966.531572	-3.008400	3.258100	-9.800300	27.148259	0.000417	20.769949
1967.529164	-3.013400	3.256000	-9.810800	27.130076	0.000415	20.755454
1968.533702	-2.999700	3.255300	-9.763600	27.105659	0.000414	20.761243
1969.536973	-3.000600	3.256800	-9.771100	27.105789	0.000413	20.769434
1970.529458	-2.991300	3.254700	-9.734800	27.099668	0.000412	20.786038
1971.531720	-2.988800	3.256000	-9.730100	27.132872	0.000414	20.783397
1972.530749	-2.994600	3.254200	-9.743600	27.144446	0.000411	20.761847
1973.529918	-3.008500	3.253300	-9.785700	27.171196	0.000411	20.764095
1974.530914	-3.008100	3.254300	-9.787200	27.166132	0.000410	20.777968
1975.532229	-2.998700	3.253900	-9.756100	27.142698	0.000411	20.762934
1976.531689	-3.010000	3.252800	-9.789800	27.139350	0.000410	20.786119
1977.536253	-3.003300	3.252400	-9.767400	27.140146	0.000409	20.799722
1978.532531	-2.999400	3.251800	-9.752800	27.139423	0.000408	20.766752
1979.533213	-2.978200	3.252300	-9.685000	27.145421	0.000407	20.766146
1980.537994	-2.986700	3.250900	-9.708800	27.145258	0.000407	20.762189
1981.532720	-2.990300	3.251400	-9.721300	27.121532	0.000407	20.770569
1982.533126	-3.006800	3.251100	-9.773000	27.057543	0.000403	20.766432
1983.534836	-2.998400	3.251500	-9.748500	27.056535	0.000403	20.783910
1984.531737	-2.969900	3.251900	-9.656700	27.049064	0.000405	20.775449
1985.533294	-2.999700	3.249200	-9.744700	27.042317	0.000403	20.782888
1986.537358	-3.002200	3.249300	-9.754000	27.091033	0.000403	20.771664
1987.534466	-2.995600	3.248700	-9.730600	27.116223	0.000402	20.802688
1988.533913	-2.993600	3.248900	-9.725100	27.118410	0.000402	20.785921
1989.542650	-2.991200	3.247800	-9.714500	27.163033	0.000400	20.782438
1990.542744	-3.007600	3.247900	-9.766600	27.194220	0.000400	20.798159
1991.536647	-3.009900	3.246200	-9.769500	27.214198	0.000398	20.800709
1992.536061	-2.991700	3.247500	-9.715000	27.215840	0.000401	20.806628
1993.544199	-2.997500	3.246600	-9.730700	27.247107	0.000400	20.805361
1994.535091	-3.011500	3.245900	-9.773900	27.248943	0.000398	20.802467
1995.539849	-3.008400	3.245100	-9.761700	27.261476	0.000397	20.797055
1996.546282	-2.996100	3.244400	-9.720100	27.277275	0.000396	20.789714
1997.539972	-3.023600	3.244500	-9.808500	27.262394	0.000396	20.790866
1998.544477	-2.990300	3.244700	-9.701500	27.246643	0.000393	20.790670
1999.546990	-3.026300	3.243100	-9.814000	27.225203	0.000396	20.801347
2000.536541	-2.970700	3.244900	-9.638800	27.212036	0.000393	20.791896
2001.547246	-3.014000	3.242700	-9.772900	27.225186	0.000394	20.799908
2002.544728	-2.997500	3.242100	-9.717300	27.193228	0.000392	20.809489
2003.540568	-2.994700	3.243200	-9.710600	27.175737	0.000393	20.790474
2004.545815	-3.015300	3.243100	-9.777600	27.164667	0.000392	20.808263
2005.543224	-2.991500	3.242800	-9.699700	27.163374	0.000392	20.778514
2006.544322	-2.988500	3.241800	-9.686500	27.207485	0.000388	20.785896
2007.540833	-2.987700	3.242100	-9.685400	27.236460	0.000389	20.796074
2008.542273	-2.993600	3.241000	-9.700600	27.228348	0.000388	20.804511
2009.543794	-3.017600	3.238800	-9.771500	27.186637	0.000386	20.784841
2010.547374	-3.004100	3.239300	-9.730700	27.180338	0.000388	20.796049
2011.542627	-2.989000	3.238400	-9.677800	27.215385	0.000388	20.792420
2012.541925	-2.980500	3.240500	-9.657900	27.231608	0.000384	20.793565
2013.545949	-3.001300	3.240000	-9.723300	27.257161	0.000384	20.810258
2014.541268	-3.003200	3.238500	-9.725300	27.259022	0.000383	20.833466
2015.546215	-3.019800	3.236000	-9.770800	27.264573	0.000383	20.805386
2016.550561	-2.981500	3.237300	-9.650800	27.298414	0.000383	20.823779
2017.541269	-2.990700	3.236300	-9.677600	27.305778	0.000382	20.804160
2018.543686	-2.987800	3.235100	-9.664600	27.356554	0.000380	20.796443
2019.542419	-2.986500	3.236400	-9.663600	27.357992	0.000380	20.805950
2020.542952	-2.987500	3.234400	-9.661500	27.317976	0.000378	20.783240
2021.545698	-3.022500	3.232800	-9.770300	27.293888	0.000380	20.799786
2022.546212	-3.014300	3.234100	-9.746800	27.288142	0.000377	20.821033
2023.547479	-3.006600	3.232800	-9.718900	27.264427	0.000378	20.826576
2024.544885	-3.014100	3.233100	-9.743900	27.225497	0.000378	20.804013
2025.544043	-2.981500	3.233800	-9.639500	27.227082	0.000377	20.817935
2026.543847	-3.014500	3.232900	-9.745000	27.184525	0.000376	20.822546
2027.545347	-2.997600	3.232300	-9.688400	27.200008	0.000376	20.811567
2028.545295	-2.994000	3.232500	-9.677000	27.216800	0.000374	20.820870
2029.545411	-3.006200	3.233300	-9.718900	27.267280	0.000373	20.819015
2030.546459	-3.011900	3.231900	-9.731700	27.315612	0.000372	20.808837
2031.544861	-3.012500	3.229300	-9.727000	27.316896	0.000372	20.838103
2032.546001	-2.953500	3.232300	-9.545600	27.339546	0.000373	20.822955
2033.546493	-2.984100	3.231800	-9.642300	27.358903	0.000370	20.833419
2034.550122	-2.998800	3.228600	-9.681000	27.373076	0.000370	20.821598
2035.547589	-3.010700	3.229200	-9.721400	27.354922	0.000368	20.826568
2036.550587	-2.994300	3.229500	-9.668800	27.363731	0.000367	20.828318
2037.550685	-3.006500	3.227600	-9.701600	27.382828	0.000369	20.827141
2038.546994	-3.010100	3.227700	-9.714100	27.358814	0.000367	20.816260
2039.549290	-3.019600	3.228200	-9.745900	27.395611	0.000365	20.806810
2040.547466	-2.998500	3.228100	-9.677400	27.450275	0.000365	20.830035
2041.550581	-2.994100	3.227300	-9.661400	27.475652	0.000363	20.821901
2042.548494	-3.000100	3.227600	-9.681500	27.478374	0.000363	20.839812
2043.550822	-3.006900	3.226200	-9.699800	27.477903	0.000363	20.831752
2044.552877	-3.007300	3.224300	-9.693700	27.445367	0.000360	20.842166
2045.549176	-2.990200	3.226000	-9.645600	27.416658	0.000362	20.826561
2046.548066	-2.967600	3.226400	-9.573600	27.395830	0.000361	20.822677
2047.552683	-3.011300	3.224800	-9.709300	27.372686	0.000359	20.843964
2048.549605	-3.012100	3.224000	-9.708900	27.321285	0.000358	20.842992
2049.548804	-3.007500	3.223300	-9.693700	27.333467	0.000359	20.848133
2050.553433	-2.993300	3.223000	-9.646000	27.345893	0.000358	20.849253
2051.549459	-2.982900	3.223200	-9.612700	27.348526	0.000356	20.857592
2052.549403	-2.986400	3.222900	-9.624000	27.342520	0.000356	20.823102
2053.551656	-3.015100	3.222600	-9.715200	27.349347	0.000357	20.853202
2054.548919	-3.004400	3.221300	-9.676800	27.375368	0.000355	20.842395
2055.549947	-3.032800	3.219000	-9.761900	27.406232	0.000352	20.838356
2056.553513	-3.009600	3.219500	-9.688200	27.403615	0.000355	20.836198
2057.550883	-2.987600	3.220800	-9.620600	27.400405	0.000354	20.842452
2058.554711	-3.009400	3.220300	-9.690100	27.433275	0.000351	20.825734
2059.553146	-2.996400	3.219000	-9.644300	27.412432	0.000353	20.831792
2060.549992	-3.019000	3.218400	-9.714000	27.408288	0.000351	20.829994
2061.551804	-2.999400	3.220300	-9.657700	27.387955	0.000349	20.834195
2062.553667	-3.012700	3.217800	-9.693600	27.377984	0.000347	20.834596
2063.553375	-3.019400	3.217500	-9.714000	27.378602	0.000347	20.822415
2064.554021	-3.026100	3.215900	-9.730600	27.409392	0.000347	20.840588
2065.557398	-3.025900	3.218300	-9.737700	27.403282	0.000346	20.834441
2066.553768	-3.027300	3.216900	-9.737300	27.389426	0.000347	20.836623
2067.553203	-2.985900	3.215600	-9.601300	27.399730	0.000345	20.840824
2068.556901	-2.984400	3.215400	-9.595100	27.418997	0.000345	20.836974
2069.554925	-3.013500	3.215400	-9.688100	27.428334	0.000345	20.831195
2070.553607	-2.990500	3.215200	-9.614000	27.459570	0.000344	20.824687
2071.558770	-3.037600	3.213000	-9.758200	27.491024	0.000342	20.818875
2072.556092	-3.004100	3.214200	-9.654100	27.545887	0.000342	20.820494
2073.555935	-3.019800	3.212500	-9.699800	27.571960	0.000340	20.802157
2074.560734	-3.016700	3.212100	-9.688800	27.562689	0.000341	20.818907
2075.556724	-2.996600	3.212900	-9.626500	27.539720	0.000340	20.823297
2076.560754	-2.982600	3.212000	-9.578800	27.460975	0.000339	20.823256
2077.562603	-2.991600	3.212300	-9.608200	27.405215	0.000337	20.818842
2078.558123	-2.983800	3.210700	-9.579300	27.388328	0.000338	20.790000
2079.558850	-3.005300	3.210900	-9.647400	27.370815	0.000336	20.828333
2080.558654	-2.983100	3.211200	-9.577900	27.390741	0.000334	20.807601
2081.559546	-3.025400	3.209800	-9.709800	27.437458	0.000335	20.825201
2082.558770	-3.012500	3.208500	-9.664700	27.469905	0.000333	20.825128
2083.562677	-3.015300	3.208900	-9.675200	27.504016	0.000333	20.817721
2084.563702	-2.975800	3.208500	-9.547200	27.513117	0.000333	20.807437
2085.561220	-2.998500	3.208600	-9.619100	27.457237	0.000332	20.829452
2086.565094	-3.000000	3.207200	-9.619700	27.483491	0.000331	20.815089
2087.561795	-2.995500	3.207500	-9.607200	27.474634	0.000331	20.809497
2088.563478	-2.996000	3.206900	-9.606600	27.457602	0.000330	20.821759
2089.565553	-2.993500	3.206800	-9.598400	27.472886	0.000330	20.787350
2090.563750	-2.984900	3.205400	-9.566700	27.524134	0.000329	20.813780
2091.563996	-2.971700	3.205500	-9.524900	27.479322	0.000328	20.796670
2092.565820	-3.025300	3.205400	-9.696200	27.461811	0.000327	20.816510
2093.563151	-3.008200	3.202500	-9.632900	27.437726	0.000327	20.800340
2094.562274	-2.970300	3.204700	-9.518400	27.390301	0.000327	20.794356
2095.563682	-2.994000	3.203700	-9.590600	27.330969	0.000325	20.806267
2096.562781	-2.992200	3.203100	-9.583400	27.327475	0.000325	20.793269
2097.563064	-2.997900	3.202200	-9.599200	27.366751	0.000324	20.795321
2098.564311	-3.006300	3.203200	-9.627400	27.404303	0.000322	20.810812
2099.562164	-2.996400	3.201900	-9.591600	27.414582	0.000322	20.807877
2100.562118	-3.013800	3.202000	-9.649500	27.474218	0.000319	20.789165
2101.565277	-2.994800	3.201900	-9.588300	27.518543	0.000320	20.786818
2102.568113	-3.028400	3.198000	-9.683700	27.583780	0.000320	20.790342
2103.563006	-2.993400	3.199800	-9.577000	27.581456	0.000317	20.803651
2104.563559	-3.004200	3.197900	-9.606000	27.609909	0.000317	20.806201
2105.562170	-2.998900	3.197300	-9.587600	27.607780	0.000318	20.779877
2106.562805	-2.982200	3.198500	-9.537800	27.586899	0.000318	20.777359
2107.567347	-2.990200	3.198600	-9.563900	27.542285	0.000316	20.793636
2108.562417	-2.975400	3.197800	-9.514200	27.526879	0.000316	20.783826
2109.564135	-2.985800	3.199100	-9.550600	27.555268	0.000315	20.775405
2110.564089	-3.006500	3.198500	-9.615500	27.571372	0.000313	20.786867
2111.563118	-3.012800	3.197200	-9.630600	27.629862	0.000313	20.784553
2112.564939	-2.988200	3.196200	-9.549000	27.629610	0.000311	20.795205
2113.568880	-3.003100	3.196300	-9.598500	27.624337	0.000311	20.772355
2114.567194	-3.007700	3.196700	-9.613500	27.598444	0.000312	20.760526
2115.568409	-2.997900	3.194900	-9.577300	27.568463	0.000310	20.761654
2116.570459	-3.000700	3.194200	-9.584400	27.574866	0.000309	20.773312
2117.567833	-2.991900	3.193800	-9.554700	27.574524	0.000311	20.778184
2118.567871	-3.008200	3.193600	-9.605400	27.622745	0.000309	20.785452
2119.568487	-2.994100	3.191100	-9.553300	27.590798	0.000308	20.777489
2120.567997	-2.984500	3.192500	-9.527400	27.601889	0.000307	20.787700
2121.568611	-3.009300	3.193700	-9.610500	27.602758	0.000303	20.770557
2122.569238	-3.019000	3.190400	-9.631500	27.635159	0.000306	20.774235
2123.567767	-3.017000	3.189300	-9.621100	27.645249	0.000305	20.783441
2124.570158	-3.004700	3.190600	-9.586000	27.669159	0.000303	20.767671
2125.570468	-2.993200	3.190700	-9.548600	27.650814	0.000303	20.762488
2126.572803	-2.994100	3.189300	-9.548000	27.579960	0.000304	20.761367
2127.571385	-3.000000	3.188300	-9.563800	27.582568	0.000302	20.778217
2128.572733	-2.993800	3.188400	-9.544300	27.587654	0.000301	20.764842
2129.568848	-3.009300	3.187400	-9.590300	27.619373	0.000301	20.768308
2130.569038	-3.006100	3.187700	-9.581900	27.586394	0.000298	20.773058
2131.569479	-2.983600	3.189100	-9.513900	27.554228	0.000300	20.763926
2132.569615	-3.019600	3.185300	-9.616700	27.540439	0.000298	20.766649
2133.569387	-3.025400	3.185000	-9.634500	27.524221	0.000298	20.761711
2134.570597	-2.989100	3.185900	-9.522400	27.479182	0.000297	20.757173
2135.570970	-3.015300	3.184900	-9.602800	27.419700	0.000296	20.765136
2136.568704	-2.985400	3.184600	-9.506600	27.394769	0.000297	20.754279
2137.578988	-2.987700	3.185500	-9.516200	27.370731	0.000296	20.762814
2138.570543	-2.998800	3.184000	-9.547700	27.348383	0.000296	20.755506
2139.569985	-2.995800	3.183100	-9.534900	27.354933	0.000295	20.773001
2140.573130	-3.004900	3.182600	-9.562000	27.370739	0.000295	20.770409
2141.578392	-2.999400	3.183200	-9.546600	27.392697	0.000292	20.753143
2142.576444	-3.011400	3.181400	-9.579600	27.458355	0.000292	20.756609
2143.577633	-3.011800	3.180800	-9.579000	27.509945	0.000292	20.748769
2144.574390	-3.000500	3.178800	-9.537400	27.564920	0.000290	20.745760
2145.574645	-2.980800	3.181200	-9.480500	27.601929	0.000290	20.773041
2146.578149	-2.998500	3.178300	-9.528800	27.638879	0.000288	20.748581
2147.575007	-2.990300	3.181200	-9.512500	27.641211	0.000289	20.751401
2148.577112	-2.997500	3.179600	-9.530300	27.631372	0.000289	20.747191
2149.580122	-3.012100	3.179000	-9.574100	27.633598	0.000287	20.751802
2150.574681	-3.011700	3.176900	-9.567000	27.654405	0.000287	20.757091
2151.580839	-3.004000	3.177300	-9.544400	27.698454	0.000286	20.754001
2152.581678	-3.026500	3.175600	-9.610200	27.688437	0.000284	20.746766
2153.579397	-2.975100	3.176500	-9.449600	27.712931	0.000283	20.751025
2154.580320	-3.011900	3.174700	-9.561300	27.722931	0.000283	20.760615
2155.581038	-3.001400	3.175500	-9.530300	27.772315	0.000284	20.756732
2156.578533	-2.991200	3.174000	-9.493000	27.748854	0.000282	20.767736
2157.576713	-3.011400	3.173200	-9.554500	27.694498	0.000284	20.739114
2158.576700	-2.995000	3.172900	-9.501200	27.681873	0.000281	20.759601
2159.577115	-2.999900	3.173100	-9.517200	27.684359	0.000280	20.740765
2160.576822	-2.993900	3.172300	-9.496800	27.686560	0.000281	20.750567
2161.578373	-2.974700	3.173900	-9.439700	27.676105	0.000282	20.748107
2162.578794	-2.990700	3.170800	-9.481000	27.732428	0.000280	20.749783
2163.577750	-3.016200	3.170000	-9.559500	27.763151	0.000280	20.752726
2164.579066	-3.006100	3.170100	-9.528400	27.780714	0.000277	20.756650
2165.580215	-3.011300	3.169600	-9.543500	27.793370	0.000276	20.750894
2166.580159	-2.993000	3.168800	-9.483400	27.834400	0.000275	20.753780
2167.578912	-2.996400	3.168500	-9.493200	27.861709	0.000277	20.741910
2168.579876	-2.971800	3.169400	-9.418000	27.890155	0.000274	20.733080
2169.579476	-3.003600	3.168300	-9.516000	27.918055	0.000273	20.755947
2170.580134	-2.995000	3.168900	-9.489600	27.931538	0.000273	20.744387
2171.581835	-3.018100	3.165600	-9.553300	27.917210	0.000272	20.750829
2172.581034	-3.022600	3.165600	-9.567300	27.892461	0.000270	20.740618
2173.580112	-2.992400	3.166400	-9.473900	27.853018	0.000273	20.746913
2174.581149	-2.994900	3.165000	-9.477100	27.859167	0.000271	20.741721
2175.580441	-2.989900	3.165500	-9.462600	27.815953	0.000270	20.721937
2176.582203	-3.007600	3.165100	-9.518200	27.835318	0.000270	20.747117
2177.582182	-2.993400	3.163800	-9.469600	27.853700	0.000268	20.728158
2178.583286	-3.022200	3.162400	-9.555800	27.865584	0.000268	20.737274
2179.583561	-3.003000	3.162300	-9.494800	27.825294	0.000266	20.712371
2180.584209	-3.003100	3.160600	-9.491300	27.780682	0.000268	20.727218
2181.583561	-2.999000	3.161200	-9.479700	27.766604	0.000265	20.742449
2182.584405	-3.000000	3.159500	-9.477800	27.764995	0.000265	20.740356
2183.583370	-2.996200	3.159900	-9.466200	27.751258	0.000265	20.735067
2184.584626	-3.003100	3.160400	-9.489600	27.760072	0.000264	20.724021
2185.584866	-2.991200	3.158300	-9.446100	27.794711	0.000262	20.745131
2186.586152	-3.001300	3.157200	-9.475000	27.777603	0.000264	20.721749
2187.585071	-3.023400	3.157000	-9.543800	27.796360	0.000261	20.721185
2188.585805	-2.999800	3.156400	-9.467800	27.831744	0.000260	20.723604
2189.586665	-3.012300	3.155500	-9.504400	27.823613	0.000262	20.698824
2190.586185	-2.984800	3.156800	-9.421400	27.832702	0.000260	20.721724
2191.588155	-2.984800	3.155900	-9.418600	27.824896	0.000262	20.737102
2192.586751	-3.021900	3.154600	-9.531700	27.873568	0.000259	20.707850
2193.587487	-2.998700	3.154500	-9.458200	27.921060	0.000258	20.719615
2194.590331	-3.016000	3.153400	-9.508900	27.960550	0.000259	20.720007
2195.589599	-3.002400	3.153600	-9.467500	27.955555	0.000258	20.732998
2196.587094	-2.996600	3.153100	-9.447900	27.922457	0.000257	20.730505
2197.588469	-2.981800	3.151500	-9.396400	27.925609	0.000254	20.722771
2198.588833	-2.998500	3.151300	-9.448400	27.937865	0.000255	20.725150
2199.590115	-2.999200	3.149400	-9.443000	27.943201	0.000254	20.719615
2200.589708	-3.000000	3.150300	-9.449900	27.938815	0.000255	20.716623
2201.589779	-3.015500	3.149000	-9.494400	27.935226	0.000255	20.718699
2202.590142	-3.007400	3.148100	-9.466900	27.922953	0.000254	20.701604
2203.591790	-3.006900	3.147600	-9.464100	27.952810	0.000254	20.734503
2204.593088	-3.004600	3.146700	-9.453500	27.935534	0.000250	20.712846
2205.591360	-2.989900	3.146400	-9.406200	27.882178	0.000254	20.697549
2206.592008	-2.995100	3.145900	-9.420100	27.838795	0.000250	20.703673
2207.591696	-2.992000	3.143700	-9.404700	27.765621	0.000251	20.708267
2208.591543	-2.992600	3.145400	-9.411300	27.719227	0.000250	20.704727
2209.593267	-3.011600	3.144800	-9.468600	27.722225	0.000252	20.726237
2210.592501	-3.015500	3.141300	-9.470600	27.719731	0.000249	20.715192
2211.592674	-2.992100	3.142500	-9.401000	27.697520	0.000251	20.725559
2212.593538	-3.006100	3.141000	-9.441300	27.701810	0.000251	20.724185
2213.595337	-2.971800	3.143400	-9.340800	27.727205	0.000248	20.732672
2214.594687	-2.994600	3.139800	-9.401000	27.759586	0.000246	20.704564
2215.594488	-2.997800	3.140500	-9.413200	27.783452	0.000246	20.700133
2216.594852	-3.012800	3.141300	-9.463000	27.859386	0.000245	20.705431
2217.598098	-2.997400	3.138500	-9.405700	27.873244	0.000245	20.724120
2218.597387	-2.992900	3.139700	-9.396400	27.927290	0.000244	20.685580
2219.595353	-2.987800	3.139000	-9.377900	27.948774	0.000245	20.708153
2220.597741	-3.011900	3.136000	-9.444700	27.964985	0.000243	20.702659
2221.596540	-2.979300	3.137300	-9.345700	27.990447	0.000243	20.719280
2222.599679	-3.016100	3.134800	-9.453700	28.035230	0.000242	20.680903
2223.598537	-2.981100	3.135700	-9.346700	28.024631	0.000241	20.716231
2224.597054	-3.010000	3.132900	-9.428700	28.050717	0.000241	20.712617
2225.598641	-2.970800	3.134800	-9.311600	28.074869	0.000241	20.702316
2226.598024	-2.986800	3.133800	-9.358200	28.081236	0.000241	20.708725
2227.596197	-2.975100	3.133300	-9.320500	28.054014	0.000240	20.680372
2228.597291	-2.995600	3.132900	-9.384500	28.013058	0.000239	20.701735
2229.601099	-2.982900	3.132400	-9.343100	27.939717	0.000240	20.722747
2230.598265	-2.994900	3.131500	-9.377300	27.896279	0.000240	20.703207
2231.597160	-2.993900	3.130000	-9.370200	27.838917	0.000237	20.697157
2232.598252	-3.007800	3.131400	-9.417700	27.834433	0.000235	20.710663
2233.598415	-3.003200	3.128900	-9.395900	27.809235	0.000237	20.681508
2234.600218	-3.016600	3.126800	-9.431700	27.841622	0.000236	20.692292
2235.599811	-3.013100	3.127300	-9.422000	27.860394	0.000232	20.701228
2236.598751	-3.006400	3.126300	-9.398000	27.817123	0.000235	20.711260
2237.599698	-3.006100	3.125600	-9.394900	27.793533	0.000235	20.697475
2238.598955	-2.984400	3.125500	-9.326300	27.765743	0.000233	20.688000
2239.598117	-3.013000	3.123400	-9.410400	27.760747	0.000233	20.710949
2240.597919	-2.987100	3.122800	-9.326400	27.810291	0.000232	20.697271
2241.599633	-2.995500	3.123000	-9.353800	27.830063	0.000234	20.691090
2242.599066	-2.983200	3.123000	-9.314800	27.833531	0.000232	20.695055
2243.599928	-2.978800	3.122300	-9.297800	27.863951	0.000232	20.698170
2244.599386	-2.971000	3.121400	-9.272900	27.891203	0.000232	20.688613
2245.600319	-2.993300	3.120700	-9.340000	27.864057	0.000230	20.692586
2246.600656	-3.001000	3.118900	-9.359000	27.861823	0.000229	20.691286
2247.605918	-3.013700	3.118200	-9.396200	27.878036	0.000231	20.694328
2248.600814	-2.999500	3.117200	-9.348600	27.903411	0.000228	20.705169
2249.603720	-3.002000	3.117300	-9.357400	27.922230	0.000229	20.716999
2250.601192	-3.014600	3.115200	-9.391000	27.904426	0.000229	20.700975
2251.602288	-2.988700	3.114500	-9.307700	27.896344	0.000229	20.681459
2252.610455	-2.991400	3.114600	-9.316000	27.875323	0.000227	20.684010
2253.603202	-3.023700	3.112600	-9.411000	27.821412	0.000228	20.692815
2254.602218	-3.020800	3.113900	-9.405300	27.767140	0.000226	20.692726
2255.602951	-3.026600	3.112200	-9.419100	27.757384	0.000227	20.688122
2256.613266	-3.009900	3.112200	-9.366700	27.811299	0.000228	20.690224
2257.602606	-3.004900	3.111000	-9.346300	27.870165	0.000226	20.689251
2258.609314	-2.995500	3.110000	-9.315100	27.902469	0.000225	20.691417
2259.605870	-2.970400	3.110700	-9.239500	27.934235	0.000224	20.664592
2260.606922	-2.999200	3.107900	-9.320600	28.003905	0.000225	20.690624
2261.609750	-2.996600	3.109100	-9.315300	28.011766	0.000226	20.680519
2262.611813	-2.991800	3.106700	-9.293500	28.052617	0.000224	20.675172
2263.607344	-3.008600	3.105300	-9.340700	28.066529	0.000221	20.705300
2264.611956	-3.004700	3.105700	-9.331100	28.090575	0.000222	20.683986
2265.609742	-2.998000	3.103700	-9.304300	28.088488	0.000224	20.702275
2266.608783	-2.987600	3.105200	-9.276300	28.112185	0.000222	20.684402
2267.613164	-3.006400	3.103500	-9.329000	28.113671	0.000222	20.670250
2268.613363	-3.018600	3.101900	-9.363000	28.131374	0.000222	20.703722
2269.611517	-3.008600	3.101700	-9.330600	28.129239	0.000220	20.695407
2270.613646	-2.981600	3.101500	-9.246500	28.095432	0.000220	20.694565
2271.618142	-2.999800	3.100300	-9.299300	28.026215	0.000222	20.679889
2272.611325	-3.010600	3.097600	-9.325400	27.984088	0.000220	20.692014
2273.614049	-2.997500	3.098900	-9.287100	27.942308	0.000219	20.685522
2274.615589	-2.997000	3.097900	-9.283800	27.902891	0.000219	20.685204
2275.615938	-2.998100	3.096000	-9.280600	27.869962	0.000220	20.676243
2276.611589	-3.014700	3.095800	-9.331800	27.864536	0.000219	20.681214
2277.612116	-2.998800	3.095800	-9.282400	27.853895	0.000220	20.679513
2278.611907	-2.972900	3.094200	-9.197600	27.865576	0.000219	20.690796
2279.616403	-2.986200	3.094500	-9.240000	27.898749	0.000219	20.679137
2280.612515	-3.024700	3.091900	-9.350600	27.877037	0.000218	20.687158
2281.612581	-2.998000	3.091300	-9.266300	27.887954	0.000217	20.681075
2282.616002	-3.008200	3.090000	-9.294200	27.919266	0.000215	20.700738
2283.612952	-3.003800	3.090900	-9.283200	27.936745	0.000217	20.693674
2284.614009	-2.994300	3.089100	-9.248600	27.937370	0.000216	20.675810
2285.620774	-3.039000	3.087300	-9.381100	27.984039	0.000217	20.673471
2286.614242	-3.018200	3.088300	-9.320800	28.006252	0.000217	20.664535
2287.614702	-3.013900	3.085100	-9.296900	28.044650	0.000217	20.688016
2288.617229	-2.999100	3.084500	-9.249400	28.077622	0.000214	20.676161
2289.614896	-2.992800	3.084900	-9.230400	28.093402	0.000217	20.659801
2290.616288	-3.002800	3.085100	-9.262600	28.092232	0.000215	20.694663
2291.618369	-3.028400	3.081900	-9.332700	28.070200	0.000214	20.700934
2292.616135	-3.002200	3.082600	-9.254200	28.038568	0.000213	20.680944
2293.615941	-3.015000	3.079700	-9.284200	27.945070	0.000214	20.687354
2294.619176	-3.009600	3.080200	-9.269300	27.899829	0.000214	20.684967
2295.617919	-3.005200	3.079000	-9.252700	27.876144	0.000215	20.700485
2296.616809	-3.028200	3.076500	-9.315500	27.856235	0.000215	20.682817
2297.621405	-2.999200	3.078200	-9.231300	27.838828	0.000213	20.695170
2298.617808	-3.013800	3.075900	-9.269100	27.843092	0.000212	20.691875
2299.617815	-3.000600	3.075300	-9.226800	27.829819	0.000211	20.691794
2300.619835	-2.990700	3.074700	-9.194300	27.836659	0.000212	20.684926
2301.620420	-3.008400	3.073100	-9.244300	27.886037	0.000211	20.675352
2302.619758	-2.968300	3.074200	-9.122700	27.875145	0.000212	20.676243
2303.619225	-3.005700	3.071500	-9.231200	27.842589	0.000209	20.682359
2304.619228	-3.017300	3.070100	-9.262300	27.851711	0.000213	20.682530
2305.619340	-2.998400	3.068100	-9.198700	27.853294	0.000212	20.692660
2306.620088	-3.007900	3.068700	-9.229200	27.856795	0.000210	20.660619
2307.620822	-3.006200	3.067700	-9.221600	27.885899	0.000210	20.686120
2308.619118	-2.984500	3.067600	-9.154000	27.869483	0.000210	20.702790
2309.618927	-2.996600	3.066000	-9.185500	27.836261	0.000211	20.694009
2310.619566	-2.987600	3.064800	-9.155400	27.863627	0.000210	20.691679
2311.632557	-2.957200	3.066600	-9.067300	27.873374	0.000208	20.669244
2312.622830	-2.979800	3.064400	-9.130200	27.901193	0.000211	20.678753
2313.629641	-2.986900	3.062900	-9.147800	27.961785	0.000210	20.680470
2314.622351	-3.003100	3.061700	-9.193100	27.991316	0.000209	20.685539
2315.622222	-2.981600	3.061200	-9.126700	28.055322	0.000208	20.695914
2316.627277	-3.013100	3.058600	-9.214300	28.061380	0.000208	20.693004
2317.621997	-3.003100	3.060300	-9.190000	28.055297	0.000209	20.687828
2318.624948	-2.995100	3.057600	-9.156400	28.042563	0.000207	20.702986
2319.624909	-3.058400	3.054900	-9.341100	28.052349	0.000208	20.695293
2320.625326	-3.026000	3.056300	-9.247200	28.039485	0.000207	20.697042
2321.624074	-3.017800	3.052800	-9.211400	28.075673	0.000208	20.697909
2322.626578	-3.013100	3.053300	-9.199200	28.084282	0.000207	20.689978
2323.624582	-3.029500	3.053000	-9.247700	28.042912	0.000209	20.698122
2324.626000	-3.031700	3.050300	-9.246300	28.010508	0.000209	20.707703
2325.629684	-3.025000	3.049900	-9.224500	28.001233	0.000207	20.711170
2326.629855	-2.976100	3.049400	-9.073900	28.019685	0.000207	20.706510
2327.626918	-2.979800	3.048600	-9.083300	28.031827	0.000208	20.699291
2328.629127	-3.012500	3.046500	-9.177100	28.025711	0.000207	20.699773
2329.628876	-2.990200	3.046600	-9.107900	28.027425	0.000206	20.684901
2330.627362	-2.997200	3.046000	-9.128500	28.022812	0.000207	20.704441
2331.629152	-2.975800	3.044200	-9.057600	28.064068	0.000206	20.696184
2332.628854	-3.015700	3.042600	-9.175400	28.120785	0.000205	20.728151
2333.629248	-3.003800	3.041300	-9.134000	28.104706	0.000205	20.696789
2334.631725	-3.016200	3.040200	-9.168900	28.106046	0.000203	20.705251
2335.631649	-2.988200	3.039900	-9.083300	28.115247	0.000201	20.708350
2336.631357	-2.999100	3.038700	-9.113000	28.126600	0.000204	20.707450
2337.639043	-3.003600	3.037000	-9.120300	28.138602	0.000203	20.716689
2338.631731	-3.001100	3.037400	-9.114200	28.137360	0.000202	20.708799
2339.633498	-2.996000	3.036400	-9.096000	28.132755	0.000204	20.716967
2340.635276	-2.989500	3.033000	-9.066400	28.133681	0.000205	20.681860
2341.635626	-3.001800	3.031800	-9.100000	28.168486	0.000203	20.696986
2342.634995	-2.979200	3.031500	-9.030600	28.240170	0.000204	20.725061
2343.637492	-3.032200	3.029800	-9.186300	28.229557	0.000204	20.712478
2344.636209	-3.010400	3.030000	-9.121200	28.218482	0.000206	20.712233
2345.637177	-2.975800	3.029100	-9.012600	28.221657	0.000203	20.705472
2346.639397	-3.003900	3.026800	-9.091100	28.256077	0.000204	20.723532
2347.640182	-2.996800	3.025300	-9.065500	28.278893	0.000203	20.695767
2348.637755	-3.008000	3.023900	-9.095300	28.322932	0.000202	20.695538
2349.639210	-2.987400	3.023400	-9.030600	28.327641	0.000203	20.702177
2350.638689	-2.997400	3.022800	-9.059900	28.312353	0.000201	20.721872
2351.638375	-2.999900	3.021500	-9.063200	28.299792	0.000201	20.709225
2352.640585	-3.009400	3.019200	-9.085600	28.284796	0.000201	20.719730
2353.639003	-2.984000	3.018600	-9.006200	28.321422	0.000201	20.709666
2354.638592	-2.980800	3.018000	-8.995400	28.357633	0.000201	20.710565
2355.639694	-3.008100	3.016500	-9.072400	28.398114	0.000200	20.720033
2356.640061	-2.983800	3.014200	-8.992600	28.382842	0.000202	20.721251
2357.640199	-2.975600	3.013600	-8.965900	28.397391	0.000201	20.719779
2358.642600	-2.996500	3.012600	-9.026300	28.365704	0.000200	20.710631
2359.641587	-2.992200	3.011100	-9.007800	28.402847	0.000201	20.724799
2360.641656	-2.993700	3.010300	-9.010800	28.432585	0.000199	20.699267
2361.644291	-2.991400	3.008500	-8.999100	28.392090	0.000199	20.718234
2362.646965	-3.018400	3.008300	-9.079400	28.361384	0.000200	20.711023
2363.641461	-3.020900	3.005300	-9.078100	28.292704	0.000199	20.731013
2364.645321	-3.015600	3.003500	-9.056400	28.272560	0.000198	20.708358
2365.648075	-3.031500	3.001800	-9.099400	28.279323	0.000199	20.729394
2366.642567	-3.008900	3.001000	-9.029200	28.296999	0.000200	20.732493
2367.645836	-2.994800	3.000800	-8.986200	28.320846	0.000200	20.712879
2368.646709	-2.999600	2.998400	-8.993000	28.302399	0.000200	20.726050
2369.643835	-2.992000	2.998600	-8.971000	28.266730	0.000199	20.709601
2370.647346	-2.980900	2.998500	-8.937500	28.262995	0.000200	20.729549
2371.648741	-2.965500	2.996700	-8.885900	28.275532	0.000200	20.733163
2372.646171	-2.990400	2.994300	-8.953500	28.279356	0.000201	20.717572
2373.648017	-2.976200	2.993400	-8.908300	28.259049	0.000200	20.735060
2374.648005	-3.000800	2.992700	-8.978800	28.294564	0.000198	20.736204
2375.648501	-2.980400	2.990300	-8.912000	28.361806	0.000199	20.705758
2376.646401	-3.017700	2.987800	-9.015200	28.433283	0.000199	20.743595
2377.647506	-3.004400	2.986300	-8.970600	28.440013	0.000200	20.742311
2378.648391	-3.017000	2.985700	-9.006700	28.454488	0.000197	20.728911
2379.648391	-3.022100	2.982800	-9.012300	28.469287	0.000198	20.709200
2380.655998	-2.996200	2.984200	-8.939900	28.510697	0.000199	20.727669
2381.648459	-2.993100	2.980900	-8.921100	28.528482	0.000198	20.746055
2382.651589	-2.995600	2.979700	-8.925200	28.506159	0.000197	20.733531
2383.653121	-3.006400	2.979900	-8.957700	28.474312	0.000199	20.748876
2384.646089	-2.987200	2.977100	-8.892600	28.503033	0.000199	20.741763
2385.649980	-3.025100	2.976300	-9.001200	28.512231	0.000198	20.723050
2386.653693	-3.029000	2.973100	-9.004800	28.542850	0.000199	20.738714
2387.647939	-3.020000	2.972100	-8.974400	28.543670	0.000198	20.722469
2388.650177	-3.003600	2.971500	-8.923400	28.559800	0.000197	20.748197
2389.649063	-3.020100	2.970200	-8.968800	28.541097	0.000198	20.753070
2390.648012	-3.023600	2.968600	-8.974900	28.531129	0.000197	20.732599
2391.649975	-2.992200	2.967800	-8.879200	28.477511	0.000197	20.728388
2392.648959	-2.995500	2.966400	-8.885300	28.483404	0.000196	20.732427
2393.647779	-2.982100	2.964600	-8.840000	28.504292	0.000197	20.747298
2394.649593	-2.991400	2.964100	-8.865400	28.496620	0.000197	20.754272
2395.648293	-2.994600	2.962600	-8.870900	28.511208	0.000198	20.727235
2396.648565	-3.003100	2.958900	-8.885000	28.464205	0.000198	20.761458
2397.649328	-3.005900	2.958000	-8.890200	28.414318	0.000196	20.752473
2398.649482	-3.013700	2.955500	-8.905800	28.411290	0.000199	20.748475
2399.650619	-3.004100	2.956100	-8.879700	28.392877	0.000197	20.753168
2400.650161	-2.988000	2.955800	-8.830300	28.341501	0.000196	20.745058
2401.649482	-3.000100	2.952000	-8.855500	28.334388	0.000196	20.735525
2402.650013	-3.003000	2.952200	-8.864000	28.360646	0.000197	20.731144
2403.653399	-3.004700	2.948400	-8.857200	28.404779	0.000197	20.737651
2404.649574	-2.993200	2.949500	-8.826700	28.409885	0.000198	20.737103
2405.651488	-2.980900	2.947800	-8.785800	28.452466	0.000197	20.736360
2406.653744	-2.993100	2.946300	-8.817700	28.449650	0.000197	20.763870
2407.651398	-3.006800	2.944300	-8.852000	28.415447	0.000197	20.748868
2408.651716	-2.981600	2.943600	-8.775400	28.373140	0.000196	20.757477
2409.654987	-3.019600	2.940800	-8.879000	28.373733	0.000197	20.764712
2410.653223	-3.017800	2.938200	-8.865900	28.422266	0.000195	20.752890
2411.659749	-2.996000	2.937100	-8.799500	28.435207	0.000196	20.746955
2412.657215	-3.015500	2.936000	-8.852600	28.425319	0.000196	20.763551
2413.656279	-2.999600	2.934500	-8.801700	28.410170	0.000195	20.739761
2414.655457	-3.018200	2.931800	-8.847200	28.364876	0.000196	20.752474
2415.657969	-3.017300	2.929500	-8.838000	28.431091	0.000196	20.760829
2416.655760	-2.969500	2.929800	-8.698500	28.423736	0.000196	20.749628
2417.657205	-3.003900	2.929000	-8.796000	28.401832	0.000195	20.757918
2418.661633	-2.999900	2.926200	-8.777100	28.396230	0.000197	20.759864
2419.657351	-2.991300	2.924600	-8.746900	28.426269	0.000194	20.765930
2420.657979	-2.999100	2.922900	-8.764400	28.442530	0.000196	20.771399
2421.661125	-3.004900	2.920600	-8.775200	28.458669	0.000195	20.751615
2422.660951	-2.972300	2.920800	-8.680800	28.493877	0.000194	20.754828
2423.660280	-3.008400	2.916900	-8.773500	28.566692	0.000197	20.782166
2424.661818	-3.006900	2.917600	-8.771700	28.601312	0.000195	20.756341
2425.662393	-2.973200	2.916100	-8.669400	28.650784	0.000195	20.769658
2426.662141	-3.009900	2.912400	-8.765100	28.665963	0.000196	20.748909
2427.662486	-2.975600	2.911800	-8.662700	28.700595	0.000194	20.780948
2428.660185	-2.990500	2.907500	-8.693400	28.690888	0.000196	20.772119
2429.660887	-3.012600	2.908500	-8.760500	28.662269	0.000194	20.778856
2430.668480	-3.006600	2.904900	-8.732800	28.618244	0.000197	20.768653
2431.662535	-3.001100	2.903700	-8.712900	28.594486	0.000195	20.779338
2432.664500	-2.992900	2.903400	-8.688400	28.619097	0.000196	20.767615
2433.663718	-2.961900	2.902100	-8.595200	28.641637	0.000196	20.777041
2434.669370	-2.952700	2.899700	-8.560600	28.656353	0.000194	20.768628
2435.666831	-3.008700	2.897500	-8.716900	28.690012	0.000195	20.758908
2436.664785	-3.018400	2.895500	-8.738400	28.685426	0.000195	20.790326
2437.665578	-2.995300	2.894300	-8.667900	28.711171	0.000195	20.774531
2438.670969	-2.989200	2.892200	-8.644000	28.745462	0.000194	20.792001
2439.668094	-2.975700	2.891900	-8.603900	28.721722	0.000194	20.763822
2440.665602	-2.977900	2.889100	-8.601900	28.709093	0.000195	20.768171
2441.666212	-3.009300	2.886600	-8.685600	28.698242	0.000197	20.769569
2442.672674	-3.003500	2.884200	-8.660900	28.726559	0.000197	20.765849
2443.666738	-3.003200	2.882000	-8.654300	28.778315	0.000196	20.760609
2444.666252	-3.018300	2.880200	-8.693600	28.816612	0.000195	20.769790
2445.666155	-2.995000	2.880300	-8.625800	28.830286	0.000196	20.778349
2446.665282	-3.012900	2.876900	-8.666900	28.864053	0.000195	20.769217
2447.666741	-2.999700	2.875400	-8.624500	28.879935	0.000193	20.773836
2448.669567	-3.005900	2.870700	-8.628100	28.858430	0.000196	20.766397
2449.666434	-2.964600	2.872200	-8.513400	28.902023	0.000195	20.762898
2450.668489	-3.009600	2.867800	-8.629100	28.919737	0.000195	20.791176
2451.671635	-2.972600	2.868200	-8.524600	28.841088	0.000195	20.790653
2452.671536	-3.011900	2.865400	-8.629500	28.814656	0.000198	20.776828
2453.668399	-3.007600	2.864900	-8.614900	28.779150	0.000195	20.776150
2454.673208	-2.998500	2.860300	-8.575100	28.810314	0.000196	20.783834
2455.668874	-3.010300	2.859900	-8.607900	28.814234	0.000195	20.790154
2456.669396	-3.026800	2.857600	-8.648200	28.838036	0.000195	20.776199
2457.670683	-3.024700	2.855500	-8.636100	28.829191	0.000194	20.784832
2458.668338	-3.013300	2.852500	-8.594500	28.866107	0.000196	20.780769
2459.669593	-2.977100	2.850600	-8.485800	28.892310	0.000195	20.776820
2460.670877	-3.000100	2.848500	-8.544400	28.894168	0.000194	20.804297
2461.668346	-3.004100	2.846900	-8.551500	28.887157	0.000194	20.784431
2462.667961	-3.008100	2.844800	-8.556500	28.838945	0.000194	20.800348
2463.672203	-3.039000	2.841900	-8.635900	28.783606	0.000195	20.785379
2464.668746	-3.009400	2.840700	-8.547100	28.731283	0.000194	20.796686
2465.670039	-2.994100	2.839600	-8.500200	28.696984	0.000195	20.778733
2466.668719	-2.990900	2.837200	-8.484200	28.643593	0.000194	20.815521
2467.669301	-3.031900	2.833500	-8.589800	28.633050	0.000196	20.802531
2468.670339	-2.978800	2.833300	-8.438100	28.676677	0.000194	20.802850
2469.670808	-2.998200	2.829900	-8.483500	28.740998	0.000195	20.799833
2470.671799	-2.963900	2.830100	-8.387500	28.738693	0.000194	20.782338
2471.671537	-2.993800	2.827100	-8.462800	28.773940	0.000194	20.790816
2472.670730	-2.994000	2.824100	-8.453800	28.771611	0.000194	20.798901
2473.670368	-2.998700	2.821500	-8.459800	28.782121	0.000195	20.793367
2474.671836	-3.028300	2.818200	-8.533100	28.763365	0.000193	20.791069
2475.669903	-3.011300	2.816700	-8.480600	28.784247	0.000194	20.821587
2476.671393	-3.018200	2.813900	-8.491000	28.803797	0.000195	20.798133
2477.671130	-3.022700	2.811100	-8.496100	28.797630	0.000193	20.790497
2478.673113	-2.978500	2.810500	-8.369900	28.781544	0.000193	20.801795
2479.671659	-2.983300	2.807400	-8.374500	28.832412	0.000192	20.796612
2480.672443	-2.995100	2.805800	-8.402000	28.859809	0.000194	20.810461
2481.672752	-3.020000	2.800900	-8.457600	28.906032	0.000193	20.821464
2482.672712	-2.991700	2.799100	-8.373100	28.936940	0.000194	20.815619
2483.673160	-3.024000	2.796100	-8.455200	28.966866	0.000195	20.814949
2484.670922	-3.016200	2.794400	-8.427500	28.992377	0.000194	20.803193
2485.671804	-3.025000	2.791100	-8.441400	29.023242	0.000196	20.799678
2486.670172	-2.998300	2.789700	-8.362900	29.074528	0.000192	20.803463
2487.673133	-3.008500	2.786300	-8.381300	29.075242	0.000194	20.816510
2488.671395	-2.984300	2.786100	-8.313700	29.007704	0.000192	20.816265
2489.673019	-3.012000	2.781600	-8.376900	28.962078	0.000195	20.798271
2490.674335	-2.973100	2.780000	-8.263300	28.883050	0.000193	20.815856
2491.674534	-2.965200	2.777400	-8.234600	28.817504	0.000195	20.825690
2492.672557	-2.978500	2.775000	-8.263300	28.817106	0.000193	20.817229
2493.674011	-3.030800	2.770600	-8.395800	28.843984	0.000193	20.806847
2494.675160	-2.990800	2.769000	-8.280400	28.899304	0.000194	20.814213
2495.674517	-3.001400	2.767000	-8.304400	28.913789	0.000193	20.833072
2496.689442	-2.990700	2.763300	-8.263500	28.970339	0.000195	20.821766
2497.676189	-2.987500	2.761200	-8.247800	28.969276	0.000195	20.820221
2498.676888	-3.010500	2.755900	-8.295800	28.996198	0.000194	20.816052
2499.678156	-2.997100	2.754500	-8.254100	29.038050	0.000194	20.824554
2500.676200	-2.991400	2.750300	-8.226400	29.087542	0.000194	20.813256
2501.676537	-3.006900	2.746600	-8.257200	29.125155	0.000195	20.824603
2502.676289	-2.993700	2.743900	-8.213700	29.174862	0.000194	20.810207
2503.678583	-2.981500	2.742900	-8.177500	29.154183	0.000192	20.835361
2504.679419	-3.005600	2.738300	-8.229000	29.168697	0.000195	20.839554
2505.679183	-2.989400	2.735400	-8.176300	29.179000	0.000194	20.825755
2506.679905	-2.997900	2.731200	-8.187300	29.191647	0.000195	20.825698
2507.679782	-3.018100	2.729400	-8.236000	29.170790	0.000192	20.843086
2508.678551	-3.014600	2.724200	-8.210900	29.159699	0.000193	20.831437
2509.681266	-3.039500	2.720200	-8.266700	29.129714	0.000192	20.810705
2510.680872	-2.971200	2.721400	-8.083700	29.125374	0.000196	20.823875
2511.681143	-3.019500	2.715300	-8.197400	29.158085	0.000193	20.839293
2512.681782	-3.006800	2.712100	-8.153800	29.179632	0.000195	20.853419
2513.680199	-3.002300	2.708000	-8.129300	29.217818	0.000193	20.841165
2514.679948	-3.024500	2.703800	-8.176900	29.222377	0.000194	20.834380
2515.685486	-3.001900	2.701500	-8.108500	29.200822	0.000194	20.829254
2516.681539	-3.000200	2.698200	-8.094300	29.226603	0.000194	20.824414
2517.678929	-3.012100	2.694600	-8.115200	29.214403	0.000193	20.849102
2518.682947	-3.011800	2.690000	-8.100700	29.245229	0.000194	20.833701
2519.679114	-3.008900	2.686900	-8.083800	29.270903	0.000194	20.838238
2520.683177	-3.003500	2.682200	-8.054700	29.281952	0.000193	20.841786
2521.687451	-3.016700	2.678200	-8.078700	29.277393	0.000193	20.846200
2522.680213	-2.982200	2.675800	-7.978700	29.288312	0.000195	20.851988
2523.680826	-3.011800	2.670700	-8.042500	29.284329	0.000195	20.851293
2524.683621	-3.000700	2.666600	-8.000500	29.318893	0.000193	20.847247
2525.680845	-2.994400	2.664900	-7.978500	29.335805	0.000195	20.856705
2526.680662	-3.013500	2.658400	-8.010100	29.343722	0.000193	20.840028
2527.682110	-2.980000	2.655100	-7.911200	29.347145	0.000195	20.851538
2528.687370	-2.978100	2.650500	-7.892300	29.337590	0.000197	20.832426
2529.681446	-3.009500	2.646400	-7.963900	29.341807	0.000198	20.835728
2530.687317	-3.005400	2.643300	-7.943800	29.325877	0.000195	20.849070
2531.683640	-2.985400	2.638500	-7.875700	29.331076	0.000195	20.839611
2532.686165	-3.039000	2.632800	-8.000000	29.309329	0.000194	20.845195
2533.684165	-3.027400	2.628000	-7.955500	29.306084	0.000195	20.823908
2534.682761	-2.964400	2.625900	-7.782400	29.283972	0.000195	20.809683
2535.683713	-3.013200	2.619800	-7.892200	29.234294	0.000196	20.823155
2536.686980	-3.011500	2.613600	-7.869300	29.200993	0.000197	20.821365
2537.682396	-3.020700	2.609600	-7.881800	29.266580	0.000197	20.829139
2538.684193	-3.045500	2.604500	-7.930700	29.293454	0.000197	20.820188
2539.686208	-3.015200	2.598400	-7.833600	29.348986	0.000196	20.821152
2540.688696	-2.980200	2.595600	-7.734500	29.382242	0.000196	20.834755
2541.687924	-2.985700	2.588600	-7.727400	29.369288	0.000193	20.811743
2542.691349	-3.039500	2.582800	-7.848200	29.392161	0.000195	20.819150
2543.686786	-2.987700	2.578700	-7.703600	29.394384	0.000195	20.833243
2544.685957	-2.998300	2.573600	-7.714700	29.348726	0.000195	20.829425
2545.692394	-3.018200	2.566100	-7.744200	29.316783	0.000195	20.808612
2546.689715	-2.968300	2.563100	-7.607100	29.296991	0.000195	20.806208
2547.688497	-3.025800	2.556600	-7.734900	29.286226	0.000195	20.811481
2548.688887	-2.990700	2.549900	-7.624700	29.266855	0.000195	20.811400
2549.693081	-3.027300	2.544400	-7.701200	29.283225	0.000195	20.800396
2550.693022	-3.028300	2.539000	-7.688000	29.290574	0.000194	20.814915
2551.689523	-2.985700	2.534100	-7.564900	29.289576	0.000194	20.816754
2552.697247	-3.021300	2.526500	-7.632200	29.319435	0.000195	20.809862
2553.690602	-3.000700	2.521100	-7.564200	29.371064	0.000195	20.816378
2554.691955	-3.011400	2.514400	-7.571300	29.414612	0.000192	20.819493
2555.694417	-3.002200	2.508400	-7.529900	29.460145	0.000194	20.829351
2556.696013	-2.997100	2.502600	-7.498200	29.526146	0.000195	20.820490
2557.693709	-2.947100	2.498200	-7.361700	29.533802	0.000193	20.803077
