LabVIEW Measurement	
Writer_Version	2
Reader_Version	2
Separator	Tab
Decimal_Separator	.
Multi_Headings	No
X_Columns	One
Time_Pref	Absolute
Operator	admin
Description	Clolumns are: time, Current, Voltage, Power, Battery Temp, and Chamber Temp
Date	2024/08/16
Time	13:06:06.104549407958984375
***End_of_Header***	
	
Channels	6						
Samples	1	1	1	1	1	1	
Date	2024/09/17	2024/09/17	2024/09/17	2024/09/17	2024/09/17	2024/09/17	
Time	00:36:06.2708783149719238281	00:36:06.27797698974609375	00:36:06.2900142669677734375	00:36:06.2538809776306152344	00:36:06.2538809776306152344	00:36:06.2538809776306152344	
X_Dimension	Time	Time	Time	Time	Time	Time	
X0	0.0000000000000000E+0	0.0000000000000000E+0	0.0000000000000000E+0	0.0000000000000000E+0	0.0000000000000000E+0	0.0000000000000000E+0	
Delta_X	1.000000	1.000000	1.000000	1.000000	1.000000	1.000000	
***End_of_Header***							
X_Value	Untitled	Untitled 1	Untitled 2	Untitled 3	Untitled 4	Untitled 5	Comment
0.000000	0.030306	4.092700	0.124020	21.071008	0.000943	20.820687
1.003586	-3.002400	3.908300	-11.734000	21.067747	0.000944	20.820744
2.000593	-2.986500	3.903700	-11.658000	21.085017	0.000943	20.815259
3.002663	-3.003500	3.896500	-11.702000	21.094073	0.000940	20.810093
4.000922	-2.998900	3.893500	-11.675000	21.103954	0.000941	20.821873
5.003483	-2.989500	3.889600	-11.627000	21.069946	0.000941	20.803504
6.000082	-3.007600	3.887400	-11.690000	21.081282	0.000938	20.811050
6.999998	-2.982500	3.884400	-11.584000	21.077139	0.000937	20.813543
8.005694	-2.996700	3.882500	-11.634000	21.092112	0.000936	20.823778
9.002575	-3.006900	3.879800	-11.665000	21.081536	0.000934	20.839752
10.004086	-3.005900	3.878100	-11.656000	21.085083	0.000935	20.812955
11.002989	-3.017900	3.876500	-11.698000	21.101862	0.000935	20.808401
12.002675	-3.000900	3.874500	-11.626000	21.108736	0.000936	20.827130
13.003752	-2.976300	3.874700	-11.530000	21.113272	0.000932	20.813649
14.002113	-2.995100	3.871600	-11.594000	21.099476	0.000932	20.824032
15.002333	-2.988000	3.869700	-11.561000	21.118396	0.000932	20.809767
16.007918	-3.004400	3.868400	-11.620000	21.124109	0.000931	20.834447
17.002657	-2.982600	3.869500	-11.539000	21.131776	0.000933	20.818882
18.004669	-3.008300	3.866200	-11.630000	21.152477	0.000932	20.826313
19.002903	-2.970200	3.867900	-11.487000	21.144198	0.000929	20.813290
20.001885	-2.987900	3.865200	-11.547000	21.164956	0.000930	20.837374
21.003371	-2.996000	3.863800	-11.575000	21.146396	0.000931	20.829240
22.003919	-2.983000	3.863900	-11.524000	21.161598	0.000928	20.825006
23.009218	-3.026100	3.861500	-11.684000	21.164295	0.000928	20.822014
24.008718	-3.004600	3.862200	-11.603000	21.154210	0.000929	20.837529
25.002518	-3.003600	3.860700	-11.594000	21.161696	0.000927	20.840276
26.004024	-3.002600	3.859700	-11.588000	21.169231	0.000928	20.828848
27.007136	-3.009100	3.859500	-11.612000	21.194255	0.000925	20.828276
28.007411	-2.997900	3.858700	-11.567000	21.191689	0.000926	20.835192
29.007290	-2.994400	3.858400	-11.552000	21.220667	0.000926	20.842369
30.008367	-3.008300	3.857800	-11.605000	21.221280	0.000926	20.850569
31.005692	-2.999200	3.857500	-11.567000	21.229641	0.000925	20.845656
32.018440	-3.012800	3.858000	-11.621000	21.215470	0.000928	20.840964
33.005322	-3.026100	3.855800	-11.667000	21.224754	0.000925	20.837923
34.005391	-2.988900	3.858200	-11.531000	21.233686	0.000927	20.826944
35.006028	-2.994400	3.855900	-11.544000	21.247783	0.000927	20.808330
36.005010	-2.978600	3.855200	-11.482000	21.264127	0.000925	20.822783
37.010934	-3.009600	3.853600	-11.595000	21.261986	0.000926	20.817797
38.007897	-2.998800	3.853600	-11.555000	21.268973	0.000926	20.830476
39.009084	-3.001600	3.854400	-11.568000	21.258726	0.000927	20.827812
40.009654	-2.984200	3.854100	-11.500000	21.273550	0.000925	20.824624
41.010569	-3.003000	3.851400	-11.564000	21.296871	0.000927	20.839420
42.014355	-3.016900	3.849800	-11.614000	21.304781	0.000928	20.827419
43.006413	-3.015500	3.852100	-11.615000	21.312447	0.000926	20.806165
44.015948	-3.006600	3.850100	-11.575000	21.318910	0.000926	20.815951
45.013589	-3.031600	3.849900	-11.671000	21.311458	0.000927	20.809918
46.010869	-3.012100	3.849400	-11.594000	21.325145	0.000925	20.808438
47.015058	-3.019800	3.849100	-11.621000	21.326878	0.000926	20.816335
48.009562	-2.975000	3.851000	-11.455000	21.314580	0.000928	20.813041
49.010556	-2.982400	3.850000	-11.482000	21.329755	0.000925	20.800248
50.010973	-2.995700	3.848500	-11.528000	21.348541	0.000926	20.792964
51.014825	-3.000800	3.848700	-11.547000	21.371485	0.000928	20.809755
52.010957	-3.006800	3.847800	-11.568000	21.362367	0.000926	20.810589
53.021426	-3.005400	3.846700	-11.558000	21.362685	0.000926	20.805218
54.014810	-3.005400	3.846400	-11.558000	21.362522	0.000926	20.815961
55.016026	-2.998800	3.846600	-11.534000	21.377859	0.000926	20.805227
56.018093	-3.021400	3.844900	-11.615000	21.402551	0.000927	20.801008
57.014541	-2.990400	3.846100	-11.500000	21.397690	0.000928	20.812266
58.014782	-3.016100	3.844600	-11.594000	21.394079	0.000925	20.791109
59.015636	-3.003900	3.845400	-11.550000	21.397216	0.000924	20.802783
60.017487	-3.014200	3.844500	-11.588000	21.406360	0.000925	20.808612
61.015981	-3.001800	3.843800	-11.537000	21.412650	0.000923	20.803052
62.017542	-2.992200	3.844700	-11.503000	21.440414	0.000925	20.785787
63.016459	-2.999500	3.842800	-11.526000	21.441918	0.000925	20.806731
64.019949	-2.990400	3.843800	-11.494000	21.428698	0.000924	20.787340
65.022423	-3.000600	3.841900	-11.527000	21.434932	0.000925	20.782198
66.021772	-2.998600	3.843800	-11.525000	21.426704	0.000926	20.794829
67.018514	-3.001400	3.842200	-11.531000	21.468260	0.000926	20.778086
68.018561	-2.989500	3.843000	-11.487000	21.460539	0.000924	20.799285
69.026810	-3.002900	3.842300	-11.537000	21.483570	0.000926	20.792458
70.021612	-2.985600	3.841600	-11.468000	21.470833	0.000926	20.799154
71.021906	-3.006700	3.840300	-11.545000	21.506529	0.000927	20.809741
72.025386	-3.012300	3.840200	-11.566000	21.516089	0.000927	20.786589
73.021448	-3.013900	3.839500	-11.570000	21.491937	0.000926	20.811261
74.022066	-2.983200	3.841300	-11.459000	21.502812	0.000925	20.785632
75.021403	-3.015400	3.840000	-11.577000	21.520198	0.000928	20.783115
76.020447	-2.988300	3.839900	-11.473000	21.524838	0.000927	20.789181
77.018908	-2.998800	3.840400	-11.515000	21.532289	0.000926	20.791420
78.022606	-3.013500	3.838100	-11.565000	21.552313	0.000928	20.771628
79.025559	-2.987200	3.838400	-11.464000	21.531047	0.000926	20.789704
80.022141	-2.988500	3.838400	-11.468000	21.559552	0.000927	20.772233
81.022364	-2.992500	3.838000	-11.485000	21.566651	0.000927	20.786450
82.028264	-2.990100	3.838100	-11.475000	21.574314	0.000926	20.792696
83.025380	-3.011400	3.838500	-11.558000	21.586340	0.000927	20.781022
84.021911	-3.000400	3.837600	-11.514000	21.575932	0.000926	20.780564
85.026949	-2.993200	3.838800	-11.489000	21.603422	0.000928	20.790530
86.023436	-3.027100	3.835800	-11.609000	21.607834	0.000928	20.769339
87.026509	-3.030200	3.835200	-11.620000	21.591928	0.000929	20.775234
88.029115	-3.002600	3.835800	-11.517000	21.590049	0.000929	20.770508
89.029181	-2.993200	3.837100	-11.485000	21.595245	0.000928	20.771915
90.026719	-2.990300	3.835800	-11.470000	21.638983	0.000928	20.767794
91.028143	-2.988000	3.835600	-11.459000	21.631729	0.000929	20.750577
92.028066	-2.990800	3.836400	-11.473000	21.640813	0.000927	20.759195
93.023267	-2.988200	3.836100	-11.462000	21.635119	0.000928	20.771040
94.037186	-2.994200	3.834000	-11.479000	21.651637	0.000928	20.778562
95.028330	-2.995600	3.834400	-11.485000	21.668294	0.000929	20.776739
96.025888	-2.996500	3.834300	-11.488000	21.674985	0.000930	20.781064
97.027858	-3.015800	3.834000	-11.561000	21.693887	0.000929	20.758255
98.028125	-3.007700	3.831200	-11.521000	21.688627	0.000931	20.757258
99.028617	-2.995200	3.833900	-11.481000	21.711646	0.000931	20.765597
100.031748	-3.010200	3.832200	-11.535000	21.726464	0.000931	20.764305
101.031271	-2.992300	3.833900	-11.471000	21.718001	0.000932	20.778121
102.025459	-3.020700	3.830900	-11.571000	21.723368	0.000933	20.749826
103.026257	-2.992900	3.831400	-11.465000	21.730230	0.000933	20.750530
104.033008	-3.022400	3.832600	-11.583000	21.718165	0.000931	20.759793
105.027128	-3.010200	3.831200	-11.531000	21.733277	0.000932	20.763537
106.029867	-3.013600	3.830900	-11.543000	21.744305	0.000933	20.756082
107.033083	-3.016900	3.831500	-11.558000	21.763411	0.000930	20.753392
108.030960	-2.979500	3.831600	-11.415000	21.772159	0.000933	20.744129
109.027831	-2.983400	3.830900	-11.428000	21.761834	0.000934	20.753711
110.030774	-2.985900	3.830700	-11.438000	21.772992	0.000932	20.743067
111.027474	-3.005400	3.829500	-11.509000	21.798150	0.000935	20.754496
112.032094	-3.005600	3.830200	-11.510000	21.804954	0.000933	20.763203
113.030684	-3.006700	3.830100	-11.515000	21.810999	0.000934	20.755976
114.030721	-3.009500	3.828800	-11.522000	21.816790	0.000934	20.763670
115.030256	-3.031800	3.828500	-11.606000	21.823545	0.000935	20.750990
116.033645	-3.009800	3.829600	-11.526000	21.847387	0.000935	20.726488
117.030299	-3.005300	3.828300	-11.505000	21.835168	0.000935	20.751243
118.031767	-2.994600	3.828200	-11.463000	21.836589	0.000935	20.759304
119.035517	-2.994800	3.828700	-11.464000	21.843450	0.000936	20.743886
120.029678	-3.018000	3.826400	-11.546000	21.846268	0.000935	20.747181
121.031875	-3.006700	3.827800	-11.507000	21.860357	0.000935	20.751326
122.029226	-2.988100	3.828000	-11.436000	21.858862	0.000936	20.750778
123.032077	-2.974800	3.827500	-11.385000	21.884745	0.000936	20.740649
124.033590	-2.985300	3.827300	-11.423000	21.889155	0.000936	20.754547
125.030816	-2.999000	3.826600	-11.475000	21.909280	0.000939	20.751931
126.031599	-2.987600	3.826900	-11.433000	21.897935	0.000936	20.748636
127.031272	-3.009000	3.826900	-11.514000	21.906438	0.000940	20.765208
128.028603	-3.002900	3.825800	-11.488000	21.921718	0.000939	20.751105
129.037703	-3.006000	3.825100	-11.497000	21.932148	0.000939	20.738785
130.033165	-2.978500	3.825300	-11.393000	21.946047	0.000938	20.755544
131.030603	-3.002400	3.826400	-11.487000	21.921743	0.000939	20.753026
132.032143	-3.021300	3.824600	-11.554000	21.939474	0.000942	20.744696
133.041114	-3.008200	3.824200	-11.503000	21.969266	0.000940	20.747966
134.030558	-3.034500	3.823000	-11.598000	21.977514	0.000942	20.738679
135.037286	-2.998800	3.823500	-11.464000	21.982080	0.000941	20.747991
136.031696	-2.990200	3.823800	-11.433000	21.967338	0.000939	20.746985
137.029952	-3.011100	3.823300	-11.511000	21.978838	0.000942	20.754228
138.029456	-3.000800	3.822800	-11.471000	21.975400	0.000942	20.733716
139.030951	-3.020200	3.823100	-11.544000	21.957195	0.000940	20.740624
140.031815	-3.012400	3.823100	-11.516000	21.994762	0.000943	20.728917
141.031538	-3.008600	3.822500	-11.499000	22.005910	0.000943	20.742922
142.033520	-3.002800	3.822500	-11.478000	22.010173	0.000941	20.724903
143.032719	-3.005800	3.821000	-11.483000	21.996690	0.000944	20.726105
144.033913	-3.024900	3.821900	-11.560000	22.038665	0.000944	20.738253
145.040072	-2.968900	3.823900	-11.351000	22.032483	0.000944	20.738703
146.035245	-2.994900	3.821700	-11.445000	22.042405	0.000943	20.747688
147.037666	-3.006900	3.821100	-11.489000	22.045638	0.000944	20.742390
148.041886	-3.015900	3.822200	-11.526000	22.047329	0.000946	20.744082
149.045598	-2.994100	3.821500	-11.440000	22.054042	0.000946	20.735155
150.040338	-2.993500	3.822000	-11.440000	22.061464	0.000945	20.741163
151.043965	-2.987600	3.821500	-11.415000	22.070863	0.000947	20.725442
152.038265	-3.006700	3.820400	-11.486000	22.078980	0.000947	20.732619
153.042724	-2.989300	3.821100	-11.421000	22.088950	0.000948	20.751137
154.042593	-3.010700	3.819600	-11.498000	22.127077	0.000948	20.753271
155.039504	-2.994000	3.820600	-11.438000	22.092290	0.000950	20.746420
156.046703	-3.001500	3.818400	-11.458000	22.123695	0.000950	20.754627
157.041568	-3.007500	3.818700	-11.484000	22.137030	0.000949	20.748063
158.040672	-3.021100	3.819200	-11.537000	22.155998	0.000948	20.733388
159.047144	-2.988900	3.817900	-11.409000	22.149188	0.000949	20.717559
160.038478	-2.987900	3.818200	-11.407000	22.145186	0.000951	20.726355
161.042265	-3.013600	3.817300	-11.502000	22.171634	0.000950	20.734343
162.042795	-3.005800	3.817400	-11.472000	22.164726	0.000950	20.757774
163.041080	-2.990000	3.817500	-11.413000	22.170776	0.000952	20.736803
164.058091	-2.993300	3.816200	-11.423000	22.171732	0.000954	20.735389
165.046270	-2.998500	3.816600	-11.443000	22.202628	0.000952	20.726020
166.046068	-3.015600	3.816300	-11.507000	22.211192	0.000953	20.735544
167.047287	-2.992800	3.815100	-11.416000	22.219848	0.000953	20.734726
168.047265	-3.010300	3.816500	-11.488000	22.230902	0.000953	20.714499
169.049469	-3.017300	3.815500	-11.512000	22.244497	0.000954	20.748502
170.047624	-2.985600	3.815500	-11.390000	22.250800	0.000955	20.728259
171.047332	-2.998400	3.816100	-11.442000	22.261390	0.000954	20.732224
172.047380	-2.982700	3.816200	-11.382000	22.250465	0.000957	20.733139
173.047781	-2.981400	3.817000	-11.379000	22.281695	0.000955	20.728373
174.046831	-2.990700	3.814400	-11.406000	22.269178	0.000957	20.721530
175.042993	-2.982300	3.816200	-11.380000	22.265545	0.000957	20.724057
176.045150	-2.964500	3.816000	-11.311000	22.273726	0.000956	20.724188
177.048809	-2.983000	3.815200	-11.379000	22.304498	0.000958	20.735085
178.048559	-2.995000	3.814400	-11.423000	22.308466	0.000958	20.708237
179.050521	-3.004400	3.812900	-11.454000	22.292088	0.000958	20.730245
180.045529	-2.994700	3.814800	-11.422000	22.294700	0.000957	20.722903
181.047543	-2.995800	3.815200	-11.429000	22.322263	0.000959	20.718260
182.049085	-3.000000	3.813300	-11.438000	22.323283	0.000958	20.717385
183.060202	-2.996000	3.813000	-11.422000	22.302252	0.000958	20.726198
184.049407	-2.969600	3.814900	-11.328000	22.273865	0.000960	20.718636
185.049483	-3.000600	3.811300	-11.435000	22.290194	0.000959	20.723607
186.052485	-2.983700	3.812700	-11.374000	22.275236	0.000961	20.729493
187.046359	-3.000000	3.811800	-11.434000	22.266263	0.000961	20.701066
188.048923	-2.999700	3.811700	-11.433000	22.296423	0.000961	20.711352
189.052955	-3.007200	3.810800	-11.459000	22.301861	0.000960	20.715374
190.047661	-3.008500	3.811100	-11.465000	22.328330	0.000962	20.723386
191.050666	-3.002100	3.810700	-11.440000	22.323301	0.000964	20.743956
192.054952	-3.012800	3.810400	-11.478000	22.339000	0.000962	20.722692
193.052393	-3.028500	3.808500	-11.532000	22.352961	0.000962	20.724343
194.052475	-3.002200	3.808800	-11.432000	22.366521	0.000964	20.723698
195.048911	-3.032400	3.807700	-11.546000	22.387984	0.000964	20.717689
196.054901	-3.000800	3.809500	-11.430000	22.379437	0.000967	20.724777
197.053216	-3.001200	3.808000	-11.428000	22.383878	0.000963	20.709783
198.054362	-3.014400	3.807300	-11.475000	22.410125	0.000965	20.707617
199.051960	-3.005500	3.810000	-11.449000	22.410525	0.000965	20.738366
200.053219	-3.014200	3.806700	-11.473000	22.425056	0.000968	20.708819
201.057483	-2.991000	3.808000	-11.388000	22.434673	0.000967	20.724614
202.055262	-3.002000	3.807300	-11.429000	22.430893	0.000968	20.717510
203.058156	-2.985900	3.807900	-11.369000	22.432176	0.000969	20.725433
204.058602	-3.004100	3.808600	-11.439000	22.453727	0.000968	20.696279
205.055017	-3.004200	3.807200	-11.436000	22.452462	0.000968	20.723463
206.057919	-3.003300	3.807300	-11.434000	22.443474	0.000969	20.712091
207.061375	-3.010700	3.807000	-11.460000	22.462413	0.000969	20.725843
208.060773	-2.992100	3.807100	-11.389000	22.482641	0.000971	20.719073
209.059265	-3.001300	3.807200	-11.426000	22.481009	0.000970	20.705110
210.054370	-3.016300	3.806700	-11.481000	22.482781	0.000973	20.710203
211.053858	-2.988100	3.806400	-11.372000	22.496282	0.000971	20.703809
212.057781	-3.009600	3.805000	-11.450000	22.529285	0.000972	20.702249
213.059094	-2.990100	3.806000	-11.378000	22.533970	0.000973	20.687974
214.059479	-3.024200	3.804600	-11.505000	22.539594	0.000974	20.697874
215.054515	-3.023400	3.805000	-11.502000	22.525277	0.000975	20.708667
216.061759	-2.978800	3.804400	-11.331000	22.520625	0.000974	20.713965
217.054186	-3.010700	3.804800	-11.453000	22.526404	0.000975	20.688931
218.055144	-3.007400	3.804500	-11.441000	22.523286	0.000976	20.704775
219.063987	-3.009700	3.803900	-11.448000	22.527947	0.000975	20.680044
220.058907	-2.983700	3.804900	-11.352000	22.538640	0.000976	20.699290
221.058438	-2.980000	3.803300	-11.333000	22.577485	0.000975	20.704530
222.060574	-3.006200	3.803100	-11.430000	22.566606	0.000976	20.684623
223.055323	-2.982300	3.803200	-11.341000	22.577485	0.000976	20.694572
224.055479	-2.993100	3.801600	-11.378000	22.576694	0.000979	20.715592
225.056574	-3.024300	3.801100	-11.493000	22.585444	0.000978	20.699225
226.059883	-3.007000	3.801100	-11.429000	22.535270	0.000979	20.684059
227.056554	-2.989600	3.801600	-11.364000	22.543636	0.000980	20.691965
228.056452	-3.001100	3.801800	-11.409000	22.541776	0.000980	20.688205
229.063376	-2.990000	3.803000	-11.369000	22.576981	0.000982	20.692170
230.060587	-2.991200	3.802000	-11.372000	22.582588	0.000981	20.692570
231.060845	-2.993800	3.800700	-11.378000	22.586155	0.000983	20.692350
232.061944	-3.001700	3.800500	-11.406000	22.609850	0.000985	20.684313
233.064640	-2.998400	3.800400	-11.393000	22.610470	0.000982	20.705325
234.059626	-3.000300	3.800600	-11.401000	22.598913	0.000984	20.682841
235.058970	-2.990400	3.800100	-11.363000	22.607410	0.000984	20.674281
236.062224	-2.995500	3.799800	-11.381000	22.621229	0.000984	20.690969
237.072579	-3.004500	3.799000	-11.412000	22.625236	0.000985	20.689293
238.059787	-2.986300	3.798800	-11.343000	22.613875	0.000987	20.680283
239.064236	-3.002000	3.798700	-11.401000	22.611679	0.000985	20.697052
240.059275	-2.988500	3.798900	-11.351000	22.624992	0.000987	20.688100
241.062321	-2.980500	3.799300	-11.323000	22.627424	0.000987	20.680103
242.063632	-2.979300	3.798200	-11.314000	22.649355	0.000986	20.697330
243.062998	-2.977400	3.798300	-11.307000	22.656749	0.000988	20.692408
244.060986	-2.994100	3.797400	-11.369000	22.673253	0.000988	20.705620
245.062179	-2.985300	3.797300	-11.335000	22.670379	0.000989	20.666229
246.062784	-2.994500	3.797900	-11.372000	22.691739	0.000990	20.690945
247.063842	-3.003400	3.796600	-11.401000	22.701295	0.000990	20.681076
248.064654	-2.983700	3.798100	-11.332000	22.698611	0.000991	20.702096
249.067245	-2.982300	3.796700	-11.321000	22.713367	0.000990	20.693643
250.068462	-2.976700	3.796700	-11.302000	22.718565	0.000991	20.698376
251.064849	-3.001900	3.795900	-11.394000	22.721005	0.000991	20.682327
252.071261	-3.002100	3.796600	-11.395000	22.692008	0.000992	20.656597
253.063987	-3.021300	3.793800	-11.461000	22.688058	0.000994	20.698164
254.068366	-3.028400	3.794100	-11.489000	22.708633	0.000994	20.684633
255.067514	-3.010400	3.793800	-11.419000	22.687985	0.000993	20.700936
256.069932	-2.988900	3.794700	-11.341000	22.715636	0.000994	20.700658
257.072007	-2.997200	3.793700	-11.370000	22.741572	0.000994	20.688705
258.069435	-3.000100	3.792400	-11.377000	22.719847	0.000995	20.673105
259.075453	-2.983800	3.794300	-11.320000	22.724074	0.000997	20.676866
260.070758	-2.976400	3.794800	-11.294000	22.749039	0.000995	20.693815
261.071118	-2.992000	3.792900	-11.347000	22.790097	0.000995	20.687527
262.074840	-2.987600	3.793000	-11.330000	22.779904	0.000997	20.675419
263.070037	-2.986900	3.791800	-11.324000	22.799670	0.000998	20.677202
264.069559	-2.979000	3.791700	-11.294000	22.815037	0.000996	20.685958
265.072784	-3.006500	3.792300	-11.398000	22.829538	0.000999	20.675354
266.068130	-2.996500	3.791000	-11.358000	22.834287	0.000999	20.685328
267.071968	-3.001300	3.791400	-11.378000	22.844373	0.000998	20.677414
268.073878	-2.991900	3.790900	-11.340000	22.853472	0.000999	20.683211
269.069846	-3.022200	3.790600	-11.455000	22.866178	0.000999	20.680766
270.070424	-3.008500	3.790000	-11.401000	22.882246	0.001001	20.687380
271.071882	-2.997800	3.790000	-11.361000	22.887378	0.001000	20.700110
272.071376	-3.002100	3.789800	-11.376000	22.920908	0.001000	20.694346
273.071118	-2.971300	3.791400	-11.265000	22.926138	0.001001	20.703855
274.071073	-2.992300	3.791200	-11.342000	22.907754	0.001002	20.690177
275.072159	-2.993000	3.790600	-11.344000	22.916020	0.001004	20.691820
276.072953	-3.000900	3.790100	-11.373000	22.938810	0.001004	20.701851
277.074531	-2.999000	3.789500	-11.364000	22.953514	0.001003	20.688133
278.084927	-2.988400	3.789600	-11.324000	22.952094	0.001004	20.682443
279.078244	-2.998800	3.789000	-11.361000	22.928105	0.001005	20.679744
280.069874	-2.999700	3.789600	-11.366000	22.935155	0.001004	20.655985
281.075649	-2.999300	3.787600	-11.359000	22.906105	0.001005	20.699906
282.078074	-2.999800	3.788100	-11.363000	22.915366	0.001005	20.691640
283.072987	-3.007300	3.786900	-11.388000	22.906432	0.001007	20.676523
284.073104	-2.998900	3.787400	-11.358000	22.905583	0.001005	20.670930
285.069072	-3.006600	3.786700	-11.384000	22.912405	0.001008	20.685352
286.072232	-2.998200	3.785100	-11.347000	22.931115	0.001008	20.684184
287.075449	-3.008800	3.786900	-11.393000	22.923168	0.001009	20.706569
288.074059	-3.012500	3.784900	-11.401000	22.946284	0.001009	20.691795
289.074217	-3.003900	3.784400	-11.366000	22.972060	0.001011	20.677316
290.073622	-2.993400	3.785700	-11.331000	22.983394	0.001010	20.684404
291.070714	-3.011300	3.784900	-11.395000	22.977739	0.001011	20.690119
292.075017	-3.005700	3.783800	-11.372000	22.985164	0.001009	20.707517
293.077425	-2.982300	3.785500	-11.289000	22.998415	0.001012	20.703249
294.072741	-2.993700	3.785200	-11.331000	23.005294	0.001011	20.674103
295.078138	-2.998100	3.784100	-11.344000	23.010319	0.001011	20.692891
296.077980	-2.985200	3.784500	-11.297000	23.011519	0.001014	20.700257
297.076757	-2.981300	3.784000	-11.280000	23.018862	0.001014	20.691018
298.078190	-3.009400	3.783500	-11.385000	23.013943	0.001014	20.694150
299.079852	-3.000900	3.783500	-11.353000	23.021735	0.001013	20.692948
300.074484	-3.000400	3.783100	-11.349000	23.049181	0.001014	20.692000
301.074323	-3.005200	3.782200	-11.364000	23.011315	0.001014	20.682033
302.081018	-2.986000	3.782400	-11.293000	23.038624	0.001015	20.687585
303.080059	-2.991400	3.780800	-11.309000	23.026549	0.001018	20.694453
304.079739	-2.985900	3.782300	-11.293000	23.020895	0.001016	20.712497
305.077806	-2.997700	3.782100	-11.336000	23.025056	0.001015	20.676834
306.083874	-3.008600	3.780800	-11.374000	23.061494	0.001016	20.692957
307.079280	-3.023800	3.781100	-11.431000	23.068681	0.001017	20.697788
308.082905	-2.999900	3.781400	-11.342000	23.060727	0.001018	20.707363
309.076378	-3.014800	3.780700	-11.397000	23.114272	0.001018	20.709808
310.083514	-3.004800	3.778800	-11.353000	23.125238	0.001019	20.698983
311.075511	-2.981300	3.780900	-11.270000	23.132351	0.001021	20.700422
312.081607	-3.012500	3.779400	-11.384000	23.110340	0.001020	20.700177
313.085034	-3.001900	3.779200	-11.343000	23.135459	0.001020	20.698794
314.080053	-3.022800	3.778600	-11.420000	23.135648	0.001019	20.686654
315.081357	-3.038500	3.776200	-11.473000	23.149492	0.001020	20.693416
316.077775	-3.007700	3.778200	-11.362000	23.146424	0.001021	20.693186
317.078774	-2.997600	3.777000	-11.321000	23.132384	0.001019	20.697136
318.077251	-3.013700	3.777900	-11.384000	23.131618	0.001022	20.714387
319.084720	-3.025400	3.775600	-11.422000	23.150243	0.001021	20.701281
320.078519	-3.009500	3.776100	-11.363000	23.163516	0.001023	20.697038
321.079128	-2.979400	3.777200	-11.253000	23.191612	0.001023	20.712866
322.082808	-2.978100	3.777300	-11.248000	23.193163	0.001024	20.689288
323.080875	-2.986500	3.778400	-11.283000	23.179139	0.001024	20.684717
324.083079	-3.014300	3.775700	-11.380000	23.163998	0.001025	20.719807
325.081755	-2.984700	3.776700	-11.271000	23.155032	0.001024	20.698968
326.085475	-3.035500	3.775300	-11.458000	23.165271	0.001025	20.696425
327.084195	-2.978600	3.776300	-11.248000	23.176260	0.001026	20.679461
328.082760	-2.992200	3.775500	-11.296000	23.171055	0.001025	20.718345
329.083456	-2.990200	3.775400	-11.288000	23.152495	0.001025	20.717764
330.082859	-3.011300	3.773600	-11.361000	23.164431	0.001027	20.703171
331.082865	-3.007900	3.775000	-11.355000	23.167074	0.001027	20.693017
332.084743	-2.989700	3.774900	-11.284000	23.181523	0.001028	20.724093
333.086794	-3.019900	3.772600	-11.391000	23.167556	0.001027	20.715787
334.083373	-3.016300	3.772500	-11.378000	23.192128	0.001028	20.715753
335.081901	-2.997300	3.773000	-11.308000	23.233862	0.001027	20.720119
336.084640	-2.999500	3.772500	-11.314000	23.259109	0.001027	20.696581
337.083808	-2.991100	3.772000	-11.281000	23.253139	0.001029	20.713832
338.083253	-2.993300	3.771200	-11.286000	23.261011	0.001028	20.722196
339.086994	-3.000000	3.770900	-11.312000	23.234817	0.001029	20.702583
340.083620	-2.973900	3.771600	-11.215000	23.235462	0.001029	20.714609
341.086514	-2.974400	3.772200	-11.219000	23.220092	0.001030	20.717699
342.084521	-2.988800	3.770900	-11.269000	23.201395	0.001031	20.727886
343.086809	-3.022800	3.769400	-11.393000	23.177713	0.001031	20.737345
344.088979	-2.997600	3.769400	-11.298000	23.199258	0.001031	20.706303
345.090165	-2.978400	3.770300	-11.228000	23.206600	0.001032	20.730731
346.085525	-3.010800	3.769900	-11.348000	23.232843	0.001033	20.730477
347.087994	-2.995200	3.768000	-11.285000	23.244338	0.001032	20.718763
348.096748	-3.000000	3.770300	-11.309000	23.255757	0.001034	20.732579
349.095775	-2.999900	3.768800	-11.305000	23.245699	0.001034	20.716334
350.091818	-2.988800	3.769500	-11.266000	23.259991	0.001034	20.720700
351.091713	-3.005900	3.768300	-11.327000	23.210834	0.001034	20.724542
352.089798	-2.997300	3.767400	-11.291000	23.259216	0.001034	20.714233
353.090194	-2.995000	3.767800	-11.284000	23.258230	0.001034	20.737902
354.087168	-3.003900	3.767800	-11.317000	23.270327	0.001034	20.729162
355.091972	-3.006900	3.767300	-11.327000	23.279887	0.001035	20.750123
356.086850	-2.983000	3.767700	-11.238000	23.264527	0.001035	20.718607
357.093009	-3.024700	3.765700	-11.388000	23.286266	0.001035	20.717634
358.092158	-3.000200	3.766000	-11.296000	23.298289	0.001036	20.711666
359.089711	-2.998700	3.766100	-11.293000	23.298143	0.001035	20.725270
360.091215	-2.994400	3.764500	-11.272000	23.334001	0.001036	20.720430
361.095500	-2.993700	3.765100	-11.270000	23.349311	0.001037	20.736724
362.092739	-2.994600	3.764500	-11.272000	23.349140	0.001036	20.749355
363.094977	-2.993000	3.765400	-11.269000	23.388887	0.001038	20.724233
364.095444	-3.016000	3.763200	-11.348000	23.410844	0.001038	20.739602
365.092169	-2.992200	3.764000	-11.261000	23.426675	0.001038	20.735081
366.095099	-3.009600	3.762800	-11.322000	23.434015	0.001041	20.743387
367.097678	-2.994500	3.763700	-11.268000	23.424563	0.001037	20.734386
368.097182	-3.009100	3.761900	-11.318000	23.407826	0.001036	20.731361
369.096114	-3.000000	3.761800	-11.284000	23.411766	0.001040	20.738630
370.098947	-3.034700	3.759900	-11.409000	23.452970	0.001039	20.741524
371.098111	-3.000500	3.761600	-11.286000	23.453077	0.001040	20.726931
372.096927	-3.034800	3.761100	-11.414000	23.465718	0.001041	20.721584
373.103107	-2.990000	3.762500	-11.249000	23.472023	0.001039	20.735491
374.095010	-3.009800	3.761200	-11.319000	23.500747	0.001041	20.723505
375.099667	-2.990800	3.761600	-11.249000	23.489019	0.001042	20.746363
376.097780	-3.021300	3.760300	-11.360000	23.504555	0.001041	20.717839
377.102620	-3.010300	3.759000	-11.314000	23.516430	0.001043	20.754400
378.105744	-3.028800	3.759300	-11.384000	23.529299	0.001042	20.744540
379.096288	-2.975700	3.760200	-11.188000	23.539632	0.001042	20.751579
380.104252	-2.991800	3.759200	-11.246000	23.553798	0.001041	20.754874
381.105458	-2.990000	3.758000	-11.235000	23.549336	0.001041	20.728115
382.100220	-2.991800	3.758900	-11.245000	23.577676	0.001043	20.738033
383.101197	-3.009800	3.757800	-11.309000	23.589419	0.001044	20.748857
384.099916	-2.994700	3.758500	-11.255000	23.591131	0.001043	20.748676
385.097667	-3.001700	3.756400	-11.275000	23.605647	0.001043	20.758013
386.106652	-2.992900	3.757500	-11.244000	23.622894	0.001044	20.732628
387.102220	-3.011400	3.755700	-11.309000	23.586728	0.001043	20.755168
388.101439	-3.011600	3.756000	-11.310000	23.608012	0.001046	20.745684
389.103623	-2.979800	3.756200	-11.191000	23.603053	0.001046	20.761103
390.103179	-2.988000	3.756400	-11.222000	23.614405	0.001046	20.745455
391.115199	-2.997400	3.754800	-11.253000	23.635338	0.001045	20.746526
392.100132	-2.984000	3.754600	-11.203000	23.621808	0.001044	20.747187
393.107259	-3.004100	3.753800	-11.276000	23.654427	0.001046	20.745275
394.108625	-3.009700	3.755000	-11.299000	23.644968	0.001046	20.748594
395.105178	-3.018900	3.753000	-11.329000	23.656710	0.001047	20.745667
396.105016	-2.996600	3.755400	-11.252000	23.635476	0.001047	20.765631
397.108447	-3.010200	3.753000	-11.297000	23.647096	0.001048	20.769694
398.105847	-2.996800	3.754500	-11.250000	23.658569	0.001043	20.762230
399.106989	-3.013800	3.753000	-11.310000	23.636022	0.001049	20.763334
400.105809	-3.010100	3.751500	-11.291000	23.626938	0.001048	20.743321
401.106977	-2.993400	3.753000	-11.232000	23.638957	0.001049	20.755371
402.105982	-2.984800	3.752200	-11.198000	23.662548	0.001048	20.774280
403.108803	-3.007300	3.752200	-11.282000	23.658096	0.001048	20.761755
404.103847	-2.980800	3.752500	-11.184000	23.646223	0.001048	20.738946
405.104025	-3.007200	3.750600	-11.277000	23.699405	0.001049	20.761444
406.109462	-3.003600	3.750000	-11.263000	23.683065	0.001048	20.755493
407.106001	-3.016400	3.750800	-11.313000	23.706328	0.001049	20.779291
408.105886	-3.010100	3.750400	-11.288000	23.707673	0.001049	20.764044
409.108294	-3.004300	3.750500	-11.266000	23.696991	0.001050	20.776568
410.111883	-3.012500	3.750700	-11.297000	23.695295	0.001049	20.751633
411.108494	-3.031100	3.747900	-11.359000	23.687850	0.001051	20.773093
412.112419	-2.985800	3.751300	-11.199000	23.667147	0.001052	20.744750
413.117177	-2.995900	3.749800	-11.232000	23.634748	0.001051	20.767272
414.106690	-3.009500	3.749600	-11.283000	23.656129	0.001052	20.783492
415.114988	-3.026500	3.747100	-11.340000	23.655705	0.001050	20.773109
416.111570	-3.011200	3.747600	-11.283000	23.663468	0.001053	20.774253
417.111935	-3.000300	3.747500	-11.241000	23.668850	0.001050	20.765425
418.112133	-2.985000	3.746400	-11.181000	23.657564	0.001051	20.779714
419.107498	-2.976800	3.748700	-11.158000	23.650380	0.001052	20.783418
420.113072	-2.988000	3.746900	-11.195000	23.665237	0.001052	20.789778
421.110062	-2.997600	3.747000	-11.231000	23.685623	0.001052	20.768490
422.111721	-2.999500	3.746400	-11.236000	23.688656	0.001053	20.765367
423.108139	-3.017800	3.745700	-11.302000	23.682606	0.001052	20.782060
424.112505	-3.021200	3.745100	-11.314000	23.694258	0.001051	20.774302
425.117692	-3.013400	3.744000	-11.280000	23.689684	0.001051	20.774458
426.114868	-2.991100	3.745200	-11.201000	23.729158	0.001055	20.765195
427.114583	-3.004900	3.743900	-11.249000	23.752682	0.001051	20.766970
428.124829	-2.977700	3.745500	-11.152000	23.759205	0.001053	20.786786
429.118379	-3.015400	3.742200	-11.283000	23.770628	0.001054	20.780222
430.114931	-3.007900	3.743500	-11.259000	23.783314	0.001053	20.795787
431.121135	-3.014900	3.742800	-11.283000	23.798766	0.001055	20.792313
432.115774	-3.004500	3.742200	-11.243000	23.816206	0.001055	20.791782
433.115083	-2.982500	3.743200	-11.163000	23.823088	0.001055	20.792044
434.113872	-2.993600	3.742000	-11.200000	23.784009	0.001053	20.776568
435.116551	-3.003600	3.741000	-11.236000	23.760070	0.001055	20.806146
436.117122	-2.976700	3.742200	-11.137000	23.744684	0.001056	20.784081
437.117039	-3.011900	3.742200	-11.269000	23.753074	0.001055	20.789649
438.118363	-2.992800	3.741700	-11.196000	23.794168	0.001054	20.792919
439.117359	-3.010700	3.741000	-11.261000	23.792326	0.001054	20.779217
440.121738	-2.994700	3.739900	-11.199000	23.808111	0.001056	20.811640
441.117625	-3.006700	3.739600	-11.242000	23.832302	0.001056	20.799386
442.117816	-3.017300	3.740900	-11.286000	23.836304	0.001057	20.783485
443.115120	-2.988400	3.741700	-11.179000	23.848437	0.001056	20.789486
444.119845	-2.980500	3.739500	-11.144000	23.870327	0.001056	20.797685
445.122216	-2.996900	3.738400	-11.203000	23.873206	0.001056	20.790615
446.118983	-2.990800	3.739800	-11.184000	23.875937	0.001056	20.807103
447.123341	-3.007400	3.738000	-11.241000	23.885598	0.001057	20.800196
448.128909	-3.013100	3.737000	-11.258000	23.881163	0.001055	20.780575
449.128934	-2.989900	3.738300	-11.176000	23.880421	0.001055	20.803539
450.128441	-3.006100	3.736400	-11.230000	23.835205	0.001056	20.792814
451.123445	-3.006400	3.737200	-11.235000	23.853361	0.001058	20.799639
452.120317	-2.999500	3.737200	-11.209000	23.877788	0.001058	20.813701
453.127561	-3.014600	3.736000	-11.261000	23.859175	0.001058	20.800728
454.123056	-3.011700	3.735700	-11.250000	23.850035	0.001057	20.804365
455.128064	-2.967800	3.736600	-11.089000	23.855417	0.001058	20.804545
456.126508	-3.011000	3.734300	-11.242000	23.855514	0.001058	20.811281
457.134698	-2.990700	3.734700	-11.168000	23.893352	0.001060	20.788531
458.127206	-3.005500	3.735000	-11.225000	23.885363	0.001061	20.809442
459.126492	-3.017900	3.734600	-11.270000	23.865527	0.001058	20.790027
460.132626	-2.998700	3.734700	-11.199000	23.851365	0.001058	20.808543
461.124582	-3.006400	3.734100	-11.225000	23.869922	0.001058	20.821461
462.122589	-3.000700	3.733700	-11.203000	23.887736	0.001059	20.805184
463.126204	-2.989000	3.733200	-11.157000	23.916930	0.001059	20.816441
464.123510	-3.002600	3.732700	-11.207000	23.955654	0.001058	20.807857
465.126052	-2.991400	3.732300	-11.164000	23.958280	0.001059	20.822344
466.126621	-3.000900	3.731400	-11.196000	23.970141	0.001058	20.820014
467.125981	-2.992900	3.732200	-11.169000	23.988443	0.001060	20.796642
468.124652	-3.015400	3.730200	-11.246000	23.957701	0.001060	20.833143
469.126549	-3.012700	3.731100	-11.240000	23.980796	0.001060	20.811259
470.133214	-2.979200	3.731000	-11.115000	23.978572	0.001059	20.810450
471.129374	-3.001700	3.730600	-11.197000	23.974902	0.001060	20.802504
472.125295	-3.006700	3.730100	-11.214000	23.954848	0.001059	20.808472
473.135730	-2.996700	3.730600	-11.178000	23.957139	0.001060	20.821200
474.126181	-2.994300	3.730400	-11.169000	23.940566	0.001059	20.815012
475.124065	-3.006000	3.730700	-11.214000	23.946240	0.001061	20.817382
476.131886	-3.000800	3.728200	-11.187000	23.958640	0.001060	20.825075
477.129013	-3.018500	3.727700	-11.251000	23.987531	0.001060	20.811374
478.125565	-3.024300	3.727200	-11.269000	23.976574	0.001061	20.832154
479.127916	-3.010100	3.728100	-11.222000	24.006785	0.001059	20.828312
480.127390	-3.004300	3.726700	-11.195000	24.016128	0.001059	20.801646
481.127153	-3.001400	3.726100	-11.182000	24.051628	0.001058	20.836299
482.126419	-3.017200	3.727100	-11.244000	24.060537	0.001058	20.810148
483.128155	-3.014600	3.725500	-11.230000	24.084030	0.001060	20.837975
484.126146	-3.017700	3.725500	-11.241000	24.088081	0.001061	20.843934
485.124753	-2.999500	3.725900	-11.174000	24.084552	0.001061	20.832809
486.131691	-2.991700	3.726500	-11.147000	24.092091	0.001059	20.838474
487.129460	-2.999900	3.726300	-11.177000	24.108760	0.001059	20.839544
488.129515	-3.003400	3.725200	-11.188000	24.115745	0.001060	20.850817
489.130636	-3.006200	3.725900	-11.199000	24.117661	0.001061	20.834721
490.128292	-2.999800	3.724200	-11.171000	24.134966	0.001061	20.849232
491.125957	-3.008500	3.723800	-11.202000	24.115199	0.001060	20.836994
492.130039	-2.990600	3.723600	-11.135000	24.125274	0.001061	20.830977
493.132227	-3.010800	3.722700	-11.206000	24.103152	0.001059	20.830601
494.129525	-3.018400	3.722700	-11.236000	24.118509	0.001060	20.821347
495.128996	-2.983400	3.724200	-11.109000	24.142790	0.001060	20.820570
496.132989	-2.987900	3.722700	-11.121000	24.133042	0.001061	20.835923
497.131118	-3.005200	3.721400	-11.182000	24.119152	0.001059	20.843329
498.129923	-3.018900	3.721600	-11.234000	24.094944	0.001060	20.850343
499.133882	-2.992400	3.722400	-11.137000	24.067123	0.001059	20.830028
500.137837	-2.984800	3.722100	-11.109000	24.061996	0.001060	20.838636
501.137604	-2.988200	3.721200	-11.118000	24.049288	0.001060	20.850073
502.138052	-3.016700	3.720100	-11.222000	24.069259	0.001060	20.836437
503.134067	-2.997000	3.720400	-11.149000	24.078918	0.001059	20.845650
504.140138	-2.990400	3.719000	-11.120000	24.122364	0.001060	20.832800
505.136924	-2.982900	3.719400	-11.093000	24.112305	0.001059	20.829824
506.131823	-3.009500	3.718700	-11.189000	24.115712	0.001058	20.849835
507.137091	-2.989000	3.720600	-11.120000	24.140426	0.001060	20.835743
508.139723	-2.994100	3.718600	-11.132000	24.114196	0.001059	20.818918
509.143430	-2.985500	3.719500	-11.104000	24.088161	0.001061	20.834058
510.136123	-2.995800	3.718900	-11.140000	24.102051	0.001060	20.842772
511.139471	-3.015400	3.717500	-11.208000	24.101569	0.001059	20.834229
512.138723	-2.998000	3.717600	-11.145000	24.106199	0.001060	20.847407
513.136082	-2.995300	3.718600	-11.136000	24.104089	0.001060	20.834385
514.135315	-2.975900	3.717800	-11.063000	24.119861	0.001060	20.836453
515.143967	-2.997300	3.715900	-11.137000	24.135120	0.001060	20.838007
516.137411	-3.000000	3.716800	-11.149000	24.155211	0.001061	20.827338
517.140454	-3.018800	3.715700	-11.216000	24.180690	0.001061	20.834875
518.144515	-2.983500	3.715800	-11.085000	24.189754	0.001061	20.839224
519.142547	-2.983200	3.716000	-11.084000	24.186509	0.001061	20.832177
520.139068	-3.000500	3.714200	-11.143000	24.168911	0.001061	20.834441
521.140578	-2.965300	3.716000	-11.017000	24.156343	0.001061	20.834163
522.142985	-2.994800	3.714900	-11.123000	24.174584	0.001062	20.841553
523.138091	-2.988000	3.713200	-11.094000	24.176329	0.001061	20.830027
524.142969	-2.988000	3.713800	-11.094000	24.178643	0.001060	20.816702
525.141142	-3.019000	3.712100	-11.206000	24.157060	0.001059	20.831563
526.143086	-3.009300	3.714100	-11.176000	24.142609	0.001060	20.835086
527.142524	-3.007200	3.712100	-11.162000	24.134792	0.001060	20.823928
528.141107	-3.024600	3.711100	-11.224000	24.095455	0.001059	20.828097
529.143954	-3.004100	3.712500	-11.152000	24.096090	0.001060	20.827311
530.140839	-3.001000	3.711500	-11.136000	24.089447	0.001061	20.827287
531.144681	-2.974500	3.711900	-11.041000	24.075736	0.001062	20.837244
532.140201	-2.996800	3.711400	-11.121000	24.119695	0.001059	20.800726
533.146118	-2.973700	3.711600	-11.036000	24.121439	0.001059	20.816700
534.142925	-2.991200	3.710400	-11.098000	24.085982	0.001059	20.812433
535.147528	-2.983100	3.710600	-11.068000	24.090106	0.001061	20.822733
536.143928	-3.013700	3.709800	-11.179000	24.084457	0.001058	20.811378
537.148028	-3.007800	3.709700	-11.157000	24.065455	0.001059	20.816976
538.148685	-3.001800	3.710300	-11.136000	24.054370	0.001060	20.815816
539.142703	-2.990300	3.710500	-11.095000	24.035654	0.001060	20.804159
540.147304	-3.018100	3.709200	-11.194000	24.051443	0.001061	20.811458
541.143608	-3.022800	3.706900	-11.203000	24.081277	0.001061	20.814352
542.148077	-2.995000	3.708500	-11.106000	24.087634	0.001060	20.799865
543.146327	-2.996400	3.708300	-11.110000	24.119065	0.001060	20.807681
544.148520	-3.005900	3.708600	-11.147000	24.165566	0.001059	20.803111
545.152665	-2.990100	3.707500	-11.084000	24.203799	0.001060	20.807794
546.146330	-3.021100	3.706600	-11.197000	24.216660	0.001060	20.805996
547.150482	-2.978700	3.708000	-11.043000	24.230369	0.001059	20.818798
548.142541	-2.986000	3.707000	-11.067000	24.242081	0.001059	20.812527
549.146493	-2.977800	3.706200	-11.034000	24.234999	0.001060	20.807320
550.145251	-3.005800	3.705000	-11.135000	24.211232	0.001060	20.795335
551.151936	-3.011300	3.704800	-11.155000	24.194882	0.001058	20.796479
552.150490	-2.993300	3.704800	-11.088000	24.202217	0.001059	20.798621
553.145911	-3.016200	3.704800	-11.174000	24.187090	0.001057	20.817113
554.153670	-3.020000	3.704500	-11.186000	24.243441	0.001058	20.816263
555.150398	-3.021400	3.703700	-11.189000	24.234957	0.001060	20.783571
556.150874	-2.999900	3.703400	-11.108000	24.273840	0.001059	20.816410
557.146547	-3.000300	3.703100	-11.109000	24.324198	0.001059	20.784895
558.150452	-2.974900	3.703500	-11.017000	24.335664	0.001058	20.803510
559.153681	-2.994400	3.703600	-11.089000	24.336210	0.001057	20.785565
560.151639	-2.975300	3.704300	-11.020000	24.331035	0.001059	20.798866
561.151662	-3.002200	3.701200	-11.110000	24.328778	0.001058	20.803240
562.152261	-2.998600	3.701900	-11.100000	24.318876	0.001060	20.790462
563.152596	-3.016000	3.702000	-11.164000	24.326064	0.001059	20.788190
564.151095	-3.000500	3.701700	-11.106000	24.335892	0.001057	20.792833
565.155555	-3.021800	3.700300	-11.181000	24.330498	0.001059	20.800224
566.149563	-3.026700	3.698500	-11.192000	24.317687	0.001058	20.775519
567.166698	-2.996700	3.699800	-11.085000	24.358833	0.001058	20.795458
568.153754	-2.976200	3.700300	-11.011000	24.344376	0.001057	20.797076
569.152216	-3.025400	3.697000	-11.182000	24.359574	0.001056	20.806633
570.152864	-2.996000	3.700300	-11.085000	24.383142	0.001058	20.809887
571.154315	-2.980900	3.699900	-11.027000	24.352191	0.001058	20.781208
572.151938	-2.981600	3.699000	-11.028000	24.325249	0.001057	20.788321
573.153880	-3.008500	3.698100	-11.125000	24.346470	0.001058	20.797281
574.150842	-2.964900	3.700500	-10.969000	24.364431	0.001056	20.802496
575.158131	-3.006000	3.696800	-11.111000	24.348907	0.001057	20.801622
576.156744	-3.013100	3.696700	-11.137000	24.359110	0.001055	20.789098
577.150235	-2.993400	3.698600	-11.070000	24.339185	0.001056	20.791395
578.153925	-3.008400	3.696800	-11.120000	24.340774	0.001059	20.793937
579.151736	-2.978100	3.698000	-11.012000	24.349648	0.001056	20.800469
580.158597	-3.011600	3.694700	-11.126000	24.330906	0.001057	20.797314
581.161582	-2.999000	3.695500	-11.081000	24.330238	0.001056	20.788583
582.154577	-3.024500	3.694700	-11.174000	24.371432	0.001058	20.793872
583.158808	-3.009400	3.693300	-11.114000	24.391805	0.001057	20.785387
584.156157	-3.000000	3.695100	-11.084000	24.418541	0.001057	20.797984
585.154993	-2.999300	3.694600	-11.081000	24.438196	0.001055	20.782615
586.154577	-2.999800	3.693900	-11.080000	24.476070	0.001058	20.779835
587.154550	-3.000100	3.693700	-11.081000	24.491967	0.001053	20.797681
588.155781	-3.010400	3.694400	-11.120000	24.479606	0.001056	20.776271
589.152243	-2.995000	3.693400	-11.061000	24.480991	0.001058	20.781453
590.158083	-2.978700	3.693700	-11.001000	24.470097	0.001057	20.798499
591.153588	-3.015300	3.693600	-11.136000	24.434406	0.001055	20.793986
592.153142	-2.995000	3.692600	-11.059000	24.425174	0.001055	20.799897
593.158276	-2.985900	3.692000	-11.023000	24.430552	0.001057	20.779688
594.155478	-3.015600	3.691200	-11.130000	24.407140	0.001055	20.769951
595.153965	-3.021700	3.691400	-11.154000	24.397566	0.001058	20.782631
596.159908	-3.007700	3.689400	-11.094000	24.424009	0.001055	20.769804
597.155975	-3.000400	3.690200	-11.071000	24.411223	0.001055	20.774521
598.157470	-3.010200	3.690500	-11.107000	24.404948	0.001058	20.783399
599.156202	-2.995300	3.689100	-11.049000	24.392782	0.001054	20.789686
600.155946	-3.010200	3.689200	-11.104000	24.433779	0.001055	20.788141
601.156199	-2.993700	3.688600	-11.040000	24.436874	0.001053	20.777496
602.154461	-3.012300	3.690300	-11.115000	24.437258	0.001054	20.782622
603.157074	-2.988300	3.688300	-11.020000	24.456928	0.001055	20.768691
604.157847	-3.005600	3.688000	-11.084000	24.410187	0.001054	20.769689
605.157318	-2.998900	3.687600	-11.057000	24.437804	0.001053	20.770842
606.156346	-2.990000	3.688500	-11.027000	24.482507	0.001052	20.774439
607.158393	-2.994800	3.687100	-11.041000	24.488145	0.001053	20.775828
608.155163	-2.996200	3.687100	-11.047000	24.484266	0.001054	20.762454
609.158237	-2.997000	3.687000	-11.049000	24.506707	0.001054	20.774063
610.158006	-2.994400	3.686400	-11.037000	24.513543	0.001054	20.776180
611.158693	-2.991100	3.685700	-11.023000	24.555758	0.001053	20.767327
612.156424	-3.003800	3.684900	-11.067000	24.563938	0.001052	20.770793
613.153838	-2.999100	3.685100	-11.052000	24.545108	0.001052	20.794574
614.158298	-3.014900	3.683800	-11.105000	24.546624	0.001052	20.779973
615.155501	-3.001600	3.684000	-11.057000	24.531550	0.001053	20.754891
616.159688	-2.997500	3.685700	-11.046000	24.572427	0.001050	20.782155
617.159570	-2.991700	3.684200	-11.020000	24.596194	0.001051	20.770915
618.160981	-3.009200	3.683500	-11.083000	24.599770	0.001051	20.778297
619.156779	-3.002700	3.684400	-11.061000	24.596299	0.001053	20.743518
620.160871	-3.035500	3.680800	-11.171000	24.604423	0.001051	20.775853
621.164042	-3.007100	3.682200	-11.071000	24.602914	0.001051	20.775288
622.160248	-2.993900	3.682700	-11.025000	24.622069	0.001050	20.782180
623.164968	-2.999800	3.682600	-11.046000	24.602491	0.001051	20.751154
624.161511	-2.998400	3.681800	-11.038000	24.565615	0.001051	20.748293
625.165337	-2.989800	3.682400	-11.009000	24.576598	0.001048	20.739872
626.163463	-3.003700	3.680800	-11.055000	24.595631	0.001049	20.776514
627.165583	-2.997700	3.681200	-11.034000	24.593830	0.001050	20.754792
628.160979	-2.999100	3.682300	-11.042000	24.584778	0.001049	20.767995
629.162818	-3.009500	3.680300	-11.074000	24.561296	0.001050	20.779996
630.161928	-3.022300	3.679900	-11.120000	24.593903	0.001050	20.761504
631.160373	-3.004300	3.679800	-11.054000	24.609994	0.001049	20.755364
632.161726	-3.016700	3.678900	-11.097000	24.635307	0.001050	20.743305
633.170251	-3.021600	3.678500	-11.114000	24.615103	0.001049	20.776612
634.165399	-3.003000	3.679400	-11.049000	24.605814	0.001049	20.762076
635.164336	-2.989200	3.679100	-10.996000	24.586577	0.001048	20.768852
636.161429	-2.972100	3.678600	-10.932000	24.618475	0.001049	20.773832
637.162294	-2.990400	3.677500	-10.996000	24.626296	0.001048	20.755600
638.165969	-2.970700	3.679700	-10.931000	24.648953	0.001048	20.753679
639.163535	-3.010500	3.676300	-11.066000	24.637539	0.001048	20.773995
640.165068	-3.008800	3.676000	-11.059000	24.611598	0.001045	20.753655
641.167493	-2.998400	3.677900	-11.026000	24.614034	0.001047	20.762263
642.162292	-3.011000	3.675500	-11.066000	24.606050	0.001047	20.757570
643.165159	-3.009600	3.676400	-11.064000	24.626972	0.001046	20.768607
644.165675	-3.030600	3.675100	-11.136000	24.638533	0.001045	20.746068
645.169139	-3.006300	3.674600	-11.046000	24.628936	0.001046	20.768681
646.165657	-2.997700	3.676700	-11.020000	24.629049	0.001045	20.753621
647.167462	-2.979000	3.675400	-10.947000	24.672498	0.001044	20.757864
648.165215	-2.989200	3.674300	-10.982000	24.675104	0.001045	20.775654
649.166696	-2.973600	3.675200	-10.928000	24.682795	0.001045	20.768672
650.164298	-3.007500	3.675100	-11.051000	24.703806	0.001045	20.756090
651.164710	-3.008700	3.674300	-11.052000	24.687960	0.001043	20.761052
652.171331	-2.996800	3.673200	-11.007000	24.720139	0.001043	20.728383
653.167198	-2.998200	3.673600	-11.013000	24.746151	0.001045	20.754488
654.172825	-3.025000	3.671800	-11.106000	24.745133	0.001044	20.752992
655.170190	-3.008900	3.673400	-11.052000	24.780365	0.001045	20.756106
656.172896	-2.975400	3.673700	-10.930000	24.802276	0.001042	20.747750
657.168285	-3.004500	3.671500	-11.029000	24.776723	0.001045	20.743916
658.170405	-3.001800	3.672300	-11.022000	24.752422	0.001044	20.761256
659.172322	-2.995500	3.670800	-10.994000	24.747005	0.001043	20.738275
660.176215	-2.989800	3.671200	-10.975000	24.743445	0.001044	20.749401
661.171914	-2.995800	3.670700	-10.996000	24.733783	0.001045	20.766258
662.172634	-2.986800	3.671300	-10.964000	24.742638	0.001044	20.746695
663.177639	-2.977800	3.670600	-10.930000	24.742336	0.001043	20.751608
664.170327	-2.998900	3.669700	-11.005000	24.726915	0.001043	20.751779
665.171628	-2.976300	3.671200	-10.925000	24.728552	0.001044	20.744413
666.170034	-2.986500	3.671500	-10.964000	24.702980	0.001039	20.751942
667.173027	-2.996100	3.669600	-10.994000	24.704592	0.001042	20.758777
668.174993	-2.988700	3.669600	-10.964000	24.720731	0.001040	20.736090
669.175490	-2.991200	3.668300	-10.971000	24.700731	0.001040	20.715544
670.174384	-2.995500	3.669600	-10.990000	24.685211	0.001040	20.753078
671.174653	-2.996300	3.667500	-10.988000	24.693756	0.001041	20.734625
672.176746	-2.982800	3.668600	-10.941000	24.711907	0.001042	20.751418
673.171950	-2.989600	3.667600	-10.963000	24.685316	0.001040	20.767408
674.173088	-2.988500	3.666500	-10.956000	24.676957	0.001040	20.747640
675.178462	-2.993200	3.667500	-10.976000	24.646259	0.001038	20.737698
676.187677	-3.003900	3.667400	-11.014000	24.639594	0.001040	20.733856
677.173392	-2.977600	3.666900	-10.916000	24.633598	0.001040	20.749176
678.181380	-3.008700	3.665300	-11.026000	24.665852	0.001038	20.736970
679.174837	-3.007600	3.665500	-11.024000	24.689926	0.001038	20.744533
680.176160	-2.998900	3.666100	-10.993000	24.658421	0.001037	20.751325
681.178025	-2.993200	3.665400	-10.970000	24.672760	0.001036	20.733945
682.175102	-2.995000	3.664500	-10.974000	24.682894	0.001038	20.755969
683.179030	-2.997200	3.664000	-10.981000	24.698618	0.001039	20.746617
684.175688	-2.997500	3.664600	-10.984000	24.699685	0.001036	20.720659
685.179028	-2.991700	3.664300	-10.960000	24.733053	0.001034	20.744188
686.180691	-3.020300	3.660900	-11.056000	24.738772	0.001036	20.742341
687.182060	-2.991900	3.663100	-10.958000	24.716092	0.001037	20.726218
688.178349	-2.998000	3.662700	-10.980000	24.701762	0.001035	20.750720
689.182236	-2.998500	3.662500	-10.981000	24.682609	0.001034	20.743354
690.181854	-2.974100	3.663600	-10.894000	24.673191	0.001035	20.756190
691.186544	-2.998500	3.662800	-10.982000	24.711236	0.001034	20.746477
692.183163	-2.989000	3.659700	-10.938000	24.739766	0.001036	20.744286
693.185595	-2.990200	3.662400	-10.950000	24.753443	0.001034	20.738572
694.182899	-2.999400	3.660800	-10.980000	24.761573	0.001032	20.732505
695.184054	-2.995000	3.660600	-10.963000	24.792284	0.001034	20.727289
696.184371	-2.999200	3.660100	-10.976000	24.761158	0.001030	20.740150
697.182961	-3.005500	3.659700	-10.998000	24.773410	0.001034	20.725417
698.182967	-2.981500	3.660000	-10.911000	24.779609	0.001032	20.736381
699.179938	-2.994500	3.659200	-10.957000	24.784929	0.001032	20.733184
700.183858	-2.986700	3.658500	-10.926000	24.756906	0.001031	20.728295
701.182984	-3.004400	3.657300	-10.987000	24.741330	0.001032	20.743011
702.179736	-3.012200	3.657900	-11.017000	24.722935	0.001030	20.734034
703.185367	-2.998300	3.657600	-10.966000	24.749012	0.001032	20.737917
704.182170	-3.003800	3.657200	-10.984000	24.792415	0.001030	20.720308
705.182421	-3.003600	3.658100	-10.987000	24.801693	0.001030	20.735310
706.184511	-3.012600	3.657200	-11.015000	24.826286	0.001031	20.713996
707.183456	-2.991400	3.657300	-10.939000	24.765468	0.001028	20.715550
708.180539	-2.995400	3.657800	-10.956000	24.751440	0.001029	20.719965
709.182833	-3.004300	3.656900	-10.985000	24.754250	0.001028	20.716147
710.180892	-3.000600	3.656600	-10.970000	24.744328	0.001027	20.713776
711.179506	-3.008600	3.656000	-10.998000	24.697380	0.001028	20.729726
712.184660	-2.989900	3.655000	-10.926000	24.669925	0.001028	20.725410
713.182936	-2.989900	3.655800	-10.928000	24.706284	0.001029	20.715902
714.190119	-2.988600	3.654400	-10.919000	24.698953	0.001028	20.733201
715.188745	-2.996900	3.653100	-10.947000	24.715719	0.001030	20.696918
716.186762	-3.003300	3.654200	-10.974000	24.754088	0.001030	20.721674
717.185249	-2.988600	3.653900	-10.919000	24.743319	0.001027	20.732678
718.188693	-2.991600	3.653900	-10.930000	24.709144	0.001027	20.714504
719.184069	-2.987900	3.653500	-10.916000	24.724989	0.001026	20.725189
720.187790	-3.002300	3.652800	-10.966000	24.710545	0.001026	20.716384
721.186806	-2.994600	3.653200	-10.938000	24.732777	0.001027	20.717357
722.184007	-3.004500	3.651900	-10.971000	24.767570	0.001026	20.722876
723.189474	-2.975000	3.653500	-10.868000	24.808846	0.001026	20.704554
724.186020	-2.994100	3.651400	-10.932000	24.839019	0.001025	20.717767
725.188243	-2.977800	3.651600	-10.872000	24.846203	0.001024	20.726874
726.188387	-2.997300	3.652200	-10.946000	24.882011	0.001025	20.697377
727.187234	-3.008400	3.651000	-10.982000	24.896379	0.001024	20.702789
728.188318	-2.992400	3.651300	-10.924000	24.915805	0.001024	20.690043
729.187429	-2.983900	3.651000	-10.893000	24.935753	0.001023	20.709117
730.186035	-2.988900	3.648700	-10.905000	24.954698	0.001022	20.722444
731.185890	-2.998400	3.649500	-10.940000	24.954698	0.001023	20.713908
732.186552	-2.999700	3.649600	-10.947000	24.973953	0.001021	20.707630
733.189716	-3.025600	3.647800	-11.036000	24.972063	0.001023	20.714269
734.189943	-3.005500	3.648800	-10.966000	24.934768	0.001020	20.697222
735.189742	-3.000400	3.648800	-10.946000	24.902433	0.001022	20.703649
736.189662	-3.012300	3.648200	-10.989000	24.884538	0.001022	20.709871
737.190920	-3.007900	3.647400	-10.970000	24.870715	0.001023	20.707378
738.190504	-3.008600	3.646500	-10.970000	24.836944	0.001021	20.720900
739.186539	-2.988700	3.647300	-10.900000	24.861894	0.001021	20.696627
740.190487	-3.001500	3.647400	-10.945000	24.874650	0.001020	20.701369
741.187085	-3.000700	3.646900	-10.943000	24.882266	0.001019	20.707591
742.188456	-2.978800	3.648300	-10.865000	24.871824	0.001020	20.712758
743.192905	-3.008800	3.645100	-10.966000	24.876859	0.001020	20.705008
744.189808	-2.990900	3.645500	-10.902000	24.885305	0.001019	20.710641
745.190427	-3.002500	3.645500	-10.944000	24.888124	0.001019	20.694503
746.194367	-2.998300	3.645000	-10.927000	24.888840	0.001018	20.702335
747.190007	-2.997900	3.643500	-10.921000	24.909480	0.001016	20.686065
748.187606	-3.012400	3.643600	-10.975000	24.894689	0.001017	20.708205
749.193622	-2.998000	3.643300	-10.920000	24.924890	0.001018	20.729036
750.189714	-3.014000	3.642400	-10.977000	24.932043	0.001019	20.703022
751.198360	-2.980400	3.643400	-10.857000	24.916347	0.001017	20.693432
752.190269	-2.995100	3.642900	-10.910000	24.931204	0.001017	20.710242
753.192991	-2.994100	3.642500	-10.905000	24.946565	0.001017	20.696261
754.192722	-2.994300	3.643300	-10.907000	24.978069	0.001018	20.690424
755.195078	-2.988600	3.641700	-10.882000	24.999774	0.001017	20.680441
756.193779	-2.983200	3.643500	-10.868000	25.015460	0.001017	20.693342
757.190920	-2.969900	3.642400	-10.817000	25.015982	0.001017	20.694340
758.195520	-3.008000	3.641100	-10.951000	25.033883	0.001016	20.686704
759.198494	-3.015900	3.639900	-10.976000	25.059350	0.001016	20.683818
760.193280	-2.999700	3.640900	-10.921000	25.079652	0.001015	20.702777
761.196443	-3.020900	3.639400	-10.993000	25.074880	0.001015	20.688028
762.194435	-3.008700	3.640100	-10.950000	25.104996	0.001016	20.691708
763.194917	-3.013000	3.639900	-10.966000	25.115909	0.001012	20.705034
764.201362	-3.009100	3.639400	-10.950000	25.092968	0.001014	20.696704
765.201292	-2.994800	3.639000	-10.896000	25.089605	0.001015	20.694275
766.195336	-3.006600	3.638600	-10.939000	25.079621	0.001015	20.687097
767.198784	-3.015100	3.638700	-10.970000	25.093962	0.001015	20.708607
768.200853	-2.990900	3.638000	-10.880000	25.086983	0.001013	20.682159
769.197451	-2.988600	3.638500	-10.873000	25.099809	0.001014	20.718271
770.199615	-2.997200	3.638000	-10.903000	25.103719	0.001013	20.706074
771.199868	-2.983400	3.640100	-10.859000	25.096829	0.001012	20.696312
772.199096	-2.969800	3.638200	-10.804000	25.118980	0.001011	20.700530
773.204380	-2.999900	3.636800	-10.908000	25.134566	0.001011	20.691995
774.201434	-2.974700	3.638500	-10.823000	25.138598	0.001012	20.694620
775.202774	-3.015800	3.635500	-10.962000	25.127417	0.001011	20.693827
776.209974	-3.022100	3.635600	-10.986000	25.131839	0.001011	20.698266
777.199544	-2.995800	3.636000	-10.891000	25.133411	0.001011	20.690835
778.201582	-2.982100	3.636300	-10.841000	25.071063	0.001012	20.718338
779.202641	-2.994400	3.635300	-10.884000	25.042925	0.001012	20.699101
780.199056	-3.004400	3.636000	-10.922000	25.046248	0.001009	20.691055
781.199378	-3.002400	3.634000	-10.909000	25.021221	0.001007	20.692487
782.201916	-2.994200	3.633700	-10.878000	25.037135	0.001009	20.697556
783.206089	-3.004500	3.633100	-10.915000	25.081984	0.001009	20.686150
784.200581	-3.007500	3.633800	-10.928000	25.059580	0.001007	20.697327
785.205592	-3.008500	3.633600	-10.929000	25.090641	0.001005	20.680142
786.202886	-2.988500	3.631500	-10.851000	25.042258	0.001006	20.696060
787.204774	-3.002900	3.632100	-10.906000	25.056014	0.001007	20.701333
788.205724	-2.975600	3.632900	-10.810000	25.086652	0.001006	20.707907
789.204635	-2.968600	3.634400	-10.786000	25.065004	0.001007	20.687598
790.204460	-2.996700	3.631000	-10.881000	25.088532	0.001005	20.693199
791.208294	-2.996300	3.632100	-10.882000	25.102629	0.001005	20.700712
792.200387	-3.010600	3.630400	-10.929000	25.122614	0.001007	20.694695
793.203291	-2.986300	3.630700	-10.841000	25.142451	0.001006	20.676201
794.206302	-3.000600	3.631000	-10.894000	25.158037	0.001005	20.715559
795.206076	-2.984400	3.630200	-10.832000	25.145334	0.001005	20.694744
796.205999	-2.995600	3.628700	-10.869000	25.181409	0.001005	20.710572
797.209142	-2.990900	3.630900	-10.859000	25.182508	0.001006	20.699347
798.206369	-3.005300	3.629700	-10.907000	25.174153	0.001004	20.725101
799.205812	-2.998800	3.629100	-10.881000	25.167476	0.001004	20.713181
800.205244	-2.990600	3.630200	-10.855000	25.124944	0.001003	20.705095
801.205085	-3.006800	3.628700	-10.909000	25.123079	0.001002	20.707491
802.206571	-3.007600	3.628400	-10.912000	25.093901	0.001003	20.706175
803.207235	-3.024100	3.626400	-10.965000	25.098493	0.001002	20.695137
804.211064	-3.002800	3.627300	-10.891000	25.121043	0.001003	20.702602
805.209251	-3.003400	3.625900	-10.888000	25.130091	0.001002	20.705046
806.212769	-3.011700	3.625600	-10.918000	25.111197	0.001001	20.703150
807.210868	-3.002500	3.625000	-10.883000	25.074209	0.001002	20.696838
808.211783	-2.992600	3.626900	-10.853000	25.022201	0.001000	20.710541
809.208313	-2.988500	3.627600	-10.839000	25.062449	0.001000	20.725338
810.210728	-3.014200	3.624900	-10.926000	25.062848	0.000999	20.681165
811.207706	-3.022800	3.625600	-10.958000	25.067172	0.000999	20.699732
812.213140	-2.999400	3.624800	-10.870000	25.068141	0.001000	20.690747
813.211094	-3.010700	3.624900	-10.912000	25.107150	0.000999	20.715683
814.211130	-3.013000	3.625100	-10.921000	25.153560	0.000998	20.711064
815.212502	-2.991100	3.623800	-10.838000	25.153014	0.000999	20.690126
816.212967	-3.027400	3.622700	-10.966000	25.183315	0.000997	20.710116
817.214731	-3.000700	3.622700	-10.868000	25.163454	0.000997	20.722894
818.217253	-2.997800	3.624300	-10.864000	25.177297	0.000999	20.708341
819.216654	-2.991800	3.623600	-10.841000	25.157314	0.000997	20.703927
820.213955	-3.006500	3.624200	-10.895000	25.173454	0.000996	20.713493
821.218600	-3.026200	3.620000	-10.953000	25.160889	0.000996	20.718896
822.217871	-2.980000	3.622100	-10.792000	25.168104	0.000996	20.709069
823.213653	-3.005500	3.621900	-10.884000	25.169122	0.000994	20.717678
824.218202	-3.016600	3.620200	-10.919000	25.208477	0.000997	20.726369
825.216726	-2.993700	3.622100	-10.842000	25.234974	0.000994	20.704605
826.221803	-2.995700	3.621700	-10.848000	25.210790	0.000995	20.727743
827.218763	-3.009000	3.621100	-10.895000	25.171190	0.000996	20.716910
828.218095	-3.008800	3.620500	-10.893000	25.140719	0.000993	20.720458
829.214386	-3.019500	3.619700	-10.928000	25.135840	0.000993	20.689480
830.216115	-3.003600	3.620100	-10.871000	25.138552	0.000991	20.715913
831.217775	-2.999700	3.619900	-10.858000	25.199415	0.000991	20.711580
832.219787	-2.983800	3.619400	-10.798000	25.197615	0.000993	20.721153
833.215786	-3.016800	3.618000	-10.913000	25.206451	0.000991	20.708686
834.217186	-3.039000	3.616800	-10.991000	25.234608	0.000992	20.713722
835.220795	-2.994700	3.618900	-10.836000	25.233770	0.000992	20.714777
836.219127	-3.017300	3.617200	-10.913000	25.234681	0.000991	20.731814
837.220853	-3.035800	3.617400	-10.981000	25.258971	0.000990	20.716371
838.220461	-2.998300	3.617100	-10.844000	25.295962	0.000992	20.713207
839.221906	-3.006200	3.615500	-10.867000	25.301099	0.000988	20.727849
840.230111	-3.014100	3.615600	-10.897000	25.285320	0.000988	20.711057
841.221521	-3.012000	3.616300	-10.890000	25.246676	0.000989	20.721571
842.224315	-2.973800	3.616900	-10.756000	25.241000	0.000991	20.719192
843.221914	-3.001000	3.616600	-10.853000	25.250266	0.000987	20.740824
844.223776	-3.005700	3.614800	-10.863000	25.268017	0.000988	20.731144
845.225535	-3.015700	3.614000	-10.897000	25.299381	0.000988	20.726124
846.224924	-2.992700	3.615300	-10.818000	25.296352	0.000986	20.738731
847.226746	-2.983800	3.614700	-10.784000	25.315234	0.000987	20.749154
848.224697	-2.977600	3.615400	-10.764000	25.290515	0.000985	20.709160
849.223867	-3.006400	3.612900	-10.859000	25.303339	0.000985	20.711130
850.226293	-2.975700	3.614200	-10.754000	25.290865	0.000984	20.722315
851.224540	-3.019100	3.612800	-10.906000	25.301230	0.000983	20.727981
852.224488	-2.968200	3.613600	-10.724000	25.305675	0.000984	20.711106
853.227482	-3.010100	3.612800	-10.874000	25.301556	0.000984	20.733050
854.226277	-2.998300	3.613600	-10.833000	25.307850	0.000985	20.740318
855.227922	-2.982300	3.611900	-10.771000	25.339685	0.000984	20.734350
856.227323	-2.994300	3.612100	-10.814000	25.359397	0.000982	20.741814
857.231633	-2.984100	3.613500	-10.782000	25.308362	0.000983	20.720917
858.225894	-2.982200	3.612300	-10.771000	25.330566	0.000981	20.758860
859.229248	-2.985700	3.612700	-10.785000	25.276730	0.000981	20.724245
860.238722	-2.978200	3.611500	-10.755000	25.269305	0.000981	20.723902
861.230973	-2.981700	3.612700	-10.770000	25.241490	0.000980	20.722054
862.231839	-2.988600	3.610300	-10.789000	25.184995	0.000979	20.723657
863.226834	-2.996000	3.610100	-10.815000	25.178432	0.000982	20.739354
864.236300	-3.008700	3.609400	-10.859000	25.197324	0.000981	20.735560
865.228970	-2.998200	3.610700	-10.824000	25.217315	0.000979	20.726233
866.230672	-3.007300	3.609500	-10.853000	25.248997	0.000978	20.732911
867.231099	-3.005900	3.608100	-10.845000	25.240798	0.000978	20.733214
868.232055	-3.019100	3.606900	-10.888000	25.295565	0.000977	20.737940
869.228438	-2.981600	3.609900	-10.762000	25.351517	0.000977	20.756188
870.236311	-3.009300	3.607100	-10.854000	25.318558	0.000977	20.731155
871.234271	-3.030600	3.606100	-10.926000	25.266163	0.000977	20.729282
872.231677	-2.983100	3.608700	-10.764000	25.293407	0.000973	20.713013
873.234069	-2.993400	3.605600	-10.792000	25.279419	0.000976	20.729790
874.235651	-2.994600	3.607600	-10.801000	25.272131	0.000975	20.725792
875.233519	-3.000500	3.606000	-10.819000	25.285038	0.000973	20.730689
876.232376	-3.007100	3.605400	-10.841000	25.302136	0.000974	20.719881
877.234933	-2.994200	3.606000	-10.795000	25.306216	0.000976	20.733935
878.230904	-2.985000	3.605900	-10.763000	25.314171	0.000973	20.731491
879.235530	-3.017100	3.606400	-10.880000	25.315782	0.000973	20.744015
880.237882	-3.029300	3.602800	-10.912000	25.342675	0.000973	20.739723
881.236001	-3.021700	3.603900	-10.889000	25.364243	0.000973	20.742412
882.236099	-2.994900	3.605500	-10.796000	25.395116	0.000972	20.743067
883.235992	-3.008400	3.602700	-10.838000	25.392511	0.000971	20.726226
884.237126	-2.974400	3.603500	-10.717000	25.400058	0.000971	20.746132
885.233213	-3.006700	3.603400	-10.833000	25.394147	0.000973	20.744465
886.237777	-2.954600	3.604500	-10.649000	25.373769	0.000971	20.744391
887.234677	-3.000100	3.602700	-10.806000	25.351599	0.000972	20.752003
888.238834	-2.992400	3.602000	-10.778000	25.349726	0.000970	20.751070
889.239984	-3.027300	3.600000	-10.897000	25.343815	0.000970	20.758886
890.236506	-2.997100	3.601000	-10.792000	25.362997	0.000970	20.744955
891.239347	-2.997400	3.600600	-10.792000	25.336512	0.000969	20.761510
892.236716	-2.993500	3.602300	-10.783000	25.309488	0.000969	20.733902
893.241833	-3.002900	3.600700	-10.812000	25.279623	0.000968	20.749436
894.234351	-2.984000	3.601900	-10.747000	25.269127	0.000968	20.759761
895.238004	-2.985700	3.600700	-10.750000	25.280763	0.000965	20.752951
896.236393	-3.034400	3.597800	-10.915000	25.312379	0.000967	20.755771
897.247070	-2.995900	3.600700	-10.786000	25.338596	0.000967	20.764077
898.240717	-2.995300	3.599500	-10.780000	25.356973	0.000965	20.748389
899.239503	-3.007000	3.598200	-10.818000	25.401157	0.000966	20.763358
900.241904	-2.985600	3.598600	-10.742000	25.436425	0.000966	20.751831
901.236268	-2.986200	3.598500	-10.744000	25.441376	0.000964	20.759173
902.240410	-3.015600	3.598200	-10.849000	25.458716	0.000965	20.766628
903.240161	-3.010600	3.598500	-10.832000	25.428219	0.000965	20.766350
904.240939	-3.016600	3.595900	-10.847000	25.438689	0.000963	20.770226
905.239799	-2.987000	3.598000	-10.746000	25.437753	0.000963	20.748897
906.244019	-2.999000	3.596700	-10.785000	25.412718	0.000963	20.744146
907.240122	-3.004100	3.595200	-10.799000	25.385949	0.000964	20.758044
908.238303	-2.999900	3.596000	-10.786000	25.432355	0.000964	20.743950
909.243017	-2.995500	3.595300	-10.769000	25.451617	0.000962	20.759026
910.236987	-2.978700	3.595900	-10.709000	25.455818	0.000960	20.749968
911.240689	-2.992200	3.596600	-10.760000	25.469185	0.000963	20.769556
912.238918	-2.996200	3.594800	-10.769000	25.480395	0.000960	20.793615
913.237667	-2.998000	3.593900	-10.774000	25.469739	0.000960	20.763948
914.238513	-3.006700	3.592600	-10.800000	25.454377	0.000960	20.755633
915.246267	-3.031300	3.591300	-10.886000	25.429181	0.000959	20.764945
916.241903	-2.998300	3.592000	-10.769000	25.418947	0.000958	20.773162
917.238599	-2.995700	3.592800	-10.762000	25.457658	0.000961	20.767463
918.237353	-2.991800	3.591800	-10.745000	25.463951	0.000957	20.742962
919.241615	-3.020800	3.591500	-10.848000	25.487536	0.000958	20.765698
920.240064	-2.989800	3.593600	-10.743000	25.514196	0.000957	20.784410
921.245178	-2.997700	3.591100	-10.765000	25.521263	0.000957	20.767325
922.237965	-3.002200	3.590500	-10.779000	25.547124	0.000955	20.770537
923.245306	-2.988300	3.591400	-10.731000	25.517802	0.000956	20.774756
924.241123	-3.024900	3.589700	-10.856000	25.479094	0.000956	20.788041
925.244417	-3.001700	3.590700	-10.777000	25.449444	0.000954	20.775337
926.242664	-3.005100	3.590200	-10.788000	25.441198	0.000954	20.762314
927.242451	-3.005700	3.588500	-10.785000	25.428132	0.000954	20.759150
928.238647	-2.993200	3.590300	-10.745000	25.419681	0.000955	20.775321
929.242395	-3.013100	3.588400	-10.811000	25.403724	0.000954	20.787747
930.240252	-2.970400	3.589100	-10.660000	25.422587	0.000953	20.771601
931.246699	-3.011700	3.588800	-10.807000	25.438032	0.000953	20.779524
932.241674	-3.008400	3.587700	-10.792000	25.459271	0.000953	20.795636
933.244714	-3.005900	3.586800	-10.781000	25.459695	0.000951	20.767612
934.242716	-3.003000	3.587900	-10.773000	25.430623	0.000952	20.776351
935.245220	-2.985600	3.588000	-10.711000	25.451375	0.000951	20.782491
936.247663	-3.021500	3.587600	-10.839000	25.426910	0.000951	20.771200
937.254093	-3.014600	3.586200	-10.810000	25.428287	0.000950	20.776850
938.248263	-2.991600	3.586400	-10.727000	25.435525	0.000949	20.786963
939.243964	-2.978000	3.586100	-10.679000	25.424183	0.000950	20.791222
940.246083	-2.990700	3.586500	-10.724000	25.408911	0.000948	20.776360
941.243379	-2.986200	3.585800	-10.707000	25.426236	0.000950	20.785696
942.246601	-3.010100	3.585300	-10.791000	25.460331	0.000949	20.772044
943.246091	-3.010600	3.584700	-10.791000	25.453900	0.000948	20.771750
944.245444	-2.987900	3.585500	-10.712000	25.491625	0.000949	20.789719
945.247799	-3.010100	3.584800	-10.790000	25.538636	0.000947	20.800894
946.249389	-2.990200	3.584300	-10.715000	25.543976	0.000945	20.792032
947.249472	-3.012400	3.583500	-10.795000	25.568161	0.000946	20.788820
948.249195	-3.007100	3.581800	-10.770000	25.574299	0.000944	20.776966
949.252775	-2.995900	3.582700	-10.732000	25.553477	0.000944	20.783555
950.248841	-3.000400	3.583200	-10.749000	25.568357	0.000944	20.779058
951.249454	-3.001700	3.581100	-10.748000	25.550294	0.000942	20.794583
952.250183	-2.990300	3.583000	-10.713000	25.606355	0.000943	20.800624
953.248818	-3.017500	3.579600	-10.800000	25.616619	0.000942	20.790071
954.250406	-3.012700	3.581800	-10.789000	25.607527	0.000942	20.789948
955.249098	-2.980400	3.581700	-10.673000	25.615626	0.000940	20.803298
956.249674	-3.025900	3.579100	-10.829000	25.594560	0.000940	20.820547
957.250554	-2.995000	3.579900	-10.721000	25.585541	0.000940	20.779721
958.252691	-3.006000	3.580300	-10.762000	25.620804	0.000940	20.790006
959.251180	-2.992400	3.579300	-10.710000	25.600527	0.000940	20.804255
960.252447	-2.997500	3.580200	-10.730000	25.614276	0.000938	20.777760
961.254124	-2.997300	3.578000	-10.722000	25.612184	0.000939	20.805531
962.252846	-3.009000	3.578300	-10.767000	25.623986	0.000938	20.800789
963.251719	-3.037600	3.576500	-10.861000	25.612909	0.000938	20.802465
964.254148	-3.008500	3.578700	-10.765000	25.640291	0.000938	20.818112
965.250301	-3.020100	3.578400	-10.805000	25.680525	0.000937	20.788822
966.255036	-3.010100	3.577500	-10.768000	25.675657	0.000936	20.817124
967.255674	-2.988300	3.577000	-10.689000	25.677936	0.000935	20.808033
968.254478	-2.997200	3.577300	-10.721000	25.613186	0.000934	20.803218
969.255379	-3.008000	3.575100	-10.752000	25.587554	0.000933	20.814933
970.256103	-2.993800	3.575500	-10.703000	25.553585	0.000933	20.823492
971.255078	-2.994600	3.575900	-10.707000	25.558599	0.000932	20.820467
972.258245	-3.002300	3.575000	-10.732000	25.596125	0.000931	20.825438
973.260251	-2.989800	3.575400	-10.688000	25.573512	0.000931	20.818375
974.252253	-3.021200	3.574500	-10.797000	25.558038	0.000930	20.806628
975.266479	-2.996500	3.575300	-10.711000	25.556125	0.000931	20.808974
976.254502	-2.999500	3.573400	-10.718000	25.572878	0.000929	20.819634
977.254234	-3.003600	3.573500	-10.733000	25.583737	0.000931	20.812522
978.255083	-3.008300	3.572800	-10.747000	25.594148	0.000930	20.823452
979.262341	-3.000600	3.571800	-10.715000	25.561205	0.000930	20.817869
980.257504	-3.004200	3.572900	-10.731000	25.525575	0.000929	20.797734
981.259544	-2.988600	3.571600	-10.673000	25.540994	0.000928	20.801839
982.263672	-3.019200	3.570900	-10.780000	25.580735	0.000927	20.806189
983.260090	-2.994900	3.572600	-10.699000	25.597381	0.000926	20.809630
984.261755	-3.017300	3.570600	-10.772000	25.596209	0.000926	20.832634
985.265321	-2.996300	3.572000	-10.702000	25.588289	0.000926	20.811879
986.265165	-2.965700	3.572600	-10.594000	25.551399	0.000926	20.822245
987.261638	-2.985400	3.571800	-10.663000	25.574549	0.000922	20.802821
988.268404	-3.006100	3.570900	-10.733000	25.575599	0.000924	20.806247
989.262389	-2.998700	3.569100	-10.702000	25.594892	0.000924	20.818036
990.262931	-2.995000	3.569400	-10.690000	25.608486	0.000924	20.818886
991.266572	-3.005300	3.570700	-10.730000	25.624343	0.000923	20.815371
992.261855	-3.008900	3.569000	-10.738000	25.605287	0.000923	20.814251
993.259591	-3.001600	3.567500	-10.706000	25.581739	0.000921	20.820947
994.271157	-2.990800	3.568500	-10.671000	25.546265	0.000921	20.825150
995.260937	-3.014700	3.567500	-10.753000	25.537489	0.000920	20.809699
996.262142	-2.995600	3.568600	-10.689000	25.540413	0.000919	20.816902
997.270288	-2.998100	3.567800	-10.695000	25.548683	0.000920	20.828053
998.266926	-3.005400	3.567300	-10.720000	25.563995	0.000920	20.823516
999.265315	-3.016000	3.566100	-10.755000	25.625404	0.000919	20.800790
1000.267418	-3.024800	3.564900	-10.781000	25.633552	0.000919	20.814189
1001.267034	-2.989600	3.565600	-10.658000	25.656343	0.000919	20.823329
1002.268336	-2.984800	3.564400	-10.638000	25.658892	0.000917	20.833475
1003.266883	-3.000900	3.564700	-10.695000	25.669765	0.000917	20.814051
1004.271075	-3.029400	3.564600	-10.796000	25.665705	0.000917	20.828464
1005.270459	-3.010600	3.563700	-10.727000	25.703341	0.000918	20.804626
1006.276021	-3.010100	3.563800	-10.725000	25.695242	0.000918	20.831104
1007.270914	-3.014100	3.562700	-10.738000	25.702128	0.000918	20.824745
1008.266075	-2.992200	3.565000	-10.666000	25.728857	0.000915	20.819349
1009.275071	-3.006400	3.563600	-10.713000	25.732374	0.000915	20.805338
1010.265787	-3.006600	3.563400	-10.712000	25.720734	0.000915	20.813561
1011.268896	-3.013300	3.562800	-10.734000	25.732578	0.000914	20.800801
1012.270111	-2.999800	3.562900	-10.687000	25.744102	0.000913	20.800997
1013.269401	-2.992400	3.562600	-10.659000	25.752127	0.000913	20.823282
1014.269287	-3.012300	3.559900	-10.723000	25.757865	0.000913	20.813873
1015.269090	-2.997900	3.560100	-10.672000	25.727044	0.000911	20.800933
1016.264566	-3.000300	3.560000	-10.680000	25.713948	0.000912	20.801529
1017.269657	-3.006200	3.560600	-10.702000	25.722265	0.000912	20.803245
1018.268679	-2.996900	3.560100	-10.668000	25.717505	0.000912	20.795619
1019.266815	-2.994900	3.560400	-10.662000	25.719214	0.000910	20.804447
1020.272882	-3.000900	3.560300	-10.683000	25.757426	0.000911	20.795414
1021.268550	-2.991900	3.560600	-10.651000	25.796955	0.000910	20.796240
1022.273086	-3.013600	3.557900	-10.720000	25.799348	0.000908	20.791532
1023.272635	-2.996100	3.559300	-10.663000	25.807446	0.000908	20.785915
1024.269634	-3.006200	3.557200	-10.693000	25.837378	0.000907	20.805077
1025.278447	-3.006800	3.558000	-10.697000	25.859709	0.000909	20.804750
1026.274639	-3.005800	3.556300	-10.689000	25.880656	0.000908	20.793077
1027.276419	-2.994000	3.557800	-10.651000	25.861231	0.000904	20.806754
1028.275311	-2.983600	3.558400	-10.617000	25.835971	0.000906	20.804138
1029.273974	-2.996300	3.556800	-10.656000	25.850847	0.000906	20.781623
1030.276346	-2.981700	3.556300	-10.603000	25.871445	0.000907	20.774814
1031.282956	-2.995800	3.555700	-10.651000	25.848463	0.000904	20.803410
1032.274815	-2.992100	3.556200	-10.639000	25.814560	0.000906	20.781681
1033.276934	-3.007100	3.554700	-10.689000	25.781916	0.000904	20.805316
1034.279160	-3.007700	3.554400	-10.689000	25.757882	0.000904	20.779277
1035.274306	-2.974600	3.555200	-10.574000	25.734246	0.000901	20.776399
1036.276370	-2.996700	3.554800	-10.651000	25.734523	0.000901	20.783789
1037.279286	-2.992200	3.554200	-10.634000	25.725319	0.000903	20.797304
1038.276619	-3.023400	3.551700	-10.737000	25.722487	0.000902	20.786873
1039.279877	-3.023300	3.553500	-10.742000	25.670982	0.000900	20.782082
1040.282432	-3.005400	3.553300	-10.678000	25.655875	0.000898	20.766909
1041.273751	-2.999000	3.552200	-10.652000	25.667799	0.000900	20.759445
1042.274972	-2.987700	3.553400	-10.615000	25.675849	0.000898	20.768952
1043.283043	-2.999300	3.550400	-10.647000	25.673546	0.000898	20.769484
1044.279091	-2.994300	3.553200	-10.638000	25.690337	0.000897	20.787298
1045.277520	-3.004800	3.550500	-10.666000	25.711142	0.000895	20.764571
1046.291660	-2.992200	3.551100	-10.624000	25.717075	0.000895	20.767212
1047.278543	-2.980200	3.550800	-10.581000	25.742721	0.000894	20.784437
1048.281560	-3.018500	3.549300	-10.712000	25.760129	0.000894	20.791492
1049.281297	-3.007900	3.549500	-10.675000	25.761929	0.000894	20.774807
1050.281101	-3.018600	3.548700	-10.711000	25.755418	0.000894	20.772534
1051.282719	-3.002900	3.550200	-10.659000	25.724238	0.000894	20.766820
1052.284049	-2.981200	3.550100	-10.583000	25.719550	0.000893	20.767327
1053.283054	-3.030400	3.547300	-10.749000	25.722846	0.000895	20.775379
1054.279138	-3.006900	3.549600	-10.671000	25.725499	0.000893	20.790846
1055.286691	-2.962000	3.548900	-10.511000	25.731474	0.000892	20.767924
1056.286620	-3.008200	3.547000	-10.669000	25.745358	0.000891	20.757214
1057.285380	-2.976400	3.547900	-10.558000	25.764094	0.000890	20.767499
1058.283454	-3.000600	3.546000	-10.639000	25.789812	0.000889	20.778160
1059.283642	-2.980800	3.546900	-10.571000	25.825117	0.000889	20.758621
1060.297009	-2.989100	3.546200	-10.599000	25.843599	0.000890	20.756798
1061.287275	-3.000400	3.546400	-10.640000	25.805959	0.000887	20.776361
1062.287751	-3.010800	3.545100	-10.673000	25.792946	0.000887	20.728674
1063.286259	-2.996800	3.546200	-10.626000	25.788487	0.000887	20.764974
1064.285154	-3.000300	3.545900	-10.638000	25.786965	0.000887	20.755858
1065.290805	-3.007100	3.545500	-10.660000	25.748811	0.000887	20.764950
1066.289621	-2.976100	3.545700	-10.552000	25.767474	0.000888	20.733434
1067.291171	-2.975400	3.545500	-10.548000	25.757610	0.000886	20.742967
1068.286696	-3.025400	3.543500	-10.719000	25.739468	0.000885	20.758884
1069.286510	-2.981900	3.545200	-10.571000	25.775858	0.000884	20.749917
1070.292191	-3.003200	3.543700	-10.642000	25.749919	0.000884	20.750415
1071.288737	-3.002100	3.542700	-10.634000	25.751336	0.000883	20.765589
1072.289506	-3.004800	3.541800	-10.641000	25.749953	0.000883	20.745707
1073.290186	-2.997100	3.543600	-10.618000	25.704562	0.000881	20.751798
1074.291068	-2.990900	3.541500	-10.591000	25.662108	0.000882	20.757047
1075.292725	-3.026500	3.540800	-10.715000	25.651844	0.000881	20.740573
1076.293969	-2.996100	3.540900	-10.608000	25.646032	0.000879	20.759868
1077.288844	-3.008100	3.541200	-10.651000	25.640781	0.000877	20.739894
1078.289354	-3.007900	3.539200	-10.644000	25.678795	0.000879	20.747254
1079.292217	-3.001800	3.539800	-10.624000	25.636240	0.000878	20.754300
1080.292710	-2.989600	3.538800	-10.578000	25.616966	0.000878	20.752012
1081.293979	-2.997400	3.538700	-10.606000	25.601085	0.000878	20.750760
1082.293931	-3.001500	3.538400	-10.619000	25.592465	0.000879	20.728352
1083.295529	-2.981500	3.538600	-10.549000	25.609705	0.000878	20.736183
1084.294344	-3.007000	3.537600	-10.637000	25.659333	0.000878	20.743828
1085.295308	-3.017100	3.538000	-10.673000	25.679852	0.000876	20.740729
1086.294919	-2.999900	3.536200	-10.607000	25.724504	0.000875	20.744327
1087.293809	-3.011500	3.537200	-10.650000	25.753217	0.000875	20.755625
1088.296150	-3.008900	3.536400	-10.639000	25.758263	0.000876	20.737933
1089.295499	-3.035300	3.534600	-10.727000	25.805988	0.000874	20.756949
1090.294991	-3.020400	3.535900	-10.679000	25.833788	0.000872	20.738407
1091.302025	-2.986000	3.535500	-10.556000	25.824811	0.000872	20.712793
1092.296170	-3.008900	3.534800	-10.635000	25.839370	0.000872	20.734532
1093.294652	-3.002300	3.534500	-10.611000	25.828490	0.000872	20.738775
1094.292024	-2.990100	3.535600	-10.570000	25.819253	0.000871	20.749411
1095.294620	-2.990000	3.535800	-10.570000	25.802300	0.000869	20.741390
1096.295671	-2.991100	3.536100	-10.576000	25.797157	0.000870	20.731482
1097.295650	-2.994600	3.534000	-10.582000	25.823721	0.000869	20.724974
1098.291428	-2.985700	3.533100	-10.548000	25.842723	0.000868	20.725571
1099.296111	-3.008700	3.533800	-10.631000	25.865599	0.000868	20.726740
1100.300239	-3.018500	3.532700	-10.662000	25.837294	0.000868	20.729601
1101.296662	-3.007100	3.532400	-10.621000	25.809469	0.000867	20.749066
1102.296456	-2.972600	3.533200	-10.501000	25.817429	0.000866	20.725293
1103.296782	-2.994200	3.532800	-10.576000	25.816355	0.000865	20.744129
1104.296771	-2.987400	3.531300	-10.547000	25.861001	0.000865	20.724491
1105.299289	-2.978400	3.533200	-10.522000	25.848281	0.000866	20.733999
1106.297799	-3.001900	3.531900	-10.601000	25.845074	0.000864	20.719872
1107.299212	-2.993300	3.531400	-10.569000	25.859731	0.000862	20.735544
1108.300416	-3.001500	3.529200	-10.591000	25.873989	0.000864	20.728056
1109.299598	-3.000400	3.529800	-10.589000	25.853701	0.000860	20.738022
1110.298070	-3.000500	3.530700	-10.592000	25.861424	0.000862	20.727288
1111.302073	-3.010700	3.529400	-10.625000	25.877024	0.000861	20.719251
1112.299294	-2.988600	3.528300	-10.544000	25.858397	0.000860	20.734204
1113.302759	-3.004300	3.527800	-10.598000	25.812204	0.000862	20.736166
1114.300570	-2.978400	3.528000	-10.507000	25.793657	0.000860	20.708999
1115.300840	-3.000300	3.527000	-10.580000	25.761111	0.000859	20.733207
1116.300802	-2.984100	3.528100	-10.527000	25.771219	0.000859	20.749525
1117.303807	-2.987300	3.526700	-10.534000	25.761812	0.000859	20.724901
1118.301141	-3.001700	3.526300	-10.584000	25.779847	0.000857	20.702712
1119.304770	-3.019700	3.525700	-10.646000	25.809755	0.000858	20.724222
1120.301381	-2.996400	3.526200	-10.565000	25.832160	0.000856	20.733452
1121.300902	-2.985800	3.527500	-10.531000	25.835765	0.000856	20.724271
1122.301423	-3.017900	3.525500	-10.638000	25.838305	0.000854	20.723977
1123.305224	-3.006400	3.523700	-10.591000	25.857282	0.000855	20.710798
1124.306934	-2.993100	3.524100	-10.546000	25.863988	0.000854	20.741244
1125.305789	-2.960000	3.525000	-10.433000	25.870100	0.000854	20.728890
1126.301794	-2.997900	3.522600	-10.559000	25.852806	0.000854	20.718156
1127.302022	-2.964100	3.524800	-10.446000	25.850650	0.000853	20.709351
1128.305906	-2.968100	3.523500	-10.456000	25.862222	0.000852	20.722399
1129.305198	-2.987500	3.523200	-10.525000	25.850617	0.000851	20.714059
1130.306898	-2.991000	3.522100	-10.534000	25.861823	0.000852	20.703031
1131.302186	-2.979600	3.522200	-10.493000	25.876218	0.000850	20.726976
1132.302599	-2.997400	3.522500	-10.557000	25.878587	0.000850	20.714656
1133.303556	-2.994500	3.522400	-10.547000	25.826837	0.000850	20.722889
1134.307319	-3.014600	3.518900	-10.606000	25.824973	0.000849	20.723861
1135.306594	-2.993800	3.519900	-10.537000	25.834559	0.000849	20.714525
1136.304536	-3.019900	3.519300	-10.626000	25.869147	0.000849	20.707543
1137.308279	-2.991800	3.519600	-10.529000	25.870432	0.000846	20.704567
1138.306483	-2.996300	3.519300	-10.544000	25.846311	0.000846	20.704518
1139.310099	-3.002000	3.518100	-10.561000	25.804725	0.000847	20.719168
1140.311821	-2.990700	3.518600	-10.522000	25.772806	0.000844	20.700381
1141.323920	-3.008400	3.516800	-10.578000	25.804749	0.000847	20.708287
1142.305202	-2.988500	3.517500	-10.510000	25.801844	0.000843	20.722913
1143.312224	-3.003900	3.517200	-10.564000	25.817323	0.000844	20.707167
1144.306646	-3.020800	3.516400	-10.621000	25.828782	0.000843	20.716308
1145.307247	-3.025000	3.515600	-10.633000	25.853668	0.000843	20.703848
1146.309311	-2.998400	3.516000	-10.541000	25.859454	0.000843	20.714402
1147.311898	-2.978100	3.517400	-10.473000	25.887847	0.000841	20.715424
1148.306574	-2.989700	3.514600	-10.506000	25.908949	0.000840	20.718605
1149.314165	-2.998300	3.515200	-10.539000	25.934728	0.000841	20.710364
1150.313280	-2.996500	3.515700	-10.534000	25.927283	0.000838	20.699564
1151.316431	-2.996700	3.514000	-10.529000	25.874941	0.000839	20.700087
1152.313132	-3.006300	3.514300	-10.564000	25.879734	0.000837	20.711541
1153.312902	-3.023800	3.512600	-10.620000	25.917055	0.000839	20.698772
1154.312314	-3.013600	3.511600	-10.581000	25.937097	0.000836	20.714166
1155.313988	-3.000700	3.513000	-10.541000	25.901153	0.000834	20.711722
1156.311952	-3.015400	3.510700	-10.586000	25.913206	0.000835	20.717666
1157.311514	-2.995400	3.510900	-10.516000	25.934201	0.000835	20.725008
1158.313643	-2.994100	3.512100	-10.514000	25.987630	0.000835	20.706138
1159.318643	-2.974300	3.511700	-10.443000	26.005987	0.000831	20.697080
1160.314880	-3.009100	3.510100	-10.561000	26.012219	0.000834	20.699549
1161.315060	-3.001900	3.510600	-10.537000	26.040087	0.000834	20.691512
1162.317517	-2.984000	3.511900	-10.479000	26.028819	0.000830	20.724289
1163.315562	-3.001100	3.510400	-10.533000	26.049982	0.000833	20.707145
1164.318766	-2.995800	3.509500	-10.512000	26.035003	0.000831	20.699206
1165.320331	-2.992300	3.508000	-10.496000	25.972405	0.000831	20.714551
1166.316152	-2.998000	3.507500	-10.513000	25.971860	0.000828	20.689820
1167.320688	-3.001300	3.509100	-10.531000	25.991536	0.000828	20.698683
1168.319016	-3.002000	3.506300	-10.524000	25.991536	0.000829	20.679715
1169.317343	-2.989200	3.508400	-10.484000	26.008876	0.000828	20.701880
1170.317544	-3.006900	3.507000	-10.544000	26.018339	0.000825	20.687678
1171.317810	-3.014200	3.506000	-10.567000	26.026264	0.000827	20.708445
1172.329797	-3.010200	3.505300	-10.550000	26.046207	0.000826	20.693393
1173.320509	-3.009500	3.504200	-10.545000	26.062188	0.000825	20.682896
1174.321351	-3.002800	3.505900	-10.526000	26.037639	0.000826	20.690474
1175.319815	-2.991500	3.506300	-10.487000	26.019967	0.000823	20.695953
1176.321224	-2.981100	3.505200	-10.449000	26.016892	0.000823	20.691441
1177.315092	-3.001100	3.503100	-10.512000	26.051358	0.000823	20.695724
1178.316115	-2.994200	3.502800	-10.487000	26.042547	0.000819	20.696354
1179.322127	-3.002000	3.502700	-10.514000	26.080650	0.000822	20.682480
1180.320322	-3.006900	3.503800	-10.535000	26.090983	0.000821	20.683854
1181.316905	-2.999000	3.502700	-10.503000	26.065908	0.000819	20.712715
1182.323268	-3.011500	3.502600	-10.548000	26.078811	0.000820	20.683003
1183.324443	-2.990400	3.503400	-10.475000	26.088161	0.000818	20.685285
1184.319415	-2.997500	3.500400	-10.490000	26.058552	0.000818	20.690624
1185.322499	-2.994500	3.502900	-10.488000	26.052451	0.000817	20.682122
1186.326765	-2.994300	3.501400	-10.482000	26.053589	0.000818	20.692276
1187.320632	-3.000600	3.499900	-10.500000	26.036040	0.000818	20.678909
1188.319310	-2.972300	3.499800	-10.402000	26.060059	0.000816	20.681705
1189.324689	-2.990100	3.501100	-10.468000	26.013932	0.000815	20.692260
1190.319432	-3.014500	3.499300	-10.547000	26.003452	0.000815	20.693111
1191.324056	-3.023100	3.498600	-10.575000	25.995112	0.000814	20.687576
1192.322935	-3.012300	3.499200	-10.539000	25.954524	0.000816	20.681886
1193.326134	-2.983500	3.500400	-10.441000	25.940716	0.000814	20.667537
1194.323052	-3.008100	3.497100	-10.518000	25.925621	0.000816	20.697895
1195.321426	-3.029300	3.496400	-10.591000	25.943873	0.000813	20.683513
1196.323658	-2.992000	3.496500	-10.461000	25.965315	0.000814	20.685615
1197.324463	-2.987100	3.497100	-10.446000	25.978237	0.000813	20.672992
1198.329262	-2.974900	3.497200	-10.402000	25.979035	0.000813	20.684226
1199.325701	-3.014800	3.495800	-10.539000	25.973926	0.000813	20.662020
1200.336523	-2.995400	3.496000	-10.471000	25.949515	0.000813	20.682068
1201.324654	-3.004600	3.495100	-10.499000	25.892917	0.000810	20.684479
1202.327638	-2.992300	3.495000	-10.457000	25.885789	0.000810	20.659772
1203.326512	-2.978800	3.496000	-10.412000	25.869579	0.000809	20.653445
1204.330215	-3.003300	3.493600	-10.491000	25.889427	0.000811	20.680597
1205.332460	-3.007100	3.493100	-10.504000	25.892780	0.000808	20.687187
1206.327586	-2.997200	3.492100	-10.466000	25.907607	0.000808	20.679795
1207.327688	-3.024000	3.492200	-10.559000	25.895710	0.000808	20.668791
1208.329712	-3.012800	3.492200	-10.520000	25.847916	0.000807	20.661081
1209.332998	-3.004900	3.491400	-10.490000	25.848689	0.000808	20.676084
1210.340909	-3.029400	3.489900	-10.570000	25.853336	0.000806	20.671743
1211.334510	-3.009400	3.491000	-10.505000	25.853662	0.000806	20.663060
1212.334130	-3.023400	3.489900	-10.550000	25.855973	0.000805	20.663486
1213.334012	-3.036400	3.489700	-10.595000	25.855672	0.000806	20.674564
1214.334258	-3.024900	3.489100	-10.552000	25.829312	0.000806	20.672266
1215.332992	-3.014800	3.488800	-10.517000	25.817235	0.000804	20.694275
1216.340298	-3.015600	3.490200	-10.524000	25.848982	0.000804	20.681594
1217.332217	-2.989000	3.488100	-10.424000	25.816446	0.000801	20.673566
1218.332278	-3.011900	3.487800	-10.504000	25.815648	0.000801	20.665178
1219.335937	-2.991500	3.487800	-10.433000	25.803220	0.000801	20.671661
1220.336982	-3.004100	3.487200	-10.474000	25.835327	0.000801	20.662185
1221.332743	-3.008900	3.486900	-10.489000	25.846281	0.000799	20.696426
1222.332653	-3.017900	3.486600	-10.520000	25.889290	0.000798	20.676093
1223.336767	-2.992100	3.487100	-10.432000	25.907396	0.000798	20.683852
1224.336174	-3.009100	3.484900	-10.485000	25.905484	0.000797	20.690940
1225.335954	-2.966000	3.487000	-10.341000	25.902929	0.000798	20.668931
1226.333191	-3.007700	3.483800	-10.476000	25.924144	0.000797	20.678865
1227.336950	-2.982100	3.485600	-10.394000	25.958427	0.000796	20.668735
1228.335547	-2.985400	3.485000	-10.403000	25.987663	0.000796	20.651639
1229.335502	-3.021800	3.483700	-10.526000	25.939646	0.000793	20.674524
1230.338459	-2.987600	3.484900	-10.410000	25.928099	0.000796	20.662922
1231.340524	-2.994300	3.483900	-10.429000	25.932639	0.000797	20.672700
1232.335806	-2.990000	3.483100	-10.413000	25.939231	0.000795	20.669840
1233.336268	-2.997000	3.482800	-10.436000	25.973937	0.000793	20.680052
1234.342049	-2.996500	3.482000	-10.433000	26.004312	0.000794	20.698243
1235.339421	-3.010400	3.481400	-10.479000	26.042222	0.000793	20.677534
1236.341078	-2.997800	3.480100	-10.432000	26.040757	0.000793	20.655671
1237.339083	-3.005900	3.480300	-10.460000	26.062889	0.000794	20.670323
1238.338101	-2.992100	3.481000	-10.414000	26.062889	0.000790	20.690239
1239.343513	-2.991200	3.480400	-10.409000	26.075639	0.000791	20.656106
1240.343826	-3.031300	3.479000	-10.545000	26.069008	0.000789	20.678843
1241.342904	-2.987400	3.478900	-10.392000	26.043850	0.000788	20.663522
1242.342371	-2.989100	3.478600	-10.396000	26.031011	0.000789	20.688082
1243.342083	-3.003900	3.477600	-10.444000	26.002963	0.000788	20.679816
1244.340254	-3.017100	3.477700	-10.491000	26.019286	0.000788	20.646900
1245.339683	-3.025700	3.477800	-10.522000	26.008864	0.000786	20.681003
1246.340839	-2.990600	3.477700	-10.399000	25.974631	0.000787	20.667471
1247.339613	-2.999300	3.477000	-10.428000	25.951228	0.000787	20.705603
1248.343874	-3.001400	3.476100	-10.431000	25.956493	0.000787	20.677699
1249.346384	-3.008800	3.476100	-10.458000	25.936393	0.000784	20.672678
1250.342536	-3.025300	3.474600	-10.511000	25.918205	0.000783	20.699928
1251.340261	-3.017300	3.474100	-10.481000	25.911695	0.000783	20.674419
1252.352464	-2.980900	3.475400	-10.359000	25.902313	0.000785	20.667838
1253.345023	-2.983600	3.475500	-10.367000	25.930526	0.000783	20.676741
1254.349108	-3.012900	3.472800	-10.462000	25.979332	0.000783	20.686421
1255.349620	-3.001900	3.473300	-10.425000	25.995013	0.000780	20.685580
1256.346479	-3.008000	3.471700	-10.441000	25.993661	0.000781	20.664779
1257.346495	-2.996500	3.473000	-10.406000	26.012320	0.000781	20.663610
1258.349434	-3.005800	3.473700	-10.440000	26.016933	0.000780	20.672039
1259.341613	-3.008700	3.471900	-10.445000	26.039765	0.000783	20.684549
1260.347316	-3.014900	3.470800	-10.463000	26.067623	0.000780	20.693574
1261.347792	-3.003100	3.471300	-10.423000	26.093140	0.000779	20.689814
1262.347729	-2.991700	3.472500	-10.388000	26.073986	0.000779	20.684320
1263.346344	-2.994100	3.470000	-10.387000	26.051253	0.000777	20.687556
1264.350661	-2.979000	3.471300	-10.339000	26.074808	0.000778	20.692733
1265.342998	-2.987300	3.470500	-10.366000	26.060691	0.000779	20.687556
1266.351998	-2.993200	3.469300	-10.382000	26.079461	0.000778	20.696459
1267.348469	-2.977800	3.469300	-10.330000	26.082317	0.000776	20.685577
1268.347525	-2.996900	3.467500	-10.390000	26.083805	0.000777	20.687547
1269.349450	-2.996000	3.468600	-10.390000	26.050129	0.000776	20.702550
1270.348281	-3.000200	3.468100	-10.403000	26.016899	0.000773	20.683387
1271.347868	-3.014300	3.465300	-10.444000	25.981145	0.000775	20.713374
1272.348615	-3.015100	3.466400	-10.451000	25.995401	0.000773	20.691185
1273.352167	-2.997400	3.466600	-10.390000	26.008941	0.000773	20.684874
1274.348816	-3.005700	3.465700	-10.415000	26.009437	0.000774	20.688218
1275.349474	-2.998400	3.465500	-10.389000	25.994880	0.000771	20.679755
1276.350121	-3.006000	3.465800	-10.417000	26.008819	0.000772	20.701348
1277.351691	-3.010300	3.463800	-10.426000	26.001780	0.000772	20.702336
1278.346380	-3.007900	3.463500	-10.416000	26.015295	0.000771	20.683197
1279.349120	-2.971000	3.464300	-10.291000	26.040843	0.000770	20.716455
1280.352565	-3.005900	3.463400	-10.409000	26.051658	0.000771	20.701241
1281.351893	-2.995600	3.463800	-10.376000	26.057288	0.000768	20.688404
1282.353577	-2.995600	3.462500	-10.371000	26.072763	0.000769	20.676926
1283.355545	-2.990500	3.461400	-10.350000	26.119798	0.000768	20.687202
1284.352275	-2.994200	3.463600	-10.369000	26.146418	0.000768	20.694037
1285.359842	-2.980400	3.461200	-10.315000	26.141358	0.000765	20.688004
1286.356203	-3.007400	3.460600	-10.405000	26.143709	0.000766	20.713127
1287.353358	-2.999000	3.461000	-10.378000	26.096642	0.000766	20.705662
1288.353679	-3.013500	3.459600	-10.424000	26.085243	0.000766	20.709857
1289.353901	-3.000500	3.460300	-10.381000	26.101166	0.000766	20.712105
1290.354530	-2.998000	3.458500	-10.368000	26.103720	0.000763	20.689540
1291.354065	-2.999900	3.459400	-10.377000	26.096341	0.000763	20.691134
1292.355771	-2.996000	3.458700	-10.360000	26.124605	0.000764	20.696301
1293.352352	-3.003100	3.457100	-10.380000	26.137818	0.000765	20.703414
1294.359230	-2.997500	3.457500	-10.363000	26.139103	0.000762	20.710395
1295.364697	-2.973000	3.459000	-10.282000	26.147304	0.000761	20.723853
1296.356487	-3.001300	3.458000	-10.376000	26.131529	0.000761	20.692826
1297.354904	-3.006000	3.457200	-10.391000	26.093427	0.000758	20.694371
1298.359693	-3.005000	3.456300	-10.386000	26.075373	0.000760	20.693300
1299.356341	-3.008600	3.456500	-10.398000	26.036335	0.000759	20.712399
1300.362642	-2.995400	3.456600	-10.353000	26.054414	0.000760	20.706856
1301.356868	-2.975300	3.456600	-10.283000	26.053266	0.000759	20.707125
1302.355869	-3.001700	3.454000	-10.366000	26.094477	0.000757	20.721506
1303.363214	-3.014000	3.453100	-10.407000	26.110245	0.000757	20.716960
1304.354942	-2.971200	3.456000	-10.265000	26.153219	0.000757	20.729323
1305.357691	-2.993300	3.455600	-10.342000	26.158142	0.000756	20.708663
1306.360910	-2.999600	3.451500	-10.353000	26.126094	0.000756	20.720084
1307.360123	-2.980900	3.452800	-10.292000	26.152723	0.000757	20.710331
1308.356455	-2.995000	3.452500	-10.340000	26.157889	0.000755	20.699874
1309.361897	-3.014100	3.452600	-10.405000	26.169540	0.000755	20.722014
1310.358545	-2.990100	3.451500	-10.318000	26.183102	0.000756	20.716201
1311.354129	-2.994600	3.451000	-10.333000	26.140960	0.000755	20.687603
1312.357918	-2.983700	3.451400	-10.297000	26.089630	0.000754	20.711420
1313.357687	-2.987100	3.449900	-10.305000	26.054700	0.000753	20.718523
1314.354858	-2.996600	3.450300	-10.338000	26.031268	0.000754	20.719162
1315.363709	-2.990700	3.449100	-10.315000	25.997654	0.000751	20.710046
1316.357107	-2.984800	3.450800	-10.299000	25.997858	0.000751	20.709777
1317.360382	-3.012800	3.446800	-10.383000	25.999876	0.000750	20.708960
1318.364299	-2.999400	3.447200	-10.338000	25.983846	0.000750	20.717985
1319.364007	-2.991100	3.446400	-10.308000	25.983879	0.000749	20.700473
1320.358916	-2.971600	3.447700	-10.244000	25.982016	0.000749	20.709981
1321.358520	-2.983600	3.447900	-10.286000	25.987630	0.000749	20.728900
1322.360874	-3.005000	3.447800	-10.360000	26.039047	0.000748	20.729824
1323.359825	-3.004500	3.447400	-10.357000	26.053262	0.000747	20.729408
1324.362918	-3.030400	3.445400	-10.440000	26.068534	0.000745	20.730527
1325.369979	-3.003800	3.444900	-10.347000	26.085839	0.000747	20.726578
1326.362898	-3.001500	3.444900	-10.339000	26.113763	0.000747	20.711012
1327.369173	-2.991000	3.445300	-10.304000	26.139343	0.000744	20.725810
1328.366640	-2.996600	3.442500	-10.315000	26.124315	0.000745	20.709287
1329.360757	-2.995700	3.443400	-10.314000	26.093554	0.000745	20.729114
1330.364266	-2.998200	3.442200	-10.319000	26.119426	0.000744	20.730928
1331.365389	-3.000600	3.442600	-10.328000	26.118035	0.000744	20.728582
1332.366284	-3.001100	3.441800	-10.329000	26.135348	0.000743	20.748824
1333.367672	-2.993800	3.442700	-10.304000	26.173171	0.000744	20.734672
1334.368571	-2.998300	3.442200	-10.319000	26.173969	0.000742	20.716507
1335.363744	-2.983400	3.442400	-10.268000	26.140043	0.000741	20.736945
1336.369042	-3.002900	3.438700	-10.325000	26.118385	0.000740	20.732727
1337.369122	-2.997700	3.439900	-10.311000	26.140636	0.000739	20.731852
1338.363365	-3.001500	3.439400	-10.323000	26.125284	0.000741	20.716898
1339.365258	-3.011700	3.439600	-10.358000	26.123323	0.000740	20.735318
1340.368474	-3.007400	3.438200	-10.339000	26.154434	0.000740	20.737655
1341.368014	-2.993300	3.439500	-10.295000	26.173275	0.000737	20.744260
1342.369722	-2.990700	3.438100	-10.281000	26.173927	0.000739	20.736854
1343.370107	-2.976100	3.437600	-10.229000	26.121947	0.000736	20.741522
1344.365619	-2.997000	3.437800	-10.302000	26.112305	0.000737	20.723773
1345.370358	-2.977100	3.437300	-10.231000	26.132328	0.000735	20.737255
1346.370450	-2.999600	3.437300	-10.309000	26.143660	0.000736	20.751961
1347.365121	-3.019600	3.434200	-10.367000	26.162788	0.000736	20.746999
1348.369642	-3.016900	3.435600	-10.363000	26.156474	0.000735	20.740180
1349.372957	-2.989700	3.436200	-10.272000	26.156824	0.000734	20.739109
1350.369635	-2.996000	3.435400	-10.290000	26.170134	0.000733	20.743000
1351.365361	-3.006600	3.434300	-10.325000	26.204783	0.000735	20.748895
1352.366416	-3.019800	3.433200	-10.366000	26.184290	0.000732	20.769554
1353.369506	-2.990000	3.433200	-10.264000	26.151186	0.000732	20.743875
1354.367115	-2.999000	3.432300	-10.291000	26.117250	0.000733	20.744389
1355.371852	-3.000800	3.431900	-10.297000	26.092785	0.000729	20.734031
1356.370215	-3.006800	3.433400	-10.323000	26.108878	0.000731	20.741667
1357.373082	-2.986700	3.432100	-10.249000	26.110927	0.000730	20.740881
1358.371591	-2.990100	3.432000	-10.262000	26.161525	0.000730	20.751420
1359.371708	-3.017700	3.430300	-10.350000	26.166292	0.000730	20.759529
1360.371866	-2.986200	3.431900	-10.248000	26.193563	0.000729	20.749948
1361.366869	-2.992700	3.430300	-10.264000	26.231155	0.000728	20.753111
1362.372694	-3.007500	3.430000	-10.315000	26.250851	0.000729	20.779542
1363.373572	-3.021700	3.429200	-10.361000	26.251183	0.000729	20.765177
1364.374460	-3.024400	3.428700	-10.368000	26.290557	0.000728	20.751640
1365.371887	-3.009100	3.428900	-10.317000	26.309688	0.000726	20.751900
1366.376405	-2.989800	3.429800	-10.253000	26.317115	0.000724	20.761261
1367.375569	-3.022500	3.427200	-10.357000	26.317374	0.000724	20.764367
1368.377780	-3.001800	3.426500	-10.285000	26.290360	0.000724	20.767089
1369.378360	-3.001600	3.426100	-10.283000	26.294956	0.000724	20.765070
1370.373542	-3.023700	3.426300	-10.360000	26.303245	0.000722	20.750166
1371.375852	-3.003500	3.425700	-10.288000	26.277742	0.000723	20.778592
1372.379137	-2.968100	3.428500	-10.176000	26.252906	0.000723	20.754581
1373.380387	-2.983600	3.425300	-10.219000	26.235521	0.000722	20.764137
1374.375733	-2.993400	3.424800	-10.251000	26.206267	0.000722	20.762715
1375.378865	-2.993000	3.425700	-10.251000	26.184358	0.000721	20.751604
1376.376750	-3.012300	3.424100	-10.313000	26.133021	0.000720	20.760711
1377.376863	-2.997300	3.425300	-10.266000	26.133761	0.000720	20.771887
1378.378522	-3.017600	3.422300	-10.324000	26.111656	0.000720	20.756787
1379.375312	-3.008600	3.422300	-10.295000	26.119109	0.000718	20.784664
1380.378101	-3.010000	3.421800	-10.298000	26.137430	0.000718	20.777944
1381.377514	-2.997900	3.422200	-10.259000	26.183731	0.000718	20.754768
1382.379323	-3.010600	3.420800	-10.297000	26.201872	0.000720	20.775842
1383.380669	-3.011600	3.422200	-10.305000	26.245364	0.000716	20.769761
1384.382737	-2.991600	3.422100	-10.236000	26.202645	0.000719	20.779938
1385.380594	-3.023400	3.418900	-10.335000	26.186349	0.000715	20.773995
1386.385874	-3.002900	3.419500	-10.267000	26.180663	0.000716	20.772548
1387.380654	-2.995700	3.420000	-10.243000	26.197616	0.000715	20.782472
1388.378382	-3.006200	3.418100	-10.274000	26.193272	0.000717	20.769571
1389.383900	-3.001200	3.418900	-10.260000	26.209958	0.000714	20.789657
1390.383064	-2.984500	3.419400	-10.204000	26.207215	0.000712	20.748968
1391.381026	-3.003400	3.418400	-10.266000	26.236625	0.000714	20.784212
1392.378904	-2.980300	3.418000	-10.186000	26.246354	0.000714	20.793041
1393.380700	-3.010100	3.417700	-10.286000	26.260110	0.000713	20.779364
1394.380537	-2.976300	3.418200	-10.172000	26.283327	0.000712	20.771401
1395.382318	-2.978000	3.416900	-10.174000	26.312847	0.000709	20.776886
1396.384350	-3.004000	3.416000	-10.259000	26.311179	0.000712	20.767623
1397.380549	-2.972200	3.416000	-10.152000	26.317483	0.000711	20.782020
1398.379928	-2.976000	3.416200	-10.166000	26.295454	0.000709	20.779796
1399.393193	-3.007600	3.413300	-10.264000	26.310007	0.000709	20.768817
1400.381789	-3.011900	3.415000	-10.285000	26.346692	0.000709	20.781503
1401.382923	-3.013500	3.413700	-10.286000	26.334410	0.000709	20.799980
1402.387925	-3.023300	3.412000	-10.314000	26.385013	0.000707	20.784455
1403.383878	-3.001500	3.414300	-10.247000	26.341015	0.000708	20.798083
1404.379666	-2.997100	3.414200	-10.232000	26.304255	0.000707	20.803813
1405.387362	-2.979500	3.413300	-10.169000	26.253998	0.000706	20.795982
1406.379910	-2.973500	3.413000	-10.147000	26.204300	0.000707	20.778756
1407.384191	-2.972000	3.412300	-10.139000	26.210742	0.000706	20.783807
1408.383546	-2.993400	3.412000	-10.212000	26.223189	0.000704	20.782091
1409.388736	-3.019100	3.410500	-10.296000	26.256486	0.000706	20.780938
1410.388999	-2.994600	3.409600	-10.209000	26.279466	0.000702	20.803557
1411.385735	-3.006200	3.410300	-10.250000	26.272446	0.000703	20.801244
1412.389557	-2.995900	3.409000	-10.212000	26.251750	0.000703	20.788981
1413.383360	-2.980100	3.409900	-10.160000	26.258429	0.000700	20.779097
1414.386796	-2.999000	3.408800	-10.223000	26.260429	0.000703	20.824729
1415.389317	-2.994900	3.408800	-10.208000	26.312027	0.000700	20.808305
1416.386958	-3.007100	3.408600	-10.249000	26.346965	0.000703	20.786045
1417.393344	-2.995600	3.407900	-10.208000	26.385121	0.000699	20.803530
1418.389390	-3.015900	3.405400	-10.270000	26.389465	0.000698	20.823068
1419.388423	-3.006200	3.405700	-10.237000	26.409717	0.000701	20.811656
1420.390605	-3.017600	3.406100	-10.277000	26.447424	0.000701	20.822053
1421.388575	-2.983200	3.406700	-10.161000	26.456217	0.000699	20.822830
1422.384245	-2.993700	3.405700	-10.194000	26.465302	0.000696	20.826272
1423.388542	-2.992400	3.406100	-10.190000	26.467700	0.000698	20.803079
1424.390619	-2.990900	3.405800	-10.185000	26.461617	0.000697	20.821145
1425.390387	-2.999400	3.404400	-10.210000	26.491254	0.000696	20.808735
1426.389127	-3.011600	3.403900	-10.250000	26.484080	0.000696	20.812904
1427.393939	-3.018600	3.403400	-10.272000	26.492538	0.000694	20.813819
1428.390922	-3.021300	3.402800	-10.279000	26.517987	0.000695	20.811898
1429.391530	-2.974900	3.404000	-10.126000	26.493123	0.000695	20.811088
1430.395658	-3.018500	3.401500	-10.266000	26.503671	0.000695	20.819320
1431.388884	-2.982700	3.401500	-10.145000	26.483159	0.000692	20.826677
1432.392179	-2.986400	3.402600	-10.161000	26.491008	0.000693	20.826980
1433.391353	-3.005200	3.401200	-10.220000	26.475806	0.000692	20.821183
1434.388871	-2.967800	3.401000	-10.092000	26.436619	0.000691	20.806926
1435.390227	-3.005700	3.401400	-10.222000	26.409598	0.000690	20.842829
1436.397843	-3.005100	3.398700	-10.212000	26.374036	0.000692	20.830321
1437.395554	-3.037700	3.398500	-10.322000	26.397217	0.000691	20.827541
1438.393907	-3.024000	3.397300	-10.272000	26.447403	0.000690	20.814919
1439.397433	-3.008900	3.399100	-10.227000	26.431631	0.000689	20.813766
1440.392069	-3.000200	3.398300	-10.195000	26.431647	0.000686	20.846972
1441.398359	-2.996800	3.398200	-10.183000	26.392929	0.000689	20.823706
1442.400547	-3.017000	3.398800	-10.252000	26.414338	0.000687	20.826257
1443.397176	-3.014800	3.396600	-10.238000	26.431069	0.000686	20.815098
1444.398511	-3.001100	3.397700	-10.195000	26.432183	0.000687	20.828545
1445.401043	-3.015800	3.396100	-10.241000	26.440918	0.000687	20.846807
1446.397900	-2.995300	3.396500	-10.172000	26.422170	0.000686	20.834128
1447.398795	-3.015300	3.395700	-10.236000	26.404804	0.000684	20.834691
1448.396314	-3.009300	3.395000	-10.216000	26.392066	0.000683	20.832321
1449.398987	-2.994800	3.394600	-10.165000	26.414458	0.000685	20.839653
1450.395475	-2.996300	3.394800	-10.171000	26.407756	0.000685	20.835762
1451.398787	-3.001300	3.393700	-10.184000	26.411944	0.000683	20.837601
1452.398453	-3.015000	3.392400	-10.227000	26.429920	0.000683	20.823900
1453.398895	-2.992200	3.395500	-10.159000	26.455841	0.000681	20.832410
1454.404723	-2.997000	3.393200	-10.168000	26.447228	0.000680	20.828968
1455.399807	-2.986400	3.393200	-10.132000	26.450823	0.000679	20.861977
1456.401021	-2.987100	3.392900	-10.133000	26.457354	0.000680	20.833930
1457.400400	-2.991100	3.391600	-10.144000	26.484763	0.000679	20.856738
1458.395903	-3.019500	3.390400	-10.237000	26.487536	0.000679	20.850990
1459.399518	-2.988700	3.390600	-10.132000	26.524900	0.000679	20.834968
1460.399544	-2.999600	3.390600	-10.169000	26.539449	0.000678	20.831575
1461.399475	-2.983000	3.390500	-10.113000	26.531601	0.000677	20.857824
1462.397027	-3.005600	3.389400	-10.186000	26.511993	0.000678	20.859925
1463.404518	-2.975300	3.390700	-10.087000	26.465170	0.000675	20.865018
1464.402014	-2.986700	3.390000	-10.123000	26.448960	0.000676	20.849675
1465.400626	-2.985900	3.388500	-10.117000	26.418215	0.000675	20.841532
1466.404837	-2.986600	3.388700	-10.120000	26.409739	0.000675	20.854349
1467.402062	-3.000700	3.387200	-10.164000	26.434099	0.000673	20.856549
1468.399676	-2.987900	3.388100	-10.122000	26.457419	0.000672	20.853909
1469.405597	-2.982800	3.387400	-10.103000	26.449009	0.000673	20.833603
1470.398998	-2.996600	3.386600	-10.147000	26.471294	0.000672	20.855527
1471.398724	-3.006000	3.386800	-10.179000	26.525241	0.000672	20.843371
1472.406484	-3.016900	3.385500	-10.213000	26.540457	0.000673	20.853924
1473.404078	-3.019700	3.385700	-10.222000	26.552234	0.000671	20.851538
1474.403044	-2.993100	3.385500	-10.132000	26.509902	0.000671	20.848341
1475.407609	-3.010500	3.384600	-10.188000	26.492692	0.000671	20.835785
1476.404461	-2.987500	3.384800	-10.110000	26.485193	0.000672	20.841049
1477.404027	-2.988400	3.383900	-10.110000	26.495026	0.000671	20.840976
1478.405390	-3.005000	3.382600	-10.164000	26.516969	0.000669	20.851177
1479.403961	-2.982700	3.384600	-10.093000	26.518685	0.000670	20.853377
1480.400759	-2.974500	3.383900	-10.063000	26.542864	0.000670	20.832163
1481.402369	-3.001200	3.381800	-10.148000	26.535228	0.000667	20.831126
1482.402559	-2.976500	3.381700	-10.063000	26.499622	0.000666	20.832319
1483.405956	-2.991600	3.381900	-10.117000	26.498971	0.000667	20.857742
1484.405965	-3.006500	3.381400	-10.165000	26.493977	0.000666	20.822852
1485.405783	-2.989300	3.381400	-10.106000	26.523996	0.000666	20.825051
1486.406081	-3.008700	3.381000	-10.172000	26.543035	0.000665	20.842765
1487.408783	-3.035100	3.379000	-10.253000	26.553738	0.000665	20.824127
1488.406006	-3.004200	3.380600	-10.155000	26.584048	0.000664	20.843215
1489.406391	-2.996500	3.379800	-10.126000	26.618635	0.000665	20.841948
1490.404785	-2.995700	3.379200	-10.121000	26.640673	0.000665	20.829490
1491.404423	-2.992300	3.378800	-10.109000	26.645040	0.000663	20.819655
1492.412146	-3.012200	3.378500	-10.176000	26.602191	0.000663	20.809297
1493.411462	-2.995200	3.378500	-10.118000	26.614308	0.000662	20.832383
1494.408241	-3.014200	3.377600	-10.180000	26.609519	0.000661	20.848431
1495.406795	-2.998000	3.378600	-10.128000	26.586276	0.000663	20.850196
1496.409544	-2.992200	3.377800	-10.105000	26.592018	0.000660	20.813769
1497.408488	-2.987900	3.376800	-10.089000	26.615170	0.000660	20.820922
1498.408650	-2.998600	3.376200	-10.123000	26.627637	0.000660	20.844359
1499.408090	-2.992500	3.375000	-10.098000	26.654668	0.000660	20.817006
1500.405992	-3.010800	3.375200	-10.161000	26.649723	0.000658	20.821518
1501.404300	-2.981300	3.375500	-10.062000	26.597164	0.000658	20.817995
1502.410539	-2.989800	3.373000	-10.084000	26.550102	0.000657	20.832326
1503.404434	-3.019500	3.373300	-10.184000	26.487111	0.000656	20.815951
1504.409331	-3.001000	3.375000	-10.128000	26.498205	0.000656	20.816196
1505.409852	-3.015200	3.372900	-10.168000	26.507785	0.000658	20.815869
1506.404819	-3.008800	3.373100	-10.148000	26.531827	0.000655	20.829129
1507.409290	-3.016600	3.371900	-10.170000	26.524873	0.000656	20.806967
1508.411393	-3.006200	3.372100	-10.136000	26.533120	0.000654	20.819524
1509.406317	-2.995200	3.372300	-10.100000	26.562804	0.000652	20.828025
1510.406551	-3.022500	3.371000	-10.189000	26.579566	0.000653	20.799830
1511.407990	-2.995800	3.371400	-10.099000	26.597156	0.000654	20.786218
1512.406489	-2.998700	3.371500	-10.110000	26.614625	0.000653	20.797141
1513.411502	-3.019000	3.370000	-10.173000	26.649845	0.000653	20.812632
1514.411786	-3.001600	3.369700	-10.114000	26.614211	0.000651	20.817587
1515.412037	-3.003300	3.369300	-10.118000	26.606810	0.000651	20.802561
1516.411381	-2.990300	3.370900	-10.078000	26.591838	0.000650	20.802684
1517.411098	-2.998900	3.369000	-10.102000	26.535658	0.000651	20.796471
1518.413032	-3.008900	3.367800	-10.132000	26.494847	0.000648	20.785794
1519.411455	-2.982600	3.369300	-10.047000	26.482737	0.000648	20.819615
1520.416574	-3.002200	3.367300	-10.109000	26.514766	0.000649	20.800600
1521.411879	-2.998200	3.367300	-10.095000	26.519425	0.000646	20.800068
1522.414451	-2.982600	3.368000	-10.045000	26.516506	0.000648	20.807565
1523.413605	-3.006000	3.367100	-10.121000	26.524753	0.000647	20.801156
1524.416064	-2.988900	3.366000	-10.059000	26.535895	0.000646	20.794812
1525.417875	-3.003700	3.367200	-10.114000	26.542711	0.000647	20.808302
1526.417793	-3.011100	3.364600	-10.130000	26.502111	0.000645	20.811588
1527.416646	-2.995200	3.366500	-10.082000	26.441982	0.000644	20.790505
1528.418840	-2.986600	3.365200	-10.049000	26.441607	0.000643	20.794870
1529.413118	-3.011400	3.364500	-10.131000	26.415816	0.000642	20.788388
1530.413305	-3.019300	3.363300	-10.154000	26.458346	0.000642	20.784194
1531.422042	-2.974700	3.364400	-10.007000	26.458989	0.000642	20.774882
1532.416230	-3.027300	3.362000	-10.174000	26.537255	0.000641	20.817515
1533.419521	-3.014300	3.362600	-10.135000	26.562644	0.000642	20.816485
1534.417202	-3.007800	3.362200	-10.112000	26.606502	0.000642	20.802252
1535.421759	-2.996100	3.362800	-10.074000	26.640553	0.000640	20.799972
1536.419540	-3.007000	3.362300	-10.109000	26.652092	0.000642	20.803986
1537.418349	-2.983100	3.362500	-10.029000	26.661509	0.000639	20.800177
1538.420539	-3.001100	3.360700	-10.085000	26.646124	0.000639	20.789926
1539.420784	-3.010300	3.360300	-10.114000	26.672911	0.000639	20.791724
1540.417484	-2.994800	3.360300	-10.062000	26.650962	0.000639	20.790048
1541.416520	-2.985400	3.360000	-10.030000	26.611197	0.000636	20.784211
1542.419547	-3.008900	3.358900	-10.106000	26.574479	0.000636	20.774801
1543.421066	-2.987700	3.359600	-10.036000	26.580245	0.000636	20.794823
1544.421459	-3.003100	3.357600	-10.082000	26.602064	0.000635	20.781195
1545.420702	-3.012200	3.359100	-10.117000	26.617386	0.000634	20.804183
1546.422219	-2.995200	3.357600	-10.056000	26.628551	0.000633	20.779846
1547.422539	-2.986800	3.357400	-10.027000	26.662364	0.000631	20.786811
1548.425125	-2.985800	3.357500	-10.023000	26.664707	0.000634	20.771148
1549.419507	-2.997200	3.356900	-10.061000	26.681044	0.000631	20.777141
1550.422220	-2.990700	3.357600	-10.041000	26.658445	0.000630	20.778129
1551.420348	-2.984100	3.356200	-10.014000	26.646239	0.000630	20.795257
1552.421631	-2.996500	3.355200	-10.053000	26.619558	0.000633	20.786927
1553.431514	-2.993800	3.356100	-10.046000	26.592956	0.000629	20.791479
1554.423941	-2.985000	3.355700	-10.016000	26.564688	0.000629	20.761640
1555.423950	-3.001500	3.354600	-10.068000	26.553620	0.000629	20.787025
1556.424890	-2.998900	3.355400	-10.061000	26.541779	0.000629	20.790295
1557.424901	-3.010000	3.354500	-10.095000	26.571267	0.000627	20.782953
1558.424494	-2.995000	3.353400	-10.043000	26.605155	0.000627	20.791415
1559.424412	-3.022100	3.352900	-10.131000	26.631471	0.000626	20.760496
1560.424671	-3.016300	3.354200	-10.116000	26.637481	0.000627	20.806367
1561.421439	-2.995700	3.352900	-10.043000	26.682434	0.000625	20.767159
1562.421516	-2.998500	3.351500	-10.048000	26.695275	0.000626	20.768214
1563.423980	-2.994700	3.354000	-10.043000	26.731630	0.000623	20.785798
1564.419598	-3.010200	3.351800	-10.088000	26.744844	0.000622	20.768263
1565.426627	-3.008600	3.352400	-10.085000	26.709911	0.000622	20.778661
1566.432654	-3.008000	3.350500	-10.077000	26.695664	0.000623	20.784253
1567.427277	-2.981800	3.352400	-9.994400	26.711456	0.000624	20.771680
1568.432717	-3.004100	3.351100	-10.065000	26.704008	0.000622	20.791219
1569.428028	-2.992100	3.349500	-10.021000	26.690899	0.000622	20.799377
1570.428975	-2.990200	3.350100	-10.017000	26.707723	0.000618	20.781204
1571.431911	-2.981000	3.349800	-9.985100	26.690306	0.000620	20.795936
1572.427757	-3.004400	3.348500	-10.060000	26.723734	0.000618	20.763635
1573.429479	-3.006500	3.349800	-10.069000	26.736054	0.000618	20.779340
1574.431765	-2.997300	3.348700	-10.036000	26.749080	0.000619	20.764461
1575.432149	-3.006300	3.346900	-10.061000	26.764065	0.000618	20.774786
1576.431355	-2.998100	3.347100	-10.034000	26.745404	0.000617	20.760291
1577.428933	-3.008700	3.345600	-10.063000	26.782384	0.000615	20.765229
1578.429656	-2.984600	3.347000	-9.988600	26.810427	0.000615	20.751224
1579.429471	-2.974100	3.346400	-9.949700	26.831648	0.000615	20.764975
1580.439694	-3.005000	3.345200	-10.051000	26.823802	0.000616	20.782691
1581.428368	-2.992700	3.345600	-10.010000	26.835689	0.000615	20.767141
1582.430926	-3.000600	3.345300	-10.037000	26.840681	0.000614	20.786386
1583.430128	-3.025900	3.345100	-10.121000	26.825232	0.000614	20.768482
1584.433208	-3.017900	3.343000	-10.087000	26.804394	0.000615	20.754642
1585.435342	-2.991500	3.346000	-10.007000	26.766341	0.000614	20.762375
1586.434675	-2.972300	3.344600	-9.940900	26.675065	0.000612	20.750741
1587.435970	-2.968200	3.343500	-9.921800	26.595738	0.000611	20.751126
1588.434034	-3.004100	3.342200	-10.039000	26.589654	0.000611	20.759236
1589.441686	-3.011500	3.343100	-10.066000	26.565045	0.000611	20.779069
1590.437047	-3.011700	3.342300	-10.065000	26.593249	0.000611	20.778971
1591.437397	-2.971700	3.343200	-9.933300	26.618101	0.000611	20.756538
1592.433141	-2.986500	3.341000	-9.976700	26.662787	0.000610	20.754519
1593.434568	-2.983200	3.340600	-9.964600	26.691557	0.000609	20.771115
1594.437866	-2.995500	3.340500	-10.005000	26.731125	0.000608	20.767747
1595.438596	-3.038800	3.338100	-10.142000	26.715294	0.000607	20.785970
1596.443411	-3.004800	3.339600	-10.034000	26.717107	0.000607	20.768826
1597.440434	-3.004800	3.338900	-10.032000	26.728499	0.000609	20.771745
1598.437129	-3.009400	3.337200	-10.041000	26.699429	0.000608	20.764330
1599.445356	-3.012300	3.338600	-10.056000	26.643157	0.000606	20.761338
1600.437520	-2.998200	3.337800	-10.007000	26.644140	0.000604	20.770387
1601.448588	-2.999700	3.337600	-10.011000	26.645646	0.000603	20.743925
1602.442587	-3.017000	3.337000	-10.067000	26.689126	0.000602	20.777206
1603.438627	-3.022600	3.335800	-10.082000	26.712610	0.000603	20.762883
1604.443733	-2.964700	3.338400	-9.896700	26.710748	0.000602	20.739673
1605.442465	-3.005500	3.335800	-10.024000	26.704446	0.000600	20.754675
1606.442666	-3.004100	3.335500	-10.020000	26.699347	0.000602	20.772308
1607.440619	-3.015100	3.334100	-10.052000	26.708658	0.000600	20.741839
1608.444101	-2.984600	3.335300	-9.953300	26.689549	0.000599	20.749655
1609.441781	-3.002400	3.334700	-10.011000	26.711561	0.000599	20.771311
1610.444123	-2.983000	3.334900	-9.947300	26.725466	0.000597	20.757789
1611.446503	-3.010800	3.334500	-10.038000	26.735483	0.000598	20.773076
1612.448926	-3.019400	3.332800	-10.062000	26.748664	0.000596	20.743179
1613.448768	-3.004200	3.333500	-10.013000	26.757299	0.000596	20.753284
1614.443172	-2.975300	3.334800	-9.921100	26.754989	0.000594	20.752384
1615.445470	-3.009000	3.331300	-10.023000	26.746476	0.000595	20.731970
1616.443755	-3.011700	3.331600	-10.032000	26.771788	0.000596	20.745091
1617.446654	-3.011000	3.331500	-10.028000	26.794961	0.000594	20.741837
1618.445190	-2.982300	3.331600	-9.935000	26.837379	0.000594	20.758883
1619.447034	-3.006000	3.329900	-10.009000	26.788033	0.000592	20.745303
1620.446518	-2.979300	3.332400	-9.927300	26.769397	0.000593	20.758809
1621.445403	-3.008400	3.330500	-10.018000	26.758988	0.000591	20.747396
1622.447478	-2.998400	3.332000	-9.989800	26.712867	0.000591	20.749865
1623.448949	-2.975500	3.329500	-9.905300	26.726593	0.000591	20.740904
1624.447076	-3.002300	3.330300	-9.996900	26.720112	0.000591	20.745769
1625.443154	-2.987300	3.328400	-9.942500	26.725690	0.000590	20.748531
1626.444743	-2.985900	3.329800	-9.941500	26.708590	0.000588	20.763582
1627.446815	-3.013800	3.326800	-10.025000	26.708158	0.000586	20.736595
1628.451373	-3.001800	3.328400	-9.989900	26.722340	0.000587	20.749905
1629.447262	-3.013900	3.326700	-10.024000	26.726633	0.000585	20.752799
1630.453215	-3.029200	3.325100	-10.072000	26.706548	0.000584	20.740192
1631.443855	-3.000100	3.326800	-9.979100	26.697465	0.000583	20.735328
1632.447141	-3.010900	3.325800	-10.012000	26.700889	0.000585	20.737347
1633.453905	-2.972100	3.326700	-9.885600	26.716371	0.000583	20.744377
1634.444649	-2.985900	3.326700	-9.931700	26.732536	0.000583	20.737870
1635.448707	-3.008100	3.325200	-10.001000	26.750750	0.000582	20.746225
1636.445684	-3.015900	3.324500	-10.025000	26.770591	0.000582	20.733930
1637.448094	-3.003000	3.324200	-9.981000	26.755256	0.000578	20.727046
1638.445676	-3.001100	3.325100	-9.977200	26.725185	0.000580	20.735221
1639.450109	-3.012700	3.322800	-10.008000	26.690911	0.000581	20.744860
1640.444533	-2.991300	3.323800	-9.941300	26.670639	0.000581	20.715944
1641.448478	-3.001600	3.323000	-9.972500	26.603858	0.000580	20.739849
1642.449125	-2.995700	3.321600	-9.950300	26.576005	0.000576	20.729393
1643.448996	-2.987200	3.323100	-9.925500	26.522240	0.000577	20.754059
1644.454674	-2.985400	3.321800	-9.915600	26.511707	0.000577	20.708382
1645.444895	-3.000200	3.321800	-9.965500	26.494783	0.000577	20.725510
1646.451350	-2.998800	3.320000	-9.955500	26.500054	0.000575	20.716583
1647.447586	-3.002400	3.320100	-9.966500	26.547696	0.000575	20.733653
1648.450050	-3.012900	3.320000	-10.002000	26.575063	0.000573	20.719911
1649.448477	-2.998700	3.319100	-9.950800	26.607366	0.000575	20.726779
1650.452650	-3.015200	3.318100	-10.004000	26.641806	0.000574	20.725839
1651.450309	-2.974900	3.319700	-9.873700	26.700168	0.000571	20.726665
1652.448371	-3.013200	3.318700	-9.999000	26.706227	0.000571	20.722324
1653.454863	-3.021300	3.317700	-10.023000	26.729321	0.000570	20.725628
1654.455166	-3.027400	3.318000	-10.044000	26.718035	0.000568	20.737990
1655.450498	-3.002500	3.316300	-9.956300	26.730753	0.000569	20.726119
1656.453348	-2.988000	3.316400	-9.907900	26.777141	0.000570	20.725343
1657.454690	-2.990900	3.316600	-9.918700	26.797404	0.000569	20.742871
1658.453846	-2.995400	3.314500	-9.927000	26.832082	0.000569	20.720365
1659.461311	-2.992800	3.316800	-9.924900	26.827391	0.000566	20.730821
1660.450839	-2.985400	3.316000	-9.897700	26.850197	0.000566	20.737157
1661.451333	-3.006000	3.315200	-9.965100	26.845685	0.000567	20.725033
1662.455123	-3.005100	3.313700	-9.955900	26.827326	0.000566	20.731231
1663.456601	-3.002500	3.314000	-9.949000	26.834953	0.000566	20.720407
1664.460834	-2.991800	3.314100	-9.913700	26.856052	0.000565	20.708904
1665.456965	-3.005300	3.313600	-9.957400	26.858386	0.000563	20.720734
1666.455983	-2.992900	3.313300	-9.915600	26.859256	0.000563	20.708332
1667.452691	-3.003600	3.312900	-9.949700	26.808180	0.000563	20.719565
1668.453755	-2.970700	3.313200	-9.841900	26.754491	0.000562	20.713948
1669.452578	-3.003700	3.311600	-9.945800	26.748563	0.000562	20.741182
1670.461941	-3.011300	3.311200	-9.970300	26.717120	0.000560	20.716206
1671.456981	-2.992600	3.311500	-9.908700	26.743798	0.000561	20.727856
1672.460345	-3.006700	3.309900	-9.951000	26.764777	0.000559	20.706272
1673.455982	-3.021400	3.310700	-10.001000	26.800375	0.000560	20.690853
1674.458385	-2.993500	3.309800	-9.906000	26.772022	0.000561	20.705970
1675.457225	-3.008800	3.308900	-9.955000	26.744352	0.000558	20.687158
1676.455716	-2.974700	3.310500	-9.847100	26.734278	0.000558	20.706902
1677.464705	-3.005400	3.308000	-9.939900	26.770941	0.000558	20.718635
1678.456658	-3.016700	3.308000	-9.978100	26.777894	0.000556	20.693854
1679.456870	-3.018200	3.306600	-9.978400	26.804278	0.000556	20.695252
1680.466138	-3.000400	3.309200	-9.926800	26.754346	0.000556	20.717597
1681.466355	-2.994700	3.308100	-9.905300	26.734034	0.000556	20.709502
1682.462885	-3.012100	3.305800	-9.956000	26.743451	0.000555	20.693839
1683.457282	-2.985000	3.307200	-9.870800	26.720642	0.000554	20.704099
1684.462983	-3.028700	3.304900	-10.008000	26.731067	0.000553	20.698458
1685.463923	-3.015600	3.305800	-9.968100	26.757681	0.000554	20.689179
1686.462619	-3.002900	3.305100	-9.923200	26.750582	0.000552	20.699112
1687.455804	-2.984800	3.306100	-9.867000	26.773366	0.000553	20.689301
1688.473677	-2.994800	3.305500	-9.897800	26.769504	0.000550	20.693480
1689.457355	-2.968900	3.306000	-9.813100	26.795247	0.000551	20.701345
1690.460636	-2.996300	3.304700	-9.900300	26.818249	0.000549	20.691755
1691.466683	-3.005400	3.304400	-9.929900	26.844292	0.000549	20.689016
1692.462754	-3.009900	3.303200	-9.941500	26.872740	0.000548	20.699604
1693.463455	-2.980900	3.304200	-9.847600	26.867276	0.000549	20.697904
1694.463557	-2.986800	3.303800	-9.866100	26.868569	0.000547	20.696359
1695.461356	-3.013500	3.302600	-9.951100	26.848170	0.000547	20.683433
1696.470425	-2.975100	3.301700	-9.822300	26.827941	0.000548	20.692491
1697.464883	-3.004200	3.301500	-9.917700	26.820022	0.000544	20.699228
1698.463083	-2.967900	3.301000	-9.795600	26.810891	0.000546	20.687202
1699.468011	-2.990200	3.300900	-9.869400	26.799500	0.000544	20.703251
1700.463434	-2.964900	3.302400	-9.789200	26.821592	0.000543	20.691323
1701.473107	-2.990200	3.300900	-9.868900	26.801207	0.000543	20.668454
1702.465351	-2.993100	3.300000	-9.876500	26.809924	0.000544	20.685281
1703.467723	-3.004500	3.299900	-9.912300	26.858602	0.000542	20.681594
1704.464083	-2.983900	3.298100	-9.840000	26.889676	0.000541	20.687235
1705.464395	-3.014000	3.296400	-9.934200	26.902156	0.000541	20.701681
1706.470113	-2.995300	3.297100	-9.874300	26.915067	0.000540	20.687636
1707.464909	-3.018200	3.296300	-9.947900	26.932644	0.000536	20.689190
1708.466027	-3.000400	3.296900	-9.890800	26.959871	0.000536	20.675316
1709.462677	-2.994800	3.297100	-9.873100	27.011134	0.000537	20.680401
1710.468003	-2.997800	3.295800	-9.879300	27.026645	0.000538	20.694577
1711.469621	-3.003700	3.295000	-9.895100	27.055885	0.000537	20.703122
1712.468362	-3.000100	3.296300	-9.888000	27.058486	0.000536	20.684399
1713.461676	-3.013900	3.295700	-9.932700	27.045309	0.000537	20.670672
1714.468572	-3.001300	3.294000	-9.885100	27.053130	0.000536	20.680908
1715.465760	-2.977000	3.295500	-9.808700	27.072557	0.000534	20.676738
1716.466482	-3.006400	3.293100	-9.899400	27.071079	0.000535	20.684261
1717.472533	-2.985300	3.293700	-9.831000	27.084402	0.000534	20.688651
1718.463755	-2.982000	3.293900	-9.821600	27.084353	0.000532	20.677221
1719.466363	-2.995500	3.292900	-9.862700	27.104674	0.000533	20.674425
1720.466039	-2.988000	3.292500	-9.837400	27.086662	0.000532	20.671008
1721.462469	-2.995700	3.291700	-9.859900	27.073932	0.000531	20.679543
1722.466982	-2.983100	3.292100	-9.819400	27.094287	0.000530	20.665400
1723.472517	-3.009400	3.291300	-9.904200	27.105991	0.000529	20.684285
1724.466490	-2.996300	3.289800	-9.855600	27.058562	0.000529	20.682104
1725.466982	-2.998700	3.291900	-9.870000	26.988130	0.000527	20.684768
1726.463179	-3.002200	3.289700	-9.876000	26.945198	0.000527	20.672889
1727.464868	-3.019500	3.289400	-9.931400	26.946694	0.000527	20.664436
1728.467233	-3.002600	3.289400	-9.876100	26.932418	0.000530	20.684695
1729.465052	-2.998900	3.289800	-9.864000	26.928004	0.000526	20.691636
1730.466012	-3.004700	3.288000	-9.877600	26.952003	0.000526	20.676887
1731.465914	-3.000100	3.288100	-9.863800	26.982253	0.000523	20.683125
1732.467721	-3.010500	3.288600	-9.899600	26.991172	0.000525	20.675024
1733.465646	-3.003600	3.288000	-9.873800	27.002333	0.000523	20.692888
1734.466506	-3.008900	3.288700	-9.893900	27.030549	0.000524	20.679537
1735.467287	-3.012800	3.288000	-9.904900	27.026607	0.000522	20.696911
1736.466959	-2.982700	3.288000	-9.806100	27.035134	0.000522	20.690312
1737.464273	-2.994500	3.286500	-9.840300	27.064325	0.000521	20.696911
1738.467422	-2.994400	3.286400	-9.839900	27.083923	0.000520	20.664934
1739.473701	-2.979400	3.286100	-9.789800	27.094442	0.000519	20.677411
1740.468105	-2.983000	3.286100	-9.799700	27.097319	0.000520	20.703066
1741.471674	-2.975700	3.285700	-9.776500	27.094116	0.000519	20.690835
1742.468026	-2.981600	3.285800	-9.796000	27.103847	0.000516	20.684973
1743.465219	-2.979300	3.284400	-9.783400	27.071845	0.000516	20.689299
1744.470731	-3.010900	3.283200	-9.884200	27.075884	0.000517	20.668703
1745.466471	-3.003000	3.282400	-9.856200	27.075884	0.000517	20.690991
1746.467515	-2.995900	3.282300	-9.832500	27.091686	0.000516	20.693607
1747.468578	-3.011700	3.281600	-9.882100	27.112016	0.000516	20.678964
1748.466319	-3.007700	3.281600	-9.869100	27.117674	0.000516	20.694139
1749.469803	-3.030700	3.281300	-9.943600	27.127963	0.000514	20.694056
1750.469566	-2.994300	3.282100	-9.826600	27.104725	0.000514	20.689651
1751.471555	-2.985700	3.281700	-9.796600	27.093906	0.000513	20.679243
1752.470702	-3.000300	3.279900	-9.838800	27.126558	0.000513	20.681262
1753.471175	-3.009000	3.279600	-9.866600	27.102904	0.000511	20.685447
1754.471214	-2.995700	3.280500	-9.826500	27.060034	0.000510	20.687852
1755.472291	-3.009600	3.279500	-9.868100	27.025989	0.000513	20.711463
1756.472484	-2.992200	3.277900	-9.807500	27.011300	0.000510	20.696690
1757.474295	-3.006600	3.278400	-9.855900	27.051401	0.000509	20.679643
1758.470567	-2.997000	3.278400	-9.823600	27.021974	0.000509	20.685612
1759.472775	-2.997600	3.277500	-9.822700	27.009357	0.000510	20.671500
1760.471766	-2.993800	3.279000	-9.816300	26.987977	0.000508	20.699789
1761.471741	-3.024900	3.276100	-9.908700	27.016934	0.000506	20.693346
1762.475431	-3.001900	3.276900	-9.836100	27.047532	0.000507	20.684762
1763.474778	-3.004700	3.276500	-9.843300	27.061968	0.000504	20.688375
1764.475763	-3.006900	3.275400	-9.848000	27.040231	0.000506	20.679790
1765.480261	-3.025800	3.273400	-9.902900	27.059197	0.000504	20.680846
1766.474535	-3.020800	3.273500	-9.887600	27.036867	0.000504	20.687313
1767.473674	-2.998000	3.274300	-9.814800	27.036931	0.000504	20.706345
1768.475312	-2.997700	3.274400	-9.815000	27.048353	0.000505	20.689855
1769.475225	-2.967000	3.275400	-9.716400	27.085453	0.000504	20.701089
1770.477950	-2.991900	3.274300	-9.795200	27.154999	0.000504	20.683789
1771.481740	-3.001300	3.273700	-9.824200	27.146912	0.000502	20.722125
1772.477993	-3.011300	3.272000	-9.852500	27.160121	0.000500	20.707908
1773.477717	-2.996200	3.271300	-9.799800	27.107627	0.000498	20.691147
1774.475448	-2.976700	3.273600	-9.742700	27.075495	0.000499	20.685857
1775.486035	-3.012500	3.269800	-9.849900	27.026388	0.000502	20.662548
1776.479675	-3.005700	3.270700	-9.829500	27.072365	0.000498	20.700254
1777.480869	-3.015600	3.271000	-9.862800	27.060602	0.000496	20.691269
1778.482879	-3.014500	3.270900	-9.858900	27.049010	0.000497	20.695733
1779.482780	-3.027700	3.269300	-9.897600	27.052384	0.000495	20.696755
1780.482355	-2.996700	3.270400	-9.799400	27.087801	0.000494	20.704400
1781.481690	-2.980800	3.270400	-9.747100	27.111341	0.000494	20.696305
1782.483723	-2.986200	3.269700	-9.762900	27.118535	0.000492	20.691211
1783.484804	-2.991000	3.268200	-9.773600	27.089946	0.000491	20.702763
1784.484721	-3.019200	3.267200	-9.863400	27.116250	0.000492	20.698398
1785.487317	-2.995600	3.267500	-9.787200	27.159395	0.000492	20.710972
1786.486033	-2.987900	3.267200	-9.761000	27.161947	0.000490	20.704055
1787.490156	-3.016900	3.265500	-9.849400	27.132669	0.000492	20.696893
1788.482456	-2.997100	3.267700	-9.792700	27.109407	0.000490	20.700998
1789.480913	-3.014800	3.266100	-9.846100	27.121257	0.000491	20.706753
1790.483955	-2.961900	3.266500	-9.673700	27.139236	0.000491	20.718672
1791.484542	-2.980400	3.266000	-9.733000	27.124524	0.000487	20.694390
1792.485726	-2.990600	3.264000	-9.760700	27.048944	0.000487	20.720798
1793.486959	-2.988500	3.263800	-9.752600	27.020451	0.000487	20.695935
1794.486262	-2.986700	3.264900	-9.749600	26.998397	0.000487	20.694620
1795.485621	-3.001400	3.265200	-9.799500	26.960920	0.000486	20.708616
1796.486228	-3.016900	3.262800	-9.841700	26.996584	0.000485	20.703229
1797.483558	-3.007100	3.262500	-9.809900	27.005412	0.000483	20.718271
1798.493210	-2.982100	3.262300	-9.727200	26.999982	0.000482	20.715656
1799.485880	-2.993800	3.262800	-9.767900	26.991714	0.000482	20.711608
1800.495831	-3.015300	3.260200	-9.828900	26.984000	0.000481	20.693418
1801.489069	-3.031200	3.260200	-9.880800	27.019761	0.000482	20.718002
1802.484601	-3.002300	3.260800	-9.787600	27.072542	0.000482	20.704226
1803.494143	-3.010700	3.260600	-9.814500	27.103692	0.000481	20.700940
1804.495670	-3.009400	3.259000	-9.806700	27.092416	0.000480	20.718999
1805.489013	-3.016500	3.259500	-9.832400	27.066446	0.000480	20.703311
1806.486064	-3.007200	3.259500	-9.800600	27.075827	0.000478	20.692830
1807.486369	-2.984600	3.259600	-9.727600	27.097977	0.000479	20.722221
1808.486527	-2.997000	3.259700	-9.768900	27.062650	0.000478	20.724625
1809.493396	-2.997100	3.257900	-9.762700	27.068575	0.000476	20.719204
1810.489624	-2.999400	3.257000	-9.768400	27.059845	0.000475	20.738401
1811.492071	-3.000900	3.257400	-9.773500	27.098676	0.000475	20.707750
1812.487891	-3.005600	3.256400	-9.786200	27.147715	0.000476	20.708707
1813.491043	-2.994000	3.256500	-9.748200	27.154194	0.000474	20.716172
1814.491094	-3.002200	3.255600	-9.771700	27.142180	0.000473	20.705985
1815.494131	-2.989100	3.255100	-9.729100	27.131206	0.000473	20.704431
1816.491934	-3.003000	3.255300	-9.774500	27.160940	0.000471	20.721061
1817.491704	-2.990500	3.254500	-9.731200	27.133685	0.000470	20.699337
1818.492412	-3.023700	3.254100	-9.838200	27.088207	0.000470	20.722826
1819.488677	-2.980800	3.254300	-9.698900	27.052010	0.000471	20.713923
1820.497207	-2.978100	3.254800	-9.691900	27.079443	0.000471	20.693622
1821.489234	-2.994000	3.253100	-9.738700	27.082695	0.000468	20.689780
1822.492058	-3.002200	3.253000	-9.764700	27.096255	0.000469	20.719066
1823.490386	-2.989400	3.253200	-9.724200	27.166044	0.000468	20.715288
1824.491999	-3.007900	3.252900	-9.783400	27.222695	0.000467	20.731019
1825.492289	-2.980300	3.252900	-9.692900	27.274621	0.000467	20.718289
1826.495090	-3.009300	3.251800	-9.785000	27.317361	0.000466	20.717659
1827.497800	-2.998900	3.251000	-9.748400	27.363708	0.000465	20.714021
1828.491895	-3.008100	3.250400	-9.775300	27.405957	0.000464	20.705315
1829.494164	-3.015600	3.249700	-9.799300	27.450650	0.000464	20.723251
1830.496824	-2.976200	3.252000	-9.677200	27.379205	0.000465	20.716809
1831.498862	-3.002500	3.250100	-9.757800	27.332314	0.000462	20.759730
1832.492351	-3.012300	3.248200	-9.783500	27.288526	0.000461	20.729906
1833.495147	-2.995800	3.250100	-9.735500	27.304902	0.000461	20.712238
1834.495021	-2.997900	3.248300	-9.736900	27.343276	0.000462	20.731402
1835.494905	-3.023400	3.247300	-9.816900	27.354507	0.000458	20.728474
1836.496157	-3.002700	3.248600	-9.753200	27.336839	0.000459	20.741996
1837.492692	-2.986600	3.246800	-9.696000	27.343894	0.000460	20.732971
1838.498441	-3.005800	3.246700	-9.757800	27.350800	0.000459	20.719055
1839.495337	-2.979300	3.247300	-9.673700	27.380674	0.000457	20.719235
1840.498605	-2.978100	3.246400	-9.665800	27.394081	0.000457	20.735569
1841.502326	-2.978300	3.245300	-9.663800	27.388751	0.000456	20.748225
1842.497289	-2.973100	3.244900	-9.646000	27.399981	0.000456	20.753833
1843.498617	-2.987100	3.246000	-9.695500	27.374821	0.000453	20.738953
1844.495874	-3.014300	3.243700	-9.776500	27.385263	0.000452	20.740923
1845.494933	-2.997800	3.243700	-9.723000	27.413169	0.000452	20.731537
1846.493568	-3.004200	3.242600	-9.740300	27.430453	0.000453	20.741339
1847.500112	-2.997600	3.245100	-9.726800	27.455058	0.000452	20.740015
1848.496909	-3.007400	3.241700	-9.747900	27.466929	0.000450	20.721137
1849.500924	-3.004500	3.241100	-9.737100	27.456350	0.000451	20.728038
1850.499477	-3.004300	3.241900	-9.738900	27.451458	0.000451	20.740660
1851.496821	-3.005800	3.242100	-9.743400	27.437188	0.000449	20.743374
1852.495951	-2.979500	3.241800	-9.657300	27.464758	0.000447	20.750249
1853.494655	-2.989600	3.239200	-9.682400	27.463776	0.000446	20.743570
1854.501597	-3.011300	3.241800	-9.761500	27.476370	0.000447	20.754819
1855.498554	-3.006800	3.237900	-9.734500	27.491378	0.000446	20.749055
1856.501309	-3.009800	3.239600	-9.747000	27.471235	0.000444	20.750126
1857.498744	-2.988700	3.238200	-9.676900	27.422991	0.000444	20.753748
1858.500076	-2.983800	3.238300	-9.661700	27.460054	0.000443	20.747887
1859.500874	-2.974700	3.238700	-9.633200	27.457665	0.000441	20.742637
1860.500611	-3.000900	3.237500	-9.713300	27.506070	0.000441	20.749612
1861.497720	-3.004100	3.237800	-9.724000	27.520451	0.000440	20.733261
1862.498400	-2.999300	3.237400	-9.709400	27.556073	0.000441	20.738755
1863.500367	-2.991900	3.235800	-9.679800	27.608527	0.000439	20.715193
1864.502082	-2.983000	3.236400	-9.653800	27.606463	0.000438	20.733506
1865.501665	-3.024400	3.234600	-9.780500	27.609542	0.000438	20.753201
1866.502447	-2.989200	3.235600	-9.670300	27.580578	0.000438	20.765308
1867.504909	-2.996200	3.234200	-9.688500	27.535289	0.000438	20.758621
1868.502657	-3.004500	3.234000	-9.714700	27.509287	0.000436	20.767074
1869.500505	-3.019100	3.232800	-9.758600	27.506736	0.000437	20.754550
1870.499795	-3.009200	3.233100	-9.728300	27.489818	0.000433	20.757444
1871.503051	-3.005200	3.232400	-9.712500	27.469626	0.000433	20.754672
1872.501579	-3.013100	3.232900	-9.740000	27.431971	0.000434	20.748557
1873.506487	-2.985800	3.232500	-9.650300	27.445037	0.000433	20.756486
1874.504045	-3.025300	3.231100	-9.774100	27.499512	0.000433	20.751549
1875.503086	-3.000700	3.230700	-9.693800	27.481709	0.000429	20.763984
1876.507246	-3.007900	3.230200	-9.714400	27.522491	0.000433	20.749538
1877.505557	-3.001000	3.230000	-9.691700	27.515073	0.000430	20.757722
1878.508495	-2.987000	3.230400	-9.648100	27.494662	0.000429	20.761842
1879.508653	-2.986300	3.230700	-9.647200	27.423122	0.000429	20.770001
1880.510658	-2.976300	3.229600	-9.610900	27.417499	0.000429	20.761500
1881.509036	-2.993800	3.228800	-9.665900	27.360517	0.000427	20.762497
1882.512386	-3.002000	3.228600	-9.691200	27.326605	0.000428	20.765366
1883.505026	-3.007400	3.227400	-9.704500	27.364191	0.000424	20.779943
1884.508915	-3.012200	3.226700	-9.718300	27.398151	0.000425	20.744879
1885.504605	-3.013400	3.227200	-9.724300	27.434491	0.000426	20.770533
1886.512342	-3.011600	3.225900	-9.714300	27.474584	0.000421	20.767722
1887.510222	-3.045000	3.224500	-9.816800	27.483442	0.000423	20.759563
1888.508912	-3.020600	3.226000	-9.742100	27.496573	0.000422	20.780836
1889.514128	-3.007400	3.226700	-9.703600	27.517228	0.000419	20.780753
1890.511173	-3.009700	3.225000	-9.705400	27.530310	0.000421	20.768786
1891.511665	-2.999700	3.224700	-9.671600	27.598496	0.000418	20.782863
1892.511063	-2.999500	3.225200	-9.673400	27.596684	0.000418	20.773454
1893.512706	-3.004000	3.222800	-9.680300	27.635975	0.000420	20.766996
1894.517108	-3.003100	3.223200	-9.677700	27.645870	0.000417	20.786911
1895.517908	-2.983400	3.224200	-9.617700	27.681211	0.000415	20.766522
1896.516367	-2.993600	3.223500	-9.649300	27.696639	0.000417	20.782521
1897.513818	-3.004600	3.221600	-9.677700	27.688580	0.000416	20.776308
1898.514144	-2.958400	3.223100	-9.533900	27.684713	0.000414	20.770045
1899.515335	-2.988000	3.220400	-9.620800	27.673355	0.000413	20.786592
1900.514128	-2.996600	3.221500	-9.652300	27.638592	0.000413	20.802346
1901.512990	-3.008300	3.220200	-9.686300	27.646253	0.000412	20.778761
1902.513615	-2.999000	3.219700	-9.655100	27.677629	0.000411	20.776668
1903.512602	-3.005800	3.219800	-9.677100	27.680408	0.000411	20.779938
1904.516077	-2.994100	3.220600	-9.641800	27.700076	0.000409	20.799256
1905.519858	-2.995400	3.219000	-9.641200	27.732831	0.000409	20.781009
1906.521087	-2.987000	3.218600	-9.612100	27.751915	0.000409	20.771290
1907.518828	-3.019200	3.217700	-9.713200	27.787771	0.000409	20.795047
1908.516566	-3.009900	3.216800	-9.681000	27.781078	0.000409	20.795423
1909.517608	-2.977900	3.217900	-9.580500	27.794480	0.000407	20.789945
1910.519732	-3.015800	3.217000	-9.700600	27.816137	0.000408	20.807473
1911.521434	-3.004600	3.216400	-9.663000	27.808152	0.000403	20.786634
1912.520403	-2.992500	3.216800	-9.625500	27.816487	0.000405	20.794548
1913.520913	-2.991100	3.214300	-9.612500	27.769348	0.000403	20.791679
1914.516659	-3.002500	3.215100	-9.651800	27.717950	0.000403	20.771250
1915.517355	-2.994800	3.215000	-9.627200	27.703058	0.000404	20.797041
1916.521857	-3.014300	3.214200	-9.686500	27.665630	0.000401	20.756059
1917.516082	-2.973400	3.212900	-9.552100	27.684852	0.000401	20.793894
1918.522139	-3.010800	3.211300	-9.667600	27.701149	0.000401	20.798913
1919.520609	-3.012400	3.212200	-9.675300	27.689913	0.000400	20.786185
1920.519420	-3.015600	3.212800	-9.687200	27.681627	0.000395	20.794441
1921.523100	-3.012200	3.212000	-9.673900	27.683065	0.000399	20.806320
1922.521229	-3.032400	3.209900	-9.731700	27.711710	0.000397	20.807644
1923.516222	-2.992700	3.210200	-9.606700	27.702383	0.000396	20.789250
1924.521347	-3.010200	3.210800	-9.664000	27.648861	0.000395	20.800826
1925.517982	-3.014400	3.209900	-9.673800	27.594223	0.000394	20.806066
1926.520596	-3.029500	3.208700	-9.719900	27.554347	0.000393	20.820471
1927.525515	-2.990200	3.210000	-9.596000	27.544970	0.000391	20.801079
1928.520931	-2.986100	3.209000	-9.581700	27.515621	0.000391	20.795732
1929.521494	-3.010100	3.209600	-9.660000	27.497339	0.000393	20.819538
1930.522009	-3.010100	3.207000	-9.652100	27.437509	0.000392	20.794907
1931.523022	-3.010500	3.207700	-9.655400	27.436363	0.000389	20.805133
1932.520494	-2.981500	3.207900	-9.563300	27.442709	0.000389	20.811043
1933.518309	-3.006900	3.205800	-9.638600	27.456483	0.000388	20.807831
1934.518299	-2.989400	3.209200	-9.591100	27.468736	0.000387	20.804986
1935.521575	-2.996200	3.205400	-9.602700	27.495843	0.000385	20.808076
1936.526470	-2.994500	3.207500	-9.603400	27.500328	0.000386	20.800260
1937.523674	-3.005100	3.207000	-9.635900	27.484654	0.000384	20.818630
1938.525624	-3.000500	3.204000	-9.612600	27.483484	0.000383	20.821245
1939.523942	-3.014600	3.203900	-9.657300	27.449453	0.000382	20.806449
1940.529880	-3.016700	3.203500	-9.661900	27.433210	0.000381	20.806228
1941.521840	-3.011600	3.203100	-9.645100	27.444041	0.000382	20.817599
1942.523301	-2.991500	3.202900	-9.580900	27.454060	0.000382	20.793540
1943.524969	-3.016700	3.202000	-9.659100	27.526297	0.000380	20.804102
1944.522847	-3.018700	3.200200	-9.659000	27.552785	0.000379	20.826485
1945.519897	-2.981400	3.203800	-9.551100	27.572301	0.000379	20.816250
1946.522546	-2.988900	3.202600	-9.569500	27.572796	0.000378	20.813430
1947.524160	-2.989200	3.201000	-9.567600	27.593133	0.000377	20.805917
1948.531244	-3.017100	3.200000	-9.654200	27.638705	0.000376	20.816684
1949.525438	-2.996100	3.199500	-9.585100	27.694948	0.000375	20.818752
1950.537125	-2.978200	3.199600	-9.528200	27.726932	0.000374	20.816798
1951.526659	-3.001600	3.198900	-9.600400	27.768501	0.000374	20.827336
1952.523466	-3.009100	3.199400	-9.626800	27.778574	0.000373	20.832731
1953.526939	-3.012100	3.198700	-9.634100	27.800709	0.000372	20.830352
1954.523196	-3.005000	3.197800	-9.609100	27.814910	0.000372	20.828048
1955.525375	-2.993000	3.198900	-9.574400	27.892238	0.000370	20.834750
1956.528897	-2.994300	3.196300	-9.570500	27.921820	0.000371	20.837971
1957.523203	-2.993200	3.196200	-9.565400	27.936424	0.000369	20.831334
1958.525826	-3.010400	3.195700	-9.619400	27.940810	0.000367	20.817256
1959.528259	-3.008800	3.193700	-9.608900	27.951182	0.000367	20.823903
1960.525087	-3.002800	3.195300	-9.593200	27.978374	0.000366	20.830410
1961.524449	-3.000400	3.192600	-9.577900	28.008099	0.000366	20.810071
1962.525354	-2.996300	3.193100	-9.566000	27.972770	0.000363	20.825243
1963.524570	-3.006100	3.192800	-9.596400	27.920285	0.000365	20.834056
1964.526002	-2.986900	3.192400	-9.533500	27.843665	0.000363	20.845607
1965.531883	-2.985500	3.193400	-9.531800	27.814138	0.000361	20.833909
1966.530111	-2.979500	3.193500	-9.514700	27.756983	0.000362	20.837555
1967.528472	-2.970000	3.192500	-9.480400	27.781857	0.000360	20.844569
1968.528558	-3.006100	3.192000	-9.594500	27.819208	0.000360	20.820045
1969.531755	-2.988200	3.192000	-9.537800	27.853096	0.000359	20.846564
1970.530956	-2.984300	3.190800	-9.520300	27.868472	0.000360	20.833591
1971.528381	-2.991400	3.190500	-9.543700	27.889022	0.000359	20.830091
1972.526034	-2.983600	3.190200	-9.517400	27.855086	0.000357	20.838136
1973.527030	-3.008600	3.188200	-9.590000	27.871551	0.000354	20.846172
1974.531291	-3.006200	3.187900	-9.582500	27.832773	0.000356	20.853611
1975.528017	-2.993700	3.188900	-9.545200	27.795505	0.000354	20.842657
1976.530599	-2.983800	3.188100	-9.511700	27.739770	0.000355	20.846312
1977.530931	-2.982400	3.187100	-9.504200	27.722881	0.000353	20.841644
1978.530820	-2.977700	3.187000	-9.488700	27.695942	0.000353	20.820226
1979.531720	-2.975400	3.188900	-9.487300	27.683943	0.000353	20.843238
1980.531950	-2.982700	3.185500	-9.499800	27.664535	0.000350	20.832718
1981.528549	-3.012300	3.186200	-9.596900	27.695561	0.000352	20.831222
1982.530013	-2.992900	3.185200	-9.531900	27.713986	0.000351	20.819892
1983.527645	-2.962700	3.185300	-9.436200	27.691442	0.000348	20.840353
1984.528028	-2.992200	3.183700	-9.525800	27.676047	0.000348	20.854733
1985.536922	-2.991100	3.184000	-9.522300	27.655363	0.000349	20.828230
1986.529394	-3.013900	3.183100	-9.592200	27.644850	0.000346	20.829980
1987.532245	-2.986900	3.183700	-9.507700	27.623101	0.000346	20.822794
1988.533465	-2.982600	3.184800	-9.497800	27.640625	0.000346	20.827151
1989.529398	-2.992100	3.182100	-9.519500	27.681531	0.000344	20.821846
1990.531702	-2.981500	3.181300	-9.484100	27.737156	0.000345	20.832302
1991.538172	-3.001600	3.180700	-9.546500	27.760568	0.000344	20.834526
1992.533708	-3.014900	3.180300	-9.587600	27.800185	0.000342	20.819393
1993.532870	-3.002800	3.179900	-9.546800	27.793558	0.000341	20.823155
1994.532982	-2.989900	3.180400	-9.507000	27.820632	0.000342	20.819582
1995.534568	-3.003800	3.178500	-9.547200	27.852669	0.000341	20.827643
1996.536013	-2.987400	3.178900	-9.495500	27.882252	0.000340	20.817588
1997.535610	-2.984800	3.178500	-9.487200	27.906311	0.000337	20.809561
1998.540166	-2.989000	3.177300	-9.495400	27.959617	0.000337	20.827177
1999.532967	-2.977000	3.178100	-9.459700	27.990358	0.000340	20.823981
2000.537191	-3.012000	3.176300	-9.566100	28.015057	0.000337	20.802375
2001.540479	-3.012600	3.175400	-9.565700	28.015455	0.000335	20.820793
2002.538283	-3.011600	3.176400	-9.565500	28.041760	0.000336	20.812185
2003.538999	-2.978900	3.175700	-9.458000	28.061990	0.000335	20.808842
2004.535004	-3.016400	3.174900	-9.574300	28.080491	0.000332	20.812292
2005.538577	-3.011500	3.174100	-9.557900	28.040535	0.000334	20.832763
2006.536538	-3.019200	3.174800	-9.583900	28.007431	0.000331	20.799441
2007.543384	-2.999200	3.174000	-9.518600	27.958237	0.000330	20.802081
2008.535128	-3.030100	3.170900	-9.606800	27.913201	0.000329	20.810805
2009.538688	-3.016000	3.171900	-9.565000	27.898515	0.000328	20.793179
2010.538740	-3.012900	3.171100	-9.551900	27.888427	0.000328	20.811475
2011.535297	-3.001900	3.171400	-9.518900	27.909505	0.000327	20.785748
2012.541115	-3.005800	3.170500	-9.527900	27.930078	0.000326	20.805033
2013.535965	-3.011200	3.168200	-9.538600	27.955526	0.000326	20.801249
2014.541706	-2.992300	3.169200	-9.481500	27.967871	0.000325	20.798502
2015.536304	-2.993400	3.169500	-9.486600	27.937892	0.000324	20.799147
2016.546616	-2.985500	3.172900	-9.471700	27.908165	0.000323	20.782503
2017.541670	-3.031400	3.166200	-9.595600	27.924823	0.000325	20.790735
2018.541990	-3.009000	3.166800	-9.527700	27.988589	0.000322	20.805131
2019.539296	-3.024200	3.167400	-9.577100	27.975132	0.000323	20.792059
2020.542179	-3.010300	3.167100	-9.533200	27.994144	0.000320	20.796024
2021.541435	-3.000200	3.167200	-9.501100	27.998384	0.000320	20.796972
2022.538273	-2.986900	3.166300	-9.454800	28.044458	0.000322	20.778865
2023.542797	-2.973500	3.164800	-9.409600	28.057784	0.000319	20.794176
2024.541900	-3.007400	3.162700	-9.511200	28.078607	0.000318	20.793326
2025.551105	-3.023500	3.164900	-9.568500	28.103336	0.000318	20.785978
2026.542247	-3.007800	3.163200	-9.513000	28.144645	0.000317	20.793898
2027.545718	-2.984800	3.162600	-9.438800	28.142323	0.000314	20.758844
2028.546710	-3.008900	3.162400	-9.514600	28.147033	0.000316	20.772594
2029.545622	-3.012500	3.161400	-9.523300	28.120235	0.000314	20.785446
2030.545177	-3.001300	3.162100	-9.489100	28.117604	0.000313	20.799866
2031.542343	-2.984800	3.162100	-9.436800	28.072614	0.000313	20.799621
2032.546122	-2.993800	3.161100	-9.462600	28.020475	0.000312	20.807829
2033.549506	-3.016100	3.159400	-9.527800	28.007951	0.000311	20.796171
2034.549066	-2.998300	3.160700	-9.475100	27.986599	0.000311	20.796963
2035.547508	-3.006600	3.160000	-9.499900	28.029367	0.000310	20.762726
2036.550105	-3.016100	3.158500	-9.524600	28.051035	0.000308	20.799236
2037.547149	-3.000300	3.158700	-9.475800	28.063753	0.000309	20.806823
2038.547328	-2.987800	3.156900	-9.430600	28.053642	0.000307	20.768670
2039.548011	-3.013600	3.158100	-9.514500	28.046942	0.000308	20.774727
2040.549087	-3.031000	3.155000	-9.561100	28.060975	0.000305	20.779371
2041.550892	-2.980900	3.155800	-9.406600	28.090276	0.000307	20.773779
2042.547883	-2.980100	3.155500	-9.402500	28.100167	0.000305	20.768089
2043.547026	-2.972100	3.154900	-9.375000	28.128866	0.000303	20.787022
2044.552106	-2.985600	3.154900	-9.418800	28.154892	0.000302	20.780506
2045.554064	-3.004100	3.153400	-9.472000	28.118658	0.000303	20.783858
2046.549031	-2.999900	3.153000	-9.457000	28.109652	0.000302	20.785223
2047.551662	-3.007100	3.151900	-9.477800	28.124602	0.000302	20.773247
2048.548865	-2.988100	3.150700	-9.413800	28.157873	0.000302	20.761695
2049.563282	-2.993800	3.150300	-9.430800	28.159529	0.000300	20.764785
2050.556515	-3.016000	3.150300	-9.500000	28.194852	0.000299	20.787071
2051.550835	-3.026100	3.148300	-9.525800	28.237433	0.000298	20.766878
2052.551192	-2.989500	3.149000	-9.412700	28.248566	0.000299	20.770025
2053.552958	-2.984300	3.148900	-9.396200	28.268597	0.000296	20.760322
2054.555558	-2.976600	3.147000	-9.366600	28.306515	0.000295	20.773843
2055.560287	-2.999100	3.147400	-9.438000	28.321982	0.000295	20.784201
2056.553973	-2.986300	3.148200	-9.399100	28.278438	0.000295	20.784455
2057.554399	-3.006100	3.144900	-9.453100	28.251066	0.000293	20.769224
2058.554402	-2.967500	3.146500	-9.336000	28.261597	0.000292	20.773663
2059.550523	-2.992600	3.145700	-9.412000	28.279153	0.000293	20.759095
2060.564137	-2.986800	3.144500	-9.391200	28.307375	0.000290	20.772812
2061.552197	-2.996500	3.144600	-9.421900	28.360694	0.000292	20.759643
2062.555353	-2.983300	3.143500	-9.377100	28.362374	0.000288	20.756593
2063.553412	-3.011500	3.141900	-9.460500	28.389880	0.000288	20.778600
2064.557267	-2.986600	3.142600	-9.384200	28.417167	0.000288	20.760083
2065.561571	-3.004800	3.141600	-9.438600	28.424880	0.000286	20.761212
2066.563293	-3.020600	3.141300	-9.487600	28.454016	0.000285	20.773483
2067.558516	-2.991900	3.141000	-9.396300	28.449292	0.000285	20.764458
2068.554970	-2.994200	3.138400	-9.396100	28.473354	0.000287	20.781103
2069.559198	-3.003900	3.137100	-9.422100	28.459869	0.000282	20.772265
2070.555525	-2.987400	3.138700	-9.375500	28.493940	0.000283	20.772436
2071.555264	-3.017600	3.137000	-9.465000	28.440589	0.000283	20.758539
2072.566005	-3.001800	3.137200	-9.415200	28.467427	0.000282	20.737675
2073.555237	-3.033300	3.137100	-9.512700	28.446880	0.000282	20.764400
2074.555872	-2.995200	3.135300	-9.390300	28.416696	0.000282	20.754868
2075.559573	-3.012500	3.135600	-9.444500	28.431414	0.000280	20.743136
2076.555229	-2.976700	3.136000	-9.333700	28.437244	0.000281	20.774611
2077.558474	-2.995100	3.134300	-9.386300	28.462792	0.000279	20.757189
2078.555029	-2.982000	3.134300	-9.345000	28.473077	0.000276	20.756168
2079.555492	-2.987500	3.132800	-9.357700	28.504697	0.000277	20.759086
2080.558135	-3.004400	3.131800	-9.408400	28.430643	0.000278	20.775076
2081.565131	-3.038700	3.130900	-9.512200	28.372311	0.000274	20.751900
2082.558897	-3.010100	3.130300	-9.421100	28.354165	0.000275	20.759707
2083.555617	-3.041700	3.129200	-9.516500	28.332009	0.000274	20.738819
2084.559314	-3.001900	3.130200	-9.394400	28.396123	0.000274	20.748850
2085.559511	-3.025300	3.127500	-9.459600	28.384424	0.000273	20.750346
2086.560402	-2.982100	3.128800	-9.329300	28.395148	0.000271	20.758300
2087.556180	-2.983600	3.127900	-9.331100	28.350195	0.000271	20.757606
2088.559919	-3.017600	3.126300	-9.431200	28.282951	0.000271	20.773825
2089.560689	-2.974700	3.128200	-9.304200	28.241460	0.000271	20.749120
2090.561611	-3.017400	3.125500	-9.429500	28.235231	0.000270	20.745219
2091.562627	-3.011100	3.123900	-9.405100	28.247111	0.000269	20.764767
2092.562117	-3.015400	3.123800	-9.418200	28.263667	0.000268	20.745400
2093.557464	-3.024300	3.123700	-9.446700	28.282772	0.000268	20.754204
2094.557670	-3.013100	3.122000	-9.406100	28.321023	0.000267	20.754785
2095.565222	-2.977800	3.122900	-9.297600	28.374056	0.000266	20.757450
2096.560954	-3.010200	3.122000	-9.397100	28.346671	0.000266	20.745522
2097.563038	-2.985700	3.121300	-9.318000	28.342627	0.000264	20.738131
2098.564053	-2.958400	3.120700	-9.230200	28.373552	0.000265	20.744614
2099.561395	-3.004200	3.119700	-9.371000	28.394896	0.000263	20.748563
2100.562418	-2.981100	3.121800	-9.304300	28.441877	0.000262	20.758414
2101.561037	-2.989400	3.118400	-9.320700	28.465663	0.000262	20.739692
2102.568651	-2.995200	3.118400	-9.338800	28.483628	0.000263	20.751620
2103.559382	-3.010400	3.116500	-9.379800	28.470153	0.000261	20.772189
2104.562561	-3.003100	3.117400	-9.360500	28.495311	0.000261	20.743944
2105.562174	-3.012000	3.117000	-9.387000	28.468732	0.000259	20.753214
2106.566904	-2.987300	3.114500	-9.302700	28.497356	0.000258	20.746003
2107.564063	-2.982400	3.114900	-9.288400	28.534779	0.000258	20.758087
2108.568982	-3.004400	3.112600	-9.350300	28.570090	0.000257	20.749552
2109.563475	-2.983800	3.115000	-9.292700	28.583889	0.000257	20.747328
2110.563046	-2.967200	3.113900	-9.239100	28.595619	0.000256	20.743494
2111.567105	-2.993200	3.110900	-9.310900	28.563993	0.000254	20.752421
2112.561788	-3.010900	3.110900	-9.365200	28.520062	0.000255	20.749903
2113.570463	-2.987700	3.111400	-9.294500	28.538570	0.000253	20.757163
2114.564309	-3.019700	3.109700	-9.389200	28.513892	0.000253	20.751277
2115.568499	-2.979900	3.109600	-9.265300	28.519770	0.000253	20.739178
2116.565161	-2.965800	3.109400	-9.220700	28.550528	0.000254	20.726056
2117.567611	-2.989300	3.107500	-9.287700	28.526817	0.000248	20.747697
2118.568388	-2.981600	3.107300	-9.263100	28.525948	0.000253	20.733071
2119.564207	-3.003500	3.105900	-9.327300	28.496765	0.000251	20.759160
2120.569997	-2.984400	3.106000	-9.268700	28.474132	0.000250	20.736840
2121.574231	-2.997600	3.105700	-9.308500	28.489849	0.000249	20.765471
2122.571667	-2.987000	3.104300	-9.271800	28.501474	0.000248	20.736399
2123.571105	-3.027200	3.101700	-9.389000	28.547542	0.000247	20.741068
2124.573540	-2.992300	3.103300	-9.284300	28.588899	0.000247	20.735778
2125.567464	-3.008900	3.100100	-9.327500	28.553070	0.000247	20.749480
2126.571541	-3.013500	3.100100	-9.340800	28.542842	0.000244	20.726851
2127.571395	-2.981800	3.100600	-9.243300	28.556147	0.000246	20.745941
2128.571855	-2.992300	3.100900	-9.277500	28.564743	0.000244	20.739425
2129.576155	-2.977000	3.099200	-9.225300	28.520544	0.000244	20.749440
2130.569083	-3.008300	3.098100	-9.318800	28.519107	0.000243	20.745148
2131.576545	-3.019000	3.097100	-9.348700	28.527314	0.000243	20.727808
2132.569100	-2.994700	3.097600	-9.275200	28.536129	0.000241	20.724358
2133.571761	-2.988200	3.095600	-9.249400	28.584908	0.000242	20.752147
2134.576887	-2.989400	3.094700	-9.250500	28.617790	0.000239	20.741168
2135.575221	-3.003100	3.094800	-9.292700	28.649056	0.000240	20.723345
2136.568942	-3.012100	3.094600	-9.320100	28.615818	0.000239	20.747717
2137.573237	-3.001900	3.092500	-9.282400	28.597206	0.000240	20.706684
2138.573956	-3.005100	3.091600	-9.289900	28.614998	0.000239	20.726027
2139.571157	-3.024700	3.090600	-9.347300	28.589624	0.000237	20.716593
2140.580805	-3.014000	3.089800	-9.310800	28.535272	0.000237	20.736297
2141.578609	-2.987600	3.090200	-9.231000	28.482247	0.000236	20.733158
2142.576998	-3.003900	3.088300	-9.275900	28.472611	0.000235	20.713970
2143.575891	-3.002500	3.088800	-9.272800	28.484407	0.000235	20.729169
2144.579336	-2.979400	3.086600	-9.195300	28.527082	0.000235	20.741326
2145.577204	-3.008700	3.086000	-9.284200	28.542109	0.000235	20.711412
2146.584288	-2.986700	3.085100	-9.213800	28.576714	0.000233	20.728721
2147.575095	-2.991700	3.084700	-9.227700	28.608655	0.000233	20.734812
2148.576240	-3.013200	3.084700	-9.294300	28.615547	0.000234	20.732270
2149.577147	-2.980400	3.084500	-9.190800	28.615726	0.000233	20.722492
2150.579709	-2.994700	3.083500	-9.233400	28.640564	0.000232	20.723327
2151.593703	-3.007600	3.081900	-9.268600	28.632804	0.000231	20.724521
2152.580661	-3.004100	3.081300	-9.255600	28.622480	0.000230	20.711751
2153.584001	-3.014300	3.079600	-9.280800	28.552584	0.000230	20.708685
2154.584051	-3.002900	3.079300	-9.245600	28.510641	0.000230	20.741838
2155.580834	-3.000300	3.078200	-9.234800	28.467828	0.000231	20.731440
2156.579601	-3.024700	3.077300	-9.306300	28.413402	0.000230	20.711246
2157.580647	-2.987600	3.077300	-9.192700	28.326345	0.000228	20.729323
2158.580201	-2.989300	3.077600	-9.197400	28.326126	0.000229	20.704445
2159.578598	-3.004000	3.074700	-9.235000	28.293487	0.000227	20.708565
2160.580456	-2.989700	3.074300	-9.190000	28.310018	0.000226	20.706718
2161.581639	-2.976400	3.073900	-9.146600	28.331616	0.000227	20.700014
2162.578711	-3.024200	3.071200	-9.286400	28.317919	0.000226	20.714674
2163.578710	-2.995500	3.070900	-9.197800	28.298311	0.000226	20.710104
2164.579353	-3.015200	3.069800	-9.254700	28.303865	0.000226	20.711429
2165.580432	-2.988700	3.069400	-9.172300	28.329148	0.000226	20.712704
2166.581882	-2.993000	3.068600	-9.183800	28.384772	0.000225	20.703753
2167.580123	-2.991000	3.068300	-9.176700	28.441171	0.000224	20.715026
2168.589499	-2.988000	3.066200	-9.160700	28.465655	0.000224	20.720242
2169.582086	-2.997400	3.064300	-9.183700	28.472897	0.000224	20.706197
2170.580031	-3.010600	3.064500	-9.225300	28.513729	0.000224	20.709385
2171.585335	-2.975200	3.063500	-9.113900	28.516035	0.000224	20.718820
2172.586399	-3.002400	3.062700	-9.194900	28.508040	0.000222	20.696542
2173.579302	-3.001900	3.061300	-9.188600	28.487785	0.000222	20.719768
2174.585136	-3.012600	3.060200	-9.218500	28.389229	0.000221	20.703499
2175.583673	-3.010300	3.059000	-9.207000	28.368339	0.000222	20.705698
2176.582181	-3.005400	3.058300	-9.190400	28.372040	0.000222	20.691406
2177.590991	-2.985500	3.057600	-9.127700	28.428716	0.000219	20.730460
2178.584389	-2.981700	3.056800	-9.113500	28.474292	0.000221	20.702860
2179.586851	-2.993400	3.057200	-9.150300	28.538407	0.000221	20.714797
2180.586971	-3.020600	3.054800	-9.226000	28.562710	0.000221	20.707978
2181.583911	-3.025400	3.052700	-9.234300	28.611193	0.000219	20.687104
2182.589261	-3.008000	3.052400	-9.179800	28.631697	0.000220	20.697325
2183.589696	-3.001200	3.052100	-9.158500	28.650608	0.000219	20.710208
2184.592455	-3.018200	3.050000	-9.204100	28.694397	0.000220	20.707372
2185.586383	-2.988800	3.051200	-9.117400	28.697213	0.000219	20.714950
2186.588398	-2.976500	3.050600	-9.079200	28.692375	0.000218	20.699171
2187.588336	-2.997000	3.049600	-9.138700	28.651297	0.000217	20.719912
2188.586848	-2.982900	3.047400	-9.088200	28.602847	0.000217	20.692449
2189.585563	-3.015300	3.045600	-9.182000	28.576531	0.000217	20.732804
2190.585356	-2.975100	3.045700	-9.060100	28.569736	0.000216	20.707942
2191.587965	-3.002900	3.044100	-9.140800	28.561131	0.000216	20.702120
2192.588776	-3.036200	3.041300	-9.232300	28.559087	0.000215	20.706700
2193.589241	-3.004300	3.041500	-9.137000	28.625062	0.000215	20.711032
2194.587414	-3.029300	3.039200	-9.205800	28.665111	0.000214	20.720075
2195.591019	-3.022000	3.038500	-9.181200	28.680661	0.000214	20.690691
2196.588396	-2.999000	3.038900	-9.111900	28.699661	0.000216	20.690388
2197.584819	-3.013600	3.037700	-9.153100	28.674590	0.000216	20.688369
2198.589470	-3.014000	3.036400	-9.150200	28.681496	0.000215	20.704810
2199.585669	-3.014100	3.036600	-9.151300	28.714822	0.000213	20.692383
2200.586774	-2.994400	3.034600	-9.085700	28.710294	0.000212	20.695408
2201.587611	-2.998300	3.032900	-9.091600	28.730007	0.000213	20.705308
2202.594650	-3.003800	3.032400	-9.107900	28.737466	0.000213	20.702864
2203.591209	-3.005300	3.030800	-9.107300	28.774101	0.000213	20.704678
2204.592581	-2.996400	3.030700	-9.080500	28.793497	0.000214	20.709518
2205.596865	-2.992200	3.028000	-9.058300	28.735161	0.000211	20.708129
2206.588586	-2.993300	3.027900	-9.062600	28.779570	0.000210	20.673201
2207.588698	-2.994200	3.027300	-9.062900	28.804809	0.000213	20.692463
2208.588566	-2.963800	3.026800	-8.969300	28.818663	0.000211	20.730602
2209.588450	-2.995900	3.023600	-9.056800	28.861932	0.000212	20.697850
2210.584841	-3.026000	3.022600	-9.144400	28.869861	0.000212	20.705838
2211.599892	-2.989700	3.022600	-9.035500	28.907213	0.000210	20.698896
2212.588615	-2.983000	3.020700	-9.009600	28.896558	0.000214	20.721355
2213.589358	-2.994800	3.019800	-9.042500	28.878746	0.000210	20.693925
2214.588794	-2.985000	3.018700	-9.009600	28.874161	0.000210	20.704006
2215.587330	-2.999600	3.016000	-9.046200	28.840758	0.000209	20.701176
2216.588648	-2.980700	3.015800	-8.988500	28.796595	0.000211	20.700310
2217.588621	-3.009300	3.014500	-9.070700	28.741804	0.000209	20.690163
2218.589455	-3.029800	3.012900	-9.127300	28.736796	0.000213	20.716415
2219.588503	-2.986200	3.013800	-8.998600	28.756047	0.000210	20.709727
2220.590621	-2.980600	3.011900	-8.976600	28.733671	0.000211	20.707577
2221.588051	-2.985900	3.010100	-8.987200	28.755795	0.000210	20.701412
2222.590971	-2.962700	3.008400	-8.911000	28.757581	0.000211	20.700840
2223.587679	-2.997800	3.007600	-9.014600	28.788940	0.000208	20.703031
2224.593673	-3.007200	3.006300	-9.039100	28.798354	0.000209	20.730533
2225.597656	-3.009300	3.005200	-9.042300	28.799806	0.000208	20.711606
2226.593656	-2.992500	3.003700	-8.987600	28.815940	0.000208	20.707470
2227.593080	-3.004500	3.003500	-9.023200	28.856216	0.000209	20.715800
2228.594170	-2.984800	3.001200	-8.957600	28.873054	0.000207	20.714271
2229.593997	-2.982300	3.001200	-8.949300	28.833866	0.000208	20.693284
2230.595920	-3.013100	2.999000	-9.035700	28.802800	0.000208	20.704190
2231.592746	-2.988100	2.997300	-8.954200	28.806760	0.000209	20.707231
2232.591605	-3.017500	2.996000	-9.039800	28.792688	0.000206	20.711548
2233.593467	-2.997700	2.996000	-8.978500	28.760509	0.000207	20.692883
2234.588343	-3.013100	2.993500	-9.018900	28.707195	0.000209	20.701296
2235.592884	-2.987500	2.993100	-8.940600	28.700693	0.000207	20.711343
2236.592806	-3.002300	2.991800	-8.980800	28.729879	0.000207	20.716085
2237.595581	-2.998100	2.988700	-8.958600	28.761393	0.000205	20.711319
2238.594072	-2.994400	2.988300	-8.947100	28.819858	0.000207	20.735126
2239.593603	-2.993000	2.988100	-8.942300	28.828558	0.000207	20.705956
2240.596025	-2.957500	2.988200	-8.835600	28.828850	0.000205	20.711940
2241.592687	-3.004300	2.985900	-8.968600	28.804243	0.000207	20.717973
2242.592410	-2.988400	2.983400	-8.914900	28.736688	0.000206	20.710615
2243.593344	-2.990900	2.982000	-8.917100	28.767585	0.000206	20.721824
2244.598212	-3.005300	2.979400	-8.952600	28.788264	0.000206	20.704246
2245.593531	-2.993100	2.981100	-8.920600	28.790398	0.000204	20.727735
2246.598177	-2.984300	2.979100	-8.889500	28.806873	0.000206	20.719200
2247.597015	-2.983900	2.976300	-8.879500	28.828810	0.000205	20.719961
2248.600538	-3.025300	2.972900	-8.992900	28.852660	0.000204	20.719331
2249.596429	-3.001200	2.972800	-8.920200	28.858478	0.000206	20.710019
2250.592111	-2.994900	2.972800	-8.903000	28.868338	0.000206	20.742239
2251.596549	-3.000700	2.969800	-8.910000	28.915714	0.000204	20.724057
2252.594798	-2.996800	2.969000	-8.896400	28.929208	0.000205	20.724376
2253.594462	-2.988400	2.968200	-8.869000	28.916631	0.000204	20.716920
2254.597373	-2.990200	2.966300	-8.867600	28.915486	0.000205	20.724776
2255.597546	-3.029900	2.962600	-8.975500	28.882078	0.000206	20.705344
2256.597267	-3.012400	2.962900	-8.924300	28.843629	0.000205	20.724458
2257.602811	-2.999900	2.962800	-8.887500	28.802760	0.000204	20.720747
2258.597494	-2.988700	2.960400	-8.845400	28.799441	0.000205	20.712187
2259.605858	-2.994100	2.960100	-8.861600	28.836529	0.000203	20.730108
2260.597383	-2.988600	2.956800	-8.835200	28.858408	0.000205	20.718957
2261.597620	-2.995900	2.957500	-8.858900	28.903689	0.000204	20.725219
2262.604743	-2.981200	2.955600	-8.809900	28.961059	0.000204	20.737499
2263.599877	-3.022700	2.951800	-8.921900	28.979048	0.000204	20.718165
2264.601299	-3.010200	2.950600	-8.881600	29.012568	0.000204	20.703572
2265.599163	-2.988900	2.949600	-8.814200	29.011724	0.000202	20.720740
2266.601087	-3.002200	2.947400	-8.846800	29.009744	0.000205	20.716375
2267.598365	-3.022100	2.946500	-8.903000	28.986976	0.000202	20.728049
2268.605660	-3.038400	2.944100	-8.944500	28.944206	0.000204	20.725736
2269.602728	-3.005400	2.942100	-8.840400	28.950422	0.000203	20.723937
2270.600091	-2.993800	2.943000	-8.809600	28.955997	0.000204	20.725286
2271.604764	-2.992100	2.940000	-8.795800	28.960712	0.000201	20.717234
2272.600764	-2.994700	2.939600	-8.802100	28.944361	0.000203	20.731582
2273.602695	-3.001700	2.936800	-8.813800	28.962886	0.000203	20.738392
2274.600502	-3.023900	2.933700	-8.870200	28.962026	0.000202	20.718559
2275.605647	-2.981100	2.934300	-8.745800	28.954026	0.000203	20.717610
2276.605466	-3.015500	2.930100	-8.834900	28.948548	0.000201	20.727265
2277.605414	-3.021800	2.928300	-8.847800	28.910581	0.000203	20.735482
2278.608119	-3.036400	2.926500	-8.884500	28.904778	0.000201	20.735801
2279.604894	-3.030500	2.925900	-8.863900	28.942657	0.000203	20.751203
2280.605175	-3.018000	2.925000	-8.826300	28.986872	0.000204	20.729367
2281.605187	-3.000900	2.923200	-8.771300	29.038014	0.000203	20.728737
2282.603131	-3.003200	2.921300	-8.772200	29.061097	0.000201	20.740142
2283.611302	-2.955900	2.922500	-8.638000	29.059597	0.000203	20.728672
2284.604091	-2.990600	2.918000	-8.724500	29.046420	0.000201	20.736733
2285.605210	-2.998900	2.916900	-8.747000	29.028286	0.000201	20.733160
2286.607477	-3.014900	2.915300	-8.788500	29.043142	0.000202	20.744810
2287.607916	-2.990300	2.915100	-8.715500	29.054663	0.000200	20.721804
2288.607527	-3.040800	2.910200	-8.848300	29.070354	0.000202	20.751366
2289.613786	-2.971100	2.910600	-8.647200	29.063766	0.000202	20.730502
2290.605832	-2.991900	2.909200	-8.703300	29.053989	0.000203	20.750050
2291.611424	-2.994400	2.907200	-8.704300	29.087668	0.000201	20.747949
2292.607369	-3.016200	2.903200	-8.755200	29.094605	0.000202	20.742610
2293.607243	-2.979400	2.904500	-8.652800	29.138067	0.000203	20.730927
2294.611339	-3.002100	2.900900	-8.707900	29.137961	0.000200	20.743623
2295.609550	-2.975600	2.900800	-8.629900	29.082118	0.000202	20.724812
2296.612104	-3.006700	2.897100	-8.709500	29.120356	0.000200	20.758601
2297.614264	-2.998500	2.895500	-8.681100	29.103148	0.000200	20.741736
2298.610133	-2.990700	2.893300	-8.651000	29.083667	0.000200	20.732063
2299.613173	-3.005600	2.891500	-8.689200	29.078539	0.000200	20.734957
2300.614134	-2.988800	2.890100	-8.637000	29.118407	0.000203	20.759482
2301.612386	-2.993600	2.889100	-8.647800	29.144175	0.000201	20.755576
2302.616007	-2.988000	2.887300	-8.625800	29.162493	0.000199	20.755068
2303.610496	-2.973000	2.885700	-8.578200	29.160660	0.000200	20.757488
2304.610347	-3.028700	2.881300	-8.725400	29.161950	0.000200	20.748830
2305.617048	-3.004000	2.880100	-8.651300	29.182523	0.000200	20.749173
2306.617688	-3.016400	2.878400	-8.681600	29.184769	0.000203	20.756179
2307.614866	-2.968800	2.878200	-8.543800	29.245102	0.000200	20.755812
2308.621283	-3.011700	2.873700	-8.653600	29.264480	0.000201	20.754952
2309.618269	-3.002700	2.872500	-8.624300	29.306703	0.000200	20.764787
2310.617458	-2.989200	2.872200	-8.584500	29.330712	0.000202	20.760061
2311.618597	-3.012100	2.868000	-8.637200	29.345937	0.000201	20.764974
2312.612734	-2.979500	2.867600	-8.542500	29.312485	0.000202	20.742165
2313.617381	-2.994400	2.864300	-8.576200	29.299133	0.000202	20.729182
2314.613098	-2.977200	2.862200	-8.520200	29.300739	0.000200	20.743603
2315.614968	-2.984700	2.860700	-8.537100	29.307301	0.000200	20.749743
2316.618330	-3.010100	2.858000	-8.602600	29.326557	0.000200	20.763461
2317.614841	-3.022100	2.856600	-8.631400	29.332698	0.000199	20.756847
2318.618812	-2.993800	2.854100	-8.543000	29.362579	0.000200	20.766575
2319.614703	-3.004800	2.851800	-8.567700	29.345197	0.000198	20.745736
2320.614750	-3.002100	2.849200	-8.552400	29.364210	0.000202	20.762054
2321.615753	-2.997600	2.847100	-8.533300	29.393052	0.000198	20.771210
2322.619370	-3.010900	2.846000	-8.568200	29.389013	0.000201	20.760974
2323.615190	-2.997900	2.844200	-8.525300	29.346421	0.000199	20.755030
2324.620659	-2.994200	2.843000	-8.511600	29.327821	0.000200	20.772795
2325.617033	-2.983500	2.841100	-8.475500	29.277877	0.000200	20.777937
2326.615505	-2.982200	2.840000	-8.468800	29.238550	0.000198	20.774814
2327.622840	-2.992700	2.837600	-8.491000	29.225245	0.000201	20.760457
2328.615726	-3.008000	2.833000	-8.519500	29.262861	0.000199	20.772761
2329.624013	-2.985200	2.832200	-8.453700	29.295219	0.000198	20.759378
2330.620564	-2.995700	2.829200	-8.472800	29.238590	0.000200	20.760155
2331.618872	-2.981200	2.827100	-8.427100	29.276400	0.000199	20.774077
2332.621527	-2.991500	2.825600	-8.451500	29.281153	0.000202	20.767488
2333.621526	-3.024600	2.822800	-8.536400	29.277064	0.000199	20.778540
2334.616193	-3.032600	2.818300	-8.545800	29.216021	0.000200	20.774395
2335.617184	-3.020500	2.817700	-8.509500	29.140541	0.000201	20.757604
2336.623107	-3.037600	2.814500	-8.548700	29.094126	0.000199	20.773422
2337.618495	-2.984200	2.813800	-8.396400	29.108316	0.000199	20.780134
2338.621740	-2.995500	2.811800	-8.421300	29.130984	0.000200	20.787803
2339.618139	-3.009800	2.808100	-8.450900	29.121248	0.000198	20.773251
2340.618774	-3.001800	2.807200	-8.425100	29.161813	0.000199	20.778565
2341.617254	-2.996800	2.803800	-8.401500	29.136622	0.000200	20.782104
2342.618104	-3.006200	2.799500	-8.414600	29.140671	0.000200	20.780969
2343.619229	-2.992500	2.798700	-8.373800	29.132290	0.000199	20.780584
2344.617418	-3.005100	2.796400	-8.401500	29.124469	0.000199	20.796886
2345.623137	-3.009500	2.792500	-8.403000	29.129743	0.000201	20.779914
2346.625962	-3.014400	2.791600	-8.413100	29.135341	0.000201	20.772752
2347.620658	-3.002600	2.788100	-8.370400	29.122311	0.000201	20.787598
2348.627857	-2.996100	2.785400	-8.344800	29.114287	0.000198	20.771452
2349.623929	-3.029500	2.781500	-8.425500	29.113386	0.000198	20.763432
2350.617643	-3.002900	2.781800	-8.353000	29.150381	0.000201	20.781270
2351.621888	-3.033500	2.775900	-8.419600	29.187708	0.000199	20.798495
2352.620355	-3.016800	2.773800	-8.366500	29.203405	0.000198	20.786338
2353.624604	-3.025600	2.771700	-8.384900	29.214300	0.000199	20.794947
2354.630455	-2.953200	2.768700	-8.174300	29.223670	0.000199	20.798700
2355.620044	-2.988300	2.764700	-8.260900	29.286214	0.000199	20.801985
2356.626436	-3.002500	2.761900	-8.291600	29.320510	0.000199	20.790083
2357.621460	-3.000000	2.759200	-8.276400	29.350911	0.000200	20.782790
2358.624503	-2.980100	2.756900	-8.214800	29.330778	0.000201	20.786207
2359.624894	-3.006000	2.753700	-8.277100	29.344592	0.000201	20.794913
2360.625741	-3.003300	2.750300	-8.257300	29.363929	0.000197	20.792592
2361.627130	-2.962800	2.748300	-8.140700	29.392975	0.000198	20.816177
2362.627210	-2.995000	2.745200	-8.220900	29.354666	0.000198	20.791316
2363.628284	-3.040700	2.740100	-8.330500	29.334485	0.000198	20.780933
2364.631531	-2.998600	2.739100	-8.211900	29.299685	0.000199	20.815562
2365.628339	-2.990200	2.733500	-8.172300	29.306824	0.000202	20.800472
2366.626040	-2.966400	2.733000	-8.105700	29.336309	0.000199	20.806006
2367.628534	-3.019800	2.726500	-8.232500	29.399723	0.000200	20.803063
2368.629671	-2.989400	2.726700	-8.149500	29.440000	0.000200	20.801934
2369.636967	-2.997300	2.722800	-8.158000	29.508078	0.000198	20.809864
2370.631746	-3.014400	2.718400	-8.193000	29.551474	0.000199	20.791020
2371.632895	-3.016900	2.713900	-8.186800	29.538167	0.000201	20.804632
2372.627516	-2.959600	2.712300	-8.025900	29.531281	0.000199	20.801011
2373.630893	-3.003100	2.707900	-8.131500	29.556454	0.000199	20.827808
2374.633795	-2.989400	2.705400	-8.086400	29.560736	0.000198	20.810313
2375.630532	-2.995900	2.700500	-8.088500	29.574449	0.000199	20.814180
2376.630416	-3.022700	2.696800	-8.150800	29.527136	0.000198	20.815324
2377.627116	-2.987800	2.694600	-8.049900	29.497948	0.000199	20.827153
2378.630051	-3.013700	2.690500	-8.107700	29.509189	0.000201	20.814302
2379.633119	-2.975800	2.686700	-7.994800	29.540055	0.000199	20.810329
2380.630582	-3.002400	2.681800	-8.050500	29.577019	0.000200	20.816297
2381.627876	-2.980200	2.678600	-7.982100	29.612190	0.000200	20.835630
2382.634708	-2.977800	2.675100	-7.965400	29.597026	0.000199	20.808490
2383.633300	-3.016200	2.669300	-8.049400	29.589686	0.000199	20.822902
2384.635657	-3.016700	2.666600	-8.043400	29.602200	0.000198	20.826982
2385.634866	-2.992700	2.663100	-7.968800	29.582988	0.000200	20.822314
2386.641023	-2.998800	2.658000	-7.969800	29.554621	0.000199	20.820745
2387.635486	-3.006700	2.655700	-7.984400	29.533576	0.000200	20.817074
2388.630875	-3.006200	2.651000	-7.968500	29.570865	0.000202	20.820524
2389.637035	-3.024800	2.644800	-7.998800	29.598340	0.000200	20.827832
2390.638461	-2.998300	2.641300	-7.918600	29.625425	0.000200	20.830481
2391.634412	-3.012000	2.638300	-7.946000	29.619059	0.000199	20.818848
2392.631490	-3.001000	2.633300	-7.902000	29.625823	0.000201	20.820451
2393.635163	-3.003900	2.628000	-7.893500	29.644684	0.000200	20.820974
2394.636834	-2.993300	2.623300	-7.851700	29.648447	0.000200	20.830931
2395.635241	-3.019400	2.619000	-7.907000	29.668403	0.000198	20.820704
2396.631799	-2.977800	2.614700	-7.784600	29.647791	0.000198	20.821261
2397.636551	-3.005600	2.608200	-7.838000	29.627145	0.000199	20.815620
2398.631828	-3.002800	2.604400	-7.819500	29.653038	0.000198	20.835084
2399.631453	-2.988600	2.598300	-7.764200	29.681460	0.000199	20.829125
2400.635165	-3.002500	2.593800	-7.786500	29.729154	0.000199	20.827899
2401.632723	-2.983400	2.588000	-7.719900	29.758855	0.000200	20.823231
2402.636230	-3.005000	2.580900	-7.754100	29.790120	0.000199	20.835314
2403.639143	-2.988100	2.577700	-7.701600	29.834996	0.000199	20.815130
2404.639012	-3.009300	2.571400	-7.737300	29.857689	0.000200	20.821417
2405.646986	-3.009100	2.563800	-7.712800	29.866875	0.000200	20.829257
2406.642987	-2.967800	2.560800	-7.598200	29.863080	0.000198	20.831594
2407.638266	-2.989900	2.553400	-7.633200	29.813414	0.000198	20.831300
2408.634555	-3.031900	2.545700	-7.716500	29.811954	0.000199	20.827458
2409.638061	-3.014000	2.541000	-7.657700	29.835588	0.000200	20.814304
2410.638030	-2.962000	2.537000	-7.513800	29.807139	0.000200	20.812646
2411.644495	-3.001200	2.528700	-7.588000	29.810504	0.000199	20.840220
2412.637344	-2.993300	2.523800	-7.554000	29.770677	0.000199	20.844634
2413.638906	-3.014200	2.514600	-7.578200	29.720837	0.000198	20.845117
2414.640162	-2.989400	2.510500	-7.504000	29.673806	0.000197	20.841798
2415.641723	-2.990800	2.504300	-7.488700	29.688541	0.000200	20.843850
2416.640485	-2.984100	2.498000	-7.453300	29.702334	0.000198	20.844480
