LabVIEW Measurement	
Writer_Version	2
Reader_Version	2
Separator	Tab
Decimal_Separator	.
Multi_Headings	No
X_Columns	One
Time_Pref	Absolute
Operator	admin
Description	Clolumns are: time, Current, Voltage, Power, Battery Temp, and Chamber Temp
Date	2024/08/16
Time	13:06:06.104549407958984375
***End_of_Header***	
	
Channels	6						
Samples	1	1	1	1	1	1	
Date	2024/09/16	2024/09/16	2024/09/16	2024/09/16	2024/09/16	2024/09/16	
Time	13:21:11.9687786102294921875	13:21:11.9787573814392089844	13:21:11.9923582077026367188	13:21:11.9502968788146972657	13:21:11.9502968788146972657	13:21:11.9502968788146972657	
X_Dimension	Time	Time	Time	Time	Time	Time	
X0	0.0000000000000000E+0	0.0000000000000000E+0	0.0000000000000000E+0	0.0000000000000000E+0	0.0000000000000000E+0	0.0000000000000000E+0	
Delta_X	1.000000	1.000000	1.000000	1.000000	1.000000	1.000000	
***End_of_Header***							
X_Value	Untitled	Untitled 1	Untitled 2	Untitled 3	Untitled 4	Untitled 5	Comment
0.000000	0.021210	4.090600	0.086767	20.985110	0.000948	20.707742
1.000585	-3.005000	3.909000	-11.745000	20.980117	0.000946	20.714603
2.001369	-3.001800	3.901800	-11.711000	20.944936	0.000947	20.722091
3.002942	-2.989500	3.897500	-11.651000	20.967988	0.000945	20.717645
4.003584	-2.984200	3.893200	-11.617000	20.977001	0.000945	20.713383
5.000752	-2.996800	3.890800	-11.659000	20.980536	0.000942	20.696528
6.000834	-3.009400	3.885200	-11.691000	20.983436	0.000943	20.733570
7.001633	-2.986400	3.885700	-11.602000	20.987198	0.000940	20.713150
8.003029	-3.016900	3.882200	-11.712000	20.966812	0.000940	20.730220
8.999374	-3.005800	3.879700	-11.660000	21.003889	0.000938	20.716568
9.999021	-2.997900	3.878900	-11.628000	20.987099	0.000938	20.715422
11.005036	-2.997900	3.876300	-11.619000	20.989316	0.000937	20.728071
12.005238	-3.021000	3.873500	-11.700000	21.000349	0.000939	20.717768
12.999438	-3.013300	3.873000	-11.669000	20.995504	0.000939	20.726673
14.002197	-3.008000	3.871300	-11.643000	21.015513	0.000939	20.717763
15.001338	-3.004500	3.870100	-11.626000	21.003883	0.000936	20.717510
16.008331	-3.005000	3.868700	-11.623000	21.022692	0.000935	20.715460
17.003242	-3.000800	3.867200	-11.602000	21.037043	0.000935	20.715115
18.001663	-2.984000	3.868100	-11.540000	21.019897	0.000935	20.731631
19.004051	-2.997100	3.867700	-11.591000	21.042578	0.000934	20.734403
20.004119	-3.026100	3.865000	-11.695000	21.062636	0.000933	20.726015
21.008107	-2.976800	3.865300	-11.505000	21.030277	0.000934	20.712615
22.007266	-2.961300	3.865400	-11.446000	21.023807	0.000933	20.721317
23.004918	-3.014000	3.861400	-11.636000	21.042172	0.000931	20.714081
24.004436	-2.988300	3.862800	-11.542000	21.063732	0.000933	20.706722
25.002164	-3.034300	3.860600	-11.713000	21.055396	0.000931	20.730628
26.004999	-3.032700	3.859500	-11.704000	21.075300	0.000934	20.732993
27.008613	-3.001200	3.860000	-11.583000	21.101625	0.000931	20.711907
28.005321	-3.015000	3.858900	-11.633000	21.097506	0.000931	20.716797
29.003417	-3.004700	3.858600	-11.593000	21.105762	0.000931	20.738332
30.009120	-2.996200	3.858300	-11.559000	21.119509	0.000929	20.714149
31.006656	-2.982000	3.858700	-11.506000	21.108784	0.000930	20.722863
32.005997	-2.987700	3.857400	-11.523000	21.106143	0.000929	20.708840
33.010155	-3.010100	3.856900	-11.608000	21.142335	0.000930	20.728449
34.009053	-3.023700	3.855200	-11.656000	21.141067	0.000928	20.720067
35.009025	-3.028100	3.854900	-11.671000	21.127247	0.000932	20.738960
36.009888	-2.994300	3.853800	-11.538000	21.151040	0.000929	20.730518
37.009555	-3.015500	3.853100	-11.617000	21.140217	0.000928	20.691714
38.008855	-3.008300	3.852300	-11.588000	21.150547	0.000928	20.726706
39.012124	-2.988800	3.854100	-11.517000	21.158778	0.000930	20.728775
40.007325	-2.990900	3.852600	-11.521000	21.181628	0.000929	20.710855
41.008837	-3.004400	3.852300	-11.572000	21.177289	0.000930	20.714100
42.009945	-3.010000	3.850400	-11.588000	21.191582	0.000929	20.721287
43.010258	-3.003300	3.850600	-11.564000	21.186916	0.000929	20.719938
44.008646	-3.000100	3.850000	-11.550000	21.211490	0.000928	20.712277
45.010683	-3.005000	3.849400	-11.566000	21.198243	0.000928	20.701395
46.008907	-3.003100	3.849100	-11.558000	21.199763	0.000928	20.713349
47.009370	-2.993100	3.849800	-11.522000	21.208572	0.000927	20.713626
48.013687	-3.004900	3.849400	-11.565000	21.238476	0.000931	20.723627
49.009753	-3.005600	3.849800	-11.570000	21.235534	0.000928	20.742970
50.012744	-2.991400	3.849800	-11.514000	21.246657	0.000928	20.717586
51.009256	-2.995600	3.847500	-11.525000	21.246035	0.000926	20.723128
52.010356	-2.985500	3.848400	-11.488000	21.257115	0.000928	20.735161
53.010527	-2.990000	3.847900	-11.505000	21.294083	0.000930	20.715720
54.014134	-3.016600	3.846200	-11.601000	21.281908	0.000929	20.701168
55.012649	-3.023800	3.846600	-11.630000	21.297124	0.000927	20.725401
56.013986	-2.996800	3.845300	-11.521000	21.312014	0.000928	20.709476
57.011374	-2.990500	3.844900	-11.497000	21.318950	0.000928	20.744867
58.012933	-2.996600	3.844700	-11.519000	21.315811	0.000927	20.752632
59.015970	-3.020200	3.844900	-11.611000	21.318753	0.000928	20.730444
60.012553	-3.003400	3.844800	-11.547000	21.343201	0.000930	20.731195
61.017986	-2.997300	3.844700	-11.522000	21.327032	0.000928	20.730666
62.014288	-3.008900	3.843600	-11.564000	21.369094	0.000926	20.743351
63.020593	-3.000200	3.842600	-11.527000	21.356668	0.000928	20.737557
64.014570	-3.006300	3.842500	-11.550000	21.385675	0.000928	20.724853
65.019122	-3.018500	3.841900	-11.595000	21.353301	0.000928	20.734188
66.018403	-3.003200	3.843200	-11.541000	21.393085	0.000927	20.750760
67.022334	-3.012400	3.842200	-11.573000	21.394735	0.000929	20.748616
68.019114	-2.998200	3.842500	-11.519000	21.385774	0.000928	20.739651
69.020002	-3.009700	3.842400	-11.564000	21.416830	0.000927	20.742274
70.018121	-2.971600	3.842700	-11.418000	21.407555	0.000928	20.705965
71.017188	-3.006700	3.840500	-11.546000	21.394710	0.000928	20.733892
72.027530	-3.000400	3.841000	-11.523000	21.427440	0.000929	20.730603
73.017920	-2.989600	3.841700	-11.483000	21.442998	0.000928	20.745697
74.024383	-3.016100	3.839200	-11.578000	21.440599	0.000930	20.750883
75.032094	-3.001000	3.839000	-11.520000	21.446636	0.000928	20.752656
76.023804	-3.021100	3.839400	-11.598000	21.436641	0.000930	20.739810
77.027449	-2.999400	3.837400	-11.509000	21.442272	0.000929	20.751609
78.021882	-3.027200	3.837000	-11.614000	21.474749	0.000930	20.728627
79.026819	-2.978200	3.838800	-11.432000	21.476417	0.000929	20.747366
80.024997	-3.035800	3.836100	-11.644000	21.494227	0.000929	20.723460
81.025816	-2.995700	3.837600	-11.495000	21.498417	0.000928	20.747569
82.021016	-3.009800	3.836100	-11.545000	21.490589	0.000930	20.734994
83.025462	-3.003600	3.836400	-11.522000	21.507821	0.000932	20.780213
84.020889	-3.019900	3.835600	-11.583000	21.511286	0.000930	20.731521
85.027423	-2.991500	3.835700	-11.473000	21.519065	0.000932	20.742151
86.021704	-2.989300	3.836500	-11.467000	21.524652	0.000931	20.770502
87.023695	-2.993500	3.835500	-11.480000	21.535047	0.000932	20.751979
88.026535	-2.997500	3.836300	-11.498000	21.530985	0.000929	20.752182
89.020936	-3.011700	3.834900	-11.549000	21.568542	0.000930	20.743770
90.023995	-3.015800	3.834600	-11.564000	21.566573	0.000930	20.743222
91.024116	-2.981200	3.835600	-11.433000	21.568038	0.000932	20.753223
92.025229	-2.984200	3.836000	-11.445000	21.587920	0.000931	20.744195
93.022183	-2.995400	3.833500	-11.482000	21.600264	0.000930	20.750384
94.029566	-2.983200	3.834100	-11.436000	21.607968	0.000934	20.748137
95.025776	-2.989100	3.833800	-11.459000	21.614823	0.000931	20.754049
96.025167	-2.999200	3.832200	-11.492000	21.610085	0.000933	20.736978
97.030840	-3.001000	3.833500	-11.503000	21.636693	0.000932	20.743217
98.027641	-2.991900	3.834000	-11.470000	21.625992	0.000933	20.772812
99.026018	-2.981200	3.832300	-11.424000	21.642354	0.000931	20.755046
100.027009	-2.979100	3.833400	-11.419000	21.653276	0.000934	20.766925
101.031971	-2.996100	3.831300	-11.478000	21.673520	0.000933	20.755416
102.024140	-2.999000	3.832200	-11.492000	21.636441	0.000935	20.750551
103.030511	-3.002100	3.831600	-11.502000	21.667933	0.000934	20.748876
104.027385	-3.000800	3.830300	-11.492000	21.674665	0.000935	20.763200
105.027933	-2.992200	3.830100	-11.460000	21.676363	0.000935	20.745458
106.031049	-3.021500	3.830200	-11.571000	21.692220	0.000935	20.764173
107.025568	-3.000600	3.830700	-11.492000	21.684486	0.000937	20.760226
108.029306	-3.001800	3.828500	-11.490000	21.737346	0.000935	20.758126
109.031562	-3.010700	3.829000	-11.527000	21.723232	0.000936	20.769605
110.040365	-3.018500	3.827900	-11.553000	21.741260	0.000936	20.761569
111.029829	-2.995700	3.830000	-11.472000	21.720783	0.000936	20.748662
112.036680	-2.996100	3.828300	-11.468000	21.746194	0.000939	20.764137
113.043361	-2.988300	3.828500	-11.439000	21.739088	0.000937	20.762240
114.029418	-2.994900	3.827900	-11.463000	21.727539	0.000937	20.772494
115.040810	-2.994800	3.827600	-11.462000	21.747259	0.000936	20.761410
116.034693	-3.024300	3.828500	-11.577000	21.764739	0.000939	20.750929
117.033343	-2.986500	3.829000	-11.434000	21.768702	0.000938	20.757265
118.034845	-2.985500	3.828900	-11.430000	21.779642	0.000938	20.752567
119.041450	-2.985800	3.828600	-11.430000	21.803249	0.000938	20.766713
120.033663	-2.976700	3.828200	-11.395000	21.821479	0.000936	20.767889
121.045157	-2.986800	3.828400	-11.433000	21.824069	0.000938	20.774275
122.041043	-3.009000	3.826000	-11.512000	21.831150	0.000939	20.788949
123.038369	-3.003200	3.826000	-11.488000	21.832640	0.000939	20.767680
124.034492	-3.027600	3.826600	-11.584000	21.858448	0.000939	20.787348
125.039514	-2.996400	3.826400	-11.463000	21.869190	0.000939	20.782927
126.034569	-2.998900	3.826300	-11.474000	21.872482	0.000940	20.769152
127.034711	-3.014700	3.825000	-11.530000	21.873448	0.000941	20.765378
128.036952	-2.996400	3.826200	-11.462000	21.920344	0.000941	20.789560
129.035578	-2.999900	3.825200	-11.474000	21.895816	0.000941	20.781129
130.040970	-3.012400	3.825300	-11.522000	21.906761	0.000940	20.755099
131.033673	-3.013500	3.824900	-11.524000	21.918603	0.000942	20.787817
132.035662	-3.002900	3.824200	-11.482000	21.938098	0.000943	20.771295
133.038598	-3.005500	3.823700	-11.491000	21.901052	0.000943	20.794904
134.029883	-3.004800	3.825300	-11.493000	21.916727	0.000940	20.771714
135.036575	-2.997000	3.823900	-11.458000	21.914077	0.000944	20.789450
136.032819	-3.031400	3.821500	-11.583000	21.943476	0.000943	20.777152
137.045619	-2.998100	3.824500	-11.465000	21.909414	0.000943	20.789524
138.036805	-2.987500	3.825000	-11.425000	21.951903	0.000946	20.768519
139.053252	-2.988300	3.823900	-11.426000	21.958899	0.000944	20.793065
140.047196	-3.019800	3.821000	-11.537000	21.974480	0.000946	20.783058
141.043009	-3.008400	3.822800	-11.499000	21.994153	0.000947	20.790423
142.041102	-2.990900	3.821500	-11.429000	22.002654	0.000946	20.797511
143.036424	-2.983700	3.823000	-11.406000	22.008332	0.000948	20.812204
144.048953	-2.993600	3.820800	-11.437000	22.012072	0.000947	20.803620
145.040350	-3.013000	3.820500	-11.510000	22.048770	0.000948	20.787252
146.044868	-2.964300	3.823100	-11.330000	22.032395	0.000946	20.795989
147.035709	-3.022700	3.820000	-11.545000	22.031645	0.000947	20.771056
148.042460	-3.002700	3.819900	-11.469000	22.052639	0.000949	20.793021
149.034832	-2.993000	3.820600	-11.434000	22.060710	0.000948	20.782135
150.040194	-3.005500	3.819800	-11.480000	22.085818	0.000952	20.783089
151.042852	-3.011900	3.820900	-11.507000	22.088112	0.000948	20.795817
152.036228	-2.977900	3.820000	-11.375000	22.089231	0.000949	20.791722
153.041568	-3.010000	3.818800	-11.493000	22.101956	0.000952	20.793082
154.042171	-2.982600	3.818000	-11.387000	22.108434	0.000950	20.804782
155.038124	-3.003600	3.818300	-11.467000	22.118325	0.000951	20.796667
156.039714	-3.003600	3.818800	-11.469000	22.109282	0.000950	20.768173
157.044311	-2.997800	3.819600	-11.449000	22.131868	0.000950	20.804061
158.039617	-3.008100	3.817400	-11.482000	22.142637	0.000951	20.784498
159.059412	-2.986800	3.818600	-11.404000	22.133393	0.000954	20.797527
160.038293	-3.004100	3.817400	-11.467000	22.155222	0.000952	20.776708
161.045654	-2.987200	3.818500	-11.405000	22.158641	0.000954	20.798624
162.040184	-3.001000	3.817200	-11.454000	22.169490	0.000953	20.817072
163.047969	-3.004600	3.816600	-11.467000	22.176594	0.000955	20.795261
164.044238	-2.993700	3.817600	-11.428000	22.165203	0.000955	20.813728
165.040202	-2.990100	3.815800	-11.409000	22.187714	0.000955	20.799282
166.044669	-2.990700	3.815900	-11.410000	22.172036	0.000956	20.803974
167.052251	-2.988100	3.816500	-11.403000	22.168543	0.000957	20.818494
168.044754	-3.003600	3.814800	-11.458000	22.181053	0.000956	20.807786
169.042654	-3.018300	3.814600	-11.513000	22.151549	0.000958	20.795790
170.047929	-2.992100	3.816200	-11.417000	22.180112	0.000958	20.801154
171.042451	-2.983200	3.816700	-11.385000	22.190733	0.000957	20.811314
172.044394	-3.012200	3.814100	-11.488000	22.207339	0.000957	20.776257
173.048289	-2.991200	3.814200	-11.408000	22.221417	0.000958	20.796042
174.046003	-3.012000	3.812900	-11.483000	22.205715	0.000962	20.809245
175.048659	-2.999800	3.813700	-11.440000	22.213224	0.000958	20.811547
176.043571	-2.984500	3.813700	-11.381000	22.219350	0.000960	20.811991
177.045959	-3.009600	3.813900	-11.477000	22.237499	0.000962	20.816886
178.050034	-3.022500	3.814000	-11.526000	22.270973	0.000964	20.803462
179.044658	-3.008500	3.812700	-11.469000	22.288869	0.000962	20.807631
180.047718	-3.015600	3.811400	-11.491000	22.290389	0.000962	20.807255
181.048193	-3.002300	3.813100	-11.447000	22.307485	0.000963	20.801615
182.049038	-3.014800	3.812700	-11.493000	22.307460	0.000962	20.809650
183.051585	-3.000300	3.814000	-11.441000	22.303771	0.000964	20.811646
184.048124	-2.999800	3.811300	-11.432000	22.307959	0.000965	20.822951
185.044837	-3.004400	3.811000	-11.448000	22.322121	0.000964	20.794933
186.048483	-3.017600	3.810900	-11.499000	22.338245	0.000964	20.797328
187.052280	-3.007700	3.811400	-11.461000	22.342230	0.000967	20.827397
188.053030	-2.977600	3.812400	-11.350000	22.344124	0.000965	20.824552
189.049649	-2.991500	3.811300	-11.399000	22.350483	0.000967	20.811479
190.055418	-3.005800	3.812000	-11.456000	22.359977	0.000968	20.806762
191.048394	-2.993500	3.810200	-11.404000	22.368101	0.000969	20.832914
192.049662	-2.967300	3.812100	-11.311000	22.376249	0.000969	20.818788
193.050331	-2.979400	3.810300	-11.351000	22.405931	0.000968	20.802519
194.049881	-2.982300	3.809400	-11.358000	22.404579	0.000969	20.809226
195.054829	-2.996300	3.809600	-11.414000	22.412555	0.000969	20.819109
196.052255	-3.001800	3.807900	-11.430000	22.422596	0.000968	20.808302
197.055047	-2.973800	3.810800	-11.331000	22.421926	0.000972	20.804786
198.050644	-2.995600	3.810400	-11.412000	22.448613	0.000972	20.830088
199.054561	-3.024800	3.808500	-11.520000	22.468227	0.000972	20.818437
200.052033	-3.018200	3.808400	-11.493000	22.463695	0.000974	20.822908
201.053927	-2.987700	3.809000	-11.379000	22.463942	0.000973	20.829318
202.054287	-3.000800	3.807200	-11.423000	22.465578	0.000974	20.820051
203.052642	-3.006700	3.808400	-11.450000	22.491274	0.000975	20.823973
204.052441	-2.994600	3.806800	-11.398000	22.527699	0.000974	20.842909
205.052865	-3.013900	3.806500	-11.471000	22.536626	0.000974	20.837151
206.055774	-2.983700	3.807500	-11.360000	22.517485	0.000976	20.830310
207.054262	-3.001200	3.806400	-11.423000	22.517480	0.000978	20.842632
208.053792	-3.006400	3.806700	-11.442000	22.493703	0.000978	20.837312
209.054903	-3.002600	3.806600	-11.428000	22.497373	0.000977	20.848099
210.059577	-3.018500	3.805400	-11.485000	22.473843	0.000980	20.844923
211.055644	-2.997600	3.805500	-11.407000	22.483189	0.000977	20.834843
212.056320	-3.003800	3.804900	-11.428000	22.506142	0.000978	20.834122
213.057936	-3.008300	3.804400	-11.444000	22.502822	0.000979	20.839806
214.058180	-2.998900	3.804800	-11.409000	22.499508	0.000979	20.839806
215.058404	-3.005900	3.804700	-11.435000	22.510176	0.000980	20.824412
216.057420	-2.983200	3.805300	-11.351000	22.531702	0.000982	20.845496
217.059783	-3.001500	3.804100	-11.416000	22.508055	0.000979	20.819443
218.064663	-2.984600	3.805400	-11.357000	22.521637	0.000981	20.832571
219.060977	-3.008000	3.802700	-11.437000	22.529784	0.000983	20.851635
220.061498	-3.012300	3.803700	-11.456000	22.537309	0.000982	20.835939
221.061082	-3.013900	3.803000	-11.460000	22.546753	0.000983	20.836863
222.059435	-3.002100	3.803600	-11.418000	22.550387	0.000984	20.849036
223.062387	-3.005600	3.802200	-11.427000	22.580035	0.000984	20.856444
224.062943	-3.019200	3.800700	-11.475000	22.577403	0.000984	20.852386
225.068870	-3.007500	3.801500	-11.432000	22.583902	0.000984	20.820490
226.064593	-3.003700	3.801700	-11.417000	22.616591	0.000984	20.851333
227.061864	-3.017700	3.801900	-11.472000	22.594396	0.000988	20.831474
228.066210	-2.989200	3.801300	-11.361000	22.607099	0.000985	20.841352
229.065153	-3.002900	3.800300	-11.410000	22.594095	0.000985	20.855354
230.064578	-3.012500	3.800000	-11.446000	22.607252	0.000987	20.846247
231.060404	-2.998800	3.801000	-11.397000	22.633787	0.000990	20.858599
232.064252	-3.003500	3.800100	-11.412000	22.634936	0.000987	20.835569
233.062968	-2.982600	3.801000	-11.336000	22.641159	0.000988	20.830422
234.063837	-2.999500	3.800000	-11.397000	22.653344	0.000989	20.851161
235.069163	-3.000800	3.800000	-11.402000	22.671480	0.000990	20.832817
236.066218	-2.977700	3.799700	-11.313000	22.672003	0.000991	20.813427
237.077925	-3.021800	3.797700	-11.473000	22.685128	0.000990	20.835108
238.067236	-3.010600	3.799200	-11.437000	22.671302	0.000992	20.845915
239.068042	-2.978200	3.799800	-11.315000	22.697841	0.000991	20.816074
240.066905	-3.018900	3.798000	-11.464000	22.699384	0.000993	20.817146
241.068112	-2.989200	3.799400	-11.357000	22.682294	0.000993	20.838907
242.065285	-2.974900	3.798700	-11.300000	22.699458	0.000993	20.819116
243.066381	-2.995800	3.798300	-11.377000	22.686081	0.000995	20.808562
244.068379	-3.012300	3.797600	-11.438000	22.672249	0.000995	20.820311
245.067807	-2.997300	3.797700	-11.381000	22.675721	0.000996	20.831850
246.069446	-3.029900	3.796100	-11.501000	22.709921	0.000996	20.821536
247.068454	-2.987200	3.797800	-11.344000	22.689671	0.000997	20.814529
248.068705	-2.999400	3.797200	-11.388000	22.722081	0.000996	20.814276
249.069614	-3.016500	3.796300	-11.450000	22.732421	0.000998	20.828427
250.069464	-2.997300	3.796900	-11.379000	22.727583	0.000998	20.826900
251.067180	-2.993600	3.797200	-11.366000	22.738998	0.000998	20.793765
252.068731	-2.992900	3.795800	-11.360000	22.751330	0.001000	20.810385
253.069415	-2.980700	3.796400	-11.315000	22.758135	0.000998	20.805821
254.068884	-3.021400	3.794300	-11.463000	22.766901	0.001000	20.806068
255.069802	-2.997600	3.795300	-11.375000	22.780658	0.000999	20.820797
256.072435	-3.002200	3.796200	-11.397000	22.794951	0.001001	20.794337
257.071936	-3.008300	3.794500	-11.414000	22.802283	0.000999	20.801683
258.070729	-2.987900	3.794700	-11.337000	22.819175	0.001001	20.810070
259.072464	-3.010500	3.793700	-11.418000	22.838723	0.001002	20.815428
260.073514	-3.006800	3.794000	-11.407000	22.831807	0.001002	20.801387
261.072011	-2.980400	3.794200	-11.307000	22.832975	0.001002	20.816782
262.073472	-2.997000	3.791500	-11.362000	22.866782	0.001003	20.793277
263.071385	-3.006500	3.792700	-11.402000	22.866757	0.001005	20.813641
264.074799	-3.020600	3.790500	-11.448000	22.885979	0.001004	20.811086
265.072162	-3.023200	3.791300	-11.461000	22.897442	0.001003	20.795069
266.071981	-2.992500	3.792600	-11.349000	22.889223	0.001004	20.803432
267.072432	-3.006400	3.792000	-11.399000	22.892665	0.001004	20.784594
268.074956	-3.022300	3.789900	-11.453000	22.908308	0.001007	20.795999
269.070451	-3.004700	3.791600	-11.391000	22.911823	0.001005	20.783399
270.075494	-3.006100	3.790500	-11.393000	22.926790	0.001008	20.799817
271.076745	-2.993600	3.789500	-11.344000	22.942881	0.001008	20.801239
272.073742	-2.987200	3.790500	-11.322000	22.914638	0.001008	20.806134
273.074565	-2.997400	3.790200	-11.359000	22.941762	0.001006	20.793954
274.075031	-2.982600	3.790500	-11.305000	22.935517	0.001009	20.794335
275.074959	-2.995800	3.789900	-11.353000	22.905025	0.001006	20.801245
276.074069	-3.015600	3.789100	-11.425000	22.921412	0.001009	20.795851
277.081188	-2.991300	3.790800	-11.338000	22.915788	0.001010	20.797328
278.073992	-3.003100	3.788600	-11.377000	22.939457	0.001011	20.781213
279.075136	-3.016100	3.787900	-11.423000	22.923863	0.001012	20.802574
280.076390	-2.976000	3.789000	-11.275000	22.917631	0.001010	20.791589
281.075999	-2.975200	3.789400	-11.273000	22.931263	0.001011	20.782961
282.074213	-2.996200	3.788600	-11.350000	22.925007	0.001011	20.794237
283.078938	-2.981400	3.788100	-11.292000	22.931688	0.001010	20.808042
284.077085	-2.984600	3.787100	-11.302000	22.919629	0.001014	20.788374
285.077797	-3.005800	3.787600	-11.383000	22.914792	0.001014	20.786847
286.082381	-2.998800	3.786000	-11.351000	22.895215	0.001014	20.795210
287.079194	-2.991800	3.786200	-11.326000	22.906174	0.001014	20.772050
288.075003	-2.998000	3.785500	-11.348000	22.913451	0.001017	20.782186
289.083488	-2.994800	3.786500	-11.339000	22.919144	0.001013	20.797372
290.078813	-2.980400	3.786100	-11.284000	22.918923	0.001013	20.783874
291.077312	-2.998400	3.784400	-11.346000	22.949488	0.001016	20.783676
292.079281	-2.997900	3.785700	-11.348000	22.974368	0.001016	20.776835
293.076679	-2.976400	3.785500	-11.266000	22.976058	0.001015	20.786115
294.082613	-2.998500	3.783700	-11.344000	22.942236	0.001016	20.784945
295.080844	-2.996300	3.784300	-11.338000	22.945770	0.001017	20.788486
296.077424	-3.037900	3.781800	-11.486000	22.925119	0.001017	20.766373
297.078951	-2.977000	3.784300	-11.265000	22.914830	0.001017	20.786411
298.080330	-2.998300	3.784200	-11.343000	22.926637	0.001020	20.790180
299.077522	-3.003700	3.783500	-11.363000	22.936379	0.001018	20.783344
300.077900	-2.990200	3.784000	-11.313000	22.953889	0.001018	20.787138
301.080249	-2.994700	3.782400	-11.326000	22.953514	0.001019	20.780598
302.077689	-2.991600	3.783000	-11.317000	22.975309	0.001019	20.772088
303.076716	-2.983000	3.783000	-11.284000	22.976458	0.001020	20.781774
304.078658	-3.012400	3.781100	-11.389000	22.990625	0.001020	20.783640
305.080638	-3.003400	3.780700	-11.353000	23.009751	0.001020	20.780518
306.081200	-3.001600	3.782000	-11.351000	23.018595	0.001022	20.768042
307.079983	-2.987000	3.781900	-11.295000	23.011822	0.001019	20.775955
308.083477	-3.006400	3.781200	-11.367000	23.018398	0.001022	20.781122
309.077229	-2.990900	3.780000	-11.304000	23.011595	0.001021	20.779995
310.080298	-2.984700	3.780100	-11.281000	23.058671	0.001023	20.789706
311.080567	-3.015200	3.778800	-11.393000	23.083677	0.001023	20.764027
312.081624	-3.014900	3.778800	-11.390000	23.098672	0.001023	20.762931
313.079831	-2.969300	3.779800	-11.222000	23.117772	0.001024	20.746033
314.079975	-2.990200	3.778600	-11.297000	23.099791	0.001023	20.765474
315.082127	-2.998900	3.778600	-11.330000	23.092146	0.001023	20.768719
316.079779	-2.977500	3.779500	-11.251000	23.099022	0.001025	20.760437
317.078057	-2.989600	3.779100	-11.297000	23.061836	0.001024	20.772488
318.085156	-2.997500	3.777000	-11.320000	23.094665	0.001025	20.765080
319.084396	-2.992100	3.778000	-11.303000	23.101763	0.001026	20.775511
320.080822	-3.000200	3.777900	-11.332000	23.162872	0.001024	20.779373
321.083575	-3.000100	3.777900	-11.332000	23.153961	0.001026	20.760012
322.083912	-3.012700	3.776600	-11.376000	23.167357	0.001028	20.752573
323.079437	-2.970100	3.777800	-11.219000	23.204264	0.001028	20.757315
324.079762	-2.990000	3.776300	-11.290000	23.209837	0.001027	20.773806
325.080989	-3.004600	3.776200	-11.345000	23.186076	0.001028	20.769434
326.082481	-2.995600	3.776000	-11.310000	23.190247	0.001028	20.766976
327.084065	-3.032500	3.775000	-11.445000	23.188269	0.001029	20.754563
328.085626	-2.984400	3.776200	-11.268000	23.209654	0.001027	20.762717
329.081374	-2.992300	3.775000	-11.295000	23.234337	0.001030	20.770383
330.081398	-2.995000	3.774200	-11.303000	23.239744	0.001030	20.753042
331.087616	-3.017400	3.773200	-11.383000	23.225845	0.001028	20.744328
332.088549	-3.019200	3.773400	-11.392000	23.218649	0.001030	20.776473
333.083986	-3.005400	3.773400	-11.339000	23.250300	0.001033	20.749870
334.085744	-2.998100	3.772100	-11.307000	23.243923	0.001034	20.774774
335.084927	-3.000300	3.773100	-11.320000	23.262725	0.001033	20.750942
336.084067	-3.012500	3.772700	-11.364000	23.252518	0.001034	20.768215
337.088289	-3.017500	3.772900	-11.384000	23.289042	0.001033	20.786800
338.087182	-3.000800	3.771600	-11.317000	23.297164	0.001033	20.750369
339.083966	-2.998400	3.772700	-11.310000	23.272802	0.001033	20.756774
340.085946	-2.993500	3.772500	-11.293000	23.249152	0.001035	20.746822
341.085119	-3.045700	3.770100	-11.481000	23.257293	0.001035	20.756879
342.090559	-3.005200	3.770600	-11.330000	23.282339	0.001035	20.759219
343.086122	-3.001300	3.769800	-11.313000	23.296015	0.001036	20.762495
344.084347	-3.012300	3.770600	-11.356000	23.277884	0.001035	20.759496
345.085429	-2.990300	3.769700	-11.271000	23.296237	0.001036	20.741853
346.087620	-3.007700	3.770800	-11.340000	23.313023	0.001037	20.760099
347.088732	-3.026300	3.769900	-11.407000	23.322528	0.001038	20.754453
348.086224	-2.993600	3.770800	-11.287000	23.345661	0.001037	20.751558
349.087380	-3.019600	3.769100	-11.380000	23.324525	0.001038	20.759299
350.087502	-3.025400	3.766900	-11.395000	23.332617	0.001037	20.764090
351.087949	-2.974700	3.770100	-11.213000	23.344690	0.001039	20.747740
352.088990	-3.001900	3.767800	-11.309000	23.335597	0.001038	20.726772
353.090812	-2.990000	3.768400	-11.266000	23.309656	0.001038	20.747241
354.089164	-2.987100	3.768200	-11.255000	23.294210	0.001040	20.760685
355.089391	-3.002700	3.766300	-11.307000	23.266351	0.001040	20.747463
356.094969	-3.002000	3.767400	-11.309000	23.278942	0.001042	20.753918
357.091309	-2.990000	3.765800	-11.258000	23.255113	0.001042	20.764177
358.094028	-2.974900	3.766400	-11.203000	23.292711	0.001041	20.752545
359.089853	-3.014900	3.765600	-11.352000	23.292883	0.001042	20.741337
360.090426	-3.022400	3.764400	-11.376000	23.313123	0.001042	20.734594
361.091987	-2.999700	3.765500	-11.293000	23.308269	0.001041	20.746800
362.090436	-2.989000	3.764500	-11.251000	23.349330	0.001042	20.763297
363.090306	-2.997300	3.764700	-11.284000	23.340784	0.001043	20.722488
364.090178	-2.979600	3.765900	-11.220000	23.342105	0.001043	20.749417
365.090100	-2.994100	3.763200	-11.266000	23.344317	0.001042	20.740254
366.093813	-3.006900	3.764000	-11.316000	23.377483	0.001043	20.743623
367.093380	-3.024400	3.762200	-11.378000	23.378724	0.001044	20.734909
368.094724	-2.997000	3.762600	-11.276000	23.392123	0.001043	20.751185
369.094232	-3.012700	3.763900	-11.337000	23.392418	0.001043	20.741049
370.092700	-3.000200	3.762800	-11.288000	23.377329	0.001043	20.747263
371.092548	-2.988100	3.762800	-11.242000	23.375210	0.001044	20.728542
372.091849	-3.035600	3.759600	-11.411000	23.356410	0.001045	20.748581
373.092624	-3.012400	3.761300	-11.329000	23.354671	0.001046	20.755373
374.095184	-3.010800	3.761500	-11.324000	23.337412	0.001043	20.751826
375.092422	-2.991100	3.762200	-11.252000	23.352723	0.001045	20.733032
376.095783	-3.018500	3.759500	-11.347000	23.387239	0.001044	20.731116
377.094600	-3.004900	3.760500	-11.299000	23.399115	0.001045	20.728794
378.098627	-3.011600	3.759400	-11.321000	23.399539	0.001045	20.740125
379.096270	-2.997000	3.759400	-11.265000	23.379492	0.001046	20.742792
380.092236	-3.007400	3.758500	-11.303000	23.371100	0.001045	20.746235
381.096097	-2.992000	3.759700	-11.247000	23.360741	0.001047	20.729214
382.093878	-2.984400	3.760200	-11.221000	23.384272	0.001046	20.727194
383.094149	-2.995900	3.759200	-11.261000	23.417043	0.001045	20.731116
384.096414	-2.976000	3.759500	-11.188000	23.434515	0.001047	20.729189
385.100661	-2.978200	3.758200	-11.192000	23.428525	0.001048	20.733616
386.101755	-3.010200	3.757000	-11.308000	23.400663	0.001047	20.720388
387.100841	-2.964500	3.759500	-11.144000	23.399515	0.001048	20.726349
388.099394	-3.014400	3.757300	-11.325000	23.416200	0.001048	20.723159
389.100389	-2.992500	3.757200	-11.242000	23.428825	0.001047	20.714950
390.103208	-3.009300	3.755400	-11.299000	23.442194	0.001048	20.723134
391.096676	-2.981800	3.757900	-11.205000	23.438237	0.001049	20.731971
392.098417	-3.003400	3.755900	-11.280000	23.479239	0.001049	20.729921
393.098221	-2.978800	3.755900	-11.187000	23.493129	0.001050	20.717291
394.100472	-3.009700	3.755500	-11.302000	23.515121	0.001051	20.722266
395.105649	-2.976300	3.756300	-11.179000	23.512061	0.001051	20.741011
396.102869	-3.027100	3.754200	-11.363000	23.543004	0.001050	20.741682
397.104649	-2.999800	3.753900	-11.259000	23.522369	0.001050	20.727635
398.104793	-2.991500	3.753800	-11.229000	23.527075	0.001050	20.741836
399.104006	-3.009500	3.753700	-11.296000	23.523167	0.001051	20.729384
400.101554	-2.993300	3.754600	-11.237000	23.511618	0.001052	20.720177
401.103863	-3.025100	3.752400	-11.350000	23.518068	0.001052	20.713366
402.101726	-2.977800	3.753900	-11.177000	23.521404	0.001054	20.701536
403.100823	-3.024200	3.751100	-11.342000	23.550085	0.001051	20.710373
404.101651	-2.998500	3.751300	-11.248000	23.550066	0.001052	20.717941
405.104030	-2.997500	3.752800	-11.247000	23.545662	0.001050	20.713525
406.104896	-3.005400	3.751600	-11.273000	23.554944	0.001051	20.735160
407.102872	-3.007300	3.750800	-11.279000	23.575811	0.001054	20.737111
408.101236	-3.014200	3.751000	-11.305000	23.577323	0.001052	20.733885
409.106500	-2.998800	3.750200	-11.244000	23.579822	0.001052	20.713155
410.107444	-3.010400	3.749900	-11.288000	23.594085	0.001054	20.741680
411.102147	-3.006400	3.749500	-11.271000	23.579956	0.001054	20.718032
412.102334	-2.991500	3.750100	-11.217000	23.596204	0.001054	20.721044
413.114229	-2.984500	3.748900	-11.188000	23.606246	0.001054	20.724947
414.105205	-2.998600	3.748700	-11.240000	23.617002	0.001052	20.737153
415.101877	-2.978700	3.748300	-11.164000	23.624121	0.001053	20.713943
416.106570	-3.026600	3.747700	-11.340000	23.610656	0.001055	20.713246
417.106975	-2.997500	3.749400	-11.239000	23.623181	0.001054	20.725329
418.107467	-3.022800	3.746700	-11.323000	23.620491	0.001055	20.721683
419.106993	-3.006300	3.746900	-11.263000	23.617511	0.001055	20.722489
420.106375	-3.000100	3.747000	-11.238000	23.608150	0.001056	20.701724
421.106637	-2.992300	3.746500	-11.209000	23.622995	0.001057	20.709495
422.107576	-2.995600	3.746600	-11.223000	23.640047	0.001055	20.726590
423.109073	-3.004100	3.744300	-11.248000	23.628628	0.001055	20.698070
424.109759	-2.999600	3.746100	-11.236000	23.643019	0.001053	20.687367
425.123244	-2.985500	3.745300	-11.181000	23.637970	0.001054	20.694633
426.110029	-2.998400	3.745100	-11.228000	23.633664	0.001053	20.695058
427.112818	-2.993900	3.744700	-11.210000	23.677378	0.001056	20.699055
428.114386	-2.986200	3.744600	-11.179000	23.680074	0.001056	20.706500
429.113583	-2.993200	3.743800	-11.203000	23.673355	0.001054	20.691701
430.112506	-2.969400	3.744800	-11.118000	23.676045	0.001056	20.698192
431.113418	-3.010200	3.743300	-11.267000	23.680750	0.001055	20.686312
432.113518	-2.977400	3.744600	-11.148000	23.649589	0.001056	20.695377
433.111768	-2.995000	3.743000	-11.209000	23.645713	0.001058	20.701449
434.112535	-2.991200	3.742700	-11.193000	23.641506	0.001057	20.694385
435.113353	-3.000400	3.741200	-11.225000	23.680748	0.001058	20.688207
436.114145	-2.994900	3.741300	-11.203000	23.659809	0.001057	20.704675
437.113396	-2.991800	3.741400	-11.193000	23.670846	0.001058	20.706731
438.113428	-2.983600	3.740700	-11.160000	23.657229	0.001058	20.687388
439.124124	-2.983500	3.742400	-11.164000	23.661111	0.001057	20.700290
440.115490	-3.016600	3.738600	-11.276000	23.685280	0.001056	20.697494
441.113290	-2.986500	3.740300	-11.169000	23.710659	0.001058	20.707765
442.112470	-2.989400	3.739500	-11.178000	23.730970	0.001058	20.700627
443.113320	-2.992700	3.739500	-11.190000	23.749684	0.001057	20.698053
444.120525	-2.982200	3.739600	-11.151000	23.759867	0.001062	20.703522
445.114718	-3.000200	3.738600	-11.216000	23.768410	0.001060	20.691223
446.112950	-2.999400	3.739600	-11.215000	23.794794	0.001059	20.698712
447.113665	-2.992800	3.737900	-11.186000	23.786263	0.001059	20.684941
448.113281	-2.984500	3.738700	-11.157000	23.822720	0.001057	20.703478
449.117254	-2.978200	3.738000	-11.131000	23.840290	0.001058	20.677471
450.111317	-2.999900	3.737200	-11.210000	23.824986	0.001060	20.703854
451.117897	-3.008600	3.737200	-11.243000	23.823346	0.001058	20.689406
452.113183	-3.013800	3.737500	-11.263000	23.843035	0.001060	20.694450
453.112449	-3.020000	3.735700	-11.281000	23.813041	0.001060	20.679072
454.115090	-2.999100	3.736700	-11.205000	23.848605	0.001060	20.708571
455.117396	-3.010400	3.734300	-11.239000	23.849127	0.001059	20.703404
456.115125	-3.011400	3.733900	-11.243000	23.876455	0.001059	20.691925
457.117929	-3.008700	3.733800	-11.232000	23.851393	0.001060	20.691451
458.122119	-3.001800	3.736000	-11.213000	23.877426	0.001060	20.705701
459.117796	-3.008700	3.735500	-11.238000	23.871082	0.001060	20.693175
460.127090	-2.992300	3.735400	-11.176000	23.888479	0.001059	20.703509
461.117296	-2.987300	3.735500	-11.157000	23.898256	0.001061	20.691026
462.118554	-3.002900	3.734400	-11.214000	23.904114	0.001058	20.704013
463.118689	-2.995200	3.735000	-11.186000	23.892035	0.001064	20.690952
464.124022	-2.997500	3.733600	-11.190000	23.890144	0.001062	20.699013
465.119737	-2.983300	3.733400	-11.137000	23.869466	0.001062	20.705307
466.118965	-3.023900	3.731500	-11.282000	23.873090	0.001061	20.699931
467.126499	-3.010600	3.732300	-11.235000	23.908708	0.001062	20.707672
468.118343	-3.022500	3.730500	-11.274000	23.880318	0.001061	20.697221
469.123994	-3.004000	3.731100	-11.206000	23.881829	0.001062	20.692572
470.125522	-3.016000	3.729700	-11.248000	23.876781	0.001061	20.681345
471.120835	-2.997500	3.730300	-11.180000	23.912589	0.001063	20.703977
472.123277	-3.031100	3.729300	-11.302000	23.894473	0.001063	20.695294
473.124281	-3.017500	3.729800	-11.253000	23.893098	0.001062	20.688224
474.123159	-3.005300	3.730800	-11.210000	23.886208	0.001060	20.697911
475.120333	-3.003500	3.729500	-11.201000	23.898458	0.001063	20.704506
476.126457	-2.978900	3.730500	-11.111000	23.906436	0.001062	20.701126
477.120012	-3.005000	3.729200	-11.206000	23.896482	0.001063	20.707740
478.123023	-3.011000	3.728700	-11.226000	23.871869	0.001062	20.703922
479.119690	-3.021600	3.728300	-11.265000	23.857087	0.001062	20.703799
480.128068	-2.994600	3.728000	-11.164000	23.874367	0.001061	20.696944
481.123387	-2.993900	3.727400	-11.158000	23.865481	0.001061	20.716010
482.128109	-3.003100	3.727700	-11.193000	23.883775	0.001063	20.718233
483.125605	-2.987100	3.726800	-11.131000	23.896420	0.001062	20.720481
484.126881	-2.988100	3.728000	-11.139000	23.919264	0.001064	20.688858
485.127212	-2.975700	3.726400	-11.088000	23.899595	0.001063	20.708017
486.125126	-2.998500	3.724900	-11.168000	23.912343	0.001063	20.689505
487.125925	-2.978600	3.726900	-11.099000	23.940960	0.001062	20.716306
488.123641	-2.998200	3.726300	-11.170000	23.965872	0.001061	20.719477
489.123973	-2.991400	3.725500	-11.143000	23.968040	0.001062	20.696519
490.127647	-2.998300	3.723900	-11.165000	23.972965	0.001062	20.710468
491.129049	-2.994500	3.725500	-11.156000	23.998994	0.001061	20.701483
492.128627	-2.980600	3.724200	-11.099000	24.021872	0.001064	20.727273
493.123598	-2.997000	3.723900	-11.159000	24.032539	0.001063	20.707149
494.128525	-2.992900	3.722600	-11.141000	24.047490	0.001061	20.703651
495.130320	-2.992900	3.724800	-11.147000	24.056823	0.001063	20.701631
496.126535	-2.999000	3.721900	-11.161000	24.051904	0.001062	20.719933
497.127164	-3.011300	3.721900	-11.207000	24.042295	0.001062	20.697018
498.127301	-2.989400	3.723200	-11.129000	24.054784	0.001062	20.737521
499.123612	-3.015200	3.720900	-11.217000	24.046698	0.001061	20.718030
500.131132	-3.000200	3.721700	-11.164000	24.066850	0.001062	20.720697
501.127589	-3.007800	3.721800	-11.194000	24.069097	0.001062	20.727692
502.124057	-2.991300	3.720600	-11.128000	24.084723	0.001065	20.722975
503.128284	-3.001200	3.720700	-11.165000	24.087633	0.001061	20.714039
504.129247	-3.003100	3.721100	-11.173000	24.099434	0.001063	20.713546
505.131795	-3.013100	3.719200	-11.204000	24.102197	0.001063	20.716792
506.128305	-2.971900	3.722800	-11.063000	24.102571	0.001064	20.707684
507.131001	-2.982200	3.719300	-11.090000	24.116803	0.001064	20.701568
508.129212	-2.989600	3.720500	-11.122000	24.120714	0.001064	20.722562
509.142664	-2.996200	3.718300	-11.139000	24.088639	0.001062	20.722636
510.138995	-2.997400	3.717500	-11.142000	24.071447	0.001062	20.726256
511.126350	-3.014000	3.717000	-11.200000	24.043283	0.001063	20.726459
512.133004	-2.983400	3.718800	-11.094000	24.059658	0.001062	20.729132
513.130243	-2.995400	3.717800	-11.136000	24.091162	0.001063	20.714260
514.130670	-2.993500	3.717500	-11.128000	24.107685	0.001063	20.735099
515.130517	-2.987500	3.718000	-11.107000	24.110865	0.001062	20.718374
516.131745	-2.999800	3.717100	-11.150000	24.127571	0.001063	20.719956
517.129539	-2.993400	3.716500	-11.123000	24.069420	0.001062	20.732759
518.133681	-2.989700	3.717500	-11.113000	24.083027	0.001061	20.713687
519.129782	-2.983900	3.716000	-11.087000	24.040378	0.001063	20.722124
520.132958	-2.986800	3.716300	-11.098000	23.991980	0.001061	20.730961
521.134290	-3.000500	3.714800	-11.144000	24.010020	0.001063	20.720128
522.134812	-2.988400	3.715300	-11.102000	23.995216	0.001065	20.718084
523.129940	-3.036100	3.712800	-11.271000	23.995535	0.001063	20.738320
524.131467	-2.990500	3.713900	-11.104000	23.995842	0.001063	20.724876
525.133672	-3.013200	3.712300	-11.183000	24.007263	0.001062	20.724476
526.129618	-2.966500	3.714700	-11.018000	24.012071	0.001061	20.732616
527.136642	-2.981100	3.713700	-11.069000	24.017572	0.001060	20.737186
528.129255	-3.004900	3.711000	-11.150000	24.050668	0.001063	20.736712
529.133313	-3.002600	3.711400	-11.143000	24.055125	0.001065	20.733121
530.136029	-2.977200	3.713200	-11.054000	24.078347	0.001061	20.720373
531.133547	-2.992700	3.711300	-11.105000	24.121767	0.001059	20.720773
532.132132	-3.002200	3.711000	-11.140000	24.113012	0.001061	20.718156
533.133313	-3.000400	3.710700	-11.133000	24.144539	0.001064	20.732708
534.132286	-2.991000	3.711400	-11.100000	24.132376	0.001063	20.725724
535.131359	-2.982800	3.711100	-11.069000	24.111526	0.001062	20.724726
536.134509	-2.992800	3.709900	-11.102000	24.097496	0.001063	20.717767
537.134336	-2.995100	3.710600	-11.112000	24.107793	0.001062	20.720034
538.139535	-3.005700	3.709500	-11.149000	24.150997	0.001061	20.739659
539.136716	-3.004300	3.709000	-11.142000	24.172522	0.001063	20.729480
540.137717	-3.002500	3.709300	-11.136000	24.189639	0.001062	20.720569
541.133832	-3.009600	3.709200	-11.162000	24.186827	0.001061	20.721542
542.129970	-2.985400	3.709600	-11.073000	24.145453	0.001062	20.748798
543.133398	-3.000800	3.708200	-11.126000	24.150082	0.001062	20.730680
544.132953	-2.988100	3.709400	-11.083000	24.106815	0.001061	20.728063
545.134640	-3.002100	3.707400	-11.129000	24.125045	0.001062	20.729277
546.133623	-2.973000	3.708100	-11.024000	24.125677	0.001061	20.752197
547.133559	-2.988000	3.707400	-11.077000	24.142321	0.001062	20.743760
548.133746	-2.985900	3.706800	-11.067000	24.179195	0.001061	20.757985
549.132845	-3.000400	3.705400	-11.116000	24.176383	0.001060	20.735724
550.134474	-2.993200	3.705100	-11.089000	24.206540	0.001062	20.724245
551.136060	-3.017000	3.704300	-11.174000	24.203231	0.001059	20.734203
552.132383	-2.991100	3.705900	-11.084000	24.211002	0.001060	20.750534
553.131469	-2.989100	3.704400	-11.071000	24.227124	0.001061	20.755799
554.134116	-2.989900	3.705500	-11.078000	24.251631	0.001060	20.733913
555.132637	-2.999800	3.703700	-11.109000	24.249421	0.001061	20.726954
556.136153	-3.008200	3.704000	-11.141000	24.248819	0.001062	20.748637
557.138991	-3.012400	3.703200	-11.155000	24.253957	0.001060	20.745729
558.138194	-3.013100	3.703500	-11.158000	24.259728	0.001061	20.741561
559.137583	-3.020100	3.703100	-11.182000	24.236491	0.001059	20.740064
560.141311	-3.006900	3.703000	-11.134000	24.229051	0.001062	20.740661
561.138834	-3.012400	3.700900	-11.148000	24.232415	0.001058	20.747355
562.136302	-3.005700	3.701500	-11.124000	24.214329	0.001061	20.738222
563.138628	-3.009600	3.702500	-11.143000	24.228596	0.001060	20.733092
564.135540	-3.018700	3.700700	-11.170000	24.237774	0.001059	20.742299
565.138428	-3.004900	3.702000	-11.123000	24.225385	0.001060	20.745045
566.138866	-3.002200	3.700400	-11.109000	24.259297	0.001059	20.726903
567.138395	-2.993000	3.701600	-11.077000	24.287437	0.001060	20.736639
568.144254	-2.996800	3.700400	-11.088000	24.261648	0.001060	20.746806
569.138954	-2.993400	3.700200	-11.075000	24.285080	0.001058	20.756560
570.136437	-3.003400	3.699200	-11.109000	24.293668	0.001058	20.747157
571.137855	-2.992200	3.699300	-11.068000	24.296375	0.001060	20.769313
572.141989	-3.007200	3.699000	-11.122000	24.287768	0.001058	20.757835
573.142930	-3.009900	3.697800	-11.129000	24.287842	0.001059	20.754590
574.136598	-3.002500	3.697400	-11.100000	24.286706	0.001059	20.756295
575.139752	-3.004200	3.699100	-11.112000	24.286332	0.001059	20.742642
576.141361	-3.000600	3.697800	-11.094000	24.331561	0.001060	20.759565
577.143828	-2.990900	3.698000	-11.059000	24.321961	0.001059	20.748511
578.140810	-2.994500	3.698100	-11.073000	24.322537	0.001058	20.759047
579.140315	-3.004100	3.696900	-11.105000	24.320223	0.001059	20.754355
580.138703	-2.981900	3.698300	-11.027000	24.315545	0.001057	20.747766
581.142578	-2.998400	3.697000	-11.084000	24.306792	0.001058	20.742303
582.142908	-3.010000	3.695500	-11.122000	24.322273	0.001058	20.757834
583.138953	-2.994100	3.695900	-11.064000	24.337043	0.001059	20.770753
584.141744	-3.007100	3.693500	-11.105000	24.362621	0.001057	20.737142
585.142796	-2.967300	3.695700	-10.964000	24.314686	0.001057	20.749748
586.143885	-3.008600	3.694100	-11.113000	24.309805	0.001057	20.751965
587.147468	-3.009500	3.692500	-11.111000	24.328338	0.001057	20.765815
588.150206	-2.993500	3.693900	-11.057000	24.333341	0.001058	20.757082
589.144620	-2.976500	3.693800	-10.993000	24.362449	0.001056	20.745505
590.145699	-2.967700	3.694300	-10.963000	24.385541	0.001057	20.755395
591.144777	-3.002200	3.693200	-11.086000	24.382374	0.001058	20.777822
592.143455	-2.985800	3.693700	-11.028000	24.379833	0.001056	20.742556
593.143295	-2.974500	3.692600	-10.983000	24.408241	0.001057	20.762994
594.147524	-2.996700	3.693400	-11.066000	24.432099	0.001055	20.756109
595.147671	-2.993800	3.691400	-11.050000	24.451274	0.001056	20.763967
596.147706	-3.002500	3.690500	-11.080000	24.454662	0.001055	20.772582
597.147995	-3.023300	3.690900	-11.158000	24.472824	0.001056	20.770888
598.146377	-3.027800	3.689100	-11.168000	24.502365	0.001056	20.774448
599.149081	-2.973900	3.691200	-10.977000	24.503960	0.001056	20.772730
600.150726	-2.995800	3.690600	-11.054000	24.497123	0.001057	20.772982
601.145608	-2.993300	3.688400	-11.039000	24.479833	0.001055	20.783137
602.149243	-2.986400	3.690400	-11.018000	24.479060	0.001055	20.784732
603.153229	-2.988800	3.689500	-11.026000	24.451772	0.001056	20.765889
604.157652	-2.997700	3.687800	-11.054000	24.428312	0.001054	20.785502
605.154028	-3.002700	3.687900	-11.071000	24.449605	0.001054	20.774146
606.150996	-3.017700	3.686700	-11.124000	24.430001	0.001056	20.772022
607.155880	-2.982000	3.688900	-10.999000	24.433628	0.001054	20.750531
608.154440	-2.990000	3.686400	-11.021000	24.444903	0.001054	20.791241
609.156384	-3.024500	3.686500	-11.149000	24.475052	0.001057	20.784504
610.158476	-3.012300	3.687600	-11.107000	24.482805	0.001055	20.790385
611.149272	-3.001800	3.686600	-11.065000	24.493852	0.001054	20.784874
612.159013	-2.996000	3.685200	-11.039000	24.492085	0.001052	20.792109
613.155007	-3.014400	3.683900	-11.104000	24.523503	0.001053	20.812251
614.152581	-3.010200	3.685600	-11.094000	24.526191	0.001054	20.783654
615.153105	-3.015200	3.685200	-11.111000	24.539245	0.001053	20.783002
616.155747	-2.997800	3.684500	-11.045000	24.560659	0.001053	20.774141
617.154396	-3.005100	3.683200	-11.068000	24.527554	0.001052	20.782177
618.151931	-3.006600	3.683600	-11.073000	24.562966	0.001052	20.785465
619.156346	-2.979100	3.684500	-10.976000	24.571129	0.001051	20.787017
620.154157	-3.020200	3.683200	-11.123000	24.578070	0.001053	20.817215
621.157906	-3.010300	3.682100	-11.084000	24.551404	0.001051	20.788088
622.154197	-3.000600	3.683200	-11.050000	24.567968	0.001052	20.787639
623.157231	-3.016900	3.681800	-11.106000	24.584655	0.001050	20.789209
624.160892	-3.001600	3.682200	-11.051000	24.587840	0.001049	20.802362
625.155557	-2.983400	3.682000	-10.984000	24.586772	0.001051	20.795601
626.155196	-3.004300	3.682100	-11.061000	24.593014	0.001051	20.803760
627.158244	-3.000300	3.682500	-11.047000	24.590780	0.001049	20.788716
628.156997	-2.982300	3.682700	-10.983000	24.563071	0.001050	20.804536
629.157660	-3.011400	3.682900	-11.089000	24.560615	0.001050	20.803495
630.165090	-3.017500	3.679000	-11.100000	24.550415	0.001051	20.790890
631.157111	-2.999700	3.681100	-11.041000	24.550366	0.001050	20.795582
632.154516	-2.987200	3.680200	-10.992000	24.556466	0.001049	20.796013
633.156648	-2.978200	3.680200	-10.958000	24.540178	0.001049	20.799110
634.153788	-2.989700	3.678800	-10.997000	24.546996	0.001050	20.786511
635.157077	-3.003000	3.677400	-11.041000	24.528117	0.001049	20.781794
636.154227	-3.021800	3.676400	-11.108000	24.549144	0.001050	20.789614
637.159843	-3.003400	3.678300	-11.046000	24.592847	0.001050	20.808808
638.156419	-2.995200	3.678000	-11.015000	24.555735	0.001048	20.819935
639.158439	-3.023200	3.676900	-11.115000	24.527086	0.001047	20.797354
640.162156	-3.013600	3.675800	-11.076000	24.557331	0.001046	20.815846
641.155504	-2.994100	3.678000	-11.011000	24.582235	0.001049	20.801480
642.157745	-2.982700	3.677200	-10.966000	24.599198	0.001048	20.814707
643.158680	-3.016900	3.676800	-11.091000	24.618425	0.001048	20.814085
644.159929	-3.019300	3.675800	-11.096000	24.642426	0.001047	20.809719
645.159078	-2.999600	3.677300	-11.029000	24.641960	0.001047	20.815414
646.158137	-2.992500	3.675700	-10.999000	24.663604	0.001049	20.805365
647.159134	-2.968300	3.676900	-10.913000	24.664825	0.001046	20.812280
648.164126	-2.996600	3.675000	-11.012000	24.638609	0.001046	20.819164
649.159641	-3.007200	3.674500	-11.050000	24.630477	0.001047	20.808634
650.157138	-2.994600	3.674500	-11.002000	24.595938	0.001046	20.804798
651.156769	-3.008600	3.673600	-11.051000	24.585922	0.001046	20.809447
652.161106	-2.992500	3.674200	-10.994000	24.604800	0.001046	20.816060
653.159360	-3.030700	3.672100	-11.128000	24.596846	0.001046	20.797174
654.161415	-3.000800	3.673500	-11.021000	24.591850	0.001045	20.824403
655.162597	-3.007000	3.672700	-11.043000	24.585437	0.001046	20.775769
656.164050	-3.008900	3.671700	-11.047000	24.560415	0.001045	20.816571
657.164010	-2.990500	3.672000	-10.980000	24.549626	0.001045	20.794365
658.161629	-3.015400	3.671900	-11.071000	24.554106	0.001044	20.830154
659.161354	-3.013700	3.671600	-11.064000	24.552541	0.001043	20.812937
660.163937	-2.998600	3.673200	-11.013000	24.568712	0.001046	20.795024
661.166050	-3.003200	3.671500	-11.025000	24.602614	0.001044	20.802487
662.165170	-3.000100	3.669500	-11.007000	24.586050	0.001043	20.818109
663.164888	-3.012300	3.670800	-11.057000	24.592892	0.001044	20.828294
664.170998	-2.987800	3.669800	-10.963000	24.543837	0.001045	20.816058
665.166036	-3.004100	3.669000	-11.021000	24.560893	0.001042	20.813256
666.162436	-2.999500	3.669700	-11.006000	24.524830	0.001043	20.827333
667.166260	-3.024500	3.669000	-11.095000	24.531550	0.001044	20.807049
668.164489	-3.014500	3.668900	-11.059000	24.542573	0.001043	20.823324
669.166004	-2.980400	3.668700	-10.933000	24.555258	0.001043	20.813767
670.173304	-2.974300	3.667700	-10.908000	24.562402	0.001043	20.806236
671.168054	-3.008800	3.667700	-11.034000	24.564096	0.001043	20.812677
672.168424	-3.000900	3.667400	-11.004000	24.553650	0.001042	20.816895
673.173907	-3.003400	3.666800	-11.012000	24.541271	0.001042	20.815854
674.171478	-2.996600	3.667800	-10.990000	24.549550	0.001044	20.797609
675.166765	-3.013600	3.667800	-11.051000	24.523092	0.001042	20.815158
676.168576	-3.014600	3.665300	-11.048000	24.510111	0.001041	20.810669
677.170451	-2.978800	3.666700	-10.921000	24.544683	0.001040	20.819752
678.170336	-2.993700	3.666100	-10.974000	24.561720	0.001043	20.817406
679.174558	-2.984100	3.666200	-10.939000	24.612634	0.001042	20.801636
680.171422	-3.008600	3.664100	-11.023000	24.634101	0.001038	20.807054
681.173035	-3.038100	3.664000	-11.130000	24.643478	0.001041	20.806506
682.171599	-2.983600	3.665500	-10.936000	24.634708	0.001041	20.800077
683.173031	-2.984300	3.665500	-10.937000	24.686514	0.001040	20.800853
684.173236	-3.016700	3.664100	-11.053000	24.678555	0.001038	20.810884
685.172200	-3.000800	3.663100	-10.991000	24.736452	0.001040	20.801179
686.172740	-2.987800	3.663600	-10.945000	24.736335	0.001038	20.802010
687.171944	-3.002100	3.662700	-10.995000	24.765807	0.001036	20.799818
688.176326	-2.989500	3.662500	-10.948000	24.729928	0.001037	20.798900
689.172657	-3.029500	3.662200	-11.094000	24.740004	0.001038	20.780562
690.175829	-2.968800	3.663200	-10.874000	24.740200	0.001038	20.802570
691.176825	-3.020400	3.661000	-11.055000	24.741348	0.001037	20.787126
692.172133	-3.009800	3.661100	-11.017000	24.743047	0.001038	20.798315
693.175155	-3.004300	3.660600	-10.995000	24.727946	0.001036	20.776997
694.174285	-2.990400	3.662000	-10.950000	24.728928	0.001037	20.786991
695.173668	-3.006100	3.659400	-10.999000	24.727835	0.001036	20.802016
696.176069	-2.989400	3.661900	-10.945000	24.706898	0.001035	20.787169
697.180740	-2.993200	3.660400	-10.955000	24.689194	0.001035	20.791215
698.185353	-2.974000	3.659900	-10.883000	24.712304	0.001037	20.802077
699.177534	-2.983100	3.661000	-10.920000	24.727184	0.001036	20.786190
700.188362	-2.989700	3.660300	-10.941000	24.702584	0.001033	20.784262
701.181753	-2.986000	3.660000	-10.927000	24.701866	0.001036	20.779748
702.177770	-2.966100	3.659400	-10.852000	24.703087	0.001032	20.784767
703.184480	-3.003900	3.659700	-10.993000	24.702798	0.001035	20.768356
704.181070	-2.979200	3.658500	-10.898000	24.710984	0.001035	20.795063
705.178771	-2.995700	3.657900	-10.956000	24.715132	0.001035	20.779311
706.184206	-3.018700	3.657400	-11.039000	24.750029	0.001033	20.782562
707.181734	-3.016900	3.657200	-11.033000	24.761774	0.001033	20.783917
708.175456	-3.003300	3.657700	-10.984000	24.758890	0.001032	20.777229
709.184404	-3.005500	3.656400	-10.988000	24.740039	0.001031	20.787710
710.182247	-3.028100	3.656700	-11.072000	24.729804	0.001032	20.767955
711.182065	-2.988200	3.655900	-10.923000	24.748016	0.001032	20.776274
712.184097	-3.001600	3.656800	-10.974000	24.745531	0.001032	20.757185
713.186261	-2.989300	3.655800	-10.927000	24.786870	0.001032	20.780178
714.187812	-2.979200	3.655800	-10.890000	24.787741	0.001032	20.773940
715.188486	-2.988700	3.655700	-10.925000	24.782624	0.001030	20.782081
716.187900	-3.019500	3.652900	-11.029000	24.813211	0.001031	20.777690
717.185196	-3.021700	3.653900	-11.040000	24.797577	0.001031	20.768164
718.182992	-2.995500	3.653800	-10.944000	24.828489	0.001030	20.756987
719.187212	-3.013400	3.652800	-11.006000	24.844626	0.001032	20.773657
720.182994	-2.979600	3.653700	-10.885000	24.852246	0.001030	20.764709
721.185052	-3.001000	3.652700	-10.961000	24.860087	0.001029	20.755509
722.182786	-2.988600	3.653100	-10.916000	24.862996	0.001028	20.757480
723.184322	-2.976100	3.652900	-10.870000	24.883593	0.001029	20.756814
724.184220	-2.982900	3.653300	-10.896000	24.927883	0.001029	20.757171
725.185659	-3.003100	3.652400	-10.968000	24.920429	0.001029	20.771975
726.186393	-2.996500	3.651400	-10.940000	24.946313	0.001028	20.758600
727.184932	-2.995900	3.651900	-10.940000	24.937393	0.001026	20.772406
728.189079	-2.995100	3.651600	-10.936000	24.953534	0.001028	20.752097
729.183689	-3.000300	3.650600	-10.951000	24.937724	0.001028	20.751875
730.188793	-3.023600	3.649300	-11.033000	24.914263	0.001027	20.765312
731.187007	-2.974500	3.651500	-10.860000	24.932067	0.001028	20.759474
732.193067	-2.991900	3.649400	-10.918000	24.922055	0.001027	20.732828
733.189238	-3.016500	3.648100	-11.004000	24.913852	0.001028	20.768219
734.190201	-2.998100	3.650100	-10.942000	24.885783	0.001026	20.747632
735.188410	-2.983800	3.650300	-10.891000	24.890691	0.001024	20.742601
736.187411	-3.008200	3.648500	-10.974000	24.914287	0.001026	20.752060
737.185332	-3.015100	3.647800	-10.998000	24.912919	0.001025	20.743100
738.187547	-2.997300	3.648500	-10.934000	24.891396	0.001026	20.757060
739.212346	-2.990700	3.647600	-10.908000	24.884813	0.001025	20.746185
740.200983	-3.024300	3.646200	-11.027000	24.873100	0.001025	20.748655
741.189943	-3.011200	3.647300	-10.981000	24.858510	0.001025	20.737804
742.190742	-2.995400	3.647100	-10.923000	24.879076	0.001025	20.763188
743.191921	-3.011800	3.645700	-10.979000	24.891016	0.001022	20.733918
744.190132	-2.986500	3.647400	-10.891000	24.910336	0.001024	20.760897
745.191584	-3.011400	3.644900	-10.975000	24.926625	0.001023	20.754012
746.191332	-3.003700	3.645900	-10.950000	24.921484	0.001024	20.763077
747.187976	-3.006000	3.644700	-10.955000	24.860523	0.001021	20.741246
748.195322	-3.024400	3.644100	-11.020000	24.838324	0.001021	20.736511
749.194033	-3.030900	3.643400	-11.041000	24.772259	0.001021	20.734220
750.194674	-3.015500	3.644300	-10.989000	24.807762	0.001023	20.741400
751.195091	-2.982000	3.643200	-10.863000	24.817972	0.001021	20.736948
752.201727	-3.004800	3.643700	-10.947000	24.817831	0.001019	20.731116
753.193417	-2.995600	3.642700	-10.911000	24.833600	0.001021	20.732243
754.194962	-2.997900	3.642600	-10.919000	24.826089	0.001020	20.736086
755.198896	-3.024800	3.641900	-11.015000	24.817941	0.001020	20.745453
756.193180	-3.013400	3.642300	-10.975000	24.796809	0.001019	20.734202
757.200922	-3.016800	3.641600	-10.985000	24.789047	0.001019	20.734947
758.195341	-3.008500	3.641800	-10.954000	24.791373	0.001019	20.744868
759.194664	-3.001100	3.641800	-10.929000	24.801865	0.001019	20.737379
760.201517	-3.038500	3.639700	-11.058000	24.838324	0.001019	20.724657
761.200562	-3.013400	3.640600	-10.969000	24.827507	0.001021	20.736086
762.198972	-3.002700	3.641700	-10.934000	24.815806	0.001017	20.712014
763.201478	-3.010700	3.639700	-10.957000	24.821598	0.001018	20.736794
764.201135	-2.997300	3.640200	-10.909000	24.789121	0.001019	20.714157
765.200493	-2.999200	3.640900	-10.919000	24.771529	0.001019	20.725427
766.203055	-2.993800	3.638900	-10.892000	24.748899	0.001018	20.720734
767.203124	-3.001900	3.638500	-10.922000	24.776702	0.001016	20.736782
768.194604	-3.012100	3.637900	-10.956000	24.767627	0.001018	20.713923
769.205072	-3.007600	3.638000	-10.940000	24.757981	0.001016	20.754031
770.198835	-3.025400	3.636700	-11.002000	24.733761	0.001016	20.725932
771.201869	-3.004900	3.638100	-10.930000	24.754551	0.001017	20.719293
772.201622	-3.006900	3.637700	-10.937000	24.744684	0.001016	20.708442
773.202484	-2.989500	3.637800	-10.874000	24.754140	0.001017	20.730261
774.201507	-3.007400	3.636600	-10.935000	24.775677	0.001015	20.721054
775.213572	-2.993800	3.636400	-10.885000	24.815193	0.001013	20.721830
776.198860	-3.003000	3.637200	-10.921000	24.786465	0.001015	20.726190
777.200465	-3.005900	3.636100	-10.929000	24.826833	0.001014	20.726400
778.207706	-3.012300	3.635900	-10.952000	24.847148	0.001013	20.722606
779.202742	-2.994200	3.634800	-10.882000	24.888232	0.001013	20.709785
780.202492	-3.000400	3.634900	-10.904000	24.907460	0.001013	20.724343
781.201840	-2.998800	3.635900	-10.903000	24.941921	0.001012	20.715783
782.207237	-3.006100	3.634900	-10.925000	24.956885	0.001012	20.722268
783.205437	-3.006400	3.633800	-10.924000	24.975468	0.001012	20.730963
784.209253	-2.986200	3.635500	-10.854000	24.993191	0.001009	20.728839
785.205894	-3.020900	3.633100	-10.975000	24.984725	0.001014	20.709909
786.207254	-3.020800	3.632400	-10.972000	24.999443	0.001009	20.713302
787.209867	-3.000300	3.633600	-10.901000	24.973940	0.001012	20.717102
788.208363	-3.003300	3.632000	-10.906000	24.983965	0.001010	20.700610
789.204518	-3.012000	3.632000	-10.938000	24.965885	0.001009	20.707119
790.203690	-3.004800	3.632600	-10.914000	24.971235	0.001010	20.719128
791.209060	-2.993200	3.632900	-10.872000	25.007517	0.001009	20.709552
792.204740	-3.001400	3.630400	-10.896000	25.011694	0.001008	20.707581
793.207982	-3.000300	3.632100	-10.896000	25.007050	0.001007	20.719042
794.212665	-2.978500	3.630600	-10.813000	25.033430	0.001007	20.717545
795.203337	-3.007300	3.630900	-10.917000	25.040570	0.001010	20.691995
796.206805	-3.019100	3.629200	-10.956000	25.062299	0.001006	20.707643
797.208058	-3.004100	3.629300	-10.901000	25.071629	0.001008	20.717010
798.207097	-2.975100	3.631200	-10.801000	25.074991	0.001006	20.717065
799.216528	-2.987300	3.629800	-10.841000	25.081880	0.001006	20.718291
800.204254	-3.020200	3.628200	-10.957000	25.109552	0.001007	20.714775
801.201764	-3.023300	3.628600	-10.969000	25.132726	0.001005	20.704848
802.208645	-2.991600	3.629100	-10.856000	25.101584	0.001005	20.700137
803.213766	-2.985500	3.628100	-10.830000	25.073176	0.001003	20.682524
804.204863	-2.999300	3.627800	-10.879000	25.067385	0.001006	20.687617
805.207421	-2.996100	3.627000	-10.864000	25.037154	0.001006	20.706111
806.213595	-2.989300	3.628900	-10.847000	25.048822	0.001006	20.694114
807.204345	-3.039500	3.626400	-11.020000	25.037688	0.001004	20.713759
808.210494	-3.012600	3.627500	-10.927000	25.071624	0.001006	20.690450
809.209570	-3.006200	3.627400	-10.904000	25.077740	0.001001	20.698487
810.203570	-3.007300	3.626900	-10.905000	25.098683	0.001003	20.684421
811.223301	-3.017300	3.626200	-10.941000	25.079968	0.001003	20.704990
812.210344	-2.986300	3.627800	-10.833000	25.047498	0.001001	20.705114
813.207403	-3.015900	3.625300	-10.933000	25.037634	0.001000	20.688098
814.210285	-2.988700	3.626300	-10.836000	25.023334	0.001002	20.714049
815.211278	-3.006100	3.624400	-10.894000	25.052756	0.001002	20.696166
816.209473	-3.033800	3.626000	-10.999000	25.054522	0.001001	20.697940
817.208737	-3.009100	3.624200	-10.905000	25.074588	0.000999	20.696745
818.209828	-2.990600	3.624100	-10.838000	25.067503	0.001000	20.693900
819.208246	-2.995000	3.625400	-10.857000	25.127888	0.000998	20.676755
820.213207	-3.008600	3.622200	-10.895000	25.121006	0.001001	20.697823
821.207231	-3.002500	3.623000	-10.877000	25.170109	0.001000	20.682156
822.210977	-2.994200	3.623200	-10.847000	25.157497	0.000999	20.685617
823.212288	-2.998200	3.623400	-10.862000	25.187167	0.000999	20.692170
824.208764	-2.989600	3.622700	-10.830000	25.172771	0.000999	20.685303
825.207253	-2.996500	3.622700	-10.854000	25.169397	0.000997	20.691874
826.213676	-3.014600	3.621400	-10.916000	25.170041	0.000997	20.688727
827.217951	-2.995200	3.622400	-10.849000	25.185130	0.000996	20.680641
828.219982	-3.002800	3.621300	-10.873000	25.178273	0.000996	20.680869
829.212912	-2.999400	3.621100	-10.860000	25.160172	0.000997	20.676922
830.214224	-3.005000	3.620000	-10.876000	25.155014	0.000995	20.673165
831.213063	-2.990400	3.621400	-10.828000	25.128662	0.000996	20.689387
832.210898	-2.996500	3.619700	-10.845000	25.124019	0.000994	20.661015
833.213154	-2.992600	3.620500	-10.834000	25.158719	0.000993	20.695853
834.210310	-2.989000	3.618600	-10.815000	25.179175	0.000994	20.690785
835.213912	-3.020600	3.617600	-10.927000	25.199938	0.000992	20.695983
836.215485	-2.984300	3.619800	-10.802000	25.213463	0.000992	20.681110
837.216431	-3.013200	3.618300	-10.901000	25.223258	0.000993	20.702800
838.215318	-2.989600	3.619100	-10.818000	25.232752	0.000993	20.690994
839.215207	-2.991000	3.618100	-10.820000	25.260825	0.000994	20.685040
840.220972	-2.972800	3.617900	-10.754000	25.243124	0.000992	20.678173
841.215811	-3.003400	3.616200	-10.860000	25.214046	0.000992	20.701612
842.213691	-2.993700	3.617700	-10.829000	25.185855	0.000995	20.692276
843.212379	-3.001900	3.616900	-10.857000	25.194387	0.000989	20.695626
844.217465	-2.991200	3.616400	-10.816000	25.185757	0.000990	20.696445
845.217017	-3.015000	3.616400	-10.903000	25.145096	0.000991	20.684073
846.217170	-3.003300	3.615400	-10.856000	25.094158	0.000992	20.668972
847.217911	-2.994500	3.615100	-10.824000	25.100974	0.000990	20.672495
848.218147	-2.984800	3.616000	-10.791000	25.099857	0.000991	20.669952
849.219212	-2.979600	3.616000	-10.774000	25.143815	0.000990	20.654808
850.217468	-3.010300	3.614300	-10.879000	25.152341	0.000989	20.678069
851.217525	-3.007000	3.614700	-10.867000	25.189929	0.000989	20.670285
852.216561	-3.018200	3.614500	-10.907000	25.181011	0.000987	20.656114
853.219189	-2.981500	3.615900	-10.780000	25.189279	0.000989	20.681487
854.220379	-3.002300	3.614000	-10.849000	25.200393	0.000988	20.673204
855.219340	-3.004700	3.613200	-10.856000	25.189138	0.000988	20.669965
856.218912	-2.999400	3.612700	-10.835000	25.178698	0.000987	20.673709
857.220257	-3.025000	3.611100	-10.922000	25.151850	0.000985	20.668567
858.220000	-2.997100	3.612500	-10.826000	25.157028	0.000988	20.672342
859.215813	-3.000200	3.611100	-10.833000	25.192499	0.000985	20.683298
860.217672	-3.002100	3.612000	-10.843000	25.163419	0.000985	20.667853
861.220253	-2.990100	3.612700	-10.802000	25.177092	0.000985	20.672096
862.214951	-2.978600	3.613200	-10.762000	25.145968	0.000984	20.653177
863.230945	-3.000800	3.610100	-10.831000	25.133786	0.000984	20.685521
864.218825	-2.995800	3.610100	-10.814000	25.133443	0.000984	20.662889
865.222520	-2.980300	3.611100	-10.761000	25.134633	0.000983	20.667877
866.215561	-2.968600	3.611700	-10.720000	25.173890	0.000983	20.657500
867.214638	-2.962100	3.610700	-10.693000	25.212342	0.000981	20.661017
868.221228	-2.995600	3.609400	-10.811000	25.246076	0.000983	20.683982
869.216844	-2.981800	3.610400	-10.763000	25.260944	0.000982	20.679942
870.220731	-2.985900	3.607400	-10.769000	25.306329	0.000983	20.676198
871.227568	-2.988600	3.608100	-10.782000	25.298074	0.000980	20.662692
872.228177	-2.973800	3.609400	-10.732000	25.283815	0.000981	20.656909
873.219101	-2.991500	3.607700	-10.791000	25.280558	0.000981	20.662649
874.222528	-2.986600	3.607700	-10.774000	25.256025	0.000981	20.683539
875.216802	-2.987600	3.606200	-10.772000	25.257098	0.000980	20.678452
876.220083	-3.003200	3.607300	-10.832000	25.219666	0.000979	20.656990
877.218674	-3.011500	3.605800	-10.858000	25.194267	0.000978	20.674640
878.216978	-3.034300	3.604400	-10.935000	25.189041	0.000978	20.678403
879.220061	-3.008200	3.605000	-10.844000	25.183355	0.000978	20.656097
880.222370	-3.013100	3.605500	-10.862000	25.177589	0.000977	20.666905
881.217319	-2.990200	3.605400	-10.780000	25.193770	0.000976	20.658967
882.219471	-3.017400	3.603400	-10.872000	25.188501	0.000977	20.675016
883.219082	-3.009600	3.604800	-10.847000	25.171873	0.000976	20.662114
884.217691	-3.011700	3.604100	-10.853000	25.193654	0.000976	20.660747
885.219461	-3.001400	3.604800	-10.818000	25.193832	0.000974	20.642431
886.217349	-3.017300	3.602200	-10.867000	25.200340	0.000974	20.638533
887.226842	-2.964200	3.605400	-10.686000	25.216030	0.000975	20.655709
888.219006	-2.970500	3.603100	-10.702000	25.241085	0.000972	20.680393
889.223010	-2.990800	3.603000	-10.775000	25.275137	0.000975	20.669061
890.220659	-2.976500	3.604000	-10.726000	25.240122	0.000973	20.675633
891.221913	-2.988800	3.603200	-10.768000	25.231670	0.000973	20.655291
892.220461	-2.989600	3.601600	-10.767000	25.229008	0.000971	20.684390
893.228411	-2.986600	3.603000	-10.759000	25.196868	0.000971	20.673459
894.223350	-3.004900	3.601400	-10.820000	25.217698	0.000972	20.649797
895.220661	-3.022300	3.600400	-10.881000	25.222673	0.000970	20.668070
896.227004	-2.993600	3.601900	-10.782000	25.215312	0.000969	20.669215
897.225169	-2.990700	3.602400	-10.772000	25.229309	0.000972	20.673785
898.224241	-2.995200	3.601400	-10.785000	25.207786	0.000971	20.665453
899.227167	-2.995500	3.600800	-10.786000	25.198617	0.000969	20.666204
900.222569	-3.013700	3.597900	-10.842000	25.202941	0.000968	20.676236
901.226021	-3.022200	3.597300	-10.870000	25.208063	0.000970	20.657194
902.230392	-3.022400	3.597900	-10.872000	25.217232	0.000968	20.667350
903.232114	-3.005800	3.598200	-10.814000	25.247464	0.000968	20.686324
904.225353	-3.013500	3.596300	-10.836000	25.249697	0.000968	20.655371
905.232927	-3.014900	3.596400	-10.841000	25.231008	0.000966	20.664585
906.228142	-3.000200	3.597700	-10.792000	25.253708	0.000969	20.679316
907.229333	-2.994500	3.598100	-10.773000	25.277647	0.000965	20.685333
908.233431	-2.996500	3.597200	-10.778000	25.277377	0.000967	20.680794
909.227615	-3.011200	3.596600	-10.829000	25.278665	0.000967	20.703426
910.229081	-2.997400	3.597300	-10.781000	25.287994	0.000963	20.659683
911.230524	-3.012700	3.594500	-10.828000	25.298114	0.000965	20.667474
912.228061	-3.002300	3.596400	-10.796000	25.287000	0.000964	20.667695
913.230691	-3.006900	3.593900	-10.804000	25.306197	0.000963	20.660416
914.239996	-3.015100	3.594600	-10.837000	25.322701	0.000963	20.670350
915.227849	-2.990700	3.594900	-10.751000	25.335531	0.000964	20.678018
916.231802	-3.003600	3.594900	-10.797000	25.339757	0.000964	20.667561
917.233339	-3.020900	3.592800	-10.852000	25.385740	0.000960	20.669162
918.241353	-3.003700	3.594300	-10.795000	25.389451	0.000961	20.680950
919.231556	-3.008800	3.592400	-10.806000	25.412663	0.000963	20.677230
920.245948	-3.002600	3.593400	-10.788000	25.391364	0.000959	20.658213
921.234113	-2.997900	3.593400	-10.772000	25.350515	0.000962	20.685477
922.233516	-3.006200	3.592600	-10.799000	25.296582	0.000959	20.684430
923.240155	-2.966400	3.593400	-10.659000	25.326162	0.000959	20.681887
924.230399	-3.020600	3.591000	-10.844000	25.338740	0.000958	20.670808
925.232736	-3.022500	3.590100	-10.850000	25.327260	0.000959	20.677299
926.234302	-3.018000	3.590200	-10.834000	25.333601	0.000958	20.686038
927.237535	-3.002100	3.591000	-10.779000	25.334804	0.000958	20.688668
928.236158	-3.034400	3.590800	-10.894000	25.331498	0.000959	20.668277
929.235219	-3.017600	3.590200	-10.832000	25.369080	0.000956	20.678987
930.232740	-3.001700	3.591100	-10.779000	25.392390	0.000958	20.681530
931.234428	-3.010700	3.589000	-10.804000	25.401172	0.000955	20.684659
932.236284	-2.999000	3.588900	-10.761000	25.453481	0.000956	20.672699
933.230858	-2.990500	3.589400	-10.732000	25.464372	0.000957	20.688853
934.236711	-2.987500	3.588000	-10.719000	25.473148	0.000955	20.684389
935.237118	-2.956100	3.591400	-10.615000	25.484357	0.000955	20.674781
936.236126	-3.005500	3.587500	-10.781000	25.464612	0.000953	20.674394
937.237275	-2.994000	3.588800	-10.744000	25.487907	0.000954	20.677873
938.239085	-3.010400	3.586600	-10.796000	25.496867	0.000953	20.683552
939.232169	-2.971400	3.587900	-10.660000	25.503974	0.000953	20.663660
940.235482	-3.011300	3.585200	-10.795000	25.443395	0.000952	20.675374
941.235458	-2.995700	3.586600	-10.744000	25.435858	0.000952	20.681556
942.235444	-2.994800	3.585200	-10.736000	25.387179	0.000953	20.681988
943.234977	-2.978400	3.585900	-10.679000	25.410906	0.000952	20.697279
944.234797	-2.987700	3.584800	-10.709000	25.434368	0.000951	20.692863
945.238828	-2.965400	3.586100	-10.633000	25.404074	0.000953	20.684728
946.234007	-2.981500	3.586200	-10.690000	25.392766	0.000949	20.689495
947.237536	-2.993200	3.583800	-10.726000	25.340626	0.000950	20.680288
948.236672	-2.994000	3.583300	-10.726000	25.360036	0.000949	20.701676
949.243478	-3.003900	3.583900	-10.765000	25.329813	0.000948	20.697408
950.237616	-3.005700	3.582900	-10.767000	25.334284	0.000947	20.686249
951.240664	-3.002400	3.583700	-10.758000	25.352333	0.000948	20.682086
952.238389	-3.006300	3.584000	-10.774000	25.336774	0.000948	20.706769
953.245653	-2.986300	3.582800	-10.699000	25.350193	0.000945	20.700802
954.243673	-2.994600	3.582200	-10.726000	25.344410	0.000946	20.690253
955.238426	-3.012600	3.580900	-10.787000	25.360319	0.000946	20.704331
956.240374	-3.007200	3.580700	-10.767000	25.363397	0.000944	20.697938
957.240386	-3.014300	3.581600	-10.795000	25.369511	0.000943	20.703604
958.239758	-2.982800	3.581300	-10.681000	25.349230	0.000942	20.684661
959.245502	-3.011200	3.580400	-10.780000	25.347121	0.000945	20.720478
960.238770	-2.995700	3.581000	-10.727000	25.346698	0.000942	20.707250
961.237933	-2.992000	3.580400	-10.712000	25.367328	0.000943	20.691454
962.242724	-2.991700	3.580600	-10.711000	25.399396	0.000942	20.714646
963.241329	-2.995300	3.581000	-10.725000	25.403149	0.000942	20.692809
964.239169	-3.013600	3.577900	-10.782000	25.389756	0.000940	20.678885
965.247818	-2.998500	3.579100	-10.731000	25.351310	0.000941	20.679636
966.240079	-3.004700	3.578700	-10.752000	25.320119	0.000942	20.690993
967.241242	-3.009900	3.577800	-10.768000	25.297230	0.000938	20.701678
968.246285	-3.006500	3.578000	-10.756000	25.276311	0.000939	20.700588
969.247838	-2.979100	3.576700	-10.655000	25.310208	0.000939	20.686257
970.241044	-3.013700	3.576600	-10.778000	25.358652	0.000937	20.684638
971.244730	-3.007800	3.575600	-10.753000	25.368949	0.000939	20.712049
972.242828	-2.975000	3.576700	-10.639000	25.349913	0.000938	20.687718
973.239621	-2.996200	3.577600	-10.718000	25.336838	0.000937	20.681701
974.244680	-3.004400	3.573900	-10.736000	25.316010	0.000936	20.687342
975.241426	-2.991000	3.575000	-10.693000	25.339457	0.000937	20.694289
976.245646	-2.985800	3.576500	-10.678000	25.340972	0.000935	20.715726
977.248588	-2.994000	3.574600	-10.701000	25.386011	0.000933	20.715431
978.247655	-2.991400	3.575800	-10.696000	25.356832	0.000935	20.706520
979.246312	-3.020500	3.574100	-10.794000	25.402269	0.000934	20.718005
980.246124	-3.026000	3.573400	-10.812000	25.417864	0.000934	20.704267
981.244189	-3.008700	3.573400	-10.751000	25.445202	0.000933	20.707063
982.241671	-3.022200	3.572000	-10.794000	25.454670	0.000932	20.722735
983.250357	-2.995700	3.572100	-10.699000	25.414713	0.000931	20.709637
984.243989	-3.006200	3.573500	-10.741000	25.445625	0.000931	20.697530
985.245349	-3.024200	3.571200	-10.798000	25.465544	0.000931	20.713739
986.246050	-3.021000	3.571600	-10.788000	25.467677	0.000931	20.709243
987.249809	-2.975100	3.572500	-10.627000	25.508339	0.000930	20.705980
988.246705	-2.995900	3.571700	-10.700000	25.498602	0.000931	20.692881
989.251253	-2.993100	3.571200	-10.688000	25.504618	0.000928	20.704139
990.248997	-3.004100	3.571400	-10.727000	25.454372	0.000928	20.721013
991.244349	-2.987900	3.571200	-10.670000	25.458051	0.000926	20.718543
992.246901	-2.992300	3.569500	-10.680000	25.443193	0.000928	20.689396
993.253359	-3.016700	3.567900	-10.763000	25.406564	0.000924	20.715680
994.248657	-2.992100	3.569500	-10.679000	25.405228	0.000925	20.702009
995.249456	-3.003500	3.568100	-10.714000	25.416267	0.000927	20.706930
996.250516	-3.015800	3.568900	-10.762000	25.444899	0.000925	20.705335
997.249693	-3.015500	3.567500	-10.757000	25.498733	0.000924	20.720042
998.252082	-3.004600	3.568700	-10.722000	25.541576	0.000925	20.721815
999.255392	-2.998000	3.566400	-10.691000	25.547500	0.000923	20.723023
1000.244788	-3.016000	3.566800	-10.757000	25.557789	0.000923	20.708699
1001.250973	-3.020100	3.567000	-10.770000	25.550714	0.000921	20.706809
1002.254840	-2.993900	3.567300	-10.679000	25.540155	0.000923	20.731768
1003.245535	-2.984100	3.567300	-10.644000	25.528186	0.000922	20.713110
1004.248141	-2.992400	3.565400	-10.668000	25.560121	0.000921	20.705350
1005.249988	-2.985000	3.567900	-10.649000	25.561299	0.000920	20.718862
1006.251689	-3.001500	3.565200	-10.700000	25.576977	0.000920	20.727970
1007.251263	-3.018600	3.565400	-10.761000	25.574941	0.000919	20.699371
1008.244325	-2.988200	3.565500	-10.653000	25.539716	0.000919	20.723741
1009.245963	-3.006000	3.564000	-10.713000	25.567897	0.000919	20.727861
1010.253665	-3.009600	3.562700	-10.722000	25.593913	0.000919	20.714158
1011.250891	-3.000000	3.563700	-10.689000	25.623645	0.000919	20.739753
1012.248339	-2.989000	3.564400	-10.653000	25.627925	0.000917	20.726033
1013.249969	-2.993300	3.563200	-10.663000	25.656471	0.000918	20.706339
1014.248199	-2.977700	3.562500	-10.607000	25.646620	0.000916	20.701185
1015.251297	-2.994300	3.563700	-10.670000	25.647791	0.000916	20.732235
1016.253843	-2.998500	3.563200	-10.684000	25.690003	0.000915	20.722000
1017.253527	-2.994800	3.563300	-10.671000	25.692744	0.000915	20.727599
1018.251529	-3.009200	3.560900	-10.715000	25.699353	0.000915	20.722857
1019.259529	-3.000700	3.561300	-10.685000	25.696975	0.000916	20.722839
1020.248526	-2.998300	3.561600	-10.676000	25.692051	0.000914	20.731645
1021.251853	-2.987800	3.561200	-10.639000	25.706276	0.000913	20.722224
1022.250476	-2.983600	3.561000	-10.624000	25.713853	0.000914	20.730784
1023.250721	-3.022500	3.558400	-10.754000	25.744715	0.000911	20.732385
1024.252670	-3.001900	3.559300	-10.683000	25.751907	0.000909	20.743877
1025.253066	-2.990600	3.560000	-10.645000	25.736893	0.000910	20.732589
1026.254189	-2.975700	3.560500	-10.593000	25.726539	0.000909	20.738310
1027.253887	-2.982600	3.559500	-10.615000	25.690221	0.000909	20.739764
1028.250544	-3.012100	3.557600	-10.714000	25.698473	0.000908	20.715809
1029.254817	-2.983700	3.558100	-10.615000	25.713960	0.000910	20.728994
1030.254737	-3.018300	3.557300	-10.736000	25.708442	0.000906	20.739100
1031.251104	-3.001500	3.557000	-10.675000	25.728699	0.000905	20.732419
1032.255997	-3.016600	3.555600	-10.724000	25.744829	0.000907	20.735344
1033.268224	-3.020400	3.555100	-10.735000	25.735216	0.000907	20.742285
1034.251492	-3.021300	3.554800	-10.739000	25.759536	0.000906	20.732099
1035.254322	-3.001600	3.556900	-10.674000	25.773386	0.000905	20.746485
1036.255494	-3.001000	3.555400	-10.669000	25.771822	0.000904	20.745863
1037.252914	-3.019500	3.553800	-10.729000	25.773294	0.000905	20.762515
1038.258098	-3.002500	3.554600	-10.671000	25.812822	0.000904	20.742477
1039.256382	-2.985100	3.553900	-10.608000	25.809151	0.000903	20.739263
1040.256311	-2.987200	3.555200	-10.619000	25.823588	0.000902	20.743334
1041.260621	-3.012100	3.554500	-10.705000	25.781976	0.000903	20.760330
1042.258348	-2.995300	3.553500	-10.643000	25.753831	0.000900	20.732059
1043.257187	-2.975800	3.555100	-10.578000	25.766657	0.000901	20.735458
1044.261602	-3.032200	3.551900	-10.768000	25.757174	0.000901	20.742529
1045.259975	-3.008900	3.553600	-10.690000	25.762838	0.000900	20.741580
1046.259345	-3.012200	3.551400	-10.696000	25.765873	0.000898	20.726136
1047.263311	-3.016700	3.551400	-10.711000	25.764978	0.000899	20.746575
1048.271069	-2.981600	3.552900	-10.592000	25.731273	0.000898	20.765352
1049.262872	-3.014000	3.550700	-10.701000	25.735528	0.000895	20.740701
1050.262568	-2.990700	3.551300	-10.619000	25.691626	0.000897	20.757297
1051.258797	-2.987500	3.550800	-10.607000	25.685912	0.000896	20.742075
1052.262344	-3.022400	3.549400	-10.727000	25.663192	0.000896	20.751024
1053.262540	-3.007800	3.550200	-10.676000	25.641721	0.000895	20.742735
1054.258864	-3.007400	3.548700	-10.672000	25.641371	0.000893	20.761825
1055.259293	-3.004100	3.549200	-10.662000	25.607246	0.000893	20.737982
1056.264318	-3.002300	3.548300	-10.652000	25.594898	0.000892	20.746917
1057.267964	-2.987300	3.549700	-10.603000	25.598828	0.000894	20.759400
1058.263882	-3.018500	3.548200	-10.709000	25.626193	0.000893	20.769814
1059.258497	-2.979900	3.547700	-10.571000	25.603476	0.000890	20.747472
1060.261500	-3.016100	3.547300	-10.698000	25.615513	0.000892	20.736327
1061.257389	-3.013200	3.547100	-10.687000	25.588032	0.000891	20.765153
1062.259048	-2.979600	3.549400	-10.575000	25.615649	0.000892	20.771552
1063.262964	-2.984300	3.547300	-10.585000	25.605759	0.000891	20.770628
1064.260842	-2.987100	3.547200	-10.595000	25.628175	0.000890	20.747622
1065.259329	-2.996400	3.546600	-10.626000	25.665593	0.000887	20.784256
1066.259552	-2.987300	3.546500	-10.594000	25.672080	0.000890	20.775598
1067.260641	-3.015300	3.543900	-10.685000	25.698824	0.000890	20.757889
1068.258495	-3.001500	3.544500	-10.638000	25.710454	0.000888	20.756294
1069.262979	-3.014100	3.545000	-10.683000	25.715175	0.000887	20.772416
1070.264426	-2.993900	3.545300	-10.613000	25.687200	0.000887	20.754749
1071.267560	-2.992200	3.544100	-10.604000	25.690683	0.000886	20.753979
1072.262573	-2.982200	3.543100	-10.566000	25.706010	0.000884	20.758942
1073.264626	-2.986000	3.543000	-10.578000	25.681469	0.000885	20.751837
1074.263004	-3.000000	3.543300	-10.628000	25.692155	0.000883	20.745500
1075.265817	-2.979700	3.543100	-10.555000	25.704681	0.000884	20.772781
1076.262696	-3.000100	3.542600	-10.627000	25.764443	0.000882	20.773539
1077.266066	-3.013900	3.541800	-10.673000	25.767600	0.000881	20.763434
1078.264826	-3.008700	3.543200	-10.658000	25.794255	0.000883	20.757491
1079.268926	-3.003800	3.541500	-10.636000	25.797461	0.000880	20.761660
1080.266643	-3.009500	3.540300	-10.654000	25.808422	0.000880	20.782154
1081.262970	-2.996100	3.540400	-10.606000	25.809716	0.000880	20.784402
1082.264063	-3.007700	3.539200	-10.644000	25.830736	0.000881	20.787500
1083.266335	-3.018800	3.538800	-10.682000	25.849869	0.000880	20.778270
1084.270048	-2.994700	3.540200	-10.601000	25.837547	0.000879	20.771582
1085.267771	-2.993600	3.539800	-10.595000	25.830995	0.000878	20.767845
1086.266492	-2.994100	3.539400	-10.596000	25.866126	0.000877	20.764255
1087.264381	-3.010200	3.537400	-10.647000	25.873549	0.000876	20.787359
1088.268855	-2.980300	3.538400	-10.545000	25.908207	0.000878	20.773338
1089.270212	-2.988000	3.538400	-10.571000	25.921104	0.000875	20.755000
1090.267726	-3.002700	3.536700	-10.619000	25.935662	0.000876	20.796652
1091.265078	-2.997000	3.537400	-10.601000	25.898302	0.000876	20.764336
1092.270422	-3.008200	3.537900	-10.642000	25.926781	0.000876	20.775403
1093.264882	-3.024700	3.536000	-10.694000	25.931721	0.000874	20.794591
1094.265298	-2.977500	3.537500	-10.531000	25.956613	0.000873	20.784510
1095.273260	-2.993700	3.535200	-10.582000	25.915405	0.000873	20.785311
1096.269233	-3.001600	3.533600	-10.605000	25.926316	0.000872	20.772565
1097.272754	-3.013400	3.533300	-10.647000	25.921732	0.000872	20.792142
1098.271080	-2.988900	3.535500	-10.565000	25.924638	0.000871	20.765663
1099.270779	-2.987700	3.533700	-10.557000	25.901382	0.000872	20.800621
1100.272252	-2.994500	3.535100	-10.584000	25.889043	0.000870	20.777794
1101.270483	-3.004900	3.533200	-10.616000	25.852927	0.000869	20.799360
1102.269704	-2.990300	3.533500	-10.564000	25.849574	0.000869	20.772758
1103.272729	-2.979800	3.533400	-10.528000	25.825759	0.000870	20.783923
1104.269686	-3.008700	3.532100	-10.627000	25.822504	0.000870	20.792981
1105.270304	-3.005600	3.531600	-10.613000	25.825385	0.000867	20.796349
1106.274821	-2.981500	3.531600	-10.529000	25.841556	0.000865	20.800740
1107.270199	-3.003500	3.529800	-10.601000	25.819630	0.000868	20.780611
1108.270939	-2.997400	3.530600	-10.581000	25.822536	0.000867	20.787323
1109.272184	-3.008400	3.531300	-10.623000	25.834116	0.000865	20.792791
1110.273353	-3.003300	3.530800	-10.603000	25.855087	0.000865	20.795366
1111.277580	-3.017600	3.528900	-10.648000	25.841374	0.000865	20.787755
1112.278036	-2.998700	3.529200	-10.581000	25.883131	0.000865	20.804097
1113.275138	-2.995800	3.528500	-10.570000	25.889427	0.000865	20.794301
1114.271889	-3.020400	3.528300	-10.655000	25.910212	0.000863	20.792896
1115.273867	-3.027400	3.526400	-10.674000	25.892399	0.000863	20.810089
1116.280271	-3.013700	3.526900	-10.627000	25.894490	0.000862	20.789904
1117.276604	-3.021500	3.527300	-10.656000	25.911561	0.000862	20.806106
1118.272794	-2.991500	3.528100	-10.553000	25.894490	0.000862	20.779947
1119.278108	-3.000700	3.526600	-10.581000	25.873128	0.000861	20.809695
1120.273437	-3.006700	3.526100	-10.600000	25.883512	0.000860	20.787410
1121.277954	-2.992900	3.526700	-10.553000	25.896850	0.000860	20.787533
1122.276233	-2.998300	3.525600	-10.570000	25.899283	0.000859	20.803254
1123.277011	-2.994800	3.526200	-10.559000	25.912027	0.000857	20.782391
1124.278628	-2.979100	3.525900	-10.503000	25.917537	0.000858	20.795039
1125.279784	-3.014400	3.525500	-10.626000	25.904947	0.000858	20.782391
1126.277334	-2.997200	3.524100	-10.562000	25.903255	0.000856	20.797761
1127.274609	-2.984100	3.526200	-10.522000	25.899577	0.000858	20.781738
1128.280924	-2.984700	3.525600	-10.520000	25.904475	0.000856	20.806099
1129.274399	-2.998300	3.523200	-10.563000	25.886784	0.000856	20.796862
1130.281894	-3.000900	3.522000	-10.569000	25.892993	0.000856	20.805470
1131.284824	-2.990000	3.523500	-10.534000	25.905265	0.000856	20.791246
1132.277686	-3.003100	3.522000	-10.576000	25.889022	0.000854	20.793894
1133.279530	-2.989500	3.523300	-10.532000	25.908066	0.000854	20.778412
1134.282836	-3.001300	3.521900	-10.569000	25.919393	0.000853	20.788844
1135.281650	-2.992800	3.521200	-10.538000	25.901010	0.000854	20.776066
1136.280683	-2.990400	3.520800	-10.527000	25.883375	0.000853	20.773997
1137.281645	-2.978100	3.520900	-10.486000	25.880488	0.000850	20.781528
1138.278558	-3.000800	3.520300	-10.562000	25.863006	0.000850	20.788148
1139.282816	-3.003100	3.520900	-10.571000	25.881064	0.000849	20.792538
1140.280689	-2.987100	3.520600	-10.515000	25.892570	0.000848	20.778019
1141.283620	-3.011600	3.518300	-10.594000	25.900423	0.000848	20.764096
1142.279339	-2.974000	3.520000	-10.467000	25.878288	0.000849	20.772206
1143.284185	-3.013200	3.517600	-10.599000	25.903108	0.000848	20.770586
1144.280287	-2.988800	3.517200	-10.510000	25.930899	0.000845	20.775272
1145.282181	-3.004200	3.518700	-10.570000	25.940688	0.000845	20.756182
1146.286295	-3.005900	3.518400	-10.576000	25.972431	0.000846	20.772901
1147.282088	-3.015500	3.517200	-10.605000	26.001919	0.000844	20.766491
1148.285120	-2.992100	3.517900	-10.525000	25.977329	0.000843	20.763597
1149.282535	-3.012500	3.516900	-10.594000	25.960835	0.000844	20.757457
1150.284081	-3.019000	3.515300	-10.612000	25.908349	0.000844	20.760204
1151.282434	-3.009400	3.514000	-10.574000	25.862541	0.000843	20.757334
1152.288809	-2.973200	3.515600	-10.449000	25.855192	0.000841	20.754693
1153.286681	-2.986000	3.516600	-10.498000	25.852384	0.000842	20.762304
1154.285308	-3.022600	3.514400	-10.622000	25.871215	0.000841	20.773635
1155.286080	-3.000500	3.514000	-10.542000	25.883046	0.000840	20.768925
1156.287285	-2.993300	3.514700	-10.518000	25.904604	0.000839	20.773038
1157.286470	-2.994300	3.512700	-10.516000	25.935363	0.000838	20.769799
1158.287301	-3.004800	3.512900	-10.554000	25.912911	0.000839	20.759571
1159.288654	-2.988500	3.513900	-10.501000	25.871904	0.000838	20.745402
1160.285979	-3.004000	3.511500	-10.547000	25.820154	0.000838	20.746523
1161.291429	-3.007000	3.510700	-10.556000	25.802812	0.000837	20.742378
1162.288499	-2.999700	3.511200	-10.532000	25.768077	0.000838	20.761542
1163.288218	-2.994600	3.510500	-10.512000	25.792857	0.000836	20.751819
1164.288776	-3.015100	3.509600	-10.580000	25.790927	0.000834	20.766002
1165.290253	-3.023500	3.509300	-10.610000	25.779996	0.000833	20.762135
1166.290151	-2.997700	3.510200	-10.522000	25.784734	0.000834	20.744134
1167.288525	-2.995600	3.509300	-10.511000	25.774584	0.000831	20.748637
1168.290804	-3.010000	3.508600	-10.560000	25.785913	0.000833	20.762862
1169.287602	-2.991500	3.508000	-10.493000	25.779629	0.000831	20.750386
1170.292220	-2.993900	3.508500	-10.503000	25.775063	0.000832	20.750066
1171.293000	-3.020200	3.507900	-10.592000	25.832625	0.000831	20.747197
1172.291632	-3.002500	3.507000	-10.529000	25.827580	0.000831	20.741654
1173.294897	-3.002000	3.506800	-10.525000	25.855852	0.000830	20.743028
1174.301799	-3.013700	3.506600	-10.567000	25.920668	0.000830	20.743182
1175.294617	-3.005000	3.505400	-10.533000	25.901195	0.000828	20.754913
1176.295584	-3.011400	3.504600	-10.552000	25.926639	0.000828	20.748233
1177.295485	-2.999000	3.506600	-10.515000	25.941043	0.000829	20.749901
1178.290809	-2.990200	3.506600	-10.484000	25.968473	0.000826	20.734310
1179.296072	-3.011000	3.504600	-10.551000	25.965819	0.000828	20.756301
1180.294143	-3.002000	3.504200	-10.519000	25.949325	0.000826	20.740203
1181.294299	-2.992500	3.503100	-10.482000	25.929772	0.000827	20.737155
1182.295421	-3.032600	3.502100	-10.619000	25.947983	0.000824	20.738855
1183.290978	-3.028700	3.500600	-10.602000	25.959520	0.000824	20.735272
1184.293734	-2.997900	3.503200	-10.502000	25.952311	0.000825	20.729452
1185.298549	-2.993200	3.503500	-10.485000	25.952164	0.000824	20.742107
1186.295330	-2.982200	3.501900	-10.443000	25.942431	0.000824	20.728061
1187.295461	-3.002800	3.501500	-10.512000	25.919948	0.000823	20.755261
1188.293845	-3.010700	3.501800	-10.542000	25.935652	0.000823	20.749701
1189.298548	-3.022600	3.501400	-10.582000	25.926464	0.000823	20.725771
1190.297298	-3.017700	3.500900	-10.564000	25.940305	0.000823	20.730667
1191.297914	-3.005600	3.500500	-10.520000	25.958534	0.000821	20.727643
1192.298508	-2.976300	3.500500	-10.416000	25.970357	0.000819	20.738099
1193.299399	-3.004600	3.499200	-10.512000	25.976849	0.000822	20.751734
1194.304461	-2.993200	3.499600	-10.473000	25.981764	0.000818	20.724429
1195.299660	-2.989500	3.498500	-10.457000	25.979338	0.000819	20.737165
1196.294702	-3.006100	3.499300	-10.518000	25.986994	0.000818	20.727312
1197.302186	-3.009600	3.497600	-10.525000	25.960093	0.000818	20.737270
1198.295553	-2.989200	3.498400	-10.456000	25.961582	0.000817	20.728334
1199.299093	-3.000900	3.496900	-10.493000	25.979670	0.000816	20.732757
1200.301535	-3.010800	3.496700	-10.525000	25.970776	0.000817	20.739943
1201.302532	-3.016100	3.496100	-10.543000	25.968815	0.000816	20.737498
1202.301471	-3.006200	3.495900	-10.508000	25.962337	0.000815	20.728145
1203.302975	-2.992900	3.496000	-10.462000	25.980191	0.000813	20.736125
1204.300318	-2.986300	3.495400	-10.437000	25.961533	0.000814	20.717379
1205.297735	-2.991300	3.494800	-10.452000	25.974811	0.000814	20.722184
1206.304164	-3.022500	3.494400	-10.561000	25.984966	0.000812	20.731439
1207.297711	-2.995200	3.494800	-10.467000	26.006001	0.000812	20.738348
1208.306084	-2.997200	3.494800	-10.474000	25.975852	0.000813	20.715644
1209.310205	-3.003600	3.493700	-10.493000	25.964851	0.000810	20.733515
1210.301368	-3.004600	3.493900	-10.497000	25.937819	0.000811	20.731014
1211.301377	-3.026500	3.490200	-10.562000	25.890384	0.000810	20.751639
1212.305179	-2.979700	3.492800	-10.406000	25.869161	0.000810	20.739328
1213.302874	-2.981900	3.492700	-10.414000	25.847278	0.000808	20.738208
1214.301417	-3.012100	3.490100	-10.511000	25.860844	0.000808	20.731921
1215.312891	-3.016800	3.490900	-10.530000	25.868371	0.000807	20.730948
1216.303231	-3.016200	3.490900	-10.527000	25.829869	0.000807	20.709339
1217.303250	-3.011400	3.491000	-10.512000	25.781072	0.000806	20.716273
1218.315877	-2.997800	3.491000	-10.464000	25.773618	0.000805	20.730122
1219.305688	-3.009400	3.489500	-10.500000	25.755037	0.000805	20.709560
1220.308086	-3.009800	3.488800	-10.500000	25.749176	0.000806	20.709838
1221.310012	-3.002800	3.491000	-10.482000	25.728252	0.000806	20.725331
1222.307528	-3.006500	3.489100	-10.490000	25.736578	0.000804	20.708563
1223.304736	-3.012400	3.487600	-10.505000	25.780258	0.000805	20.708815
1224.310885	-3.015400	3.487000	-10.513000	25.797055	0.000804	20.734699
1225.307680	-2.990600	3.486500	-10.426000	25.833278	0.000805	20.722721
1226.309503	-2.991100	3.486200	-10.427000	25.841002	0.000805	20.727635
1227.314796	-3.024300	3.485900	-10.541000	25.822275	0.000802	20.715935
1228.312503	-2.999000	3.487900	-10.460000	25.833383	0.000802	20.716662
1229.321712	-3.006500	3.485800	-10.479000	25.805842	0.000801	20.704642
1230.313473	-2.986100	3.484900	-10.404000	25.782583	0.000802	20.716367
1231.313826	-3.002500	3.484800	-10.462000	25.815258	0.000800	20.699402
1232.309920	-3.012100	3.485700	-10.499000	25.826139	0.000800	20.726929
1233.318582	-2.982300	3.482400	-10.384000	25.863574	0.000797	20.722335
1234.314920	-2.998100	3.482500	-10.440000	25.835034	0.000798	20.724485
1235.316244	-3.012100	3.485000	-10.496000	25.837817	0.000797	20.701200
1236.311949	-3.038100	3.481700	-10.576000	25.812954	0.000796	20.710838
1237.316316	-3.018900	3.482600	-10.513000	25.846540	0.000797	20.719922
1238.314280	-3.005500	3.482800	-10.467000	25.866340	0.000796	20.703301
1239.320752	-2.999100	3.482200	-10.442000	25.878017	0.000795	20.711239
1240.315196	-2.998100	3.481000	-10.435000	25.923971	0.000797	20.706195
1241.313932	-3.018400	3.480300	-10.504000	25.914336	0.000794	20.706947
1242.318576	-2.997400	3.481700	-10.435000	25.935973	0.000793	20.708770
1243.313389	-3.000400	3.480700	-10.441000	25.943077	0.000794	20.712588
1244.309542	-2.989500	3.481600	-10.408000	25.955250	0.000792	20.714860
1245.315114	-2.992700	3.480200	-10.414000	25.989353	0.000792	20.678944
1246.315226	-3.000000	3.479100	-10.436000	26.035358	0.000792	20.717582
1247.312560	-3.001400	3.478200	-10.438000	26.059647	0.000793	20.711639
1248.316318	-2.992200	3.478900	-10.408000	26.093795	0.000791	20.726985
1249.317164	-3.007700	3.476700	-10.455000	26.082249	0.000791	20.704951
1250.318176	-3.022100	3.476900	-10.505000	26.083095	0.000789	20.696792
1251.316835	-3.013500	3.475600	-10.473000	26.102915	0.000790	20.683989
1252.317778	-2.976900	3.476900	-10.349000	26.102436	0.000790	20.690146
1253.320461	-3.008400	3.475000	-10.453000	26.092435	0.000788	20.691003
1254.316536	-2.984900	3.475300	-10.371000	26.096106	0.000788	20.711288
1255.319597	-3.010700	3.473500	-10.456000	26.088426	0.000788	20.695984
1256.318983	-3.003100	3.474600	-10.434000	26.093477	0.000789	20.696318
1257.320632	-2.992400	3.474900	-10.396000	26.108172	0.000786	20.718197
1258.322725	-3.007500	3.474400	-10.448000	26.118260	0.000784	20.705099
1259.317797	-3.018200	3.472700	-10.480000	26.116146	0.000786	20.707716
1260.319066	-2.997400	3.473700	-10.410000	26.129180	0.000786	20.682879
1261.316909	-3.001800	3.473200	-10.425000	26.135633	0.000783	20.699321
1262.318368	-3.010300	3.472400	-10.452000	26.091509	0.000784	20.709040
1263.319676	-2.990900	3.471300	-10.381000	26.052383	0.000785	20.719989
1264.319634	-3.008800	3.471400	-10.443000	26.036012	0.000783	20.699272
1265.322652	-3.017000	3.470200	-10.469000	26.027217	0.000782	20.707505
1266.316780	-2.989600	3.472200	-10.378000	26.048079	0.000781	20.699068
1267.320554	-2.998200	3.470200	-10.404000	26.054459	0.000779	20.711169
1268.334855	-2.983100	3.469800	-10.349000	26.090146	0.000780	20.687280
1269.323077	-2.978500	3.470300	-10.336000	26.098567	0.000782	20.688629
1270.321479	-2.989400	3.471100	-10.376000	26.096606	0.000780	20.681442
1271.319825	-2.998200	3.469500	-10.402000	26.126401	0.000778	20.712806
1272.318264	-3.015500	3.468900	-10.460000	26.149873	0.000781	20.694189
1273.321829	-3.005400	3.468700	-10.424000	26.143959	0.000779	20.694411
1274.323030	-3.007700	3.467300	-10.428000	26.105215	0.000779	20.711906
1275.320990	-3.012800	3.468100	-10.448000	26.060874	0.000776	20.700069
1276.318908	-2.993200	3.467800	-10.378000	26.050142	0.000778	20.702563
1277.326077	-3.010500	3.467100	-10.436000	26.019914	0.000776	20.704435
1278.323790	-3.009900	3.464100	-10.425000	26.020264	0.000777	20.699096
1279.323688	-2.988200	3.466700	-10.358000	26.050736	0.000776	20.693677
1280.324008	-2.986400	3.466100	-10.350000	26.032901	0.000774	20.668642
1281.320396	-2.994300	3.464600	-10.373000	26.078125	0.000775	20.703178
1282.324157	-2.985300	3.465700	-10.345000	26.088318	0.000774	20.704411
1283.327502	-3.015800	3.463400	-10.444000	26.031755	0.000773	20.712065
1284.323088	-2.994100	3.464100	-10.371000	26.042885	0.000774	20.692426
1285.326118	-2.996200	3.463100	-10.376000	25.998370	0.000771	20.693220
1286.336636	-2.991300	3.463600	-10.360000	26.013489	0.000773	20.685176
1287.324956	-3.006000	3.460900	-10.403000	26.023089	0.000772	20.695770
1288.326754	-2.997500	3.462500	-10.377000	25.990616	0.000771	20.697758
1289.325068	-3.006800	3.461100	-10.406000	25.961980	0.000772	20.688429
1290.322848	-3.003400	3.461400	-10.395000	25.966773	0.000770	20.694193
1291.326585	-3.003500	3.461400	-10.395000	25.939221	0.000770	20.679788
1292.323962	-3.007900	3.459300	-10.404000	25.910064	0.000768	20.694593
1293.329058	-3.002200	3.461100	-10.390000	25.919902	0.000767	20.695942
1294.328836	-3.018000	3.458500	-10.437000	25.924695	0.000769	20.692222
1295.326041	-3.006600	3.457800	-10.394000	25.925045	0.000767	20.679770
1296.324338	-3.002300	3.458900	-10.383000	25.965130	0.000766	20.697758
1297.329228	-2.999800	3.458000	-10.372000	25.959271	0.000766	20.694716
1298.330087	-2.993900	3.457600	-10.349000	25.925559	0.000764	20.715851
1299.324373	-3.012200	3.456100	-10.410000	25.919399	0.000766	20.703023
1300.330124	-2.979400	3.457500	-10.299000	25.893870	0.000765	20.706775
1301.326350	-2.983300	3.457800	-10.314000	25.873794	0.000766	20.697038
1302.328404	-3.023900	3.454900	-10.445000	25.832079	0.000763	20.694014
1303.326377	-2.988400	3.457300	-10.331000	25.795360	0.000763	20.686525
1304.328334	-2.978200	3.456400	-10.292000	25.836775	0.000760	20.668382
1305.324036	-2.986000	3.456300	-10.320000	25.881885	0.000763	20.698053
1306.329365	-3.008300	3.454600	-10.391000	25.909015	0.000760	20.683107
1307.328496	-3.025800	3.455200	-10.454000	25.979663	0.000759	20.700031
1308.326073	-3.015600	3.452800	-10.411000	25.974521	0.000760	20.682535
1309.330828	-2.984100	3.454000	-10.306000	25.923548	0.000760	20.689648
1310.326749	-2.995100	3.452800	-10.339000	25.891178	0.000759	20.708338
1311.333347	-3.000000	3.452900	-10.358000	25.877815	0.000759	20.677368
1312.332277	-2.994000	3.452700	-10.336000	25.907550	0.000757	20.686852
1313.333486	-3.001800	3.452900	-10.364000	25.899429	0.000757	20.688650
1314.333296	-2.992500	3.452400	-10.329000	25.934827	0.000758	20.685805
1315.333463	-2.987200	3.452000	-10.310000	25.997824	0.000756	20.697888
1316.334029	-2.979300	3.450000	-10.277000	26.020005	0.000758	20.704527
1317.330830	-3.012500	3.449000	-10.389000	26.003145	0.000756	20.670989
1318.334508	-2.985000	3.451000	-10.300000	26.000883	0.000756	20.675355
1319.333869	-2.967000	3.450400	-10.236000	26.021477	0.000756	20.679925
1320.334208	-3.002000	3.447400	-10.348000	26.051582	0.000754	20.684094
1321.333665	-3.005900	3.448500	-10.365000	26.059164	0.000754	20.672271
1322.334752	-3.003800	3.448700	-10.358000	26.083802	0.000754	20.684698
1323.335767	-3.004100	3.447800	-10.357000	26.105282	0.000753	20.684470
1324.338823	-3.006000	3.448000	-10.363000	26.130404	0.000751	20.676995
1325.333476	-3.013200	3.446700	-10.385000	26.170359	0.000751	20.680634
1326.332978	-3.001800	3.445900	-10.342000	26.148751	0.000752	20.685949
1327.331742	-3.015800	3.445200	-10.389000	26.151222	0.000751	20.673732
1328.336075	-3.001500	3.446800	-10.345000	26.159838	0.000750	20.678123
1329.338244	-3.011200	3.444700	-10.372000	26.172830	0.000749	20.690231
1330.335232	-2.995600	3.445300	-10.320000	26.198807	0.000747	20.685513
1331.337269	-3.006800	3.444200	-10.355000	26.210163	0.000748	20.681277
1332.339128	-2.984600	3.443500	-10.277000	26.245796	0.000748	20.671565
1333.334986	-2.979300	3.444900	-10.263000	26.250343	0.000747	20.681351
1334.334796	-2.989000	3.441500	-10.286000	26.237432	0.000747	20.700146
1335.336151	-2.997100	3.444400	-10.323000	26.222039	0.000747	20.671399
1336.336718	-3.038500	3.440500	-10.451000	26.201449	0.000747	20.671097
1337.336906	-2.999100	3.443800	-10.326000	26.128121	0.000747	20.672330
1338.339390	-3.001600	3.442700	-10.332000	26.111353	0.000744	20.689149
1339.338342	-3.008600	3.440400	-10.349000	26.095861	0.000745	20.698239
1340.339233	-2.983500	3.442700	-10.270000	26.087440	0.000744	20.698313
1341.341537	-3.019800	3.440000	-10.386000	26.106526	0.000743	20.676710
1342.338344	-3.016200	3.441000	-10.377000	26.112084	0.000742	20.712644
1343.338550	-3.007400	3.439100	-10.341000	26.177780	0.000743	20.698049
1344.339085	-2.994500	3.439900	-10.300000	26.192977	0.000743	20.702415
1345.345014	-2.970300	3.438900	-10.213000	26.194840	0.000740	20.708555
1346.339523	-3.012400	3.439000	-10.358000	26.214039	0.000740	20.700821
1347.339083	-3.021000	3.437900	-10.385000	26.199412	0.000738	20.672369
1348.342507	-2.973500	3.439600	-10.226000	26.185679	0.000740	20.678958
1349.337986	-2.996200	3.437500	-10.298000	26.195294	0.000739	20.696209
1350.342192	-2.983800	3.437100	-10.254000	26.152851	0.000738	20.698604
1351.344380	-3.008700	3.437400	-10.341000	26.157619	0.000738	20.716198
1352.343646	-2.986400	3.436000	-10.260000	26.176990	0.000738	20.697255
1353.342897	-3.029500	3.435500	-10.406000	26.191747	0.000737	20.717776
1354.347056	-3.003500	3.435700	-10.318000	26.219481	0.000735	20.697754
1355.341821	-2.983100	3.434800	-10.245000	26.201649	0.000735	20.691688
1356.341461	-2.985900	3.433900	-10.252000	26.202624	0.000735	20.716852
1357.347585	-3.020900	3.433600	-10.371000	26.203917	0.000735	20.698710
1358.343118	-3.012900	3.432500	-10.340000	26.230445	0.000733	20.690280
1359.344363	-3.026000	3.431100	-10.381000	26.246488	0.000736	20.698341
1360.349777	-3.009700	3.431200	-10.326000	26.244992	0.000734	20.692570
1361.343641	-3.009000	3.431500	-10.324000	26.253369	0.000734	20.692928
1362.341800	-3.001400	3.431300	-10.298000	26.253443	0.000733	20.705805
1363.349204	-3.006000	3.430900	-10.312000	26.256372	0.000732	20.708748
1364.344904	-3.005300	3.431100	-10.311000	26.244558	0.000732	20.710153
1365.342505	-3.008000	3.430700	-10.319000	26.253369	0.000732	20.700515
1366.347571	-2.989800	3.430500	-10.255000	26.272721	0.000731	20.690090
1367.344917	-3.005500	3.429000	-10.305000	26.273273	0.000731	20.688274
1368.341665	-2.995500	3.430400	-10.275000	26.253806	0.000730	20.704273
1369.347736	-3.022800	3.429200	-10.365000	26.242353	0.000729	20.704144
1370.345210	-2.999000	3.428500	-10.281000	26.204686	0.000727	20.691895
1371.345304	-3.003400	3.427100	-10.290000	26.171013	0.000728	20.703578
1372.348839	-3.001700	3.427600	-10.288000	26.190286	0.000727	20.694495
1373.348557	-2.996700	3.428000	-10.272000	26.191198	0.000727	20.706318
1374.345021	-2.996600	3.427400	-10.269000	26.226545	0.000728	20.688256
1375.350302	-3.007400	3.426700	-10.304000	26.231564	0.000727	20.687136
1376.349533	-3.032700	3.425200	-10.386000	26.222127	0.000726	20.695671
1377.350472	-3.016900	3.424500	-10.331000	26.190904	0.000726	20.714084
1378.349041	-3.002200	3.425400	-10.283000	26.159915	0.000726	20.706651
1379.349597	-2.989700	3.425600	-10.240000	26.138055	0.000723	20.697961
1380.347370	-2.993400	3.424200	-10.249000	26.095144	0.000722	20.694674
1381.361588	-2.997400	3.423900	-10.261000	26.040102	0.000723	20.701959
1382.346590	-2.991700	3.424100	-10.243000	26.009916	0.000723	20.709089
1383.348118	-3.010500	3.424000	-10.307000	26.018467	0.000721	20.703455
1384.355314	-3.009600	3.422600	-10.300000	26.013349	0.000722	20.721074
1385.353369	-2.993400	3.421600	-10.241000	25.993625	0.000723	20.701256
1386.347810	-2.985800	3.422700	-10.219000	26.018760	0.000721	20.709915
1387.357235	-2.996400	3.422700	-10.255000	26.039794	0.000720	20.723462
1388.351296	-2.996300	3.421800	-10.251000	26.030454	0.000719	20.710283
1389.351038	-3.013000	3.420300	-10.304000	26.010682	0.000720	20.696581
1390.349847	-3.014900	3.420500	-10.311000	26.036134	0.000720	20.723104
1391.351306	-3.004900	3.419600	-10.274000	26.062807	0.000718	20.695373
1392.353655	-3.003100	3.420700	-10.271000	26.077957	0.000716	20.724822
1393.351338	-3.025200	3.418600	-10.340000	26.120794	0.000718	20.721871
1394.351259	-2.996200	3.418900	-10.243000	26.127628	0.000716	20.711193
1395.349502	-2.999400	3.418500	-10.252000	26.152809	0.000716	20.724168
1396.355263	-3.010500	3.416200	-10.283000	26.197905	0.000715	20.718749
1397.354629	-3.009900	3.418700	-10.289000	26.229788	0.000713	20.731822
1398.349894	-3.008500	3.416100	-10.276000	26.245789	0.000714	20.696690
1399.356943	-3.006800	3.415900	-10.269000	26.275304	0.000714	20.742001
1400.356941	-2.986800	3.417400	-10.206000	26.279127	0.000715	20.706961
1401.351132	-2.989500	3.417200	-10.214000	26.257675	0.000711	20.729974
1402.354929	-2.996800	3.417600	-10.240000	26.283318	0.000712	20.733933
1403.352991	-2.986600	3.416800	-10.203000	26.276321	0.000712	20.720737
1404.353130	-3.002300	3.414900	-10.251000	26.268796	0.000713	20.707484
1405.353696	-2.987000	3.414300	-10.197000	26.259832	0.000711	20.722184
1406.354448	-2.984800	3.416500	-10.196000	26.293355	0.000712	20.708931
1407.350453	-3.003400	3.412000	-10.245000	26.314936	0.000710	20.726353
1408.355937	-2.999300	3.413400	-10.236000	26.348060	0.000711	20.710329
1409.358079	-3.010200	3.412500	-10.271000	26.366379	0.000708	20.758140
1410.352221	-3.001100	3.412500	-10.240000	26.375668	0.000710	20.700617
1411.355274	-3.010400	3.410700	-10.266000	26.380085	0.000710	20.719757
1412.355057	-2.991200	3.412900	-10.208000	26.387584	0.000708	20.737252
1413.356349	-2.995100	3.411600	-10.216000	26.370821	0.000707	20.711393
1414.359173	-3.015300	3.409900	-10.280000	26.326326	0.000706	20.716936
1415.357518	-2.992400	3.411500	-10.208000	26.267024	0.000707	20.735103
1416.355866	-2.983700	3.410900	-10.176000	26.222445	0.000708	20.726813
1417.361228	-3.002800	3.410000	-10.239000	26.172851	0.000705	20.738144
1418.359138	-3.026600	3.409200	-10.317000	26.160901	0.000705	20.723764
1419.356460	-3.005300	3.408500	-10.242000	26.157524	0.000704	20.738864
1420.357529	-2.983500	3.408100	-10.166000	26.158258	0.000705	20.734386
1421.358258	-3.019000	3.407100	-10.285000	26.146867	0.000701	20.716300
1422.353566	-3.009000	3.406000	-10.247000	26.211107	0.000704	20.728696
1423.360270	-3.013700	3.406700	-10.266000	26.246372	0.000703	20.752756
1424.359602	-2.993600	3.406800	-10.197000	26.274112	0.000704	20.735113
1425.359423	-2.984800	3.406400	-10.167000	26.296997	0.000701	20.742465
1426.359532	-3.005100	3.405700	-10.232000	26.329185	0.000702	20.753002
1427.361374	-2.975800	3.406500	-10.136000	26.330097	0.000698	20.734478
1428.357194	-3.001300	3.404200	-10.215000	26.323792	0.000699	20.736676
1429.361097	-3.006200	3.405000	-10.234000	26.326151	0.000700	20.751376
1430.360630	-2.979200	3.406800	-10.148000	26.349594	0.000697	20.743641
1431.358719	-3.004400	3.403300	-10.224000	26.372442	0.000699	20.745268
1432.360587	-2.993000	3.404400	-10.188000	26.407647	0.000698	20.768797
1433.369120	-3.007400	3.402700	-10.232000	26.434261	0.000699	20.758562
1434.362027	-2.999100	3.402800	-10.204000	26.391184	0.000696	20.761260
1435.360786	-3.002600	3.401700	-10.212000	26.349545	0.000697	20.734583
1436.364692	-2.993800	3.402400	-10.184000	26.324956	0.000695	20.724095
1437.360692	-2.993100	3.403900	-10.187000	26.290888	0.000695	20.734428
1438.364760	-2.996400	3.401400	-10.191000	26.262359	0.000695	20.763606
1439.362218	-2.973900	3.401400	-10.114000	26.261041	0.000694	20.761807
1440.359707	-2.994600	3.400800	-10.183000	26.268615	0.000693	20.758987
1441.361091	-3.000200	3.400000	-10.199000	26.275717	0.000693	20.744786
1442.361131	-3.013300	3.398600	-10.240000	26.295337	0.000692	20.741745
1443.363554	-3.005600	3.398900	-10.214000	26.317260	0.000692	20.737224
1444.367360	-3.025900	3.397900	-10.280000	26.346861	0.000692	20.745636
1445.363902	-2.984200	3.399000	-10.142000	26.362161	0.000693	20.759117
1446.363792	-2.980800	3.399700	-10.133000	26.384604	0.000690	20.766500
1447.363813	-3.001300	3.397300	-10.195000	26.413332	0.000690	20.748432
1448.362102	-3.012700	3.396600	-10.232000	26.383066	0.000689	20.756419
1449.362854	-3.001400	3.397200	-10.195000	26.365016	0.000690	20.749658
1450.362122	-2.990300	3.397100	-10.157000	26.352327	0.000689	20.763932
1451.362987	-2.994600	3.395700	-10.167000	26.317715	0.000687	20.748113
1452.362474	-3.002300	3.396300	-10.194000	26.311857	0.000689	20.745545
1453.365839	-2.993100	3.394600	-10.160000	26.297305	0.000687	20.762689
1454.363847	-2.984500	3.395400	-10.133000	26.253824	0.000687	20.762141
1455.363092	-3.000700	3.393200	-10.181000	26.211498	0.000684	20.754221
1456.366168	-3.009700	3.395400	-10.219000	26.183617	0.000686	20.753704
1457.362834	-2.989100	3.394600	-10.145000	26.171827	0.000685	20.761772
1458.363387	-3.002600	3.392600	-10.186000	26.147486	0.000684	20.760072
1459.361136	-3.009200	3.391600	-10.206000	26.148006	0.000682	20.764389
1460.363189	-3.000500	3.393800	-10.182000	26.143882	0.000685	20.753132
1461.360647	-2.989800	3.391900	-10.141000	26.162837	0.000683	20.769808
1462.361692	-3.022200	3.392400	-10.251000	26.200090	0.000683	20.764094
1463.360411	-3.006800	3.392400	-10.200000	26.234136	0.000680	20.776022
1464.362802	-2.988800	3.392800	-10.139000	26.207510	0.000681	20.761593
1465.361429	-2.993100	3.392900	-10.154000	26.219111	0.000682	20.785579
1466.366260	-2.994900	3.390200	-10.152000	26.266465	0.000680	20.748766
1467.372341	-2.991900	3.390200	-10.142000	26.271582	0.000681	20.764814
1468.365282	-2.986300	3.390400	-10.124000	26.310669	0.000680	20.770904
1469.367105	-3.020200	3.388600	-10.232000	26.325368	0.000678	20.768133
1470.365423	-3.009100	3.390100	-10.200000	26.339578	0.000679	20.754913
1471.368595	-2.989600	3.389000	-10.132000	26.371953	0.000677	20.775597
1472.367133	-2.984600	3.388600	-10.113000	26.363007	0.000677	20.768976
1473.367724	-2.991800	3.388100	-10.136000	26.343125	0.000678	20.765116
1474.370666	-2.993500	3.387300	-10.138000	26.403114	0.000676	20.770406
1475.368550	-2.993400	3.387100	-10.138000	26.432835	0.000676	20.769931
1476.365209	-3.027600	3.385500	-10.249000	26.439740	0.000676	20.765492
1477.370439	-3.022200	3.385300	-10.230000	26.484021	0.000675	20.763532
1478.368122	-2.987500	3.386900	-10.118000	26.490460	0.000674	20.767634
1479.364438	-2.989600	3.386300	-10.122000	26.512240	0.000674	20.766767
1480.370395	-2.997600	3.385700	-10.148000	26.524124	0.000674	20.773496
1481.368156	-3.014300	3.384400	-10.201000	26.523530	0.000672	20.779538
1482.369988	-2.990100	3.385100	-10.120000	26.501383	0.000672	20.788571
1483.373523	-2.967300	3.386300	-10.047000	26.490233	0.000671	20.781631
1484.367200	-2.987900	3.383000	-10.108000	26.466842	0.000671	20.786095
1485.368113	-3.005300	3.384300	-10.170000	26.462443	0.000670	20.779776
1486.370525	-2.983700	3.382400	-10.091000	26.474789	0.000669	20.790289
1487.365333	-3.015000	3.381500	-10.194000	26.479303	0.000668	20.771593
1488.366890	-3.006400	3.381000	-10.163000	26.478409	0.000668	20.776858
1489.372126	-2.998200	3.382300	-10.139000	26.521678	0.000668	20.767245
1490.370800	-2.979500	3.382100	-10.076000	26.530623	0.000670	20.797099
1491.368912	-3.019300	3.380400	-10.206000	26.502037	0.000668	20.786857
1492.371309	-3.015600	3.380900	-10.195000	26.528055	0.000667	20.803052
1493.368501	-3.010600	3.380200	-10.175000	26.544921	0.000668	20.778280
1494.372108	-2.977200	3.381600	-10.066000	26.559267	0.000665	20.799814
1495.372426	-3.019400	3.379400	-10.202000	26.536406	0.000667	20.783946
1496.376542	-2.974200	3.380100	-10.051000	26.489398	0.000665	20.801180
1497.372512	-2.997000	3.378800	-10.125000	26.483297	0.000666	20.787936
1498.379304	-3.026900	3.377300	-10.221000	26.511967	0.000665	20.792098
1499.369844	-3.005100	3.378000	-10.150000	26.492927	0.000663	20.794770
1500.372329	-3.035900	3.376500	-10.249000	26.494937	0.000664	20.813859
1501.374535	-2.993900	3.376600	-10.108000	26.499850	0.000663	20.776124
1502.374121	-2.970000	3.376900	-10.029000	26.497515	0.000662	20.809339
1503.373085	-3.012700	3.374800	-10.166000	26.517335	0.000662	20.782794
1504.371397	-2.998900	3.375000	-10.120000	26.513708	0.000661	20.801433
1505.375407	-3.024500	3.375000	-10.205000	26.549306	0.000661	20.791697
1506.370442	-3.001100	3.373500	-10.123000	26.531154	0.000660	20.796685
1507.372477	-3.022900	3.374500	-10.199000	26.549582	0.000660	20.806673
1508.370771	-3.014600	3.373900	-10.169000	26.555413	0.000660	20.803052
1509.373625	-2.999500	3.373300	-10.117000	26.595825	0.000658	20.802898
1510.373145	-3.007300	3.374000	-10.146000	26.623629	0.000657	20.810934
1511.373666	-2.999600	3.373300	-10.118000	26.605761	0.000657	20.803878
1512.376471	-3.008600	3.372100	-10.145000	26.584008	0.000658	20.792442
1513.376666	-3.010300	3.370800	-10.146000	26.570906	0.000657	20.814358
1514.376231	-3.038100	3.370200	-10.238000	26.519686	0.000656	20.823564
1515.373988	-2.999100	3.372500	-10.113000	26.536577	0.000656	20.813041
1516.389160	-2.998500	3.370400	-10.105000	26.537139	0.000654	20.796537
1517.379354	-3.016800	3.370400	-10.167000	26.541556	0.000653	20.816624
1518.386446	-3.021900	3.370700	-10.185000	26.503477	0.000654	20.806322
1519.379488	-2.995400	3.370300	-10.095000	26.522841	0.000653	20.805873
1520.383265	-2.997600	3.369500	-10.100000	26.490244	0.000652	20.824315
1521.380044	-3.003000	3.369600	-10.118000	26.468764	0.000651	20.825485
1522.380920	-3.024200	3.368100	-10.185000	26.411414	0.000652	20.800084
1523.384609	-3.012800	3.369200	-10.150000	26.395171	0.000651	20.806993
1524.381033	-3.012000	3.369000	-10.147000	26.366246	0.000651	20.809216
1525.382185	-2.994500	3.367900	-10.084000	26.396048	0.000651	20.825892
1526.381030	-2.999500	3.368500	-10.103000	26.403044	0.000650	20.822018
1527.382091	-2.994900	3.367000	-10.083000	26.458956	0.000647	20.813255
1528.376827	-2.997900	3.367300	-10.093000	26.492774	0.000649	20.812634
1529.386488	-2.999200	3.366800	-10.097000	26.510032	0.000649	20.829032
1530.381305	-3.014600	3.366300	-10.147000	26.535130	0.000648	20.813009
1531.380121	-3.017200	3.367700	-10.160000	26.590018	0.000648	20.830251
1532.380393	-2.987600	3.365600	-10.053000	26.582674	0.000646	20.838515
1533.381211	-2.977200	3.366800	-10.023000	26.590717	0.000645	20.829531
1534.379449	-2.983200	3.364700	-10.036000	26.575703	0.000646	20.823448
1535.381628	-2.973600	3.366700	-10.009000	26.511691	0.000646	20.807941
1536.383182	-3.001300	3.364500	-10.096000	26.485544	0.000644	20.812005
1537.382197	-2.977200	3.365100	-10.017000	26.490066	0.000644	20.812757
1538.381230	-2.983300	3.365200	-10.038000	26.495555	0.000640	20.809740
1539.380687	-2.999400	3.362800	-10.086000	26.505412	0.000642	20.813958
1540.392814	-2.976200	3.363500	-10.010000	26.527981	0.000642	20.829531
1541.383201	-3.019800	3.361200	-10.148000	26.542824	0.000640	20.808890
1542.382854	-2.992900	3.361200	-10.059000	26.584480	0.000640	20.817098
1543.380097	-3.013400	3.361300	-10.128000	26.563058	0.000639	20.825910
1544.392192	-3.009900	3.361000	-10.115000	26.577356	0.000642	20.821316
1545.380266	-3.016600	3.360500	-10.135000	26.576437	0.000639	20.814702
1546.381788	-3.010800	3.360500	-10.116000	26.577185	0.000639	20.810238
1547.399004	-3.002900	3.360000	-10.089000	26.609210	0.000637	20.802603
1548.387233	-3.013900	3.358700	-10.121000	26.635501	0.000639	20.813859
1549.385237	-2.986200	3.358500	-10.028000	26.626711	0.000639	20.794591
1550.387476	-3.015300	3.358900	-10.127000	26.595807	0.000638	20.809992
1551.388772	-2.996000	3.358300	-10.061000	26.578729	0.000634	20.813213
1552.385421	-2.983000	3.358400	-10.017000	26.532674	0.000635	20.816704
1553.387255	-3.024300	3.357300	-10.153000	26.498686	0.000634	20.804826
1554.393482	-3.021100	3.357500	-10.143000	26.477678	0.000632	20.792719
1555.385700	-2.996900	3.358100	-10.062000	26.483696	0.000633	20.804457
1556.391006	-3.017800	3.356400	-10.127000	26.516741	0.000635	20.791680
1557.387606	-3.026800	3.356400	-10.157000	26.520465	0.000633	20.795898
1558.385635	-2.975400	3.357800	-9.989600	26.506908	0.000632	20.791753
1559.394904	-3.003400	3.356300	-10.080000	26.500451	0.000633	20.798539
1560.389392	-3.018300	3.355200	-10.126000	26.490918	0.000630	20.795596
1561.385417	-3.010900	3.354500	-10.098000	26.440498	0.000631	20.805609
1562.389953	-3.007100	3.353600	-10.083000	26.444964	0.000629	20.805830
1563.392113	-2.992500	3.354700	-10.038000	26.438360	0.000632	20.783545
1564.387332	-3.009200	3.352200	-10.087000	26.477367	0.000630	20.783872
1565.392365	-3.012800	3.352300	-10.099000	26.459864	0.000632	20.798996
1566.387444	-2.995100	3.353600	-10.043000	26.433380	0.000630	20.787549
1567.387697	-3.003100	3.352100	-10.065000	26.416065	0.000630	20.767775
1568.390105	-3.000200	3.352700	-10.058000	26.392208	0.000629	20.796428
1569.387341	-3.004300	3.350700	-10.065000	26.363601	0.000628	20.789962
1570.388922	-2.994900	3.351500	-10.037000	26.392980	0.000627	20.792463
1571.394115	-3.017800	3.350300	-10.110000	26.381252	0.000627	20.787314
1572.389856	-2.987900	3.352000	-10.013000	26.358907	0.000624	20.777184
1573.389056	-2.984600	3.351400	-10.001000	26.394836	0.000627	20.783422
1574.390849	-3.011200	3.350200	-10.086000	26.417659	0.000625	20.802568
1575.389852	-2.995600	3.348700	-10.030000	26.464030	0.000622	20.786587
1576.389850	-2.997500	3.350000	-10.040000	26.498539	0.000624	20.780971
1577.396849	-3.014100	3.348400	-10.091000	26.526475	0.000624	20.772067
1578.393885	-3.023700	3.346400	-10.117000	26.523939	0.000623	20.773310
1579.391761	-2.994100	3.348800	-10.025000	26.504850	0.000621	20.788736
1580.392204	-3.014300	3.346900	-10.087000	26.498001	0.000622	20.788965
1581.392245	-2.986800	3.348800	-10.001000	26.533558	0.000621	20.762591
1582.392249	-2.996900	3.347200	-10.031000	26.548775	0.000618	20.770300
1583.390681	-3.003100	3.346700	-10.049000	26.533435	0.000620	20.804668
1584.391749	-2.967900	3.346000	-9.930100	26.521765	0.000616	20.778238
1585.391175	-3.012300	3.345000	-10.075000	26.515437	0.000620	20.777567
1586.395525	-3.021300	3.343500	-10.100000	26.530182	0.000617	20.764888
1587.397946	-2.994300	3.345300	-10.016000	26.555483	0.000617	20.782734
1588.399181	-3.025200	3.344200	-10.116000	26.564641	0.000615	20.780560
1589.396832	-3.005000	3.343000	-10.045000	26.590357	0.000615	20.771796
1590.397781	-3.001700	3.342500	-10.033000	26.635669	0.000615	20.754284
1591.398408	-3.010500	3.342900	-10.063000	26.620446	0.000616	20.772172
1592.402205	-3.000400	3.344000	-10.032000	26.578614	0.000615	20.797450
1593.401331	-2.975000	3.342000	-9.941300	26.571318	0.000615	20.789168
1594.396863	-3.005900	3.341700	-10.044000	26.583061	0.000612	20.771101
1595.403013	-3.013600	3.341900	-10.070000	26.588697	0.000612	20.772025
1596.398746	-3.007700	3.342100	-10.050000	26.606198	0.000612	20.789618
1597.402690	-3.035400	3.340400	-10.138000	26.628863	0.000612	20.760244
1598.399603	-3.001800	3.340200	-10.025000	26.623552	0.000611	20.774346
1599.400409	-3.003600	3.341800	-10.036000	26.610492	0.000607	20.772597
1600.400153	-3.007300	3.340100	-10.043000	26.566577	0.000609	20.773971
1601.401737	-2.989700	3.339200	-9.981000	26.571496	0.000608	20.757578
1602.400982	-2.996900	3.338900	-10.005000	26.602425	0.000610	20.772548
1603.398057	-2.992500	3.339400	-9.991100	26.609978	0.000607	20.780142
1604.402664	-2.979800	3.338200	-9.946500	26.657218	0.000605	20.783060
1605.405213	-2.996300	3.337200	-9.998400	26.663577	0.000607	20.751520
1606.405399	-2.992900	3.337000	-9.986100	26.685021	0.000607	20.770708
1607.402268	-3.001400	3.338300	-10.018000	26.734095	0.000605	20.770732
1608.406308	-3.004700	3.335900	-10.023000	26.726231	0.000606	20.762352
1609.400208	-3.002300	3.336100	-10.014000	26.737371	0.000605	20.768337
1610.401952	-3.007900	3.336800	-10.036000	26.721263	0.000606	20.773479
1611.406481	-3.013700	3.334500	-10.049000	26.724767	0.000600	20.759458
1612.401016	-3.031300	3.334700	-10.106000	26.701161	0.000600	20.754691
1613.403974	-2.991200	3.334100	-9.971900	26.690705	0.000601	20.765991
1614.401749	-3.010200	3.334600	-10.036000	26.650996	0.000600	20.753097
1615.404386	-2.989200	3.333500	-9.963800	26.632032	0.000600	20.743515
1616.402059	-2.993800	3.334100	-9.980600	26.633324	0.000600	20.770894
1617.406501	-2.986700	3.334500	-9.957900	26.620540	0.000601	20.771793
1618.408307	-2.998500	3.333800	-9.995900	26.624736	0.000598	20.761312
1619.405369	-2.989800	3.334500	-9.968400	26.626875	0.000598	20.746866
1620.409686	-3.007900	3.332000	-10.022000	26.613741	0.000598	20.753104
1621.404381	-2.999300	3.332300	-9.994100	26.604259	0.000598	20.743571
1622.408411	-2.994500	3.332100	-9.977500	26.608731	0.000595	20.763240
1623.406704	-2.992800	3.332500	-9.972100	26.613993	0.000596	20.767107
1624.412282	-2.993600	3.332600	-9.975100	26.658881	0.000596	20.743480
1625.406833	-2.998100	3.331000	-9.984900	26.658182	0.000594	20.750364
1626.412564	-2.989300	3.331000	-9.956900	26.679260	0.000593	20.737414
1627.411014	-2.995800	3.329600	-9.972800	26.689482	0.000594	20.743423
1628.407020	-2.982900	3.329500	-9.930500	26.717633	0.000592	20.740905
1629.409197	-3.038400	3.326700	-10.107000	26.754045	0.000590	20.735313
1630.405506	-3.022400	3.327500	-10.056000	26.794561	0.000591	20.749022
1631.407809	-2.995300	3.329500	-9.970500	26.802522	0.000592	20.760820
1632.408124	-3.016200	3.327300	-10.034000	26.775275	0.000590	20.737691
1633.409914	-2.997700	3.327300	-9.973000	26.708850	0.000591	20.750094
1634.408085	-3.029400	3.326800	-10.077000	26.688025	0.000588	20.741959
1635.410388	-3.013400	3.325400	-10.020000	26.672510	0.000591	20.751017
1636.410685	-2.986800	3.327600	-9.938000	26.645650	0.000588	20.756732
1637.407708	-3.007300	3.324600	-9.996800	26.641975	0.000588	20.735018
1638.412301	-2.991400	3.325100	-9.946200	26.612382	0.000586	20.743202
1639.407645	-2.982400	3.324900	-9.914500	26.585912	0.000588	20.743146
1640.412077	-3.004100	3.324700	-9.986900	26.603193	0.000585	20.764312
1641.412716	-3.016400	3.324000	-10.025000	26.602208	0.000586	20.737716
1642.410944	-3.013000	3.324000	-10.014000	26.597687	0.000585	20.762569
1643.410242	-2.999000	3.324300	-9.968500	26.598127	0.000585	20.734087
1644.411863	-3.011200	3.324100	-10.008000	26.609790	0.000585	20.732061
1645.410209	-3.021400	3.322200	-10.037000	26.603829	0.000585	20.736975
1646.407155	-2.984700	3.322500	-9.915400	26.599633	0.000583	20.757888
1647.410472	-2.998900	3.322100	-9.961500	26.575382	0.000584	20.741569
1648.407517	-2.986900	3.321700	-9.920600	26.635008	0.000583	20.740817
1649.411354	-3.016900	3.321300	-10.018000	26.613703	0.000585	20.718924
1650.414003	-2.982600	3.320800	-9.903700	26.665806	0.000583	20.722939
1651.413646	-2.978600	3.321500	-9.890800	26.675913	0.000583	20.742584
1652.419785	-2.975600	3.320700	-9.879700	26.677450	0.000581	20.732749
1653.413823	-3.002200	3.320300	-9.966700	26.719541	0.000581	20.729072
1654.414189	-3.003900	3.320900	-9.974400	26.738828	0.000579	20.725229
1655.415677	-2.992300	3.320500	-9.935200	26.770328	0.000580	20.733666
1656.418697	-3.008600	3.318500	-9.983300	26.794900	0.000580	20.734189
1657.410986	-3.015800	3.318300	-10.007000	26.785842	0.000579	20.732669
1658.414098	-3.008600	3.318500	-9.982600	26.789608	0.000578	20.725075
1659.417244	-3.018900	3.316800	-10.013000	26.755401	0.000577	20.724348
1660.415386	-2.996900	3.318200	-9.942800	26.699107	0.000577	20.755945
1661.411942	-2.985000	3.317200	-9.901000	26.672493	0.000577	20.732507
1662.418519	-2.996800	3.317100	-9.939300	26.634320	0.000573	20.738229
1663.425808	-3.005700	3.315400	-9.964100	26.619318	0.000577	20.731682
1664.415252	-2.979100	3.316500	-9.878700	26.629897	0.000574	20.721927
1665.417867	-3.005900	3.314900	-9.963300	26.679420	0.000573	20.754646
1666.415882	-3.004800	3.316000	-9.963000	26.696399	0.000573	20.720031
1667.416415	-3.002400	3.314800	-9.950900	26.712638	0.000573	20.746314
1668.420815	-3.006800	3.315400	-9.967400	26.726185	0.000574	20.740968
1669.418654	-2.991100	3.314600	-9.913300	26.738730	0.000572	20.717070
1670.412912	-2.984500	3.314900	-9.892900	26.781598	0.000573	20.752584
1671.420166	-3.009100	3.313600	-9.970200	26.791844	0.000571	20.724952
1672.416563	-3.001600	3.312600	-9.942100	26.760271	0.000571	20.733512
1673.421298	-3.016200	3.311200	-9.985100	26.757619	0.000569	20.728475
1674.421605	-3.009200	3.313400	-9.969700	26.745976	0.000569	20.720561
1675.421524	-3.019300	3.309500	-9.991700	26.730412	0.000569	20.729096
1676.422540	-2.996200	3.312200	-9.923200	26.675605	0.000568	20.713350
1677.425992	-2.979600	3.313200	-9.870000	26.660048	0.000568	20.726160
1678.420772	-3.002200	3.309800	-9.935200	26.658210	0.000569	20.729528
1679.421124	-3.009700	3.309700	-9.960000	26.634621	0.000565	20.707709
1680.423850	-3.010000	3.308300	-9.956700	26.696518	0.000566	20.721573
1681.422051	-2.988700	3.309900	-9.891300	26.737207	0.000566	20.724548
1682.423775	-3.011400	3.307800	-9.960500	26.753878	0.000565	20.711436
1683.426169	-2.995000	3.308200	-9.907200	26.761424	0.000563	20.715229
1684.421178	-3.012700	3.308500	-9.965100	26.755544	0.000564	20.696040
1685.426225	-3.015400	3.306600	-9.970000	26.785727	0.000564	20.715956
1686.427580	-3.026900	3.305800	-10.005000	26.785353	0.000563	20.722219
1687.425828	-2.992700	3.307900	-9.898500	26.819161	0.000562	20.720175
1688.426822	-2.980300	3.307700	-9.857300	26.842837	0.000564	20.712212
1689.426614	-3.016600	3.305600	-9.970800	26.884107	0.000562	20.731899
1690.430904	-3.005600	3.306000	-9.935700	26.890311	0.000562	20.711583
1691.433441	-2.970600	3.307700	-9.824900	26.899473	0.000561	20.722693
1692.435795	-2.990400	3.305900	-9.884900	26.904677	0.000561	20.716546
1693.434475	-3.011500	3.305400	-9.952000	26.895816	0.000560	20.714274
1694.429851	-2.991600	3.304300	-9.883200	26.915841	0.000558	20.714969
1695.435306	-3.010400	3.304300	-9.946800	26.923508	0.000558	20.704660
1696.435071	-2.993800	3.304700	-9.891600	26.939686	0.000559	20.711446
1697.433785	-3.013000	3.303400	-9.952000	26.918216	0.000558	20.738222
1698.438650	-3.015300	3.301900	-9.954600	26.891527	0.000555	20.717073
1699.435590	-2.994300	3.303800	-9.890700	26.848143	0.000555	20.712331
1700.435735	-2.984300	3.301900	-9.852500	26.851413	0.000559	20.708981
1701.442230	-2.992400	3.302600	-9.881000	26.841430	0.000555	20.707003
1702.436817	-3.024600	3.300700	-9.982200	26.807501	0.000554	20.730737
1703.436680	-2.988600	3.301500	-9.865400	26.837430	0.000556	20.704878
1704.440052	-2.987400	3.301000	-9.860600	26.827122	0.000551	20.704471
1705.439501	-2.989900	3.300800	-9.868200	26.820544	0.000553	20.721092
1706.438924	-3.002800	3.300200	-9.909500	26.825382	0.000552	20.686125
1707.441122	-2.990700	3.301300	-9.872500	26.851207	0.000551	20.734854
1708.441366	-3.022400	3.297000	-9.963600	26.858525	0.000550	20.709494
1709.438473	-3.011900	3.299200	-9.936100	26.881111	0.000550	20.704228
1710.441869	-3.016400	3.298100	-9.947300	26.915876	0.000549	20.707418
1711.441015	-3.003600	3.297900	-9.904900	26.913739	0.000549	20.695784
1712.439704	-3.023900	3.297800	-9.971000	26.876179	0.000545	20.702114
1713.443638	-3.007300	3.297700	-9.915700	26.812769	0.000547	20.720386
1714.443535	-2.992400	3.297400	-9.866600	26.768830	0.000548	20.693751
1715.441684	-2.968100	3.298200	-9.787900	26.687876	0.000546	20.694864
1716.454879	-2.994900	3.296000	-9.870400	26.691607	0.000546	20.709048
1717.443938	-3.020300	3.294800	-9.949900	26.696837	0.000544	20.694390
1718.446234	-3.020400	3.295200	-9.951400	26.724118	0.000544	20.718500
1719.447638	-2.986000	3.296100	-9.841100	26.778291	0.000544	20.704686
1720.453169	-2.981000	3.296700	-9.826600	26.761858	0.000541	20.704759
1721.448354	-2.988200	3.295300	-9.845100	26.785707	0.000540	20.705504
1722.448966	-2.989700	3.295000	-9.850400	26.774633	0.000542	20.711915
1723.446121	-2.994600	3.292600	-9.859100	26.795701	0.000541	20.695163
1724.446365	-2.992900	3.292700	-9.853800	26.793839	0.000541	20.688549
1725.453782	-2.980600	3.293400	-9.815400	26.783237	0.000539	20.708711
1726.447469	-3.003000	3.291400	-9.882800	26.790930	0.000540	20.695581
1727.448081	-2.990200	3.293100	-9.845800	26.804428	0.000539	20.693506
1728.449621	-3.009700	3.291500	-9.905200	26.813479	0.000539	20.721574
1729.448660	-3.011600	3.291200	-9.910400	26.825520	0.000536	20.709498
1730.446564	-2.968500	3.292000	-9.770900	26.837229	0.000536	20.699934
1731.448425	-3.012500	3.290500	-9.910500	26.802625	0.000536	20.714455
1732.449737	-2.992200	3.290800	-9.845300	26.826400	0.000536	20.710858
1733.446781	-3.007800	3.291400	-9.897500	26.848288	0.000534	20.721961
1734.452755	-3.010000	3.289900	-9.901500	26.856752	0.000534	20.704391
1735.454591	-3.028800	3.286800	-9.953300	26.858453	0.000532	20.698515
1736.453358	-3.001700	3.288000	-9.867000	26.895689	0.000533	20.701817
1737.453788	-2.981500	3.288200	-9.802000	26.921672	0.000531	20.727946
1738.460469	-3.002600	3.287000	-9.868600	26.940827	0.000531	20.701213
1739.453960	-3.009800	3.286400	-9.890500	26.918162	0.000529	20.717304
1740.457896	-3.016400	3.286900	-9.913500	26.893617	0.000532	20.703528
1741.457658	-3.000000	3.286700	-9.859100	26.890090	0.000530	20.719422
1742.454767	-2.979300	3.288200	-9.794500	26.898026	0.000529	20.714599
1743.455775	-2.999900	3.286400	-9.857900	26.945700	0.000526	20.701845
1744.457015	-3.008500	3.284600	-9.880100	26.943269	0.000527	20.714575
1745.458009	-3.032000	3.284900	-9.958700	26.931812	0.000526	20.715382
1746.457354	-3.006500	3.286500	-9.879700	26.922521	0.000527	20.681381
1747.459277	-3.005100	3.283600	-9.867200	26.952706	0.000526	20.693243
1748.456028	-3.049500	3.282200	-10.007000	26.978908	0.000526	20.706791
1749.461412	-3.013600	3.283500	-9.893700	27.025831	0.000526	20.689966
1750.460697	-3.015100	3.283500	-9.898700	27.041911	0.000524	20.704241
1751.457413	-3.011500	3.281400	-9.881000	27.062778	0.000522	20.694406
1752.461953	-2.998000	3.282400	-9.838600	27.056080	0.000521	20.693833
1753.460761	-3.015500	3.281600	-9.894300	27.019279	0.000521	20.723208
1754.459643	-3.003300	3.280900	-9.853300	27.040741	0.000520	20.672716
1755.466006	-2.978600	3.282800	-9.777700	27.045309	0.000520	20.702443
1756.468090	-3.009600	3.281000	-9.872600	27.077345	0.000520	20.699573
1757.461285	-2.988200	3.281700	-9.804200	27.098683	0.000520	20.692583
1758.464016	-3.001200	3.279200	-9.839900	27.072403	0.000519	20.706457
1759.465120	-3.001800	3.279800	-9.844000	27.096154	0.000516	20.714223
1760.468150	-3.006400	3.280200	-9.859500	27.061779	0.000518	20.698143
1761.465220	-3.029200	3.278300	-9.928500	27.061559	0.000516	20.698396
1762.466434	-3.009900	3.278500	-9.867600	27.010394	0.000517	20.677760
1763.461236	-3.004300	3.278400	-9.847500	26.970544	0.000516	20.684627
1764.466001	-2.986000	3.278400	-9.788600	26.953213	0.000517	20.706556
1765.465215	-2.989400	3.278400	-9.798300	26.915962	0.000515	20.698969
1766.464046	-3.001800	3.275700	-9.832100	26.884002	0.000515	20.691961
1767.462574	-3.029400	3.275600	-9.922000	26.867179	0.000515	20.705393
1768.459042	-3.001000	3.276600	-9.832500	26.832406	0.000513	20.710258
1769.460265	-2.986600	3.276200	-9.784200	26.879911	0.000512	20.685003
1770.463188	-2.990100	3.275700	-9.793300	26.876481	0.000512	20.725653
1771.466090	-2.999800	3.275700	-9.825800	26.879929	0.000510	20.704462
1772.463199	-3.008500	3.274800	-9.851300	26.907425	0.000510	20.689436
1773.466854	-3.012000	3.274600	-9.860900	26.953195	0.000510	20.684251
1774.466425	-2.997400	3.275400	-9.816800	26.993990	0.000508	20.695403
1775.467481	-2.984300	3.275100	-9.772200	27.042131	0.000509	20.697349
1776.470711	-3.005600	3.274100	-9.839500	27.084116	0.000506	20.703064
1777.472326	-3.016500	3.273100	-9.872400	27.101138	0.000506	20.705959
1778.467894	-2.976100	3.274000	-9.742500	27.110812	0.000505	20.715688
1779.476094	-2.995800	3.272500	-9.803200	27.119469	0.000507	20.702109
1780.470850	-3.013100	3.272400	-9.859100	27.155916	0.000504	20.697040
1781.466298	-2.986500	3.272500	-9.772600	27.186259	0.000503	20.691997
1782.471788	-2.989200	3.270500	-9.775500	27.161549	0.000505	20.703655
1783.471768	-3.018300	3.270100	-9.869600	27.122193	0.000503	20.696313
1784.466109	-2.976200	3.271000	-9.733800	27.095124	0.000502	20.684262
1785.467215	-3.012000	3.269300	-9.846300	27.102937	0.000500	20.706345
1786.470624	-3.018400	3.269000	-9.864600	27.129516	0.000500	20.705576
1787.463917	-3.012100	3.270600	-9.850900	27.133336	0.000500	20.706574
1788.472029	-2.964600	3.270400	-9.694800	27.178293	0.000500	20.712436
1789.469605	-2.989000	3.269500	-9.770900	27.182089	0.000498	20.715306
1790.468832	-3.007200	3.267300	-9.824700	27.203897	0.000499	20.714954
1791.469656	-3.008800	3.267700	-9.830300	27.213650	0.000499	20.697736
1792.464943	-2.984800	3.266800	-9.749800	27.210018	0.000497	20.703567
1793.469573	-2.970100	3.268500	-9.706300	27.236717	0.000496	20.709085
1794.472364	-3.001500	3.265600	-9.800400	27.246218	0.000496	20.690191
1795.475903	-2.981300	3.267200	-9.739200	27.205182	0.000496	20.704867
1796.465977	-3.016400	3.263700	-9.842500	27.213961	0.000494	20.698049
1797.472952	-3.011900	3.264900	-9.832600	27.192618	0.000493	20.709300
1798.470572	-3.003800	3.264800	-9.804100	27.132331	0.000493	20.706985
1799.471214	-2.981500	3.265200	-9.734200	27.092251	0.000492	20.712668
1800.472178	-2.997100	3.264700	-9.783800	27.040022	0.000492	20.705186
1801.470068	-2.975300	3.263800	-9.709600	26.960950	0.000494	20.720501
1802.470818	-3.005100	3.262800	-9.802900	26.881634	0.000491	20.706177
1803.467583	-2.998800	3.264200	-9.787700	26.835690	0.000491	20.707396
1804.471774	-3.004500	3.263900	-9.805200	26.807891	0.000488	20.709317
1805.474967	-3.008900	3.261500	-9.812200	26.857082	0.000489	20.721320
1806.473032	-3.021200	3.260700	-9.850300	26.918977	0.000488	20.720020
1807.473752	-3.016500	3.261900	-9.838600	26.964146	0.000487	20.720396
1808.469924	-2.998400	3.260600	-9.775400	26.973447	0.000486	20.721214
1809.468801	-3.009400	3.260500	-9.811500	26.981169	0.000486	20.715703
1810.468959	-3.002600	3.261100	-9.790200	26.990079	0.000486	20.725612
1811.468020	-3.000200	3.260100	-9.779900	27.012858	0.000487	20.702524
1812.477086	-2.994600	3.260000	-9.761600	27.054869	0.000485	20.714902
1813.469147	-2.993400	3.257900	-9.751000	27.079214	0.000484	20.714730
1814.470175	-3.003500	3.259500	-9.789000	27.123053	0.000484	20.715672
1815.473864	-3.023200	3.257000	-9.845000	27.082637	0.000482	20.724811
1816.475036	-3.004900	3.256700	-9.784200	27.052291	0.000482	20.733174
1817.472520	-2.994100	3.256700	-9.749100	27.105885	0.000482	20.738710
1818.486798	-3.015000	3.255100	-9.812400	27.136309	0.000483	20.724737
1819.480652	-3.027100	3.253800	-9.848100	27.154021	0.000479	20.704144
1820.484725	-3.009200	3.256400	-9.797600	27.186947	0.000477	20.720667
1821.477845	-2.958700	3.257500	-9.636700	27.218434	0.000479	20.716775
1822.482128	-3.021600	3.254500	-9.832400	27.171073	0.000477	20.720821
1823.479564	-2.976200	3.255800	-9.688200	27.197570	0.000477	20.711910
1824.478417	-2.990000	3.254100	-9.728900	27.189531	0.000477	20.719472
1825.476528	-2.987200	3.254900	-9.721400	27.191173	0.000475	20.737719
1826.478833	-3.001500	3.254500	-9.767300	27.208185	0.000477	20.708362
1827.478908	-3.015300	3.253700	-9.808800	27.265703	0.000474	20.722595
1828.482797	-2.987800	3.254100	-9.720600	27.287746	0.000472	20.724379
1829.475686	-3.030400	3.252300	-9.854800	27.327072	0.000474	20.740231
1830.475346	-3.009100	3.251000	-9.781100	27.312637	0.000474	20.718123
1831.483908	-2.996900	3.252300	-9.746500	27.332012	0.000470	20.735717
1832.476192	-2.978700	3.251700	-9.684000	27.327194	0.000471	20.726128
1833.478761	-2.973200	3.251000	-9.664800	27.269442	0.000471	20.759549
1834.481673	-2.986800	3.251900	-9.711600	27.246833	0.000470	20.705036
1835.479949	-2.991800	3.251100	-9.725700	27.181032	0.000469	20.717562
1836.478617	-2.985100	3.250800	-9.703200	27.174659	0.000469	20.728222
1837.480327	-2.999500	3.249700	-9.745000	27.160572	0.000470	20.730649
1838.480507	-2.991100	3.250500	-9.720600	27.148301	0.000466	20.722574
1839.479594	-3.008700	3.248900	-9.773800	27.183438	0.000467	20.733259
1840.485133	-2.997100	3.248500	-9.735500	27.241146	0.000467	20.729188
1841.476972	-3.001500	3.249200	-9.750900	27.274149	0.000467	20.739153
1842.480317	-3.004800	3.247900	-9.758000	27.323336	0.000464	20.726041
1843.481220	-3.005600	3.247200	-9.757600	27.339313	0.000464	20.717457
1844.480282	-2.983300	3.246000	-9.682000	27.336730	0.000464	20.736670
1845.481216	-3.004800	3.246000	-9.752600	27.335805	0.000463	20.739533
1846.480658	-3.006700	3.246600	-9.760000	27.309538	0.000460	20.737292
1847.482319	-3.024400	3.245000	-9.812700	27.277973	0.000461	20.741577
1848.479149	-3.000000	3.244900	-9.733800	27.234655	0.000462	20.751584
1849.493407	-2.960100	3.244800	-9.603700	27.230136	0.000460	20.733762
1850.482706	-3.021000	3.243300	-9.797400	27.153020	0.000459	20.721156
1851.479325	-3.018600	3.243400	-9.790000	27.180761	0.000459	20.750955
1852.483161	-3.022600	3.242500	-9.799600	27.201625	0.000460	20.732111
1853.478885	-2.992000	3.243300	-9.703200	27.254300	0.000458	20.753800
1854.485734	-3.000400	3.243200	-9.730100	27.289971	0.000456	20.742266
1855.486314	-3.014300	3.241300	-9.769000	27.292646	0.000456	20.746853
1856.481530	-3.002800	3.241400	-9.732000	27.360196	0.000455	20.744630
1857.485493	-3.017100	3.241200	-9.778100	27.398901	0.000454	20.732357
1858.485380	-3.010700	3.240800	-9.756500	27.418592	0.000455	20.743158
1859.481891	-2.994200	3.242100	-9.706300	27.413830	0.000453	20.742160
1860.487102	-2.997900	3.239900	-9.711900	27.416553	0.000452	20.724511
1861.486656	-2.993700	3.239500	-9.697400	27.410475	0.000454	20.754907
1862.486389	-3.007900	3.239800	-9.743700	27.397505	0.000452	20.767938
1863.488060	-2.976100	3.241000	-9.644800	27.392565	0.000452	20.734518
1864.490090	-2.996000	3.238300	-9.700900	27.417349	0.000452	20.728631
1865.487286	-3.000200	3.237800	-9.712000	27.416903	0.000450	20.745251
1866.487955	-2.995000	3.239400	-9.701500	27.433723	0.000451	20.747949
1867.492407	-3.015400	3.236800	-9.759200	27.478043	0.000447	20.741802
1868.489804	-2.981700	3.237600	-9.653000	27.476556	0.000447	20.754057
1869.490428	-3.013600	3.235700	-9.749100	27.472485	0.000447	20.757074
1870.490795	-2.991600	3.237000	-9.683200	27.477547	0.000446	20.743200
1871.492378	-3.005200	3.236800	-9.725800	27.466830	0.000446	20.757549
1872.486958	-2.991500	3.236700	-9.681300	27.478441	0.000444	20.751212
1873.494940	-2.984600	3.235300	-9.654900	27.477425	0.000445	20.741655
1874.486802	-3.004300	3.234000	-9.714600	27.470160	0.000443	20.757580
1875.491706	-3.017200	3.233800	-9.755800	27.488313	0.000440	20.741230
1876.494602	-2.992600	3.233700	-9.676000	27.505255	0.000443	20.745947
1877.487812	-3.028300	3.231700	-9.784300	27.542583	0.000441	20.760271
1878.489668	-2.992300	3.233000	-9.673200	27.550074	0.000442	20.746470
1879.495439	-2.982500	3.234900	-9.645600	27.546182	0.000440	20.737338
1880.494325	-2.983500	3.233600	-9.647100	27.491710	0.000440	20.744647
1881.491637	-2.999000	3.232500	-9.693000	27.470006	0.000439	20.759796
1882.496623	-3.008700	3.231700	-9.722400	27.464302	0.000437	20.740780
1883.495042	-2.992300	3.231600	-9.668600	27.463677	0.000439	20.733513
1884.491948	-2.992300	3.230300	-9.665000	27.469560	0.000436	20.765985
1885.491476	-2.965000	3.230400	-9.577100	27.513567	0.000434	20.756207
1886.494959	-2.968300	3.231400	-9.590500	27.530930	0.000435	20.758978
1887.491689	-2.979800	3.231500	-9.628400	27.564634	0.000434	20.757801
1888.492418	-2.999200	3.228800	-9.683000	27.589341	0.000432	20.752789
1889.491442	-3.007700	3.227900	-9.707200	27.586440	0.000432	20.759354
1890.491819	-2.997900	3.229800	-9.681200	27.614886	0.000432	20.766164
1891.498302	-2.990700	3.229300	-9.655700	27.621972	0.000431	20.770924
1892.497441	-2.974100	3.228000	-9.599400	27.610687	0.000432	20.762887
1893.494469	-2.988100	3.226900	-9.640000	27.603674	0.000429	20.760573
1894.499940	-2.988500	3.226000	-9.639800	27.582817	0.000429	20.768036
1895.496881	-3.012200	3.225000	-9.712900	27.548123	0.000429	20.767741
1896.492066	-3.003500	3.226500	-9.688800	27.487842	0.000427	20.750713
1897.498456	-3.013800	3.223800	-9.715400	27.472087	0.000429	20.778486
1898.497786	-2.984000	3.225400	-9.623400	27.442738	0.000427	20.770295
1899.496102	-2.998100	3.223800	-9.664000	27.474713	0.000426	20.756945
1900.497174	-2.991200	3.224500	-9.643900	27.476175	0.000425	20.780228
1901.495591	-2.997200	3.223400	-9.660600	27.492517	0.000425	20.761107
1902.495496	-2.979500	3.222800	-9.601100	27.515934	0.000424	20.743889
1903.500122	-3.000800	3.223200	-9.671400	27.536321	0.000423	20.751599
1904.494094	-2.993900	3.223100	-9.649200	27.562111	0.000422	20.761901
1905.492498	-3.002300	3.221600	-9.671500	27.594522	0.000420	20.766063
1906.497636	-3.011500	3.221200	-9.699800	27.593709	0.000421	20.770935
1907.505097	-2.992300	3.222500	-9.641600	27.578940	0.000417	20.766032
1908.495733	-2.984600	3.221000	-9.612900	27.547789	0.000419	20.774043
1909.497559	-2.975300	3.221300	-9.583400	27.517774	0.000417	20.779407
1910.501414	-3.011500	3.220600	-9.698600	27.502125	0.000417	20.775041
1911.499322	-3.008600	3.220100	-9.686400	27.508318	0.000416	20.772737
1912.503505	-2.998500	3.220200	-9.654900	27.538423	0.000414	20.795915
1913.498864	-3.010700	3.218600	-9.689700	27.575310	0.000415	20.799364
1914.496006	-3.025200	3.218800	-9.735600	27.577911	0.000415	20.762625
1915.502890	-3.009500	3.217400	-9.682000	27.570842	0.000415	20.778273
1916.497929	-3.004100	3.217000	-9.663500	27.597312	0.000413	20.763654
1917.497756	-2.986600	3.218000	-9.609700	27.621264	0.000413	20.774005
1918.503453	-3.040000	3.214700	-9.771600	27.640725	0.000410	20.771301
1919.501374	-3.002900	3.216400	-9.656600	27.673667	0.000408	20.776474
1920.502425	-2.997100	3.216400	-9.639400	27.667755	0.000408	20.780482
1921.499286	-2.997800	3.215400	-9.637400	27.680662	0.000408	20.805798
1922.502336	-3.011500	3.214500	-9.678600	27.684327	0.000406	20.805693
1923.500441	-3.016100	3.214700	-9.694500	27.662676	0.000407	20.796709
1924.503660	-3.006000	3.213300	-9.658500	27.624930	0.000407	20.784806
1925.499226	-2.998500	3.213300	-9.634200	27.635370	0.000407	20.775870
1926.501227	-3.029100	3.212500	-9.730200	27.631551	0.000403	20.791469
1927.503859	-2.992600	3.212700	-9.613800	27.609630	0.000402	20.783162
1928.505670	-2.982200	3.211000	-9.575100	27.642194	0.000403	20.789375
1929.501692	-2.996400	3.211100	-9.618600	27.678795	0.000402	20.779263
1930.505670	-3.007000	3.212000	-9.657400	27.648288	0.000404	20.768481
1931.503282	-2.994700	3.211000	-9.614300	27.600206	0.000400	20.785533
1932.502056	-2.969500	3.211300	-9.534200	27.606032	0.000400	20.794240
1933.506657	-3.017000	3.208600	-9.679700	27.635297	0.000399	20.790496
1934.502289	-3.016400	3.210400	-9.683100	27.645119	0.000397	20.765765
1935.508905	-2.999900	3.208400	-9.623900	27.632372	0.000398	20.785656
1936.506173	-3.010000	3.208600	-9.657100	27.665259	0.000397	20.812110
1937.508184	-2.985000	3.208900	-9.578200	27.655988	0.000397	20.806100
1938.505352	-2.975600	3.208900	-9.548000	27.689217	0.000395	20.777897
1939.507587	-2.990800	3.207600	-9.592200	27.667077	0.000395	20.794973
1940.506093	-2.978900	3.207700	-9.554600	27.626148	0.000394	20.796463
1941.503701	-2.989100	3.206400	-9.581500	27.616975	0.000395	20.790077
1942.506592	-3.014500	3.205900	-9.662500	27.608768	0.000394	20.800312
1943.503409	-3.002100	3.204900	-9.619700	27.624190	0.000393	20.796863
1944.506356	-3.000500	3.204700	-9.614300	27.610328	0.000389	20.792873
1945.507354	-3.006200	3.203900	-9.629800	27.594858	0.000390	20.806230
1946.504379	-3.018100	3.204900	-9.672400	27.590690	0.000390	20.806778
1947.505957	-3.012200	3.204500	-9.651700	27.614772	0.000386	20.793077
1948.511678	-2.984900	3.204200	-9.563200	27.609962	0.000388	20.802936
1949.504378	-3.005800	3.203600	-9.628800	27.602771	0.000387	20.798071
1950.503000	-3.027500	3.201700	-9.692600	27.642054	0.000386	20.799192
1951.509793	-2.984500	3.202500	-9.557000	27.654672	0.000384	20.802880
1952.505832	-2.982400	3.202600	-9.549900	27.650958	0.000385	20.820005
1953.506737	-3.009500	3.201100	-9.632900	27.678190	0.000384	20.797621
1954.510624	-2.997000	3.200300	-9.590700	27.696413	0.000384	20.824019
1955.507540	-2.992100	3.201800	-9.578400	27.689517	0.000382	20.820398
1956.507791	-3.003900	3.199400	-9.609900	27.696860	0.000382	20.821150
1957.510182	-2.978800	3.200100	-9.530700	27.702148	0.000382	20.805134
1958.511026	-3.013200	3.198400	-9.636200	27.727494	0.000380	20.797923
1959.505616	-2.988200	3.198500	-9.557300	27.745067	0.000379	20.800435
1960.513299	-3.009000	3.196400	-9.616900	27.748666	0.000378	20.788409
1961.507759	-2.995000	3.197800	-9.576500	27.796546	0.000379	20.814782
1962.512094	-3.023100	3.196300	-9.662100	27.816041	0.000376	20.811642
1963.512881	-2.992800	3.196900	-9.566700	27.890844	0.000376	20.812486
1964.506960	-2.996500	3.195100	-9.573500	27.888789	0.000376	20.808994
1965.509352	-2.974600	3.196000	-9.505700	27.865356	0.000376	20.813385
1966.513258	-2.997200	3.195900	-9.577200	27.820445	0.000375	20.810385
1967.510602	-3.010400	3.194300	-9.614900	27.732706	0.000373	20.830194
1968.509952	-3.004200	3.193700	-9.593400	27.682069	0.000371	20.803895
1969.510858	-3.006000	3.195200	-9.603700	27.657437	0.000370	20.830791
1970.509558	-2.979200	3.195000	-9.517500	27.630351	0.000371	20.827244
1971.512667	-2.989900	3.193300	-9.546500	27.586802	0.000370	20.821832
1972.516069	-3.000700	3.194600	-9.585100	27.625632	0.000370	20.834824
1973.514596	-2.985500	3.193100	-9.531500	27.659217	0.000370	20.830212
1974.513426	-3.002700	3.192100	-9.584200	27.709458	0.000369	20.825292
1975.509694	-2.995700	3.190800	-9.557400	27.751686	0.000368	20.808992
1976.513706	-3.002400	3.193000	-9.585300	27.752928	0.000369	20.826363
1977.516059	-2.994800	3.190200	-9.552800	27.801995	0.000365	20.820740
1978.514714	-2.982100	3.189300	-9.510000	27.808689	0.000366	20.808985
1979.515752	-3.001900	3.189100	-9.571700	27.837899	0.000362	20.830796
1980.519777	-2.995900	3.190500	-9.557300	27.847339	0.000363	20.827020
1981.514952	-3.013800	3.188300	-9.608100	27.809398	0.000362	20.837673
1982.515792	-3.001300	3.188100	-9.567300	27.759131	0.000362	20.838769
1983.515285	-3.051200	3.185100	-9.716900	27.736557	0.000360	20.830751
1984.520949	-2.981800	3.186900	-9.501800	27.709626	0.000360	20.839686
1985.518886	-2.985300	3.188900	-9.518700	27.745698	0.000360	20.833312
1986.518677	-2.987100	3.187000	-9.518800	27.795965	0.000359	20.836483
1987.516197	-2.997300	3.185000	-9.545100	27.765854	0.000356	20.837948
1988.515877	-2.990300	3.184700	-9.522400	27.766894	0.000356	20.841839
1989.515778	-3.004600	3.184100	-9.566200	27.774677	0.000355	20.831654
1990.517785	-2.999400	3.183900	-9.549300	27.802255	0.000355	20.862252
1991.518781	-2.993400	3.183700	-9.528500	27.803190	0.000354	20.843280
1992.515304	-3.026000	3.182300	-9.628600	27.837737	0.000350	20.851494
1993.517788	-3.018900	3.181900	-9.604600	27.854017	0.000354	20.844646
1994.522778	-2.996800	3.182100	-9.535500	27.883917	0.000351	20.857195
1995.520134	-2.974800	3.182100	-9.463800	27.898106	0.000351	20.871001
1996.519880	-2.994100	3.181200	-9.523600	27.914790	0.000349	20.846543
1997.523721	-2.992200	3.181800	-9.519600	27.889724	0.000347	20.839332
1998.524705	-2.985100	3.181600	-9.495600	27.900797	0.000349	20.833408
1999.523226	-3.025500	3.180100	-9.620800	27.917928	0.000348	20.878622
2000.527137	-2.955600	3.181300	-9.401900	27.903453	0.000348	20.846037
2001.520624	-2.990900	3.179500	-9.507800	27.943300	0.000348	20.833987
2002.526072	-3.026000	3.177300	-9.613400	27.922614	0.000348	20.837823
2003.526219	-3.013900	3.179200	-9.581100	27.917310	0.000345	20.832958
2004.522165	-3.008900	3.178400	-9.562700	27.876624	0.000344	20.838476
2005.527255	-2.978800	3.178300	-9.465800	27.906297	0.000343	20.820926
2006.528000	-2.996500	3.178700	-9.524000	27.949148	0.000342	20.825175
2007.524614	-2.979500	3.175800	-9.460500	27.979070	0.000341	20.833007
2008.524711	-2.992200	3.175800	-9.500700	27.994096	0.000340	20.843863
2009.530949	-2.986800	3.179200	-9.493400	28.029718	0.000339	20.837047
2010.524346	-2.985900	3.176900	-9.484400	27.977602	0.000339	20.841960
2011.523459	-3.014400	3.173600	-9.564800	27.971802	0.000338	20.852243
2012.526942	-2.998100	3.173500	-9.513200	27.975400	0.000337	20.822675
2013.529984	-3.010300	3.172100	-9.547700	27.946420	0.000335	20.841394
2014.527110	-2.978700	3.174800	-9.455800	27.927625	0.000335	20.827693
2015.528798	-3.012400	3.172600	-9.556100	27.970836	0.000336	20.822822
2016.531332	-3.010300	3.171600	-9.546500	27.997809	0.000333	20.824842
2017.526849	-3.009600	3.172300	-9.546500	28.036459	0.000334	20.837194
2018.529090	-2.983900	3.172600	-9.465000	28.020841	0.000333	20.824319
2019.525433	-2.994500	3.173000	-9.498900	28.007774	0.000329	20.835821
2020.529427	-2.967200	3.172800	-9.413300	27.961543	0.000329	20.803512
2021.530106	-2.992300	3.169500	-9.482200	27.946249	0.000329	20.812774
2022.529033	-3.006000	3.169600	-9.525800	27.968811	0.000328	20.811302
2023.528921	-3.006400	3.168500	-9.525200	27.980913	0.000329	20.818741
2024.527211	-3.026500	3.167800	-9.584400	28.028862	0.000328	20.814849
2025.527965	-3.010700	3.170000	-9.543700	28.047331	0.000326	20.838655
2026.529042	-3.000500	3.166200	-9.499400	28.076437	0.000327	20.814375
2027.532986	-3.024300	3.167200	-9.576800	28.130774	0.000326	20.823556
2028.528160	-2.996800	3.166300	-9.487400	28.152367	0.000324	20.830594
2029.529566	-3.013500	3.166000	-9.538700	28.169022	0.000324	20.808956
2030.525718	-3.010400	3.165400	-9.528100	28.119592	0.000324	20.818463
2031.529222	-2.983500	3.166400	-9.445300	28.072864	0.000324	20.816943
2032.532948	-3.002700	3.162700	-9.495900	28.052568	0.000321	20.816900
2033.530539	-3.008500	3.164400	-9.518300	27.983794	0.000320	20.813581
2034.529473	-3.015000	3.162800	-9.533700	27.945393	0.000321	20.812387
2035.532291	-3.008200	3.162300	-9.511800	27.927925	0.000319	20.796228
2036.528045	-3.004300	3.162400	-9.500200	27.956668	0.000320	20.820890
2037.533920	-2.997600	3.160000	-9.470800	27.967845	0.000317	20.808432
2038.534088	-3.002500	3.161900	-9.490900	27.965618	0.000318	20.795286
2039.528732	-2.983400	3.164500	-9.439700	27.963727	0.000315	20.813771
2040.533741	-3.026500	3.158500	-9.558200	27.965196	0.000315	20.804818
2041.530468	-2.999100	3.159200	-9.473700	28.028482	0.000316	20.813518
2042.533836	-3.017200	3.156600	-9.522500	28.047551	0.000315	20.800944
2043.536245	-3.016600	3.157300	-9.523500	28.095320	0.000312	20.777433
2044.535997	-3.007500	3.156100	-9.489700	28.114980	0.000310	20.806708
2045.542265	-2.985500	3.157300	-9.424100	28.153406	0.000312	20.796080
2046.535048	-3.002100	3.155900	-9.473000	28.150103	0.000311	20.815513
2047.532618	-3.004600	3.155900	-9.481900	28.169902	0.000311	20.812212
2048.538062	-3.020500	3.154100	-9.526500	28.176325	0.000309	20.818678
2049.537521	-3.007900	3.154100	-9.486500	28.189439	0.000310	20.786836
2050.539076	-2.974000	3.154700	-9.380500	28.221813	0.000308	20.799989
2051.538030	-2.996900	3.155300	-9.455800	28.237281	0.000308	20.786639
2052.540503	-3.016700	3.153600	-9.513100	28.222057	0.000306	20.802132
2053.542516	-3.001000	3.154100	-9.464500	28.205720	0.000306	20.808444
2054.541660	-2.990900	3.152300	-9.427300	28.196245	0.000305	20.791318
2055.541204	-2.993900	3.152100	-9.435900	28.247580	0.000304	20.795111
2056.541909	-3.003000	3.150300	-9.458800	28.235384	0.000306	20.787100
2057.539281	-3.041300	3.148500	-9.573800	28.206485	0.000304	20.802101
2058.544034	-3.009500	3.148400	-9.473700	28.187004	0.000302	20.784385
2059.545808	-3.018000	3.147600	-9.498800	28.169002	0.000302	20.790918
2060.541492	-3.002900	3.149100	-9.455300	28.198343	0.000301	20.764032
2061.545546	-2.999700	3.146900	-9.439000	28.185609	0.000302	20.784403
2062.543999	-2.974100	3.149200	-9.364700	28.164083	0.000299	20.781699
2063.545571	-2.980200	3.148600	-9.382600	28.152982	0.000299	20.783325
2064.541941	-2.984000	3.147500	-9.391400	28.140809	0.000298	20.788614
2065.543465	-3.023900	3.144800	-9.506500	28.156645	0.000298	20.801712
2066.544247	-3.022500	3.145000	-9.505300	28.164157	0.000296	20.788411
2067.545676	-3.027200	3.142900	-9.513400	28.158125	0.000297	20.768114
2068.552526	-2.995300	3.143800	-9.415700	28.109246	0.000295	20.783866
2069.542935	-2.984100	3.144100	-9.380900	28.085053	0.000294	20.763305
2070.545614	-3.002300	3.143300	-9.436400	28.056680	0.000294	20.793539
2071.542967	-3.007000	3.141500	-9.445300	28.030927	0.000293	20.784210
2072.544431	-3.005500	3.141000	-9.439300	28.018728	0.000294	20.774302
2073.545341	-3.063800	3.139700	-9.617400	28.045002	0.000292	20.769930
2074.544928	-2.994000	3.140800	-9.401300	28.104651	0.000292	20.774025
2075.548582	-2.991400	3.139700	-9.390800	28.134569	0.000293	20.781383
2076.549031	-3.002000	3.138600	-9.421200	28.178671	0.000290	20.762719
2077.549725	-2.986800	3.138800	-9.374000	28.199411	0.000289	20.789764
2078.548244	-3.005800	3.138100	-9.430700	28.205949	0.000288	20.790182
2079.552938	-3.008900	3.137000	-9.438300	28.161378	0.000290	20.774233
2080.554634	-3.023200	3.137000	-9.482800	28.136813	0.000288	20.780797
2081.549250	-3.006200	3.135500	-9.424200	28.136733	0.000288	20.778346
2082.547376	-2.992700	3.135700	-9.383600	28.132194	0.000287	20.792269
2083.550775	-3.000600	3.134100	-9.402300	28.070491	0.000287	20.782312
2084.553788	-2.999600	3.134900	-9.402400	28.044414	0.000286	20.772656
2085.560741	-3.006100	3.133300	-9.417600	28.017129	0.000286	20.787865
2086.552043	-2.982400	3.133700	-9.344600	28.043507	0.000285	20.778382
2087.550041	-2.994600	3.133300	-9.382400	28.047875	0.000284	20.771399
2088.550172	-2.990600	3.132900	-9.368100	28.105138	0.000285	20.777834
2089.551558	-3.012700	3.130400	-9.430000	28.164202	0.000282	20.770438
2090.553839	-3.029200	3.130300	-9.481000	28.204632	0.000281	20.779373
2091.549064	-2.981600	3.131000	-9.334400	28.233734	0.000283	20.766472
2092.549111	-2.998600	3.129400	-9.382100	28.263746	0.000280	20.762549
2093.552412	-2.981000	3.130700	-9.330700	28.227109	0.000282	20.756957
2094.553206	-2.976100	3.129500	-9.312900	28.183554	0.000282	20.776170
2095.552015	-3.006500	3.128100	-9.403900	28.153467	0.000278	20.793770
2096.552330	-3.007500	3.127800	-9.405800	28.139948	0.000278	20.764039
2097.549762	-2.998800	3.125300	-9.371300	28.135213	0.000276	20.768756
2098.554133	-3.021200	3.125000	-9.440700	28.149117	0.000276	20.760467
2099.553442	-3.003500	3.126000	-9.387300	28.157479	0.000273	20.780740
2100.549924	-3.017500	3.124100	-9.425800	28.198196	0.000275	20.760091
2101.555564	-3.014000	3.124400	-9.414400	28.267806	0.000274	20.761896
2102.553966	-2.995400	3.121300	-9.348100	28.297291	0.000275	20.765504
2103.554151	-2.987800	3.122500	-9.329300	28.326861	0.000274	20.781527
2104.555875	-2.994400	3.121300	-9.344800	28.356375	0.000274	20.773786
2105.555184	-3.003400	3.121600	-9.375300	28.391441	0.000272	20.763102
2106.551908	-2.980100	3.120400	-9.297900	28.363805	0.000272	20.775103
2107.552704	-3.013400	3.118300	-9.395300	28.296838	0.000272	20.752245
2108.552803	-2.982100	3.120000	-9.303700	28.251028	0.000269	20.753538
2109.553072	-3.011200	3.117300	-9.385000	28.249127	0.000268	20.764900
2110.553032	-3.009500	3.116400	-9.377400	28.282777	0.000269	20.764641
2111.552575	-2.971500	3.116400	-9.258700	28.315999	0.000268	20.758262
2112.571422	-3.009800	3.114300	-9.372900	28.333123	0.000269	20.761753
2113.553382	-3.004800	3.115400	-9.360400	28.322341	0.000266	20.773656
2114.559913	-3.025900	3.114400	-9.422500	28.321466	0.000267	20.745273
2115.555203	-2.975000	3.116400	-9.270300	28.329802	0.000264	20.761254
2116.556674	-3.047500	3.112900	-9.485100	28.296165	0.000265	20.762947
2117.563432	-2.994200	3.112800	-9.319700	28.289296	0.000263	20.769783
2118.558670	-2.971600	3.114600	-9.253700	28.295516	0.000263	20.766562
2119.561609	-2.992000	3.111500	-9.308600	28.352374	0.000261	20.762646
2120.558030	-2.984300	3.112000	-9.285700	28.333783	0.000263	20.787548
2121.557183	-3.001600	3.111300	-9.337900	28.372250	0.000261	20.767960
2122.558927	-3.006700	3.109900	-9.349600	28.407646	0.000260	20.739590
2123.564697	-2.996000	3.108200	-9.311000	28.397758	0.000259	20.761876
2124.555005	-3.022600	3.105300	-9.383900	28.422152	0.000259	20.755620
2125.560503	-2.978900	3.105800	-9.250800	28.394315	0.000256	20.747503
2126.555470	-2.972300	3.108200	-9.237400	28.393324	0.000256	20.747454
2127.561342	-2.988300	3.106700	-9.283100	28.427300	0.000258	20.750373
2128.561666	-3.015500	3.105100	-9.361800	28.399299	0.000256	20.741142
2129.558753	-2.992000	3.104100	-9.285800	28.402846	0.000255	20.745188
2130.562605	-3.013400	3.101600	-9.345100	28.390670	0.000254	20.773706
2131.561438	-3.020300	3.101500	-9.366900	28.390188	0.000253	20.732916
2132.562164	-2.999700	3.102800	-9.306600	28.401360	0.000252	20.756969
2133.556557	-2.990900	3.102100	-9.277600	28.429808	0.000254	20.724922
2134.560466	-3.011400	3.100300	-9.334000	28.436138	0.000253	20.727977
2135.557641	-3.022500	3.098200	-9.363000	28.420226	0.000252	20.760319
2136.558553	-3.004200	3.098600	-9.306800	28.406888	0.000252	20.754949
2137.560681	-2.999700	3.097100	-9.288700	28.406846	0.000249	20.751113
2138.560833	-3.010600	3.098400	-9.327800	28.439190	0.000253	20.744327
2139.560738	-3.013500	3.097100	-9.332200	28.453309	0.000251	20.749062
2140.562545	-3.016300	3.095600	-9.335600	28.515100	0.000249	20.726413
2141.560802	-3.002700	3.096100	-9.295900	28.463570	0.000249	20.726203
2142.562634	-2.990800	3.095800	-9.258200	28.391631	0.000250	20.731524
2143.559532	-2.997800	3.094000	-9.274000	28.349398	0.000248	20.735940
2144.562701	-3.026400	3.093400	-9.360300	28.331479	0.000250	20.748718
2145.564841	-2.987000	3.092000	-9.235100	28.319877	0.000246	20.719491
2146.567162	-2.975200	3.091400	-9.195700	28.307982	0.000245	20.744499
2147.564408	-2.987000	3.090300	-9.229000	28.337179	0.000245	20.735964
2148.563650	-2.994900	3.089300	-9.251700	28.405207	0.000246	20.726228
2149.568290	-2.980400	3.089200	-9.206000	28.424844	0.000245	20.731303
2150.564973	-3.008100	3.087800	-9.287200	28.484838	0.000244	20.737664
2151.565633	-2.993500	3.088400	-9.244700	28.499323	0.000244	20.725224
2152.566543	-3.025900	3.086100	-9.337300	28.482672	0.000243	20.733587
2153.565382	-2.982400	3.087800	-9.206800	28.442381	0.000245	20.736161
2154.565546	-3.001800	3.085200	-9.260300	28.415853	0.000243	20.723197
2155.565638	-3.001000	3.084000	-9.253500	28.441500	0.000242	20.736222
2156.567533	-2.981300	3.085500	-9.196300	28.457484	0.000242	20.709643
2157.562834	-2.991500	3.083200	-9.222500	28.490290	0.000242	20.719446
2158.564396	-3.002600	3.082300	-9.253400	28.528354	0.000241	20.725063
2159.567025	-3.026700	3.080000	-9.321100	28.541733	0.000241	20.757503
2160.569655	-2.977300	3.080600	-9.170900	28.558529	0.000238	20.718941
2161.567847	-3.025000	3.078800	-9.311900	28.585713	0.000238	20.728776
2162.570961	-2.978900	3.078400	-9.169200	28.596413	0.000238	20.735759
2163.569152	-2.977700	3.079000	-9.166600	28.618191	0.000238	20.741098
2164.565670	-3.004100	3.077300	-9.243200	28.565884	0.000238	20.743419
2165.572110	-2.983100	3.077300	-9.179100	28.483881	0.000236	20.740494
2166.566159	-3.011800	3.074300	-9.257000	28.453447	0.000237	20.727863
2167.570578	-3.003000	3.074000	-9.229800	28.461207	0.000237	20.730936
2168.569306	-3.003200	3.073100	-9.227500	28.484388	0.000236	20.755229
2169.569055	-3.003300	3.071800	-9.224300	28.497797	0.000236	20.728903
2170.570757	-2.987200	3.072600	-9.177500	28.500591	0.000235	20.723656
2171.574943	-3.009000	3.070100	-9.236200	28.530327	0.000234	20.720411
2172.570879	-2.984800	3.070900	-9.164600	28.545387	0.000233	20.749329
2173.566893	-3.003400	3.069500	-9.217900	28.549202	0.000232	20.724247
2174.570562	-2.985000	3.067900	-9.155000	28.560550	0.000233	20.734254
2175.566808	-3.018000	3.065600	-9.250600	28.502217	0.000232	20.720552
2176.576772	-2.945600	3.067600	-9.034600	28.447453	0.000233	20.735578
2177.568912	-2.992900	3.065300	-9.173300	28.377635	0.000232	20.729284
2178.569865	-3.002200	3.064400	-9.198800	28.377010	0.000231	20.723439
2179.569084	-3.000600	3.064700	-9.194600	28.400530	0.000231	20.711086
2180.569670	-3.008700	3.062200	-9.212400	28.452699	0.000231	20.734697
2181.570837	-3.028600	3.060900	-9.268600	28.469447	0.000229	20.718845
2182.572766	-3.000100	3.061200	-9.183000	28.513780	0.000230	20.705642
2183.570498	-3.007500	3.059000	-9.199500	28.536275	0.000228	20.705537
2184.573350	-2.999700	3.057900	-9.171900	28.544199	0.000230	20.710673
2185.576362	-3.010100	3.056700	-9.200100	28.508245	0.000229	20.741796
2186.575602	-3.014000	3.056700	-9.211400	28.528093	0.000230	20.705832
2187.576898	-3.001900	3.054500	-9.168800	28.491320	0.000230	20.707680
2188.575598	-2.994800	3.053100	-9.142000	28.497514	0.000229	20.714866
2189.581383	-3.013800	3.053900	-9.202900	28.521031	0.000231	20.717687
2190.577804	-2.992300	3.053000	-9.134000	28.578788	0.000229	20.719904
2191.577587	-3.005000	3.051100	-9.167400	28.607140	0.000227	20.714793
2192.582440	-2.995700	3.051900	-9.141900	28.641775	0.000226	20.729289
2193.575759	-2.964300	3.049900	-9.039200	28.612434	0.000226	20.714909
2194.581365	-3.002700	3.049100	-9.154900	28.647271	0.000226	20.714435
2195.578722	-3.015600	3.046600	-9.185600	28.649601	0.000226	20.727687
2196.578630	-3.007700	3.047000	-9.163200	28.675517	0.000226	20.705425
2197.576909	-2.995300	3.047000	-9.125200	28.712333	0.000226	20.712637
2198.582653	-2.989600	3.045500	-9.104100	28.674049	0.000226	20.697308
2199.579642	-2.974700	3.043900	-9.054000	28.664041	0.000226	20.715204
2200.582812	-2.985100	3.044200	-9.086100	28.640949	0.000226	20.711860
2201.581446	-2.982400	3.042200	-9.072000	28.642411	0.000224	20.719971
2202.580085	-2.984600	3.041700	-9.076500	28.647161	0.000225	20.711952
2203.587904	-3.021900	3.038800	-9.181000	28.678482	0.000223	20.709360
2204.582394	-3.002300	3.038300	-9.121300	28.606600	0.000225	20.702869
2205.583911	-3.000100	3.037000	-9.110500	28.571890	0.000226	20.701102
2206.579900	-2.982400	3.036700	-9.056000	28.529908	0.000222	20.698650
2207.584014	-2.988400	3.035400	-9.069000	28.490658	0.000224	20.688994
2208.588892	-2.988800	3.034000	-9.066900	28.452024	0.000223	20.721214
2209.582098	-3.007300	3.032000	-9.117200	28.486347	0.000224	20.699827
2210.585270	-3.045200	3.030500	-9.226800	28.496877	0.000222	20.686247
2211.578508	-2.970400	3.032100	-9.005900	28.501438	0.000223	20.706964
2212.582878	-2.997700	3.029800	-9.081900	28.493312	0.000223	20.687873
2213.582788	-2.991400	3.029000	-9.060000	28.489710	0.000220	20.713646
2214.581061	-3.009500	3.026800	-9.107900	28.498662	0.000223	20.706539
2215.580725	-2.996500	3.025300	-9.064400	28.506587	0.000220	20.687965
2216.585164	-3.001200	3.025200	-9.077800	28.536995	0.000220	20.706736
2217.578501	-3.000500	3.022600	-9.068500	28.590593	0.000220	20.691014
2218.579159	-2.989800	3.023700	-9.039300	28.626697	0.000220	20.712679
2219.588539	-3.021700	3.021400	-9.128800	28.680536	0.000221	20.680132
2220.584826	-3.014300	3.020400	-9.102800	28.689425	0.000221	20.680550
2221.584246	-3.006700	3.020600	-9.081400	28.714845	0.000220	20.696199
2222.581396	-2.988900	3.018200	-9.020000	28.681795	0.000220	20.710326
2223.583983	-3.004400	3.017100	-9.063300	28.651415	0.000219	20.689683
2224.586522	-2.997200	3.016400	-9.039200	28.651287	0.000220	20.681492
2225.585021	-3.003800	3.016100	-9.058600	28.646830	0.000219	20.704981
2226.589398	-3.008400	3.013900	-9.066100	28.656117	0.000219	20.705325
2227.586246	-2.997100	3.013600	-9.031100	28.685352	0.000219	20.703478
2228.583068	-2.973800	3.011900	-8.955800	28.758194	0.000218	20.694819
2229.587430	-3.024700	3.009400	-9.101700	28.773031	0.000219	20.718300
2230.587298	-3.026600	3.007100	-9.099900	28.807741	0.000217	20.718652
2231.584893	-3.005000	3.007400	-9.036400	28.820547	0.000219	20.712111
2232.587608	-3.031700	3.005800	-9.111900	28.839093	0.000218	20.708508
2233.584625	-2.990000	3.005600	-8.985500	28.828072	0.000219	20.702147
2234.590066	-2.980900	3.004300	-8.954600	28.848831	0.000219	20.712154
2235.590151	-2.995500	3.001700	-8.990300	28.892572	0.000217	20.717339
2236.590396	-2.996800	3.001700	-8.994000	28.909565	0.000218	20.713120
2237.591595	-3.011200	2.999400	-9.030400	28.869883	0.000217	20.690212
2238.592804	-2.990200	2.998800	-8.965700	28.843048	0.000215	20.703008
2239.591958	-3.016600	2.998300	-9.041800	28.824263	0.000218	20.716328
2240.592723	-2.998000	2.995800	-8.980400	28.775090	0.000217	20.713736
2241.594504	-2.988300	2.995000	-8.949000	28.741142	0.000217	20.692816
2242.591004	-3.013900	2.993800	-9.022000	28.722460	0.000214	20.696283
2243.586719	-3.002700	2.991600	-8.982400	28.692999	0.000216	20.712602
2244.591413	-3.003000	2.992100	-8.983800	28.697804	0.000217	20.712226
2245.592662	-2.970800	2.990100	-8.881800	28.680031	0.000216	20.701436
2246.597453	-3.007800	2.986900	-8.982500	28.710379	0.000215	20.710668
2247.593740	-3.021000	2.985900	-9.020100	28.744620	0.000214	20.728564
2248.594823	-3.009400	2.984700	-8.979800	28.748037	0.000216	20.713513
2249.593624	-2.982300	2.984000	-8.898700	28.750917	0.000215	20.695075
2250.594106	-2.974200	2.982900	-8.870800	28.773951	0.000214	20.716382
2251.595855	-2.977400	2.982000	-8.877700	28.794583	0.000214	20.712034
2252.592582	-3.002300	2.980700	-8.948000	28.799736	0.000215	20.706320
2253.593281	-3.014700	2.978500	-8.977600	28.773774	0.000215	20.730903
2254.592240	-3.002100	2.978300	-8.939800	28.762794	0.000213	20.711308
2255.593988	-3.008900	2.976200	-8.954100	28.720753	0.000214	20.707841
2256.600303	-3.007200	2.974300	-8.943600	28.725858	0.000214	20.705396
2257.595696	-2.975800	2.973900	-8.848900	28.721712	0.000212	20.732990
2258.593646	-3.036400	2.971300	-9.021600	28.740744	0.000213	20.703794
2259.592462	-3.011900	2.970000	-8.943700	28.757414	0.000211	20.702569
2260.592876	-3.001900	2.969000	-8.911700	28.780528	0.000212	20.727276
2261.597401	-3.007600	2.966300	-8.920300	28.830185	0.000213	20.734149
2262.598737	-3.014100	2.966600	-8.940400	28.877301	0.000212	20.713808
2263.600868	-3.001100	2.963700	-8.893000	28.890302	0.000212	20.709836
2264.598088	-2.984300	2.962600	-8.840100	28.900193	0.000212	20.725016
2265.597520	-2.982600	2.961500	-8.831300	28.893774	0.000213	20.713334
2266.602567	-3.012000	2.957900	-8.908200	28.911610	0.000213	20.729407
2267.600361	-3.026900	2.957600	-8.951200	28.943492	0.000212	20.729758
2268.596529	-3.019800	2.955700	-8.924900	28.954512	0.000215	20.723791
2269.595721	-2.998000	2.954400	-8.856800	28.995530	0.000211	20.702526
2270.595412	-3.023200	2.953100	-8.926600	28.987658	0.000213	20.725417
2271.595365	-3.021200	2.951400	-8.915500	28.995041	0.000212	20.731433
2272.598476	-2.994000	2.951700	-8.837000	29.004478	0.000212	20.703481
2273.595022	-3.007800	2.949000	-8.868900	29.046190	0.000212	20.711844
2274.598364	-2.996100	2.948400	-8.832000	29.067147	0.000213	20.710200
2275.594614	-2.989000	2.946800	-8.806800	29.101816	0.000214	20.713839
2276.594582	-2.986000	2.945000	-8.792700	29.133319	0.000213	20.719031
2277.596660	-3.011400	2.941700	-8.857700	29.140378	0.000213	20.714289
2278.596957	-2.998700	2.943000	-8.824000	29.156871	0.000213	20.718107
2279.594877	-3.005400	2.940900	-8.837500	29.165317	0.000212	20.716186
2280.596710	-2.972100	2.940300	-8.737000	29.162549	0.000211	20.711025
2281.597141	-2.993000	2.936000	-8.786200	29.207695	0.000211	20.738029
2282.596887	-2.989600	2.935300	-8.773800	29.212376	0.000209	20.720460
2283.601686	-3.014400	2.932400	-8.837500	29.222758	0.000211	20.712430
2284.598938	-2.995200	2.932100	-8.781300	29.183412	0.000210	20.710712
2285.598169	-3.009900	2.929400	-8.815000	29.198389	0.000210	20.713951
2286.599534	-2.983500	2.928500	-8.734000	29.196256	0.000211	20.735985
2287.602346	-3.008700	2.927200	-8.805700	29.155650	0.000212	20.722566
2288.604600	-2.999300	2.925400	-8.772900	29.131383	0.000209	20.720873
2289.600070	-2.965700	2.924200	-8.671600	29.146166	0.000211	20.722493
2290.599667	-2.971500	2.923600	-8.685500	29.147407	0.000211	20.722795
2291.599922	-3.011000	2.919600	-8.789900	29.202435	0.000210	20.711864
2292.599756	-3.026900	2.916800	-8.827700	29.194338	0.000210	20.729784
2293.602393	-2.982600	2.918500	-8.704500	29.171582	0.000211	20.727241
2294.602857	-3.005000	2.914200	-8.756600	29.171832	0.000209	20.729865
2295.601172	-3.004000	2.911700	-8.745600	29.174442	0.000209	20.729175
2296.599494	-2.994300	2.910500	-8.712900	29.204672	0.000211	20.734034
2297.600681	-2.999000	2.908300	-8.721900	29.197474	0.000210	20.718245
2298.596927	-3.010200	2.907700	-8.751500	29.202472	0.000209	20.738456
2299.604121	-3.019000	2.905500	-8.770900	29.228149	0.000210	20.735407
2300.605793	-2.984400	2.905200	-8.668000	29.238133	0.000209	20.737409
2301.601306	-3.002900	2.905100	-8.720900	29.244305	0.000209	20.725610
2302.601904	-3.015800	2.900800	-8.747000	29.264359	0.000209	20.710257
2303.601960	-3.011200	2.898400	-8.726800	29.296530	0.000210	20.718023
2304.605911	-3.004200	2.896600	-8.700700	29.239649	0.000208	20.734195
2305.605017	-3.005000	2.895500	-8.699700	29.197676	0.000211	20.723664
2306.607555	-2.999200	2.894200	-8.679200	29.182716	0.000209	20.732298
2307.610861	-2.985800	2.892400	-8.634700	29.202949	0.000210	20.739411
2308.608194	-2.980200	2.889400	-8.610500	29.224770	0.000209	20.722519
2309.604763	-2.991800	2.888300	-8.640500	29.227893	0.000209	20.742262
2310.609558	-2.976100	2.886100	-8.588500	29.224373	0.000209	20.737292
2311.606760	-3.022900	2.882700	-8.713700	29.228088	0.000209	20.725863
2312.609390	-2.998700	2.882000	-8.641100	29.241782	0.000209	20.724489
2313.613617	-2.984600	2.882200	-8.601200	29.285165	0.000210	20.712259
2314.609594	-2.983800	2.879000	-8.589500	29.298632	0.000210	20.723935
2315.616502	-2.998200	2.877600	-8.626600	29.342758	0.000210	20.727630
2316.610114	-3.005900	2.875000	-8.641500	29.334363	0.000208	20.727704
2317.610341	-3.038700	2.871000	-8.722600	29.339507	0.000208	20.749485
2318.606857	-3.002500	2.870700	-8.618000	29.357311	0.000209	20.727599
2319.610553	-3.010100	2.868700	-8.633900	29.408589	0.000209	20.717167
2320.612197	-2.992200	2.866300	-8.575700	29.434456	0.000209	20.721902
2321.611112	-3.000700	2.864500	-8.594900	29.427327	0.000209	20.722302
2322.612200	-2.998100	2.862800	-8.581200	29.389985	0.000210	20.721175
2323.614048	-2.985100	2.860700	-8.538100	29.315476	0.000211	20.749447
2324.611734	-3.006300	2.857300	-8.589500	29.189431	0.000210	20.725787
2325.614804	-2.968800	2.857000	-8.481100	29.181352	0.000212	20.739932
2326.610889	-2.990800	2.855200	-8.538100	29.212780	0.000213	20.746946
2327.611695	-2.956400	2.854200	-8.436300	29.188648	0.000213	20.728317
2328.615615	-3.032100	2.850100	-8.640800	29.213836	0.000209	20.742321
2329.612832	-3.005800	2.847100	-8.556900	29.238125	0.000211	20.742617
2330.617250	-3.005300	2.846800	-8.554200	29.201767	0.000213	20.735374
2331.620945	-2.989500	2.845700	-8.506500	29.170810	0.000210	20.760604
2332.618218	-2.998700	2.842400	-8.523100	29.126206	0.000210	20.736994
2333.618501	-3.018300	2.839300	-8.569100	29.142222	0.000211	20.742702
2334.615169	-2.957200	2.839300	-8.395500	29.154133	0.000210	20.750911
2335.617340	-2.973300	2.836200	-8.432300	29.191372	0.000211	20.751926
2336.617783	-2.960600	2.834700	-8.391900	29.203055	0.000208	20.759433
2337.614096	-3.015200	2.831400	-8.536300	29.173834	0.000210	20.755590
2338.616707	-3.008800	2.829600	-8.513000	29.151461	0.000209	20.759124
2339.621465	-3.031800	2.825600	-8.564500	29.155054	0.000208	20.763694
2340.616210	-3.016500	2.824900	-8.520700	29.201728	0.000209	20.759992
2341.621373	-2.973300	2.823000	-8.392600	29.253729	0.000208	20.770670
2342.619508	-2.989700	2.821400	-8.434200	29.247728	0.000209	20.756087
2343.621271	-2.999800	2.818400	-8.453800	29.275261	0.000209	20.757756
2344.618901	-2.989000	2.815600	-8.414300	29.329188	0.000210	20.758526
2345.619815	-3.018500	2.811300	-8.484700	29.285232	0.000211	20.770176
2346.623560	-3.012100	2.810000	-8.462200	29.235353	0.000211	20.770170
2347.619258	-3.013400	2.807600	-8.458900	29.235995	0.000211	20.746634
2348.624484	-3.032900	2.806000	-8.508900	29.239135	0.000210	20.768291
2349.621638	-3.037200	2.802200	-8.509900	29.249107	0.000210	20.765064
2350.621021	-3.020800	2.800500	-8.458700	29.282610	0.000211	20.772749
2351.622405	-3.009200	2.797700	-8.417300	29.269650	0.000209	20.764904
2352.627353	-3.001800	2.796400	-8.393400	29.228465	0.000210	20.775083
2353.618507	-2.983600	2.794400	-8.337100	29.159958	0.000208	20.771954
2354.620288	-3.006000	2.791500	-8.390000	29.118702	0.000208	20.767841
2355.624671	-3.012600	2.787500	-8.396700	29.120767	0.000210	20.772292
2356.619784	-2.998600	2.785800	-8.352400	29.127972	0.000208	20.757741
2357.626226	-3.010600	2.782800	-8.376100	29.136613	0.000208	20.765500
2358.620992	-2.985800	2.782400	-8.305900	29.114961	0.000209	20.775451
2359.624245	-2.976500	2.776800	-8.264000	29.119727	0.000209	20.771244
2360.620194	-2.975000	2.776700	-8.259100	29.165566	0.000209	20.763380
2361.626058	-2.965700	2.774100	-8.225600	29.221974	0.000207	20.779920
2362.625077	-3.007200	2.770600	-8.331100	29.253717	0.000207	20.796263
2363.623324	-2.991200	2.766700	-8.274300	29.258043	0.000211	20.772647
2364.623653	-3.017900	2.761900	-8.333800	29.229917	0.000208	20.767062
2365.624128	-3.011500	2.759200	-8.308000	29.158782	0.000209	20.783571
2366.624974	-3.009700	2.756100	-8.293400	29.127652	0.000209	20.791084
2367.623600	-2.987400	2.754400	-8.227500	29.143840	0.000209	20.775627
2368.624254	-2.992000	2.752300	-8.233200	29.106593	0.000210	20.772708
2369.623542	-3.002500	2.748900	-8.251400	29.080461	0.000208	20.792370
2370.624143	-2.999800	2.745100	-8.232800	29.080063	0.000209	20.781065
2371.625444	-3.010000	2.741500	-8.250300	29.104502	0.000208	20.772499
2372.627591	-2.998900	2.740400	-8.217000	29.138181	0.000208	20.784623
2373.630200	-3.000100	2.735500	-8.206600	29.182289	0.000208	20.789242
2374.622736	-2.992400	2.732800	-8.177000	29.177902	0.000208	20.770121
2375.625295	-2.996900	2.730500	-8.181400	29.204966	0.000208	20.804981
2376.626322	-2.996400	2.726100	-8.167800	29.238049	0.000209	20.781421
2377.627472	-3.007200	2.723500	-8.189400	29.303074	0.000208	20.776778
2378.627150	-2.985700	2.720500	-8.121100	29.311934	0.000209	20.782862
2379.627912	-3.022800	2.715400	-8.205800	29.357074	0.000207	20.801329
2380.634670	-2.995700	2.713700	-8.128400	29.411712	0.000207	20.782905
2381.632347	-2.976300	2.710000	-8.064500	29.390200	0.000208	20.790146
2382.627494	-2.993900	2.705600	-8.099300	29.344640	0.000209	20.808712
2383.633690	-3.022100	2.701400	-8.163500	29.332481	0.000210	20.803570
2384.627522	-3.000800	2.698600	-8.096700	29.345550	0.000209	20.795405
2385.625816	-2.992300	2.695100	-8.063600	29.372659	0.000208	20.791433
2386.627816	-2.991200	2.692200	-8.051300	29.354238	0.000207	20.791833
2387.628805	-2.994400	2.687400	-8.046400	29.347456	0.000209	20.803016
2388.628026	-3.005300	2.683500	-8.064000	29.372830	0.000208	20.800140
2389.628006	-2.986200	2.681000	-8.005100	29.407698	0.000209	20.796877
2390.628372	-2.989500	2.676300	-8.000300	29.471546	0.000207	20.783471
2391.630342	-2.990000	2.671000	-7.984100	29.535299	0.000208	20.811224
2392.631782	-3.036300	2.666700	-8.095800	29.535916	0.000207	20.810424
2393.624292	-3.010400	2.662800	-8.014900	29.535317	0.000208	20.806975
2394.631463	-2.981400	2.660800	-7.932000	29.561951	0.000208	20.822917
2395.625600	-2.996300	2.656300	-7.957700	29.573246	0.000207	20.808225
2396.630315	-3.001600	2.651200	-7.956800	29.609829	0.000207	20.796267
2397.626885	-3.003400	2.647000	-7.949400	29.586043	0.000208	20.781297
2398.628463	-2.984600	2.644500	-7.892000	29.554431	0.000207	20.803958
2399.628847	-3.008300	2.637700	-7.931500	29.494272	0.000208	20.798792
2400.627858	-2.997900	2.634700	-7.897400	29.513875	0.000207	20.820448
2401.626786	-2.989300	2.630100	-7.861000	29.556905	0.000209	20.792227
2402.631055	-3.015600	2.625800	-7.916800	29.591705	0.000208	20.809764
2403.629097	-3.003500	2.620500	-7.869700	29.636345	0.000209	20.816360
2404.629287	-2.984800	2.617200	-7.811000	29.615162	0.000210	20.791211
2405.636725	-2.998000	2.611100	-7.826100	29.622858	0.000209	20.790910
2406.635009	-2.995500	2.605600	-7.803800	29.681892	0.000208	20.806803
2407.640270	-3.032900	2.600200	-7.885800	29.679889	0.000209	20.792455
2408.637307	-3.005600	2.595000	-7.798600	29.672688	0.000208	20.830239
2409.629796	-2.995900	2.589000	-7.755300	29.666274	0.000208	20.812868
2410.641764	-2.954300	2.586400	-7.640300	29.707759	0.000209	20.825769
2411.635499	-3.008500	2.579000	-7.757800	29.696503	0.000209	20.827222
2412.635443	-3.020100	2.572500	-7.767900	29.715565	0.000211	20.827001
2413.637033	-2.983400	2.568800	-7.662800	29.734474	0.000209	20.822358
2414.640234	-2.995300	2.562300	-7.673500	29.747471	0.000208	20.809383
2415.635642	-3.039600	2.556700	-7.767700	29.753212	0.000207	20.847413
2416.640139	-2.998100	2.549100	-7.641800	29.769501	0.000207	20.795085
2417.642554	-2.991700	2.546100	-7.615500	29.775046	0.000208	20.816323
2418.638732	-3.022400	2.538400	-7.670800	29.796727	0.000209	20.831545
2419.639720	-2.975700	2.534100	-7.539400	29.803586	0.000212	20.828503
2420.637061	-3.019100	2.526100	-7.625900	29.798859	0.000209	20.820418
2421.643532	-3.018000	2.519400	-7.602200	29.831593	0.000210	20.816914
2422.639548	-3.033700	2.512900	-7.622600	29.886989	0.000210	20.823460
2423.639962	-2.985100	2.509200	-7.489700	29.915964	0.000209	20.831342
2424.636334	-2.989600	2.501100	-7.476600	29.867911	0.000208	20.827456
2425.638866	-2.981400	2.494600	-7.436400	29.806774	0.000208	20.824605
