LabVIEW Measurement	
Writer_Version	2
Reader_Version	2
Separator	Tab
Decimal_Separator	.
Multi_Headings	No
X_Columns	One
Time_Pref	Absolute
Operator	admin
Description	Clolumns are: time, Current, Voltage, Power, Battery Temp, and Chamber Temp
Date	2024/08/16
Time	13:06:06.104549407958984375
***End_of_Header***	
	
Channels	6						
Samples	1	1	1	1	1	1	
Date	2024/09/01	2024/09/01	2024/09/01	2024/09/01	2024/09/01	2024/09/01	
Time	19:39:19.3668317794799804687	19:39:19.3739786148071289062	19:39:19.3824405670166015625	19:39:19.3513751029968261719	19:39:19.3513751029968261719	19:39:19.3513751029968261719	
X_Dimension	Time	Time	Time	Time	Time	Time	
X0	0.0000000000000000E+0	0.0000000000000000E+0	0.0000000000000000E+0	0.0000000000000000E+0	0.0000000000000000E+0	0.0000000000000000E+0	
Delta_X	1.000000	1.000000	1.000000	1.000000	1.000000	1.000000	
***End_of_Header***							
X_Value	Untitled	Untitled 1	Untitled 2	Untitled 3	Untitled 4	Untitled 5	Comment
0.000000	0.029334	4.103800	0.120350	20.975132	0.000938	20.727161
1.001069	-2.988600	3.938000	-11.768000	20.978949	0.000937	20.725289
2.008986	-2.998100	3.930000	-11.781000	20.993817	0.000934	20.713132
3.005853	-3.028900	3.925500	-11.888000	21.008553	0.000936	20.734036
4.003523	-3.025900	3.920600	-11.862000	20.985618	0.000935	20.710147
5.004396	-3.004200	3.918400	-11.770000	21.000331	0.000935	20.724864
6.002120	-3.023100	3.915500	-11.836000	20.979251	0.000932	20.712314
7.003707	-3.016700	3.912800	-11.802000	20.977559	0.000932	20.713941
8.005879	-3.009400	3.909700	-11.764000	20.992157	0.000932	20.738026
9.002468	-2.987700	3.910500	-11.682000	20.988438	0.000930	20.734306
10.003282	-3.000600	3.906700	-11.722000	20.986991	0.000930	20.730014
11.005657	-2.988600	3.905100	-11.670000	20.989337	0.000929	20.725247
12.003721	-3.005600	3.904400	-11.733000	21.009951	0.000928	20.725476
13.003771	-3.000200	3.903400	-11.710000	21.003036	0.000928	20.715715
14.005715	-2.999700	3.901400	-11.700000	21.013964	0.000928	20.710049
15.004444	-2.997700	3.900700	-11.692000	21.012419	0.000928	20.719410
16.003879	-2.999800	3.898900	-11.695000	21.011994	0.000924	20.717562
17.007571	-2.985400	3.898700	-11.639000	21.000649	0.000926	20.713327
18.002785	-3.018900	3.896000	-11.760000	21.028611	0.000925	20.735132
19.006174	-2.967400	3.898100	-11.564000	21.043216	0.000925	20.717971
20.007523	-3.002000	3.895300	-11.693000	21.029036	0.000923	20.713744
21.003558	-2.983900	3.894400	-11.619000	21.045751	0.000923	20.711496
22.003997	-2.996600	3.892500	-11.663000	21.051660	0.000924	20.722623
23.005567	-2.976800	3.893500	-11.589000	21.055632	0.000925	20.703835
24.006882	-2.968300	3.891500	-11.550000	21.067157	0.000924	20.711570
25.004476	-2.992900	3.890300	-11.642000	21.055011	0.000920	20.731191
26.007782	-2.987100	3.890700	-11.621000	21.076237	0.000922	20.695047
27.005987	-3.023000	3.888800	-11.755000	21.075534	0.000918	20.708570
28.006453	-3.009600	3.887700	-11.700000	21.081338	0.000919	20.712952
29.007236	-3.000000	3.887300	-11.660000	21.113727	0.000919	20.705995
30.007461	-2.992800	3.888200	-11.635000	21.108039	0.000918	20.716901
31.007907	-3.029900	3.884800	-11.769000	21.103650	0.000917	20.702552
32.009712	-3.009700	3.886700	-11.696000	21.114405	0.000918	20.696715
33.012539	-2.994100	3.886400	-11.635000	21.111160	0.000918	20.694417
34.010728	-2.995600	3.885900	-11.639000	21.130865	0.000918	20.702749
35.011018	-3.001600	3.884500	-11.659000	21.135483	0.000918	20.691720
36.009644	-3.001500	3.882400	-11.651000	21.139643	0.000917	20.690191
37.009547	-2.984100	3.885100	-11.591000	21.145462	0.000916	20.703125
38.010137	-2.987500	3.883400	-11.602000	21.118737	0.000915	20.707687
39.012061	-2.992000	3.883200	-11.618000	21.138025	0.000917	20.702324
40.010041	-3.005100	3.882000	-11.664000	21.135826	0.000915	20.696805
41.010087	-3.006000	3.882200	-11.669000	21.155482	0.000913	20.695130
42.011162	-3.007400	3.880800	-11.670000	21.134208	0.000917	20.700402
43.011708	-3.001200	3.880900	-11.646000	21.149818	0.000916	20.698473
44.011893	-2.995700	3.880200	-11.622000	21.160328	0.000913	20.708987
45.012794	-2.992900	3.879500	-11.610000	21.175545	0.000913	20.698130
46.011995	-2.994800	3.879900	-11.618000	21.173706	0.000913	20.696290
47.011354	-3.003300	3.879800	-11.651000	21.192118	0.000912	20.683887
48.010982	-3.001600	3.878700	-11.640000	21.209549	0.000912	20.712707
49.011000	-3.007600	3.879000	-11.665000	21.208945	0.000912	20.692186
50.014323	-2.988500	3.877000	-11.584000	21.208651	0.000913	20.709437
51.011916	-2.985900	3.878800	-11.581000	21.210955	0.000913	20.685661
52.014659	-2.998800	3.876600	-11.623000	21.211175	0.000912	20.679717
53.012376	-3.000200	3.877000	-11.629000	21.220181	0.000913	20.684459
54.014343	-3.012500	3.876600	-11.678000	21.244280	0.000910	20.701457
55.014697	-2.982500	3.876000	-11.559000	21.229513	0.000912	20.687631
56.015675	-2.972400	3.876800	-11.523000	21.237007	0.000913	20.682325
57.015263	-3.001500	3.873800	-11.627000	21.240268	0.000911	20.689381
58.014843	-2.984400	3.875600	-11.565000	21.251169	0.000910	20.707874
59.016808	-3.007800	3.874000	-11.651000	21.255835	0.000910	20.697843
60.017417	-2.985200	3.874300	-11.565000	21.272399	0.000912	20.666047
61.016112	-3.009900	3.873100	-11.656000	21.274695	0.000910	20.702012
62.016616	-2.991200	3.874100	-11.587000	21.287713	0.000910	20.696069
63.016659	-3.028300	3.872200	-11.725000	21.289518	0.000908	20.697875
64.015503	-2.996800	3.873100	-11.606000	21.285800	0.000911	20.675187
65.019638	-3.023200	3.871700	-11.704000	21.306875	0.000911	20.688686
66.017885	-2.998700	3.872800	-11.612000	21.305829	0.000910	20.683846
67.017935	-2.998400	3.872700	-11.610000	21.319197	0.000912	20.667821
68.018989	-2.997400	3.872500	-11.606000	21.307349	0.000910	20.676357
69.018739	-2.972400	3.871900	-11.508000	21.319296	0.000908	20.688784
70.020055	-2.998500	3.873100	-11.612000	21.330253	0.000908	20.684099
71.021904	-3.010600	3.871700	-11.655000	21.328529	0.000909	20.677158
72.019766	-2.978100	3.872100	-11.529000	21.338408	0.000908	20.676136
73.020445	-2.987600	3.871200	-11.564000	21.353370	0.000908	20.697745
74.022215	-3.001200	3.870800	-11.616000	21.348311	0.000909	20.683494
75.021214	-3.003200	3.870100	-11.622000	21.317457	0.000910	20.687418
76.021816	-3.002200	3.868600	-11.612000	21.359089	0.000909	20.684499
77.021802	-2.994700	3.869500	-11.587000	21.337337	0.000908	20.675539
78.022088	-3.003800	3.869200	-11.621000	21.365324	0.000910	20.677934
79.022494	-2.999900	3.868800	-11.605000	21.365218	0.000909	20.659808
80.022161	-2.994700	3.869000	-11.586000	21.398350	0.000909	20.668777
81.024413	-3.016400	3.867200	-11.665000	21.368666	0.000908	20.661362
82.021095	-3.001100	3.869000	-11.610000	21.400099	0.000906	20.659146
83.021361	-3.006400	3.867600	-11.627000	21.403784	0.000908	20.693656
84.022974	-3.007300	3.867300	-11.628000	21.394959	0.000907	20.674394
85.021656	-3.009100	3.866800	-11.634000	21.417331	0.000909	20.679708
86.024470	-3.011300	3.865800	-11.640000	21.412290	0.000907	20.674664
87.023476	-2.991000	3.866800	-11.564000	21.451427	0.000908	20.659293
88.025554	-3.001900	3.867100	-11.607000	21.426090	0.000906	20.676143
89.023777	-2.981300	3.867300	-11.529000	21.439376	0.000909	20.660037
90.027487	-3.008900	3.866500	-11.632000	21.446941	0.000907	20.666659
91.026119	-2.993600	3.866000	-11.572000	21.447039	0.000906	20.671499
92.025854	-3.010500	3.865800	-11.638000	21.445470	0.000908	20.659023
93.025525	-2.992300	3.865600	-11.566000	21.474181	0.000908	20.659301
94.026912	-2.997800	3.865900	-11.588000	21.472138	0.000909	20.638762
95.027390	-2.975400	3.865800	-11.500000	21.482490	0.000907	20.672357
96.026648	-2.991200	3.866000	-11.561000	21.484279	0.000906	20.628624
97.027621	-2.999900	3.865500	-11.595000	21.505530	0.000907	20.648942
98.027919	-3.011600	3.864300	-11.637000	21.510497	0.000908	20.670035
99.029047	-3.004000	3.865600	-11.611000	21.524369	0.000908	20.655465
100.027075	-2.998800	3.864900	-11.588000	21.523119	0.000909	20.662276
101.027719	-2.994200	3.865700	-11.572000	21.534966	0.000909	20.642359
102.028305	-2.982200	3.863800	-11.522000	21.559459	0.000908	20.655964
103.031250	-3.020500	3.862900	-11.667000	21.566215	0.000909	20.676004
104.029046	-2.983700	3.863800	-11.527000	21.557890	0.000912	20.655343
105.029567	-2.980500	3.864700	-11.517000	21.546844	0.000909	20.651402
106.029045	-2.976400	3.862800	-11.495000	21.553159	0.000911	20.656299
107.029932	-2.985600	3.862000	-11.528000	21.559523	0.000909	20.639431
108.028534	-2.985000	3.862400	-11.528000	21.547228	0.000910	20.646569
109.030148	-2.992400	3.862700	-11.558000	21.585233	0.000907	20.669904
110.030470	-3.004700	3.862900	-11.606000	21.599701	0.000908	20.632220
111.031237	-2.972500	3.863600	-11.483000	21.583124	0.000909	20.651670
112.032021	-2.994600	3.860900	-11.562000	21.590617	0.000910	20.655375
113.032021	-3.009400	3.860800	-11.616000	21.593500	0.000910	20.657786
114.032308	-3.002900	3.861400	-11.595000	21.615867	0.000910	20.635596
115.031406	-3.007500	3.860300	-11.607000	21.640351	0.000909	20.671955
116.030836	-3.004800	3.860100	-11.597000	21.626242	0.000911	20.631279
117.031775	-2.998300	3.861400	-11.576000	21.632630	0.000911	20.660435
118.031947	-3.004000	3.860000	-11.594000	21.659988	0.000910	20.651776
119.034183	-2.990500	3.860500	-11.543000	21.635024	0.000910	20.645285
120.034200	-3.008700	3.859600	-11.610000	21.664154	0.000912	20.657843
121.033550	-2.977700	3.860300	-11.494000	21.676947	0.000912	20.648833
122.034532	-2.988900	3.859700	-11.535000	21.655258	0.000912	20.647042
123.034566	-2.992300	3.859600	-11.548000	21.660838	0.000912	20.647884
124.034235	-2.997500	3.858100	-11.564000	21.656630	0.000912	20.643673
125.034172	-2.991000	3.858500	-11.539000	21.633871	0.000912	20.648873
126.033895	-2.994700	3.858000	-11.553000	21.644712	0.000911	20.656878
127.034500	-3.000700	3.858000	-11.576000	21.666303	0.000911	20.640076
128.033565	-3.021100	3.858100	-11.654000	21.675607	0.000915	20.639904
129.034465	-2.984800	3.857900	-11.514000	21.663369	0.000915	20.655635
130.037330	-3.012600	3.857000	-11.618000	21.687884	0.000915	20.651718
131.035203	-3.001300	3.856500	-11.571000	21.706354	0.000913	20.636061
132.034860	-2.973400	3.857900	-11.470000	21.713517	0.000914	20.633273
133.035559	-3.010700	3.857200	-11.611000	21.715282	0.000913	20.640730
134.036383	-3.010600	3.855300	-11.605000	21.739273	0.000914	20.635816
135.037903	-2.971700	3.858500	-11.464000	21.703789	0.000914	20.628752
136.045174	-2.986100	3.857400	-11.518000	21.730769	0.000915	20.623511
137.038504	-2.985000	3.856600	-11.510000	21.743031	0.000914	20.640526
138.038257	-2.989800	3.856200	-11.528000	21.727568	0.000916	20.637852
139.040831	-3.010400	3.855900	-11.606000	21.726253	0.000915	20.628948
140.040995	-3.011500	3.854400	-11.607000	21.747123	0.000915	20.635137
141.040892	-2.991900	3.856900	-11.538000	21.746306	0.000915	20.620093
142.040326	-3.003100	3.856000	-11.579000	21.731538	0.000916	20.650361
143.042375	-3.014500	3.855300	-11.621000	21.752587	0.000917	20.623535
144.040909	-2.997300	3.855300	-11.555000	21.768450	0.000917	20.630403
145.043082	-3.005700	3.854900	-11.586000	21.776398	0.000916	20.622235
146.042175	-2.991600	3.855600	-11.533000	21.775688	0.000918	20.637174
147.041069	-2.999000	3.854300	-11.558000	21.777133	0.000918	20.624869
148.042032	-3.014700	3.854000	-11.617000	21.790153	0.000917	20.631736
149.041373	-2.999800	3.853300	-11.557000	21.795561	0.000921	20.648056
150.041626	-2.990300	3.853700	-11.521000	21.831932	0.000921	20.637992
151.041742	-3.009900	3.852200	-11.593000	21.835028	0.000919	20.651523
152.040610	-3.006300	3.852200	-11.579000	21.847794	0.000917	20.635375
153.042828	-3.005300	3.852500	-11.577000	21.844870	0.000918	20.658056
154.046074	-3.005000	3.853200	-11.578000	21.841309	0.000918	20.644058
155.043655	-2.997400	3.853000	-11.548000	21.859188	0.000918	20.650100
156.042000	-2.999800	3.851800	-11.553000	21.853903	0.000918	20.639594
157.045720	-3.019600	3.850900	-11.627000	21.847337	0.000922	20.641557
158.041691	-2.982400	3.852200	-11.487000	21.866089	0.000920	20.652267
159.041618	-2.986300	3.851700	-11.500000	21.880416	0.000919	20.643847
160.045597	-2.989500	3.852400	-11.515000	21.874543	0.000922	20.639864
161.042506	-2.996200	3.851400	-11.538000	21.869177	0.000921	20.630225
162.045237	-2.992200	3.851900	-11.525000	21.904852	0.000923	20.624207
163.046885	-2.983400	3.852100	-11.491000	21.913877	0.000921	20.627551
164.046989	-3.019000	3.850100	-11.622000	21.917691	0.000921	20.639431
165.047132	-3.017800	3.848500	-11.612000	21.927810	0.000922	20.634387
166.048318	-3.003200	3.850400	-11.561000	21.911704	0.000923	20.620160
167.048541	-2.979800	3.850500	-11.472000	21.935487	0.000923	20.636856
168.049154	-3.005000	3.849400	-11.566000	21.927076	0.000924	20.632703
169.048609	-2.998200	3.848800	-11.539000	21.927778	0.000923	20.638148
170.050258	-3.002300	3.850000	-11.556000	21.921816	0.000924	20.650674
171.048216	-3.000200	3.848300	-11.545000	21.947518	0.000924	20.643684
172.052526	-3.004800	3.848600	-11.563000	21.941278	0.000925	20.626531
173.048057	-2.997700	3.848900	-11.536000	21.942275	0.000924	20.641280
174.048722	-2.992100	3.847300	-11.509000	21.957661	0.000925	20.650519
175.052000	-3.001300	3.848000	-11.548000	21.958404	0.000927	20.646047
176.052407	-3.006200	3.847600	-11.566000	21.961851	0.000926	20.646178
177.051523	-2.975600	3.848900	-11.452000	21.951667	0.000928	20.654477
178.052898	-3.005400	3.846600	-11.559000	21.958029	0.000928	20.649465
179.049609	-3.003900	3.848000	-11.558000	21.971431	0.000927	20.639172
180.050843	-2.969000	3.848400	-11.424000	21.963077	0.000927	20.660683
181.052121	-2.997500	3.846000	-11.528000	21.988630	0.000928	20.629360
182.051208	-2.999200	3.846100	-11.534000	21.980202	0.000928	20.638943
183.051749	-2.983700	3.848600	-11.482000	22.000178	0.000928	20.673642
184.051392	-2.997200	3.847700	-11.531000	21.988574	0.000931	20.654911
185.052685	-2.986200	3.845900	-11.484000	22.000447	0.000929	20.647830
186.052080	-2.990200	3.847000	-11.502000	22.006009	0.000929	20.651027
187.054924	-3.018900	3.846200	-11.610000	22.024702	0.000932	20.658361
188.053404	-3.030600	3.844000	-11.649000	22.039875	0.000929	20.656481
189.053386	-3.022000	3.845100	-11.618000	22.051471	0.000932	20.648174
190.056581	-2.990900	3.844900	-11.499000	22.068318	0.000932	20.675000
191.053701	-3.014500	3.844400	-11.588000	22.058853	0.000933	20.669791
192.056779	-2.993800	3.845800	-11.513000	22.078485	0.000933	20.654356
193.055612	-3.004200	3.845300	-11.551000	22.088855	0.000932	20.659523
194.057743	-3.011300	3.845200	-11.578000	22.102966	0.000931	20.658002
195.057822	-2.972000	3.844800	-11.426000	22.102892	0.000934	20.654609
196.057539	-3.013500	3.843300	-11.581000	22.095658	0.000936	20.654953
197.058009	-3.022300	3.843600	-11.614000	22.097373	0.000936	20.642444
198.056928	-3.009800	3.844700	-11.569000	22.109736	0.000937	20.659564
199.061127	-3.006900	3.843700	-11.556000	22.116489	0.000937	20.665852
200.056637	-3.010600	3.844700	-11.574000	22.110528	0.000936	20.643286
201.058611	-3.000900	3.842600	-11.529000	22.121519	0.000936	20.665672
202.058224	-3.005900	3.842100	-11.548000	22.108381	0.000935	20.662476
203.058502	-2.999300	3.842600	-11.524000	22.112840	0.000937	20.670734
204.060494	-2.995800	3.842200	-11.510000	22.134944	0.000937	20.660620
205.058711	-3.005200	3.842900	-11.548000	22.132021	0.000939	20.653900
206.059278	-3.024300	3.840800	-11.615000	22.168292	0.000938	20.666981
207.064692	-2.982800	3.841700	-11.458000	22.172392	0.000940	20.666344
208.060163	-2.989700	3.842100	-11.486000	22.176156	0.000940	20.663949
209.058383	-3.031100	3.841600	-11.643000	22.182835	0.000939	20.675379
210.059902	-3.016800	3.841500	-11.588000	22.200782	0.000941	20.681494
211.060001	-2.999300	3.841100	-11.518000	22.188560	0.000940	20.663091
212.061805	-3.005100	3.840900	-11.540000	22.225621	0.000940	20.666533
213.061151	-3.025300	3.839300	-11.613000	22.218738	0.000940	20.670548
214.060215	-3.012200	3.839700	-11.565000	22.202016	0.000943	20.677039
215.060345	-2.985500	3.840900	-11.465000	22.235035	0.000943	20.679754
216.062175	-2.993200	3.840300	-11.494000	22.236677	0.000943	20.685665
217.061136	-3.021900	3.839600	-11.600000	22.245299	0.000943	20.664899
218.061671	-3.005600	3.839800	-11.539000	22.251676	0.000943	20.681243
219.062255	-3.016700	3.839100	-11.580000	22.252044	0.000945	20.662169
220.061501	-3.014000	3.839000	-11.570000	22.265882	0.000944	20.660852
221.064806	-3.030700	3.837800	-11.630000	22.270120	0.000946	20.672683
222.066542	-3.016400	3.837200	-11.573000	22.306844	0.000946	20.689068
223.067224	-3.004700	3.838000	-11.531000	22.284139	0.000944	20.682454
224.063543	-3.006900	3.837700	-11.539000	22.297047	0.000946	20.685896
225.068413	-3.028900	3.837700	-11.622000	22.298892	0.000947	20.684424
226.066626	-3.003100	3.837800	-11.524000	22.325312	0.000947	20.679584
227.065059	-3.016500	3.837500	-11.575000	22.329190	0.000946	20.673036
228.068387	-3.025600	3.835700	-11.604000	22.346033	0.000948	20.678048
229.068548	-2.999600	3.837900	-11.510000	22.358752	0.000948	20.687940
230.065722	-3.012800	3.836200	-11.557000	22.354768	0.000949	20.683001
231.066656	-3.023300	3.836000	-11.596000	22.357381	0.000949	20.675186
232.068831	-3.002500	3.836800	-11.519000	22.341526	0.000951	20.682070
233.065303	-3.023200	3.833900	-11.589000	22.350018	0.000954	20.691048
234.068226	-3.022100	3.836200	-11.592000	22.327240	0.000951	20.675350
235.072216	-3.012100	3.835200	-11.550000	22.329909	0.000951	20.677075
236.067053	-3.021000	3.835000	-11.583000	22.337184	0.000952	20.690524
237.068492	-2.997800	3.835900	-11.499000	22.346809	0.000953	20.677876
238.069028	-3.025900	3.834300	-11.599000	22.353038	0.000951	20.701185
239.066996	-3.004900	3.835700	-11.524000	22.384738	0.000953	20.666070
240.068999	-3.031800	3.833400	-11.622000	22.366272	0.000953	20.690254
241.070873	-3.017600	3.832600	-11.563000	22.396323	0.000955	20.702804
242.065347	-2.994900	3.835100	-11.484000	22.368982	0.000954	20.699133
243.068500	-2.989800	3.834700	-11.464000	22.415385	0.000954	20.678269
244.071568	-3.004000	3.834800	-11.518000	22.397262	0.000955	20.681932
245.064954	-3.007300	3.832800	-11.525000	22.428291	0.000955	20.691669
246.071974	-3.035400	3.832900	-11.633000	22.401376	0.000955	20.684630
247.070046	-2.994300	3.833800	-11.478000	22.392608	0.000957	20.694342
248.067430	-3.021900	3.832300	-11.580000	22.392201	0.000957	20.707686
249.071327	-2.993700	3.833200	-11.474000	22.423083	0.000957	20.694988
250.074676	-2.996900	3.832700	-11.486000	22.413638	0.000959	20.692642
251.068449	-2.997300	3.831600	-11.483000	22.469272	0.000959	20.683870
252.070224	-3.011900	3.832300	-11.542000	22.442618	0.000960	20.691792
253.075237	-3.004200	3.831700	-11.511000	22.470872	0.000960	20.700172
254.068947	-3.015300	3.832300	-11.555000	22.443011	0.000962	20.690762
255.071007	-3.002900	3.830600	-11.502000	22.472145	0.000962	20.691964
256.074759	-2.994900	3.831300	-11.473000	22.492781	0.000960	20.693190
257.069334	-3.002600	3.830200	-11.500000	22.492226	0.000961	20.701170
258.072952	-3.032400	3.830500	-11.614000	22.478668	0.000962	20.703239
259.073247	-2.998600	3.830800	-11.487000	22.484072	0.000961	20.696796
260.069526	-3.028900	3.829400	-11.598000	22.485671	0.000964	20.682276
261.073987	-3.010700	3.830700	-11.532000	22.512283	0.000965	20.699919
262.072746	-3.009900	3.829300	-11.525000	22.493582	0.000963	20.699683
263.070341	-3.000000	3.829300	-11.486000	22.509516	0.000964	20.700941
264.074555	-3.027400	3.828500	-11.588000	22.507916	0.000965	20.716884
265.072147	-2.998000	3.829400	-11.479000	22.547432	0.000966	20.711415
266.071366	-3.012500	3.828700	-11.533000	22.547064	0.000964	20.707727
267.074317	-3.006100	3.830300	-11.513000	22.560018	0.000968	20.710744
268.077639	-2.996700	3.828500	-11.471000	22.567667	0.000966	20.712240
269.071928	-3.013600	3.827600	-11.534000	22.589706	0.000968	20.712029
270.074278	-3.014400	3.828700	-11.539000	22.580392	0.000968	20.705071
271.082763	-3.010000	3.828400	-11.522000	22.555431	0.000969	20.703779
272.072655	-2.997000	3.828600	-11.474000	22.556949	0.000969	20.695341
273.074333	-2.979000	3.829400	-11.407000	22.557578	0.000970	20.696445
274.076399	-3.014400	3.827600	-11.537000	22.566671	0.000970	20.706501
275.073517	-3.018200	3.826600	-11.548000	22.563896	0.000970	20.711783
276.075343	-3.032900	3.825500	-11.600000	22.542224	0.000970	20.718053
277.075343	-3.004800	3.825300	-11.493000	22.551636	0.000972	20.717997
278.074000	-3.007300	3.826300	-11.506000	22.558541	0.000971	20.714007
279.075400	-3.014400	3.825800	-11.530000	22.538118	0.000970	20.722002
280.075074	-2.986900	3.827600	-11.432000	22.590040	0.000972	20.722795
281.074556	-3.002800	3.825800	-11.487000	22.573259	0.000972	20.718790
282.076847	-3.003500	3.826500	-11.492000	22.606185	0.000973	20.721896
283.076820	-3.003800	3.823700	-11.485000	22.596741	0.000974	20.705798
284.074679	-3.006200	3.824700	-11.497000	22.603025	0.000974	20.704032
285.076161	-3.012400	3.823600	-11.517000	22.609817	0.000975	20.700403
286.076984	-3.008200	3.823500	-11.500000	22.616567	0.000974	20.718545
287.077931	-3.011600	3.823600	-11.515000	22.627610	0.000976	20.703051
288.078106	-2.999600	3.824000	-11.470000	22.652055	0.000976	20.719950
289.081619	-2.972900	3.825500	-11.371000	22.630124	0.000975	20.700828
290.076931	-3.027600	3.822400	-11.572000	22.618697	0.000975	20.703607
291.078191	-2.993900	3.822800	-11.444000	22.639477	0.000977	20.704980
292.081254	-2.991400	3.823300	-11.436000	22.653450	0.000977	20.725616
293.079626	-3.014800	3.823300	-11.525000	22.664861	0.000977	20.728036
294.080474	-3.008100	3.822500	-11.497000	22.692096	0.000979	20.724021
295.081699	-3.019800	3.821000	-11.537000	22.663995	0.000979	20.742343
296.077652	-2.977600	3.823800	-11.384000	22.679013	0.000981	20.731780
297.081850	-2.990100	3.824100	-11.434000	22.689876	0.000979	20.732230
298.080690	-2.995000	3.823000	-11.448000	22.689263	0.000979	20.717390
299.078356	-2.966100	3.823700	-11.340000	22.696364	0.000980	20.718339
300.082453	-2.999100	3.821700	-11.460000	22.707153	0.000981	20.727724
301.083876	-3.010600	3.820600	-11.502000	22.708475	0.000983	20.726678
302.079275	-2.980900	3.822300	-11.393000	22.743258	0.000981	20.736864
303.082879	-2.993800	3.821100	-11.438000	22.719574	0.000984	20.718828
304.084615	-3.009700	3.820300	-11.496000	22.721729	0.000984	20.741377
305.080585	-3.026100	3.818600	-11.554000	22.733791	0.000983	20.710310
306.083040	-2.995600	3.821000	-11.445000	22.757809	0.000985	20.728680
307.080456	-2.984400	3.821400	-11.404000	22.733325	0.000984	20.725491
308.082054	-2.992000	3.820500	-11.430000	22.767455	0.000985	20.730757
309.084209	-2.980900	3.819800	-11.386000	22.777101	0.000985	20.713865
310.081925	-2.979400	3.820400	-11.382000	22.790273	0.000988	20.726587
311.085952	-3.001300	3.818900	-11.461000	22.805844	0.000987	20.733651
312.086894	-2.985300	3.818400	-11.398000	22.802538	0.000987	20.718959
313.083446	-3.006800	3.818300	-11.479000	22.816958	0.000988	20.720128
314.084223	-3.003200	3.818900	-11.468000	22.842517	0.000989	20.746208
315.086190	-2.996100	3.818300	-11.439000	22.839408	0.000988	20.763956
316.085217	-3.004400	3.816500	-11.466000	22.865741	0.000988	20.724902
317.084053	-3.001100	3.817300	-11.455000	22.883073	0.000991	20.738000
318.084523	-3.008000	3.817000	-11.480000	22.880185	0.000989	20.731312
319.084362	-3.007500	3.816400	-11.477000	22.880209	0.000990	20.723276
320.085176	-2.997100	3.816500	-11.438000	22.880332	0.000990	20.732882
321.086705	-2.997600	3.816600	-11.440000	22.883694	0.000991	20.734828
322.087178	-3.004800	3.815900	-11.465000	22.892816	0.000992	20.729268
323.093732	-2.977800	3.816000	-11.362000	22.902454	0.000992	20.744139
324.089077	-2.999800	3.815300	-11.444000	22.903033	0.000993	20.732391
325.090341	-2.997600	3.814200	-11.432000	22.907464	0.000993	20.712647
326.087608	-2.997400	3.815100	-11.434000	22.905472	0.000993	20.729145
327.089386	-3.010200	3.814400	-11.481000	22.874537	0.000995	20.745095
328.089504	-2.989200	3.815000	-11.402000	22.899050	0.000993	20.735514
329.090243	-3.018400	3.814000	-11.511000	22.875557	0.000993	20.760343
330.095277	-3.029800	3.813700	-11.553000	22.899197	0.000995	20.744670
331.091682	-3.024300	3.813000	-11.531000	22.871175	0.000996	20.736985
332.089711	-3.004200	3.813700	-11.456000	22.880617	0.000996	20.738857
333.091080	-2.986500	3.814000	-11.389000	22.871992	0.000996	20.739700
334.091441	-3.009800	3.813400	-11.477000	22.881514	0.001000	20.752085
335.089389	-3.023200	3.811500	-11.522000	22.910980	0.000997	20.743199
336.090947	-2.994500	3.813000	-11.417000	22.895492	0.000997	20.740010
337.090442	-2.981900	3.813600	-11.370000	22.888491	0.000998	20.737737
338.091920	-3.023800	3.812100	-11.525000	22.911510	0.000998	20.732349
339.094594	-2.983600	3.812200	-11.372000	22.922069	0.000999	20.739135
340.090496	-2.987800	3.812000	-11.389000	22.953125	0.001001	20.747965
341.093049	-2.976900	3.813300	-11.351000	22.949641	0.001000	20.750638
342.092942	-2.993000	3.812600	-11.411000	22.958135	0.000999	20.748717
343.091032	-2.987300	3.811500	-11.385000	22.994575	0.001002	20.734492
344.091686	-2.999000	3.810500	-11.426000	22.984914	0.001002	20.770332
345.090142	-3.024200	3.809600	-11.520000	22.987484	0.001002	20.743509
346.090370	-2.982900	3.812100	-11.369000	22.965168	0.001002	20.729684
347.090703	-3.001500	3.809600	-11.433000	22.993009	0.001002	20.765166
348.094468	-2.997500	3.810900	-11.423000	23.001404	0.001002	20.751766
349.090843	-2.989900	3.809800	-11.388000	23.020113	0.001003	20.767667
350.092173	-3.001800	3.809000	-11.433000	23.018848	0.001004	20.771141
351.092859	-3.002500	3.808900	-11.435000	23.025669	0.001004	20.741465
352.092055	-3.013800	3.808900	-11.477000	23.000694	0.001004	20.771917
353.095030	-3.005000	3.807400	-11.441000	22.984302	0.001006	20.764503
354.093014	-3.016200	3.808600	-11.484000	22.975408	0.001007	20.741841
355.095204	-3.006800	3.807500	-11.445000	22.999217	0.001005	20.766171
356.094818	-3.002300	3.808800	-11.434000	23.003974	0.001005	20.775204
357.095419	-3.000500	3.808200	-11.425000	22.998229	0.001006	20.768974
358.094960	-3.012000	3.806500	-11.464000	23.017453	0.001007	20.763579
359.096528	-2.996900	3.807800	-11.411000	23.027937	0.001007	20.758911
360.094085	-3.015800	3.806500	-11.479000	23.026371	0.001008	20.771566
361.095726	-2.992400	3.808500	-11.395000	23.029953	0.001006	20.779423
362.096067	-3.024800	3.805000	-11.508000	23.049657	0.001008	20.779725
363.094485	-3.012000	3.806900	-11.465000	23.059986	0.001006	20.763048
364.097122	-3.016300	3.805100	-11.477000	23.009906	0.001008	20.770716
365.099371	-3.000500	3.805500	-11.418000	23.029178	0.001009	20.772956
366.097455	-2.998300	3.805800	-11.410000	23.035362	0.001009	20.756393
367.099530	-2.981900	3.806200	-11.349000	23.031226	0.001008	20.775008
368.099874	-3.004600	3.805500	-11.433000	23.042526	0.001012	20.782064
369.099658	-3.009700	3.804400	-11.449000	23.026983	0.001010	20.786405
370.100443	-2.999600	3.805000	-11.412000	23.034408	0.001011	20.772981
371.099374	-3.003700	3.803900	-11.425000	23.038895	0.001012	20.767045
372.099735	-2.995700	3.805600	-11.399000	23.058893	0.001013	20.778074
373.103192	-3.021000	3.802800	-11.487000	23.072339	0.001014	20.771632
374.107933	-2.998000	3.803600	-11.402000	23.083206	0.001012	20.766873
375.100763	-3.003800	3.802900	-11.422000	23.103121	0.001014	20.768337
376.105395	-2.997300	3.803800	-11.400000	23.097737	0.001014	20.774322
377.106413	-2.990500	3.803100	-11.372000	23.137982	0.001015	20.790942
378.101242	-3.015500	3.801000	-11.460000	23.126879	0.001016	20.787876
379.104290	-3.016500	3.800600	-11.463000	23.138407	0.001015	20.793738
380.106036	-2.988000	3.801700	-11.359000	23.109150	0.001015	20.787181
381.102692	-3.009200	3.800500	-11.434000	23.128438	0.001016	20.769049
382.105464	-3.006600	3.801500	-11.427000	23.137600	0.001017	20.791507
383.105389	-3.004900	3.801100	-11.421000	23.151216	0.001018	20.786659
384.103387	-2.986700	3.802600	-11.356000	23.179638	0.001017	20.788114
385.104754	-3.002200	3.800900	-11.410000	23.167434	0.001019	20.802911
386.110887	-3.015700	3.799400	-11.457000	23.157799	0.001018	20.791359
387.104182	-2.996700	3.800300	-11.388000	23.143841	0.001021	20.805822
388.107727	-2.994300	3.799200	-11.375000	23.151412	0.001019	20.804874
389.110043	-2.986900	3.801100	-11.353000	23.131742	0.001019	20.782318
390.106355	-3.009900	3.798100	-11.431000	23.119554	0.001019	20.788597
391.108023	-3.003200	3.799300	-11.409000	23.120077	0.001019	20.801449
392.109024	-2.999100	3.798200	-11.390000	23.120403	0.001020	20.793241
393.106462	-3.011800	3.798300	-11.438000	23.126449	0.001022	20.789342
394.108424	-3.001400	3.798600	-11.399000	23.141965	0.001022	20.794933
395.110722	-3.011500	3.797600	-11.435000	23.159897	0.001022	20.783030
396.107562	-3.014700	3.796500	-11.444000	23.186362	0.001023	20.812396
397.110538	-3.006600	3.796400	-11.412000	23.181589	0.001023	20.822311
398.117266	-3.004500	3.797200	-11.407000	23.200459	0.001022	20.821306
399.112010	-3.009800	3.797400	-11.429000	23.187610	0.001023	20.794680
400.110925	-2.982200	3.797000	-11.322000	23.193288	0.001024	20.813172
401.111014	-3.033600	3.794500	-11.510000	23.193950	0.001022	20.810042
402.110171	-2.998400	3.796700	-11.383000	23.189275	0.001023	20.825745
403.111909	-2.989900	3.796500	-11.350000	23.215771	0.001025	20.779279
404.109909	-2.990400	3.796300	-11.351000	23.232870	0.001024	20.814432
405.108428	-3.011200	3.795000	-11.426000	23.258476	0.001025	20.807376
406.113336	-2.987200	3.794900	-11.335000	23.255311	0.001024	20.801834
407.112608	-2.993500	3.794700	-11.359000	23.254071	0.001025	20.800591
408.109863	-3.010600	3.793700	-11.421000	23.270525	0.001025	20.816132
409.110108	-3.002200	3.793800	-11.389000	23.238180	0.001026	20.785615
410.112169	-2.997700	3.792800	-11.369000	23.254250	0.001025	20.812150
411.108290	-2.987800	3.794000	-11.334000	23.240024	0.001025	20.804057
412.111234	-2.989200	3.792700	-11.336000	23.289604	0.001027	20.808701
413.111376	-2.985500	3.793800	-11.325000	23.262188	0.001027	20.823898
414.110437	-2.985700	3.793200	-11.323000	23.307712	0.001027	20.786072
415.111344	-2.984300	3.792200	-11.316000	23.312770	0.001027	20.782131
416.110640	-2.984400	3.791600	-11.315000	23.338064	0.001027	20.803215
417.109068	-3.005200	3.791300	-11.393000	23.349573	0.001027	20.802896
418.113120	-2.977600	3.792000	-11.290000	23.366001	0.001029	20.778109
419.112008	-3.014300	3.791400	-11.427000	23.360731	0.001029	20.778043
420.111963	-3.010300	3.791000	-11.411000	23.369835	0.001028	20.801392
421.114716	-3.039300	3.790200	-11.518000	23.363920	0.001027	20.788826
422.116460	-2.998100	3.789600	-11.360000	23.369394	0.001030	20.816597
423.116580	-2.999000	3.791500	-11.370000	23.365911	0.001031	20.794140
424.116263	-2.984700	3.790400	-11.312000	23.344026	0.001030	20.794966
425.116080	-2.995300	3.789200	-11.348000	23.367428	0.001030	20.789497
426.115767	-3.005600	3.789400	-11.388000	23.363349	0.001030	20.780193
427.117491	-2.994000	3.788900	-11.342000	23.385184	0.001030	20.773154
428.115752	-2.989400	3.787900	-11.322000	23.403259	0.001031	20.782262
429.125099	-3.011000	3.787500	-11.403000	23.420240	0.001031	20.790273
430.118427	-3.002100	3.787300	-11.369000	23.423258	0.001032	20.782392
431.118906	-2.997500	3.787200	-11.352000	23.433559	0.001032	20.786554
432.117670	-2.993100	3.789000	-11.340000	23.438420	0.001034	20.771985
433.120830	-3.011400	3.786100	-11.399000	23.402590	0.001032	20.785384
434.120318	-3.008700	3.786400	-11.391000	23.424432	0.001033	20.770292
435.119231	-2.988300	3.787400	-11.316000	23.417157	0.001033	20.789553
436.120430	-2.999500	3.787200	-11.358000	23.414287	0.001031	20.775771
437.121223	-2.973400	3.787500	-11.261000	23.399850	0.001031	20.774577
438.120783	-2.999700	3.786100	-11.356000	23.404759	0.001036	20.798464
439.123461	-3.024300	3.784400	-11.443000	23.406056	0.001035	20.760883
440.125582	-3.024400	3.784200	-11.443000	23.406978	0.001035	20.758961
441.122496	-2.992400	3.786300	-11.329000	23.450043	0.001035	20.783635
442.124349	-2.996700	3.784200	-11.338000	23.435288	0.001034	20.774535
443.122242	-3.019900	3.783200	-11.424000	23.412426	0.001035	20.760630
444.123930	-2.987400	3.784400	-11.304000	23.442636	0.001035	20.764831
445.124301	-3.024700	3.783300	-11.441000	23.415272	0.001036	20.781026
446.121899	-2.996800	3.783900	-11.339000	23.458345	0.001036	20.755446
447.122752	-2.993300	3.783000	-11.323000	23.421447	0.001035	20.772990
448.124868	-2.986400	3.783000	-11.297000	23.433175	0.001035	20.754873
449.123674	-3.001800	3.783200	-11.356000	23.439251	0.001035	20.765706
450.122920	-2.998800	3.782600	-11.342000	23.437009	0.001036	20.772467
451.125903	-2.991300	3.783100	-11.315000	23.472340	0.001035	20.783225
452.123703	-2.974400	3.783900	-11.254000	23.462031	0.001037	20.731165
453.123757	-2.997000	3.782800	-11.336000	23.449087	0.001036	20.744270
454.129203	-2.986500	3.781500	-11.292000	23.444430	0.001036	20.763310
455.126245	-2.991300	3.781400	-11.311000	23.455205	0.001036	20.758937
456.127788	-3.020000	3.779700	-11.413000	23.437082	0.001040	20.745039
457.127261	-2.983200	3.781600	-11.281000	23.432286	0.001037	20.749240
458.127601	-3.017600	3.779500	-11.403000	23.418640	0.001038	20.753107
459.125540	-3.010400	3.779400	-11.377000	23.430663	0.001039	20.736708
460.129608	-3.000300	3.779300	-11.337000	23.408454	0.001038	20.754751
461.126048	-3.011700	3.777500	-11.376000	23.412459	0.001039	20.753549
462.128160	-2.996500	3.778700	-11.322000	23.379278	0.001038	20.762967
463.128912	-2.992200	3.778500	-11.305000	23.392173	0.001038	20.755028
464.128671	-3.001000	3.777400	-11.334000	23.380241	0.001040	20.735956
465.131098	-3.006000	3.778300	-11.355000	23.434023	0.001039	20.747663
466.129142	-3.010300	3.776300	-11.367000	23.440197	0.001040	20.759067
467.131013	-3.021200	3.775600	-11.406000	23.435744	0.001039	20.757448
468.130076	-2.999800	3.777400	-11.330000	23.444038	0.001041	20.761495
469.130853	-3.011000	3.775700	-11.367000	23.459845	0.001039	20.724706
470.130697	-3.013500	3.775200	-11.375000	23.437114	0.001042	20.747916
471.130583	-2.997900	3.774900	-11.316000	23.456558	0.001042	20.751284
472.133757	-3.023900	3.775900	-11.416000	23.469232	0.001040	20.767308
473.134003	-3.007400	3.777300	-11.358000	23.480536	0.001041	20.739757
474.131330	-3.016400	3.774700	-11.385000	23.507906	0.001040	20.730681
475.134112	-2.998200	3.775500	-11.319000	23.511739	0.001041	20.758707
476.131035	-3.006100	3.775200	-11.346000	23.533441	0.001041	20.740157
477.132418	-2.996700	3.774400	-11.310000	23.541367	0.001044	20.748103
478.135150	-2.971900	3.776200	-11.222000	23.569495	0.001042	20.744056
479.131370	-3.005200	3.773200	-11.338000	23.579452	0.001041	20.722743
480.131692	-3.007200	3.773100	-11.346000	23.597580	0.001042	20.758935
481.133125	-2.977600	3.775700	-11.241000	23.589606	0.001042	20.745250
482.133272	-3.032800	3.771900	-11.439000	23.624614	0.001044	20.744310
483.132699	-2.992000	3.773000	-11.286000	23.604871	0.001043	20.741587
484.138783	-3.011100	3.772000	-11.355000	23.608785	0.001044	20.737450
485.132588	-3.006500	3.772500	-11.341000	23.586645	0.001044	20.735644
486.134675	-3.027600	3.771300	-11.417000	23.605075	0.001043	20.730411
487.138936	-2.993100	3.771400	-11.287000	23.648686	0.001042	20.746631
488.138233	-3.014800	3.770600	-11.366000	23.651230	0.001044	20.733534
489.134383	-3.010200	3.771100	-11.352000	23.642089	0.001044	20.750449
490.137872	-3.015500	3.769700	-11.366000	23.646542	0.001043	20.743533
491.139740	-2.993800	3.770600	-11.287000	23.673630	0.001046	20.714264
492.137392	-2.991400	3.769100	-11.272000	23.668175	0.001044	20.728237
493.140736	-2.988600	3.770500	-11.267000	23.684255	0.001044	20.726814
494.141671	-2.994400	3.770400	-11.289000	23.659466	0.001044	20.718082
495.139775	-2.994800	3.769600	-11.288000	23.634456	0.001044	20.720510
496.141298	-2.992900	3.769100	-11.280000	23.648507	0.001045	20.746926
497.140148	-2.989100	3.769300	-11.265000	23.646346	0.001045	20.724370
498.140842	-2.994500	3.768700	-11.284000	23.651882	0.001047	20.730868
499.142913	-3.000900	3.768000	-11.307000	23.690306	0.001045	20.720077
500.140200	-3.002300	3.767800	-11.312000	23.657158	0.001044	20.733787
501.143673	-2.998000	3.767400	-11.293000	23.663478	0.001046	20.729217
502.143232	-2.994800	3.768100	-11.282000	23.657109	0.001046	20.719513
503.140723	-3.000200	3.767500	-11.302000	23.664725	0.001046	20.745167
504.141357	-3.001500	3.768000	-11.308000	23.683504	0.001044	20.715629
505.149499	-2.976600	3.768400	-11.217000	23.705855	0.001046	20.734245
506.139978	-3.012600	3.765400	-11.343000	23.691936	0.001046	20.705115
507.141249	-3.004300	3.765200	-11.310000	23.696690	0.001046	20.701820
508.140036	-3.011200	3.766300	-11.341000	23.658756	0.001046	20.751037
509.143159	-2.996500	3.765200	-11.282000	23.666397	0.001046	20.727402
510.142242	-3.012100	3.763800	-11.336000	23.674388	0.001046	20.695582
511.142087	-3.003400	3.764400	-11.305000	23.646760	0.001047	20.721466
512.142242	-3.011900	3.762800	-11.332000	23.665262	0.001048	20.719626
513.142282	-2.977100	3.764400	-11.206000	23.658788	0.001047	20.715980
514.142956	-2.994500	3.762900	-11.267000	23.651620	0.001045	20.721597
515.142366	-2.983800	3.764100	-11.230000	23.663787	0.001046	20.692541
516.141773	-2.996100	3.763000	-11.273000	23.692262	0.001047	20.702597
517.145378	-3.020200	3.762600	-11.363000	23.703042	0.001047	20.716250
518.144477	-3.001300	3.762300	-11.291000	23.731817	0.001047	20.714280
519.144372	-3.003600	3.762700	-11.301000	23.756759	0.001047	20.725537
520.147067	-3.021500	3.761200	-11.364000	23.737794	0.001047	20.712685
521.143184	-3.008300	3.760200	-11.311000	23.736929	0.001047	20.726044
522.144595	-3.001900	3.761500	-11.290000	23.740273	0.001048	20.702842
523.145846	-2.977000	3.763300	-11.202000	23.735551	0.001047	20.709015
524.146002	-2.996400	3.760900	-11.269000	23.748597	0.001048	20.711189
525.145542	-3.014400	3.759100	-11.330000	23.751680	0.001046	20.706693
526.145978	-2.991900	3.760000	-11.249000	23.763128	0.001047	20.709162
527.145810	-2.974500	3.760300	-11.184000	23.767009	0.001047	20.704044
528.147050	-2.993700	3.759500	-11.253000	23.763845	0.001045	20.701820
529.147641	-2.994200	3.759500	-11.254000	23.796574	0.001047	20.713299
530.147988	-3.025400	3.759100	-11.372000	23.750278	0.001048	20.705761
531.148460	-3.007700	3.758500	-11.303000	23.747065	0.001048	20.707756
532.147742	-3.010000	3.758400	-11.311000	23.755977	0.001047	20.699147
533.148470	-3.018800	3.758200	-11.345000	23.728891	0.001048	20.706130
534.149763	-3.030500	3.757300	-11.386000	23.743681	0.001046	20.710528
535.148291	-3.003500	3.757900	-11.286000	23.734076	0.001048	20.717019
536.152212	-3.009800	3.756600	-11.306000	23.723509	0.001049	20.717330
537.148665	-3.009400	3.757000	-11.306000	23.672880	0.001047	20.694545
538.150723	-2.998700	3.757200	-11.265000	23.693795	0.001049	20.693228
539.149118	-2.989100	3.755800	-11.225000	23.673956	0.001048	20.705582
540.149600	-3.004300	3.755800	-11.281000	23.697652	0.001047	20.678127
541.150032	-3.011800	3.755900	-11.311000	23.729258	0.001046	20.700808
542.148935	-3.006400	3.756000	-11.291000	23.706817	0.001047	20.690636
543.149908	-3.006600	3.755900	-11.292000	23.736523	0.001047	20.678692
544.150359	-3.001300	3.753400	-11.264000	23.736727	0.001046	20.684587
545.151804	-3.002000	3.754900	-11.272000	23.731704	0.001047	20.700415
546.149888	-3.012600	3.753600	-11.307000	23.752512	0.001048	20.685715
547.149453	-3.008200	3.754600	-11.293000	23.734093	0.001048	20.709923
548.150538	-2.997700	3.753400	-11.250000	23.737901	0.001048	20.686238
549.149766	-2.991000	3.753400	-11.226000	23.733644	0.001047	20.677702
550.150122	-3.009700	3.753600	-11.296000	23.769415	0.001047	20.677056
551.151152	-3.010500	3.752300	-11.296000	23.760152	0.001046	20.678201
552.151064	-3.020400	3.750800	-11.327000	23.787263	0.001047	20.694953
553.151003	-3.009400	3.750400	-11.285000	23.785885	0.001048	20.698314
554.151781	-3.020300	3.750800	-11.327000	23.814438	0.001048	20.687113
555.153842	-2.985400	3.752100	-11.201000	23.842647	0.001048	20.693113
556.152981	-3.002400	3.750000	-11.258000	23.830353	0.001048	20.694061
557.151476	-3.012700	3.750200	-11.298000	23.879254	0.001047	20.697577
558.153982	-3.028700	3.749100	-11.353000	23.860494	0.001048	20.709113
559.154138	-3.000800	3.749800	-11.251000	23.830850	0.001047	20.682705
560.153661	-2.978500	3.750000	-11.169000	23.804050	0.001049	20.688551
561.155059	-3.021000	3.748900	-11.324000	23.808436	0.001048	20.692475
562.153709	-3.000300	3.748200	-11.244000	23.821351	0.001046	20.702580
563.154302	-3.015200	3.747600	-11.299000	23.820788	0.001047	20.678305
564.154384	-3.011200	3.748300	-11.286000	23.844799	0.001046	20.696693
565.154620	-3.000100	3.748000	-11.244000	23.835871	0.001047	20.668298
566.155870	-3.011500	3.747900	-11.286000	23.820094	0.001047	20.697052
567.156183	-3.026200	3.746400	-11.334000	23.815187	0.001049	20.680750
568.157071	-3.016000	3.747600	-11.302000	23.804611	0.001047	20.687217
569.155395	-2.996500	3.747000	-11.227000	23.753219	0.001047	20.683104
570.156446	-3.006500	3.746300	-11.262000	23.837567	0.001049	20.679957
571.156581	-2.980900	3.747200	-11.169000	23.828011	0.001048	20.675591
572.156596	-3.008700	3.745300	-11.268000	23.845777	0.001049	20.688664
573.156780	-3.010100	3.745400	-11.273000	23.878364	0.001048	20.681984
574.157499	-2.999200	3.745800	-11.233000	23.897572	0.001047	20.689392
575.160923	-2.970900	3.746200	-11.127000	23.904469	0.001048	20.670701
576.157792	-3.001000	3.743900	-11.233000	23.882154	0.001047	20.676775
577.158614	-3.002600	3.745500	-11.245000	23.923733	0.001048	20.663940
578.158686	-2.992500	3.744500	-11.204000	23.927117	0.001047	20.663539
579.159016	-2.990800	3.745100	-11.198000	23.926073	0.001047	20.688574
580.158837	-2.993700	3.742500	-11.203000	23.955820	0.001047	20.692326
581.158296	-3.003300	3.742900	-11.239000	23.917594	0.001048	20.698090
582.158494	-3.015400	3.743900	-11.289000	23.900196	0.001048	20.661200
583.158487	-2.997700	3.743800	-11.222000	23.866753	0.001046	20.667495
584.158820	-2.989300	3.742400	-11.186000	23.871874	0.001048	20.664569
585.159591	-2.975000	3.743400	-11.135000	23.895247	0.001048	20.672834
586.160303	-2.982700	3.742500	-11.161000	23.876887	0.001050	20.666277
587.159493	-3.001200	3.740700	-11.225000	23.888554	0.001049	20.675606
588.158907	-2.987900	3.742700	-11.183000	23.890144	0.001046	20.673407
589.161081	-3.027600	3.740400	-11.324000	23.900424	0.001049	20.669965
590.161034	-3.005800	3.742000	-11.247000	23.889696	0.001048	20.653515
591.162159	-2.984500	3.741500	-11.166000	23.877997	0.001047	20.673554
592.163374	-2.958800	3.742600	-11.073000	23.862277	0.001047	20.668697
593.161851	-2.991600	3.739400	-11.186000	23.899111	0.001047	20.675761
594.161244	-3.000900	3.739500	-11.220000	23.913020	0.001047	20.666948
595.161992	-3.004300	3.739000	-11.232000	23.927360	0.001049	20.661886
596.163400	-2.996300	3.739800	-11.204000	23.939124	0.001046	20.667994
597.162825	-3.009100	3.739900	-11.252000	23.912400	0.001049	20.651151
598.165443	-3.014000	3.737800	-11.265000	23.915132	0.001047	20.656736
599.164570	-3.020000	3.736900	-11.282000	23.909686	0.001048	20.662655
600.164233	-2.995200	3.738100	-11.195000	23.925657	0.001047	20.665869
601.162834	-2.988800	3.738300	-11.172000	23.933467	0.001047	20.647146
602.164383	-3.010000	3.736700	-11.247000	23.920333	0.001045	20.663849
603.165502	-3.006400	3.736900	-11.233000	23.957915	0.001048	20.647955
604.164751	-2.997900	3.736200	-11.198000	23.972027	0.001048	20.666375
605.166266	-2.998300	3.736400	-11.201000	23.968611	0.001047	20.656311
606.171963	-3.000400	3.736900	-11.211000	23.949250	0.001048	20.667242
607.167572	-3.011700	3.735100	-11.249000	23.964030	0.001050	20.657407
608.167756	-2.994800	3.735200	-11.185000	23.937005	0.001046	20.668240
609.167666	-3.003900	3.734400	-11.217000	23.947579	0.001046	20.671731
610.167943	-3.029200	3.733200	-11.308000	23.956742	0.001047	20.647726
611.168389	-2.984300	3.734800	-11.144000	23.961536	0.001046	20.668183
612.168659	-2.999100	3.733500	-11.196000	23.957704	0.001047	20.654856
613.169311	-2.973500	3.734300	-11.102000	23.972989	0.001045	20.653588
614.167952	-3.004800	3.732200	-11.213000	23.976218	0.001048	20.668207
615.167725	-2.998800	3.732400	-11.191000	23.990581	0.001047	20.661748
616.171486	-3.020500	3.732300	-11.272000	23.976918	0.001044	20.639035
617.168119	-2.998900	3.732400	-11.192000	24.028822	0.001046	20.670227
618.168289	-3.007600	3.732200	-11.223000	24.004684	0.001048	20.655028
619.170512	-3.000500	3.732100	-11.196000	24.013969	0.001048	20.652959
620.170967	-2.996800	3.730600	-11.179000	24.018053	0.001046	20.671756
621.170935	-3.013300	3.731000	-11.240000	24.025040	0.001046	20.646991
622.173330	-2.988800	3.731700	-11.153000	24.008736	0.001045	20.658617
623.171918	-3.008600	3.731300	-11.225000	24.036835	0.001048	20.653605
624.171852	-2.992500	3.730400	-11.162000	24.031960	0.001045	20.651561
625.173277	-2.999700	3.729600	-11.186000	24.037675	0.001046	20.662509
626.172379	-3.005300	3.730500	-11.210000	24.018820	0.001045	20.661618
627.173508	-3.017100	3.728900	-11.248000	23.976609	0.001045	20.645838
628.174551	-3.002400	3.730000	-11.198000	23.983383	0.001048	20.680136
629.176234	-3.003400	3.729900	-11.201000	23.995505	0.001047	20.660996
630.175334	-3.024300	3.728600	-11.275000	24.028178	0.001044	20.651087
631.176221	-3.007600	3.729700	-11.216000	24.040536	0.001045	20.654947
632.175792	-3.007200	3.728600	-11.212000	24.015730	0.001046	20.658993
633.175694	-3.004600	3.728500	-11.201000	24.029295	0.001045	20.673547
634.175363	-3.001600	3.727300	-11.187000	24.024714	0.001044	20.662313
635.179134	-2.977800	3.729100	-11.104000	24.034789	0.001046	20.661038
636.176443	-2.994200	3.727100	-11.159000	24.042134	0.001044	20.654652
637.176235	-3.005100	3.727100	-11.199000	24.061494	0.001045	20.670750
638.178040	-3.004800	3.726500	-11.196000	24.071275	0.001045	20.641676
639.174895	-3.034600	3.725800	-11.305000	24.084978	0.001045	20.654947
640.176690	-3.004100	3.725100	-11.189000	24.051264	0.001044	20.658593
641.177389	-2.998000	3.727100	-11.173000	24.023190	0.001044	20.648455
642.177846	-2.995200	3.725100	-11.156000	24.011654	0.001044	20.661544
643.179440	-2.983800	3.726500	-11.117000	23.966362	0.001042	20.652158
644.181808	-3.004500	3.725200	-11.191000	23.947505	0.001043	20.648895
645.179344	-3.012500	3.724500	-11.219000	23.961462	0.001043	20.642028
646.178631	-3.038800	3.722400	-11.309000	23.979454	0.001043	20.647269
647.180821	-3.004100	3.723400	-11.184000	23.957484	0.001044	20.647048
648.180190	-2.995500	3.724100	-11.155000	23.985209	0.001044	20.643556
649.181571	-2.994200	3.722700	-11.146000	24.011018	0.001041	20.655689
650.183488	-2.990500	3.723600	-11.134000	23.982641	0.001044	20.676547
651.180288	-2.961400	3.723300	-11.025000	24.016968	0.001044	20.646957
652.182216	-2.997500	3.722900	-11.159000	23.970201	0.001044	20.666915
653.184027	-2.980400	3.722600	-11.094000	23.997355	0.001044	20.642460
654.180731	-3.010300	3.722400	-11.205000	24.001309	0.001041	20.635993
655.180934	-2.981900	3.722600	-11.099000	23.992676	0.001040	20.666220
656.183273	-3.010800	3.720900	-11.201000	24.036117	0.001044	20.666638
657.181083	-2.994200	3.720900	-11.140000	24.031243	0.001043	20.675974
658.182709	-2.997200	3.720100	-11.148000	24.028634	0.001044	20.677151
659.188550	-3.004200	3.720600	-11.176000	24.071283	0.001041	20.659704
660.186390	-3.000600	3.720800	-11.164000	24.093283	0.001041	20.663277
661.181887	-2.993800	3.720400	-11.137000	24.095664	0.001042	20.647170
662.184338	-3.003000	3.719800	-11.170000	24.091318	0.001042	20.662729
663.183804	-3.000400	3.718600	-11.156000	24.101491	0.001041	20.671036
664.182944	-2.999600	3.719900	-11.157000	24.113180	0.001040	20.659524
665.184761	-3.009000	3.718300	-11.187000	24.086387	0.001039	20.644030
666.183306	-2.978500	3.719600	-11.077000	24.119106	0.001041	20.660726
667.186038	-3.000000	3.718700	-11.153000	24.094938	0.001040	20.654030
668.188769	-3.014500	3.716400	-11.202000	24.041669	0.001041	20.654185
669.185103	-2.980500	3.717900	-11.081000	24.053366	0.001038	20.653588
670.185834	-2.997500	3.718100	-11.144000	24.044905	0.001040	20.652215
671.187594	-2.981300	3.717700	-11.081000	24.059284	0.001041	20.649566
672.185111	-3.005200	3.716100	-11.167000	24.060002	0.001039	20.656450
673.184659	-3.018900	3.714800	-11.213000	24.064183	0.001036	20.670603
674.187665	-2.996800	3.716100	-11.136000	24.092444	0.001037	20.665755
675.184870	-2.994600	3.716100	-11.127000	24.100171	0.001039	20.656434
676.185053	-3.005700	3.715200	-11.165000	24.114322	0.001040	20.652608
677.186708	-2.989800	3.714800	-11.106000	24.111012	0.001038	20.663040
678.183662	-3.017100	3.713900	-11.204000	24.118601	0.001040	20.680610
679.184381	-2.986100	3.715300	-11.093000	24.120842	0.001039	20.671952
680.194688	-2.995000	3.713200	-11.120000	24.137511	0.001038	20.682507
681.184787	-3.015400	3.713400	-11.196000	24.137617	0.001037	20.671706
682.183460	-2.987200	3.713300	-11.092000	24.126442	0.001040	20.675672
683.188351	-3.011400	3.713500	-11.181000	24.125969	0.001037	20.668085
684.185784	-2.997300	3.714200	-11.132000	24.143030	0.001038	20.668126
685.186696	-2.996800	3.712700	-11.126000	24.133558	0.001038	20.654831
686.189118	-3.011500	3.712100	-11.178000	24.153813	0.001038	20.664716
687.191826	-2.982300	3.712200	-11.070000	24.160007	0.001035	20.669507
688.187295	-2.982400	3.712300	-11.070000	24.168044	0.001036	20.674249
689.190406	-3.027800	3.710400	-11.234000	24.152696	0.001035	20.660276
690.189236	-3.002400	3.711000	-11.141000	24.193148	0.001036	20.668608
691.188802	-2.987500	3.711800	-11.088000	24.184874	0.001037	20.650350
692.190526	-3.024200	3.710100	-11.219000	24.196962	0.001037	20.656311
693.191662	-3.008000	3.711300	-11.162000	24.207940	0.001036	20.674437
694.188095	-3.003900	3.710100	-11.144000	24.189577	0.001034	20.663604
695.192323	-3.033200	3.709600	-11.251000	24.189423	0.001036	20.664397
696.191600	-3.023900	3.709900	-11.217000	24.214982	0.001036	20.653997
697.188801	-3.016800	3.708600	-11.187000	24.195918	0.001034	20.677552
698.193020	-2.978100	3.711100	-11.051000	24.238642	0.001033	20.660186
699.192098	-3.006500	3.708100	-11.147000	24.234591	0.001033	20.662761
700.190113	-3.007500	3.708700	-11.152000	24.253923	0.001033	20.666506
701.193679	-2.996600	3.708200	-11.111000	24.252554	0.001034	20.661813
702.191378	-3.000300	3.707900	-11.123000	24.268153	0.001034	20.670823
703.191291	-2.986300	3.708600	-11.075000	24.264778	0.001035	20.676447
704.194504	-2.983000	3.708000	-11.060000	24.285961	0.001034	20.668771
705.193849	-2.990100	3.707100	-11.083000	24.304827	0.001033	20.673471
706.190466	-2.971400	3.707700	-11.016000	24.251665	0.001034	20.669931
707.196267	-3.012800	3.706400	-11.166000	24.267688	0.001032	20.680789
708.192196	-2.973300	3.707500	-11.021000	24.286848	0.001033	20.688629
709.191400	-2.984100	3.705900	-11.057000	24.314361	0.001034	20.676872
710.195728	-3.021800	3.706500	-11.199000	24.310710	0.001034	20.682219
711.191989	-3.001300	3.705000	-11.119000	24.320017	0.001032	20.691555
712.191083	-2.984600	3.706400	-11.062000	24.324694	0.001033	20.691506
713.196858	-2.994600	3.705800	-11.097000	24.310759	0.001032	20.688907
714.192060	-2.984100	3.704400	-11.053000	24.263441	0.001031	20.677951
715.191670	-3.000400	3.705600	-11.117000	24.270238	0.001029	20.677182
716.196360	-2.998300	3.703000	-11.101000	24.260890	0.001032	20.682030
717.190922	-2.978600	3.705100	-11.035000	24.238371	0.001030	20.680779
718.192003	-2.985500	3.703600	-11.056000	24.269146	0.001029	20.689364
719.191160	-2.999900	3.704600	-11.113000	24.296969	0.001031	20.685979
720.191135	-2.994100	3.702800	-11.086000	24.306366	0.001030	20.666954
721.190846	-3.023800	3.702200	-11.193000	24.298387	0.001029	20.681237
722.191411	-2.995200	3.703800	-11.092000	24.300131	0.001029	20.674451
723.192385	-3.010900	3.701800	-11.144000	24.332029	0.001030	20.684639
724.191917	-3.020400	3.701500	-11.179000	24.314279	0.001031	20.672996
725.192547	-3.017400	3.702900	-11.172000	24.337611	0.001029	20.693084
726.193394	-2.994400	3.702000	-11.084000	24.337993	0.001030	20.678293
727.193324	-2.974200	3.701000	-11.007000	24.367616	0.001030	20.690942
728.192346	-3.017100	3.700300	-11.162000	24.350878	0.001026	20.697858
729.195542	-3.006700	3.700500	-11.126000	24.364186	0.001029	20.683706
730.192161	-2.995400	3.700000	-11.082000	24.329086	0.001028	20.694964
731.191846	-2.989100	3.700400	-11.059000	24.323218	0.001030	20.698087
732.193649	-2.972900	3.701900	-11.004000	24.328312	0.001029	20.674745
733.192576	-2.989600	3.700400	-11.062000	24.325305	0.001028	20.699232
734.195038	-3.016600	3.700200	-11.161000	24.343242	0.001029	20.695414
735.193966	-2.996000	3.699400	-11.082000	24.360404	0.001030	20.704096
736.195244	-3.033800	3.698100	-11.218000	24.390206	0.001026	20.697008
737.194207	-3.002800	3.698800	-11.105000	24.390531	0.001028	20.697335
738.193900	-3.004300	3.698400	-11.110000	24.386522	0.001027	20.692838
739.200580	-2.978500	3.698500	-11.015000	24.431349	0.001027	20.685178
740.194798	-2.996000	3.698700	-11.081000	24.403920	0.001027	20.703180
741.195846	-2.998400	3.698200	-11.087000	24.405933	0.001026	20.680067
742.210768	-2.996100	3.697600	-11.078000	24.411710	0.001028	20.688709
743.195825	-3.011800	3.697600	-11.135000	24.421155	0.001026	20.692495
744.199256	-3.010700	3.696200	-11.127000	24.385658	0.001027	20.700981
745.197944	-2.984100	3.696400	-11.029000	24.373076	0.001027	20.693099
746.198701	-3.035300	3.695500	-11.214000	24.383996	0.001027	20.697890
747.198399	-2.991200	3.696000	-11.055000	24.399740	0.001025	20.691399
748.199075	-2.994900	3.696100	-11.068000	24.393701	0.001025	20.709524
749.199552	-2.988000	3.695800	-11.042000	24.398101	0.001024	20.668891
750.201750	-3.004900	3.695300	-11.102000	24.415646	0.001024	20.707357
751.200930	-2.976800	3.694800	-10.997000	24.438902	0.001024	20.687539
752.200992	-2.979300	3.696200	-11.011000	24.434330	0.001023	20.712827
753.201804	-3.012400	3.692400	-11.122000	24.440051	0.001024	20.689166
754.202027	-3.003000	3.693400	-11.090000	24.457538	0.001025	20.694382
755.202363	-3.022200	3.693100	-11.161000	24.427868	0.001022	20.707766
756.202949	-3.013200	3.692900	-11.127000	24.412198	0.001022	20.709589
757.203591	-3.015700	3.692400	-11.134000	24.390082	0.001024	20.697358
758.204508	-2.989800	3.692900	-11.040000	24.391703	0.001023	20.703252
759.203598	-2.983500	3.692800	-11.016000	24.411488	0.001022	20.709825
760.202431	-3.025200	3.690100	-11.163000	24.442829	0.001023	20.683892
761.202442	-2.991700	3.691900	-11.042000	24.457129	0.001021	20.709621
762.202256	-3.013200	3.690500	-11.120000	24.446169	0.001021	20.714747
763.204060	-3.005200	3.691300	-11.090000	24.492387	0.001021	20.709907
764.202441	-3.000000	3.691000	-11.071000	24.482340	0.001021	20.701723
765.202096	-3.010700	3.691400	-11.112000	24.452370	0.001022	20.709587
766.201909	-2.993200	3.689400	-11.043000	24.460527	0.001020	20.713030
767.203139	-2.996200	3.689900	-11.054000	24.460836	0.001021	20.698640
768.203258	-3.028500	3.687700	-11.167000	24.461325	0.001020	20.685853
769.203486	-2.994700	3.689400	-11.048000	24.470760	0.001020	20.725194
770.203106	-2.980200	3.688800	-10.992000	24.481329	0.001019	20.721098
771.203502	-3.033800	3.689300	-11.191000	24.474761	0.001017	20.699335
772.202588	-3.014000	3.689700	-11.120000	24.488646	0.001018	20.708050
773.204243	-3.023900	3.688300	-11.152000	24.525606	0.001019	20.721899
774.202671	-3.002400	3.688100	-11.072000	24.496484	0.001018	20.735356
775.203990	-2.989300	3.688400	-11.025000	24.499866	0.001017	20.688485
776.204435	-2.981300	3.689000	-10.997000	24.486861	0.001016	20.694404
777.203775	-3.020700	3.687500	-11.137000	24.481263	0.001016	20.719136
778.203873	-3.001900	3.687600	-11.069000	24.436740	0.001017	20.722831
779.203558	-3.003700	3.687800	-11.076000	24.431614	0.001017	20.702515
780.203439	-3.017200	3.686400	-11.122000	24.429577	0.001017	20.714696
781.206543	-2.996400	3.686900	-11.046000	24.448759	0.001019	20.728725
782.205080	-3.010000	3.686000	-11.094000	24.470597	0.001017	20.739256
783.204967	-3.018800	3.685200	-11.124000	24.481516	0.001015	20.718441
784.206155	-2.976800	3.688100	-10.978000	24.496541	0.001015	20.714075
785.206007	-2.978100	3.686300	-10.977000	24.500224	0.001016	20.716822
786.206383	-3.002300	3.685200	-11.062000	24.483659	0.001016	20.731023
787.207051	-3.011800	3.684000	-11.094000	24.445450	0.001015	20.714500
788.209790	-3.009100	3.684800	-11.087000	24.477343	0.001013	20.730851
789.207839	-3.028000	3.682800	-11.149000	24.483984	0.001013	20.719495
790.208105	-2.952500	3.684500	-10.877000	24.489827	0.001013	20.714451
791.210586	-2.992200	3.684000	-11.022000	24.506441	0.001013	20.726379
792.214424	-2.995900	3.682000	-11.028000	24.481964	0.001013	20.742125
793.209584	-3.003900	3.683600	-11.063000	24.479079	0.001013	20.740654
794.208420	-3.002900	3.682200	-11.056000	24.440146	0.001013	20.723878
795.210270	-2.998600	3.682200	-11.040000	24.436691	0.001012	20.747913
796.209869	-3.012700	3.681700	-11.090000	24.469823	0.001015	20.727099
797.211133	-3.009400	3.681300	-11.078000	24.480619	0.001013	20.728448
798.210255	-3.026700	3.680800	-11.139000	24.447015	0.001011	20.732192
799.210525	-3.001700	3.683100	-11.055000	24.458008	0.001013	20.736582
800.211676	-3.005500	3.680800	-11.059000	24.489672	0.001013	20.738479
801.212168	-2.977300	3.682900	-10.963000	24.469252	0.001013	20.721310
802.213004	-3.001800	3.681700	-11.051000	24.511828	0.001013	20.750277
803.212149	-3.005000	3.679600	-11.055000	24.534585	0.001010	20.747031
804.213718	-3.022400	3.679500	-11.120000	24.558050	0.001013	20.747341
805.214472	-3.024400	3.678200	-11.123000	24.544916	0.001012	20.734162
806.213279	-3.030300	3.678800	-11.147000	24.507028	0.001010	20.739297
807.216279	-3.001600	3.681100	-11.048000	24.527325	0.001012	20.738324
808.214242	-3.001200	3.679000	-11.040000	24.511786	0.001009	20.720836
809.214452	-3.014300	3.678500	-11.087000	24.524123	0.001010	20.738904
810.213185	-3.018800	3.677700	-11.102000	24.539164	0.001009	20.746884
811.214303	-3.007000	3.678700	-11.061000	24.527879	0.001010	20.755001
812.215631	-2.996300	3.677700	-11.019000	24.509962	0.001011	20.748879
813.216079	-2.991200	3.678000	-11.000000	24.550009	0.001010	20.745437
814.215810	-3.002400	3.676500	-11.038000	24.535514	0.001010	20.744169
815.216571	-2.999200	3.676300	-11.025000	24.567999	0.001006	20.762065
816.214830	-3.001200	3.675600	-11.030000	24.561351	0.001009	20.741169
817.214875	-2.978500	3.676700	-10.950000	24.565709	0.001007	20.751707
818.216965	-2.998400	3.677000	-11.023000	24.557773	0.001008	20.754176
819.216668	-2.982700	3.676000	-10.963000	24.556657	0.001009	20.753530
820.217956	-2.994800	3.675300	-11.006000	24.545242	0.001006	20.737808
821.218187	-2.971000	3.677300	-10.923000	24.544745	0.001007	20.731145
822.218604	-2.975800	3.676000	-10.938000	24.526086	0.001006	20.753677
823.224495	-2.993700	3.673800	-10.997000	24.519828	0.001005	20.758778
824.218547	-2.988500	3.675900	-10.985000	24.554571	0.001006	20.776093
825.217867	-3.008900	3.674200	-11.053000	24.569644	0.001006	20.759449
826.218014	-3.012900	3.673800	-11.067000	24.590714	0.001005	20.746924
827.219334	-2.983400	3.674900	-10.962000	24.583398	0.001004	20.759972
828.219825	-2.995900	3.673500	-11.005000	24.538837	0.001004	20.756513
829.220329	-2.990900	3.674500	-10.989000	24.547987	0.001003	20.761427
830.218793	-3.005500	3.673800	-11.040000	24.558335	0.001005	20.749049
831.221680	-2.995400	3.672300	-10.999000	24.574255	0.001004	20.745583
832.218696	-2.981700	3.674000	-10.952000	24.555002	0.001003	20.776526
833.218860	-3.000500	3.672900	-11.020000	24.526802	0.001003	20.746335
834.221024	-3.012000	3.671000	-11.056000	24.488750	0.001003	20.763159
835.219964	-2.978100	3.673100	-10.938000	24.460793	0.001001	20.761663
836.222662	-2.986600	3.673100	-10.969000	24.499571	0.001003	20.774964
837.221778	-2.994100	3.672000	-10.993000	24.480113	0.001000	20.777254
838.223288	-3.015400	3.670100	-11.066000	24.498031	0.001000	20.770574
839.220890	-3.004500	3.670400	-11.026000	24.534070	0.001001	20.787767
840.223295	-3.019400	3.668500	-11.076000	24.560290	0.001000	20.769977
841.222792	-3.023600	3.669000	-11.093000	24.572601	0.001002	20.779011
842.222104	-3.009300	3.669700	-11.042000	24.581327	0.001000	20.756946
843.222585	-2.996500	3.669400	-10.994000	24.587576	0.001000	20.778389
844.221840	-3.007100	3.669100	-11.033000	24.597125	0.001001	20.768530
845.221476	-3.019600	3.669200	-11.078000	24.611627	0.001000	20.763641
846.223277	-3.009000	3.669400	-11.040000	24.608197	0.000999	20.770157
847.221299	-3.028400	3.667700	-11.107000	24.618723	0.001000	20.758433
848.222405	-3.002000	3.666000	-11.004000	24.645266	0.000999	20.771791
849.224532	-2.983900	3.667400	-10.942000	24.634439	0.000997	20.771832
850.223777	-2.990700	3.667500	-10.967000	24.649609	0.000999	20.789900
851.224194	-3.007200	3.667300	-11.026000	24.667402	0.000997	20.795900
852.223688	-3.002700	3.666000	-11.006000	24.696869	0.001000	20.763354
853.227155	-3.006100	3.666700	-11.020000	24.657202	0.000998	20.784716
854.223603	-3.031300	3.665800	-11.111000	24.662995	0.000998	20.765398
855.225637	-3.015300	3.665300	-11.051000	24.665911	0.000998	20.771644
856.225005	-3.016500	3.666100	-11.057000	24.662351	0.000996	20.789409
857.225922	-3.003900	3.665400	-11.009000	24.667752	0.000999	20.780130
858.229070	-3.021600	3.663500	-11.068000	24.683443	0.000997	20.779280
859.225919	-3.007600	3.666300	-11.026000	24.686335	0.000994	20.776966
860.230715	-2.998200	3.665300	-10.987000	24.687402	0.000997	20.789891
861.228321	-2.996500	3.665900	-10.983000	24.711150	0.000997	20.795229
862.227283	-3.000600	3.665000	-10.996000	24.703426	0.000994	20.798384
863.227082	-3.002300	3.663900	-10.999000	24.689496	0.000992	20.786776
864.230135	-3.003000	3.664800	-11.004000	24.690514	0.000994	20.787798
865.228923	-2.996300	3.664100	-10.978000	24.682636	0.000994	20.795539
866.229928	-3.004100	3.664300	-11.007000	24.670749	0.000993	20.778396
867.230135	-2.985600	3.663800	-10.937000	24.693976	0.000993	20.807393
868.230101	-3.006400	3.664000	-11.014000	24.685446	0.000994	20.823964
869.228479	-2.971000	3.664400	-10.886000	24.675027	0.000994	20.805447
870.231539	-3.000600	3.664200	-10.993000	24.701463	0.000993	20.804474
871.229880	-2.997500	3.663600	-10.981000	24.671702	0.000993	20.785516
872.228942	-3.000100	3.661500	-10.984000	24.657176	0.000991	20.802708
873.230867	-3.001000	3.662500	-10.990000	24.664338	0.000993	20.794721
874.230452	-3.006000	3.662000	-11.006000	24.706171	0.000990	20.806354
875.229280	-3.013100	3.660600	-11.029000	24.716647	0.000991	20.811177
876.231071	-3.011200	3.661000	-11.022000	24.745242	0.000991	20.814742
877.230496	-2.989600	3.662200	-10.948000	24.730220	0.000991	20.812469
878.229877	-3.000200	3.659400	-10.978000	24.754569	0.000991	20.798972
879.230902	-2.986400	3.660100	-10.930000	24.746016	0.000991	20.821208
880.231001	-2.989800	3.659300	-10.940000	24.723490	0.000991	20.811406
881.229521	-3.016700	3.659000	-11.037000	24.733934	0.000988	20.801972
882.230463	-2.978500	3.661100	-10.903000	24.752939	0.000989	20.803975
883.230552	-2.999600	3.659500	-10.976000	24.772678	0.000988	20.797705
884.229719	-3.021500	3.658500	-11.054000	24.801499	0.000990	20.813352
885.232501	-3.000000	3.659500	-10.977000	24.830995	0.000989	20.803599
886.229779	-2.997400	3.659500	-10.968000	24.827964	0.000988	20.813359
887.230310	-3.007600	3.658400	-11.002000	24.842089	0.000988	20.808569
888.232675	-2.998400	3.658600	-10.969000	24.832037	0.000986	20.788998
889.232044	-2.968900	3.658600	-10.861000	24.814662	0.000986	20.822295
890.232381	-3.020000	3.656600	-11.042000	24.767391	0.000985	20.809942
891.234035	-2.981900	3.657700	-10.906000	24.774722	0.000988	20.798808
892.233155	-3.029700	3.655200	-11.073000	24.777345	0.000988	20.810449
893.232998	-2.987300	3.657000	-10.924000	24.782160	0.000987	20.810539
894.237809	-2.985300	3.657200	-10.917000	24.806003	0.000985	20.795587
895.237457	-3.016800	3.655500	-11.026000	24.772906	0.000984	20.789873
896.233990	-3.008900	3.655700	-10.999000	24.766568	0.000984	20.790151
897.236867	-3.018500	3.654400	-11.029000	24.773525	0.000984	20.791917
898.235933	-3.002500	3.654100	-10.970000	24.772531	0.000984	20.818420
899.235118	-2.981300	3.655600	-10.896000	24.741005	0.000982	20.801955
900.237722	-3.001700	3.655200	-10.972000	24.723971	0.000984	20.791499
901.236806	-3.009300	3.652900	-10.991000	24.738170	0.000984	20.775403
902.237988	-2.989400	3.654600	-10.924000	24.741649	0.000983	20.787428
903.240605	-2.986200	3.654200	-10.912000	24.747294	0.000984	20.806844
904.239064	-2.985200	3.654100	-10.907000	24.790982	0.000984	20.778616
905.237105	-2.995300	3.653400	-10.942000	24.798346	0.000982	20.771781
906.242127	-2.988100	3.653700	-10.916000	24.830001	0.000980	20.776048
907.240434	-2.993700	3.651800	-10.931000	24.828201	0.000982	20.785622
908.238759	-3.005600	3.652100	-10.975000	24.866803	0.000981	20.803975
909.241858	-3.019200	3.650800	-11.022000	24.872545	0.000981	20.804048
910.240593	-3.002300	3.652000	-10.963000	24.884804	0.000980	20.785058
911.238904	-3.009700	3.650100	-10.985000	24.901444	0.000979	20.770939
912.244778	-2.987700	3.652400	-10.911000	24.926450	0.000980	20.786079
913.241726	-3.002700	3.651100	-10.962000	24.888836	0.000979	20.787682
914.239141	-3.007600	3.650700	-10.979000	24.875608	0.000979	20.786733
915.242580	-2.990700	3.651200	-10.918000	24.870957	0.000980	20.793919
916.240220	-2.977900	3.651900	-10.874000	24.867275	0.000979	20.791647
917.240891	-2.972100	3.651200	-10.851000	24.869889	0.000978	20.778623
918.243901	-3.001000	3.649700	-10.952000	24.856563	0.000979	20.780422
919.241101	-2.992000	3.649900	-10.919000	24.835923	0.000979	20.779621
920.241823	-3.006400	3.647700	-10.965000	24.846219	0.000977	20.785687
921.244955	-2.974000	3.650600	-10.855000	24.851464	0.000978	20.771037
922.243876	-2.998600	3.647900	-10.938000	24.876731	0.000977	20.770791
923.241750	-3.013600	3.647900	-10.992000	24.883272	0.000976	20.777830
924.247591	-3.001100	3.648800	-10.949000	24.856042	0.000976	20.784640
925.243510	-3.012300	3.647600	-10.986000	24.855570	0.000974	20.780847
926.244728	-2.994400	3.646300	-10.917000	24.806393	0.000975	20.780806
927.247798	-2.971300	3.648200	-10.839000	24.761354	0.000975	20.776857
928.244964	-2.996900	3.647600	-10.931000	24.747082	0.000972	20.765379
929.244842	-3.001000	3.645900	-10.941000	24.702691	0.000975	20.765878
930.247280	-2.991800	3.646800	-10.909000	24.715718	0.000972	20.775631
931.246179	-3.006200	3.645800	-10.958000	24.690928	0.000973	20.758340
932.247967	-2.998500	3.645600	-10.930000	24.691131	0.000973	20.778459
933.249444	-3.028800	3.645000	-11.039000	24.733135	0.000972	20.781255
934.245528	-2.996900	3.646100	-10.926000	24.743953	0.000972	20.761291
935.246867	-2.992900	3.645100	-10.908000	24.766437	0.000971	20.768207
936.251595	-2.986400	3.644300	-10.883000	24.784570	0.000970	20.781189
937.248578	-2.988100	3.644000	-10.888000	24.780807	0.000971	20.780732
938.248817	-2.986100	3.644700	-10.881000	24.802695	0.000972	20.759076
939.249106	-2.978300	3.644400	-10.853000	24.842144	0.000969	20.770692
940.248376	-2.985200	3.644100	-10.877000	24.860611	0.000970	20.759353
941.247503	-2.975900	3.645000	-10.845000	24.865017	0.000971	20.752870
942.248768	-3.014200	3.642000	-10.976000	24.847838	0.000969	20.761233
943.250960	-2.987500	3.642100	-10.880000	24.801310	0.000970	20.769065
944.247727	-2.977700	3.643200	-10.848000	24.760775	0.000968	20.736920
945.250341	-2.988600	3.643900	-10.889000	24.751724	0.000970	20.767193
946.251726	-3.040900	3.640800	-11.070000	24.751081	0.000968	20.761806
947.250427	-3.006900	3.641700	-10.949000	24.785351	0.000967	20.736928
948.250715	-3.024800	3.641500	-11.012000	24.803305	0.000967	20.765378
949.253441	-2.996000	3.641000	-10.907000	24.798581	0.000966	20.763007
950.251330	-3.035100	3.638500	-11.041000	24.766281	0.000967	20.758094
951.255546	-2.997800	3.639200	-10.910000	24.742128	0.000967	20.769891
952.253384	-2.998900	3.639500	-10.912000	24.757052	0.000965	20.762582
953.252696	-2.979000	3.642000	-10.848000	24.774582	0.000964	20.746510
954.256637	-2.989100	3.640400	-10.880000	24.794100	0.000964	20.762779
955.254990	-3.010300	3.639000	-10.953000	24.811386	0.000968	20.759737
956.254602	-3.007900	3.639500	-10.946000	24.819638	0.000967	20.742414
957.255538	-2.986800	3.639300	-10.868000	24.778794	0.000965	20.751210
958.255751	-3.029300	3.637300	-11.016000	24.816233	0.000964	20.756067
959.259978	-3.019500	3.639000	-10.986000	24.808747	0.000964	20.745234
960.256596	-2.988000	3.637700	-10.869000	24.831327	0.000963	20.759835
961.255650	-3.008300	3.638000	-10.943000	24.810245	0.000964	20.730616
962.254954	-3.016800	3.637900	-10.972000	24.864854	0.000964	20.755077
963.255799	-2.988000	3.637800	-10.868000	24.867257	0.000963	20.746109
964.258574	-2.985600	3.637000	-10.857000	24.874922	0.000963	20.758543
965.261433	-3.002800	3.636400	-10.918000	24.918955	0.000963	20.759590
966.259934	-3.003100	3.635800	-10.917000	24.944636	0.000963	20.749330
967.258345	-3.010600	3.636400	-10.946000	24.937347	0.000963	20.745332
968.258710	-3.000800	3.635600	-10.908000	24.897476	0.000962	20.744196
969.260530	-2.993900	3.636200	-10.885000	24.878253	0.000961	20.742446
970.262219	-3.010000	3.635200	-10.942000	24.850054	0.000959	20.755870
971.262543	-2.995400	3.636000	-10.890000	24.824989	0.000960	20.737827
972.263076	-3.028000	3.634400	-11.005000	24.806507	0.000960	20.745831
973.262018	-2.972500	3.635500	-10.806000	24.786867	0.000959	20.740819
974.264179	-3.002700	3.633600	-10.910000	24.790923	0.000957	20.741571
975.268643	-2.987600	3.635100	-10.859000	24.808771	0.000959	20.727714
976.266852	-3.005800	3.634300	-10.923000	24.839660	0.000959	20.732161
977.264951	-3.007500	3.633200	-10.925000	24.866190	0.000958	20.750254
978.268439	-3.003600	3.634100	-10.915000	24.874816	0.000957	20.745635
979.266728	-2.991500	3.634300	-10.871000	24.883271	0.000958	20.731835
980.267318	-2.996900	3.632100	-10.884000	24.904107	0.000956	20.741367
981.267831	-2.987600	3.633400	-10.854000	24.896254	0.000954	20.735383
982.267352	-3.000200	3.633600	-10.900000	24.938120	0.000956	20.741841
983.266515	-2.998300	3.632500	-10.890000	24.930594	0.000955	20.753254
984.268345	-2.996600	3.631600	-10.881000	24.934048	0.000956	20.742495
985.268226	-2.998300	3.631000	-10.886000	24.909287	0.000955	20.718116
986.267436	-3.026900	3.630000	-10.986000	24.875744	0.000953	20.729970
987.271438	-2.993900	3.631500	-10.871000	24.879345	0.000954	20.729791
988.267110	-2.991400	3.630800	-10.861000	24.879744	0.000951	20.747261
989.268264	-3.004200	3.629400	-10.902000	24.879597	0.000951	20.736682
990.270285	-2.988500	3.631300	-10.851000	24.883604	0.000953	20.747343
991.267312	-2.987400	3.630200	-10.843000	24.886985	0.000953	20.728449
992.268464	-3.003000	3.630500	-10.901000	24.862940	0.000951	20.751733
993.270438	-3.000500	3.629600	-10.889000	24.834650	0.000952	20.723814
994.266313	-3.006400	3.628400	-10.907000	24.871517	0.000950	20.743272
995.269884	-2.989800	3.627700	-10.845000	24.889144	0.000950	20.723978
996.272218	-2.988400	3.629500	-10.845000	24.909507	0.000950	20.732088
997.268914	-3.000000	3.627600	-10.882000	24.878074	0.000949	20.739421
998.269653	-2.994500	3.628500	-10.864000	24.886138	0.000948	20.719538
999.271266	-3.004500	3.625800	-10.892000	24.875769	0.000948	20.702966
1000.269427	-3.001800	3.626600	-10.884000	24.920397	0.000948	20.729741
1001.268551	-2.968600	3.628200	-10.769000	24.930073	0.000950	20.736609
1002.277041	-2.984800	3.627600	-10.827000	24.961202	0.000948	20.711428
1003.268903	-2.999900	3.625600	-10.875000	24.964884	0.000947	20.728875
1004.268171	-2.989000	3.626200	-10.838000	24.984692	0.000946	20.713194
1005.272791	-2.997600	3.626000	-10.869000	24.998668	0.000948	20.734336
1006.269138	-3.000100	3.624500	-10.873000	25.016985	0.000946	20.717159
1007.270792	-2.988600	3.625700	-10.834000	25.032499	0.000946	20.740795
1008.272536	-3.016200	3.624000	-10.928000	25.059554	0.000945	20.723855
1009.276087	-3.021400	3.623000	-10.946000	25.059326	0.000944	20.744016
1010.269648	-3.004000	3.624500	-10.887000	25.053430	0.000946	20.726717
1011.270062	-3.017800	3.622900	-10.932000	25.073912	0.000944	20.720724
1012.270049	-3.003100	3.624300	-10.883000	25.050743	0.000945	20.729709
1013.273351	-2.984900	3.621800	-10.810000	25.064766	0.000945	20.729562
1014.272738	-3.007200	3.623200	-10.894000	25.078685	0.000944	20.718877
1015.271496	-2.972800	3.624300	-10.773000	25.063716	0.000945	20.721869
1016.272353	-2.996700	3.621400	-10.852000	25.018166	0.000943	20.706965
1017.271707	-2.981800	3.621800	-10.799000	25.006959	0.000943	20.723692
1018.271307	-2.981800	3.621700	-10.797000	25.024763	0.000943	20.714535
1019.271803	-3.019700	3.621300	-10.935000	25.027662	0.000942	20.717446
1020.275076	-2.996300	3.621800	-10.851000	25.020927	0.000940	20.726807
1021.272469	-3.008400	3.620700	-10.892000	25.020626	0.000943	20.740730
1022.273655	-3.010200	3.621200	-10.899000	24.982583	0.000940	20.731942
1023.274031	-2.980700	3.621200	-10.793000	24.953222	0.000940	20.719539
1024.274157	-3.014300	3.620500	-10.912000	24.939742	0.000939	20.731141
1025.272937	-3.010900	3.619600	-10.898000	24.916692	0.000939	20.725074
1026.277896	-2.995400	3.620300	-10.843000	24.928575	0.000938	20.718035
1027.273371	-2.983500	3.621700	-10.804000	24.948042	0.000936	20.713392
1028.274263	-3.026600	3.617600	-10.947000	24.961399	0.000939	20.718264
1029.278934	-3.008900	3.618400	-10.887000	24.954110	0.000937	20.711421
1030.276362	-3.007800	3.618000	-10.881000	24.970790	0.000937	20.727691
1031.276486	-3.001600	3.618400	-10.860000	24.982128	0.000937	20.702559
1032.279086	-2.997000	3.617700	-10.840000	24.970440	0.000937	20.721649
1033.276542	-2.983300	3.619100	-10.795000	24.987316	0.000936	20.715828
1034.278167	-3.001400	3.617100	-10.855000	25.029439	0.000934	20.747680
1035.279675	-2.992800	3.616600	-10.822000	25.037160	0.000935	20.706116
1036.277488	-3.011300	3.615600	-10.887000	25.063115	0.000935	20.717472
1037.275794	-2.984600	3.617400	-10.796000	25.076536	0.000935	20.708184
1038.279071	-2.991400	3.616900	-10.819000	25.105447	0.000935	20.691686
1039.279075	-3.005600	3.617800	-10.871000	25.115373	0.000934	20.727732
1040.278427	-3.019700	3.614500	-10.913000	25.106245	0.000934	20.692013
1041.279961	-3.001300	3.615000	-10.849000	25.057512	0.000933	20.714218
1042.281833	-2.992700	3.615900	-10.819000	25.027159	0.000933	20.717889
1043.278601	-2.971300	3.616000	-10.741000	25.026532	0.000931	20.726744
1044.281300	-3.019900	3.612900	-10.910000	24.977079	0.000931	20.708872
1045.281559	-3.008700	3.614800	-10.875000	24.975116	0.000930	20.716385
1046.279331	-2.992900	3.613200	-10.813000	24.959829	0.000931	20.717162
1047.286314	-2.991100	3.613100	-10.807000	24.989166	0.000930	20.704408
1048.284156	-3.006100	3.612500	-10.858000	24.992497	0.000929	20.724348
1049.281531	-3.005100	3.613100	-10.857000	25.026329	0.000928	20.695717
1050.285882	-2.988000	3.613000	-10.795000	25.031419	0.000930	20.701776
1051.285424	-3.007900	3.611900	-10.863000	25.058694	0.000928	20.686953
1052.284554	-2.978600	3.613400	-10.761000	25.040996	0.000928	20.709967
1053.287026	-3.024100	3.611100	-10.919000	25.056633	0.000928	20.725665
1054.286308	-2.994200	3.612100	-10.814000	25.092385	0.000927	20.706550
1055.285540	-2.993700	3.612100	-10.812000	25.056381	0.000928	20.699805
1056.289670	-3.002200	3.611200	-10.840000	25.054247	0.000924	20.686757
1057.285633	-2.995600	3.610300	-10.814000	25.046412	0.000925	20.710663
1058.283564	-2.999000	3.609200	-10.823000	25.051910	0.000925	20.697688
1059.287344	-2.989200	3.610800	-10.792000	25.031321	0.000929	20.711161
1060.289879	-3.016800	3.610000	-10.890000	25.012720	0.000923	20.715249
1061.284818	-2.996700	3.609100	-10.814000	25.017060	0.000924	20.703010
1062.290155	-2.989400	3.610300	-10.791000	25.025702	0.000923	20.707891
1063.287908	-3.018900	3.608700	-10.892000	25.051861	0.000924	20.700958
1064.285039	-3.003400	3.608900	-10.838000	25.055331	0.000923	20.674567
1065.287964	-2.997400	3.608600	-10.815000	25.042805	0.000922	20.709886
1066.287488	-3.007500	3.608000	-10.850000	25.062074	0.000920	20.679439
1067.288723	-2.991800	3.607300	-10.791000	25.084893	0.000921	20.693813
1068.289484	-3.000600	3.607900	-10.824000	25.098412	0.000921	20.684149
1069.289454	-2.981400	3.606900	-10.752000	25.108754	0.000920	20.691213
1070.289079	-2.990600	3.606700	-10.786000	25.080211	0.000921	20.701441
1071.289647	-2.983600	3.607500	-10.763000	25.076456	0.000921	20.705259
1072.289084	-3.009300	3.605800	-10.848000	25.091571	0.000920	20.713794
1073.289328	-2.988100	3.606200	-10.774000	25.107264	0.000920	20.682129
1074.293636	-3.005900	3.604700	-10.834000	25.117322	0.000919	20.688908
1075.291426	-2.993900	3.604900	-10.792000	25.087736	0.000919	20.694296
1076.288896	-3.019600	3.604200	-10.881000	25.110562	0.000919	20.696348
1077.294838	-2.997900	3.604100	-10.803000	25.119651	0.000917	20.692195
1078.292404	-2.994400	3.604300	-10.792000	25.121320	0.000918	20.685809
1079.289074	-3.016600	3.604100	-10.870000	25.089829	0.000919	20.683593
1080.294381	-2.998700	3.602800	-10.802000	25.068940	0.000918	20.696765
1081.293021	-3.027500	3.602200	-10.904000	25.051813	0.000917	20.681942
1082.288909	-3.001900	3.603200	-10.816000	25.036372	0.000917	20.684460
1083.296649	-3.007700	3.602700	-10.834000	25.033831	0.000916	20.698032
1084.293490	-3.010500	3.601500	-10.841000	25.041511	0.000916	20.690568
1085.290523	-2.999500	3.601000	-10.800000	25.036413	0.000916	20.666482
1086.295457	-3.012300	3.600700	-10.845000	25.055975	0.000914	20.686121
1087.295740	-3.003000	3.601400	-10.815000	25.061391	0.000915	20.684919
1088.291338	-3.011200	3.600500	-10.841000	25.056154	0.000913	20.691042
1089.293796	-2.981800	3.602700	-10.741000	25.052368	0.000914	20.668273
1090.293549	-3.002500	3.601600	-10.813000	25.047962	0.000912	20.684241
1091.290352	-2.987800	3.600200	-10.755000	25.030061	0.000912	20.672435
1092.293711	-2.991000	3.601400	-10.770000	24.988810	0.000913	20.678919
1093.293531	-3.008800	3.599900	-10.830000	24.969239	0.000912	20.673498
1094.292037	-2.961500	3.601700	-10.666000	24.944927	0.000910	20.684658
1095.296405	-2.982800	3.600400	-10.738000	24.973441	0.000908	20.668707
1096.296175	-2.984800	3.598900	-10.741000	24.969532	0.000910	20.660515
1097.295692	-2.994400	3.598800	-10.774000	24.954913	0.000909	20.673817
1098.298330	-3.013800	3.598400	-10.844000	24.946882	0.000907	20.665756
1099.294884	-3.035200	3.596300	-10.915000	24.967790	0.000910	20.685321
1100.292978	-3.007500	3.597300	-10.817000	24.956525	0.000906	20.665952
1101.296215	-2.985600	3.598000	-10.741000	24.978972	0.000907	20.688959
1102.293419	-3.013000	3.597500	-10.839000	25.003879	0.000908	20.690251
1103.294125	-3.004800	3.597600	-10.810000	25.036504	0.000905	20.677955
1104.297364	-3.008100	3.596800	-10.819000	25.034061	0.000905	20.691625
1105.295906	-3.016300	3.595100	-10.843000	25.058893	0.000905	20.666762
1106.292436	-2.998100	3.596600	-10.782000	25.086835	0.000905	20.677743
1107.298082	-2.992100	3.596800	-10.761000	25.127382	0.000906	20.685730
1108.294859	-3.017000	3.594200	-10.842000	25.151275	0.000904	20.679369
1109.298886	-3.018000	3.593300	-10.843000	25.179304	0.000904	20.671946
1110.295971	-2.998300	3.595000	-10.778000	25.198896	0.000903	20.677391
1111.296936	-3.018600	3.593700	-10.847000	25.221167	0.000902	20.678888
1112.295073	-3.003500	3.592600	-10.789000	25.229709	0.000904	20.666600
1113.298314	-3.009000	3.593300	-10.811000	25.225165	0.000902	20.660140
1114.299083	-3.006700	3.592600	-10.800000	25.247957	0.000901	20.661211
1115.298203	-3.003100	3.592200	-10.787000	25.285102	0.000902	20.658202
1116.303100	-2.967000	3.594200	-10.663000	25.226240	0.000898	20.668806
1117.299870	-2.995200	3.592200	-10.759000	25.265211	0.000899	20.684701
1118.301981	-2.991900	3.592900	-10.749000	25.211168	0.000898	20.666003
1119.303114	-3.019400	3.590800	-10.840000	25.185811	0.000897	20.672315
1120.300035	-3.003600	3.591200	-10.785000	25.210622	0.000898	20.656919
1121.298919	-3.015800	3.591700	-10.830000	25.201176	0.000896	20.662135
1122.301318	-2.991800	3.591600	-10.744000	25.190013	0.000897	20.667998
1123.298323	-3.009500	3.590700	-10.805000	25.206812	0.000897	20.665422
1124.298971	-2.992400	3.591000	-10.744000	25.169305	0.000895	20.662855
1125.301453	-3.048900	3.588800	-10.939000	25.163441	0.000895	20.664081
1126.301976	-2.980900	3.591000	-10.703000	25.182236	0.000895	20.657344
1127.299493	-3.021100	3.587700	-10.837000	25.196356	0.000894	20.662986
1128.302463	-3.000500	3.589300	-10.768000	25.189027	0.000895	20.655153
1129.301801	-2.984400	3.589800	-10.712000	25.166576	0.000893	20.682403
1130.299092	-2.972900	3.587800	-10.665000	25.162676	0.000891	20.652880
1131.306554	-2.991600	3.589000	-10.736000	25.151886	0.000892	20.657221
1132.302010	-2.988500	3.587800	-10.720000	25.172969	0.000892	20.670327
1133.301945	-2.974300	3.587700	-10.669000	25.134533	0.000892	20.665880
1134.308743	-2.973500	3.588600	-10.669000	25.156658	0.000891	20.668651
1135.304739	-2.981100	3.587800	-10.694000	25.183433	0.000891	20.668030
1136.304259	-2.979200	3.587200	-10.686000	25.208871	0.000890	20.669861
1137.306726	-2.998600	3.585900	-10.752000	25.209360	0.000890	20.683630
1138.305057	-3.013400	3.585200	-10.802000	25.232705	0.000890	20.647320
1139.303943	-2.997400	3.584800	-10.745000	25.205410	0.000890	20.673974
1140.305913	-2.992800	3.586000	-10.730000	25.181649	0.000889	20.676672
1141.305588	-3.002200	3.586900	-10.767000	25.140086	0.000889	20.661023
1142.305408	-2.989700	3.584200	-10.714000	25.126087	0.000886	20.654556
1143.305477	-3.010700	3.584000	-10.790000	25.095565	0.000887	20.651890
1144.307583	-3.012600	3.584800	-10.798000	25.027196	0.000886	20.661023
1145.305815	-3.014900	3.583500	-10.803000	25.053184	0.000886	20.645856
1146.309546	-2.994900	3.583600	-10.732000	25.035503	0.000887	20.666991
1147.307394	-3.011900	3.583000	-10.791000	25.061010	0.000884	20.662723
1148.306582	-2.992600	3.583500	-10.723000	25.103105	0.000886	20.665151
1149.308646	-2.978900	3.584700	-10.676000	25.127862	0.000886	20.664399
1150.306411	-2.996500	3.580900	-10.730000	25.169328	0.000885	20.653394
1151.308487	-2.991400	3.582900	-10.717000	25.152203	0.000885	20.658013
1152.312003	-3.009600	3.581100	-10.776000	25.166795	0.000884	20.672191
1153.311659	-2.986700	3.582300	-10.698000	25.164458	0.000885	20.649453
1154.309614	-3.001800	3.580400	-10.746000	25.185239	0.000882	20.670792
1155.312357	-2.984200	3.581900	-10.688000	25.161502	0.000881	20.655021
1156.312712	-2.997100	3.581100	-10.731000	25.189515	0.000882	20.647581
1157.308554	-2.992400	3.580100	-10.711000	25.163611	0.000882	20.658561
1158.314413	-2.993000	3.581000	-10.717000	25.150484	0.000883	20.669566
1159.314825	-2.970000	3.581300	-10.636000	25.146461	0.000881	20.681650
1160.309908	-3.000400	3.578800	-10.737000	25.150159	0.000881	20.672559
1161.315367	-2.995700	3.579200	-10.722000	25.123587	0.000880	20.676230
1162.319578	-2.991400	3.579300	-10.706000	25.178025	0.000880	20.667817
1163.315100	-2.991800	3.578100	-10.704000	25.175313	0.000879	20.670311
1164.316335	-2.981700	3.579400	-10.671000	25.206086	0.000878	20.662323
1165.313275	-3.012700	3.577000	-10.775000	25.224505	0.000879	20.673229
1166.312076	-2.989100	3.578100	-10.695000	25.199547	0.000878	20.689426
1167.313423	-3.017500	3.576200	-10.790000	25.172203	0.000876	20.668136
1168.315039	-2.995400	3.578100	-10.717000	25.161983	0.000876	20.665937
1169.314715	-2.994500	3.576500	-10.708000	25.214929	0.000874	20.670728
1170.315326	-3.003000	3.575800	-10.737000	25.221314	0.000875	20.677138
1171.316834	-2.999900	3.576900	-10.730000	25.257402	0.000874	20.673067
1172.313715	-2.985300	3.575400	-10.673000	25.263419	0.000874	20.680057
1173.315426	-2.995900	3.575900	-10.712000	25.256377	0.000872	20.679150
1174.315877	-2.995400	3.574700	-10.707000	25.244098	0.000874	20.681995
1175.318860	-3.011200	3.574100	-10.759000	25.212333	0.000874	20.677130
1176.317360	-2.986600	3.575700	-10.678000	25.202243	0.000870	20.660835
1177.315358	-2.991800	3.574000	-10.690000	25.152595	0.000872	20.681169
1178.316691	-2.991100	3.574900	-10.692000	25.147204	0.000871	20.685241
1179.319004	-2.994200	3.573500	-10.699000	25.121268	0.000871	20.693344
1180.320320	-3.004400	3.573200	-10.734000	25.147791	0.000870	20.661171
1181.317583	-3.005700	3.573400	-10.740000	25.121390	0.000871	20.678766
1182.321408	-3.004700	3.571700	-10.730000	25.113133	0.000871	20.695609
1183.323787	-3.015900	3.572000	-10.771000	25.095656	0.000871	20.673795
1184.321369	-3.033800	3.571400	-10.834000	25.130951	0.000870	20.689314
1185.323883	-3.005100	3.570800	-10.730000	25.150152	0.000868	20.684407
1186.324699	-3.009000	3.569900	-10.740000	25.206968	0.000866	20.669373
1187.320800	-3.012500	3.571300	-10.758000	25.195307	0.000868	20.688962
1188.326239	-2.993400	3.570800	-10.687000	25.208132	0.000868	20.692829
1189.323618	-3.002000	3.571100	-10.719000	25.212855	0.000866	20.685716
1190.320988	-2.999600	3.570800	-10.710000	25.214345	0.000867	20.672512
1191.324512	-3.018800	3.569600	-10.775000	25.233562	0.000865	20.691333
1192.326509	-3.012400	3.569800	-10.752000	25.208369	0.000864	20.684532
1193.321995	-3.006500	3.568400	-10.728000	25.209419	0.000865	20.685112
1194.325659	-2.998700	3.569400	-10.703000	25.216422	0.000863	20.695937
1195.327426	-3.008300	3.568900	-10.735000	25.266882	0.000864	20.688750
1196.322351	-3.008900	3.568500	-10.736000	25.273266	0.000862	20.695160
1197.326192	-3.001600	3.568700	-10.711000	25.297823	0.000864	20.688996
1198.326738	-2.992000	3.568600	-10.677000	25.280570	0.000862	20.706762
1199.322667	-3.003500	3.568300	-10.716000	25.271940	0.000863	20.696199
1200.326143	-2.981300	3.568200	-10.637000	25.254075	0.000861	20.707187
1201.326909	-3.013100	3.564800	-10.739000	25.261973	0.000861	20.687615
1202.326989	-3.006000	3.565900	-10.719000	25.251087	0.000859	20.698497
1203.326426	-3.012700	3.565700	-10.741000	25.288143	0.000859	20.694450
1204.326436	-2.998100	3.566400	-10.690000	25.320085	0.000860	20.693329
1205.326007	-2.994900	3.565600	-10.677000	25.327185	0.000859	20.687656
1206.329562	-3.003500	3.564500	-10.705000	25.330238	0.000858	20.684083
1207.334939	-2.998000	3.564400	-10.683000	25.351090	0.000857	20.690796
1208.325603	-3.010500	3.565200	-10.732000	25.372120	0.000859	20.686307
1209.329315	-3.018600	3.562200	-10.752000	25.393915	0.000855	20.692545
1210.328970	-3.038000	3.563500	-10.824000	25.372682	0.000856	20.691140
1211.326048	-3.013400	3.562200	-10.734000	25.373952	0.000856	20.679137
1212.327602	-2.980700	3.563700	-10.622000	25.353712	0.000855	20.701016
1213.329855	-3.012300	3.562900	-10.732000	25.375312	0.000854	20.699945
1214.325493	-3.012100	3.561800	-10.726000	25.400185	0.000854	20.719232
1215.329533	-3.004600	3.561900	-10.701000	25.404882	0.000854	20.683643
1216.328493	-2.983400	3.563400	-10.630000	25.399957	0.000854	20.689603
1217.326870	-3.018500	3.560200	-10.745000	25.370582	0.000853	20.708473
1218.327389	-2.987000	3.562900	-10.642000	25.354209	0.000854	20.699618
1219.328848	-3.021000	3.560000	-10.754000	25.305488	0.000853	20.714237
1220.327754	-2.997600	3.560800	-10.673000	25.274596	0.000852	20.712618
1221.329079	-3.004700	3.559600	-10.695000	25.238353	0.000851	20.700412
1222.331077	-2.979200	3.560400	-10.606000	25.223632	0.000849	20.684682
1223.329673	-2.991700	3.560100	-10.648000	25.223461	0.000849	20.740464
1224.331829	-2.977100	3.561200	-10.600000	25.250030	0.000849	20.700281
1225.329927	-2.990100	3.558900	-10.639000	25.246277	0.000849	20.707419
1226.330277	-3.010700	3.559300	-10.714000	25.251692	0.000848	20.700527
1227.331218	-2.987900	3.559500	-10.635000	25.264915	0.000848	20.715227
1228.332546	-2.998500	3.558000	-10.668000	25.240056	0.000848	20.718244
1229.330996	-2.986400	3.559200	-10.628000	25.226906	0.000846	20.719266
1230.334910	-3.001200	3.557000	-10.674000	25.192086	0.000845	20.707541
1231.333432	-2.980100	3.559100	-10.606000	25.190222	0.000843	20.717998
1232.334858	-2.989700	3.557100	-10.634000	25.161932	0.000846	20.717099
1233.336030	-3.012800	3.555800	-10.712000	25.137274	0.000845	20.711784
1234.333280	-2.985800	3.556600	-10.618000	25.176640	0.000845	20.738503
1235.333911	-2.997200	3.556500	-10.658000	25.184497	0.000845	20.698025
1236.337701	-3.000100	3.556000	-10.667000	25.220066	0.000843	20.697224
1237.337661	-2.965400	3.557100	-10.546000	25.231303	0.000842	20.699971
1238.332573	-3.007000	3.555000	-10.689000	25.219789	0.000843	20.723027
1239.339907	-2.990000	3.554600	-10.628000	25.212477	0.000841	20.721850
1240.336938	-2.997500	3.555400	-10.657000	25.207754	0.000840	20.727540
1241.333010	-3.003500	3.554900	-10.676000	25.239218	0.000840	20.711238
1242.335503	-3.008700	3.553000	-10.688000	25.262986	0.000841	20.731783
1243.339024	-2.996200	3.553500	-10.646000	25.261635	0.000840	20.714778
1244.335277	-3.001800	3.553900	-10.667000	25.247223	0.000840	20.716904
1245.339118	-2.977100	3.554100	-10.580000	25.253810	0.000837	20.727311
1246.338658	-3.008900	3.552500	-10.688000	25.253590	0.000836	20.729935
1247.335380	-2.997600	3.552200	-10.646000	25.231923	0.000838	20.731890
1248.338267	-2.983300	3.552500	-10.597000	25.214669	0.000837	20.729741
1249.340556	-3.006100	3.550300	-10.672000	25.220687	0.000835	20.728195
1250.337872	-2.984800	3.551600	-10.600000	25.186828	0.000835	20.712695
1251.342911	-2.980800	3.551400	-10.585000	25.171487	0.000835	20.723372
1252.342903	-2.973200	3.552000	-10.560000	25.175160	0.000835	20.738440
1253.337647	-2.997300	3.549900	-10.639000	25.191316	0.000834	20.715303
1254.341779	-2.992400	3.550400	-10.623000	25.200086	0.000836	20.733592
1255.341504	-3.000200	3.549800	-10.649000	25.214321	0.000834	20.730339
1256.337293	-3.009600	3.549900	-10.683000	25.257868	0.000834	20.743240
1257.346461	-3.014000	3.548900	-10.695000	25.286448	0.000832	20.741589
1258.343024	-2.994000	3.548400	-10.622000	25.298653	0.000831	20.725867
1259.339337	-2.995100	3.547800	-10.625000	25.294371	0.000830	20.722990
1260.341975	-2.983600	3.549600	-10.588000	25.316542	0.000832	20.748097
1261.342574	-3.005100	3.548700	-10.664000	25.326476	0.000830	20.743372
1262.339185	-2.986300	3.548400	-10.595000	25.349021	0.000831	20.740404
1263.342189	-3.021800	3.545600	-10.712000	25.368707	0.000829	20.756853
1264.346427	-2.997200	3.546500	-10.629000	25.388931	0.000830	20.754875
1265.340858	-3.001300	3.545600	-10.640000	25.401233	0.000827	20.745890
1266.344272	-2.995400	3.546600	-10.623000	25.440474	0.000829	20.746888
1267.347935	-3.031100	3.545600	-10.745000	25.453695	0.000827	20.735982
1268.341408	-2.964300	3.547500	-10.514000	25.438431	0.000827	20.738198
1269.343626	-3.001300	3.546600	-10.644000	25.418533	0.000827	20.744296
1270.345282	-2.992600	3.544900	-10.608000	25.424046	0.000826	20.726122
1271.341654	-2.991000	3.545600	-10.603000	25.437193	0.000824	20.748809
1272.343305	-2.993100	3.543700	-10.606000	25.453346	0.000824	20.754597
1273.344800	-2.992400	3.546200	-10.610000	25.442510	0.000824	20.746561
1274.342349	-3.001800	3.544000	-10.637000	25.433538	0.000825	20.736129
1275.348210	-3.010500	3.544300	-10.669000	25.434458	0.000825	20.732785
1276.344351	-3.005200	3.542500	-10.646000	25.421758	0.000823	20.749431
1277.342927	-2.991800	3.542700	-10.598000	25.398816	0.000821	20.751050
1278.344687	-2.962300	3.543100	-10.494000	25.380896	0.000822	20.762454
1279.350075	-3.007900	3.541500	-10.652000	25.364523	0.000820	20.736055
1280.343607	-3.005900	3.541900	-10.645000	25.380001	0.000821	20.746856
1281.348347	-3.006300	3.540800	-10.644000	25.385178	0.000822	20.756796
1282.349379	-3.012500	3.540200	-10.664000	25.400012	0.000819	20.755096
1283.343829	-3.004100	3.540500	-10.635000	25.425812	0.000819	20.760614
1284.345837	-2.987800	3.541100	-10.579000	25.463139	0.000819	20.746414
1285.348598	-3.001200	3.539500	-10.621000	25.481546	0.000818	20.751148
1286.344934	-2.994400	3.540700	-10.601000	25.470889	0.000818	20.769370
1287.348523	-2.995000	3.539200	-10.599000	25.484110	0.000818	20.756568
1288.345442	-2.997500	3.540000	-10.611000	25.500741	0.000817	20.755725
1289.345079	-3.000800	3.538200	-10.615000	25.476311	0.000818	20.759167
1290.346388	-2.984300	3.539900	-10.561000	25.511748	0.000816	20.751131
1291.346690	-2.995400	3.538900	-10.599000	25.515753	0.000815	20.744247
1292.349167	-3.011700	3.537400	-10.652000	25.527434	0.000815	20.745072
1293.349030	-2.989600	3.538800	-10.578000	25.554843	0.000812	20.762641
1294.346805	-3.005600	3.536700	-10.629000	25.514865	0.000813	20.768486
1295.347775	-2.992100	3.537400	-10.583000	25.507604	0.000812	20.767833
1296.347560	-2.986100	3.536500	-10.558000	25.465605	0.000813	20.746994
1297.346438	-3.016700	3.536200	-10.667000	25.416929	0.000811	20.748375
1298.346904	-2.999100	3.535000	-10.601000	25.403651	0.000815	20.766811
1299.350076	-2.997300	3.535900	-10.597000	25.436607	0.000810	20.777618
1300.351895	-3.004200	3.534500	-10.617000	25.451139	0.000811	20.753804
1301.349005	-2.981700	3.535600	-10.540000	25.463489	0.000810	20.752455
1302.351282	-3.022600	3.534000	-10.681000	25.479893	0.000810	20.774144
1303.349011	-3.017100	3.532000	-10.655000	25.497713	0.000809	20.765486
1304.347898	-2.999700	3.534500	-10.601000	25.523234	0.000808	20.757924
1305.347475	-2.990800	3.535200	-10.572000	25.557375	0.000807	20.760442
1306.351090	-2.993800	3.534700	-10.581000	25.551513	0.000808	20.742227
1307.346900	-3.013000	3.533300	-10.644000	25.583048	0.000806	20.749716
1308.349485	-2.988400	3.532900	-10.557000	25.551758	0.000806	20.764759
1309.347848	-3.035400	3.531400	-10.717000	25.554070	0.000806	20.778935
1310.348291	-3.003100	3.531600	-10.605000	25.522908	0.000806	20.774193
1311.350140	-3.002000	3.530900	-10.599000	25.555706	0.000807	20.763508
1312.349449	-3.010700	3.530600	-10.628000	25.571294	0.000806	20.773473
1313.350156	-2.992800	3.531400	-10.567000	25.570049	0.000805	20.765585
1314.350922	-2.982400	3.531200	-10.530000	25.568779	0.000803	20.753403
1315.350083	-3.004800	3.529100	-10.603000	25.554721	0.000803	20.784330
1316.352030	-2.986400	3.530900	-10.544000	25.567436	0.000803	20.769599
1317.353499	-3.038700	3.527700	-10.717000	25.557000	0.000803	20.767653
1318.350811	-3.010400	3.529800	-10.624000	25.537667	0.000803	20.759143
1319.350623	-3.007700	3.528700	-10.612000	25.549463	0.000803	20.788059
1320.354908	-2.996500	3.529400	-10.575000	25.589203	0.000802	20.773915
1321.350599	-3.026600	3.527100	-10.673000	25.604758	0.000802	20.790486
1322.351938	-3.023300	3.527800	-10.664000	25.613533	0.000800	20.779859
1323.353327	-3.004700	3.527400	-10.598000	25.607566	0.000798	20.785720
1324.357648	-3.005400	3.527000	-10.599000	25.579036	0.000799	20.789310
1325.352691	-3.009000	3.526700	-10.610000	25.557945	0.000799	20.806534
1326.353516	-3.028900	3.525900	-10.678000	25.574770	0.000801	20.784077
1327.358198	-2.988900	3.526500	-10.539000	25.557546	0.000797	20.777210
1328.356027	-3.023500	3.524600	-10.654000	25.554982	0.000798	20.760410
1329.352463	-2.989500	3.526500	-10.541000	25.548974	0.000796	20.785671
1330.354610	-3.022700	3.525100	-10.655000	25.495027	0.000797	20.780807
1331.354645	-3.003900	3.526600	-10.593000	25.514654	0.000796	20.781077
1332.354682	-2.998500	3.525800	-10.571000	25.522583	0.000796	20.788091
1333.357903	-2.999200	3.525300	-10.571000	25.524073	0.000795	20.793381
1334.356133	-3.004400	3.523600	-10.584000	25.532099	0.000794	20.796225
1335.354333	-3.002600	3.523900	-10.580000	25.511943	0.000795	20.795424
1336.354218	-3.011400	3.523900	-10.611000	25.533768	0.000793	20.771348
1337.353843	-2.989600	3.522700	-10.530000	25.532889	0.000793	20.784691
1338.361279	-3.004700	3.521900	-10.581000	25.519945	0.000793	20.809150
1339.356343	-2.999700	3.522600	-10.565000	25.536495	0.000791	20.789260
1340.359194	-3.005800	3.522100	-10.586000	25.552604	0.000791	20.773670
1341.355735	-2.999000	3.523300	-10.566000	25.531301	0.000791	20.804907
1342.356613	-2.998500	3.520900	-10.556000	25.545816	0.000790	20.798621
1343.359231	-3.017100	3.521700	-10.625000	25.561787	0.000789	20.799962
1344.357728	-2.993600	3.521200	-10.539000	25.564791	0.000789	20.795392
1345.358064	-3.002900	3.520600	-10.571000	25.539808	0.000789	20.808708
1346.366706	-2.998100	3.520400	-10.553000	25.562903	0.000789	20.798237
1347.358555	-3.020900	3.519200	-10.630000	25.564099	0.000787	20.801809
1348.360008	-3.025500	3.517900	-10.642000	25.576546	0.000788	20.791076
1349.359137	-3.001500	3.519400	-10.562000	25.597913	0.000788	20.805897
1350.361224	-2.999400	3.517900	-10.550000	25.604628	0.000787	20.801736
1351.362256	-2.991900	3.519200	-10.528000	25.638816	0.000785	20.809519
1352.361848	-2.996600	3.517400	-10.539000	25.642739	0.000785	20.786432
1353.360635	-2.997200	3.517400	-10.542000	25.653940	0.000785	20.810010
1354.364071	-3.007600	3.517000	-10.576000	25.630863	0.000785	20.795842
1355.362753	-2.999200	3.516600	-10.546000	25.593615	0.000784	20.815331
1356.365508	-2.991900	3.517300	-10.523000	25.555194	0.000782	20.831272
1357.362573	-3.021100	3.515300	-10.619000	25.540265	0.000783	20.809641
1358.363901	-2.984800	3.516300	-10.495000	25.498593	0.000782	20.812363
1359.367075	-3.000700	3.516800	-10.552000	25.482711	0.000782	20.822492
1360.364959	-3.015100	3.515000	-10.597000	25.498495	0.000782	20.806575
1361.366187	-2.951600	3.517300	-10.381000	25.521655	0.000785	20.826040
1362.365831	-2.997500	3.515000	-10.535000	25.556220	0.000780	20.811914
1363.365631	-2.990700	3.515500	-10.512000	25.598613	0.000780	20.818928
1364.364322	-3.030700	3.512200	-10.644000	25.602431	0.000781	20.800952
1365.368816	-3.006600	3.513200	-10.562000	25.603831	0.000778	20.825590
1366.366380	-3.027300	3.513600	-10.635000	25.610815	0.000779	20.822173
1367.369203	-2.984600	3.513500	-10.485000	25.602936	0.000778	20.822321
1368.368939	-2.987700	3.513300	-10.495000	25.601747	0.000777	20.834403
1369.367445	-2.990300	3.513000	-10.504000	25.620281	0.000775	20.825043
1370.372776	-2.986800	3.512200	-10.489000	25.622610	0.000778	20.809364
1371.374079	-3.003600	3.511900	-10.546000	25.632329	0.000776	20.826711
1372.368760	-3.031600	3.510000	-10.640000	25.673230	0.000775	20.795245
1373.368626	-3.010000	3.510800	-10.567000	25.677772	0.000772	20.814980
1374.367234	-3.013600	3.509600	-10.576000	25.663210	0.000774	20.797510
1375.373287	-2.986200	3.511400	-10.485000	25.669991	0.000773	20.837984
1376.372845	-2.998300	3.509500	-10.522000	25.654762	0.000773	20.806568
1377.370189	-3.008800	3.508600	-10.555000	25.625679	0.000772	20.818136
1378.370515	-3.010600	3.509100	-10.564000	25.619892	0.000772	20.815169
1379.371132	-2.999400	3.507300	-10.518000	25.629163	0.000771	20.820212
1380.371081	-2.997400	3.509900	-10.518000	25.609334	0.000770	20.800298
1381.373949	-2.999100	3.509400	-10.525000	25.625980	0.000769	20.793783
1382.372737	-2.997900	3.507200	-10.513000	25.616360	0.000772	20.807354
1383.372719	-2.985500	3.508400	-10.473000	25.626746	0.000769	20.810673
1384.371120	-3.032000	3.505700	-10.627000	25.611956	0.000770	20.805776
1385.371444	-3.023800	3.505100	-10.597000	25.602930	0.000770	20.794340
1386.375607	-2.999300	3.506200	-10.515000	25.626120	0.000769	20.788707
1387.375052	-2.986000	3.506500	-10.469000	25.627007	0.000769	20.796236
1388.373892	-3.021700	3.504800	-10.588000	25.651605	0.000769	20.797234
1389.373588	-3.007400	3.505700	-10.542000	25.621968	0.000767	20.778373
1390.375871	-2.977500	3.505200	-10.435000	25.599593	0.000767	20.802368
1391.375159	-3.002500	3.505400	-10.524000	25.583695	0.000768	20.797308
1392.376658	-3.013400	3.504500	-10.559000	25.595970	0.000765	20.788299
1393.374992	-3.000000	3.503400	-10.510000	25.606357	0.000765	20.772651
1394.379144	-3.013100	3.503600	-10.557000	25.615368	0.000765	20.789763
1395.374541	-3.012600	3.502400	-10.550000	25.625486	0.000765	20.803243
1396.374570	-3.001500	3.502200	-10.510000	25.637679	0.000762	20.806955
1397.380595	-3.017200	3.500200	-10.560000	25.630175	0.000765	20.754372
1398.375962	-3.008100	3.502100	-10.534000	25.606594	0.000764	20.789959
1399.377603	-3.013100	3.500900	-10.547000	25.592146	0.000762	20.776871
1400.376968	-2.986000	3.501800	-10.456000	25.594717	0.000765	20.772816
1401.378608	-3.004100	3.500100	-10.513000	25.610045	0.000762	20.791529
1402.378341	-3.000000	3.500200	-10.500000	25.618396	0.000761	20.786640
1403.382179	-2.991300	3.501200	-10.472000	25.610510	0.000759	20.781090
1404.378816	-3.033200	3.499900	-10.613000	25.576192	0.000760	20.796884
1405.378804	-3.012600	3.499600	-10.542000	25.518583	0.000761	20.788816
1406.379498	-2.990100	3.500300	-10.464000	25.515498	0.000760	20.785718
1407.379198	-2.995700	3.497900	-10.477000	25.502229	0.000758	20.774763
1408.382259	-3.016900	3.498100	-10.553000	25.539350	0.000760	20.776006
1409.378921	-3.012400	3.497400	-10.534000	25.522646	0.000760	20.770611
1410.380328	-2.993800	3.499300	-10.475000	25.504509	0.000758	20.765673
1411.379890	-3.005900	3.497000	-10.511000	25.501269	0.000757	20.774748
1412.381855	-3.006000	3.497100	-10.511000	25.472541	0.000757	20.775770
1413.383018	-2.997700	3.496800	-10.481000	25.482505	0.000757	20.786251
1414.383654	-2.991700	3.496900	-10.460000	25.510492	0.000756	20.776424
1415.383874	-2.993600	3.496400	-10.466000	25.539310	0.000755	20.778337
1416.383092	-3.003800	3.494600	-10.496000	25.558196	0.000753	20.762216
1417.384020	-3.010400	3.495600	-10.523000	25.594574	0.000754	20.781681
1418.383755	-3.021200	3.494700	-10.557000	25.627573	0.000754	20.795382
1419.385927	-2.993600	3.494000	-10.459000	25.645009	0.000754	20.771642
1420.387764	-3.007200	3.494300	-10.507000	25.646775	0.000753	20.781477
1421.389234	-2.992900	3.494000	-10.456000	25.603659	0.000752	20.774684
1422.388449	-2.999900	3.493000	-10.477000	25.617456	0.000752	20.770996
1423.392390	-3.013500	3.493000	-10.525000	25.608160	0.000750	20.760238
1424.394236	-3.009900	3.492600	-10.512000	25.635046	0.000752	20.778706
1425.392105	-2.998900	3.492100	-10.471000	25.651488	0.000750	20.767719
1426.392997	-3.013600	3.491200	-10.520000	25.687912	0.000750	20.749300
1427.390368	-2.983100	3.492100	-10.416000	25.707967	0.000748	20.759960
1428.393645	-3.007200	3.489800	-10.492000	25.713803	0.000750	20.776254
1429.396726	-3.011500	3.490000	-10.509000	25.741231	0.000750	20.766345
1430.394383	-3.002700	3.491600	-10.484000	25.736218	0.000747	20.762731
1431.394727	-3.000600	3.490500	-10.472000	25.728129	0.000747	20.760296
1432.394020	-3.009800	3.489400	-10.501000	25.704239	0.000746	20.761432
1433.393880	-2.981800	3.489700	-10.404000	25.686643	0.000748	20.745179
1434.395973	-2.985100	3.488700	-10.413000	25.653401	0.000745	20.750673
1435.393963	-2.994100	3.489700	-10.448000	25.623488	0.000747	20.756665
1436.399771	-2.981400	3.489900	-10.404000	25.618099	0.000746	20.762633
1437.395128	-2.988700	3.489600	-10.428000	25.612182	0.000745	20.752422
1438.393408	-2.992500	3.488600	-10.439000	25.669078	0.000746	20.751720
1439.402453	-2.985600	3.488300	-10.412000	25.653670	0.000744	20.756159
1440.395290	-2.991100	3.486800	-10.429000	25.669022	0.000743	20.773001
1441.395268	-2.976700	3.486700	-10.377000	25.694123	0.000744	20.749848
1442.395427	-2.995000	3.486200	-10.440000	25.696500	0.000742	20.776418
1443.394905	-3.001400	3.485700	-10.461000	25.699364	0.000744	20.749897
1444.397291	-2.979800	3.486500	-10.389000	25.710051	0.000743	20.747354
1445.404275	-2.998000	3.485900	-10.449000	25.721796	0.000741	20.748720
1446.398548	-2.980400	3.485600	-10.387000	25.750763	0.000741	20.754582
1447.398009	-2.987000	3.484600	-10.407000	25.731181	0.000740	20.752456
1448.397932	-2.966700	3.485300	-10.339000	25.716701	0.000738	20.763043
1449.399189	-2.986900	3.485900	-10.411000	25.721145	0.000740	20.752808
1450.400191	-2.994800	3.484500	-10.433000	25.727608	0.000740	20.755031
1451.402106	-2.980500	3.483600	-10.383000	25.735698	0.000738	20.747511
1452.397849	-2.981900	3.482500	-10.382000	25.743601	0.000738	20.755923
1453.399570	-3.000100	3.483200	-10.449000	25.769385	0.000741	20.761908
1454.399287	-2.991100	3.483400	-10.418000	25.788372	0.000737	20.730718
1455.400256	-2.972200	3.482600	-10.349000	25.815123	0.000737	20.745737
1456.399064	-2.998300	3.480500	-10.434000	25.804169	0.000737	20.765080
1457.401376	-2.993000	3.482100	-10.421000	25.804494	0.000737	20.744069
1458.400655	-3.016500	3.479200	-10.494000	25.810851	0.000736	20.743341
1459.400933	-2.989300	3.481300	-10.406000	25.779127	0.000734	20.747037
1460.405177	-3.007500	3.478500	-10.461000	25.743422	0.000734	20.748157
1461.401552	-2.993500	3.481100	-10.419000	25.692276	0.000735	20.732819
1462.405665	-2.989000	3.479800	-10.399000	25.679302	0.000734	20.756299
1463.403302	-2.994100	3.480100	-10.418000	25.669755	0.000734	20.731062
1464.404046	-2.990100	3.479200	-10.402000	25.664269	0.000733	20.741673
1465.404311	-2.991700	3.478800	-10.406000	25.674630	0.000731	20.721733
1466.407562	-2.988900	3.477300	-10.392000	25.662999	0.000732	20.733285
1467.404904	-2.993300	3.477800	-10.409000	25.676910	0.000732	20.725445
1468.405411	-3.017400	3.476600	-10.489000	25.705266	0.000731	20.752031
1469.405869	-3.000900	3.477000	-10.432000	25.711550	0.000730	20.718986
1470.405312	-3.010100	3.475900	-10.462000	25.724303	0.000729	20.723736
1471.407074	-2.986000	3.477200	-10.382000	25.730880	0.000731	20.735558
1472.406727	-2.996300	3.475400	-10.412000	25.733045	0.000729	20.732770
1473.410120	-2.985300	3.476200	-10.376000	25.741290	0.000727	20.737005
1474.408119	-2.985500	3.474200	-10.371000	25.745074	0.000729	20.729900
1475.410130	-2.984100	3.475900	-10.372000	25.706942	0.000728	20.729057
1476.414074	-3.023000	3.474000	-10.499000	25.690192	0.000727	20.734045
1477.410809	-2.996900	3.472700	-10.405000	25.671903	0.000728	20.728477
1478.409494	-3.015900	3.473500	-10.475000	25.672847	0.000725	20.709036
1479.411457	-2.991400	3.472900	-10.388000	25.649072	0.000727	20.746798
1480.409820	-3.007600	3.472900	-10.444000	25.678439	0.000727	20.732671
1481.409944	-3.010500	3.470800	-10.448000	25.645522	0.000724	20.751295
1482.412848	-3.022500	3.470900	-10.490000	25.647362	0.000723	20.724692
1483.411418	-2.986100	3.471900	-10.366000	25.632084	0.000724	20.719304
1484.410466	-2.993700	3.471000	-10.390000	25.644561	0.000724	20.720456
1485.411307	-3.005700	3.470100	-10.428000	25.640019	0.000722	20.715419
1486.411285	-3.014700	3.470700	-10.462000	25.656192	0.000722	20.721707
1487.412950	-2.997500	3.469600	-10.399000	25.634256	0.000721	20.742824
1488.414216	-2.994900	3.469700	-10.388000	25.602722	0.000722	20.715894
1489.416434	-3.013800	3.467300	-10.447000	25.588168	0.000723	20.737787
1490.412294	-2.998400	3.469900	-10.404000	25.565481	0.000719	20.705044
1491.413935	-3.024700	3.467700	-10.488000	25.588420	0.000721	20.720496
1492.413374	-3.004300	3.468100	-10.418000	25.542745	0.000720	20.708290
1493.413571	-3.004500	3.467300	-10.417000	25.532439	0.000719	20.724493
1494.413414	-3.016100	3.466000	-10.453000	25.511518	0.000719	20.709172
1495.414798	-3.011300	3.467700	-10.441000	25.537112	0.000718	20.712115
1496.415367	-3.028000	3.465900	-10.493000	25.530949	0.000718	20.721100
1497.414159	-3.015100	3.466800	-10.452000	25.555679	0.000718	20.713693
1498.415823	-3.021800	3.466300	-10.473000	25.562671	0.000717	20.715973
1499.418739	-2.993800	3.465100	-10.373000	25.577429	0.000716	20.708509
1500.415993	-2.976900	3.466100	-10.317000	25.563811	0.000714	20.706686
1501.418001	-2.991500	3.464300	-10.362000	25.572765	0.000717	20.711411
1502.421292	-2.971800	3.465600	-10.298000	25.554173	0.000715	20.692264
1503.418670	-3.000800	3.465200	-10.397000	25.552715	0.000714	20.725415
1504.420259	-3.007500	3.463700	-10.416000	25.554131	0.000715	20.714509
1505.419254	-3.008700	3.462700	-10.417000	25.547375	0.000713	20.711042
1506.420548	-2.993500	3.462900	-10.365000	25.528684	0.000713	20.717403
1507.420974	-2.981700	3.461800	-10.321000	25.466619	0.000712	20.691584
1508.424131	-2.999600	3.460700	-10.380000	25.489332	0.000712	20.724826
1509.420970	-2.981000	3.462200	-10.320000	25.481582	0.000712	20.717042
1510.421771	-3.004200	3.461600	-10.397000	25.468182	0.000714	20.705482
1511.425130	-2.984900	3.460400	-10.326000	25.523401	0.000711	20.700242
1512.424876	-2.996900	3.461100	-10.372000	25.557248	0.000710	20.709104
1513.426858	-2.996200	3.459400	-10.363000	25.559494	0.000708	20.707566
1514.425679	-2.992100	3.460100	-10.351000	25.601489	0.000710	20.689522
1515.426696	-2.999500	3.459100	-10.375000	25.587203	0.000710	20.699358
1516.424042	-3.018900	3.458000	-10.439000	25.629368	0.000710	20.704247
1517.425815	-3.003800	3.459800	-10.391000	25.651035	0.000708	20.715578
1518.429448	-2.996200	3.458000	-10.360000	25.673972	0.000710	20.693095
1519.426990	-2.971300	3.458700	-10.276000	25.704364	0.000707	20.693749
1520.426628	-3.021400	3.456000	-10.439000	25.722840	0.000707	20.700928
1521.426975	-3.024200	3.455900	-10.450000	25.692139	0.000708	20.695220
1522.427725	-3.011000	3.456400	-10.406000	25.664880	0.000707	20.686808
1523.427394	-3.008500	3.457000	-10.399000	25.676284	0.000707	20.690675
1524.431600	-2.993700	3.456300	-10.346000	25.656228	0.000708	20.709414
1525.428442	-3.012800	3.455200	-10.408000	25.634219	0.000705	20.687781
1526.427603	-2.999400	3.456100	-10.365000	25.637279	0.000705	20.692751
1527.428412	-3.005100	3.455500	-10.383000	25.661258	0.000703	20.680324
1528.430212	-2.999400	3.454700	-10.361000	25.661657	0.000705	20.688312
1529.432814	-2.994700	3.453400	-10.341000	25.640681	0.000702	20.695220
1530.434205	-3.015700	3.453000	-10.412000	25.628064	0.000702	20.688712
1531.430081	-3.025100	3.452100	-10.442000	25.599982	0.000702	20.695596
1532.432210	-2.984200	3.453400	-10.304000	25.608065	0.000702	20.701343
1533.431823	-3.014800	3.452000	-10.405000	25.655128	0.000702	20.691712
1534.432814	-3.000400	3.452500	-10.357000	25.666524	0.000701	20.711694
1535.433464	-2.998700	3.451500	-10.349000	25.688289	0.000702	20.689931
1536.436718	-2.976800	3.452300	-10.275000	25.718534	0.000700	20.703240
1537.433123	-3.004400	3.451500	-10.369000	25.745840	0.000702	20.706960
1538.433858	-2.980300	3.451100	-10.284000	25.770459	0.000699	20.692334
1539.436445	-2.980200	3.450600	-10.282000	25.747801	0.000701	20.685221
1540.437008	-3.024100	3.450300	-10.434000	25.725614	0.000700	20.677634
1541.442178	-2.995300	3.450400	-10.334000	25.731710	0.000697	20.670005
1542.436211	-2.985300	3.448800	-10.295000	25.738979	0.000698	20.690110
1543.436954	-3.002400	3.448900	-10.354000	25.739500	0.000699	20.709127
1544.437269	-2.981000	3.448800	-10.280000	25.705193	0.000698	20.691263
1545.438976	-2.994900	3.448300	-10.326000	25.670935	0.000697	20.694786
1546.437287	-3.007300	3.448800	-10.371000	25.642634	0.000694	20.674894
1547.436541	-2.985900	3.448500	-10.295000	25.608341	0.000695	20.694982
1548.439316	-2.991300	3.448600	-10.314000	25.563742	0.000696	20.670103
1549.437508	-2.985000	3.448500	-10.293000	25.590279	0.000694	20.683953
1550.441672	-3.005700	3.446700	-10.358000	25.636724	0.000694	20.680813
1551.437612	-3.020300	3.446100	-10.406000	25.650684	0.000693	20.676341
1552.443026	-2.983100	3.445700	-10.278000	25.681939	0.000692	20.679759
1553.438521	-2.979200	3.446400	-10.266000	25.701644	0.000691	20.703820
1554.438064	-2.969200	3.445900	-10.231000	25.709987	0.000692	20.675688
1555.438528	-2.982100	3.446500	-10.276000	25.681524	0.000691	20.704474
1556.440093	-3.000700	3.443700	-10.332000	25.693839	0.000692	20.681280
1557.440542	-3.017600	3.444500	-10.393000	25.665164	0.000690	20.669548
1558.437662	-2.987600	3.445100	-10.290000	25.645498	0.000692	20.672555
1559.437403	-3.013400	3.442100	-10.372000	25.645809	0.000691	20.682825
1560.443719	-2.996500	3.441900	-10.313000	25.619997	0.000692	20.678712
1561.436374	-3.026100	3.441000	-10.412000	25.579818	0.000690	20.682457
1562.442715	-2.971400	3.444100	-10.233000	25.592793	0.000690	20.677469
1563.439676	-2.996600	3.440600	-10.309000	25.558499	0.000690	20.671002
1564.438751	-2.986700	3.442200	-10.280000	25.566477	0.000688	20.673798
1565.442093	-3.001900	3.441800	-10.331000	25.561797	0.000687	20.673366
1566.441598	-2.979400	3.442400	-10.255000	25.590841	0.000689	20.680250
1567.441369	-2.979600	3.441000	-10.252000	25.612306	0.000687	20.672884
1568.439894	-2.975700	3.441300	-10.239000	25.645906	0.000686	20.672017
1569.450588	-2.994900	3.438800	-10.298000	25.663748	0.000686	20.662434
1570.442094	-2.985400	3.440500	-10.270000	25.701881	0.000686	20.657587
1571.443362	-2.986300	3.438600	-10.267000	25.703476	0.000686	20.668199
1572.439015	-2.974800	3.439000	-10.230000	25.691765	0.000684	20.667815
1573.440694	-2.975900	3.439500	-10.235000	25.691733	0.000684	20.676319
1574.441444	-2.995100	3.436600	-10.291000	25.666272	0.000686	20.660228
1575.440072	-2.981100	3.438100	-10.248000	25.627805	0.000682	20.650989
1576.443411	-3.003000	3.437500	-10.322000	25.637922	0.000683	20.667316
1577.440845	-2.987700	3.437800	-10.270000	25.638419	0.000683	20.663073
1578.443309	-3.009000	3.435700	-10.337000	25.607577	0.000681	20.658176
1579.442327	-3.022400	3.435800	-10.384000	25.618786	0.000680	20.659002
1580.441755	-2.988200	3.435300	-10.265000	25.634813	0.000682	20.670832
1581.442780	-2.985000	3.436300	-10.257000	25.690023	0.000682	20.659901
1582.442343	-3.000800	3.435200	-10.307000	25.673965	0.000679	20.655625
1583.441666	-2.999400	3.433800	-10.299000	25.688501	0.000680	20.657424
1584.444531	-2.998500	3.434100	-10.296000	25.688526	0.000678	20.665036
1585.443817	-3.013600	3.434200	-10.349000	25.693198	0.000679	20.669729
1586.444548	-2.979200	3.433400	-10.228000	25.734316	0.000679	20.656500
1587.448397	-3.005200	3.434000	-10.319000	25.748177	0.000678	20.656198
1588.443878	-3.005000	3.432100	-10.313000	25.740421	0.000677	20.656468
1589.444067	-2.981200	3.432500	-10.232000	25.731012	0.000678	20.663139
1590.445127	-3.017200	3.432100	-10.354000	25.739306	0.000677	20.661987
1591.446874	-2.999900	3.430900	-10.291000	25.756894	0.000675	20.656419
1592.446859	-2.990700	3.431400	-10.261000	25.733071	0.000674	20.663785
1593.444167	-3.003300	3.430100	-10.300000	25.734008	0.000675	20.654293
1594.448211	-2.993900	3.431100	-10.271000	25.747673	0.000675	20.681773
1595.446548	-3.002700	3.428700	-10.294000	25.756674	0.000675	20.670424
1596.446360	-2.985200	3.430900	-10.241000	25.749163	0.000673	20.663352
1597.450900	-3.021000	3.429400	-10.359000	25.773164	0.000673	20.672289
1598.446259	-3.001400	3.428600	-10.290000	25.803569	0.000674	20.659682
1599.451008	-2.981500	3.429500	-10.224000	25.813408	0.000672	20.655814
1600.447519	-2.967100	3.430100	-10.176000	25.849631	0.000674	20.642888
1601.447014	-2.987800	3.428600	-10.242000	25.852334	0.000674	20.661726
1602.452090	-2.988700	3.428000	-10.244000	25.857900	0.000673	20.667318
1603.447207	-2.981900	3.427600	-10.220000	25.865721	0.000671	20.645774
1604.447869	-2.980600	3.427400	-10.214000	25.870986	0.000673	20.643477
1605.446838	-3.009800	3.426500	-10.312000	25.865420	0.000671	20.648317
1606.448988	-3.007900	3.426300	-10.305000	25.835806	0.000671	20.645121
1607.451382	-3.022900	3.424600	-10.351000	25.855459	0.000670	20.670556
1608.448995	-3.008000	3.426200	-10.305000	25.857731	0.000670	20.669519
1609.448431	-3.010400	3.424400	-10.309000	25.867300	0.000670	20.679133
1610.450024	-3.013600	3.423700	-10.317000	25.859325	0.000668	20.668276
1611.450434	-3.029300	3.423300	-10.370000	25.888540	0.000668	20.658743
1612.462514	-3.001600	3.424000	-10.277000	25.886530	0.000666	20.651507
1613.454852	-3.006400	3.422900	-10.289000	25.878254	0.000665	20.665480
1614.453765	-2.983500	3.423800	-10.214000	25.828067	0.000667	20.662005
1615.453048	-2.989000	3.423000	-10.230000	25.823567	0.000666	20.632825
1616.452796	-2.985800	3.422800	-10.220000	25.835196	0.000665	20.653993
1617.454983	-2.966200	3.423900	-10.155000	25.854842	0.000664	20.657133
1618.455913	-3.005300	3.422500	-10.284000	25.859587	0.000664	20.661899
1619.453749	-2.995000	3.421400	-10.246000	25.898616	0.000665	20.664123
1620.453863	-2.981800	3.421300	-10.201000	25.895035	0.000662	20.671907
1621.453500	-2.996000	3.420100	-10.245000	25.889193	0.000662	20.687850
1622.453770	-2.996800	3.420900	-10.251000	25.893839	0.000662	20.665489
1623.458924	-3.029000	3.418600	-10.354000	25.870565	0.000663	20.666290
1624.453454	-3.002600	3.419400	-10.266000	25.884742	0.000661	20.663936
1625.457739	-2.991200	3.420000	-10.229000	25.884099	0.000660	20.668980
1626.454904	-3.022700	3.418900	-10.333000	25.870802	0.000661	20.662260
1627.453884	-3.008200	3.418400	-10.282000	25.826083	0.000663	20.674712
1628.459007	-3.026200	3.416300	-10.337000	25.784097	0.000660	20.657666
1629.455514	-2.988600	3.416400	-10.210000	25.751844	0.000661	20.665572
1630.456559	-3.036800	3.415300	-10.369000	25.721902	0.000657	20.664894
1631.456251	-2.998800	3.418700	-10.251000	25.685503	0.000659	20.654412
1632.456582	-3.023000	3.417600	-10.331000	25.674670	0.000657	20.668663
1633.462028	-3.022700	3.415400	-10.323000	25.671845	0.000658	20.685268
1634.458796	-3.000000	3.416100	-10.247000	25.692234	0.000657	20.676823
1635.459101	-3.008300	3.416600	-10.277000	25.736112	0.000657	20.680592
1636.456923	-3.011600	3.415400	-10.285000	25.754742	0.000657	20.654731
1637.463593	-3.009000	3.414500	-10.274000	25.805153	0.000656	20.667911
1638.459787	-3.011400	3.415500	-10.284000	25.832124	0.000656	20.676513
1639.462100	-2.994000	3.414500	-10.222000	25.827232	0.000655	20.671599
1640.460804	-2.994800	3.413800	-10.223000	25.818997	0.000658	20.661903
1641.460858	-3.019200	3.414100	-10.306000	25.838976	0.000654	20.654945
1642.461388	-3.013100	3.413200	-10.283000	25.822294	0.000654	20.654308
1643.460851	-3.006500	3.413900	-10.262000	25.837032	0.000653	20.665321
1644.461251	-3.007200	3.411700	-10.258000	25.831710	0.000655	20.659026
1645.460591	-3.007200	3.412000	-10.259000	25.841175	0.000653	20.677544
1646.461351	-3.013800	3.412700	-10.284000	25.851275	0.000652	20.666827
1647.459042	-3.021700	3.411500	-10.308000	25.873858	0.000653	20.674340
1648.460680	-3.003500	3.410200	-10.241000	25.900607	0.000650	20.678453
1649.462224	-2.987600	3.411500	-10.191000	25.905579	0.000651	20.664006
1650.459670	-2.990600	3.410600	-10.199000	25.875161	0.000651	20.659527
1651.463661	-2.994400	3.409900	-10.210000	25.877902	0.000651	20.665126
1652.460740	-3.004700	3.408900	-10.241000	25.865973	0.000649	20.673057
1653.460447	-2.984300	3.410100	-10.176000	25.827740	0.000648	20.669738
1654.461717	-2.983900	3.409000	-10.171000	25.840729	0.000650	20.682787
1655.463807	-2.990500	3.408300	-10.191000	25.835163	0.000649	20.666762
1656.460167	-2.995800	3.409100	-10.211000	25.852798	0.000645	20.687325
1657.460531	-2.992100	3.408800	-10.199000	25.869196	0.000647	20.659224
1658.461523	-3.011700	3.406800	-10.259000	25.829117	0.000650	20.682502
1659.462212	-3.021800	3.405300	-10.289000	25.826984	0.000646	20.702647
1660.464476	-2.993400	3.406400	-10.196000	25.814932	0.000644	20.688642
1661.462037	-2.989100	3.407700	-10.185000	25.781767	0.000646	20.685200
1662.465779	-2.972500	3.407800	-10.128000	25.776599	0.000646	20.695657
1663.460977	-3.010700	3.405400	-10.252000	25.774467	0.000644	20.673124
1664.463600	-3.003800	3.406200	-10.230000	25.777812	0.000644	20.684072
1665.465089	-2.983500	3.405800	-10.160000	25.787977	0.000644	20.678635
1666.462376	-3.007900	3.405000	-10.240000	25.798061	0.000641	20.690187
1667.462736	-3.025600	3.403400	-10.296000	25.779684	0.000644	20.691642
1668.462536	-2.993900	3.404500	-10.193000	25.797816	0.000643	20.690890
1669.464106	-3.014000	3.402700	-10.254000	25.822239	0.000642	20.696932
1670.464770	-2.986300	3.403400	-10.162000	25.816079	0.000642	20.683156
1671.465519	-3.001100	3.402600	-10.211000	25.819823	0.000643	20.680278
1672.465559	-3.010100	3.402900	-10.242000	25.760330	0.000640	20.690219
1673.463742	-2.976300	3.403600	-10.129000	25.782743	0.000640	20.678593
1674.462801	-3.021200	3.401500	-10.274000	25.813230	0.000640	20.684561
1675.462675	-3.008900	3.401000	-10.232000	25.847085	0.000639	20.688224
1676.467863	-3.000600	3.400900	-10.204000	25.859357	0.000638	20.682060
1677.465247	-2.998600	3.401100	-10.197000	25.845344	0.000638	20.708288
1678.464870	-3.015700	3.400400	-10.253000	25.849396	0.000639	20.684856
1679.466377	-3.016100	3.400800	-10.255000	25.845270	0.000637	20.681185
1680.466414	-3.003700	3.398900	-10.209000	25.848306	0.000635	20.705573
1681.467807	-2.998400	3.398300	-10.188000	25.859276	0.000635	20.704740
1682.465532	-3.014000	3.398300	-10.241000	25.871849	0.000635	20.703145
1683.470517	-3.002200	3.398200	-10.201000	25.879873	0.000635	20.674219
1684.469234	-3.015700	3.398700	-10.249000	25.886782	0.000633	20.695861
1685.464541	-2.993600	3.397800	-10.171000	25.920569	0.000633	20.703251
1686.471420	-3.039800	3.397000	-10.325000	25.950621	0.000633	20.699777
1687.465190	-2.988400	3.396700	-10.150000	25.963811	0.000633	20.686001
1688.466087	-2.994300	3.397600	-10.172000	25.998394	0.000632	20.689450
1689.466709	-3.009200	3.396600	-10.219000	25.986399	0.000632	20.693522
1690.470558	-3.014400	3.396200	-10.236000	26.020770	0.000632	20.689173
1691.469047	-3.011500	3.395700	-10.225000	26.025937	0.000631	20.699106
1692.466592	-3.012000	3.395400	-10.225000	26.025489	0.000630	20.710986
1693.466070	-3.009900	3.395200	-10.219000	25.980728	0.000633	20.707266
1694.466740	-2.998200	3.396600	-10.183000	25.949831	0.000630	20.697561
1695.466340	-3.003800	3.394800	-10.196000	25.934176	0.000631	20.700799
1696.473104	-3.006000	3.393500	-10.200000	25.925184	0.000630	20.700300
1697.467068	-2.998100	3.393100	-10.171000	25.925558	0.000631	20.694037
1698.468209	-3.004300	3.394900	-10.196000	25.943965	0.000630	20.707315
1699.466785	-3.003500	3.393500	-10.191000	25.917038	0.000628	20.677416
1700.466068	-3.022900	3.391700	-10.252000	25.912986	0.000628	20.702271
1701.469077	-2.981500	3.393600	-10.117000	25.899721	0.000625	20.702696
1702.468902	-3.003500	3.392800	-10.189000	25.887596	0.000626	20.717543
1703.468836	-3.017700	3.391600	-10.234000	25.908217	0.000627	20.726405
1704.467535	-3.002100	3.391700	-10.181000	25.911098	0.000624	20.715074
1705.467791	-3.002700	3.391700	-10.183000	25.930326	0.000623	20.696458
1706.469227	-2.982000	3.392000	-10.114000	25.931889	0.000623	20.718892
1707.472497	-2.994300	3.389100	-10.147000	25.907916	0.000624	20.694806
1708.469211	-2.991100	3.390000	-10.139000	25.897735	0.000622	20.689794
1709.468375	-2.989200	3.389400	-10.131000	25.879247	0.000622	20.720061
1710.468372	-2.989900	3.389100	-10.132000	25.847158	0.000624	20.718646
1711.469919	-2.992200	3.390200	-10.143000	25.828571	0.000623	20.712777
1712.472622	-3.001900	3.389200	-10.173000	25.799631	0.000624	20.707413
1713.470871	-3.015700	3.388300	-10.217000	25.778732	0.000621	20.699696
1714.473039	-2.986000	3.388700	-10.118000	25.779953	0.000622	20.705664
1715.468681	-3.000800	3.387800	-10.164000	25.768225	0.000620	20.721386
1716.471344	-3.001200	3.387300	-10.165000	25.789271	0.000620	20.698428
1717.474435	-3.005900	3.387900	-10.182000	25.810757	0.000619	20.718590
1718.472843	-3.004500	3.386600	-10.173000	25.827123	0.000619	20.721280
1719.476398	-2.983000	3.388300	-10.106000	25.862661	0.000617	20.712882
1720.472158	-2.998000	3.386700	-10.152000	25.902448	0.000619	20.700693
1721.475280	-2.988200	3.387300	-10.120000	25.930165	0.000619	20.723324
1722.471945	-2.992700	3.385400	-10.130000	25.967181	0.000618	20.717364
1723.475479	-2.998200	3.385200	-10.148000	25.953193	0.000619	20.727493
1724.471443	-2.999200	3.385300	-10.152000	25.957546	0.000618	20.717167
1725.476812	-3.020400	3.384900	-10.222000	25.939580	0.000615	20.713816
1726.473052	-2.986800	3.383800	-10.105000	25.932378	0.000615	20.741670
1727.474155	-2.991900	3.384800	-10.126000	25.980119	0.000616	20.724673
1728.479128	-2.987900	3.383900	-10.109000	25.996833	0.000612	20.730559
1729.471842	-3.008700	3.383100	-10.178000	25.991666	0.000615	20.712091
1730.476455	-2.989900	3.383500	-10.115000	25.991121	0.000614	20.716759
1731.473045	-3.000300	3.382400	-10.148000	25.982716	0.000612	20.738188
1732.473217	-3.007800	3.383500	-10.176000	25.987321	0.000614	20.729537
1733.473514	-3.028300	3.382700	-10.242000	25.949826	0.000613	20.725532
1734.481374	-3.004900	3.382100	-10.162000	25.927651	0.000611	20.724117
1735.474119	-3.022600	3.381200	-10.220000	25.918407	0.000612	20.721943
1736.473688	-2.996500	3.382100	-10.134000	25.885889	0.000610	20.734795
1737.476276	-3.012600	3.380600	-10.183000	25.865642	0.000613	20.725835
1738.480549	-2.996600	3.379900	-10.128000	25.869760	0.000611	20.743249
1739.478410	-2.990900	3.380100	-10.108000	25.842384	0.000609	20.739930
1740.475854	-2.991500	3.379900	-10.110000	25.852841	0.000609	20.718191
1741.479157	-2.997000	3.380100	-10.129000	25.818035	0.000608	20.736807
1742.478545	-2.983400	3.379800	-10.082000	25.831552	0.000608	20.733316
1743.478711	-2.999100	3.379300	-10.134000	25.856097	0.000610	20.741851
1744.480112	-2.997100	3.378800	-10.124000	25.851946	0.000609	20.723456
1745.478975	-3.012400	3.378000	-10.174000	25.837510	0.000607	20.739301
1746.478535	-3.024500	3.377100	-10.213000	25.835573	0.000608	20.736881
1747.477545	-2.994400	3.377800	-10.113000	25.850229	0.000606	20.739750
1748.480028	-3.017700	3.376200	-10.187000	25.836069	0.000608	20.753501
1749.479230	-2.979400	3.377000	-10.060000	25.851467	0.000606	20.737200
1750.480999	-3.002500	3.376400	-10.137000	25.852394	0.000605	20.732441
1751.481569	-3.002100	3.376300	-10.135000	25.837233	0.000603	20.740920
1752.483546	-2.992300	3.376700	-10.103000	25.829013	0.000605	20.748784
1753.481316	-3.045100	3.374300	-10.273000	25.837087	0.000603	20.747885
1754.482696	-3.009700	3.374700	-10.154000	25.832366	0.000604	20.739350
1755.484544	-3.031000	3.374600	-10.226000	25.833384	0.000602	20.753649
1756.480164	-3.014800	3.373900	-10.170000	25.843100	0.000602	20.761987
1757.482095	-3.007400	3.373500	-10.144000	25.879689	0.000603	20.751801
1758.481238	-3.019300	3.372100	-10.180000	25.906414	0.000602	20.759208
1759.485374	-2.989600	3.373100	-10.084000	25.906218	0.000601	20.756641
1760.482979	-2.967200	3.374300	-10.010000	25.904110	0.000601	20.740298
1761.486799	-2.976200	3.373600	-10.040000	25.934292	0.000600	20.770621
1762.486243	-3.002500	3.372700	-10.126000	25.970056	0.000600	20.751074
1763.486442	-3.010600	3.372100	-10.151000	26.015786	0.000599	20.743438
1764.482484	-3.001900	3.373200	-10.125000	26.048657	0.000600	20.753705
1765.488461	-3.004500	3.371100	-10.127000	26.055281	0.000599	20.769844
1766.482256	-3.011700	3.370100	-10.148000	26.068722	0.000598	20.737829
1767.484609	-2.991200	3.372000	-10.086000	26.032206	0.000598	20.773212
1768.484091	-3.000500	3.371200	-10.114000	26.038145	0.000596	20.750256
1769.485985	-3.000800	3.370700	-10.114000	26.004093	0.000597	20.749708
1770.486403	-2.990500	3.369800	-10.076000	26.003767	0.000595	20.750330
1771.487082	-3.008800	3.369400	-10.137000	26.004841	0.000596	20.770849
1772.487521	-2.983800	3.370300	-10.056000	25.998031	0.000594	20.731289
1773.485066	-3.012200	3.369500	-10.147000	25.980178	0.000595	20.769304
1774.486993	-3.005200	3.370100	-10.127000	25.959526	0.000594	20.769419
1775.485903	-3.007300	3.369100	-10.131000	25.985369	0.000595	20.759820
1776.488157	-2.989100	3.369000	-10.069000	25.963708	0.000594	20.743748
1777.486522	-2.993300	3.367300	-10.078000	25.961202	0.000593	20.757826
1778.487194	-2.992000	3.366600	-10.072000	25.950948	0.000592	20.777871
1779.487340	-2.999700	3.366700	-10.098000	25.915795	0.000591	20.754408
1780.488565	-2.986000	3.367000	-10.053000	25.912222	0.000591	20.762673
1781.489783	-3.000600	3.366500	-10.100000	25.938873	0.000592	20.757204
1782.487208	-3.004600	3.367000	-10.116000	25.972081	0.000591	20.742677
1783.495601	-3.027600	3.365000	-10.187000	26.021488	0.000589	20.771454
1784.488651	-3.011900	3.365100	-10.134000	26.015825	0.000590	20.753909
1785.487926	-3.005600	3.365300	-10.114000	26.049405	0.000589	20.767734
1786.491271	-3.013000	3.364200	-10.136000	26.082757	0.000589	20.772795
1787.491715	-3.003600	3.363700	-10.102000	26.102284	0.000589	20.767284
1788.489269	-3.000800	3.365000	-10.097000	26.110452	0.000588	20.768854
1789.488735	-2.989400	3.364800	-10.058000	26.146812	0.000588	20.747541
1790.488651	-2.996100	3.364600	-10.080000	26.173278	0.000587	20.754221
1791.492737	-2.979800	3.363200	-10.021000	26.183065	0.000585	20.748882
1792.490560	-3.001600	3.361900	-10.090000	26.153785	0.000586	20.756919
1793.491667	-2.995400	3.362400	-10.070000	26.133299	0.000587	20.798923
1794.493773	-3.001100	3.363300	-10.093000	26.126546	0.000584	20.757049
1795.490850	-3.000400	3.363200	-10.091000	26.102951	0.000584	20.772697
1796.492049	-2.994200	3.362600	-10.067000	26.115888	0.000584	20.764832
1797.495736	-3.030300	3.362000	-10.187000	26.116482	0.000584	20.772068
1798.492402	-3.000400	3.361800	-10.085000	26.130012	0.000583	20.787086
1799.492066	-3.002900	3.360400	-10.090000	26.160122	0.000582	20.775141
1800.491951	-3.017700	3.360500	-10.139000	26.188874	0.000583	20.790282
1801.493984	-3.018800	3.360400	-10.143000	26.200866	0.000583	20.788582
1802.492655	-2.984400	3.361500	-10.032000	26.200622	0.000581	20.794500
1803.495505	-2.981200	3.359500	-10.014000	26.200296	0.000580	20.780897
1804.491886	-2.984600	3.358800	-10.024000	26.214232	0.000579	20.771667
1805.491774	-3.001700	3.359300	-10.083000	26.185498	0.000579	20.775510
1806.493668	-3.010400	3.358500	-10.109000	26.161807	0.000580	20.789636
1807.498835	-2.987100	3.358900	-10.032000	26.172383	0.000577	20.774185
1808.496024	-3.006100	3.358000	-10.094000	26.194138	0.000577	20.781821
1809.494567	-2.991400	3.358600	-10.047000	26.237083	0.000579	20.767604
1810.497858	-3.012500	3.357800	-10.114000	26.209562	0.000578	20.787364
1811.493603	-2.988100	3.356800	-10.030000	26.219862	0.000576	20.800559
1812.492407	-3.015100	3.356400	-10.119000	26.215224	0.000578	20.788312
1813.495214	-2.997500	3.357100	-10.062000	26.184050	0.000577	20.792073
1814.494062	-2.993000	3.356500	-10.044000	26.145462	0.000576	20.809248
1815.494914	-3.018000	3.354800	-10.124000	26.106662	0.000572	20.773581
1816.495960	-2.996500	3.355300	-10.053000	26.099315	0.000576	20.772836
1817.498987	-3.030000	3.353600	-10.161000	26.110063	0.000576	20.804499
1818.496108	-2.995800	3.355300	-10.050000	26.136814	0.000573	20.797240
1819.495553	-3.001300	3.354800	-10.068000	26.155966	0.000574	20.786138
1820.496003	-3.014700	3.352800	-10.106000	26.170237	0.000573	20.788624
1821.497714	-2.995400	3.353200	-10.042000	26.146049	0.000572	20.805096
1822.496850	-2.997000	3.352900	-10.047000	26.146367	0.000572	20.804941
1823.501368	-2.987100	3.354200	-10.018000	26.128467	0.000571	20.786007
1824.500131	-2.993400	3.352900	-10.035000	26.104100	0.000571	20.798981
1825.497505	-2.997500	3.352800	-10.048000	26.091009	0.000570	20.776819
1826.499872	-2.997600	3.353000	-10.050000	26.072165	0.000569	20.812412
1827.498207	-2.996100	3.352200	-10.042000	26.112821	0.000569	20.805374
1828.498755	-2.975400	3.351800	-9.972100	26.115677	0.000569	20.810614
1829.497366	-2.991500	3.351200	-10.024000	26.147814	0.000568	20.806870
1830.500783	-2.999400	3.350800	-10.049000	26.163134	0.000568	20.809936
1831.498858	-2.984300	3.350800	-9.998100	26.178168	0.000567	20.808447
1832.500412	-2.985500	3.349900	-10.000000	26.193959	0.000567	20.807246
1833.503348	-3.016000	3.350200	-10.103000	26.176183	0.000566	20.807401
1834.498914	-3.003300	3.349000	-10.057000	26.161498	0.000568	20.813034
1835.504654	-2.994900	3.348300	-10.027000	26.154770	0.000567	20.810066
1836.503626	-3.006600	3.348300	-10.066000	26.163907	0.000566	20.810712
1837.501317	-3.015200	3.347500	-10.092000	26.120526	0.000563	20.816434
1838.500960	-2.981900	3.348600	-9.984300	26.093131	0.000565	20.809297
1839.500842	-2.993500	3.348700	-10.023000	26.052718	0.000563	20.804728
1840.503016	-3.017400	3.346400	-10.096000	26.035428	0.000564	20.835245
1841.499787	-3.002100	3.346900	-10.047000	26.030213	0.000560	20.815306
1842.501933	-3.027600	3.345500	-10.127000	26.000579	0.000564	20.802603
1843.500485	-2.997000	3.347000	-10.030000	26.013842	0.000562	20.818299
1844.500852	-2.997500	3.346100	-10.029000	26.054679	0.000562	20.811914
1845.500099	-3.012300	3.346600	-10.080000	26.076006	0.000560	20.810108
1846.502287	-2.994800	3.347300	-10.024000	26.077852	0.000561	20.838041
1847.504875	-3.019400	3.344900	-10.099000	26.048390	0.000558	20.815078
1848.502800	-3.035700	3.344300	-10.150000	26.039074	0.000561	20.814252
1849.504708	-3.006700	3.344500	-10.055000	26.043996	0.000559	20.823939
1850.503694	-3.003100	3.344700	-10.043000	26.041654	0.000559	20.811629
1851.506024	-2.999400	3.343500	-10.028000	26.063443	0.000558	20.816925
1852.504104	-3.016000	3.343600	-10.083000	26.101545	0.000558	20.805423
1853.505555	-3.021600	3.342200	-10.098000	26.121878	0.000556	20.818267
1854.502550	-3.002400	3.342100	-10.033000	26.099398	0.000556	20.812275
1855.504355	-3.027800	3.342300	-10.119000	26.118225	0.000556	20.825502
1856.504487	-2.986400	3.342600	-9.980500	26.073744	0.000553	20.836284
1857.505268	-2.988400	3.342400	-9.987100	26.073174	0.000554	20.817220
1858.501911	-2.995300	3.341300	-10.008000	26.083874	0.000555	20.802841
1859.502386	-2.987800	3.341900	-9.984000	26.076869	0.000552	20.811449
1860.501723	-2.996900	3.340400	-10.010000	26.090261	0.000551	20.817792
1861.504039	-2.989200	3.341500	-9.987900	26.115865	0.000552	20.817441
1862.502080	-2.995300	3.339200	-9.999900	26.159432	0.000551	20.818544
1863.505032	-3.004900	3.339300	-10.033000	26.174801	0.000549	20.804116
1864.503349	-3.018500	3.338800	-10.077000	26.167552	0.000550	20.799202
1865.501544	-3.005300	3.339200	-10.034000	26.132927	0.000548	20.807558
1866.507949	-3.015600	3.338200	-10.066000	26.136010	0.000549	20.806388
1867.503761	-3.001900	3.338800	-10.022000	26.134220	0.000549	20.816918
1868.505144	-2.975400	3.339600	-9.935300	26.149995	0.000550	20.809535
1869.504922	-2.987100	3.338700	-9.970800	26.172994	0.000550	20.804671
1870.506751	-2.987500	3.337100	-9.967900	26.196653	0.000548	20.816117
1871.507318	-3.005800	3.336400	-10.027000	26.212378	0.000547	20.800625
1872.509920	-3.019900	3.336500	-10.075000	26.205447	0.000548	20.805988
1873.507652	-2.989200	3.337200	-9.974600	26.191194	0.000546	20.794036
1874.507389	-2.989400	3.336900	-9.973700	26.170789	0.000546	20.798662
1875.508388	-3.010200	3.335500	-10.040000	26.162760	0.000545	20.804344
1876.511154	-2.996100	3.335800	-9.993100	26.176200	0.000546	20.793193
1877.507504	-2.991800	3.335300	-9.977800	26.231927	0.000545	20.789923
1878.511846	-3.006900	3.335100	-10.027000	26.251817	0.000545	20.796635
1879.510174	-2.991800	3.336200	-9.979700	26.307849	0.000545	20.790830
1880.509975	-3.004700	3.334800	-10.019000	26.317138	0.000542	20.784044
1881.513702	-3.006100	3.334600	-10.023000	26.267899	0.000543	20.799520
1882.509592	-3.005800	3.334800	-10.022000	26.259269	0.000543	20.797959
1883.514993	-3.006300	3.333500	-10.020000	26.239907	0.000540	20.786563
1884.509960	-3.000100	3.333000	-9.998500	26.219373	0.000541	20.790110
1885.511213	-3.020100	3.332900	-10.065000	26.168014	0.000541	20.780701
1886.510959	-3.029300	3.331400	-10.090000	26.170154	0.000541	20.778583
1887.511754	-2.979500	3.332700	-9.928800	26.173701	0.000539	20.776932
1888.510808	-3.005800	3.331800	-10.014000	26.176711	0.000538	20.799871
1889.509995	-3.023600	3.330200	-10.069000	26.177085	0.000539	20.779858
1890.510381	-2.994900	3.331800	-9.977400	26.127237	0.000537	20.780504
1891.514656	-3.004700	3.330800	-10.007000	26.119792	0.000538	20.759747
1892.514043	-3.005700	3.329700	-10.007000	26.120264	0.000539	20.784877
1893.512837	-2.980200	3.331300	-9.927100	26.107352	0.000538	20.788025
1894.513034	-3.010900	3.329700	-10.024000	26.124690	0.000537	20.792643
1895.513968	-2.989200	3.330800	-9.955100	26.146778	0.000537	20.772638
1896.514423	-2.979200	3.329200	-9.917700	26.156590	0.000536	20.772066
1897.515939	-2.969900	3.330900	-9.891300	26.153580	0.000535	20.753868
1898.512955	-2.977800	3.329000	-9.912300	26.142604	0.000536	20.770815
1899.512996	-3.008800	3.328200	-10.013000	26.138089	0.000535	20.798046
1900.514163	-2.998400	3.328100	-9.978200	26.125722	0.000534	20.765231
1901.513609	-2.978700	3.328800	-9.913500	26.113607	0.000532	20.757325
1902.513642	-2.988000	3.327000	-9.939700	26.123712	0.000534	20.747090
1903.514317	-2.997500	3.326200	-9.969500	26.159120	0.000532	20.764651
1904.512725	-2.984400	3.326600	-9.927000	26.201099	0.000531	20.759892
1905.517291	-2.982000	3.327000	-9.918800	26.199268	0.000532	20.766587
1906.514996	-2.997700	3.326200	-9.969800	26.186983	0.000528	20.765148
1907.513854	-3.005100	3.326200	-9.993700	26.153326	0.000530	20.771157
1908.516362	-2.980300	3.325100	-9.908600	26.159932	0.000528	20.770683
1909.513923	-2.949300	3.327100	-9.811100	26.113915	0.000528	20.759531
1910.515810	-2.990700	3.325300	-9.943600	26.155734	0.000528	20.768361
1911.514444	-3.000200	3.323400	-9.970200	26.163316	0.000526	20.764126
1912.515326	-2.988800	3.324900	-9.935700	26.204172	0.000528	20.798069
1913.517296	-2.997600	3.323800	-9.962500	26.256522	0.000529	20.748731
1914.518774	-3.007800	3.323400	-9.995100	26.221403	0.000527	20.790254
1915.515530	-3.018800	3.322800	-10.030000	26.211746	0.000526	20.749729
1916.516542	-3.008700	3.323000	-9.996300	26.200796	0.000524	20.768597
1917.515706	-2.993300	3.323000	-9.945500	26.184257	0.000525	20.752451
1918.518352	-2.992400	3.322100	-9.940000	26.210062	0.000525	20.749933
1919.519132	-2.979700	3.321900	-9.897200	26.235591	0.000525	20.764681
1920.516558	-2.994000	3.321700	-9.944400	26.263754	0.000523	20.760266
1921.516476	-2.994700	3.322200	-9.948000	26.298448	0.000524	20.744397
1922.515392	-2.982500	3.322000	-9.906800	26.321266	0.000521	20.763536
1923.516032	-2.997800	3.319900	-9.951000	26.338226	0.000521	20.746916
1924.517539	-2.998600	3.319300	-9.950800	26.379474	0.000520	20.741430
1925.516380	-2.976100	3.321600	-9.884300	26.348858	0.000520	20.773722
1926.516010	-2.989600	3.319900	-9.923900	26.359073	0.000521	20.744159
1927.516423	-2.983800	3.319700	-9.903100	26.343993	0.000519	20.744651
1928.515714	-3.010800	3.317900	-9.988600	26.315783	0.000520	20.749491
1929.519719	-2.993800	3.317300	-9.930500	26.287303	0.000518	20.756431
1930.518481	-3.004400	3.318500	-9.968200	26.312488	0.000519	20.755188
1931.519559	-3.000700	3.317300	-9.953200	26.322388	0.000518	20.752336
1932.519081	-2.991200	3.317100	-9.921200	26.308339	0.000519	20.748648
1933.517979	-2.996100	3.318400	-9.941100	26.290044	0.000519	20.725993
1934.523470	-2.999100	3.318200	-9.950500	26.270521	0.000517	20.753790
1935.519475	-2.978300	3.316600	-9.877000	26.267316	0.000515	20.748198
1936.521802	-2.987000	3.316300	-9.904800	26.254479	0.000515	20.742410
1937.517784	-2.988600	3.316400	-9.910300	26.267592	0.000514	20.753692
1938.518575	-2.994200	3.314900	-9.924900	26.264461	0.000515	20.739164
1939.520952	-3.014900	3.314200	-9.990400	26.279461	0.000513	20.735273
1940.519382	-3.012500	3.315300	-9.986500	26.281999	0.000513	20.748729
1941.521759	-3.000300	3.313400	-9.939200	26.266372	0.000513	20.760053
1942.520979	-3.022300	3.313200	-10.012000	26.240471	0.000512	20.746825
1943.522457	-2.994600	3.314300	-9.924000	26.206131	0.000511	20.751672
1944.523755	-2.987500	3.314200	-9.900200	26.203129	0.000511	20.736801
1945.522284	-2.976100	3.313400	-9.859800	26.201917	0.000510	20.735108
1946.522483	-3.010300	3.312300	-9.969200	26.190494	0.000510	20.757296
1947.523218	-3.002300	3.313800	-9.947700	26.192284	0.000509	20.740602
1948.524267	-3.029700	3.311700	-10.032000	26.182570	0.000509	20.734160
1949.527872	-3.010500	3.312200	-9.970200	26.240307	0.000509	20.743341
1950.523926	-2.992100	3.311500	-9.907500	26.264720	0.000508	20.744641
1951.526544	-3.023500	3.310800	-10.009000	26.310039	0.000506	20.725224
1952.527797	-3.017400	3.311200	-9.990000	26.333873	0.000506	20.720254
1953.525543	-2.990900	3.311400	-9.902500	26.339014	0.000507	20.750552
1954.525435	-2.994600	3.312400	-9.918200	26.358487	0.000506	20.737406
1955.527627	-3.009200	3.310500	-9.959300	26.333296	0.000506	20.751918
1956.524782	-2.992600	3.309900	-9.904000	26.331238	0.000505	20.735150
1957.524511	-3.001600	3.310600	-9.936400	26.303653	0.000503	20.737774
1958.523997	-3.028400	3.307800	-10.016000	26.298040	0.000504	20.734978
1959.524126	-3.019500	3.309300	-9.990900	26.252697	0.000505	20.724497
1960.527978	-3.009300	3.308800	-9.956000	26.255894	0.000502	20.743833
1961.525136	-2.997100	3.308600	-9.914800	26.243585	0.000501	20.740946
1962.525909	-3.032300	3.306500	-10.026000	26.282617	0.000502	20.731806
1963.523750	-3.008400	3.308700	-9.953100	26.344797	0.000501	20.702308
1964.523751	-2.980900	3.306600	-9.855400	26.361342	0.000502	20.733163
1965.527031	-3.013000	3.307800	-9.965100	26.370029	0.000500	20.725772
1966.527241	-3.008600	3.307300	-9.949000	26.373730	0.000500	20.726173
1967.526027	-2.982800	3.306200	-9.860500	26.386940	0.000499	20.728544
1968.527152	-2.988100	3.305500	-9.875800	26.418800	0.000497	20.725003
1969.526279	-2.995700	3.306400	-9.902900	26.433676	0.000497	20.743275
1970.526992	-3.001000	3.303800	-9.914000	26.443233	0.000498	20.719689
1971.529094	-3.000500	3.303900	-9.912600	26.477646	0.000496	20.738158
1972.528731	-3.004400	3.304000	-9.924000	26.491529	0.000495	20.744052
1973.526611	-3.003100	3.302900	-9.918500	26.517547	0.000496	20.724210
1974.526925	-3.009200	3.303500	-9.939300	26.493392	0.000494	20.729328
1975.527604	-3.001300	3.303300	-9.913400	26.520060	0.000495	20.729581
1976.530104	-3.008700	3.303500	-9.938700	26.534431	0.000496	20.729802
1977.528739	-3.009400	3.301600	-9.934500	26.565986	0.000493	20.730227
1978.532968	-2.987900	3.301800	-9.863900	26.567677	0.000495	20.723392
1979.531058	-2.976900	3.302800	-9.831200	26.585577	0.000493	20.720048
1980.531476	-2.990200	3.302000	-9.872200	26.587984	0.000492	20.739064
1981.534879	-3.022700	3.299800	-9.973100	26.614496	0.000490	20.729679
1982.535115	-3.022500	3.299900	-9.972800	26.626441	0.000490	20.725566
1983.531910	-2.998300	3.301300	-9.897200	26.623856	0.000489	20.730079
1984.531916	-2.995400	3.299900	-9.883300	26.643991	0.000490	20.719026
1985.532882	-3.012500	3.300200	-9.940700	26.642673	0.000489	20.740462
1986.531273	-3.028600	3.297900	-9.987000	26.660929	0.000489	20.714243
1987.539490	-3.002600	3.298200	-9.902100	26.597547	0.000489	20.735401
1988.531031	-3.003200	3.299000	-9.907400	26.554396	0.000487	20.713834
1989.534226	-3.009000	3.299100	-9.925800	26.527045	0.000487	20.739448
1990.534666	-3.009000	3.298100	-9.922100	26.518449	0.000485	20.722272
1991.532701	-3.002900	3.298000	-9.901100	26.503907	0.000487	20.729466
1992.535351	-2.997400	3.296700	-9.880500	26.529404	0.000487	20.732809
1993.532325	-3.008700	3.296700	-9.917300	26.512569	0.000486	20.716834
1994.532979	-2.977600	3.299400	-9.823500	26.531356	0.000487	20.721969
1995.533752	-3.005200	3.295800	-9.902900	26.553973	0.000483	20.715306
1996.533559	-3.000300	3.295700	-9.887500	26.546776	0.000485	20.718977
1997.534330	-2.993700	3.295600	-9.864500	26.541514	0.000482	20.742138
1998.539427	-3.000500	3.296200	-9.888200	26.538041	0.000483	20.732957
1999.532663	-2.998800	3.296100	-9.883200	26.530884	0.000481	20.734298
2000.533818	-3.004800	3.294400	-9.898200	26.503801	0.000482	20.712289
2001.536186	-3.013600	3.294000	-9.925900	26.471350	0.000479	20.727087
2002.538074	-3.012800	3.293800	-9.923100	26.478027	0.000481	20.711513
2003.537780	-2.989800	3.294700	-9.849700	26.494619	0.000478	20.725345
2004.537186	-3.011300	3.293800	-9.916600	26.498710	0.000477	20.706697
2005.538506	-2.999200	3.293300	-9.876400	26.493245	0.000477	20.733448
2006.536505	-2.991400	3.291900	-9.845400	26.486819	0.000478	20.720350
2007.537955	-3.009500	3.291300	-9.903900	26.471472	0.000478	20.723891
2008.538821	-3.017500	3.291500	-9.930700	26.485079	0.000477	20.711014
2009.540023	-3.008400	3.291300	-9.901000	26.503427	0.000473	20.721871
2010.537986	-3.022400	3.290000	-9.943200	26.494985	0.000476	20.707220
2011.539819	-3.035700	3.289500	-9.984200	26.464518	0.000472	20.705046
2012.542066	-3.007400	3.288400	-9.887300	26.443265	0.000473	20.688899
2013.544510	-3.006200	3.290200	-9.889700	26.471423	0.000473	20.715780
2014.542220	-2.975000	3.291100	-9.789700	26.463917	0.000473	20.723409
2015.539370	-2.983000	3.288800	-9.808700	26.491253	0.000473	20.700149
2016.541720	-2.986400	3.289000	-9.821500	26.480264	0.000471	20.706174
2017.541352	-3.004200	3.288900	-9.879600	26.456987	0.000471	20.710279
2018.540787	-2.996100	3.288800	-9.852400	26.438149	0.000471	20.706992
2019.543137	-2.978500	3.289400	-9.796500	26.407104	0.000469	20.704237
2020.543004	-3.008800	3.288300	-9.891400	26.381311	0.000470	20.710082
2021.542905	-3.016900	3.286000	-9.912500	26.404769	0.000467	20.697623
2022.544046	-2.989000	3.287300	-9.824000	26.489512	0.000467	20.703142
2023.542697	-2.996800	3.287900	-9.851600	26.498597	0.000467	20.701842
2024.545799	-2.997500	3.287300	-9.852500	26.555300	0.000466	20.696250
2025.550285	-3.016500	3.285900	-9.910800	26.598273	0.000464	20.701989
2026.543051	-2.991900	3.285300	-9.828100	26.627915	0.000466	20.701441
2027.543170	-2.995100	3.286500	-9.841300	26.629354	0.000463	20.704311
2028.544483	-3.008100	3.284300	-9.878900	26.612553	0.000464	20.702119
2029.543202	-3.005100	3.285200	-9.872200	26.585782	0.000462	20.697967
2030.547367	-2.995000	3.284300	-9.834800	26.516344	0.000463	20.711146
2031.546224	-2.997200	3.285000	-9.843700	26.494279	0.000464	20.712674
2032.548488	-3.002200	3.283400	-9.855600	26.451937	0.000461	20.693822
2033.548753	-3.013100	3.283100	-9.892200	26.475524	0.000460	20.699987
2034.546206	-3.024100	3.282000	-9.921700	26.464601	0.000459	20.691377
2035.548135	-2.989900	3.281500	-9.810300	26.466610	0.000458	20.698139
2036.548534	-2.998700	3.281600	-9.839200	26.486601	0.000459	20.692154
2037.547375	-2.987600	3.280700	-9.800300	26.530073	0.000457	20.688434
2038.548497	-2.972400	3.283000	-9.757300	26.551844	0.000457	20.694672
2039.548266	-2.989100	3.281800	-9.808700	26.595362	0.000457	20.699537
2040.548658	-2.981300	3.281300	-9.780500	26.598387	0.000454	20.712062
2041.549091	-3.005300	3.279600	-9.855000	26.615441	0.000457	20.686055
2042.547497	-3.010200	3.279900	-9.872400	26.616052	0.000455	20.701369
2043.548329	-3.031200	3.279800	-9.940400	26.649945	0.000456	20.702252
2044.547447	-3.013400	3.278400	-9.877400	26.664535	0.000455	20.683726
2045.549078	-3.014100	3.279600	-9.883000	26.631323	0.000455	20.673097
2046.550881	-3.020000	3.277700	-9.897200	26.653247	0.000452	20.693716
2047.548222	-2.992400	3.278200	-9.808700	26.635065	0.000452	20.702939
2048.550615	-2.991800	3.278400	-9.807400	26.649938	0.000451	20.689441
2049.548843	-3.005700	3.277900	-9.851400	26.666299	0.000451	20.684552
2050.552176	-3.001400	3.278100	-9.837800	26.701071	0.000452	20.685844
2051.550786	-3.016800	3.275900	-9.881300	26.710958	0.000451	20.684404
2052.551871	-3.021100	3.276400	-9.897700	26.695094	0.000452	20.688844
2053.549599	-2.985000	3.276400	-9.779400	26.699461	0.000450	20.681854
2054.550052	-2.956000	3.278400	-9.689500	26.702290	0.000448	20.676638
2055.550777	-2.995400	3.275500	-9.809600	26.696257	0.000446	20.704713
2056.549940	-2.996100	3.275000	-9.811100	26.702762	0.000447	20.687544
2057.553675	-3.010800	3.274400	-9.857700	26.712016	0.000447	20.681674
2058.548993	-3.002700	3.274500	-9.831100	26.706454	0.000447	20.689834
2059.553933	-2.990900	3.275600	-9.796100	26.699331	0.000446	20.692630
2060.551075	-3.013200	3.272300	-9.859500	26.698241	0.000444	20.679679
2061.553683	-3.017500	3.272500	-9.874000	26.696550	0.000441	20.687463
2062.551111	-3.021000	3.273700	-9.888100	26.666763	0.000441	20.674586
2063.552456	-3.000900	3.273800	-9.823800	26.670123	0.000443	20.687448
2064.553800	-3.003600	3.271900	-9.825600	26.673684	0.000442	20.684389
2065.551245	-3.001600	3.271900	-9.819300	26.704707	0.000442	20.680490
2066.551729	-2.993300	3.272500	-9.793300	26.727394	0.000442	20.694291
2067.551064	-2.996800	3.271200	-9.802200	26.723174	0.000441	20.674399
2068.554061	-3.010600	3.271100	-9.846500	26.737200	0.000442	20.688028
2069.552518	-3.018500	3.269000	-9.866100	26.751893	0.000437	20.689524
2070.552303	-3.014300	3.270200	-9.856000	26.779840	0.000438	20.682060
2071.552081	-3.007000	3.269600	-9.828400	26.828137	0.000437	20.690792
2072.552447	-2.998300	3.268800	-9.800000	26.811632	0.000437	20.681308
2073.553755	-2.988700	3.268200	-9.766400	26.806696	0.000436	20.669232
2074.553537	-2.996500	3.268700	-9.793500	26.840569	0.000436	20.682428
2075.555064	-2.992900	3.268400	-9.781300	26.818088	0.000434	20.657924
2076.553741	-3.021700	3.266200	-9.867500	26.770002	0.000433	20.707732
2077.555953	-3.019600	3.267000	-9.863300	26.702041	0.000431	20.668799
2078.560186	-3.007800	3.266200	-9.822400	26.671384	0.000433	20.650779
2079.554690	-2.986600	3.265800	-9.752100	26.681687	0.000433	20.678209
2080.557230	-3.000100	3.266100	-9.798200	26.680272	0.000432	20.693384
2081.555394	-3.010200	3.266400	-9.831800	26.665431	0.000431	20.670401
2082.556192	-3.015700	3.265300	-9.846100	26.638043	0.000430	20.685544
2083.553777	-3.013400	3.263800	-9.832900	26.626569	0.000430	20.691553
2084.557060	-2.999000	3.264800	-9.790400	26.634294	0.000430	20.691258
2085.555379	-3.013100	3.263100	-9.831300	26.622828	0.000429	20.672143
2086.559913	-2.984000	3.264500	-9.739900	26.633823	0.000428	20.659961
2087.555454	-3.000600	3.264300	-9.793700	26.646948	0.000426	20.680745
2088.554819	-2.997400	3.262500	-9.778200	26.675915	0.000426	20.679519
2089.559073	-3.003900	3.263800	-9.801600	26.701163	0.000427	20.669814
2090.556906	-3.009300	3.263100	-9.818000	26.753838	0.000424	20.686738
2091.556145	-3.012800	3.263800	-9.831300	26.787468	0.000426	20.692101
2092.559094	-3.021700	3.260700	-9.852400	26.786582	0.000424	20.667025
2093.556947	-2.989600	3.263000	-9.752400	26.752301	0.000422	20.676182
2094.556011	-3.000600	3.262500	-9.787700	26.752626	0.000422	20.671293
2095.564334	-3.004200	3.260000	-9.792200	26.781914	0.000424	20.674187
2096.557772	-2.993400	3.260600	-9.757600	26.808893	0.000421	20.685666
2097.556592	-2.988100	3.259600	-9.739100	26.844855	0.000422	20.686263
2098.558541	-2.998500	3.259900	-9.774000	26.857766	0.000420	20.672217
2099.558427	-3.001300	3.260100	-9.782800	26.868580	0.000419	20.680246
2100.557732	-2.982300	3.259100	-9.718700	26.880019	0.000418	20.665194
2101.560032	-2.980100	3.258900	-9.710600	26.905800	0.000419	20.673575
2102.559404	-2.996800	3.258700	-9.764600	26.887043	0.000420	20.667991
2103.560260	-3.008900	3.258000	-9.801700	26.870393	0.000417	20.666895
2104.563181	-2.990400	3.257400	-9.739600	26.878206	0.000418	20.686607
2105.564910	-2.982500	3.256300	-9.710700	26.900816	0.000416	20.689428
2106.559608	-2.993400	3.256200	-9.746400	26.916027	0.000415	20.674850
2107.561439	-2.992200	3.257700	-9.747000	26.875450	0.000414	20.682413
2108.560210	-3.015200	3.255000	-9.813100	26.889027	0.000412	20.672357
2109.562129	-3.007100	3.255500	-9.788200	26.901361	0.000414	20.687605
2110.565536	-3.004800	3.256400	-9.783900	26.898954	0.000411	20.682814
2111.562649	-3.018000	3.254300	-9.819600	26.920296	0.000411	20.690524
2112.569963	-3.015300	3.252800	-9.806800	26.943946	0.000410	20.669258
2113.562278	-2.991100	3.254000	-9.731500	26.954969	0.000409	20.685086
2114.563391	-3.020600	3.254200	-9.828500	26.955685	0.000410	20.680590
2115.566460	-3.014900	3.252900	-9.805300	26.988893	0.000408	20.688855
2116.564260	-3.007300	3.253500	-9.783100	27.024126	0.000408	20.680664
2117.563364	-3.002300	3.252100	-9.762700	27.029117	0.000407	20.681890
2118.564458	-3.001700	3.251600	-9.758800	27.051805	0.000405	20.697121
2119.564995	-3.001200	3.252400	-9.759300	27.053886	0.000406	20.687359
2120.565333	-2.961900	3.253500	-9.634600	27.072745	0.000404	20.684040
2121.567298	-3.020800	3.250200	-9.817600	27.097781	0.000406	20.667966
2122.565710	-3.018200	3.249600	-9.806600	27.088750	0.000404	20.704406
2123.564248	-3.022400	3.251700	-9.826300	27.114290	0.000402	20.689787
2124.565008	-2.999200	3.250400	-9.748000	27.078525	0.000405	20.682740
2125.568005	-3.021200	3.249700	-9.815100	27.055811	0.000401	20.703521
2126.572310	-3.007200	3.248300	-9.766800	27.058535	0.000401	20.690612
2127.569103	-2.994900	3.250100	-9.732600	27.033766	0.000399	20.683246
2128.568351	-2.999500	3.247700	-9.740300	26.961707	0.000401	20.707511
2129.569155	-3.018500	3.247300	-9.800700	26.930042	0.000400	20.676141
2130.567378	-3.012200	3.246500	-9.778100	26.877327	0.000399	20.703742
2131.570548	-2.999300	3.246900	-9.736200	26.844862	0.000397	20.686745
2132.571182	-2.993600	3.245900	-9.715400	26.866505	0.000398	20.685748
2133.571935	-2.994100	3.247300	-9.721300	26.824682	0.000396	20.718614
2134.573436	-3.012900	3.245400	-9.776200	26.868619	0.000397	20.691192
2135.569597	-2.993600	3.246300	-9.717400	26.833129	0.000396	20.685379
2136.571795	-3.027600	3.243700	-9.819800	26.890660	0.000394	20.703873
2137.573775	-2.969700	3.244200	-9.633700	26.882245	0.000395	20.694463
2138.572276	-2.995400	3.245900	-9.722000	26.892815	0.000396	20.680433
2139.573741	-2.990700	3.243200	-9.699000	26.926871	0.000393	20.669632
2140.581220	-2.995400	3.243200	-9.713200	26.913514	0.000390	20.704094
2141.573725	-2.989600	3.243400	-9.694600	26.923238	0.000390	20.711027
2142.577047	-3.007400	3.243200	-9.752200	26.905505	0.000390	20.698411
2143.572863	-3.004500	3.241900	-9.739200	26.933050	0.000390	20.714256
2144.577185	-3.009000	3.243000	-9.757600	26.989387	0.000387	20.709742
2145.572876	-2.997600	3.242400	-9.718600	27.011548	0.000388	20.707372
2146.574792	-3.008200	3.240800	-9.748500	27.013239	0.000386	20.703856
2147.572402	-3.023600	3.239200	-9.793100	27.038992	0.000387	20.699883
2148.576003	-3.010600	3.240400	-9.754400	27.058843	0.000386	20.688551
2149.572726	-2.991400	3.239600	-9.689500	27.068028	0.000385	20.721973
2150.572514	-3.003300	3.238300	-9.724600	27.068207	0.000386	20.715514
2151.572727	-2.983800	3.240200	-9.665400	27.109834	0.000384	20.712809
2152.573513	-2.990100	3.238300	-9.681100	27.103730	0.000383	20.709988
2153.577362	-2.980000	3.239400	-9.650900	27.088277	0.000383	20.685436
2154.575407	-2.975800	3.239000	-9.637800	27.087830	0.000385	20.696841
2155.574749	-2.980900	3.237000	-9.648800	27.051080	0.000382	20.696866
2156.573050	-3.015800	3.236600	-9.759900	27.077238	0.000380	20.711794
2157.575517	-2.999700	3.236700	-9.708300	27.104778	0.000380	20.697765
2158.575611	-3.027600	3.237000	-9.799700	27.143981	0.000381	20.697364
2159.573930	-2.999200	3.234800	-9.701000	27.162643	0.000381	20.712342
2160.576890	-2.994800	3.235900	-9.690100	27.130578	0.000380	20.710438
2161.579951	-3.006600	3.234200	-9.723200	27.101446	0.000377	20.691568
2162.575208	-2.994900	3.233800	-9.684300	27.088179	0.000378	20.698615
2163.578633	-3.004400	3.233800	-9.713800	27.057079	0.000378	20.705745
2164.577461	-3.008000	3.233800	-9.725900	27.070972	0.000375	20.697431
2165.579074	-2.985600	3.233000	-9.651300	27.054177	0.000374	20.725113
2166.576292	-3.029800	3.231300	-9.788800	27.006452	0.000376	20.717894
2167.576577	-2.996500	3.232600	-9.684800	26.981137	0.000374	20.694332
2168.580782	-2.992900	3.231600	-9.670100	26.941561	0.000374	20.734670
2169.580576	-3.029000	3.229700	-9.781900	26.922253	0.000373	20.699131
2170.577234	-3.031800	3.229600	-9.790100	26.939724	0.000372	20.719546
2171.579353	-3.015400	3.229500	-9.736600	26.964781	0.000371	20.714396
2172.577676	-3.001900	3.229600	-9.694200	26.968365	0.000372	20.698084
2173.578414	-3.001300	3.230400	-9.694900	26.939944	0.000371	20.714551
2174.581456	-2.997700	3.228000	-9.675100	26.934953	0.000370	20.713324
2175.579794	-2.982000	3.228700	-9.625800	26.962504	0.000370	20.708312
2176.579447	-2.970100	3.229800	-9.591900	27.011956	0.000371	20.709204
2177.578492	-2.955000	3.230500	-9.545000	27.050527	0.000367	20.710062
2178.580520	-3.014700	3.227700	-9.729800	27.119752	0.000367	20.693384
2179.579699	-2.991500	3.226200	-9.650500	27.142032	0.000366	20.696352
2180.580099	-2.992800	3.226400	-9.654400	27.162352	0.000366	20.725801
2181.579086	-3.000900	3.224800	-9.676300	27.133773	0.000365	20.735464
2182.579622	-2.986100	3.225100	-9.629000	27.078735	0.000367	20.722309
2183.579458	-3.007700	3.226200	-9.702400	27.084043	0.000365	20.712474
2184.580168	-3.004100	3.225600	-9.689400	27.067818	0.000364	20.706588
2185.583714	-2.974600	3.224600	-9.590800	27.051187	0.000361	20.697922
2186.579040	-3.014200	3.224800	-9.719100	27.041936	0.000362	20.742200
2187.579325	-2.977400	3.223700	-9.596300	27.078735	0.000360	20.741751
2188.581872	-3.002400	3.223100	-9.676100	27.142877	0.000360	20.728973
2189.581666	-2.976900	3.222600	-9.592600	27.120142	0.000359	20.741195
2190.583084	-2.987300	3.222800	-9.626500	27.130026	0.000359	20.735962
2191.579074	-2.975600	3.223200	-9.590200	27.132774	0.000359	20.732562
2192.582210	-2.989300	3.222100	-9.631500	27.129100	0.000358	20.716538
2193.580673	-2.981400	3.220700	-9.600000	27.136106	0.000356	20.717894
2194.581748	-2.994900	3.220900	-9.645500	27.142227	0.000358	20.727845
2195.584367	-3.011800	3.220400	-9.698600	27.143998	0.000354	20.700701
2196.582620	-2.996700	3.219800	-9.647400	27.156370	0.000355	20.721680
2197.582411	-2.995600	3.219800	-9.644400	27.162652	0.000356	20.738906
2198.582191	-3.000000	3.221100	-9.662600	27.187858	0.000353	20.732962
2199.583215	-2.982900	3.218400	-9.599200	27.197855	0.000354	20.717887
2200.584138	-3.018200	3.217200	-9.708200	27.230602	0.000353	20.741343
2201.584990	-2.999800	3.218000	-9.652100	27.236754	0.000350	20.729987
2202.583997	-2.983500	3.216500	-9.594700	27.225123	0.000353	20.727297
2203.584895	-3.003600	3.217100	-9.660700	27.243735	0.000351	20.714248
2204.583652	-3.025300	3.215500	-9.727200	27.221946	0.000351	20.716039
2205.589771	-3.018700	3.214300	-9.700300	27.193239	0.000348	20.740272
2206.586606	-3.006300	3.216700	-9.669600	27.214599	0.000348	20.728564
2207.586852	-2.996100	3.216400	-9.634500	27.208348	0.000349	20.735080
2208.586265	-2.985200	3.214200	-9.593800	27.184948	0.000349	20.734304
2209.587311	-2.991900	3.214400	-9.615600	27.132400	0.000347	20.729341
2210.586764	-3.002300	3.213600	-9.647100	27.152826	0.000348	20.735186
2211.588234	-2.996000	3.214600	-9.628900	27.146445	0.000346	20.720707
2212.585856	-3.001400	3.210900	-9.635600	27.162401	0.000345	20.727746
2213.587543	-3.021800	3.210200	-9.699200	27.135106	0.000344	20.730641
2214.587672	-2.986500	3.212400	-9.592900	27.105007	0.000343	20.735456
2215.588783	-2.978700	3.212900	-9.569700	27.064876	0.000342	20.741564
2216.587315	-3.010700	3.210000	-9.663400	27.046538	0.000343	20.744458
2217.592258	-2.992800	3.211500	-9.610400	27.051008	0.000343	20.720029
2218.591006	-3.004600	3.210200	-9.644400	26.997185	0.000343	20.742716
2219.589102	-2.961700	3.210300	-9.507000	27.064730	0.000340	20.735726
2220.590202	-2.984100	3.209000	-9.574800	27.076070	0.000340	20.758511
2221.590865	-2.977000	3.209500	-9.553300	27.093416	0.000340	20.739920
2222.590982	-2.991100	3.208100	-9.594800	27.096985	0.000339	20.736397
2223.592547	-3.028700	3.207500	-9.714100	27.094083	0.000338	20.750074
2224.588917	-3.018800	3.206800	-9.679200	27.119688	0.000337	20.740738
2225.590635	-3.015300	3.206200	-9.666300	27.099447	0.000336	20.745986
2226.592840	-2.990600	3.207100	-9.590000	27.087133	0.000336	20.733127
2227.590550	-3.021600	3.204300	-9.680500	27.101204	0.000338	20.753443
2228.589741	-3.003900	3.204800	-9.626500	27.134921	0.000337	20.747998
2229.591580	-2.991100	3.205200	-9.586500	27.096164	0.000335	20.763073
2230.593656	-2.990600	3.204700	-9.581600	27.075996	0.000335	20.768395
2231.593818	-2.992400	3.205100	-9.588600	27.116038	0.000336	20.749396
2232.595443	-3.002900	3.203500	-9.619100	27.129581	0.000336	20.749740
2233.592179	-2.998000	3.204200	-9.605400	27.164076	0.000333	20.740338
2234.592107	-3.009400	3.201400	-9.633200	27.193744	0.000333	20.745996
2235.593117	-2.997500	3.202300	-9.596700	27.212153	0.000333	20.754081
2236.592518	-2.986500	3.202300	-9.562900	27.193077	0.000333	20.747222
2237.595528	-3.011100	3.200700	-9.636900	27.223191	0.000331	20.732466
2238.593897	-2.988300	3.202100	-9.568000	27.250564	0.000329	20.762845
2239.594674	-2.991200	3.200400	-9.572500	27.304000	0.000329	20.759223
2240.594531	-2.996300	3.199800	-9.587000	27.341377	0.000328	20.764579
2241.594513	-3.007300	3.200100	-9.622800	27.344984	0.000327	20.745922
2242.595483	-2.991400	3.198100	-9.565600	27.406299	0.000327	20.770146
2243.593918	-3.011100	3.198100	-9.628500	27.423152	0.000326	20.744426
2244.596097	-3.046700	3.194700	-9.732300	27.393825	0.000326	20.775615
2245.593588	-2.993700	3.197400	-9.571200	27.346398	0.000327	20.762044
2246.594639	-3.001800	3.199000	-9.602100	27.338385	0.000324	20.772476
2247.594575	-2.994600	3.198200	-9.576700	27.355249	0.000326	20.756248
2248.596856	-2.996200	3.194900	-9.571400	27.378474	0.000323	20.770603
2249.595170	-2.977200	3.195500	-9.512600	27.343375	0.000323	20.755209
2250.595032	-2.996000	3.194800	-9.570500	27.341887	0.000320	20.773154
2251.594867	-3.001900	3.194100	-9.586900	27.368527	0.000321	20.769132
2252.597314	-3.015200	3.194000	-9.629500	27.403811	0.000319	20.761953
2253.595026	-2.976000	3.193900	-9.503100	27.414514	0.000320	20.773195
2254.595019	-3.001300	3.193500	-9.582500	27.418592	0.000319	20.791997
2255.597424	-3.010200	3.192300	-9.608600	27.415017	0.000320	20.742881
2256.593706	-2.998100	3.191300	-9.566400	27.398228	0.000321	20.763924
2257.595791	-2.992400	3.192800	-9.553300	27.383991	0.000317	20.758609
2258.597336	-2.986000	3.192300	-9.531200	27.383917	0.000317	20.769916
2259.598723	-3.008900	3.191700	-9.602300	27.346308	0.000316	20.769540
2260.594935	-3.018100	3.190000	-9.626700	27.267412	0.000314	20.782637
2261.595698	-2.997700	3.191700	-9.566900	27.228814	0.000314	20.777004
2262.596586	-3.005600	3.188900	-9.582300	27.196587	0.000315	20.778728
2263.595107	-2.991900	3.189300	-9.541400	27.229781	0.000315	20.769442
2264.600164	-3.007100	3.188100	-9.586400	27.283023	0.000313	20.786487
2265.597203	-2.998800	3.187800	-9.557800	27.308851	0.000312	20.758887
2266.603547	-2.992700	3.186700	-9.535000	27.304291	0.000312	20.778957
2267.598184	-2.996400	3.188900	-9.554000	27.267947	0.000309	20.788865
2268.598696	-3.002700	3.186500	-9.567500	27.240281	0.000313	20.773839
2269.600367	-3.002800	3.187100	-9.569000	27.211778	0.000311	20.776937
2270.599090	-2.989800	3.186200	-9.525000	27.192921	0.000310	20.788317
2271.602646	-3.023700	3.185000	-9.629400	27.253341	0.000308	20.796933
2272.600130	-3.010800	3.183600	-9.584800	27.277553	0.000307	20.778613
2273.604851	-3.003000	3.183600	-9.559300	27.260713	0.000308	20.799132
2274.603713	-2.989900	3.183300	-9.516600	27.239915	0.000306	20.791015
2275.602887	-3.025500	3.181700	-9.625100	27.277301	0.000308	20.806809
2276.601005	-2.994200	3.182100	-9.526200	27.344762	0.000305	20.771304
2277.603107	-3.012400	3.181100	-9.581800	27.395838	0.000305	20.782856
2278.602252	-3.016800	3.180000	-9.592800	27.365802	0.000304	20.791521
2279.607015	-2.986800	3.180900	-9.499800	27.318237	0.000303	20.785399
2280.602780	-2.977300	3.181500	-9.471200	27.291149	0.000306	20.780436
2281.604602	-3.006700	3.179800	-9.559600	27.311743	0.000304	20.797358
2282.603601	-2.956000	3.180100	-9.398900	27.310500	0.000303	20.781883
2283.603546	-3.027900	3.176800	-9.618200	27.329874	0.000304	20.803743
2284.606472	-2.993900	3.179200	-9.516200	27.336229	0.000302	20.804446
2285.605088	-3.004100	3.177000	-9.543700	27.368581	0.000301	20.781041
2286.604741	-2.990000	3.178000	-9.501700	27.361682	0.000301	20.785480
2287.604232	-3.000500	3.176300	-9.529900	27.389491	0.000299	20.796385
2288.605396	-3.037000	3.175100	-9.640800	27.355799	0.000298	20.779087
2289.606077	-3.016100	3.174800	-9.574400	27.350345	0.000299	20.793042
2290.607404	-3.009900	3.174100	-9.552400	27.362349	0.000298	20.799901
2291.604662	-2.992200	3.175500	-9.500700	27.419176	0.000296	20.789266
2292.607093	-3.001200	3.176000	-9.530900	27.407198	0.000298	20.790492
2293.606474	-2.991100	3.173700	-9.491000	27.457775	0.000298	20.796329
2294.609049	-2.997000	3.172900	-9.508600	27.481957	0.000297	20.791735
2295.611196	-3.004200	3.170900	-9.524600	27.487173	0.000298	20.800776
2296.608510	-3.001300	3.170400	-9.513800	27.496599	0.000296	20.809310
2297.612170	-2.992800	3.170700	-9.488400	27.517855	0.000295	20.815523
2298.610199	-3.033500	3.170000	-9.615100	27.503465	0.000294	20.817641
2299.607688	-2.996900	3.169800	-9.498200	27.508454	0.000294	20.815548
2300.612995	-3.032200	3.167500	-9.602500	27.527825	0.000293	20.818442
2301.612602	-2.995600	3.168000	-9.487900	27.527849	0.000292	20.802820
2302.609519	-3.011000	3.167500	-9.536500	27.520529	0.000291	20.824377
2303.614781	-2.997500	3.167400	-9.493600	27.561284	0.000292	20.819864
2304.611010	-3.027700	3.166500	-9.585000	27.573878	0.000290	20.805984
2305.610880	-3.000300	3.166000	-9.497300	27.517733	0.000291	20.812556
2306.612951	-3.020600	3.165300	-9.560500	27.517994	0.000290	20.786266
2307.611441	-3.022300	3.165200	-9.565100	27.529930	0.000288	20.812973
2308.614531	-3.000600	3.163900	-9.490800	27.512241	0.000289	20.803237
2309.612516	-3.001800	3.166700	-9.505100	27.486621	0.000288	20.829143
2310.612062	-2.979800	3.166100	-9.433400	27.471069	0.000287	20.808281
2311.612559	-2.970600	3.164400	-9.399300	27.427912	0.000286	20.820813
2312.612284	-2.965400	3.164700	-9.383700	27.435672	0.000287	20.811551
2313.610700	-2.986100	3.162900	-9.443900	27.413399	0.000286	20.826601
2314.611169	-2.970700	3.161800	-9.391500	27.449430	0.000285	20.832030
2315.612355	-3.007100	3.162000	-9.507400	27.467469	0.000286	20.817462
2316.614587	-3.005800	3.161900	-9.503400	27.507577	0.000283	20.826994
2317.618231	-2.989900	3.160900	-9.450700	27.553607	0.000284	20.797916
2318.615148	-3.008600	3.159600	-9.504900	27.609986	0.000283	20.828563
2319.616479	-2.979500	3.159200	-9.411000	27.591339	0.000284	20.830664
2320.614669	-2.977400	3.159100	-9.404900	27.579655	0.000283	20.824598
2321.616269	-2.990200	3.157700	-9.440400	27.523422	0.000280	20.827762
2322.616499	-3.005500	3.155900	-9.484300	27.541037	0.000280	20.824149
2323.615405	-3.015600	3.154200	-9.509300	27.519359	0.000281	20.820830
2324.617503	-3.010400	3.154500	-9.494400	27.560180	0.000281	20.813538
2325.617397	-2.978100	3.154600	-9.392900	27.571676	0.000279	20.820363
2326.617059	-3.002100	3.153000	-9.463900	27.619630	0.000279	20.840638
2327.619008	-2.982300	3.156300	-9.412000	27.649641	0.000279	20.822947
2328.618885	-2.983200	3.153100	-9.405200	27.667149	0.000278	20.838193
2329.616955	-2.994600	3.152800	-9.440400	27.693114	0.000277	20.825441
2330.616829	-2.989700	3.152500	-9.423600	27.708932	0.000275	20.816702
2331.616998	-2.967200	3.151200	-9.348600	27.671537	0.000278	20.812263
2332.617428	-2.990700	3.150800	-9.421800	27.670772	0.000276	20.819080
2333.622999	-3.003900	3.150000	-9.461300	27.688915	0.000275	20.804620
2334.615968	-2.993800	3.150300	-9.430300	27.699679	0.000275	20.811184
2335.622307	-3.023800	3.147700	-9.517400	27.743328	0.000277	20.814806
2336.616435	-3.000800	3.149000	-9.448200	27.749477	0.000275	20.817201
2337.617176	-3.008600	3.147000	-9.467200	27.696722	0.000276	20.803942
2338.627669	-3.008400	3.145800	-9.463300	27.636782	0.000273	20.812378
2339.618711	-2.986100	3.146200	-9.393800	27.618135	0.000274	20.815901
2340.619868	-3.002300	3.145300	-9.441600	27.594088	0.000273	20.823947
2341.620697	-3.014700	3.144200	-9.476300	27.543615	0.000273	20.817734
2342.619077	-2.991600	3.144800	-9.405700	27.552447	0.000273	20.798645
2343.621918	-2.993800	3.145100	-9.413700	27.598849	0.000271	20.809297
2344.628049	-2.993400	3.142500	-9.406100	27.612759	0.000271	20.818078
2345.621483	-2.988700	3.142700	-9.391400	27.629527	0.000273	20.790380
2346.622599	-3.007400	3.141400	-9.446500	27.663821	0.000270	20.794542
2347.621664	-2.982400	3.141300	-9.367000	27.705855	0.000271	20.808865
2348.623122	-2.991700	3.141500	-9.397700	27.717010	0.000271	20.795434
2349.629082	-3.001400	3.140000	-9.422400	27.743291	0.000271	20.793431
2350.627382	-3.005900	3.138200	-9.432000	27.765135	0.000269	20.791707
2351.627795	-3.017500	3.137900	-9.467300	27.760196	0.000270	20.796220
2352.626064	-3.008600	3.138100	-9.440300	27.765379	0.000270	20.800961
2353.624991	-3.002400	3.136000	-9.414200	27.779985	0.000268	20.811392
2354.627788	-2.987500	3.136200	-9.368700	27.795882	0.000267	20.795149
2355.627818	-2.982300	3.135900	-9.351200	27.799920	0.000267	20.797789
2356.623655	-2.972200	3.134300	-9.314200	27.773674	0.000266	20.769954
2357.624686	-3.000000	3.134200	-9.401100	27.750629	0.000266	20.788488
2358.624660	-3.003600	3.132400	-9.406500	27.735705	0.000265	20.802393
2359.626647	-3.009500	3.132200	-9.425700	27.717622	0.000264	20.788463
2360.628856	-3.017000	3.131200	-9.444200	27.674272	0.000265	20.788463
2361.625667	-2.990900	3.131100	-9.363900	27.648429	0.000264	20.801813
2362.631079	-3.010100	3.129700	-9.419200	27.644091	0.000265	20.793180
2363.626392	-2.998000	3.128600	-9.378700	27.666872	0.000264	20.795716
2364.625575	-3.011800	3.127100	-9.416200	27.690010	0.000265	20.774428
2365.629682	-2.989200	3.128500	-9.350200	27.717112	0.000265	20.791743
2366.627948	-2.992900	3.128200	-9.361000	27.682666	0.000261	20.796910
2367.627674	-2.998400	3.126400	-9.373400	27.682090	0.000264	20.794433
2368.628631	-3.012000	3.124900	-9.411400	27.665898	0.000261	20.786675
2369.627524	-2.999300	3.124600	-9.370600	27.673007	0.000262	20.783397
2370.627063	-2.995100	3.124500	-9.355800	27.689597	0.000259	20.790608
2371.630473	-3.000900	3.123500	-9.372400	27.696169	0.000259	20.775884
2372.628978	-2.965500	3.123800	-9.262200	27.727763	0.000261	20.770693
2373.628036	-3.010500	3.123200	-9.401100	27.695691	0.000262	20.796266
2374.628924	-2.996100	3.122100	-9.352600	27.753572	0.000258	20.777700
2375.629436	-3.010300	3.120600	-9.391800	27.731671	0.000259	20.776523
2376.632409	-2.984600	3.119800	-9.308800	27.723085	0.000257	20.795384
2377.631074	-3.007200	3.119900	-9.380400	27.709323	0.000259	20.766362
2378.631351	-2.993300	3.117900	-9.331500	27.735612	0.000258	20.780962
2379.630615	-3.055600	3.115500	-9.517300	27.748748	0.000259	20.771897
2380.632065	-3.002700	3.118200	-9.361200	27.787034	0.000258	20.791460
2381.639271	-2.989400	3.116300	-9.315100	27.836406	0.000258	20.763860
2382.630899	-2.995100	3.114600	-9.327000	27.817285	0.000258	20.779704
2383.631860	-2.997000	3.115000	-9.335000	27.791966	0.000258	20.767025
2384.632066	-3.003600	3.114100	-9.352600	27.753794	0.000257	20.770811
2385.631325	-3.003800	3.111800	-9.346300	27.712534	0.000258	20.774334
2386.632656	-3.003400	3.111000	-9.342400	27.719301	0.000255	20.781618
2387.632816	-2.988700	3.112500	-9.301400	27.728205	0.000255	20.779198
2388.639810	-2.990200	3.110200	-9.298600	27.767775	0.000256	20.755008
2389.637733	-3.004400	3.109800	-9.341500	27.751236	0.000255	20.777719
2390.635367	-2.967700	3.109300	-9.225400	27.734672	0.000255	20.771955
2391.634665	-2.980300	3.107000	-9.258400	27.754265	0.000255	20.759431
2392.637352	-3.017100	3.105700	-9.368900	27.796589	0.000255	20.754134
2393.634811	-3.000200	3.105900	-9.316600	27.835906	0.000254	20.786116
2394.642087	-2.969600	3.105700	-9.220700	27.857131	0.000254	20.768597
2395.637064	-2.993900	3.103300	-9.289200	27.906939	0.000253	20.769889
2396.634901	-2.995300	3.103600	-9.295200	27.906932	0.000255	20.748544
2397.641226	-3.021400	3.101200	-9.369800	27.881695	0.000253	20.784310
2398.645082	-3.001000	3.102200	-9.309300	27.866375	0.000254	20.767469
2399.640293	-2.992100	3.100900	-9.277800	27.832342	0.000252	20.770675
2400.635203	-2.994300	3.099500	-9.280300	27.805089	0.000251	20.783551
2401.635523	-2.980500	3.100800	-9.241100	27.747405	0.000253	20.765803
2402.636734	-2.981000	3.098000	-9.234100	27.763254	0.000251	20.764209
2403.642895	-3.008900	3.096700	-9.317200	27.772516	0.000252	20.768314
2404.645828	-3.024200	3.095900	-9.360800	27.830962	0.000251	20.773080
2405.636523	-3.000700	3.095200	-9.286900	27.841984	0.000251	20.789389
2406.637528	-3.002400	3.094200	-9.288100	27.855761	0.000250	20.763899
2407.639835	-2.983600	3.094200	-9.230600	27.813904	0.000251	20.755912
2408.637750	-3.006200	3.092700	-9.295900	27.846226	0.000249	20.752880
2409.637938	-3.005100	3.092600	-9.292200	27.867459	0.000251	20.746274
2410.640342	-3.005800	3.090800	-9.289100	27.892403	0.000249	20.760949
2411.636499	-2.996700	3.090000	-9.259000	27.935339	0.000251	20.748212
2412.641340	-2.996800	3.090200	-9.259400	27.923342	0.000249	20.756526
2413.637292	-3.022400	3.087500	-9.330200	27.879205	0.000248	20.758570
2414.643662	-3.044200	3.086100	-9.393500	27.789665	0.000247	20.743846
2415.640163	-3.009700	3.086600	-9.288600	27.763818	0.000249	20.753396
2416.641301	-2.990200	3.085600	-9.225400	27.726498	0.000249	20.749030
2417.641279	-2.997100	3.084500	-9.244200	27.727765	0.000249	20.737977
2418.640407	-3.003100	3.084700	-9.263600	27.704425	0.000247	20.760958
2419.643263	-2.999400	3.083800	-9.249000	27.712460	0.000247	20.747232
2420.641787	-3.007800	3.082600	-9.270700	27.683668	0.000246	20.734854
2421.642831	-2.953600	3.082300	-9.102300	27.668062	0.000248	20.752342
2422.641407	-3.001600	3.079500	-9.242600	27.638571	0.000245	20.753013
2423.641026	-2.972800	3.081800	-9.161000	27.667682	0.000248	20.738208
2424.644609	-2.992400	3.078200	-9.210500	27.742210	0.000246	20.773377
2425.642379	-3.024700	3.075900	-9.300800	27.776922	0.000245	20.772749
2426.646387	-3.017600	3.075500	-9.278900	27.816970	0.000244	20.758524
2427.644336	-3.015100	3.075400	-9.271300	27.863506	0.000247	20.763160
2428.644685	-3.013600	3.074900	-9.265700	27.940498	0.000245	20.745819
2429.646333	-3.024700	3.073800	-9.296000	27.964394	0.000245	20.758966
2430.646239	-3.013900	3.073000	-9.260500	27.983879	0.000248	20.757241
2431.643490	-2.998000	3.071900	-9.208400	28.020255	0.000245	20.744544
2432.647213	-3.004000	3.071100	-9.224800	28.007456	0.000245	20.747782
2433.645474	-2.991400	3.070400	-9.183700	28.018761	0.000243	20.763904
2434.647525	-3.015300	3.068700	-9.251700	28.005743	0.000244	20.761231
2435.645418	-2.992700	3.068600	-9.182300	28.028500	0.000243	20.754266
2436.646164	-3.007000	3.066800	-9.220300	28.001154	0.000243	20.740964
2437.647210	-3.018400	3.063800	-9.246700	28.012093	0.000242	20.769994
2438.647170	-3.014100	3.064100	-9.234700	28.047041	0.000243	20.750170
2439.647973	-2.995600	3.063300	-9.175700	28.046424	0.000243	20.741014
2440.655631	-2.998700	3.061800	-9.180100	28.087630	0.000242	20.757364
2441.648026	-3.021200	3.060400	-9.245100	28.093104	0.000244	20.730631
2442.649578	-2.996000	3.062100	-9.171500	28.112464	0.000245	20.721196
2443.646835	-2.996200	3.061000	-9.170500	28.102444	0.000244	20.734343
2444.649257	-3.012700	3.057500	-9.209100	28.084601	0.000244	20.741038
2445.650603	-3.023300	3.055900	-9.238400	28.079908	0.000240	20.749116
2446.672294	-3.002600	3.056300	-9.176100	28.127610	0.000242	20.740237
2447.651666	-2.964100	3.056200	-9.057900	28.153263	0.000243	20.733820
2448.653695	-3.003100	3.055000	-9.172400	28.195585	0.000241	20.714312
2449.649114	-3.016200	3.052900	-9.207600	28.162487	0.000241	20.734572
2450.650110	-2.996700	3.052500	-9.145900	28.136907	0.000242	20.728734
2451.655695	-2.987400	3.050900	-9.113300	28.067044	0.000244	20.742805
2452.650585	-3.009700	3.048900	-9.174400	28.008440	0.000241	20.726960
2453.657238	-2.998500	3.049500	-9.143500	27.974548	0.000241	20.731727
2454.651978	-2.970000	3.049700	-9.057000	27.985870	0.000242	20.743124
2455.651155	-3.003700	3.045700	-9.146700	27.961180	0.000241	20.752885
2456.657075	-2.979500	3.045500	-9.072800	28.006702	0.000239	20.734220
2457.653152	-2.995300	3.044500	-9.118100	28.011234	0.000240	20.734515
2458.652107	-3.012900	3.044200	-9.170900	27.973842	0.000241	20.732913
2459.661435	-2.997800	3.042800	-9.121100	27.919099	0.000242	20.729970
2460.664314	-2.997600	3.041500	-9.116700	27.890411	0.000242	20.737606
2461.663171	-2.988000	3.040900	-9.085000	27.830530	0.000241	20.736608
2462.666113	-2.986000	3.039300	-9.074300	27.858180	0.000240	20.733616
2463.663426	-3.009000	3.038100	-9.140700	27.830213	0.000240	20.733444
2464.654533	-2.986200	3.037800	-9.070100	27.799037	0.000238	20.738105
2465.653754	-3.008300	3.034700	-9.128400	27.747258	0.000241	20.722032
2466.660327	-3.005300	3.032800	-9.113600	27.724464	0.000240	20.723275
2467.660293	-3.003600	3.032200	-9.105100	27.767909	0.000240	20.719105
2468.655987	-2.987900	3.031200	-9.056000	27.837509	0.000238	20.725140
2469.658330	-2.991700	3.029800	-9.062700	27.899850	0.000238	20.722449
2470.656960	-3.012600	3.028100	-9.121600	27.929253	0.000237	20.713162
2471.658181	-3.010300	3.028200	-9.114100	27.986700	0.000238	20.724518
2472.661874	-3.004700	3.026600	-9.093300	27.989202	0.000240	20.733675
2473.669883	-3.004300	3.025300	-9.087400	28.053491	0.000241	20.716833
2474.666368	-3.013700	3.025800	-9.118200	28.100611	0.000238	20.729179
2475.665355	-3.032500	3.022400	-9.164600	28.140451	0.000239	20.734672
2476.663315	-2.976100	3.022300	-8.993200	28.170716	0.000238	20.724363
2477.661273	-3.001000	3.020000	-9.062500	28.202718	0.000239	20.712010
2478.660318	-3.010700	3.018400	-9.086100	28.256651	0.000238	20.733594
2479.665301	-3.017300	3.018400	-9.105900	28.273800	0.000236	20.755602
2480.660909	-2.995700	3.016900	-9.036500	28.284168	0.000239	20.736169
2481.661096	-2.992600	3.015800	-9.024300	28.316557	0.000237	20.712828
2482.663442	-2.990200	3.016900	-9.020100	28.293189	0.000237	20.717275
2483.674476	-2.999900	3.014000	-9.040600	28.284185	0.000238	20.738557
2484.661058	-3.013000	3.012000	-9.074700	28.239453	0.000237	20.731451
2485.660126	-2.994800	3.010300	-9.014200	28.183108	0.000236	20.707914
2486.667481	-2.994800	3.010600	-9.014700	28.161638	0.000237	20.707636
2487.663090	-3.002500	3.008000	-9.031100	28.117616	0.000238	20.717847
2488.673019	-3.010400	3.008200	-9.054500	28.102942	0.000238	20.731051
2489.664551	-2.998000	3.006300	-9.012100	28.096242	0.000235	20.720513
2490.660432	-3.023900	3.003600	-9.079900	28.069070	0.000236	20.729196
2491.661332	-2.994200	3.004300	-8.994800	28.088528	0.000238	20.720334
2492.663471	-3.001400	3.003500	-9.014300	28.105216	0.000238	20.712002
2493.660864	-3.013900	3.001200	-9.043100	28.149410	0.000237	20.715715
2494.672458	-3.007100	3.000400	-9.020800	28.173130	0.000237	20.710197
2495.663608	-2.980900	2.999100	-8.939000	28.198245	0.000235	20.706084
2496.665916	-3.007400	2.997600	-9.013700	28.249872	0.000236	20.708749
2497.661708	-2.983400	2.996600	-8.939200	28.290763	0.000236	20.718152
2498.662435	-3.022300	2.992900	-9.042700	28.270747	0.000237	20.710801
2499.663210	-3.000700	2.993500	-8.981100	28.310842	0.000239	20.710393
2500.681468	-2.981100	2.992800	-8.921100	28.337060	0.000234	20.703126
2501.666151	-3.019200	2.989400	-9.024300	28.378157	0.000235	20.725543
2502.661602	-2.979400	2.991900	-8.912200	28.363276	0.000238	20.711980
2503.668056	-3.013500	2.987100	-9.000800	28.341420	0.000237	20.707516
2504.663840	-3.033000	2.986300	-9.055700	28.295587	0.000236	20.700248
2505.664180	-3.015200	2.985600	-9.000300	28.313255	0.000236	20.715194
2506.665603	-3.003500	2.984600	-8.963200	28.321830	0.000236	20.703438
2507.673377	-3.012500	2.981600	-8.980500	28.331223	0.000235	20.699620
2508.666717	-3.004600	2.980300	-8.953300	28.305494	0.000235	20.702162
2509.664492	-2.994800	2.981100	-8.926800	28.279373	0.000233	20.687241
2510.670263	-3.002100	2.979400	-8.943200	28.234553	0.000237	20.719405
2511.666490	-3.011100	2.975300	-8.958200	28.190802	0.000235	20.716135
2512.666858	-2.993700	2.975200	-8.905600	28.159376	0.000236	20.706307
2513.671916	-3.003400	2.973500	-8.929400	28.147099	0.000236	20.695843
2514.667634	-3.007800	2.972600	-8.939700	28.126050	0.000235	20.710216
2515.669205	-2.978600	2.971300	-8.849500	28.133513	0.000235	20.703504
2516.667527	-3.007200	2.969000	-8.928000	28.134284	0.000234	20.710919
2517.674194	-2.992100	2.969500	-8.883900	28.156218	0.000237	20.699809
2518.667253	-2.985300	2.967300	-8.857400	28.176073	0.000236	20.692295
2519.676112	-3.002700	2.964900	-8.901700	28.217274	0.000237	20.698214
2520.668824	-3.021300	2.963000	-8.950100	28.228619	0.000236	20.719595
2521.674166	-2.967200	2.963700	-8.791900	28.224526	0.000235	20.695558
2522.669071	-3.005400	2.960900	-8.896600	28.246264	0.000236	20.698951
2523.668962	-2.989200	2.960400	-8.848000	28.301192	0.000234	20.705418
2524.667659	-2.989400	2.956900	-8.837800	28.341666	0.000236	20.698755
2525.667639	-2.984500	2.957900	-8.827200	28.310230	0.000236	20.700767
2526.682348	-2.976800	2.956100	-8.798400	28.280262	0.000236	20.699991
2527.668260	-3.001000	2.953100	-8.861700	28.234702	0.000237	20.704381
2528.670156	-2.976200	2.952100	-8.783500	28.193062	0.000235	20.700391
2529.671175	-2.997000	2.950100	-8.840300	28.202223	0.000234	20.710089
2530.676640	-2.971000	2.949400	-8.762400	28.168686	0.000236	20.702878
2531.675426	-2.994100	2.948000	-8.826300	28.139412	0.000236	20.694743
2532.668563	-2.987100	2.945700	-8.797900	28.156751	0.000233	20.719786
2533.677531	-3.003800	2.944600	-8.843700	28.153981	0.000234	20.703246
2534.674358	-2.992000	2.942600	-8.802100	28.170961	0.000236	20.705168
2535.673270	-3.001300	2.940900	-8.825300	28.208429	0.000236	20.697844
2536.669382	-2.983700	2.940800	-8.773200	28.230295	0.000236	20.697573
2537.675467	-3.009100	2.938400	-8.840400	28.242655	0.000235	20.696266
2538.677906	-3.012400	2.936300	-8.844200	28.254819	0.000234	20.696185
2539.670746	-3.009600	2.934200	-8.830200	28.194551	0.000233	20.687190
2540.669271	-2.978700	2.934700	-8.740800	28.160885	0.000232	20.695971
2541.668644	-2.983400	2.932900	-8.748500	28.126617	0.000235	20.682809
2542.687010	-2.989400	2.931200	-8.760100	28.111098	0.000233	20.687576
2543.671700	-3.005100	2.928500	-8.799700	28.115362	0.000235	20.693291
2544.670693	-2.975600	2.928400	-8.712800	28.115110	0.000234	20.684502
2545.670131	-3.009300	2.924300	-8.799100	28.094972	0.000234	20.682247
2546.670573	-3.013400	2.923300	-8.807100	28.081336	0.000231	20.678478
2547.689075	-3.009600	2.921900	-8.792800	28.068521	0.000234	20.683596
2548.670763	-3.005700	2.920200	-8.775500	28.085876	0.000234	20.687316
2549.677943	-2.969200	2.919200	-8.666700	28.073654	0.000234	20.687814
2550.676764	-3.012400	2.916500	-8.785000	28.071989	0.000236	20.698942
2551.675964	-3.001300	2.915300	-8.748100	28.055650	0.000235	20.686286
2552.676653	-2.948400	2.915000	-8.593300	28.121090	0.000235	20.703800
2553.673154	-2.987600	2.913400	-8.702600	28.155675	0.000234	20.676026
2554.673303	-3.029700	2.908900	-8.812300	28.136340	0.000234	20.685959
2555.674614	-3.001600	2.908400	-8.729100	28.115364	0.000233	20.705623
2556.680677	-2.987200	2.907700	-8.685100	28.111052	0.000233	20.689426
2557.682790	-2.994800	2.905500	-8.700100	28.107130	0.000234	20.712507
2558.676484	-3.002300	2.903700	-8.716900	28.162108	0.000233	20.697677
2559.673387	-2.986300	2.902600	-8.665900	28.208985	0.000232	20.699827
2560.691679	-2.990900	2.899700	-8.671700	28.239395	0.000232	20.693932
2561.678094	-3.008200	2.898400	-8.717800	28.294519	0.000232	20.691586
2562.681139	-3.008100	2.897400	-8.714600	28.325551	0.000234	20.694382
2563.675695	-3.001100	2.894900	-8.686500	28.361982	0.000233	20.705935
2564.678037	-3.014400	2.894000	-8.721900	28.375686	0.000233	20.690336
2565.683200	-2.993500	2.891500	-8.654400	28.327281	0.000235	20.696124
2566.678822	-3.035400	2.888900	-8.767700	28.270007	0.000235	20.685871
2567.680503	-2.989300	2.887800	-8.631800	28.204903	0.000233	20.695242
2568.679363	-3.016200	2.884200	-8.698900	28.182938	0.000234	20.717227
2569.681900	-3.019700	2.883900	-8.707300	28.226282	0.000234	20.702067
2570.677843	-3.003300	2.881300	-8.652100	28.266703	0.000233	20.706254
2571.680309	-2.991800	2.880300	-8.616200	28.291435	0.000232	20.701284
2572.683539	-2.987600	2.879000	-8.600800	28.362689	0.000234	20.687680
2573.685925	-2.998300	2.876100	-8.623000	28.425634	0.000233	20.696060
2574.684277	-2.998400	2.874200	-8.617000	28.477582	0.000232	20.688628
2575.687972	-3.022600	2.871700	-8.679100	28.526022	0.000233	20.692839
2576.683022	-3.009000	2.870600	-8.636100	28.579865	0.000232	20.696331
2577.692363	-3.020100	2.869000	-8.663600	28.601692	0.000233	20.699348
2578.681289	-3.022600	2.866500	-8.663000	28.598843	0.000234	20.697901
2579.693403	-3.017300	2.864300	-8.641600	28.624339	0.000231	20.675687
2580.689122	-2.984300	2.862800	-8.543200	28.645175	0.000233	20.699046
2581.690938	-2.983200	2.862900	-8.537900	28.602976	0.000234	20.695424
2582.687655	-2.967400	2.860900	-8.488100	28.576677	0.000233	20.703552
2583.691012	-2.973800	2.857100	-8.495800	28.561018	0.000233	20.685410
2584.682550	-2.984900	2.855600	-8.523100	28.567829	0.000232	20.678044
2585.694454	-2.986500	2.854100	-8.522400	28.577667	0.000235	20.696488
2586.685496	-3.027300	2.850700	-8.628100	28.617580	0.000234	20.699228
2587.685522	-2.993100	2.849900	-8.529200	28.615550	0.000233	20.672525
2588.685095	-2.994600	2.848300	-8.528300	28.602044	0.000235	20.699702
2589.688105	-2.999200	2.846700	-8.536800	28.583505	0.000233	20.699997
2590.690111	-2.988600	2.842600	-8.493700	28.598570	0.000232	20.700945
2591.690610	-2.999100	2.841000	-8.519300	28.613953	0.000232	20.688936
2592.690863	-2.994500	2.839700	-8.502200	28.636006	0.000234	20.722055
2593.687001	-3.008800	2.836300	-8.531600	28.633157	0.000232	20.705908
2594.687529	-2.983600	2.835000	-8.457400	28.692027	0.000233	20.707830
2595.691375	-2.989700	2.832400	-8.466900	28.702579	0.000232	20.701862
2596.692174	-3.010300	2.829400	-8.516700	28.749335	0.000233	20.686368
2597.689640	-2.994200	2.828100	-8.466400	28.713130	0.000232	20.715336
2598.690093	-2.987700	2.826700	-8.444600	28.624676	0.000233	20.711592
2599.693074	-3.014000	2.822000	-8.504200	28.603857	0.000233	20.717650
2600.702140	-2.991800	2.822800	-8.444100	28.570706	0.000233	20.712712
2601.692567	-2.998200	2.818700	-8.450200	28.570033	0.000234	20.705869
2602.688959	-3.007700	2.815000	-8.466100	28.573109	0.000232	20.729832
2603.691871	-3.001200	2.813300	-8.442300	28.574148	0.000233	20.711911
2604.691994	-3.046200	2.810800	-8.561400	28.558336	0.000233	20.732023
2605.690191	-3.006100	2.808700	-8.441500	28.589611	0.000233	20.714208
2606.692534	-2.970900	2.808700	-8.341200	28.618078	0.000231	20.719645
2607.691512	-2.969100	2.804600	-8.325600	28.587843	0.000233	20.743249
2608.694154	-3.005600	2.800800	-8.416500	28.550147	0.000233	20.705757
2609.692568	-3.024200	2.799000	-8.463900	28.559870	0.000234	20.706540
2610.697805	-3.010000	2.795200	-8.412800	28.550398	0.000232	20.714071
2611.693813	-3.006700	2.794200	-8.400000	28.599361	0.000234	20.726400
2612.695046	-3.009300	2.790900	-8.397800	28.592348	0.000232	20.722181
2613.696786	-3.019600	2.788900	-8.418100	28.627113	0.000232	20.723056
2614.692500	-3.000700	2.786300	-8.359500	28.650327	0.000231	20.734109
2615.695622	-3.024200	2.782900	-8.415100	28.719148	0.000230	20.721872
2616.696281	-3.001000	2.780700	-8.344200	28.748267	0.000233	20.729392
2617.702160	-3.000700	2.777800	-8.334300	28.774798	0.000234	20.720555
2618.702783	-3.002300	2.774400	-8.328500	28.775244	0.000232	20.729065
2619.696499	-2.967800	2.772800	-8.227600	28.798058	0.000230	20.728813
2620.694254	-2.979800	2.771000	-8.255700	28.831728	0.000232	20.731911
2621.694451	-2.998200	2.767400	-8.295600	28.841735	0.000234	20.722550
2622.698907	-2.993700	2.762700	-8.270400	28.828482	0.000234	20.719157
2623.696353	-3.007600	2.760800	-8.302300	28.832419	0.000232	20.725967
2624.702253	-3.011300	2.757400	-8.302000	28.764784	0.000231	20.722796
2625.707552	-3.009800	2.754900	-8.291000	28.719050	0.000232	20.727464
2626.699620	-2.998400	2.751400	-8.247300	28.700416	0.000230	20.734773
2627.698324	-3.010600	2.749400	-8.274800	28.716250	0.000231	20.718479
2628.695408	-3.016400	2.744600	-8.277300	28.750314	0.000232	20.716280
2629.695355	-2.995200	2.743100	-8.214800	28.781356	0.000230	20.719575
2630.699288	-2.992700	2.740300	-8.200100	28.812845	0.000230	20.709568
2631.700364	-2.981500	2.737300	-8.159800	28.828865	0.000232	20.714801
2632.704439	-3.049000	2.732800	-8.331000	28.869651	0.000231	20.711791
2633.700722	-2.993800	2.731800	-8.177600	28.881313	0.000232	20.719747
2634.696722	-3.016500	2.726500	-8.223700	28.906802	0.000233	20.709388
2635.710371	-3.014800	2.722500	-8.206800	28.868215	0.000232	20.721250
2636.698118	-3.016500	2.719100	-8.201100	28.826017	0.000233	20.720467
2637.700162	-2.992800	2.716600	-8.129600	28.755167	0.000233	20.722592
2638.701422	-3.000200	2.712900	-8.138400	28.704604	0.000232	20.730456
2639.700660	-2.988400	2.711300	-8.100400	28.710552	0.000233	20.729810
2640.699757	-2.992000	2.706200	-8.095700	28.730421	0.000233	20.727537
2641.699184	-3.004900	2.700800	-8.114800	28.777647	0.000232	20.731011
2642.700443	-3.001000	2.698400	-8.096200	28.806157	0.000232	20.733653
2643.704891	-3.016300	2.694700	-8.127100	28.855555	0.000232	20.735525
2644.702248	-3.027800	2.689400	-8.141600	28.864254	0.000231	20.724373
2645.705528	-3.027300	2.687600	-8.133700	28.885378	0.000233	20.723368
2646.709109	-2.971500	2.685400	-7.978400	28.876216	0.000232	20.721250
2647.700706	-2.981900	2.681700	-7.994500	28.839974	0.000232	20.732631
2648.701976	-2.990800	2.676200	-8.003300	28.807594	0.000232	20.722771
2649.703952	-2.997700	2.672100	-8.009500	28.800338	0.000233	20.716410
2650.702751	-3.021100	2.667100	-8.056600	28.793075	0.000231	20.727587
2651.708128	-3.000000	2.663900	-7.990600	28.823727	0.000232	20.734756
2652.705328	-2.998900	2.660000	-7.976300	28.808852	0.000230	20.724513
2653.714920	-2.966300	2.656900	-7.880000	28.829936	0.000230	20.731053
2654.714779	-2.994400	2.651400	-7.938300	28.862908	0.000230	20.753838
2655.708706	-3.010600	2.646800	-7.967600	28.909852	0.000233	20.730007
2656.702302	-3.010800	2.642300	-7.954200	28.949233	0.000233	20.728904
2657.705339	-2.973400	2.638900	-7.845600	28.984562	0.000232	20.729410
2658.700989	-2.943400	2.634600	-7.752700	29.021911	0.000231	20.757558
2659.702890	-3.009800	2.629500	-7.912200	29.007866	0.000231	20.730130
2660.710618	-3.016200	2.625100	-7.916500	28.964788	0.000232	20.732722
2661.716792	-3.014100	2.620300	-7.895800	28.910713	0.000232	20.734667
2662.710439	-3.008000	2.614600	-7.864100	28.944251	0.000232	20.755654
2663.703098	-2.991900	2.609600	-7.805500	28.939820	0.000232	20.749767
2664.703695	-3.004100	2.605400	-7.825900	28.943383	0.000233	20.739132
2665.703316	-3.005000	2.600700	-7.813600	28.971572	0.000235	20.739083
2666.712811	-3.008900	2.594600	-7.806000	28.966639	0.000231	20.738380
2667.704609	-2.973800	2.591400	-7.705500	29.002058	0.000233	20.747512
2668.706703	-3.022800	2.583400	-7.808100	29.001465	0.000231	20.752131
2669.704308	-2.983100	2.580200	-7.696000	29.021809	0.000233	20.738488
2670.710150	-2.998200	2.574900	-7.719100	29.025288	0.000232	20.746736
2671.709518	-2.992200	2.569400	-7.687000	29.004184	0.000232	20.749180
2672.710705	-3.006100	2.562900	-7.703000	29.050798	0.000233	20.741144
2673.712957	-3.010000	2.556900	-7.695100	29.085345	0.000233	20.748453
2674.712516	-3.008900	2.551400	-7.675800	29.100599	0.000232	20.754340
2675.707629	-3.003600	2.546000	-7.644900	29.108281	0.000232	20.746434
2676.707543	-2.988300	2.540200	-7.590300	29.159143	0.000235	20.745527
2677.708375	-2.981900	2.534400	-7.556500	29.180909	0.000233	20.756556
2678.714150	-2.994100	2.527700	-7.566700	29.230314	0.000235	20.758927
2679.706028	-2.977800	2.523000	-7.512600	29.235977	0.000232	20.751832
2680.710388	-3.018800	2.514700	-7.590000	29.186451	0.000235	20.765460
2681.715505	-2.976500	2.509300	-7.467800	29.115172	0.000235	20.757645
2682.724396	-2.975100	2.503600	-7.447000	29.090232	0.000234	20.758119
2683.709701	-2.995300	2.498300	-7.482700	29.089193	0.000234	20.759443
