LabVIEW Measurement	
Writer_Version	2
Reader_Version	2
Separator	Tab
Decimal_Separator	.
Multi_Headings	No
X_Columns	One
Time_Pref	Absolute
Operator	admin
Description	Clolumns are: time, Current, Voltage, Power, Battery Temp, and Chamber Temp
Date	2024/08/16
Time	13:06:06.104549407958984375
***End_of_Header***	
	
Channels	6						
Samples	1	1	1	1	1	1	
Date	2024/09/05	2024/09/05	2024/09/05	2024/09/05	2024/09/05	2024/09/05	
Time	15:58:22.7545313835144042969	15:58:22.7591495513916015625	15:58:22.7652807235717773438	15:58:22.7381625175476074219	15:58:22.7391610145568847656	15:58:22.7391610145568847656	
X_Dimension	Time	Time	Time	Time	Time	Time	
X0	0.0000000000000000E+0	0.0000000000000000E+0	0.0000000000000000E+0	0.0000000000000000E+0	0.0000000000000000E+0	0.0000000000000000E+0	
Delta_X	1.000000	1.000000	1.000000	1.000000	1.000000	1.000000	
***End_of_Header***							
X_Value	Untitled	Untitled 1	Untitled 2	Untitled 3	Untitled 4	Untitled 5	Comment
0.000000	0.029025	4.098200	0.118870	20.998222	0.000923	20.804785
0.999935	-3.004500	3.928500	-11.801000	20.998997	0.000920	20.805086
1.998789	-3.021800	3.920900	-11.848000	21.014394	0.000921	20.806735
3.001810	-3.021500	3.916100	-11.831000	20.989437	0.000918	20.796473
4.001360	-2.996100	3.913700	-11.725000	21.018356	0.000919	20.818758
5.001829	-2.997900	3.909300	-11.719000	21.025660	0.000918	20.806149
6.003336	-2.995100	3.907800	-11.703000	21.018125	0.000918	20.807621
7.006345	-2.994500	3.905700	-11.694000	21.014856	0.000914	20.805774
8.003239	-2.998100	3.903000	-11.700000	21.023710	0.000914	20.831225
9.003339	-3.003900	3.900800	-11.715000	21.021839	0.000916	20.817974
10.006720	-2.978500	3.901100	-11.619000	21.024955	0.000915	20.814453
11.002981	-2.992200	3.897200	-11.660000	21.027272	0.000913	20.835262
12.003061	-3.024600	3.893600	-11.774000	21.038150	0.000913	20.805840
13.005867	-3.008800	3.893500	-11.714000	21.037149	0.000914	20.831864
14.004220	-3.006400	3.891700	-11.699000	21.057829	0.000911	20.810351
15.006252	-3.007500	3.892000	-11.704000	21.053765	0.000910	20.825251
16.005658	-2.994100	3.890800	-11.648000	21.062595	0.000910	20.820806
17.003516	-2.997500	3.889500	-11.656000	21.051564	0.000911	20.832532
18.008337	-2.999800	3.888700	-11.664000	21.070921	0.000911	20.828661
19.011073	-2.990000	3.887200	-11.621000	21.075711	0.000910	20.833452
20.006617	-3.028700	3.885700	-11.767000	21.075134	0.000908	20.828607
21.006992	-3.014600	3.885600	-11.711000	21.067623	0.000910	20.817776
22.010225	-2.985900	3.885900	-11.601000	21.082166	0.000908	20.835641
23.008398	-2.999700	3.884800	-11.652000	21.102673	0.000908	20.822014
24.008619	-3.001200	3.884100	-11.656000	21.079392	0.000909	20.821012
25.008508	-3.001200	3.883300	-11.652000	21.097706	0.000907	20.826529
26.011281	-3.007200	3.882700	-11.675000	21.111276	0.000906	20.837731
27.008477	-2.998200	3.881300	-11.635000	21.108807	0.000906	20.835261
28.008872	-3.007200	3.880000	-11.666000	21.128415	0.000905	20.851081
29.011954	-3.011800	3.878100	-11.679000	21.112249	0.000906	20.833014
30.009844	-3.002900	3.879400	-11.649000	21.132384	0.000905	20.837034
31.010226	-3.012200	3.877100	-11.678000	21.133802	0.000907	20.853151
32.013467	-3.006900	3.877700	-11.659000	21.154861	0.000904	20.832017
33.010884	-3.019200	3.875900	-11.700000	21.141209	0.000905	20.837327
34.009534	-3.000500	3.877800	-11.634000	21.158125	0.000904	20.843816
35.012226	-3.022200	3.875500	-11.712000	21.170544	0.000902	20.835851
36.012874	-3.010000	3.876100	-11.666000	21.164963	0.000903	20.852553
37.011811	-2.992400	3.875600	-11.596000	21.154580	0.000904	20.845012
38.010964	-2.992900	3.873700	-11.591000	21.190204	0.000902	20.839397
39.010601	-2.997200	3.874000	-11.609000	21.193271	0.000903	20.836774
40.011440	-2.989800	3.875600	-11.587000	21.198588	0.000901	20.834507
41.015718	-2.993300	3.872700	-11.591000	21.203526	0.000900	20.836127
42.012079	-3.004800	3.872800	-11.636000	21.223779	0.000901	20.851646
43.012474	-2.994100	3.873400	-11.596000	21.228350	0.000901	20.843891
44.014429	-3.037300	3.870200	-11.754000	21.227299	0.000902	20.841891
45.013932	-3.001500	3.873100	-11.624000	21.226677	0.000901	20.844587
46.015913	-2.996100	3.871500	-11.599000	21.235958	0.000900	20.854820
47.010333	-3.006100	3.870500	-11.635000	21.240570	0.000900	20.837150
48.011269	-2.992600	3.871600	-11.585000	21.245957	0.000902	20.832581
49.011026	-3.017100	3.870200	-11.675000	21.255634	0.000899	20.857908
50.013305	-3.005000	3.870800	-11.630000	21.243665	0.000900	20.856841
51.012476	-3.000200	3.870000	-11.609000	21.259129	0.000900	20.873258
52.012830	-2.997700	3.868900	-11.597000	21.289339	0.000899	20.864126
53.016591	-3.001600	3.868300	-11.610000	21.293629	0.000899	20.849452
54.012364	-3.017000	3.868900	-11.671000	21.298591	0.000902	20.853468
55.015541	-3.018200	3.867400	-11.671000	21.303603	0.000899	20.865593
56.016642	-3.006400	3.867800	-11.627000	21.309245	0.000899	20.885461
57.015655	-2.997900	3.866600	-11.590000	21.326080	0.000898	20.852520
58.014776	-3.008700	3.866600	-11.631000	21.335262	0.000898	20.859335
59.015038	-3.011000	3.866700	-11.640000	21.337953	0.000901	20.860131
60.017271	-3.010200	3.866800	-11.639000	21.343640	0.000898	20.875303
61.017778	-2.979300	3.866200	-11.517000	21.339676	0.000898	20.864699
62.018599	-2.984500	3.866300	-11.538000	21.363846	0.000899	20.842415
63.015109	-2.995700	3.866100	-11.580000	21.367786	0.000899	20.874804
64.018086	-2.992600	3.865200	-11.567000	21.359556	0.000898	20.865622
65.015141	-2.987900	3.865400	-11.548000	21.375620	0.000898	20.850875
66.015448	-2.984000	3.865500	-11.532000	21.375022	0.000899	20.866397
67.018010	-2.995000	3.863700	-11.571000	21.385271	0.000898	20.853893
68.015803	-3.005700	3.864800	-11.614000	21.390430	0.000898	20.860477
69.016250	-3.006500	3.863800	-11.615000	21.396793	0.000898	20.861153
70.019282	-3.005800	3.863800	-11.613000	21.409716	0.000899	20.872186
71.017627	-3.016800	3.864000	-11.656000	21.424156	0.000898	20.867193
72.017324	-3.005600	3.862900	-11.609000	21.416396	0.000901	20.857059
73.020449	-2.980300	3.865600	-11.520000	21.421189	0.000898	20.877500
74.017792	-2.984400	3.864000	-11.530000	21.451642	0.000898	20.868615
75.018661	-2.983300	3.862800	-11.522000	21.453232	0.000897	20.883956
76.021216	-3.006000	3.862600	-11.610000	21.471367	0.000897	20.860378
77.018532	-3.002400	3.862600	-11.596000	21.460740	0.000897	20.869658
78.018526	-2.995000	3.862400	-11.567000	21.453957	0.000898	20.860502
79.022743	-3.002800	3.861900	-11.595000	21.478047	0.000897	20.881285
80.021558	-2.987900	3.861300	-11.537000	21.494888	0.000898	20.882489
81.019307	-2.989400	3.860800	-11.539000	21.496705	0.000896	20.866290
82.019543	-3.007500	3.861500	-11.611000	21.498127	0.000900	20.877195
83.020954	-3.021200	3.859100	-11.658000	21.504662	0.000899	20.869984
84.020779	-3.016600	3.859700	-11.642000	21.525013	0.000899	20.868063
85.019429	-2.977100	3.861100	-11.493000	21.516908	0.000898	20.893142
86.027228	-2.998800	3.860000	-11.575000	21.549278	0.000897	20.885230
87.024048	-2.987600	3.858200	-11.524000	21.527506	0.000897	20.881462
88.020041	-2.993500	3.859600	-11.553000	21.524712	0.000898	20.885778
89.023388	-2.993000	3.858600	-11.547000	21.560725	0.000898	20.878193
90.021712	-3.010800	3.857700	-11.614000	21.585686	0.000899	20.896531
91.022525	-3.015200	3.858500	-11.633000	21.582398	0.000898	20.873328
92.025358	-2.995800	3.858700	-11.559000	21.573564	0.000900	20.880608
93.021397	-2.993800	3.859100	-11.552000	21.575542	0.000900	20.862674
94.024519	-3.020900	3.857000	-11.650000	21.589452	0.000896	20.873748
95.022510	-2.981700	3.856800	-11.498000	21.583815	0.000897	20.876168
96.021897	-2.997900	3.857100	-11.562000	21.592843	0.000897	20.906536
97.026743	-2.985900	3.859700	-11.523000	21.610448	0.000898	20.875319
98.024608	-2.981000	3.858400	-11.501000	21.618874	0.000899	20.886595
99.024418	-2.999700	3.856900	-11.569000	21.631543	0.000902	20.885997
100.023515	-2.996900	3.856300	-11.556000	21.627753	0.000899	20.865610
101.024358	-2.982400	3.857600	-11.504000	21.619970	0.000900	20.877261
102.025120	-3.017400	3.856100	-11.635000	21.643034	0.000901	20.877108
103.026573	-2.969400	3.857500	-11.454000	21.652584	0.000899	20.866278
104.022992	-3.002800	3.855500	-11.575000	21.634753	0.000904	20.860287
105.026984	-2.982700	3.856000	-11.501000	21.660936	0.000901	20.878902
106.027773	-3.007400	3.855000	-11.592000	21.684374	0.000902	20.878176
107.027124	-2.979800	3.856700	-11.491000	21.691007	0.000902	20.874857
108.029783	-2.987900	3.854800	-11.515000	21.674424	0.000901	20.864426
109.027558	-2.989400	3.854800	-11.523000	21.705843	0.000900	20.885910
110.028984	-3.028900	3.853800	-11.672000	21.701673	0.000903	20.849498
111.028292	-3.023200	3.853400	-11.648000	21.707659	0.000904	20.838419
112.031970	-2.991900	3.854700	-11.531000	21.725358	0.000904	20.873674
113.027990	-3.002700	3.852400	-11.567000	21.719199	0.000905	20.855183
114.029640	-2.998800	3.854200	-11.557000	21.741112	0.000905	20.876164
115.029016	-3.022300	3.851700	-11.639000	21.742904	0.000905	20.852355
116.029674	-3.016600	3.852900	-11.622000	21.743452	0.000904	20.855748
117.029262	-2.986700	3.852600	-11.505000	21.752725	0.000905	20.860287
118.029859	-3.024100	3.851600	-11.647000	21.749257	0.000906	20.846859
119.029666	-3.017200	3.851800	-11.621000	21.752692	0.000907	20.846979
120.028979	-3.004700	3.851600	-11.571000	21.795252	0.000906	20.844055
121.029613	-2.998400	3.853500	-11.553000	21.788014	0.000908	20.868104
122.031424	-2.987000	3.854000	-11.511000	21.792278	0.000906	20.861466
123.029147	-2.989000	3.850900	-11.509000	21.794795	0.000906	20.844546
124.032734	-3.024300	3.849900	-11.641000	21.818276	0.000909	20.867572
125.039162	-3.010500	3.849700	-11.588000	21.789452	0.000907	20.855319
126.031526	-2.988900	3.851600	-11.510000	21.819664	0.000907	20.860428
127.032949	-3.002000	3.850000	-11.557000	21.818189	0.000908	20.842831
128.035746	-3.013700	3.849500	-11.599000	21.828158	0.000907	20.866558
129.033634	-3.027000	3.849800	-11.653000	21.785897	0.000907	20.856977
130.033484	-3.004800	3.849800	-11.566000	21.825011	0.000908	20.870046
131.035282	-3.007600	3.849400	-11.574000	21.816361	0.000908	20.858544
132.035484	-3.037700	3.848700	-11.690000	21.840537	0.000907	20.855716
133.032164	-3.016700	3.848700	-11.610000	21.853451	0.000908	20.842564
134.035625	-2.987700	3.849600	-11.500000	21.864821	0.000909	20.859632
135.033961	-3.021700	3.847400	-11.625000	21.866188	0.000907	20.861001
136.033782	-2.992700	3.849300	-11.519000	21.886278	0.000908	20.838437
137.032235	-3.006900	3.848200	-11.571000	21.881537	0.000909	20.857872
138.036012	-3.010100	3.849000	-11.585000	21.883551	0.000907	20.855147
139.035582	-3.007100	3.845600	-11.563000	21.898187	0.000908	20.877381
140.035717	-2.980200	3.848200	-11.467000	21.888733	0.000907	20.870290
141.041595	-3.017700	3.845700	-11.602000	21.912039	0.000907	20.867066
142.039184	-2.982000	3.848500	-11.475000	21.910293	0.000907	20.852517
143.036087	-3.009900	3.847300	-11.579000	21.908044	0.000908	20.859749
144.036476	-2.983100	3.848400	-11.479000	21.907595	0.000908	20.867359
145.039347	-2.993300	3.846500	-11.513000	21.925443	0.000907	20.856776
146.042969	-3.017800	3.846000	-11.605000	21.916764	0.000908	20.836710
147.038702	-3.004600	3.846800	-11.556000	21.922819	0.000908	20.856046
148.038384	-2.996500	3.847200	-11.527000	21.944782	0.000909	20.841522
149.040096	-3.006600	3.846400	-11.563000	21.952011	0.000911	20.842119
150.038352	-2.990400	3.846200	-11.501000	21.948819	0.000910	20.839873
151.040652	-2.976600	3.846200	-11.446000	21.931218	0.000909	20.851177
152.040482	-2.997300	3.845500	-11.524000	21.936400	0.000912	20.839295
153.038925	-2.993500	3.845200	-11.510000	21.940692	0.000911	20.835057
154.040391	-3.013300	3.845000	-11.585000	21.933257	0.000912	20.849425
155.039120	-2.989000	3.845600	-11.492000	21.941013	0.000913	20.839646
156.037632	-2.989200	3.843900	-11.490000	21.952555	0.000912	20.840767
157.039660	-3.008400	3.844000	-11.564000	21.965538	0.000914	20.842858
158.039509	-3.000800	3.843000	-11.531000	21.981469	0.000913	20.836047
159.037848	-2.997300	3.843600	-11.518000	21.997475	0.000914	20.836422
160.040682	-2.989800	3.844000	-11.491000	22.008538	0.000914	20.839436
161.062109	-2.986500	3.843600	-11.478000	22.026883	0.000915	20.840731
162.042795	-2.998400	3.843500	-11.523000	22.020553	0.000913	20.829652
163.041568	-3.016900	3.842200	-11.590000	22.037851	0.000913	20.854555
164.040433	-2.999100	3.842200	-11.522000	22.043139	0.000914	20.838987
165.042456	-2.986200	3.843000	-11.475000	22.047497	0.000916	20.843349
166.051720	-2.984300	3.843800	-11.469000	22.047645	0.000917	20.832592
167.041974	-3.002500	3.842400	-11.535000	22.051710	0.000916	20.827653
168.043153	-2.987400	3.841800	-11.476000	22.061055	0.000917	20.836060
169.042229	-3.006900	3.841600	-11.550000	22.089996	0.000917	20.843695
170.042441	-3.012100	3.840000	-11.566000	22.100712	0.000918	20.836880
171.044405	-2.990100	3.841900	-11.487000	22.107092	0.000920	20.844689
172.045509	-3.001000	3.840800	-11.525000	22.095778	0.000919	20.822458
173.046227	-2.999500	3.841100	-11.520000	22.113825	0.000919	20.825352
174.045990	-2.994000	3.841300	-11.500000	22.125414	0.000918	20.836006
175.045692	-3.030100	3.839800	-11.634000	22.134783	0.000918	20.827843
176.045148	-2.993000	3.840300	-11.493000	22.128499	0.000920	20.842887
177.046404	-3.021500	3.838600	-11.597000	22.138321	0.000919	20.840867
178.044429	-3.009000	3.839100	-11.551000	22.124389	0.000921	20.819333
179.049121	-3.003600	3.839900	-11.533000	22.121243	0.000920	20.835149
180.049061	-2.999600	3.840300	-11.517000	22.125756	0.000921	20.822599
181.044799	-3.019600	3.840300	-11.594000	22.124237	0.000921	20.828663
182.052057	-2.991500	3.838000	-11.479000	22.115333	0.000922	20.827810
183.053704	-2.997800	3.837900	-11.504000	22.107636	0.000922	20.824845
184.052263	-2.997700	3.838200	-11.504000	22.119723	0.000922	20.829834
185.055341	-3.012300	3.837300	-11.558000	22.131711	0.000926	20.823819
186.048869	-3.010500	3.836100	-11.546000	22.136172	0.000924	20.815957
187.048289	-2.990600	3.838900	-11.479000	22.161795	0.000926	20.828808
188.051277	-2.994900	3.837300	-11.491000	22.171246	0.000925	20.813140
189.048381	-2.990100	3.838300	-11.475000	22.176176	0.000928	20.799110
190.049351	-3.006800	3.836600	-11.535000	22.177498	0.000926	20.825563
191.051553	-2.983200	3.836400	-11.444000	22.181908	0.000926	20.823341
192.049646	-3.000300	3.836200	-11.509000	22.196046	0.000927	20.827064
193.050909	-3.013400	3.836100	-11.559000	22.193628	0.000927	20.818480
194.050116	-2.983400	3.836000	-11.443000	22.225452	0.000927	20.803876
195.051686	-2.993700	3.836200	-11.482000	22.208651	0.000931	20.828305
196.051128	-3.026900	3.835100	-11.607000	22.215610	0.000930	20.808721
197.054679	-3.002900	3.836100	-11.517000	22.219922	0.000929	20.799287
198.052269	-3.026700	3.833400	-11.600000	22.239206	0.000931	20.819070
199.051644	-2.996500	3.835400	-11.492000	22.271087	0.000931	20.807368
200.059422	-2.985600	3.835000	-11.448000	22.262789	0.000931	20.810440
201.056027	-3.016000	3.833800	-11.562000	22.274278	0.000932	20.801081
202.051451	-3.023100	3.833600	-11.588000	22.283794	0.000932	20.827204
203.050208	-3.017800	3.832500	-11.564000	22.278437	0.000932	20.810461
204.055076	-3.001200	3.835100	-11.509000	22.298976	0.000932	20.803526
205.050500	-3.000300	3.833900	-11.501000	22.294241	0.000933	20.811586
206.052393	-3.012500	3.833400	-11.547000	22.292293	0.000932	20.810110
207.055031	-3.007800	3.833200	-11.528000	22.295958	0.000932	20.811883
208.054637	-2.999600	3.834300	-11.501000	22.318164	0.000934	20.816575
209.053086	-2.986500	3.832500	-11.444000	22.304206	0.000935	20.785529
210.054344	-2.974400	3.833800	-11.402000	22.311136	0.000935	20.833719
211.052875	-2.995600	3.831600	-11.476000	22.299672	0.000935	20.802800
212.064662	-3.005300	3.830800	-11.510000	22.330851	0.000935	20.802252
213.057790	-2.999300	3.831500	-11.490000	22.324868	0.000936	20.801003
214.051553	-2.991800	3.831100	-11.461000	22.320281	0.000935	20.797832
215.053636	-2.978600	3.833000	-11.416000	22.336282	0.000935	20.800578
216.054969	-3.003000	3.831700	-11.505000	22.330649	0.000939	20.807740
217.055948	-2.987900	3.830200	-11.444000	22.342936	0.000939	20.808189
218.056296	-3.005900	3.830500	-11.513000	22.359434	0.000940	20.806218
219.054238	-2.989300	3.831000	-11.451000	22.374933	0.000938	20.806091
220.055373	-3.008300	3.830400	-11.521000	22.383085	0.000941	20.789598
221.056611	-2.984500	3.830600	-11.432000	22.366064	0.000939	20.795787
222.056732	-2.977400	3.831500	-11.406000	22.379692	0.000941	20.813702
223.054475	-2.994300	3.830500	-11.468000	22.369967	0.000941	20.813446
224.056691	-2.991200	3.830300	-11.455000	22.384596	0.000941	20.800121
225.054828	-3.006900	3.829200	-11.512000	22.391748	0.000945	20.795903
226.060620	-3.010700	3.829000	-11.526000	22.392370	0.000942	20.798896
227.056688	-3.000900	3.828900	-11.490000	22.382427	0.000944	20.811698
228.054629	-2.982500	3.829300	-11.419000	22.368172	0.000945	20.785570
229.057775	-3.015300	3.828000	-11.542000	22.360193	0.000945	20.794650
230.055438	-2.985200	3.828900	-11.428000	22.348133	0.000945	20.808177
231.054125	-2.992500	3.828600	-11.456000	22.334326	0.000946	20.796723
232.055907	-2.996500	3.827700	-11.468000	22.354861	0.000948	20.800690
233.058381	-3.028000	3.826600	-11.585000	22.371932	0.000947	20.790757
234.060500	-2.988400	3.827900	-11.437000	22.382497	0.000949	20.788535
235.058321	-3.011000	3.826800	-11.522000	22.385882	0.000949	20.789080
236.063025	-3.010400	3.827400	-11.521000	22.403125	0.000950	20.793071
237.058081	-3.007300	3.826600	-11.506000	22.413719	0.000948	20.791826
238.062316	-2.998800	3.825900	-11.472000	22.418548	0.000950	20.789076
239.060660	-3.009600	3.826900	-11.515000	22.445261	0.000951	20.794964
240.059072	-2.984700	3.825300	-11.416000	22.454455	0.000949	20.773824
241.059238	-2.983900	3.826500	-11.418000	22.467559	0.000951	20.776517
242.071109	-2.984100	3.825800	-11.415000	22.470874	0.000953	20.777939
243.060821	-2.991000	3.826200	-11.442000	22.466308	0.000953	20.782376
244.059139	-2.998400	3.824200	-11.465000	22.468679	0.000951	20.798027
245.064518	-3.002700	3.824000	-11.481000	22.475353	0.000951	20.775313
246.062207	-3.000600	3.824900	-11.476000	22.480982	0.000955	20.781898
247.059854	-2.994200	3.824800	-11.451000	22.494308	0.000954	20.806150
248.061829	-3.018800	3.822900	-11.539000	22.488503	0.000954	20.779474
249.065163	-3.009700	3.823200	-11.506000	22.482793	0.000954	20.780868
250.059062	-2.989500	3.824800	-11.432000	22.506491	0.000953	20.777573
251.063108	-2.981200	3.823900	-11.399000	22.486005	0.000954	20.789774
252.063694	-2.996000	3.823300	-11.453000	22.523156	0.000957	20.769134
253.060867	-2.988400	3.823200	-11.424000	22.546202	0.000953	20.767559
254.061818	-2.999700	3.821800	-11.464000	22.549961	0.000957	20.788393
255.063612	-2.990400	3.822100	-11.427000	22.552250	0.000957	20.784048
256.064742	-3.015400	3.820900	-11.521000	22.533309	0.000956	20.781199
257.063689	-3.023200	3.821500	-11.552000	22.526105	0.000957	20.780148
258.067070	-3.001400	3.821900	-11.469000	22.527274	0.000958	20.784164
259.063716	-3.031900	3.819900	-11.580000	22.536838	0.000959	20.784733
260.065404	-3.011800	3.820200	-11.504000	22.544989	0.000959	20.804750
261.072082	-2.996400	3.820600	-11.447000	22.536439	0.000957	20.796661
262.067756	-3.024800	3.820400	-11.554000	22.581110	0.000958	20.792089
263.064906	-2.996200	3.820100	-11.444000	22.583456	0.000960	20.770257
264.066000	-2.991500	3.820000	-11.426000	22.607316	0.000960	20.791310
265.064137	-3.010500	3.819700	-11.498000	22.638487	0.000961	20.764683
266.065875	-2.983000	3.820900	-11.396000	22.623762	0.000961	20.783600
267.073390	-2.977000	3.820800	-11.373000	22.632979	0.000962	20.779081
268.070093	-2.990000	3.819300	-11.417000	22.638907	0.000961	20.777432
269.064157	-3.003500	3.819200	-11.470000	22.626125	0.000963	20.791657
270.071801	-3.017300	3.817100	-11.517000	22.646827	0.000963	20.773037
271.066844	-2.991800	3.819300	-11.426000	22.669924	0.000963	20.771041
272.069940	-3.019200	3.818600	-11.528000	22.665540	0.000964	20.776607
273.066698	-3.007100	3.818300	-11.481000	22.669327	0.000964	20.769969
274.066489	-3.005100	3.817300	-11.470000	22.674312	0.000964	20.774488
275.065042	-3.013900	3.818100	-11.507000	22.642817	0.000964	20.766176
276.073045	-3.005000	3.817800	-11.470000	22.670722	0.000965	20.775634
277.068852	-3.016400	3.817200	-11.514000	22.688435	0.000965	20.751650
278.068997	-2.987600	3.816800	-11.401000	22.685471	0.000966	20.776657
279.071017	-3.005700	3.817100	-11.472000	22.696630	0.000966	20.784990
280.069438	-2.997100	3.815900	-11.436000	22.702290	0.000969	20.780227
281.071389	-3.000300	3.815900	-11.448000	22.731934	0.000965	20.746384
282.074487	-3.002900	3.816500	-11.460000	22.714947	0.000970	20.763982
283.070601	-3.005000	3.814900	-11.462000	22.707723	0.000970	20.774290
284.073594	-2.986600	3.815400	-11.394000	22.716639	0.000969	20.765203
285.071677	-2.952000	3.816500	-11.265000	22.738738	0.000968	20.784969
286.071141	-2.987500	3.813400	-11.392000	22.762780	0.000970	20.775861
287.076977	-3.014800	3.813900	-11.497000	22.755429	0.000971	20.750005
288.071456	-2.984700	3.815000	-11.386000	22.733433	0.000972	20.769697
289.072773	-3.005200	3.812900	-11.457000	22.729271	0.000972	20.753200
290.072991	-3.003100	3.812100	-11.447000	22.713477	0.000971	20.758717
291.070462	-2.993200	3.813900	-11.414000	22.719755	0.000973	20.743193
292.077816	-3.004400	3.814100	-11.458000	22.736873	0.000972	20.766505
293.072728	-2.995100	3.815100	-11.425000	22.713951	0.000974	20.780054
294.074267	-3.021500	3.812200	-11.517000	22.764401	0.000975	20.761364
295.075972	-2.989200	3.812700	-11.396000	22.752840	0.000974	20.751678
296.074605	-2.985800	3.812400	-11.382000	22.752416	0.000975	20.771643
297.076651	-3.003700	3.811200	-11.446000	22.766867	0.000975	20.770946
298.077674	-3.001900	3.812300	-11.443000	22.783434	0.000977	20.778533
299.076101	-3.004100	3.812300	-11.451000	22.780318	0.000975	20.762135
300.078792	-3.002700	3.811100	-11.443000	22.785578	0.000977	20.770723
301.078969	-3.006100	3.811600	-11.457000	22.797411	0.000974	20.752231
302.074995	-3.020100	3.810100	-11.505000	22.768538	0.000978	20.774517
303.077114	-2.999900	3.811000	-11.430000	22.776486	0.000977	20.768728
304.076545	-2.992200	3.810700	-11.401000	22.753214	0.000979	20.763434
305.076569	-3.008500	3.810900	-11.463000	22.779618	0.000979	20.758589
306.078670	-3.000700	3.810000	-11.432000	22.787772	0.000979	20.758222
307.080053	-3.026700	3.808100	-11.525000	22.780845	0.000980	20.749386
308.078857	-3.011600	3.809100	-11.470000	22.777432	0.000980	20.748813
309.079350	-2.997900	3.809800	-11.421000	22.794299	0.000978	20.763339
310.078129	-3.000600	3.808700	-11.428000	22.803712	0.000980	20.747163
311.079356	-3.012300	3.808300	-11.471000	22.807701	0.000981	20.751633
312.080433	-3.002800	3.808000	-11.433000	22.823892	0.000982	20.760741
313.081776	-2.990500	3.809200	-11.389000	22.820155	0.000982	20.749410
314.079773	-3.006100	3.809100	-11.449000	22.843129	0.000981	20.759623
315.078858	-3.003200	3.807500	-11.433000	22.805610	0.000983	20.762815
316.084603	-2.974900	3.808900	-11.329000	22.829247	0.000984	20.754725
317.081000	-2.975700	3.807800	-11.330000	22.814281	0.000983	20.767709
318.080447	-3.002400	3.806500	-11.427000	22.847890	0.000986	20.752539
319.084347	-3.005200	3.806100	-11.436000	22.848211	0.000985	20.763767
320.085213	-2.995600	3.806600	-11.401000	22.871008	0.000984	20.744404
321.080554	-3.000700	3.806100	-11.419000	22.891960	0.000983	20.756386
322.085023	-2.995700	3.806400	-11.401000	22.914801	0.000986	20.739914
323.083856	-2.993500	3.806200	-11.393000	22.908150	0.000986	20.755537
324.080690	-3.001700	3.804500	-11.419000	22.882621	0.000986	20.755565
325.083783	-2.993600	3.806100	-11.394000	22.891268	0.000987	20.756167
326.082496	-2.986900	3.803700	-11.360000	22.880728	0.000988	20.729960
327.083485	-3.018300	3.803700	-11.480000	22.911891	0.000987	20.750749
328.086523	-2.987200	3.806000	-11.369000	22.917842	0.000991	20.759557
329.084074	-2.988500	3.804300	-11.368000	22.947460	0.000990	20.748927
330.081174	-2.981600	3.805200	-11.344000	22.954905	0.000990	20.762076
331.086408	-3.011700	3.804500	-11.457000	22.969180	0.000989	20.767844
332.081332	-3.005000	3.804100	-11.430000	22.972970	0.000990	20.740346
333.083666	-2.995400	3.804700	-11.395000	22.999715	0.000991	20.763350
334.082273	-3.014000	3.803100	-11.462000	23.009028	0.000991	20.741386
335.087723	-2.999300	3.802500	-11.404000	22.982156	0.000991	20.740066
336.084823	-3.004400	3.801100	-11.419000	23.016274	0.000993	20.737741
337.084374	-2.999100	3.802100	-11.403000	23.003204	0.000994	20.748354
338.086979	-2.998700	3.802400	-11.402000	23.019192	0.000992	20.758208
339.083526	-2.975300	3.802000	-11.312000	23.023475	0.000994	20.758707
340.086812	-2.998300	3.801500	-11.397000	23.030154	0.000994	20.754493
341.085750	-3.008800	3.801400	-11.437000	23.041409	0.000993	20.753916
342.083000	-2.978600	3.802800	-11.326000	23.059144	0.000994	20.738021
343.083205	-3.013800	3.799200	-11.449000	23.063851	0.000994	20.747954
344.087384	-3.008200	3.800800	-11.433000	23.018899	0.000994	20.755070
345.088144	-3.014700	3.799600	-11.453000	23.009332	0.000993	20.763028
346.084519	-3.016100	3.799800	-11.459000	23.011401	0.000996	20.746609
347.086676	-3.012000	3.798300	-11.440000	23.020216	0.000996	20.754019
348.087293	-3.003300	3.799200	-11.409000	23.034512	0.000996	20.751273
349.087362	-3.002200	3.799400	-11.404000	23.026495	0.000997	20.765053
350.086380	-3.000000	3.799100	-11.397000	23.032742	0.000995	20.746655
351.086398	-2.984300	3.799800	-11.338000	23.003879	0.000996	20.757091
352.088275	-2.976200	3.800300	-11.309000	23.028710	0.000997	20.750675
353.089311	-3.001900	3.798400	-11.402000	23.045996	0.000996	20.748081
354.093593	-2.986700	3.797500	-11.341000	23.046272	0.000998	20.758315
355.090665	-2.978900	3.798400	-11.314000	23.089309	0.000998	20.761610
356.095436	-3.015000	3.797400	-11.447000	23.110253	0.000998	20.743715
357.091395	-2.985900	3.797900	-11.340000	23.096259	0.000999	20.761935
358.093645	-3.003900	3.798300	-11.409000	23.088918	0.000999	20.746044
359.090255	-3.003800	3.796900	-11.405000	23.086594	0.001001	20.761259
360.091333	-2.993200	3.796200	-11.361000	23.089136	0.001003	20.758117
361.094113	-3.035000	3.795600	-11.518000	23.101690	0.001004	20.745566
362.091600	-3.002700	3.795500	-11.395000	23.115360	0.001004	20.759264
363.092054	-2.988300	3.796700	-11.345000	23.115438	0.001001	20.765032
364.092421	-3.001800	3.795800	-11.393000	23.114788	0.001003	20.758216
365.094583	-3.005800	3.795200	-11.407000	23.124601	0.001007	20.758092
366.094979	-2.987900	3.795300	-11.337000	23.102114	0.001005	20.765432
367.093230	-2.993000	3.794600	-11.355000	23.115310	0.001006	20.764904
368.095584	-3.012400	3.793600	-11.426000	23.095486	0.001006	20.780127
369.093127	-3.004400	3.793600	-11.396000	23.110299	0.001008	20.777426
370.094419	-3.007300	3.793200	-11.406000	23.121483	0.001008	20.768244
371.095813	-2.995800	3.793300	-11.364000	23.107509	0.001009	20.749026
372.093576	-3.010200	3.792300	-11.415000	23.140509	0.001007	20.762653
373.093271	-3.015900	3.793200	-11.439000	23.155523	0.001011	20.779595
374.092670	-2.997400	3.793100	-11.368000	23.170241	0.001010	20.773007
375.098721	-3.010500	3.793500	-11.418000	23.174968	0.001008	20.770632
376.095592	-3.004000	3.792900	-11.392000	23.163386	0.001011	20.771828
377.094072	-3.015900	3.792400	-11.436000	23.190526	0.001012	20.777213
378.097006	-3.017800	3.791800	-11.442000	23.159869	0.001011	20.773045
379.094319	-2.997100	3.791800	-11.364000	23.156507	0.001011	20.788642
380.094385	-2.982600	3.790600	-11.305000	23.186510	0.001013	20.766551
381.096187	-2.986700	3.791000	-11.321000	23.202470	0.001012	20.763578
382.098517	-2.992700	3.791400	-11.345000	23.209465	0.001012	20.750199
383.096173	-2.989200	3.789500	-11.325000	23.247958	0.001011	20.783560
384.097331	-2.984800	3.790800	-11.314000	23.233143	0.001012	20.768238
385.096133	-2.986600	3.789600	-11.317000	23.280028	0.001013	20.778715
386.096852	-3.010700	3.788400	-11.405000	23.279527	0.001012	20.767781
387.096888	-2.985700	3.789600	-11.313000	23.292544	0.001014	20.783198
388.097787	-3.003200	3.789300	-11.379000	23.251852	0.001012	20.781298
389.096485	-3.011900	3.787800	-11.408000	23.272497	0.001014	20.769270
390.103617	-3.008900	3.788200	-11.397000	23.237855	0.001012	20.788134
391.098115	-3.000600	3.787400	-11.364000	23.233046	0.001012	20.768615
392.101346	-3.017900	3.786700	-11.428000	23.212076	0.001014	20.778894
393.094987	-2.999000	3.788500	-11.360000	23.217951	0.001014	20.784782
394.096591	-3.002100	3.787000	-11.367000	23.239913	0.001016	20.769333
395.097724	-3.000800	3.786200	-11.361000	23.272210	0.001013	20.787949
396.096736	-3.009400	3.785100	-11.390000	23.287794	0.001013	20.774644
397.098905	-3.029100	3.785900	-11.465000	23.292278	0.001013	20.800475
398.101730	-2.999600	3.786600	-11.358000	23.280249	0.001014	20.772298
399.097492	-3.000100	3.784500	-11.353000	23.298199	0.001012	20.803564
400.101904	-3.012400	3.784300	-11.399000	23.287617	0.001014	20.794382
401.097153	-3.001400	3.785100	-11.359000	23.305193	0.001014	20.784969
402.099365	-2.981100	3.785500	-11.284000	23.335500	0.001017	20.779308
403.100491	-3.009100	3.784500	-11.386000	23.337886	0.001016	20.796398
404.101947	-2.971800	3.785700	-11.249000	23.338762	0.001016	20.794905
405.100834	-3.000100	3.783000	-11.348000	23.342119	0.001016	20.788787
406.100905	-3.004300	3.783100	-11.364000	23.337710	0.001016	20.801437
407.100857	-3.010700	3.783500	-11.390000	23.324862	0.001016	20.791880
408.099197	-3.001500	3.782300	-11.351000	23.337134	0.001017	20.834050
409.099422	-2.993100	3.783500	-11.324000	23.325434	0.001017	20.782496
410.101794	-2.976900	3.783100	-11.261000	23.322546	0.001017	20.784343
411.103386	-3.005400	3.781800	-11.365000	23.355362	0.001016	20.795422
412.102781	-2.984000	3.782500	-11.286000	23.353067	0.001019	20.811139
413.103696	-2.982600	3.780900	-11.275000	23.352890	0.001019	20.774452
414.103586	-3.000200	3.781400	-11.344000	23.370045	0.001019	20.801603
415.101202	-3.016900	3.781100	-11.405000	23.367433	0.001017	20.785234
416.102145	-3.004900	3.780100	-11.357000	23.366211	0.001018	20.785906
417.101446	-3.020900	3.779700	-11.417000	23.371443	0.001018	20.806323
418.101612	-3.015100	3.779000	-11.393000	23.364590	0.001019	20.811309
419.103740	-3.002800	3.779200	-11.347000	23.370617	0.001020	20.794590
420.102320	-3.007600	3.780500	-11.370000	23.373953	0.001018	20.818322
421.102490	-2.999700	3.780500	-11.339000	23.374977	0.001021	20.772407
422.102408	-3.023500	3.778000	-11.422000	23.384537	0.001017	20.799533
423.104069	-3.006300	3.777900	-11.357000	23.396039	0.001019	20.812958
424.106641	-2.997200	3.778500	-11.323000	23.409458	0.001021	20.803174
425.103633	-2.990700	3.779000	-11.300000	23.413197	0.001020	20.796016
426.109126	-3.008200	3.778500	-11.366000	23.429528	0.001020	20.784409
427.101996	-3.020000	3.776100	-11.403000	23.419668	0.001019	20.785432
428.103764	-3.018400	3.775800	-11.395000	23.424571	0.001020	20.790347
429.119995	-3.040500	3.775900	-11.479000	23.443695	0.001020	20.797661
430.103755	-3.017700	3.776700	-11.396000	23.448425	0.001021	20.793394
431.104057	-3.004100	3.776800	-11.344000	23.473200	0.001021	20.790252
432.105737	-3.000800	3.776200	-11.331000	23.480571	0.001023	20.792424
433.102999	-2.990700	3.776200	-11.292000	23.451038	0.001022	20.795064
434.101579	-3.008100	3.776000	-11.357000	23.435480	0.001024	20.800333
435.104254	-3.015300	3.775400	-11.383000	23.459828	0.001023	20.809564
436.103498	-2.996300	3.775200	-11.311000	23.487367	0.001022	20.828633
437.106739	-3.000500	3.775500	-11.327000	23.480094	0.001021	20.818025
438.105173	-3.006000	3.774200	-11.345000	23.495782	0.001022	20.803878
439.106222	-3.014000	3.772800	-11.370000	23.500011	0.001021	20.814755
440.106581	-2.979800	3.774500	-11.246000	23.518187	0.001023	20.809267
441.105900	-2.980100	3.774300	-11.247000	23.530066	0.001022	20.801734
442.106894	-2.972600	3.772600	-11.213000	23.549381	0.001023	20.811613
443.106803	-3.009600	3.772000	-11.351000	23.535368	0.001023	20.783341
444.107322	-3.000000	3.771500	-11.311000	23.557130	0.001023	20.826018
445.106326	-2.994200	3.772100	-11.294000	23.551305	0.001026	20.811645
446.106648	-3.008100	3.772300	-11.346000	23.563455	0.001027	20.804385
447.108096	-3.005400	3.771700	-11.335000	23.560321	0.001026	20.824002
448.107811	-2.986400	3.771600	-11.262000	23.571874	0.001026	20.830367
449.107825	-3.018600	3.770800	-11.381000	23.572376	0.001025	20.815223
450.108348	-3.000500	3.771400	-11.315000	23.583205	0.001027	20.809010
451.108671	-3.000000	3.769600	-11.308000	23.615269	0.001026	20.818394
452.109650	-2.990000	3.769800	-11.271000	23.578553	0.001027	20.817623
453.111526	-2.989700	3.770500	-11.271000	23.589707	0.001029	20.824063
454.112781	-2.996200	3.770400	-11.294000	23.587194	0.001026	20.824388
455.110986	-2.986800	3.770400	-11.259000	23.576266	0.001028	20.808218
456.110923	-3.005500	3.768100	-11.324000	23.584763	0.001027	20.795873
457.118118	-3.013700	3.767600	-11.353000	23.575377	0.001027	20.799740
458.112810	-2.987500	3.770200	-11.262000	23.597908	0.001026	20.811895
459.110427	-2.993500	3.769000	-11.281000	23.582307	0.001028	20.817118
460.113403	-2.988700	3.767800	-11.260000	23.604184	0.001027	20.793530
461.113534	-2.993900	3.767800	-11.279000	23.616213	0.001028	20.837832
462.115845	-3.003600	3.768100	-11.317000	23.613700	0.001028	20.838157
463.115415	-2.991500	3.767700	-11.270000	23.625002	0.001029	20.836211
464.119270	-2.983900	3.768800	-11.244000	23.618882	0.001027	20.827705
465.116766	-2.981900	3.768400	-11.236000	23.637529	0.001026	20.820795
466.115485	-2.989900	3.765400	-11.257000	23.666129	0.001028	20.818647
467.119213	-3.005800	3.766600	-11.319000	23.651467	0.001029	20.823863
468.120672	-3.007400	3.764200	-11.319000	23.629517	0.001028	20.823668
469.117378	-3.029200	3.765300	-11.405000	23.617100	0.001030	20.823074
470.120020	-3.000300	3.764000	-11.292000	23.641098	0.001031	20.822476
471.117789	-3.023100	3.763500	-11.376000	23.620588	0.001030	20.845536
472.119063	-2.990500	3.762700	-11.252000	23.629574	0.001029	20.848855
473.121096	-3.024700	3.762800	-11.380000	23.658725	0.001030	20.818811
474.121171	-3.017100	3.761800	-11.349000	23.655665	0.001030	20.834709
475.121037	-3.019100	3.761300	-11.355000	23.692534	0.001030	20.831369
476.119144	-3.002200	3.761800	-11.293000	23.693480	0.001031	20.826628
477.121230	-2.991100	3.762200	-11.252000	23.689002	0.001032	20.815500
478.120025	-3.008500	3.762100	-11.317000	23.668023	0.001031	20.824813
479.119148	-2.979100	3.762500	-11.207000	23.644675	0.001030	20.805200
480.122293	-2.987000	3.762500	-11.238000	23.634496	0.001032	20.819651
481.122827	-2.986300	3.761700	-11.232000	23.655031	0.001033	20.844978
482.121428	-3.004300	3.760400	-11.296000	23.660459	0.001032	20.842360
483.120485	-2.985200	3.761300	-11.227000	23.673056	0.001031	20.831756
484.120002	-2.979900	3.760900	-11.206000	23.684707	0.001032	20.843436
485.121109	-3.001700	3.759600	-11.284000	23.708778	0.001035	20.846231
486.122044	-3.007000	3.759000	-11.303000	23.718290	0.001032	20.826371
487.121874	-3.006200	3.759400	-11.300000	23.761844	0.001032	20.830684
488.121490	-3.003600	3.759100	-11.290000	23.747685	0.001032	20.837824
489.122898	-2.981400	3.760200	-11.210000	23.755556	0.001032	20.809206
490.122971	-3.005000	3.758000	-11.292000	23.748582	0.001033	20.820706
491.123205	-3.006300	3.758800	-11.299000	23.799812	0.001034	20.837457
492.126772	-3.035500	3.756800	-11.402000	23.766758	0.001032	20.834188
493.124918	-2.998800	3.758100	-11.269000	23.766009	0.001034	20.838179
494.126961	-2.997300	3.757900	-11.263000	23.804693	0.001031	20.841402
495.128762	-3.008500	3.756400	-11.300000	23.811486	0.001033	20.835886
496.126888	-3.004300	3.757300	-11.287000	23.824706	0.001034	20.827331
497.125065	-3.004400	3.756000	-11.283000	23.800391	0.001034	20.843253
498.128683	-3.007500	3.756700	-11.297000	23.786479	0.001034	20.812236
499.130243	-2.999100	3.756300	-11.265000	23.775829	0.001036	20.841385
500.123818	-3.012800	3.755300	-11.312000	23.798080	0.001033	20.865117
501.124083	-2.983500	3.756200	-11.205000	23.807369	0.001032	20.841715
502.123040	-3.011400	3.754900	-11.307000	23.772847	0.001034	20.865422
503.126117	-2.999300	3.755200	-11.262000	23.776157	0.001033	20.851672
504.128688	-2.989200	3.754600	-11.220000	23.775388	0.001033	20.831461
505.127835	-3.002800	3.754400	-11.272000	23.796969	0.001032	20.857365
506.127192	-2.987600	3.754800	-11.217000	23.812899	0.001032	20.846786
507.127365	-2.986300	3.753700	-11.208000	23.809988	0.001032	20.871366
508.128823	-3.014400	3.753700	-11.314000	23.829874	0.001032	20.835831
509.129326	-2.976600	3.753600	-11.172000	23.823081	0.001033	20.866951
510.128389	-3.025200	3.751400	-11.346000	23.796779	0.001033	20.840106
511.129123	-3.008100	3.751100	-11.283000	23.818257	0.001034	20.855477
512.128235	-2.990600	3.752300	-11.221000	23.789315	0.001035	20.853485
513.127768	-3.004100	3.751700	-11.269000	23.786676	0.001035	20.835192
514.128290	-2.993400	3.752000	-11.230000	23.796751	0.001035	20.842922
515.128299	-2.998400	3.750300	-11.244000	23.792453	0.001035	20.845726
516.134709	-2.991300	3.749900	-11.216000	23.809901	0.001034	20.859426
517.129120	-2.987900	3.751400	-11.207000	23.807265	0.001036	20.859628
518.134007	-3.005900	3.750200	-11.271000	23.818240	0.001036	20.856882
519.130949	-2.990300	3.749900	-11.212000	23.842238	0.001035	20.862452
520.129821	-3.005400	3.750100	-11.270000	23.843003	0.001036	20.880761
521.131940	-3.005000	3.749800	-11.268000	23.865384	0.001034	20.866220
522.133274	-3.006700	3.749700	-11.273000	23.885519	0.001035	20.857488
523.129265	-3.022200	3.747700	-11.326000	23.894282	0.001034	20.866273
524.132516	-3.000300	3.748800	-11.246000	23.870865	0.001035	20.857492
525.129779	-3.012400	3.747000	-11.286000	23.891769	0.001036	20.862332
526.131101	-3.033900	3.745900	-11.364000	23.902727	0.001035	20.870000
527.130278	-3.001600	3.747100	-11.247000	23.910338	0.001035	20.872416
528.132360	-3.002800	3.746900	-11.249000	23.915465	0.001033	20.854799
529.133344	-2.994200	3.746500	-11.217000	23.915568	0.001034	20.886668
530.131830	-3.000500	3.747300	-11.242000	23.926345	0.001036	20.851484
531.134096	-3.005400	3.745900	-11.257000	23.938984	0.001035	20.861313
532.135358	-2.996700	3.745100	-11.221000	23.920744	0.001033	20.897074
533.132713	-2.997700	3.745500	-11.227000	23.902879	0.001035	20.874420
534.134909	-2.991100	3.745800	-11.201000	23.877694	0.001034	20.875244
535.132895	-3.002500	3.745100	-11.242000	23.864454	0.001033	20.869080
536.133098	-3.023400	3.744100	-11.319000	23.874943	0.001036	20.876752
537.137528	-2.960100	3.745700	-11.086000	23.881559	0.001033	20.866318
538.133584	-2.989200	3.744800	-11.193000	23.894375	0.001034	20.863523
539.135107	-3.005500	3.744200	-11.253000	23.891119	0.001035	20.874955
540.134834	-2.987900	3.744800	-11.188000	23.916328	0.001035	20.880319
541.134874	-2.986700	3.743800	-11.181000	23.943831	0.001033	20.887035
542.133657	-2.998900	3.742300	-11.222000	23.963940	0.001034	20.882545
543.139112	-3.004900	3.742400	-11.245000	23.976933	0.001034	20.890832
544.139247	-3.013500	3.742900	-11.277000	23.985965	0.001032	20.884717
545.139163	-2.996600	3.742400	-11.214000	23.973051	0.001034	20.872242
546.138850	-3.006400	3.741800	-11.248000	23.953546	0.001035	20.882553
547.141525	-3.003300	3.742000	-11.237000	23.973733	0.001036	20.877667
548.139781	-3.006200	3.740900	-11.245000	23.966218	0.001034	20.888147
549.138376	-2.989000	3.740900	-11.180000	23.989386	0.001034	20.887673
550.138402	-2.999800	3.740400	-11.218000	23.998994	0.001034	20.895885
551.138640	-3.007100	3.740200	-11.246000	24.014773	0.001036	20.884684
552.140320	-3.008700	3.739200	-11.249000	23.984715	0.001033	20.878248
553.140097	-3.008700	3.740700	-11.254000	24.023115	0.001034	20.887833
554.140437	-2.983300	3.740300	-11.156000	24.030803	0.001035	20.896017
555.141170	-2.982000	3.740500	-11.153000	24.036654	0.001036	20.884816
556.144880	-2.994900	3.739500	-11.199000	24.045637	0.001038	20.877230
557.142189	-2.991500	3.739400	-11.186000	24.055845	0.001037	20.883199
558.142665	-3.002200	3.736800	-11.218000	24.056765	0.001039	20.868003
559.145548	-3.000400	3.737800	-11.213000	24.031185	0.001036	20.872220
560.142585	-2.991100	3.738300	-11.179000	24.009461	0.001038	20.875564
561.143944	-3.000800	3.737100	-11.214000	24.015632	0.001038	20.863736
562.146825	-2.995800	3.738100	-11.197000	24.029467	0.001038	20.900840
563.144683	-2.982800	3.737100	-11.145000	24.033401	0.001040	20.893407
564.144373	-3.018000	3.735000	-11.271000	23.991075	0.001039	20.878936
565.146681	-2.994200	3.735200	-11.183000	24.016056	0.001039	20.874117
566.143564	-3.004800	3.736200	-11.225000	24.030289	0.001038	20.889338
567.143944	-3.002200	3.734200	-11.209000	24.065596	0.001040	20.875436
568.144741	-2.977700	3.736000	-11.123000	24.054821	0.001038	20.865579
569.144381	-3.007400	3.733600	-11.227000	24.094563	0.001039	20.863711
570.145151	-3.018900	3.733400	-11.268000	24.085079	0.001039	20.883121
571.145378	-2.993500	3.734400	-11.177000	24.104561	0.001039	20.874212
572.145829	-3.010800	3.732600	-11.236000	24.117700	0.001038	20.885492
573.144776	-2.992000	3.733400	-11.170000	24.095924	0.001037	20.873610
574.146111	-2.993500	3.733500	-11.175000	24.076487	0.001037	20.857436
575.145480	-3.026200	3.732000	-11.292000	24.068104	0.001038	20.881270
576.145662	-3.007400	3.731700	-11.221000	24.054887	0.001038	20.864697
577.148060	-2.996200	3.732700	-11.182000	24.066879	0.001038	20.864396
578.147898	-2.990700	3.731900	-11.159000	24.093203	0.001038	20.846226
579.151861	-2.975700	3.732000	-11.104000	24.121265	0.001037	20.861094
580.146846	-2.997200	3.730900	-11.180000	24.104595	0.001038	20.886572
581.147005	-2.999100	3.730100	-11.185000	24.135201	0.001036	20.864639
582.145515	-2.995500	3.731700	-11.177000	24.142041	0.001036	20.876241
583.144621	-3.000500	3.730500	-11.192000	24.140972	0.001037	20.849092
584.147144	-3.000400	3.729500	-11.189000	24.084114	0.001037	20.856076
585.147558	-3.012300	3.729700	-11.235000	24.085553	0.001035	20.868424
586.147909	-3.017400	3.729400	-11.252000	24.094186	0.001036	20.870444
587.148278	-3.007900	3.729700	-11.218000	24.065223	0.001036	20.853252
588.148716	-3.005300	3.729900	-11.208000	24.050567	0.001037	20.859416
589.147892	-3.010000	3.728000	-11.219000	24.038443	0.001036	20.836827
590.149841	-2.983900	3.729300	-11.127000	24.039590	0.001038	20.855520
591.151665	-2.994500	3.728300	-11.164000	24.043767	0.001036	20.840269
592.149902	-3.019000	3.726900	-11.251000	24.048396	0.001035	20.866248
593.151435	-3.001300	3.728200	-11.188000	24.071735	0.001036	20.872584
594.151523	-3.021300	3.726900	-11.259000	24.078552	0.001034	20.868041
595.153167	-3.007100	3.726300	-11.204000	24.102836	0.001035	20.847827
596.152230	-3.004800	3.724900	-11.192000	24.089898	0.001033	20.859981
597.152918	-2.983800	3.726900	-11.120000	24.104624	0.001035	20.834448
598.155976	-2.990800	3.726100	-11.143000	24.064566	0.001035	20.838843
599.153199	-2.989100	3.726000	-11.136000	24.046402	0.001034	20.852869
600.156627	-3.008900	3.725200	-11.208000	24.041177	0.001033	20.857111
601.153353	-3.021900	3.723800	-11.252000	24.090840	0.001034	20.858081
602.152262	-3.003400	3.723800	-11.183000	24.089549	0.001035	20.844933
603.153085	-2.999400	3.724600	-11.170000	24.117590	0.001033	20.835598
604.156670	-3.012100	3.724300	-11.216000	24.111716	0.001036	20.842034
605.152654	-2.985900	3.724300	-11.119000	24.126819	0.001035	20.848647
606.153375	-3.022900	3.722500	-11.252000	24.107038	0.001034	20.850144
607.155360	-3.019300	3.722400	-11.238000	24.089023	0.001032	20.848672
608.154132	-3.014500	3.722800	-11.220000	24.090491	0.001035	20.843506
609.153074	-3.003800	3.721700	-11.179000	24.103379	0.001033	20.843630
610.153886	-3.003300	3.721800	-11.176000	24.094495	0.001032	20.842781
611.154028	-2.977400	3.722900	-11.083000	24.129261	0.001031	20.836872
612.153026	-2.976500	3.724300	-11.084000	24.138264	0.001031	20.831203
613.156975	-2.986400	3.723100	-11.118000	24.145578	0.001035	20.843279
614.155970	-3.007800	3.720900	-11.190000	24.177058	0.001033	20.847827
615.153654	-2.973300	3.722100	-11.066000	24.168471	0.001032	20.845852
616.156619	-3.006000	3.720800	-11.184000	24.192954	0.001031	20.824891
617.156778	-2.989600	3.722400	-11.128000	24.180441	0.001032	20.846005
618.155087	-3.006100	3.720400	-11.183000	24.176433	0.001033	20.832028
619.157867	-2.966500	3.721800	-11.039000	24.174768	0.001031	20.845530
620.156631	-2.988200	3.721500	-11.118000	24.213408	0.001031	20.814588
621.156724	-2.991000	3.720100	-11.126000	24.174694	0.001031	20.836922
622.157154	-2.985500	3.720200	-11.105000	24.168552	0.001032	20.827443
623.158459	-2.979200	3.719600	-11.080000	24.176318	0.001032	20.833809
624.157453	-2.988800	3.720200	-11.118000	24.180844	0.001029	20.818434
625.158057	-3.021000	3.716900	-11.228000	24.185748	0.001031	20.830465
626.162173	-2.996600	3.718500	-11.141000	24.218863	0.001030	20.821481
627.157239	-2.992400	3.717600	-11.124000	24.183388	0.001029	20.827624
628.159587	-2.989700	3.717200	-11.113000	24.207222	0.001029	20.830667
629.159389	-3.011300	3.716000	-11.189000	24.239843	0.001028	20.839679
630.158400	-3.011000	3.717100	-11.191000	24.221058	0.001031	20.834588
631.157543	-3.012400	3.715900	-11.192000	24.212031	0.001030	20.812732
632.158941	-2.998300	3.717100	-11.143000	24.243731	0.001029	20.845476
633.159188	-3.016900	3.715500	-11.207000	24.256297	0.001028	20.825364
634.158577	-3.009900	3.715600	-11.183000	24.280828	0.001029	20.822944
635.159877	-2.999400	3.714900	-11.141000	24.266597	0.001030	20.827162
636.164342	-3.010000	3.716000	-11.184000	24.259412	0.001027	20.818532
637.161036	-3.004400	3.713800	-11.157000	24.235403	0.001029	20.827640
638.159342	-3.011600	3.713800	-11.183000	24.224983	0.001029	20.808653
639.161833	-3.019400	3.712100	-11.208000	24.218463	0.001029	20.809701
640.162462	-3.008800	3.714400	-11.175000	24.195127	0.001027	20.828019
641.160342	-2.988900	3.714000	-11.099000	24.218644	0.001027	20.834537
642.164049	-3.013100	3.713400	-11.186000	24.222224	0.001028	20.817266
643.163710	-2.985700	3.712700	-11.084000	24.249818	0.001028	20.830245
644.161932	-3.011300	3.712500	-11.178000	24.261734	0.001027	20.813749
645.169119	-2.957900	3.713800	-10.983000	24.240043	0.001027	20.837984
646.163028	-2.994500	3.712200	-11.115000	24.263456	0.001026	20.823537
647.163421	-3.000700	3.711700	-11.137000	24.256469	0.001025	20.811312
648.165562	-3.003400	3.710300	-11.142000	24.241543	0.001027	20.811514
649.162402	-2.985200	3.711700	-11.079000	24.247964	0.001027	20.826489
650.162672	-3.006600	3.711100	-11.155000	24.288796	0.001027	20.789212
651.162446	-3.003300	3.710000	-11.141000	24.263990	0.001027	20.817909
652.164918	-2.996800	3.710100	-11.118000	24.249111	0.001025	20.803458
653.163823	-3.005200	3.709200	-11.146000	24.242653	0.001027	20.826377
654.163735	-3.012800	3.710100	-11.176000	24.242702	0.001027	20.799874
655.164597	-2.999300	3.708600	-11.122000	24.237650	0.001025	20.798600
656.165264	-2.981400	3.708600	-11.055000	24.219543	0.001026	20.806517
657.164476	-2.996800	3.709000	-11.114000	24.246414	0.001025	20.793166
658.165351	-3.019200	3.707300	-11.190000	24.216086	0.001025	20.812058
659.164736	-3.021000	3.708500	-11.202000	24.262814	0.001025	20.809617
660.164808	-3.023400	3.707200	-11.207000	24.246467	0.001025	20.800806
661.166208	-3.031800	3.705600	-11.232000	24.264113	0.001024	20.796221
662.167337	-2.981800	3.707900	-11.055000	24.269584	0.001023	20.805502
663.166356	-2.966600	3.708700	-11.002000	24.295335	0.001026	20.810945
664.169673	-2.971800	3.707300	-11.016000	24.303474	0.001025	20.768373
665.165774	-3.002900	3.706900	-11.130000	24.281410	0.001025	20.820683
666.166510	-2.984400	3.706300	-11.060000	24.293255	0.001023	20.792737
667.166608	-2.991400	3.705100	-11.082000	24.323930	0.001024	20.786998
668.168890	-3.001900	3.704700	-11.120000	24.310798	0.001022	20.795161
669.167829	-2.989200	3.705600	-11.076000	24.319409	0.001023	20.790997
670.169181	-3.008300	3.705200	-11.145000	24.333396	0.001023	20.778001
671.173109	-2.998700	3.704000	-11.107000	24.325936	0.001024	20.776207
672.169436	-3.006400	3.704000	-11.136000	24.340469	0.001024	20.787941
673.171175	-2.983600	3.705600	-11.055000	24.348159	0.001023	20.805613
674.179512	-3.007200	3.703800	-11.137000	24.397413	0.001025	20.799548
675.171652	-3.015700	3.704300	-11.170000	24.375327	0.001022	20.794934
676.171352	-3.004600	3.703200	-11.124000	24.394734	0.001024	20.778842
677.179155	-3.014000	3.703500	-11.162000	24.406159	0.001024	20.778924
678.172680	-3.009900	3.703900	-11.147000	24.416035	0.001022	20.792625
679.174657	-2.996700	3.703700	-11.096000	24.413701	0.001024	20.781748
680.174945	-2.985400	3.703400	-11.055000	24.419376	0.001023	20.786968
681.174983	-2.985200	3.702900	-11.053000	24.457116	0.001023	20.789269
682.174419	-2.978300	3.703200	-11.029000	24.439157	0.001023	20.786898
683.177294	-2.979100	3.702800	-11.030000	24.394462	0.001025	20.798010
684.176864	-3.000000	3.701100	-11.103000	24.398297	0.001023	20.766295
685.177069	-2.998300	3.702200	-11.098000	24.385108	0.001023	20.790048
686.175447	-3.005100	3.700000	-11.118000	24.373695	0.001022	20.785236
687.175897	-3.008900	3.699500	-11.130000	24.374467	0.001022	20.763252
688.176431	-3.007100	3.700300	-11.127000	24.383271	0.001021	20.791524
689.176139	-3.013800	3.698700	-11.145000	24.360637	0.001021	20.760283
690.176764	-2.990200	3.700000	-11.063000	24.383719	0.001021	20.775378
691.179647	-2.992800	3.699600	-11.071000	24.394627	0.001021	20.787269
692.175744	-2.985800	3.699600	-11.045000	24.424152	0.001021	20.770422
693.178163	-3.003400	3.699000	-11.108000	24.429129	0.001020	20.767354
694.178968	-3.008700	3.698800	-11.128000	24.449554	0.001020	20.774096
695.178397	-2.986000	3.697900	-11.041000	24.452238	0.001021	20.774417
696.176829	-2.980500	3.700000	-11.027000	24.455522	0.001021	20.780557
697.175802	-3.002700	3.697500	-11.101000	24.438713	0.001021	20.749468
698.178086	-2.991600	3.698000	-11.062000	24.455526	0.001019	20.778664
699.176965	-3.015300	3.696500	-11.144000	24.452468	0.001018	20.764217
700.178301	-2.981400	3.695900	-11.018000	24.459956	0.001018	20.777893
701.180608	-3.001700	3.696700	-11.094000	24.479407	0.001018	20.772277
702.178853	-2.986100	3.696500	-11.037000	24.483019	0.001018	20.764996
703.178547	-2.998500	3.695200	-11.080000	24.489685	0.001018	20.752243
704.182709	-2.987800	3.697000	-11.045000	24.497045	0.001015	20.782387
705.180702	-2.982600	3.695400	-11.021000	24.497690	0.001017	20.786354
706.179876	-3.005600	3.693800	-11.101000	24.528635	0.001018	20.750544
707.187019	-3.014500	3.694200	-11.135000	24.505531	0.001016	20.755814
708.182437	-3.011200	3.693500	-11.120000	24.471632	0.001016	20.775382
709.180120	-2.992300	3.693800	-11.052000	24.500206	0.001016	20.759953
710.184745	-3.005600	3.693400	-11.100000	24.505034	0.001016	20.781868
711.182344	-3.006100	3.694300	-11.104000	24.517798	0.001016	20.775708
712.182898	-2.976800	3.693200	-10.992000	24.502721	0.001014	20.782866
713.184687	-3.017200	3.691900	-11.138000	24.517996	0.001015	20.786812
714.184577	-2.983500	3.692500	-11.016000	24.535304	0.001016	20.772884
715.183117	-3.011800	3.691100	-11.115000	24.558313	0.001015	20.767519
716.183021	-2.997300	3.692400	-11.066000	24.506703	0.001017	20.756515
717.182612	-3.010000	3.691500	-11.111000	24.487651	0.001014	20.763953
718.183188	-2.990100	3.692200	-11.039000	24.485263	0.001014	20.778627
719.181351	-2.981100	3.691200	-11.003000	24.469914	0.001013	20.763701
720.184894	-2.994400	3.690000	-11.049000	24.442210	0.001014	20.757719
721.184214	-3.012000	3.688100	-11.108000	24.423725	0.001014	20.762407
722.183312	-2.992900	3.690500	-11.044000	24.395819	0.001012	20.777085
723.182360	-3.001300	3.689900	-11.073000	24.414601	0.001012	20.774117
724.182963	-3.022600	3.688700	-11.149000	24.414453	0.001012	20.763062
725.182910	-3.002500	3.689600	-11.076000	24.425693	0.001013	20.748734
726.183418	-3.000700	3.688800	-11.068000	24.394524	0.001012	20.770096
727.183551	-2.977900	3.688800	-10.984000	24.394302	0.001014	20.753752
728.188138	-3.005800	3.688700	-11.086000	24.388754	0.001012	20.776636
729.185467	-3.014400	3.688500	-11.117000	24.396193	0.001009	20.754226
730.189458	-3.000800	3.688100	-11.066000	24.426519	0.001009	20.732493
731.193774	-3.005100	3.688000	-11.082000	24.455427	0.001012	20.760073
732.188326	-2.997700	3.687700	-11.054000	24.450623	0.001011	20.764736
733.190832	-3.020100	3.686900	-11.134000	24.459553	0.001010	20.754729
734.191117	-3.001200	3.687400	-11.064000	24.489878	0.001011	20.736789
735.185457	-3.011700	3.685800	-11.099000	24.504229	0.001010	20.746920
736.188975	-3.001000	3.687400	-11.064000	24.508679	0.001007	20.748540
737.189791	-3.004500	3.685300	-11.071000	24.512785	0.001009	20.755979
738.188999	-2.962700	3.687200	-10.922000	24.510726	0.001009	20.748223
739.187721	-3.003000	3.686700	-11.069000	24.525475	0.001010	20.741683
740.194026	-3.001100	3.686000	-11.061000	24.544801	0.001008	20.766291
741.188880	-3.001200	3.685800	-11.060000	24.554208	0.001010	20.751546
742.188076	-2.997400	3.685700	-11.046000	24.560277	0.001008	20.747679
743.190773	-3.000100	3.684600	-11.054000	24.586396	0.001008	20.751600
744.191216	-3.011000	3.683200	-11.089000	24.577363	0.001007	20.746330
745.189549	-3.020700	3.684500	-11.129000	24.599956	0.001008	20.757620
746.189588	-3.011200	3.683700	-11.091000	24.589679	0.001006	20.761533
747.188950	-2.988700	3.683300	-11.007000	24.597190	0.001007	20.751526
748.191469	-3.004100	3.683200	-11.064000	24.608507	0.001006	20.764304
749.190790	-3.009500	3.681800	-11.079000	24.615998	0.001006	20.725825
750.192660	-2.998800	3.682800	-11.044000	24.632015	0.001005	20.733837
751.192594	-3.004600	3.681600	-11.060000	24.612937	0.001005	20.739350
752.198023	-3.013500	3.681900	-11.093000	24.624985	0.001004	20.754284
753.193530	-3.009800	3.681700	-11.080000	24.637788	0.001004	20.757649
754.194402	-3.005400	3.682000	-11.064000	24.611852	0.001006	20.744900
755.194510	-2.998700	3.680800	-11.036000	24.638738	0.001005	20.729677
756.197521	-3.002900	3.681200	-11.052000	24.611803	0.001006	20.752437
757.198633	-2.998800	3.681600	-11.040000	24.585985	0.001004	20.746446
758.195056	-3.028600	3.678600	-11.139000	24.600490	0.001002	20.721170
759.199346	-3.009100	3.679400	-11.071000	24.581716	0.001004	20.736946
760.197881	-2.986900	3.680400	-10.992000	24.548804	0.001003	20.758453
761.196451	-3.019900	3.679400	-11.111000	24.532889	0.001004	20.753390
762.200334	-2.994000	3.678700	-11.012000	24.605269	0.001003	20.736398
763.196901	-2.993100	3.680600	-11.013000	24.602755	0.001002	20.730081
764.196010	-2.959300	3.679800	-10.888000	24.599997	0.001002	20.724943
765.202735	-3.018000	3.677800	-11.099000	24.598309	0.001002	20.735103
766.198747	-2.996800	3.678300	-11.022000	24.600252	0.001002	20.728518
767.197411	-2.990600	3.678300	-10.999000	24.588562	0.001001	20.739074
768.200911	-3.007000	3.677500	-11.057000	24.573390	0.001001	20.737602
769.198081	-2.985800	3.678600	-10.982000	24.586100	0.001001	20.722379
770.198326	-3.001600	3.676500	-11.034000	24.573592	0.001000	20.743968
771.204618	-3.014200	3.677100	-11.082000	24.556884	0.001001	20.739058
772.207130	-3.002500	3.675400	-11.035000	24.583943	0.001001	20.733965
773.202461	-3.021800	3.674900	-11.103000	24.588492	0.001000	20.730469
774.206552	-2.993000	3.675900	-11.001000	24.595210	0.000999	20.720140
775.204335	-2.985200	3.676000	-10.973000	24.552778	0.000999	20.719765
776.203095	-3.005100	3.674300	-11.040000	24.576362	0.000998	20.740109
777.208904	-3.001600	3.674200	-11.027000	24.616829	0.001000	20.738988
778.204024	-2.994000	3.675000	-11.002000	24.598675	0.000998	20.716978
779.205193	-3.010000	3.675200	-11.061000	24.593107	0.000999	20.714710
780.208853	-2.970800	3.675400	-10.918000	24.570892	0.000998	20.729405
781.210266	-2.980800	3.675600	-10.955000	24.585123	0.000998	20.743210
782.212337	-2.995300	3.674000	-11.003000	24.576099	0.000996	20.734630
783.207597	-3.013300	3.674300	-11.070000	24.571846	0.000997	20.735578
784.207961	-3.002000	3.672500	-11.024000	24.591069	0.000998	20.723571
785.209193	-3.024400	3.670800	-11.101000	24.616517	0.000999	20.737252
786.209786	-2.974600	3.672600	-10.923000	24.589586	0.000998	20.743421
787.209364	-2.987800	3.671500	-10.968000	24.604609	0.000997	20.712974
788.210161	-3.007900	3.671800	-11.043000	24.580611	0.000998	20.720190
789.212424	-3.002600	3.672500	-11.025000	24.592051	0.000996	20.734989
790.210771	-2.977100	3.671500	-10.928000	24.593748	0.000997	20.740959
791.210675	-2.996800	3.671500	-11.002000	24.598577	0.000996	20.725889
792.210438	-2.987900	3.670900	-10.968000	24.589697	0.000995	20.740213
793.212222	-2.985000	3.671400	-10.958000	24.582880	0.000995	20.716776
794.210686	-3.018900	3.669600	-11.076000	24.600821	0.000997	20.739046
795.210349	-3.012000	3.669400	-11.051000	24.622927	0.000995	20.729934
796.210688	-2.990100	3.670500	-10.975000	24.578467	0.000994	20.746963
797.213153	-2.978400	3.669800	-10.929000	24.595705	0.000994	20.747664
798.215371	-3.002000	3.668600	-11.011000	24.558249	0.000994	20.735212
799.211555	-3.002400	3.668900	-11.014000	24.543205	0.000995	20.746671
800.210775	-3.030500	3.667200	-11.112000	24.518832	0.000994	20.740709
801.214414	-2.999400	3.669200	-11.004000	24.500430	0.000992	20.729357
802.210568	-2.984300	3.668400	-10.946000	24.507149	0.000994	20.739418
803.216074	-3.006900	3.666800	-11.023000	24.506032	0.000991	20.727391
804.217293	-2.983500	3.668600	-10.944000	24.518023	0.000992	20.735629
805.215446	-3.000700	3.665900	-11.000000	24.552497	0.000993	20.722327
806.217951	-2.994700	3.667900	-10.983000	24.575460	0.000991	20.734937
807.214151	-2.969700	3.667500	-10.889000	24.597025	0.000992	20.733341
808.213680	-3.010000	3.667200	-11.036000	24.604566	0.000991	20.716250
809.217907	-3.002500	3.666600	-11.008000	24.651199	0.000990	20.717050
810.213125	-3.000600	3.666000	-10.999000	24.690447	0.000990	20.722295
811.212269	-3.012400	3.665700	-11.042000	24.706389	0.000990	20.738294
812.215927	-3.003400	3.666700	-11.011000	24.687489	0.000990	20.725965
813.217683	-3.028600	3.664000	-11.096000	24.704159	0.000990	20.727520
814.214996	-3.001400	3.664800	-10.999000	24.714057	0.000990	20.715166
815.215402	-2.989400	3.666100	-10.958000	24.733133	0.000989	20.728147
816.219056	-3.025200	3.663000	-11.080000	24.753903	0.000990	20.727178
817.216029	-2.989900	3.665000	-10.957000	24.729456	0.000989	20.717818
818.215249	-2.992900	3.664700	-10.967000	24.736174	0.000989	20.734518
819.219520	-3.025300	3.662500	-11.079000	24.749531	0.000986	20.749345
820.215865	-2.992300	3.665000	-10.966000	24.705943	0.000987	20.743536
821.218876	-3.014000	3.662400	-11.037000	24.682987	0.000987	20.729982
822.218861	-3.004000	3.662400	-11.001000	24.666699	0.000987	20.749675
823.218536	-2.979900	3.662800	-10.914000	24.641639	0.000987	20.740650
824.217843	-2.995100	3.662300	-10.967000	24.602094	0.000986	20.727047
825.222553	-3.000800	3.662500	-10.990000	24.607267	0.000984	20.754525
826.223701	-3.021000	3.661700	-11.060000	24.607917	0.000985	20.718664
827.221090	-2.991300	3.661900	-10.953000	24.576408	0.000986	20.708859
828.225782	-3.009300	3.659800	-11.012000	24.566956	0.000983	20.750587
829.221856	-2.994800	3.662000	-10.966000	24.593223	0.000985	20.743277
830.222281	-2.989900	3.660200	-10.942000	24.626581	0.000983	20.729332
831.222995	-2.969700	3.661300	-10.872000	24.629465	0.000984	20.743133
832.223782	-2.981400	3.661700	-10.915000	24.626260	0.000984	20.731382
833.224429	-2.982900	3.661400	-10.921000	24.666499	0.000983	20.713911
834.224673	-2.991900	3.659700	-10.948000	24.712165	0.000982	20.731287
835.225432	-3.001300	3.659500	-10.982000	24.709552	0.000983	20.736726
836.226150	-2.998400	3.660200	-10.974000	24.735991	0.000982	20.737179
837.226161	-3.009200	3.658800	-11.009000	24.751584	0.000981	20.742869
838.229789	-3.024100	3.658100	-11.061000	24.762702	0.000981	20.722731
839.225432	-3.006100	3.657600	-10.994000	24.811769	0.000982	20.744948
840.227165	-2.983000	3.657900	-10.910000	24.810273	0.000982	20.749137
841.231700	-2.973400	3.659900	-10.881000	24.844619	0.000983	20.708688
842.228446	-3.009100	3.657000	-11.003000	24.826995	0.000982	20.720398
843.228483	-3.005800	3.657600	-10.993000	24.864343	0.000979	20.737494
844.231686	-2.992300	3.656800	-10.940000	24.841021	0.000980	20.739217
845.228384	-2.980800	3.657200	-10.901000	24.865395	0.000982	20.714841
846.229213	-3.018500	3.655900	-11.035000	24.846547	0.000981	20.748557
847.233315	-2.999000	3.656800	-10.966000	24.827373	0.000981	20.731210
848.226971	-2.999500	3.656800	-10.967000	24.812284	0.000979	20.731239
849.239733	-3.002800	3.655200	-10.975000	24.781101	0.000980	20.755896
850.233695	-3.009200	3.654800	-10.996000	24.769219	0.000979	20.737334
851.228989	-2.995700	3.655200	-10.948000	24.760464	0.000979	20.722857
852.229278	-3.007000	3.654100	-10.986000	24.783595	0.000980	20.726630
853.237398	-2.990200	3.655700	-10.930000	24.813114	0.000979	20.755782
854.232511	-3.005100	3.653800	-10.979000	24.814507	0.000980	20.746748
855.229186	-2.997200	3.654800	-10.953000	24.850064	0.000978	20.752087
856.229715	-3.004900	3.652600	-10.973000	24.852849	0.000977	20.735441
857.230601	-3.006200	3.653600	-10.982000	24.810029	0.000979	20.742727
858.233073	-2.992800	3.653100	-10.932000	24.814108	0.000980	20.738761
859.231038	-3.013000	3.652300	-11.002000	24.806623	0.000977	20.752586
860.231814	-3.011300	3.651500	-10.994000	24.856078	0.000978	20.745321
861.231747	-2.995100	3.652400	-10.939000	24.855684	0.000977	20.755357
862.233100	-3.009300	3.651400	-10.987000	24.845910	0.000977	20.739383
863.235228	-2.985500	3.651600	-10.901000	24.837834	0.000977	20.750244
864.235182	-3.005000	3.651500	-10.973000	24.879109	0.000973	20.758004
865.235378	-2.990800	3.651100	-10.918000	24.864537	0.000975	20.761872
866.233131	-3.018600	3.650100	-11.018000	24.859936	0.000976	20.757253
867.236989	-2.996800	3.650800	-10.938000	24.844370	0.000976	20.764391
868.231889	-2.998000	3.649800	-10.940000	24.857052	0.000976	20.755782
869.231773	-3.000700	3.650600	-10.953000	24.845118	0.000973	20.758029
870.234473	-3.013900	3.648700	-10.996000	24.820846	0.000972	20.732246
871.233301	-3.010100	3.649400	-10.984000	24.831244	0.000973	20.755959
872.232059	-2.998900	3.647700	-10.939000	24.848302	0.000972	20.752215
873.231920	-3.004000	3.647500	-10.954000	24.806352	0.000972	20.745676
874.232064	-3.003900	3.646800	-10.953000	24.791932	0.000972	20.758705
875.232242	-3.011400	3.648600	-10.987000	24.772014	0.000972	20.760528
876.232308	-2.985500	3.648500	-10.891000	24.793053	0.000971	20.755563
877.232564	-3.006700	3.648000	-10.967000	24.763538	0.000971	20.762453
878.234880	-3.017900	3.646500	-11.004000	24.788082	0.000970	20.754368
879.234365	-3.011100	3.647200	-10.980000	24.808201	0.000971	20.742790
880.237135	-2.969100	3.648100	-10.830000	24.825633	0.000972	20.757914
881.235248	-3.007100	3.646500	-10.963000	24.833221	0.000969	20.764581
882.234866	-2.995100	3.647500	-10.923000	24.863827	0.000969	20.756891
883.239532	-3.003300	3.647300	-10.953000	24.873079	0.000969	20.769022
884.235632	-2.981700	3.645500	-10.869000	24.905681	0.000968	20.758121
885.235806	-2.996800	3.646400	-10.926000	24.899062	0.000967	20.779454
886.237581	-2.978800	3.645300	-10.858000	24.887424	0.000968	20.763979
887.234299	-2.996800	3.645300	-10.924000	24.880741	0.000969	20.764858
888.235063	-3.012700	3.643300	-10.975000	24.864801	0.000966	20.769249
889.238093	-3.000300	3.645000	-10.935000	24.895037	0.000966	20.747911
890.235248	-2.984400	3.644000	-10.874000	24.874274	0.000966	20.768800
891.234855	-3.011200	3.643100	-10.969000	24.852197	0.000966	20.769876
892.240126	-3.010900	3.642600	-10.965000	24.871823	0.000967	20.782460
893.235924	-3.003200	3.642400	-10.938000	24.872714	0.000965	20.774346
894.239051	-2.980400	3.643700	-10.858000	24.875430	0.000964	20.760950
895.237782	-3.016700	3.642100	-10.986000	24.914370	0.000965	20.754514
896.240473	-2.990300	3.644200	-10.896000	24.925885	0.000964	20.773658
897.238737	-2.994900	3.643000	-10.909000	24.885827	0.000964	20.781817
898.238929	-3.005700	3.643400	-10.950000	24.890655	0.000964	20.763903
899.240896	-3.002100	3.643200	-10.936000	24.907884	0.000965	20.764125
900.238177	-3.031900	3.640900	-11.037000	24.920993	0.000964	20.754997
901.239888	-2.979900	3.641500	-10.850000	24.915324	0.000966	20.782498
902.247598	-2.979100	3.642300	-10.850000	24.914925	0.000964	20.773089
903.242290	-2.983200	3.641400	-10.862000	24.916942	0.000962	20.769424
904.243379	-2.995100	3.640100	-10.902000	24.928437	0.000963	20.787125
905.242375	-2.986600	3.640100	-10.871000	24.907227	0.000962	20.762044
906.243433	-3.008800	3.639800	-10.950000	24.924933	0.000963	20.768435
907.242463	-3.002200	3.639500	-10.926000	24.953926	0.000963	20.766716
908.241798	-3.004800	3.640000	-10.937000	24.958355	0.000962	20.781118
909.241446	-2.995600	3.640100	-10.903000	24.985704	0.000962	20.764473
910.241072	-2.987900	3.639600	-10.873000	24.986329	0.000965	20.770316
911.241401	-3.000600	3.638600	-10.917000	24.976369	0.000961	20.770750
912.241773	-3.001300	3.640400	-10.924000	24.998168	0.000962	20.781725
913.250685	-3.024900	3.636300	-10.998000	24.978726	0.000963	20.775961
914.246207	-3.015000	3.637200	-10.964000	24.996677	0.000961	20.791608
915.246726	-2.983900	3.639100	-10.857000	24.968235	0.000960	20.782975
916.244219	-3.003800	3.637700	-10.925000	24.953689	0.000960	20.781651
917.253679	-2.996400	3.637200	-10.897000	24.938892	0.000958	20.777705
918.245532	-2.987500	3.636500	-10.861000	24.953118	0.000959	20.772069
919.245075	-3.011500	3.635700	-10.948000	24.929075	0.000961	20.788240
920.248494	-3.011700	3.635000	-10.947000	24.914681	0.000959	20.789440
921.251405	-2.995200	3.634100	-10.883000	24.917486	0.000956	20.786566
922.244946	-2.989300	3.635600	-10.867000	24.937524	0.000957	20.798143
923.246850	-2.989900	3.636300	-10.871000	24.915223	0.000957	20.794725
924.246556	-3.000800	3.635700	-10.909000	24.914273	0.000957	20.781918
925.247637	-3.003400	3.634200	-10.914000	24.906148	0.000957	20.797945
926.253331	-2.991800	3.634100	-10.872000	24.943637	0.000954	20.790053
927.249934	-3.009600	3.633900	-10.936000	24.978845	0.000954	20.793150
928.248046	-3.003500	3.632900	-10.910000	24.986826	0.000952	20.812066
929.248034	-3.014700	3.632100	-10.949000	24.986029	0.000952	20.787559
930.256746	-3.007800	3.632500	-10.924000	24.972424	0.000955	20.803300
931.260165	-3.008700	3.633300	-10.930000	24.981202	0.000953	20.789826
932.255833	-2.996500	3.632800	-10.884000	24.990674	0.000953	20.811188
933.256059	-2.984100	3.632800	-10.839000	24.973545	0.000952	20.798262
934.255188	-2.991600	3.632100	-10.865000	24.959098	0.000952	20.788503
935.248191	-2.994000	3.632100	-10.873000	24.944602	0.000951	20.807617
936.255245	-2.987600	3.632700	-10.852000	24.931251	0.000954	20.811287
937.249019	-2.983400	3.631000	-10.832000	24.990547	0.000951	20.788775
938.251101	-3.003300	3.630600	-10.902000	25.001156	0.000950	20.805588
939.251310	-3.001000	3.630800	-10.896000	25.020528	0.000950	20.812705
940.254611	-2.990400	3.630800	-10.856000	25.015583	0.000951	20.811534
941.250881	-3.006300	3.630800	-10.913000	25.021798	0.000949	20.812556
942.251025	-2.992700	3.629800	-10.861000	25.040043	0.000950	20.794835
943.253408	-2.993600	3.629500	-10.863000	25.025901	0.000947	20.805770
944.254206	-2.998600	3.628400	-10.879000	25.010485	0.000948	20.806891
945.255761	-3.002800	3.630800	-10.901000	25.002849	0.000951	20.807761
946.257938	-3.003000	3.629200	-10.898000	25.000039	0.000947	20.807786
947.255102	-3.000300	3.627700	-10.883000	24.982339	0.000947	20.817046
948.254032	-2.990400	3.628300	-10.850000	24.987934	0.000947	20.799903
949.253068	-2.995800	3.628000	-10.868000	24.988604	0.000948	20.819541
950.254059	-2.994400	3.627600	-10.861000	24.973783	0.000946	20.810354
951.252879	-3.006000	3.628100	-10.903000	24.955438	0.000946	20.812329
952.255528	-3.017600	3.625100	-10.937000	25.001333	0.000947	20.806240
953.253068	-3.026100	3.624800	-10.967000	25.012021	0.000946	20.812226
954.259548	-2.995900	3.627500	-10.866000	25.033475	0.000948	20.795829
955.254390	-3.001700	3.627000	-10.886000	25.085138	0.000945	20.806912
956.255449	-3.017300	3.625900	-10.939000	25.061742	0.000944	20.815195
957.255369	-2.994900	3.625400	-10.856000	25.086555	0.000945	20.818765
958.263318	-3.018500	3.623500	-10.935000	25.065969	0.000943	20.826549
959.257345	-2.983300	3.625200	-10.813000	25.066869	0.000944	20.807539
960.260787	-3.000600	3.624300	-10.874000	25.102167	0.000942	20.818316
961.260662	-3.005900	3.624200	-10.893000	25.117326	0.000941	20.828318
962.259606	-3.016800	3.623300	-10.930000	25.090284	0.000944	20.822983
963.261986	-3.027900	3.623200	-10.970000	25.114694	0.000943	20.820934
964.261149	-3.000400	3.622700	-10.868000	25.134974	0.000943	20.844137
965.261738	-2.997200	3.623600	-10.859000	25.141045	0.000940	20.826999
966.263522	-3.005600	3.624200	-10.892000	25.122822	0.000940	20.834309
967.259989	-3.014900	3.622400	-10.921000	25.108730	0.000940	20.823008
968.265126	-3.003200	3.621400	-10.875000	25.089064	0.000941	20.817491
969.267495	-2.984400	3.622100	-10.809000	25.107609	0.000939	20.835158
970.266967	-2.984100	3.622500	-10.809000	25.118172	0.000938	20.847659
971.263563	-3.033800	3.621000	-10.984000	25.149001	0.000938	20.833088
972.264833	-2.990200	3.621900	-10.830000	25.116686	0.000938	20.837158
973.268496	-2.984200	3.622000	-10.808000	25.102811	0.000938	20.823230
974.269284	-2.986600	3.622100	-10.817000	25.095800	0.000938	20.830891
975.265458	-3.011300	3.619900	-10.900000	25.071243	0.000935	20.836111
976.269273	-2.996100	3.621000	-10.848000	25.091081	0.000935	20.833266
977.265858	-3.002300	3.619500	-10.866000	25.135234	0.000936	20.842501
978.267809	-2.990000	3.620200	-10.824000	25.121335	0.000935	20.815747
979.267165	-2.989900	3.620700	-10.825000	25.133645	0.000934	20.844225
980.275546	-3.006800	3.618300	-10.878000	25.085142	0.000934	20.862864
981.269921	-3.018200	3.617400	-10.917000	25.077043	0.000935	20.856631
982.269390	-3.005900	3.617500	-10.872000	25.118358	0.000934	20.818448
983.273536	-2.980800	3.619300	-10.787000	25.123636	0.000935	20.833230
984.269214	-3.013400	3.617000	-10.897000	25.126043	0.000932	20.833749
985.269437	-3.007800	3.617600	-10.880000	25.128955	0.000932	20.855164
986.278719	-2.998800	3.618200	-10.850000	25.112030	0.000931	20.857613
987.268886	-3.012300	3.617600	-10.897000	25.147680	0.000932	20.852150
988.272251	-2.994000	3.617300	-10.829000	25.151705	0.000932	20.835803
989.274102	-2.990400	3.616600	-10.814000	25.167517	0.000929	20.852624
990.269889	-3.028900	3.614000	-10.944000	25.158897	0.000930	20.865781
991.268652	-2.994800	3.615000	-10.825000	25.193867	0.000930	20.849681
992.269835	-3.016100	3.615300	-10.903000	25.209260	0.000931	20.852332
993.270856	-3.020800	3.615000	-10.919000	25.219852	0.000930	20.865336
994.271585	-2.982600	3.615100	-10.780000	25.249232	0.000928	20.860694
995.272418	-2.992700	3.613800	-10.814000	25.250053	0.000928	20.842553
996.275011	-2.999700	3.613900	-10.840000	25.255774	0.000926	20.866788
997.277623	-2.998700	3.613300	-10.833000	25.272554	0.000927	20.854712
998.272421	-2.968300	3.614000	-10.727000	25.303723	0.000927	20.847126
999.282701	-2.996700	3.612600	-10.824000	25.310211	0.000925	20.858856
1000.277741	-3.009000	3.612800	-10.870000	25.302487	0.000926	20.861058
1001.275046	-3.016000	3.612000	-10.892000	25.334378	0.000926	20.849456
1002.272827	-2.993800	3.613300	-10.817000	25.340045	0.000926	20.866999
1003.273980	-3.016300	3.610600	-10.889000	25.346714	0.000925	20.849515
1004.273696	-2.987400	3.612100	-10.790000	25.315665	0.000923	20.866228
1005.276017	-2.993300	3.611000	-10.808000	25.299938	0.000924	20.848542
1006.274742	-3.001700	3.610100	-10.836000	25.253460	0.000925	20.866835
1007.273992	-2.980700	3.611500	-10.763000	25.233353	0.000924	20.842857
1008.274547	-3.009400	3.610800	-10.865000	25.233280	0.000922	20.853687
1009.274536	-3.016400	3.609400	-10.887000	25.261670	0.000924	20.885034
1010.277157	-2.981500	3.610700	-10.764000	25.276462	0.000923	20.862429
1011.276476	-3.014000	3.608300	-10.874000	25.241917	0.000923	20.873738
1012.281370	-2.989900	3.609300	-10.791000	25.232447	0.000923	20.867075
1013.276962	-3.000400	3.609800	-10.830000	25.200056	0.000920	20.871540
1014.277210	-2.992300	3.608600	-10.797000	25.231384	0.000921	20.881180
1015.280714	-2.997200	3.609100	-10.816000	25.232481	0.000922	20.878014
1016.280196	-2.991900	3.608400	-10.795000	25.266287	0.000921	20.854584
1017.277846	-3.024300	3.606800	-10.907000	25.277223	0.000918	20.861296
1018.282717	-3.002400	3.606900	-10.828000	25.305366	0.000920	20.854465
1019.280002	-3.000100	3.606500	-10.817000	25.302660	0.000917	20.880196
1020.281920	-3.005100	3.606000	-10.835000	25.303678	0.000918	20.870314
1021.281027	-3.008500	3.606000	-10.847000	25.302714	0.000919	20.853225
1022.280600	-2.987300	3.607700	-10.776000	25.328544	0.000918	20.855452
1023.282105	-2.982600	3.607300	-10.758000	25.309433	0.000919	20.866134
1024.281625	-3.014000	3.604900	-10.864000	25.337689	0.000919	20.855625
1025.281723	-2.996200	3.605600	-10.801000	25.359720	0.000917	20.844082
1026.281359	-2.994900	3.605700	-10.796000	25.359243	0.000918	20.867310
1027.281960	-2.992800	3.604600	-10.786000	25.368343	0.000918	20.871705
1028.285752	-2.997200	3.605200	-10.804000	25.337998	0.000917	20.853565
1029.282048	-3.005100	3.604300	-10.830000	25.297390	0.000917	20.858310
1030.282389	-3.008500	3.604700	-10.843000	25.283797	0.000914	20.870267
1031.283892	-3.000200	3.603900	-10.809000	25.276586	0.000916	20.863975
1032.282888	-2.986000	3.603900	-10.759000	25.277884	0.000913	20.839676
1033.283682	-3.013600	3.602500	-10.855000	25.275124	0.000915	20.834060
1034.283239	-3.002300	3.601400	-10.810000	25.266481	0.000913	20.849563
1035.283514	-3.004500	3.601500	-10.819000	25.291313	0.000914	20.838934
1036.285256	-2.989000	3.602100	-10.766000	25.308860	0.000912	20.830948
1037.284645	-3.003600	3.600800	-10.814000	25.309185	0.000909	20.836015
1038.286160	-2.993500	3.601400	-10.779000	25.268896	0.000911	20.831126
1039.287002	-2.983900	3.601100	-10.744000	25.257389	0.000911	20.842332
1040.285418	-3.019100	3.599400	-10.865000	25.265570	0.000910	20.837743
1041.286793	-2.982500	3.601100	-10.739000	25.248150	0.000908	20.848228
1042.286416	-2.993700	3.600000	-10.776000	25.241169	0.000911	20.849280
1043.287634	-2.981700	3.600700	-10.735000	25.256606	0.000909	20.825425
1044.290791	-2.994200	3.600800	-10.779000	25.275246	0.000908	20.817587
1045.287481	-3.007600	3.598500	-10.821000	25.268737	0.000908	20.836656
1046.287777	-3.005300	3.597600	-10.811000	25.268220	0.000908	20.834241
1047.288923	-3.019000	3.598100	-10.861000	25.251519	0.000908	20.822214
1048.287978	-2.990800	3.597600	-10.759000	25.255075	0.000905	20.832423
1049.292075	-2.984600	3.598800	-10.741000	25.292433	0.000907	20.850015
1050.290521	-2.991000	3.597700	-10.759000	25.251848	0.000907	20.839614
1051.288357	-2.990400	3.597500	-10.757000	25.255129	0.000904	20.833899
1052.288054	-2.982400	3.597700	-10.728000	25.252846	0.000906	20.833978
1053.289430	-2.981900	3.597400	-10.726000	25.231171	0.000905	20.837346
1054.294087	-3.003900	3.595800	-10.800000	25.211960	0.000905	20.817111
1055.296629	-2.986100	3.596700	-10.739000	25.209849	0.000905	20.798397
1056.290323	-2.992100	3.596000	-10.759000	25.231874	0.000905	20.829518
1057.294644	-2.999500	3.596600	-10.787000	25.233586	0.000904	20.814642
1058.291551	-2.978200	3.596800	-10.711000	25.179931	0.000903	20.842803
1059.292696	-3.010200	3.593500	-10.816000	25.198002	0.000903	20.815900
1060.291934	-3.019800	3.593600	-10.851000	25.205578	0.000903	20.819714
1061.295917	-3.009100	3.593400	-10.812000	25.197033	0.000902	20.828203
1062.292379	-3.012100	3.593700	-10.823000	25.191316	0.000902	20.811559
1063.293214	-3.012300	3.593100	-10.822000	25.201386	0.000899	20.820247
1064.294575	-3.004300	3.593800	-10.795000	25.222192	0.000900	20.824064
1065.291889	-3.007500	3.591900	-10.802000	25.230393	0.000901	20.827556
1066.291544	-3.019300	3.593000	-10.847000	25.255925	0.000901	20.806723
1067.296180	-2.992900	3.593400	-10.754000	25.267633	0.000898	20.794297
1068.292445	-2.986000	3.592800	-10.727000	25.258015	0.000901	20.825417
1069.293379	-2.982400	3.592100	-10.710000	25.282843	0.000898	20.810517
1070.295853	-2.998200	3.590500	-10.762000	25.255531	0.000899	20.788310
1071.295528	-2.999400	3.591000	-10.769000	25.262939	0.000897	20.815189
1072.295605	-3.013900	3.589300	-10.816000	25.236291	0.000896	20.799339
1073.295757	-2.990900	3.591400	-10.740000	25.274677	0.000895	20.808481
1074.294398	-3.000500	3.590100	-10.771000	25.292421	0.000898	20.810175
1075.295043	-3.027000	3.589200	-10.864000	25.282360	0.000896	20.808609
1076.294934	-3.018500	3.589800	-10.834000	25.282484	0.000894	20.793086
1077.295431	-3.011300	3.588400	-10.805000	25.284796	0.000893	20.816270
1078.295305	-3.007500	3.589000	-10.793000	25.296508	0.000892	20.814753
1079.295526	-3.019500	3.588700	-10.834000	25.296085	0.000892	20.813854
1080.295900	-3.007300	3.588500	-10.791000	25.314060	0.000891	20.831901
1081.295180	-3.012100	3.588000	-10.806000	25.336781	0.000892	20.801610
1082.296073	-3.022800	3.588500	-10.846000	25.342817	0.000890	20.786808
1083.298871	-3.019800	3.586100	-10.827000	25.388327	0.000891	20.808796
1084.296540	-3.010800	3.587500	-10.801000	25.371755	0.000889	20.785044
1085.296137	-2.988300	3.587100	-10.719000	25.336269	0.000889	20.812949
1086.300544	-3.009600	3.587200	-10.795000	25.312308	0.000888	20.808331
1087.297422	-2.999800	3.587100	-10.760000	25.303881	0.000888	20.785646
1088.300307	-2.982400	3.586600	-10.694000	25.284051	0.000887	20.803195
1089.300769	-3.021000	3.585700	-10.831000	25.299960	0.000888	20.800201
1090.297332	-3.008100	3.584600	-10.782000	25.313832	0.000886	20.788999
1091.301141	-3.020800	3.583900	-10.825000	25.265269	0.000887	20.786233
1092.300992	-3.005400	3.585100	-10.773000	25.249758	0.000886	20.790575
1093.300034	-3.005400	3.584400	-10.772000	25.250186	0.000884	20.805229
1094.300149	-3.009800	3.584400	-10.788000	25.274694	0.000884	20.792852
1095.304572	-3.011300	3.582900	-10.788000	25.293412	0.000883	20.788411
1096.303668	-2.992700	3.583900	-10.724000	25.315066	0.000883	20.794032
1097.298407	-2.999100	3.583100	-10.745000	25.348270	0.000882	20.805085
1098.302372	-3.011600	3.582000	-10.786000	25.320787	0.000883	20.782232
1099.301853	-2.999100	3.582900	-10.744000	25.330507	0.000881	20.781560
1100.301604	-3.042200	3.582000	-10.896000	25.275977	0.000881	20.809313
1101.302993	-3.013500	3.581300	-10.791000	25.272076	0.000884	20.788327
1102.301666	-3.004100	3.581600	-10.757000	25.248935	0.000881	20.802551
1103.304040	-2.998500	3.583200	-10.743000	25.244217	0.000881	20.792599
1104.303183	-3.023100	3.580300	-10.822000	25.240518	0.000879	20.772763
1105.302496	-3.001400	3.580500	-10.746000	25.261824	0.000879	20.775188
1106.304044	-3.007800	3.581400	-10.770000	25.297818	0.000878	20.786197
1107.302565	-2.992500	3.579700	-10.710000	25.287458	0.000877	20.784804
1108.307273	-3.018000	3.578700	-10.799000	25.328893	0.000878	20.779465
1109.303694	-3.021100	3.578500	-10.810000	25.281225	0.000877	20.785184
1110.306367	-3.015300	3.579800	-10.793000	25.285426	0.000877	20.764272
1111.305989	-3.007700	3.578900	-10.763000	25.274544	0.000875	20.775157
1112.303102	-2.983900	3.579400	-10.679000	25.291177	0.000876	20.785218
1113.305676	-3.021000	3.578600	-10.810000	25.333978	0.000877	20.768450
1114.303661	-3.007300	3.575900	-10.752000	25.363783	0.000878	20.784625
1115.304549	-2.992500	3.577800	-10.706000	25.361844	0.000876	20.767506
1116.305893	-2.997700	3.578500	-10.726000	25.365081	0.000875	20.793516
1117.304623	-2.987200	3.579100	-10.690000	25.361156	0.000875	20.775824
1118.303534	-3.003000	3.577400	-10.741000	25.377688	0.000873	20.762552
1119.305612	-3.003700	3.576000	-10.739000	25.380349	0.000875	20.777552
1120.305999	-2.997900	3.576600	-10.720000	25.417358	0.000873	20.780575
1121.307783	-2.998100	3.575600	-10.720000	25.417732	0.000875	20.765777
1122.305593	-3.002700	3.573900	-10.730000	25.383015	0.000873	20.773591
1123.304315	-2.998100	3.575400	-10.718000	25.353914	0.000873	20.791786
1124.305093	-2.997900	3.575800	-10.718000	25.352571	0.000872	20.772894
1125.305647	-2.996900	3.574600	-10.712000	25.361175	0.000872	20.766359
1126.306456	-3.031800	3.571700	-10.828000	25.365203	0.000872	20.776095
1127.305220	-3.018500	3.572600	-10.782000	25.395080	0.000870	20.778594
1128.305849	-3.017900	3.573500	-10.784000	25.413447	0.000870	20.759578
1129.307103	-3.000500	3.574000	-10.722000	25.429900	0.000869	20.775625
1130.307169	-3.013500	3.573300	-10.767000	25.442354	0.000868	20.771535
1131.306610	-3.035800	3.571000	-10.839000	25.452919	0.000869	20.768394
1132.307001	-3.003900	3.572300	-10.730000	25.467906	0.000867	20.764477
1133.308357	-3.021300	3.572300	-10.791000	25.500785	0.000867	20.758140
1134.311817	-3.005400	3.571700	-10.733000	25.498975	0.000868	20.763909
1135.311776	-3.006400	3.572200	-10.738000	25.479990	0.000864	20.765707
1136.307887	-2.976000	3.571900	-10.629000	25.480669	0.000865	20.774449
1137.309271	-2.999000	3.570900	-10.709000	25.506913	0.000867	20.751966
1138.308836	-2.965800	3.570700	-10.589000	25.498316	0.000864	20.750918
1139.310587	-2.997500	3.570500	-10.701000	25.516784	0.000863	20.762827
1140.311486	-3.012400	3.569700	-10.752000	25.474186	0.000862	20.772207
1141.312374	-3.016900	3.568300	-10.764000	25.445388	0.000863	20.761780
1142.313183	-2.995600	3.569500	-10.692000	25.396855	0.000863	20.751452
1143.314071	-3.020800	3.568700	-10.778000	25.390544	0.000862	20.750330
1144.315132	-2.976900	3.568300	-10.621000	25.387317	0.000863	20.747564
1145.314640	-2.985100	3.569500	-10.655000	25.421493	0.000862	20.774296
1146.315294	-3.014500	3.567200	-10.750000	25.434493	0.000861	20.760322
1147.317186	-3.011400	3.567000	-10.740000	25.443317	0.000860	20.760174
1148.317207	-3.005900	3.566900	-10.720000	25.447173	0.000860	20.743657
1149.317182	-2.996700	3.566800	-10.687000	25.490146	0.000859	20.759310
1150.315993	-3.011900	3.567100	-10.744000	25.464378	0.000859	20.751925
1151.317733	-3.022400	3.564400	-10.772000	25.446361	0.000859	20.760861
1152.318924	-3.024500	3.564700	-10.781000	25.464058	0.000861	20.748759
1153.319937	-3.000700	3.565600	-10.698000	25.454841	0.000861	20.757522
1154.316799	-3.014100	3.564600	-10.744000	25.482601	0.000855	20.756949
1155.320447	-3.035600	3.563200	-10.814000	25.447542	0.000857	20.763942
1156.317427	-2.993900	3.565700	-10.674000	25.424680	0.000856	20.748571
1157.318575	-2.983800	3.564700	-10.635000	25.388522	0.000853	20.745929
1158.318890	-2.988600	3.564800	-10.653000	25.387504	0.000856	20.751545
1159.320053	-3.002300	3.563700	-10.699000	25.373613	0.000853	20.749451
1160.320862	-2.973700	3.563500	-10.596000	25.349353	0.000853	20.765395
1161.321109	-2.996800	3.563100	-10.677000	25.338845	0.000851	20.741093
1162.323107	-2.975300	3.563400	-10.601000	25.364670	0.000852	20.764179
1163.321204	-3.006000	3.563500	-10.710000	25.381296	0.000849	20.743415
1164.320870	-3.000000	3.562600	-10.686000	25.379712	0.000851	20.755575
1165.322130	-2.987400	3.563700	-10.645000	25.396515	0.000851	20.732143
1166.322152	-2.997600	3.560100	-10.671000	25.387071	0.000850	20.743049
1167.322049	-3.004000	3.561000	-10.696000	25.387794	0.000850	20.740456
1168.323416	-2.997500	3.560200	-10.670000	25.408345	0.000850	20.749712
1169.323516	-2.983800	3.561000	-10.624000	25.420528	0.000847	20.739661
1170.324170	-2.994900	3.561200	-10.664000	25.411734	0.000848	20.719449
1171.323472	-2.973900	3.561300	-10.590000	25.402540	0.000846	20.726813
1172.324236	-2.965400	3.560800	-10.558000	25.419589	0.000846	20.721172
1173.323521	-2.966200	3.561600	-10.563000	25.399663	0.000845	20.741943
1174.324032	-2.965600	3.560200	-10.557000	25.384724	0.000846	20.730261
1175.325868	-2.989400	3.559700	-10.640000	25.408635	0.000845	20.749529
1176.325183	-2.987100	3.558800	-10.629000	25.372998	0.000844	20.730814
1177.323537	-2.970500	3.558000	-10.568000	25.337881	0.000847	20.731115
1178.324988	-2.969200	3.559500	-10.568000	25.350184	0.000845	20.739201
1179.325863	-3.004600	3.558300	-10.690000	25.306221	0.000843	20.741528
1180.326100	-2.992800	3.558400	-10.648000	25.314894	0.000844	20.732691
1181.326255	-2.992800	3.557000	-10.645000	25.311992	0.000842	20.716025
1182.326117	-2.988800	3.556700	-10.628000	25.308361	0.000844	20.722812
1183.325865	-2.980800	3.556800	-10.602000	25.291488	0.000840	20.714880
1184.326714	-2.984600	3.556700	-10.614000	25.292925	0.000841	20.740031
1185.325244	-2.980300	3.555000	-10.594000	25.290268	0.000842	20.718871
1186.326540	-2.976900	3.556100	-10.585000	25.294917	0.000840	20.730651
1187.327045	-2.994500	3.554600	-10.643000	25.306453	0.000838	20.737966
1188.327436	-2.994400	3.555400	-10.645000	25.295689	0.000838	20.726685
1189.329221	-3.000700	3.552900	-10.660000	25.285546	0.000841	20.748744
1190.329410	-3.005600	3.555400	-10.685000	25.321815	0.000837	20.720673
1191.328492	-3.003400	3.552400	-10.667000	25.344035	0.000837	20.730656
1192.330181	-3.005600	3.552700	-10.677000	25.349657	0.000838	20.717334
1193.328351	-2.994200	3.552500	-10.636000	25.367252	0.000837	20.735477
1194.329456	-2.969800	3.553500	-10.552000	25.401355	0.000836	20.713294
1195.330613	-2.971800	3.553600	-10.559000	25.419997	0.000835	20.734385
1196.331907	-2.993300	3.552300	-10.632000	25.457698	0.000836	20.728621
1197.330333	-2.987100	3.551300	-10.608000	25.461151	0.000834	20.752004
1198.330249	-2.987200	3.552000	-10.609000	25.502677	0.000835	20.721158
1199.331092	-2.969200	3.552000	-10.546000	25.501413	0.000834	20.718940
1200.330831	-2.999000	3.551300	-10.649000	25.539485	0.000834	20.714025
1201.330976	-2.995700	3.551800	-10.638000	25.546774	0.000832	20.727035
1202.331223	-3.008400	3.550300	-10.680000	25.524160	0.000833	20.708117
1203.331286	-2.998600	3.551000	-10.647000	25.521303	0.000832	20.715206
1204.331407	-2.972200	3.550600	-10.552000	25.521426	0.000830	20.721968
1205.331244	-3.001900	3.549100	-10.653000	25.532064	0.000830	20.718900
1206.331726	-2.997400	3.548600	-10.636000	25.557185	0.000829	20.707619
1207.331628	-2.988100	3.549100	-10.603000	25.543400	0.000831	20.727440
1208.330984	-2.995100	3.549000	-10.628000	25.542726	0.000829	20.717754
1209.332460	-2.996100	3.549100	-10.631000	25.540051	0.000827	20.722654
1210.333189	-3.011600	3.547100	-10.681000	25.544152	0.000826	20.724403
1211.332120	-3.012400	3.547400	-10.684000	25.544030	0.000829	20.728073
1212.335010	-2.995800	3.547200	-10.626000	25.535531	0.000825	20.722857
1213.331673	-3.009300	3.545100	-10.667000	25.496839	0.000826	20.723830
1214.331968	-3.006200	3.546500	-10.660000	25.446346	0.000825	20.718643
1215.332261	-3.005400	3.545700	-10.655000	25.425221	0.000825	20.706912
1216.335037	-3.003800	3.545600	-10.648000	25.431507	0.000826	20.713225
1217.332806	-2.995500	3.545800	-10.620000	25.457506	0.000824	20.723212
1218.332602	-2.994400	3.544800	-10.614000	25.480820	0.000824	20.715803
1219.331401	-3.006900	3.544000	-10.655000	25.500552	0.000820	20.725188
1220.333059	-2.994300	3.544500	-10.612000	25.513178	0.000820	20.711788
1221.333938	-2.972800	3.545200	-10.538000	25.524234	0.000823	20.722417
1222.334834	-3.003200	3.542700	-10.638000	25.516660	0.000821	20.705327
1223.332386	-3.002200	3.544100	-10.639000	25.535275	0.000822	20.683716
1224.333722	-2.993400	3.544100	-10.607000	25.541939	0.000820	20.707955
1225.334004	-2.995900	3.542100	-10.610000	25.582041	0.000820	20.727841
1226.334276	-3.014900	3.541700	-10.676000	25.586020	0.000821	20.710973
1227.334488	-3.014800	3.542500	-10.679000	25.566938	0.000820	20.725949
1228.333434	-3.000600	3.541400	-10.625000	25.595192	0.000819	20.718288
1229.333435	-2.999400	3.540900	-10.619000	25.592905	0.000817	20.703662
1230.333366	-3.005900	3.540000	-10.639000	25.568856	0.000817	20.724556
1231.333248	-3.002900	3.541400	-10.634000	25.610427	0.000817	20.722684
1232.333906	-3.019100	3.539400	-10.684000	25.604113	0.000816	20.721084
1233.333762	-3.012200	3.539100	-10.658000	25.603321	0.000816	20.691363
1234.333172	-2.984700	3.538900	-10.561000	25.643052	0.000814	20.707085
1235.334987	-2.990100	3.540400	-10.585000	25.605485	0.000814	20.716772
1236.335174	-3.006000	3.538200	-10.635000	25.642309	0.000814	20.715349
1237.334471	-2.999200	3.539800	-10.615000	25.579691	0.000813	20.715048
1238.337718	-3.004100	3.537900	-10.627000	25.539717	0.000813	20.709990
1239.339166	-3.002900	3.538600	-10.623000	25.508201	0.000812	20.712953
1240.337780	-3.008700	3.537800	-10.643000	25.498015	0.000810	20.714104
1241.338465	-3.001800	3.537800	-10.618000	25.490485	0.000810	20.709387
1242.339416	-3.005800	3.537500	-10.630000	25.485340	0.000811	20.707066
1243.337810	-2.992400	3.536900	-10.583000	25.519409	0.000812	20.700027
1244.338576	-3.009300	3.535500	-10.638000	25.514019	0.000809	20.717374
1245.340607	-2.983300	3.538400	-10.554000	25.512652	0.000809	20.715527
1246.341825	-2.998400	3.534700	-10.596000	25.504300	0.000809	20.713778
1247.339843	-2.994800	3.534900	-10.585000	25.476994	0.000809	20.720970
1248.339653	-3.013400	3.535600	-10.653000	25.499402	0.000806	20.708859
1249.340285	-3.007700	3.534600	-10.630000	25.506661	0.000807	20.703820
1250.339696	-3.017700	3.534700	-10.665000	25.513001	0.000806	20.713981
1251.339112	-2.999300	3.534800	-10.601000	25.519881	0.000805	20.704769
1252.342630	-2.998600	3.534600	-10.598000	25.567597	0.000806	20.718076
1253.340042	-2.992000	3.533800	-10.572000	25.558302	0.000805	20.708266
1254.340323	-2.994300	3.533400	-10.579000	25.537208	0.000804	20.729283
1255.347154	-2.997700	3.532800	-10.588000	25.500577	0.000803	20.710039
1256.345337	-2.987100	3.533900	-10.555000	25.474588	0.000803	20.704329
1257.339898	-2.985400	3.533200	-10.546000	25.482315	0.000804	20.730582
1258.345009	-3.002500	3.532800	-10.607000	25.493800	0.000803	20.719829
1259.344855	-3.039600	3.529600	-10.727000	25.463055	0.000800	20.729733
1260.346302	-2.978100	3.531300	-10.514000	25.442731	0.000802	20.735877
1261.347510	-2.988100	3.532100	-10.552000	25.459853	0.000800	20.725569
1262.351450	-2.974800	3.532800	-10.508000	25.456897	0.000800	20.708849
1263.345567	-3.001700	3.529100	-10.591000	25.488360	0.000800	20.732385
1264.348037	-3.013600	3.530200	-10.638000	25.509189	0.000799	20.709205
1265.350803	-2.994000	3.530700	-10.570000	25.536471	0.000800	20.722852
1266.343584	-3.029500	3.528100	-10.688000	25.544950	0.000799	20.739903
1267.346803	-3.019000	3.528800	-10.652000	25.591096	0.000799	20.726503
1268.349003	-2.988300	3.528000	-10.542000	25.605535	0.000797	20.723934
1269.348939	-3.005500	3.527200	-10.600000	25.620721	0.000796	20.719745
1270.349051	-3.016200	3.527100	-10.636000	25.647306	0.000797	20.727006
1271.349418	-2.999100	3.527100	-10.577000	25.652745	0.000795	20.740056
1272.349268	-3.001300	3.526400	-10.583000	25.672179	0.000795	20.731600
1273.349365	-3.034100	3.526000	-10.697000	25.676035	0.000794	20.721247
1274.349550	-2.984300	3.527000	-10.525000	25.615385	0.000795	20.721499
1275.347503	-3.003000	3.526500	-10.589000	25.624586	0.000794	20.721731
1276.351051	-2.994900	3.524800	-10.555000	25.614992	0.000791	20.742442
1277.349901	-3.016000	3.524000	-10.627000	25.604532	0.000795	20.727194
1278.347655	-2.993400	3.525500	-10.552000	25.613777	0.000792	20.739800
1279.349367	-2.980800	3.525000	-10.506000	25.635327	0.000792	20.738209
1280.350561	-2.999300	3.524600	-10.570000	25.646682	0.000793	20.739656
1281.347573	-3.016200	3.523500	-10.626000	25.603425	0.000791	20.743154
1282.351845	-3.016100	3.521100	-10.619000	25.572836	0.000791	20.726656
1283.350599	-2.995900	3.523700	-10.555000	25.561987	0.000790	20.721924
1284.348758	-3.000700	3.523100	-10.571000	25.541109	0.000788	20.715182
1285.352499	-3.001200	3.522300	-10.570000	25.548767	0.000790	20.748004
1286.352494	-3.002800	3.523300	-10.579000	25.511497	0.000786	20.746137
1287.349372	-2.977900	3.521500	-10.485000	25.554020	0.000786	20.739529
1288.350760	-2.997700	3.521700	-10.556000	25.563959	0.000788	20.731966
1289.352995	-2.998000	3.521800	-10.557000	25.566693	0.000788	20.744670
1290.348813	-3.000400	3.521000	-10.563000	25.527265	0.000785	20.747274
1291.352820	-3.000700	3.520100	-10.562000	25.563271	0.000786	20.738862
1292.350693	-2.997800	3.519100	-10.549000	25.552166	0.000784	20.760901
1293.351758	-2.998800	3.519500	-10.553000	25.587158	0.000785	20.741989
1294.353421	-2.988600	3.520200	-10.519000	25.613444	0.000786	20.737094
1295.350456	-2.997500	3.518500	-10.546000	25.631713	0.000786	20.734580
1296.351053	-3.002600	3.517500	-10.561000	25.655323	0.000785	20.751181
1297.351536	-2.994500	3.519600	-10.538000	25.652515	0.000783	20.745041
1298.356122	-2.990100	3.518700	-10.521000	25.648842	0.000784	20.732342
1299.351683	-2.973800	3.518500	-10.462000	25.662085	0.000784	20.736635
1300.357242	-3.010400	3.517000	-10.587000	25.667155	0.000781	20.737934
1301.355088	-3.000800	3.515800	-10.548000	25.702959	0.000780	20.737386
1302.353500	-3.005400	3.517000	-10.569000	25.740380	0.000782	20.745101
1303.356856	-2.994900	3.516700	-10.532000	25.737597	0.000782	20.742779
1304.356853	-3.003400	3.515400	-10.557000	25.734740	0.000777	20.745600
1305.354389	-2.990000	3.515900	-10.511000	25.712583	0.000778	20.734724
1306.357921	-2.998400	3.516600	-10.543000	25.697550	0.000778	20.736220
1307.358215	-3.016900	3.515500	-10.605000	25.676779	0.000779	20.751394
1308.355206	-2.973100	3.516000	-10.452000	25.646890	0.000780	20.745556
1309.357490	-3.004200	3.514100	-10.555000	25.675594	0.000777	20.726969
1310.359318	-2.990800	3.513800	-10.509000	25.674527	0.000779	20.734907
1311.354795	-2.985900	3.515100	-10.495000	25.677163	0.000777	20.750831
1312.358931	-3.004900	3.512300	-10.553000	25.683398	0.000777	20.758991
1313.360199	-2.999700	3.513200	-10.536000	25.664638	0.000777	20.748682
1314.356317	-2.995400	3.513200	-10.522000	25.632540	0.000775	20.755326
1315.361102	-3.013100	3.511700	-10.580000	25.586844	0.000776	20.740725
1316.361651	-2.991100	3.511500	-10.502000	25.595642	0.000775	20.741501
1317.358698	-3.006300	3.511700	-10.557000	25.611143	0.000777	20.760388
1318.365938	-2.993500	3.511600	-10.511000	25.629752	0.000773	20.765328
1319.365201	-2.985700	3.511100	-10.482000	25.627219	0.000775	20.740498
1320.361604	-2.998200	3.511500	-10.527000	25.626349	0.000772	20.747210
1321.364717	-2.993800	3.511600	-10.512000	25.626845	0.000772	20.733958
1322.364819	-2.992800	3.508800	-10.500000	25.641554	0.000771	20.761534
1323.360440	-3.021900	3.508500	-10.601000	25.652216	0.000772	20.756121
1324.364774	-3.006400	3.509100	-10.548000	25.677881	0.000771	20.757716
1325.365884	-3.010900	3.508100	-10.561000	25.674330	0.000769	20.745615
1326.361435	-2.979200	3.509400	-10.455000	25.647170	0.000770	20.751527
1327.364406	-2.992600	3.507200	-10.495000	25.627539	0.000771	20.759312
1328.363450	-3.000200	3.507300	-10.522000	25.630647	0.000771	20.769072
1329.361306	-3.014700	3.506000	-10.568000	25.652988	0.000769	20.770647
1330.364878	-3.003500	3.507800	-10.535000	25.643989	0.000769	20.752599
1331.371296	-3.003200	3.507600	-10.533000	25.640286	0.000769	20.765476
1332.362572	-3.022300	3.505700	-10.595000	25.655988	0.000771	20.778402
1333.366843	-2.955100	3.508000	-10.366000	25.659292	0.000770	20.783617
1334.369000	-3.005600	3.505500	-10.534000	25.639563	0.000767	20.758585
1335.365757	-2.989600	3.504800	-10.477000	25.634635	0.000768	20.762645
1336.365801	-3.017500	3.503800	-10.571000	25.676184	0.000768	20.784936
1337.368038	-2.982200	3.505100	-10.452000	25.658957	0.000765	20.762892
1338.366538	-2.989500	3.505300	-10.478000	25.630858	0.000765	20.763119
1339.367205	-2.998500	3.504000	-10.506000	25.628547	0.000767	20.768385
1340.369270	-3.008000	3.503800	-10.538000	25.631153	0.000766	20.773373
1341.367344	-2.986500	3.502300	-10.457000	25.647219	0.000766	20.765327
1342.367721	-3.004300	3.501400	-10.518000	25.662822	0.000764	20.774361
1343.369408	-2.996800	3.503000	-10.497000	25.684184	0.000764	20.761202
1344.371120	-2.993700	3.502600	-10.484000	25.707217	0.000763	20.763000
1345.370008	-2.989500	3.503100	-10.471000	25.729827	0.000760	20.772908
1346.376046	-3.016200	3.499600	-10.555000	25.736780	0.000760	20.787479
1347.373737	-3.011400	3.500700	-10.540000	25.691959	0.000760	20.774701
1348.373805	-2.962200	3.501100	-10.370000	25.680378	0.000761	20.789148
1349.372043	-3.015300	3.499000	-10.550000	25.694535	0.000760	20.773970
1350.371614	-3.006900	3.499600	-10.522000	25.629461	0.000759	20.801071
1351.375686	-2.995000	3.498200	-10.476000	25.627425	0.000757	20.782431
1352.377242	-3.001900	3.499300	-10.504000	25.628369	0.000757	20.777215
1353.374600	-2.999100	3.497200	-10.488000	25.663643	0.000757	20.768073
1354.376668	-2.989900	3.497100	-10.455000	25.662625	0.000758	20.783646
1355.374579	-2.998700	3.497300	-10.486000	25.668192	0.000755	20.788763
1356.382713	-2.994300	3.497200	-10.471000	25.707153	0.000756	20.780954
1357.373627	-3.017100	3.496200	-10.547000	25.698430	0.000755	20.771718
1358.374248	-2.987100	3.495800	-10.441000	25.712518	0.000756	20.765954
1359.374921	-2.982400	3.496300	-10.426000	25.729139	0.000753	20.786441
1360.377311	-3.000400	3.496000	-10.489000	25.723725	0.000754	20.800918
1361.375299	-3.002900	3.494500	-10.491000	25.702113	0.000754	20.811453
1362.375170	-3.021900	3.494100	-10.557000	25.678730	0.000751	20.770898
1363.376455	-2.997000	3.494600	-10.472000	25.630405	0.000752	20.798226
1364.375124	-2.989500	3.494900	-10.446000	25.672072	0.000751	20.778909
1365.376619	-2.995000	3.494800	-10.466000	25.690783	0.000752	20.787745
1366.378445	-3.014900	3.493300	-10.529000	25.716226	0.000749	20.769678
1367.374800	-3.014100	3.493800	-10.529000	25.735408	0.000750	20.813127
1368.375652	-3.018500	3.492600	-10.540000	25.771259	0.000751	20.797930
1369.378463	-2.991300	3.492500	-10.447000	25.789772	0.000749	20.784757
1370.378858	-3.014300	3.492600	-10.526000	25.779161	0.000748	20.805867
1371.377464	-3.011600	3.492500	-10.517000	25.800850	0.000748	20.790195
1372.379504	-3.009900	3.492600	-10.511000	25.813098	0.000746	20.804869
1373.378484	-3.023400	3.490800	-10.553000	25.818113	0.000746	20.796157
1374.378882	-3.020100	3.491500	-10.543000	25.812405	0.000746	20.799906
1375.388134	-3.005300	3.490700	-10.490000	25.827854	0.000745	20.793139
1376.379331	-3.012000	3.490100	-10.512000	25.769627	0.000745	20.800084
1377.379045	-3.027700	3.490500	-10.567000	25.751714	0.000745	20.794418
1378.380329	-3.007600	3.489400	-10.494000	25.713300	0.000744	20.798034
1379.378978	-3.009500	3.489600	-10.500000	25.669028	0.000744	20.819474
1380.380074	-3.016800	3.487900	-10.521000	25.680530	0.000743	20.799733
1381.381018	-2.999900	3.488700	-10.465000	25.687248	0.000742	20.809325
1382.381184	-2.984400	3.488000	-10.407000	25.675820	0.000743	20.787889
1383.380638	-3.001800	3.488500	-10.470000	25.668856	0.000741	20.816457
1384.384516	-2.989200	3.487600	-10.423000	25.656189	0.000742	20.798992
1385.381645	-3.002900	3.488600	-10.475000	25.685758	0.000741	20.811621
1386.379402	-2.983500	3.488200	-10.406000	25.686053	0.000738	20.807650
1387.384027	-3.003100	3.487100	-10.470000	25.712169	0.000740	20.795476
1388.382541	-3.017700	3.484100	-10.512000	25.699202	0.000742	20.806633
1389.383763	-2.987800	3.485800	-10.414000	25.691300	0.000739	20.820981
1390.386777	-2.954300	3.486600	-10.300000	25.707055	0.000739	20.812624
1391.383452	-3.003500	3.484700	-10.465000	25.711058	0.000739	20.804791
1392.381688	-3.019100	3.483300	-10.515000	25.718385	0.000738	20.803141
1393.386645	-2.987300	3.484400	-10.408000	25.716699	0.000738	20.803818
1394.382899	-3.032700	3.481800	-10.558000	25.689643	0.000738	20.809834
1395.383086	-3.002000	3.483800	-10.456000	25.674536	0.000738	20.802247
1396.387579	-2.979800	3.481400	-10.371000	25.692003	0.000736	20.820739
1397.382168	-3.003500	3.482300	-10.457000	25.716158	0.000735	20.794740
1398.382661	-3.047900	3.480900	-10.608000	25.748356	0.000735	20.827555
1399.386190	-3.028200	3.480200	-10.537000	25.778714	0.000735	20.821539
1400.388285	-3.008000	3.480600	-10.469000	25.755860	0.000734	20.821342
1401.383254	-3.024200	3.479400	-10.521000	25.768457	0.000737	20.822616
1402.384880	-3.003600	3.479200	-10.449000	25.771609	0.000734	20.824359
1403.383850	-3.009000	3.479900	-10.470000	25.773301	0.000734	20.824636
1404.386878	-3.016800	3.479100	-10.495000	25.751838	0.000732	20.818250
1405.385480	-3.006400	3.480000	-10.462000	25.758372	0.000730	20.821969
1406.386072	-3.002200	3.478800	-10.443000	25.769303	0.000732	20.825362
1407.382749	-2.997700	3.478800	-10.427000	25.770272	0.000731	20.818749
1408.384434	-3.013600	3.478200	-10.481000	25.789876	0.000729	20.824216
1409.385304	-2.997600	3.479500	-10.428000	25.805232	0.000730	20.824943
1410.386406	-3.015500	3.477100	-10.484000	25.808157	0.000729	20.827881
1411.384614	-3.014700	3.476300	-10.479000	25.844655	0.000729	20.839888
1412.385981	-3.010900	3.475800	-10.465000	25.837251	0.000727	20.830553
1413.385826	-3.013500	3.476500	-10.475000	25.798353	0.000727	20.826568
1414.389342	-3.010200	3.474700	-10.458000	25.776217	0.000726	20.836100
1415.384656	-2.983400	3.477000	-10.372000	25.743124	0.000727	20.820404
1416.384834	-3.019700	3.474600	-10.490000	25.756165	0.000727	20.822596
1417.383558	-2.996000	3.475100	-10.410000	25.763349	0.000726	20.826968
1418.385302	-3.002100	3.475000	-10.432000	25.764691	0.000727	20.833057
1419.385169	-3.019700	3.473800	-10.489000	25.825903	0.000724	20.831008
1420.386133	-3.001500	3.474100	-10.425000	25.784487	0.000727	20.842510
1421.384957	-2.996200	3.473600	-10.407000	25.775696	0.000725	20.835576
1422.385724	-2.995400	3.473000	-10.402000	25.768733	0.000724	20.838065
1423.387787	-3.006300	3.471900	-10.436000	25.766334	0.000723	20.844190
1424.387117	-3.023600	3.471800	-10.496000	25.757389	0.000723	20.837102
1425.387748	-3.010100	3.471000	-10.447000	25.779546	0.000721	20.856512
1426.389318	-2.998800	3.471400	-10.409000	25.747127	0.000721	20.874682
1427.387865	-2.998400	3.471500	-10.408000	25.738232	0.000722	20.846308
1428.390269	-2.989100	3.472500	-10.379000	25.734505	0.000721	20.845410
1429.387254	-3.003000	3.470900	-10.421000	25.776512	0.000721	20.841611
1430.393057	-2.981400	3.470600	-10.347000	25.788662	0.000720	20.848126
1431.395220	-2.990900	3.470600	-10.380000	25.812686	0.000720	20.864671
1432.402497	-3.003300	3.468800	-10.417000	25.822594	0.000718	20.832899
1433.393985	-2.975000	3.470400	-10.323000	25.831341	0.000719	20.843582
1434.398185	-2.987600	3.468800	-10.362000	25.877371	0.000717	20.849993
1435.393218	-2.999600	3.468400	-10.403000	25.857124	0.000719	20.856680
1436.397093	-3.004900	3.466200	-10.414000	25.876855	0.000717	20.849948
1437.397482	-2.992900	3.468500	-10.380000	25.872725	0.000719	20.852437
1438.393385	-2.978100	3.468900	-10.330000	25.864278	0.000719	20.847271
1439.398605	-2.975600	3.467300	-10.315000	25.848505	0.000716	20.832850
1440.398909	-2.985300	3.466300	-10.347000	25.884972	0.000717	20.845301
1441.393984	-2.994500	3.468100	-10.384000	25.896324	0.000717	20.862868
1442.396646	-3.004400	3.465300	-10.408000	25.905838	0.000715	20.861520
1443.395957	-3.001000	3.465600	-10.399000	25.878659	0.000715	20.853183
1444.394403	-2.981500	3.464400	-10.328000	25.897096	0.000716	20.869807
1445.399247	-2.992000	3.465600	-10.368000	25.915282	0.000716	20.862473
1446.398128	-2.981400	3.465000	-10.329000	25.869101	0.000716	20.857806
1447.397698	-3.015100	3.463700	-10.442000	25.855256	0.000714	20.856225
1448.399069	-3.001700	3.462500	-10.392000	25.846671	0.000714	20.871783
1449.401167	-2.993300	3.462300	-10.363000	25.874269	0.000713	20.859678
1450.397871	-2.993400	3.463200	-10.366000	25.885198	0.000713	20.864019
1451.402514	-3.019400	3.462200	-10.452000	25.904776	0.000710	20.846229
1452.403533	-2.996200	3.462100	-10.372000	25.936841	0.000713	20.877492
1453.399739	-2.995100	3.462800	-10.370000	25.905120	0.000711	20.866488
1454.402691	-2.975300	3.462700	-10.301000	25.908945	0.000711	20.863219
1455.402681	-2.980300	3.462000	-10.316000	25.878787	0.000711	20.870380
1456.400705	-3.019800	3.460400	-10.449000	25.854789	0.000708	20.849118
1457.405705	-3.013800	3.459700	-10.425000	25.861721	0.000710	20.878366
1458.407983	-3.008800	3.459600	-10.408000	25.848781	0.000708	20.852566
1459.401040	-2.987100	3.460300	-10.335000	25.853304	0.000707	20.844308
1460.405679	-3.011400	3.458500	-10.414000	25.834424	0.000707	20.871333
1461.406722	-2.982200	3.459100	-10.314000	25.803939	0.000707	20.850195
1462.401692	-2.961600	3.457900	-10.240000	25.798048	0.000704	20.833847
1463.405149	-2.989900	3.458800	-10.341000	25.811388	0.000706	20.849617
1464.406027	-2.989000	3.457300	-10.333000	25.778719	0.000704	20.841458
1465.401061	-3.009700	3.457400	-10.405000	25.829753	0.000705	20.857159
1466.400911	-3.012600	3.454400	-10.404000	25.855241	0.000705	20.868064
1467.403641	-2.988300	3.457000	-10.330000	25.846445	0.000703	20.858280
1468.404773	-3.009600	3.455400	-10.399000	25.809657	0.000703	20.843612
1469.403880	-2.991300	3.454600	-10.333000	25.792836	0.000703	20.842362
1470.402385	-2.980000	3.456300	-10.299000	25.780239	0.000702	20.839666
1471.402673	-3.008900	3.455400	-10.396000	25.798653	0.000703	20.853420
1472.405259	-3.000400	3.453900	-10.362000	25.805581	0.000703	20.848052
1473.402660	-3.001200	3.453600	-10.364000	25.799573	0.000700	20.858611
1474.401809	-3.005800	3.453000	-10.377000	25.802705	0.000700	20.846111
1475.404093	-2.995300	3.453800	-10.343000	25.800369	0.000700	20.840446
1476.403029	-2.996900	3.453200	-10.348000	25.797464	0.000699	20.838950
1477.412724	-2.989600	3.453000	-10.322000	25.843874	0.000700	20.836732
1478.405331	-3.007800	3.450500	-10.377000	25.848024	0.000698	20.850383
1479.402349	-2.988300	3.452300	-10.315000	25.858904	0.000700	20.851830
1480.401865	-3.039200	3.450800	-10.486000	25.860670	0.000698	20.854552
1481.407082	-2.992200	3.451100	-10.326000	25.882234	0.000699	20.834490
1482.404314	-3.013100	3.450000	-10.394000	25.881565	0.000697	20.852310
1483.402885	-3.007700	3.449400	-10.374000	25.835501	0.000695	20.822631
1484.406123	-2.988200	3.450000	-10.308000	25.817839	0.000697	20.827175
1485.405571	-3.001800	3.449800	-10.355000	25.784208	0.000696	20.853609
1486.403365	-2.995000	3.449300	-10.330000	25.781818	0.000697	20.820389
1487.406955	-2.994000	3.449700	-10.327000	25.782619	0.000695	20.827832
1488.404562	-2.974400	3.448100	-10.255000	25.795954	0.000695	20.823209
1489.405304	-2.980000	3.448100	-10.274000	25.816723	0.000693	20.834115
1490.405128	-2.984600	3.446900	-10.287000	25.852474	0.000693	20.815500
1491.408360	-2.980200	3.447800	-10.274000	25.839277	0.000693	20.826425
1492.406664	-2.978000	3.448900	-10.270000	25.839306	0.000692	20.822661
1493.406097	-2.975100	3.446900	-10.254000	25.810956	0.000689	20.829743
1494.407901	-2.986700	3.447000	-10.295000	25.811403	0.000691	20.836357
1495.407475	-2.993500	3.446600	-10.316000	25.800443	0.000690	20.830089
1496.406784	-2.989200	3.445100	-10.297000	25.824693	0.000690	20.820784
1497.408045	-3.011000	3.445600	-10.374000	25.837040	0.000688	20.829393
1498.407317	-2.999900	3.444500	-10.332000	25.838205	0.000690	20.822029
1499.408301	-2.999200	3.444400	-10.330000	25.819649	0.000688	20.836579
1500.411540	-3.000300	3.443800	-10.332000	25.836213	0.000688	20.832356
1501.409464	-3.011000	3.443100	-10.367000	25.840432	0.000690	20.823792
1502.409020	-3.003900	3.442700	-10.340000	25.828809	0.000687	20.818280
1503.409400	-3.014200	3.442400	-10.374000	25.835520	0.000687	20.806530
1504.410318	-3.009100	3.442300	-10.357000	25.832039	0.000685	20.803507
1505.409173	-3.002200	3.442500	-10.333000	25.861628	0.000686	20.813790
1506.413413	-3.031300	3.439700	-10.426000	25.889323	0.000686	20.803680
1507.412561	-3.012200	3.440400	-10.362000	25.914240	0.000685	20.805478
1508.412234	-3.003800	3.440300	-10.333000	25.896679	0.000685	20.801112
1509.415770	-2.979700	3.440800	-10.252000	25.876383	0.000684	20.817233
1510.412821	-3.004100	3.440600	-10.335000	25.865822	0.000685	20.832702
1511.415075	-2.998800	3.439700	-10.314000	25.883984	0.000684	20.806851
1512.416341	-2.988700	3.439500	-10.278000	25.901044	0.000684	20.818299
1513.418619	-2.992200	3.439900	-10.291000	25.898793	0.000682	20.797546
1514.413024	-3.020700	3.438700	-10.386000	25.918581	0.000682	20.811261
1515.418086	-3.013200	3.436900	-10.355000	25.953591	0.000683	20.820828
1516.416058	-3.013000	3.439000	-10.360000	25.954830	0.000682	20.815909
1517.414025	-3.020800	3.437300	-10.383000	25.965911	0.000682	20.808550
1518.416434	-3.008500	3.436600	-10.338000	25.992016	0.000679	20.800638
1519.415776	-2.994600	3.437700	-10.292000	25.991666	0.000680	20.819727
1520.418030	-2.997500	3.436700	-10.301000	26.009699	0.000678	20.803231
1521.418664	-2.991900	3.436500	-10.281000	26.013921	0.000679	20.822172
1522.417440	-2.999200	3.435300	-10.302000	26.030518	0.000680	20.824622
1523.414574	-3.031500	3.433800	-10.408000	26.024781	0.000677	20.807952
1524.417384	-2.995000	3.435500	-10.287000	26.036481	0.000679	20.830138
1525.418547	-3.011000	3.434100	-10.339000	26.031314	0.000677	20.806930
1526.415297	-2.987100	3.434700	-10.259000	26.045570	0.000677	20.798968
1527.417252	-2.991000	3.434600	-10.272000	26.035267	0.000675	20.785297
1528.419089	-3.002700	3.433100	-10.307000	25.986278	0.000675	20.804831
1529.417042	-2.994600	3.435800	-10.287000	25.938414	0.000676	20.802263
1530.419024	-3.001600	3.432300	-10.301000	25.895341	0.000676	20.795027
1531.418869	-3.003600	3.431800	-10.306000	25.853584	0.000674	20.818038
1532.416423	-2.997600	3.432600	-10.288000	25.823204	0.000674	20.803641
1533.419781	-3.027300	3.429400	-10.381000	25.826483	0.000674	20.802194
1534.417964	-3.016300	3.431200	-10.348000	25.825013	0.000672	20.811148
1535.417311	-3.004200	3.430800	-10.306000	25.835924	0.000673	20.789392
1536.421683	-3.011400	3.430800	-10.330000	25.842084	0.000671	20.794632
1537.419022	-2.975200	3.431700	-10.209000	25.829212	0.000671	20.787391
1538.417832	-3.000800	3.431600	-10.297000	25.824915	0.000672	20.803937
1539.424078	-2.990800	3.430200	-10.258000	25.806560	0.000672	20.801147
1540.423621	-2.995000	3.428200	-10.266000	25.803324	0.000671	20.796000
1541.417998	-2.983300	3.429800	-10.230000	25.848864	0.000671	20.796227
1542.420647	-2.985300	3.429300	-10.236000	25.868339	0.000669	20.796351
1543.425786	-2.992800	3.427000	-10.255000	25.859543	0.000669	20.786092
1544.421098	-3.006900	3.427200	-10.304000	25.907465	0.000669	20.804362
1545.422667	-2.995300	3.427300	-10.264000	25.921050	0.000670	20.795249
1546.425160	-3.017300	3.425800	-10.336000	25.894869	0.000668	20.789337
1547.418900	-2.966500	3.426800	-10.163000	25.913803	0.000667	20.797452
1548.422914	-2.993600	3.424500	-10.250000	25.911364	0.000666	20.803063
1549.422078	-2.983400	3.426700	-10.222000	25.930494	0.000666	20.792883
1550.420593	-2.985600	3.426200	-10.228000	25.930464	0.000663	20.806604
1551.422819	-3.023300	3.424500	-10.353000	25.951157	0.000665	20.788512
1552.421737	-2.986200	3.425300	-10.228000	25.930017	0.000664	20.775334
1553.420526	-3.018400	3.423800	-10.334000	25.941669	0.000665	20.807903
1554.423387	-3.010400	3.423600	-10.305000	25.943734	0.000664	20.778209
1555.423212	-3.009700	3.423200	-10.302000	25.997758	0.000662	20.799768
1556.422357	-3.017500	3.421700	-10.324000	25.993692	0.000663	20.792839
1557.423406	-3.008700	3.422700	-10.297000	25.980694	0.000661	20.790211
1558.420968	-3.017300	3.422400	-10.326000	25.961845	0.000662	20.792612
1559.421704	-3.013400	3.422800	-10.313000	25.960774	0.000660	20.788216
1560.422914	-2.987200	3.421000	-10.218000	25.959387	0.000660	20.766908
1561.421798	-2.999800	3.419700	-10.256000	25.965941	0.000660	20.790088
1562.420926	-3.011200	3.419900	-10.295000	25.955936	0.000660	20.784304
1563.421815	-2.995800	3.419600	-10.243000	25.923272	0.000658	20.802223
1564.421133	-3.003200	3.419800	-10.269000	25.916738	0.000658	20.780486
1565.422895	-2.991200	3.420200	-10.229000	25.955263	0.000661	20.768454
1566.425196	-2.997000	3.419400	-10.247000	25.963812	0.000658	20.777044
1567.423890	-2.999400	3.418500	-10.253000	25.971137	0.000659	20.776817
1568.426000	-2.977100	3.418500	-10.176000	25.990290	0.000656	20.791792
1569.421623	-3.017300	3.417100	-10.309000	25.967411	0.000657	20.811005
1570.422994	-2.968500	3.419300	-10.150000	25.929781	0.000658	20.798331
1571.422776	-2.983400	3.417400	-10.195000	25.869657	0.000654	20.785346
1572.422174	-3.003400	3.416300	-10.260000	25.830535	0.000656	20.776392
1573.427191	-3.001200	3.416700	-10.253000	25.805193	0.000656	20.766582
1574.424912	-3.003000	3.415100	-10.254000	25.760827	0.000654	20.783183
1575.425810	-3.006900	3.415000	-10.268000	25.785092	0.000653	20.794755
1576.426336	-3.008200	3.414300	-10.269000	25.812573	0.000654	20.776367
1577.428156	-3.004700	3.414800	-10.259000	25.856967	0.000654	20.781133
1578.427845	-3.020100	3.413000	-10.306000	25.900317	0.000654	20.771576
1579.432369	-3.014700	3.413600	-10.289000	25.920956	0.000652	20.777612
1580.427618	-3.022100	3.412100	-10.311000	25.928734	0.000652	20.782106
1581.430259	-3.001200	3.415100	-10.248000	25.948331	0.000651	20.781405
1582.430792	-2.985500	3.415300	-10.196000	25.959107	0.000653	20.762359
1583.429812	-3.006500	3.412800	-10.260000	25.975630	0.000652	20.785124
1584.430314	-3.019300	3.411800	-10.301000	25.970886	0.000651	20.777039
1585.432334	-3.014500	3.413000	-10.287000	25.966240	0.000652	20.770949
1586.431475	-3.004000	3.411200	-10.247000	25.994803	0.000650	20.776411
1587.433076	-2.997200	3.411100	-10.223000	25.998805	0.000650	20.771423
1588.431498	-2.992900	3.410200	-10.205000	25.999645	0.000651	20.770371
1589.440547	-3.001400	3.411400	-10.238000	25.970463	0.000650	20.781356
1590.433148	-2.977500	3.412200	-10.159000	25.956998	0.000648	20.756447
1591.434787	-3.027100	3.409200	-10.319000	25.963507	0.000648	20.762987
1592.432036	-3.020900	3.409500	-10.298000	25.949269	0.000648	20.761011
1593.431434	-2.990700	3.410300	-10.198000	25.957819	0.000647	20.770549
1594.436407	-2.979900	3.410400	-10.162000	25.955680	0.000647	20.772193
1595.431323	-3.008400	3.408100	-10.252000	25.958286	0.000646	20.786665
1596.431929	-3.008700	3.408200	-10.253000	25.977764	0.000646	20.753128
1597.450161	-3.007500	3.408200	-10.249000	25.980768	0.000646	20.768000
1598.433305	-3.017800	3.408000	-10.284000	25.931089	0.000645	20.765031
1599.439417	-3.034800	3.406500	-10.337000	25.942564	0.000644	20.785094
1600.436419	-3.004600	3.406400	-10.234000	25.901556	0.000647	20.753854
1601.440568	-3.012700	3.405700	-10.258000	25.900214	0.000644	20.784275
1602.434790	-3.013900	3.405300	-10.262000	25.844346	0.000642	20.756126
1603.441576	-3.020000	3.404800	-10.281000	25.836568	0.000640	20.770598
1604.435511	-3.010100	3.405300	-10.248000	25.829187	0.000641	20.771245
1605.434850	-3.026500	3.404100	-10.300000	25.828686	0.000640	20.767896
1606.437225	-3.004700	3.404100	-10.226000	25.845954	0.000641	20.745887
1607.434568	-3.011700	3.404100	-10.251000	25.861923	0.000638	20.780422
1608.432755	-2.980600	3.404400	-10.146000	25.880459	0.000639	20.753049
1609.437011	-2.992100	3.404300	-10.184000	25.890774	0.000640	20.759618
1610.435973	-3.002900	3.401600	-10.214000	25.940676	0.000638	20.767550
1611.434840	-3.006200	3.401800	-10.226000	25.978359	0.000639	20.754200
1612.436565	-2.958900	3.403600	-10.070000	25.992124	0.000635	20.739579
1613.436092	-3.002900	3.403100	-10.218000	26.031118	0.000638	20.750307
1614.437412	-2.981200	3.402400	-10.142000	26.025405	0.000637	20.738878
1615.440594	-2.991300	3.401800	-10.174000	26.028955	0.000636	20.763782
1616.437640	-2.995000	3.400100	-10.182000	26.044430	0.000636	20.753251
1617.437964	-2.998700	3.400800	-10.197000	26.005909	0.000634	20.767180
1618.443337	-3.003900	3.400500	-10.214000	25.973688	0.000635	20.766577
1619.437856	-2.983600	3.400100	-10.144000	25.922397	0.000633	20.755825
1620.437421	-3.020300	3.399200	-10.265000	25.926153	0.000634	20.749167
1621.443641	-2.986600	3.401100	-10.157000	25.949427	0.000634	20.749315
1622.440137	-2.979700	3.399700	-10.129000	25.949471	0.000633	20.754101
1623.444466	-3.031500	3.395900	-10.293000	25.959117	0.000633	20.736290
1624.444201	-3.027100	3.397100	-10.282000	25.949353	0.000631	20.743076
1625.440861	-3.020200	3.397300	-10.260000	25.959392	0.000631	20.757430
1626.441104	-3.014000	3.395900	-10.233000	25.986687	0.000633	20.738384
1627.444728	-3.016100	3.396700	-10.243000	25.981948	0.000631	20.750693
1628.441513	-2.992700	3.396900	-10.163000	25.975630	0.000630	20.753355
1629.441773	-2.989100	3.397000	-10.153000	25.986594	0.000629	20.744929
1630.446559	-2.998400	3.395100	-10.179000	25.984204	0.000629	20.731148
1631.443369	-3.004600	3.394900	-10.199000	25.989824	0.000629	20.741061
1632.441849	-2.977000	3.395300	-10.107000	26.023626	0.000628	20.748470
1633.446182	-2.991400	3.395600	-10.157000	26.018681	0.000628	20.749666
1634.442782	-3.006100	3.395600	-10.206000	26.033389	0.000629	20.730778
1635.445173	-2.990600	3.394400	-10.150000	26.035129	0.000628	20.753864
1636.444315	-2.982200	3.396000	-10.127000	26.038556	0.000626	20.756358
1637.442832	-2.989800	3.394000	-10.147000	26.026733	0.000626	20.748273
1638.441865	-3.030900	3.391500	-10.279000	26.028970	0.000627	20.739140
1639.446985	-2.992800	3.393200	-10.155000	25.990345	0.000626	20.756759
1640.441648	-3.018300	3.392400	-10.238000	26.003805	0.000625	20.724287
1641.442995	-3.007700	3.391900	-10.201000	26.016198	0.000625	20.747645
1642.448353	-3.001300	3.392600	-10.180000	26.011975	0.000628	20.724435
1643.443746	-3.013200	3.391100	-10.217000	26.038772	0.000626	20.721961
1644.443743	-2.993900	3.392000	-10.155000	26.047242	0.000624	20.729997
1645.446758	-2.995900	3.392200	-10.162000	26.053819	0.000623	20.738502
1646.444559	-3.023700	3.390300	-10.250000	26.069466	0.000621	20.731938
1647.442437	-2.989300	3.391500	-10.136000	26.078683	0.000623	20.731716
1648.448726	-2.976700	3.390800	-10.092000	26.089305	0.000624	20.721051
1649.445496	-3.019100	3.389700	-10.232000	26.102120	0.000623	20.738670
1650.444565	-3.000400	3.389700	-10.170000	26.093651	0.000624	20.729211
1651.447173	-3.008000	3.388800	-10.193000	26.101122	0.000622	20.718700
1652.446915	-3.003100	3.388200	-10.175000	26.083210	0.000619	20.745274
1653.447015	-2.999500	3.388500	-10.162000	26.106677	0.000620	20.742300
1654.448022	-3.018800	3.386400	-10.221000	26.088843	0.000619	20.731493
1655.447412	-3.006700	3.386700	-10.181000	26.031761	0.000618	20.720606
1656.447181	-3.014500	3.386500	-10.208000	26.010101	0.000621	20.745313
1657.450315	-3.018500	3.386100	-10.220000	26.021182	0.000619	20.727521
1658.447648	-3.003400	3.385500	-10.167000	26.031829	0.000619	20.733478
1659.448666	-2.970600	3.386900	-10.059000	26.038092	0.000618	20.714639
1660.446707	-3.005400	3.385000	-10.172000	26.037384	0.000616	20.721041
1661.450308	-2.972500	3.387300	-10.068000	26.025291	0.000616	20.740186
1662.449998	-3.015000	3.385000	-10.205000	26.026358	0.000615	20.745525
1663.454937	-3.000700	3.383900	-10.153000	26.032739	0.000616	20.723011
1664.448071	-3.015200	3.384700	-10.204000	26.011054	0.000615	20.722088
1665.448691	-2.987800	3.386300	-10.115000	26.062715	0.000613	20.722784
1666.454282	-3.002500	3.383500	-10.158000	26.089934	0.000613	20.741598
1667.451925	-2.991100	3.383700	-10.120000	26.131092	0.000612	20.743124
1668.450572	-2.976600	3.384100	-10.072000	26.110820	0.000610	20.735557
1669.456366	-2.993800	3.383700	-10.128000	26.107345	0.000613	20.734436
1670.452182	-3.021700	3.381600	-10.217000	26.106745	0.000612	20.752800
1671.449071	-3.017300	3.381500	-10.201000	26.089009	0.000610	20.741618
1672.454124	-3.001100	3.381300	-10.146000	26.091497	0.000610	20.739850
1673.454645	-3.006200	3.380800	-10.163000	26.114192	0.000609	20.757438
1674.457404	-3.014100	3.381200	-10.191000	26.121717	0.000609	20.728963
1675.458368	-3.005200	3.379000	-10.154000	26.066082	0.000610	20.752721
1676.455285	-3.000200	3.380200	-10.140000	26.082899	0.000608	20.726943
1677.453018	-2.993700	3.381000	-10.121000	26.068073	0.000608	20.742393
1678.459419	-2.998300	3.380100	-10.134000	26.058999	0.000609	20.753665
1679.457645	-3.003400	3.379300	-10.149000	26.095090	0.000610	20.746305
1680.454973	-2.995800	3.378700	-10.121000	26.110313	0.000608	20.736471
1681.459774	-3.002800	3.379400	-10.146000	26.108396	0.000605	20.718896
1682.457847	-2.984600	3.379600	-10.086000	26.091880	0.000603	20.743080
1683.457025	-3.004900	3.376900	-10.147000	26.091831	0.000607	20.743030
1684.465673	-3.007000	3.377300	-10.155000	26.058871	0.000607	20.741208
1685.457920	-2.995000	3.378700	-10.118000	26.062420	0.000605	20.750938
1686.455928	-3.009500	3.376300	-10.161000	26.042226	0.000604	20.734441
1687.459566	-3.017900	3.377000	-10.190000	26.041331	0.000603	20.743025
1688.461029	-2.997100	3.376600	-10.119000	26.054024	0.000602	20.736811
1689.457475	-2.999600	3.376000	-10.125000	26.068776	0.000602	20.763489
1690.461000	-2.997000	3.377000	-10.120000	26.085170	0.000603	20.742027
1691.458392	-3.002500	3.376000	-10.135000	26.092892	0.000599	20.736036
1692.458101	-2.991500	3.374400	-10.094000	26.073741	0.000601	20.740027
1693.460737	-2.980500	3.375500	-10.060000	26.109389	0.000601	20.727955
1694.462092	-3.000000	3.373000	-10.118000	26.103697	0.000599	20.744996
1695.462124	-2.994500	3.374700	-10.104000	26.049575	0.000600	20.742299
1696.463318	-2.986000	3.374500	-10.075000	26.000671	0.000599	20.746744
1697.461333	-2.991300	3.373000	-10.089000	25.931190	0.000598	20.740476
1698.462760	-2.991900	3.374200	-10.093000	25.955964	0.000597	20.735493
1699.462445	-3.016000	3.372200	-10.171000	25.948933	0.000597	20.747396
1700.463766	-2.999500	3.372300	-10.114000	25.997343	0.000597	20.742452
1701.462172	-3.002700	3.372000	-10.124000	26.012991	0.000597	20.724033
1702.461963	-2.958600	3.372600	-9.976600	26.008099	0.000596	20.760846
1703.465200	-2.995200	3.370500	-10.095000	26.026554	0.000594	20.740980
1704.463665	-2.998000	3.370600	-10.103000	26.012298	0.000594	20.732820
1705.464554	-3.013600	3.370100	-10.155000	26.001866	0.000593	20.740832
1706.463955	-3.016800	3.371100	-10.168000	25.981277	0.000594	20.753339
1707.464138	-2.997000	3.369300	-10.097000	25.968382	0.000593	20.741331
1708.463577	-3.002700	3.370000	-10.117000	25.983086	0.000591	20.749940
1709.463082	-2.990400	3.370600	-10.079000	25.995981	0.000593	20.745352
1710.466417	-3.010900	3.367400	-10.137000	26.006959	0.000592	20.727931
1711.469248	-2.986200	3.369400	-10.061000	26.004103	0.000591	20.734544
1712.464337	-2.997500	3.368200	-10.096000	25.969080	0.000591	20.773328
1713.470416	-2.989300	3.368800	-10.068000	25.975516	0.000590	20.736169
1714.468875	-2.995300	3.367200	-10.085000	25.978716	0.000589	20.755981
1715.468678	-2.998300	3.366700	-10.093000	26.002815	0.000589	20.728983
1716.467815	-3.011400	3.366900	-10.138000	26.032891	0.000588	20.769633
1717.468407	-3.011600	3.367700	-10.141000	26.076528	0.000587	20.735715
1718.467020	-3.005100	3.367100	-10.116000	26.078661	0.000587	20.736436
1719.465322	-2.997300	3.366400	-10.089000	26.029056	0.000589	20.752029
1720.472305	-3.017600	3.364100	-10.150000	26.008645	0.000588	20.741005
1721.467014	-3.009700	3.364800	-10.126000	25.987476	0.000586	20.753403
1722.468170	-2.999900	3.365900	-10.096000	25.988868	0.000586	20.756697
1723.471048	-2.986700	3.366000	-10.052000	26.025502	0.000586	20.759364
1724.469353	-3.014000	3.364900	-10.141000	26.027095	0.000586	20.741523
1725.472659	-2.999500	3.365000	-10.092000	26.054314	0.000583	20.753225
1726.473895	-2.992900	3.363800	-10.067000	26.088316	0.000583	20.741395
1727.471590	-2.985400	3.363800	-10.041000	26.082383	0.000583	20.756297
1728.470690	-2.998500	3.363000	-10.083000	26.089781	0.000584	20.763730
1729.472834	-2.991900	3.364200	-10.064000	26.129965	0.000584	20.762382
1730.473109	-2.999700	3.362300	-10.085000	26.095714	0.000583	20.738397
1731.471331	-2.996100	3.362800	-10.074000	26.122263	0.000582	20.757961
1732.471426	-2.995400	3.362300	-10.069000	26.099813	0.000582	20.763380
1733.470037	-3.012800	3.361000	-10.124000	26.130457	0.000581	20.745332
1734.471945	-3.024100	3.361600	-10.164000	26.147641	0.000580	20.747900
1735.470029	-3.001800	3.360600	-10.086000	26.133834	0.000580	20.752992
1736.471570	-2.992300	3.361400	-10.057000	26.129759	0.000580	20.764545
1737.471014	-3.005200	3.359900	-10.096000	26.169794	0.000578	20.765894
1738.472043	-3.003300	3.359900	-10.089000	26.191176	0.000579	20.751817
1739.474840	-3.010200	3.358900	-10.110000	26.177270	0.000578	20.756336
1740.472860	-2.985700	3.360100	-10.031000	26.199841	0.000577	20.761473
1741.471789	-2.994400	3.360700	-10.063000	26.212109	0.000577	20.753886
1742.472610	-3.039300	3.356400	-10.200000	26.218096	0.000576	20.762273
1743.472638	-2.995400	3.359000	-10.061000	26.197875	0.000576	20.770403
1744.473518	-2.990900	3.358200	-10.043000	26.145999	0.000576	20.760475
1745.478654	-2.996800	3.358000	-10.062000	26.129852	0.000573	20.777441
1746.478712	-3.010500	3.357300	-10.106000	26.127566	0.000574	20.755704
1747.474050	-2.993700	3.358300	-10.053000	26.076282	0.000573	20.777195
1748.474809	-2.983500	3.356500	-10.012000	26.047643	0.000572	20.765963
1749.475314	-3.002000	3.356900	-10.076000	26.080652	0.000574	20.766412
1750.477639	-2.984800	3.356400	-10.017000	26.095335	0.000571	20.758406
1751.475792	-3.012400	3.354400	-10.103000	26.124715	0.000572	20.771332
1752.476069	-2.992400	3.355100	-10.039000	26.105889	0.000571	20.762372
1753.476907	-2.983100	3.355700	-10.009000	26.104424	0.000571	20.786031
1754.478034	-3.017200	3.353000	-10.116000	26.137584	0.000569	20.774779
1755.479080	-3.008400	3.354500	-10.090000	26.124666	0.000571	20.759428
1756.479979	-3.003000	3.353000	-10.068000	26.137230	0.000572	20.761621
1757.478784	-3.018200	3.352000	-10.116000	26.152886	0.000570	20.775456
1758.480565	-2.995600	3.351600	-10.040000	26.176622	0.000568	20.745252
1759.482085	-3.005000	3.352100	-10.072000	26.164009	0.000567	20.771460
1760.479945	-3.010200	3.352600	-10.091000	26.186108	0.000570	20.781339
1761.480525	-3.015500	3.351700	-10.106000	26.199821	0.000567	20.782791
1762.480385	-3.000300	3.350800	-10.052000	26.232978	0.000566	20.759685
1763.483797	-3.008200	3.352100	-10.082000	26.241570	0.000566	20.762155
1764.480956	-2.995400	3.351000	-10.037000	26.235859	0.000566	20.755467
1765.487151	-2.984000	3.350000	-9.995500	26.246957	0.000566	20.785586
1766.485841	-2.999300	3.350100	-10.046000	26.274799	0.000566	20.773737
1767.481557	-2.997700	3.350200	-10.042000	26.290890	0.000565	20.786115
1768.487160	-3.007700	3.348100	-10.069000	26.274303	0.000566	20.770393
1769.488655	-3.011100	3.349300	-10.085000	26.264984	0.000564	20.782366
1770.483469	-2.992000	3.349400	-10.020000	26.206752	0.000562	20.769366
1771.483473	-2.998200	3.347900	-10.036000	26.194783	0.000565	20.777728
1772.482495	-3.010300	3.347300	-10.076000	26.230246	0.000563	20.788234
1773.483430	-2.997700	3.347500	-10.034000	26.249542	0.000563	20.772063
1774.483649	-3.003700	3.347000	-10.052000	26.283115	0.000563	20.780672
1775.482080	-3.006900	3.346600	-10.062000	26.251326	0.000561	20.784761
1776.482414	-3.017500	3.347200	-10.099000	26.251601	0.000560	20.788357
1777.484282	-3.028100	3.344800	-10.127000	26.241049	0.000561	20.791503
1778.485335	-3.003300	3.345900	-10.048000	26.232703	0.000560	20.773159
1779.484851	-2.994700	3.345800	-10.019000	26.258182	0.000559	20.778849
1780.486184	-2.976600	3.346600	-9.960700	26.258752	0.000557	20.778000
1781.485663	-2.980300	3.346200	-9.971600	26.233991	0.000558	20.792946
1782.486110	-2.994400	3.345000	-10.016000	26.210772	0.000561	20.787631
1783.484463	-3.008600	3.343700	-10.058000	26.195968	0.000557	20.770858
1784.484809	-2.997600	3.344400	-10.024000	26.212782	0.000558	20.782539
1785.486082	-2.980500	3.343900	-9.965700	26.238930	0.000556	20.814979
1786.491523	-2.977100	3.345900	-9.959500	26.285543	0.000555	20.775051
1787.485107	-3.003900	3.343000	-10.042000	26.299250	0.000555	20.785033
1788.487064	-3.011900	3.342700	-10.066000	26.285911	0.000554	20.773525
1789.491879	-3.010700	3.344000	-10.067000	26.280967	0.000555	20.798902
1790.490538	-3.008800	3.341200	-10.052000	26.266542	0.000552	20.791992
1791.489294	-2.980700	3.342800	-9.963200	26.265299	0.000551	20.798329
1792.488633	-3.007500	3.343000	-10.053000	26.292340	0.000554	20.789468
1793.492763	-3.003800	3.341100	-10.035000	26.307585	0.000551	20.806212
1794.487922	-3.000500	3.342000	-10.027000	26.321715	0.000551	20.803816
1795.489145	-2.991700	3.341300	-9.995600	26.320417	0.000553	20.802512
1796.492986	-3.024000	3.339500	-10.097000	26.303137	0.000551	20.814544
1797.489815	-2.984800	3.341500	-9.972700	26.276863	0.000552	20.789088
1798.490195	-3.002000	3.339000	-10.022000	26.287980	0.000551	20.800734
1799.493873	-2.992900	3.339000	-9.992400	26.312765	0.000552	20.795770
1800.489771	-2.993100	3.338000	-9.989500	26.285941	0.000551	20.797736
1801.491761	-3.013000	3.338000	-10.057000	26.232182	0.000551	20.786386
1802.495460	-2.979400	3.339100	-9.947400	26.212010	0.000548	20.806419
1803.494522	-2.996500	3.336800	-9.998000	26.221619	0.000549	20.788100
1804.493032	-3.002800	3.337200	-10.020000	26.245649	0.000548	20.803238
1805.495929	-2.996800	3.338600	-10.004000	26.291661	0.000552	20.810597
1806.495984	-3.037200	3.336500	-10.132000	26.325926	0.000548	20.804730
1807.494445	-2.976600	3.337300	-9.932300	26.305835	0.000548	20.805401
1808.497628	-3.013500	3.335600	-10.051000	26.326093	0.000548	20.813432
1809.494018	-3.019700	3.336000	-10.072000	26.310764	0.000546	20.826950
1810.494201	-2.998300	3.335100	-9.998600	26.329636	0.000544	20.807984
1811.504800	-3.022200	3.334200	-10.074000	26.366800	0.000545	20.822574
1812.498239	-3.004500	3.334600	-10.017000	26.348572	0.000546	20.805678
1813.496738	-2.983100	3.335000	-9.947800	26.381366	0.000542	20.801178
1814.498114	-3.016600	3.333000	-10.053000	26.405721	0.000544	20.795785
1815.500307	-3.011400	3.333700	-10.038000	26.413937	0.000541	20.808310
1816.501791	-2.972900	3.335000	-9.913000	26.422502	0.000542	20.827824
1817.498302	-3.001800	3.332900	-10.004000	26.405534	0.000541	20.815037
1818.501581	-2.989600	3.333000	-9.963600	26.411888	0.000540	20.816682
1819.497561	-3.008500	3.332800	-10.024000	26.414694	0.000539	20.803381
1820.497715	-3.001700	3.331300	-9.997700	26.447638	0.000540	20.812311
1821.498363	-2.997900	3.331800	-9.987900	26.457240	0.000537	20.832393
1822.497839	-3.012900	3.330600	-10.034000	26.462178	0.000539	20.807960
1823.500401	-3.002800	3.330300	-9.998300	26.479854	0.000535	20.844691
1824.500661	-3.005400	3.331700	-10.012000	26.499317	0.000538	20.839599
1825.499476	-2.984800	3.331400	-9.942600	26.489529	0.000536	20.844459
1826.499283	-2.970000	3.330600	-9.890900	26.509862	0.000536	20.842612
1827.501007	-3.009400	3.330100	-10.020000	26.531478	0.000535	20.833519
1828.500352	-3.006600	3.329200	-10.008000	26.511243	0.000534	20.822663
1829.499813	-3.026600	3.327400	-10.070000	26.490183	0.000535	20.832788
1830.503253	-3.011500	3.328100	-10.022000	26.490006	0.000535	20.825498
1831.501574	-2.980400	3.329000	-9.920200	26.512000	0.000535	20.834803
1832.501173	-2.985600	3.328100	-9.935200	26.516570	0.000535	20.828017
1833.505692	-2.981400	3.327400	-9.919600	26.528082	0.000534	20.834848
1834.502185	-2.993300	3.327900	-9.960200	26.482075	0.000532	20.840760
1835.502199	-3.011300	3.326100	-10.015000	26.487702	0.000532	20.852105
1836.506789	-3.011500	3.324300	-10.011000	26.443653	0.000532	20.838651
1837.503543	-3.025200	3.324700	-10.057000	26.445840	0.000532	20.844642
1838.504244	-3.014200	3.326000	-10.024000	26.455118	0.000532	20.844484
1839.504000	-2.988200	3.325400	-9.936000	26.457378	0.000530	20.834428
1840.505652	-2.985700	3.326400	-9.930600	26.418213	0.000529	20.855281
1841.503800	-3.007600	3.324600	-9.997800	26.418464	0.000531	20.842731
1842.506678	-2.984600	3.323400	-9.918200	26.433904	0.000529	20.853033
1843.505097	-3.006300	3.323700	-9.991400	26.445152	0.000528	20.838261
1844.508681	-3.009500	3.323000	-9.998800	26.451998	0.000526	20.851779
1845.507360	-3.012400	3.323600	-10.011000	26.464980	0.000527	20.825949
1846.505922	-3.017500	3.323800	-10.029000	26.467413	0.000526	20.853523
1847.506596	-2.992900	3.323200	-9.944400	26.506237	0.000526	20.860304
1848.507782	-2.992800	3.324200	-9.947400	26.508419	0.000525	20.846376
1849.522345	-3.008800	3.321700	-9.993500	26.524256	0.000525	20.837165
1850.507747	-3.011200	3.320400	-9.997500	26.542824	0.000523	20.854407
1851.507358	-3.002100	3.320200	-9.966300	26.559039	0.000522	20.852214
1852.506830	-3.003500	3.321400	-9.974800	26.584672	0.000521	20.859015
1853.507013	-3.014400	3.320100	-10.006000	26.590387	0.000523	20.847216
1854.508011	-3.011400	3.321100	-10.000000	26.579287	0.000523	20.866403
1855.511592	-3.003400	3.320000	-9.970700	26.562174	0.000519	20.851572
1856.514926	-3.009000	3.319700	-9.987500	26.539242	0.000521	20.858393
1857.510760	-2.971400	3.320300	-9.864800	26.502817	0.000521	20.856867
1858.514712	-2.989200	3.320300	-9.923900	26.463856	0.000520	20.858482
1859.514916	-3.003500	3.318300	-9.964300	26.439768	0.000520	20.851815
1860.512137	-3.012400	3.317400	-9.992100	26.414195	0.000518	20.862147
1861.510966	-3.005500	3.318400	-9.972200	26.447836	0.000518	20.857554
1862.510587	-2.969500	3.318800	-9.854000	26.457694	0.000517	20.861297
1863.511904	-3.013900	3.316500	-9.994200	26.424273	0.000518	20.865638
1864.517845	-2.990100	3.316900	-9.916500	26.460868	0.000517	20.869229
1865.511405	-3.000000	3.316800	-9.948400	26.478568	0.000515	20.871372
1866.511218	-2.998800	3.316900	-9.945500	26.489049	0.000517	20.869580
1867.510346	-2.988200	3.315900	-9.907200	26.486386	0.000516	20.859791
1868.515075	-3.006000	3.315800	-9.965800	26.520891	0.000515	20.873136
1869.511288	-2.993700	3.316000	-9.925800	26.544574	0.000513	20.860433
1870.514921	-3.014500	3.315000	-9.992500	26.569746	0.000515	20.875304
1871.516051	-2.997800	3.313300	-9.930800	26.563069	0.000513	20.883764
1872.510453	-3.008000	3.314300	-9.967100	26.585135	0.000514	20.878919
1873.513902	-2.996600	3.313800	-9.928800	26.605963	0.000510	20.866666
1874.519209	-2.996000	3.314600	-9.927200	26.623135	0.000511	20.873023
1875.515342	-3.001700	3.312800	-9.943200	26.643200	0.000511	20.890822
1876.513780	-2.990800	3.313100	-9.907100	26.671593	0.000509	20.886175
1877.515080	-3.002700	3.313500	-9.948600	26.645249	0.000509	20.882451
1878.521026	-2.974700	3.313500	-9.855300	26.661757	0.000508	20.892881
1879.514333	-3.005100	3.312400	-9.952600	26.635167	0.000507	20.889385
1880.518563	-2.990700	3.312500	-9.905000	26.658053	0.000509	20.864029
1881.517949	-3.026900	3.309600	-10.016000	26.663138	0.000506	20.878150
1882.515900	-3.045900	3.310100	-10.080000	26.681429	0.000505	20.876624
1883.515523	-3.014400	3.310300	-9.977900	26.670856	0.000506	20.890175
1884.515440	-3.015400	3.309400	-9.978000	26.684382	0.000506	20.887178
1885.515674	-3.008200	3.309900	-9.956000	26.675892	0.000504	20.902349
1886.516034	-2.977100	3.311200	-9.857000	26.704760	0.000505	20.863096
1887.516451	-3.029600	3.307300	-10.019000	26.713967	0.000503	20.891791
1888.520885	-3.006500	3.309200	-9.948000	26.728312	0.000504	20.895307
1889.519932	-2.990800	3.308600	-9.893800	26.722776	0.000501	20.903491
1890.521853	-2.991900	3.308200	-9.897000	26.704657	0.000502	20.885277
1891.517550	-3.007900	3.308000	-9.949000	26.683257	0.000500	20.867082
1892.517077	-2.981700	3.307300	-9.860700	26.630456	0.000501	20.888917
1893.522507	-2.987700	3.306400	-9.878300	26.575315	0.000499	20.884694
1894.517582	-2.987900	3.306600	-9.879200	26.529039	0.000501	20.893179
1895.518461	-3.009700	3.306100	-9.949400	26.514740	0.000499	20.889712
1896.518808	-2.986200	3.306700	-9.873300	26.462383	0.000499	20.903940
1897.518926	-2.985700	3.307200	-9.873400	26.479882	0.000498	20.898295
1898.518121	-2.994700	3.305600	-9.898200	26.500387	0.000496	20.882398
1899.521494	-3.004200	3.306100	-9.930800	26.506766	0.000496	20.889282
1900.523945	-3.011600	3.304900	-9.951800	26.581692	0.000498	20.895372
1901.525560	-3.000500	3.305800	-9.917300	26.578292	0.000498	20.899540
1902.523598	-3.011000	3.305600	-9.951100	26.582336	0.000496	20.900286
1903.525725	-3.002900	3.303000	-9.917000	26.562796	0.000496	20.891075
1904.522501	-3.002000	3.303400	-9.915800	26.507036	0.000494	20.879598
1905.522192	-3.003700	3.303300	-9.920300	26.491100	0.000495	20.870219
1906.525849	-2.995800	3.302800	-9.893100	26.486280	0.000493	20.864900
1907.522656	-2.994600	3.302000	-9.887400	26.508525	0.000493	20.855017
1908.522254	-2.982100	3.302900	-9.849100	26.534440	0.000492	20.879168
1909.524313	-2.998000	3.300600	-9.894200	26.570913	0.000490	20.851822
1910.525663	-2.982500	3.300400	-9.842600	26.615604	0.000490	20.879676
1911.522568	-2.982300	3.300800	-9.843000	26.666735	0.000492	20.864223
1912.525701	-2.979500	3.301700	-9.835800	26.674925	0.000490	20.880516
1913.524488	-2.986400	3.301300	-9.858200	26.684682	0.000489	20.894118
1914.524487	-3.028400	3.300500	-9.993000	26.668047	0.000490	20.857482
1915.527279	-2.996400	3.299200	-9.885400	26.650227	0.000489	20.875128
1916.524329	-3.009400	3.298400	-9.924300	26.636225	0.000490	20.862949
1917.524553	-3.005900	3.298700	-9.914400	26.616460	0.000490	20.875321
1918.524936	-3.006500	3.298500	-9.916000	26.632545	0.000489	20.887223
1919.524856	-2.985300	3.298600	-9.846700	26.639895	0.000490	20.878966
1920.526188	-2.976600	3.298300	-9.816600	26.627755	0.000487	20.879089
1921.527222	-2.994100	3.297200	-9.870800	26.621569	0.000485	20.874768
1922.525682	-2.994500	3.297200	-9.872000	26.563027	0.000485	20.882774
1923.526231	-2.963900	3.298200	-9.774600	26.574873	0.000486	20.859596
1924.527192	-3.004400	3.296100	-9.901800	26.585791	0.000487	20.876260
1925.531455	-2.983100	3.297000	-9.834300	26.547388	0.000485	20.853778
1926.528563	-3.021100	3.295300	-9.954800	26.594178	0.000482	20.859562
1927.527981	-2.989400	3.296100	-9.852400	26.577272	0.000483	20.866748
1928.530692	-3.020100	3.296000	-9.953600	26.558979	0.000479	20.832240
1929.531426	-2.991700	3.294800	-9.855000	26.543904	0.000480	20.849803
1930.526865	-2.980600	3.295600	-9.820700	26.523518	0.000479	20.888103
1931.527695	-2.974100	3.294100	-9.795500	26.487171	0.000480	20.850149
1932.528890	-2.987900	3.293900	-9.840500	26.497672	0.000479	20.856910
1933.527283	-2.982900	3.294000	-9.824600	26.470857	0.000479	20.842760
1934.532042	-3.001300	3.292500	-9.880700	26.460705	0.000477	20.860530
1935.530749	-3.005500	3.293100	-9.896100	26.400439	0.000478	20.854011
1936.530736	-2.996500	3.293000	-9.866200	26.399746	0.000477	20.865642
1937.529624	-2.992400	3.291700	-9.847600	26.361974	0.000475	20.843803
1938.530681	-2.995800	3.292700	-9.862300	26.414567	0.000477	20.859202
1939.531299	-2.997400	3.291700	-9.865800	26.434774	0.000476	20.853908
1940.533616	-3.013000	3.290100	-9.912000	26.444504	0.000476	20.837609
1941.532757	-3.014300	3.290900	-9.918900	26.471570	0.000475	20.844899
1942.532736	-3.004600	3.290400	-9.884700	26.509131	0.000473	20.853730
1943.532836	-3.000800	3.289700	-9.870100	26.565608	0.000473	20.841748
1944.536586	-2.999800	3.290200	-9.869600	26.587473	0.000473	20.850451
1945.533287	-3.010300	3.289400	-9.901200	26.635903	0.000471	20.820428
1946.534105	-3.012700	3.288000	-9.903900	26.647326	0.000473	20.858462
1947.532814	-2.997700	3.287900	-9.855300	26.673930	0.000470	20.835422
1948.533568	-3.006000	3.287700	-9.881900	26.640713	0.000470	20.840436
1949.534498	-2.996800	3.287200	-9.849400	26.632293	0.000470	20.829600
1950.534028	-3.006700	3.285900	-9.878300	26.588147	0.000469	20.866775
1951.536710	-3.010400	3.286400	-9.891500	26.561212	0.000468	20.847286
1952.533415	-3.004600	3.286100	-9.872100	26.530306	0.000467	20.848936
1953.533398	-2.996800	3.285600	-9.845200	26.502342	0.000466	20.836001
1954.539872	-3.006200	3.283500	-9.869900	26.484540	0.000468	20.842763
1955.535735	-3.013700	3.285400	-9.900300	26.499483	0.000465	20.843084
1956.536053	-2.976700	3.285900	-9.780700	26.515423	0.000466	20.837770
1957.536031	-2.978300	3.286800	-9.788200	26.558967	0.000465	20.862099
1958.535386	-3.021300	3.283300	-9.919000	26.603124	0.000464	20.832994
1959.536121	-3.002400	3.284600	-9.860700	26.661114	0.000463	20.837237
1960.536536	-2.986300	3.285300	-9.810200	26.666081	0.000461	20.842230
1961.540340	-2.995700	3.284600	-9.838600	26.673225	0.000462	20.832343
1962.537562	-2.991500	3.283300	-9.820200	26.700757	0.000462	20.834417
1963.535845	-2.998900	3.282100	-9.842000	26.740118	0.000460	20.842695
1964.540916	-2.996400	3.282100	-9.833900	26.767918	0.000460	20.857368
1965.538926	-3.009000	3.282000	-9.873400	26.782788	0.000457	20.833913
1966.537129	-3.018400	3.281700	-9.904500	26.766155	0.000459	20.847535
1967.540713	-3.005600	3.281400	-9.862100	26.744633	0.000458	20.837277
1968.539976	-3.001300	3.281500	-9.848000	26.720433	0.000457	20.833810
1969.538766	-2.983100	3.281200	-9.787400	26.694592	0.000456	20.838176
1970.542204	-3.001700	3.279400	-9.843200	26.692381	0.000457	20.846384
1971.540275	-2.997100	3.279500	-9.827900	26.686996	0.000455	20.840497
1972.539226	-2.992600	3.279400	-9.812500	26.685950	0.000455	20.820480
1973.540404	-3.020700	3.277700	-9.899800	26.731153	0.000454	20.809974
1974.541793	-3.010200	3.279200	-9.869100	26.764563	0.000454	20.820331
1975.539415	-2.985200	3.279500	-9.788400	26.795591	0.000454	20.840621
1976.541365	-2.998600	3.278000	-9.828400	26.796308	0.000452	20.825221
1977.540671	-3.000900	3.277400	-9.833400	26.788718	0.000450	20.820435
1978.540352	-2.996400	3.276300	-9.816300	26.801348	0.000451	20.835978
1979.542176	-2.988100	3.276900	-9.790500	26.808869	0.000451	20.825048
1980.543024	-3.021600	3.275500	-9.896800	26.799859	0.000449	20.806033
1981.542390	-3.020900	3.276300	-9.896100	26.818674	0.000450	20.836803
1982.542401	-2.993200	3.274900	-9.800900	26.827408	0.000450	20.836102
1983.547833	-3.010500	3.275500	-9.860100	26.835400	0.000447	20.845560
1984.542820	-2.999500	3.275000	-9.822600	26.826194	0.000447	20.832037
1985.543039	-3.009900	3.275000	-9.856400	26.856051	0.000445	20.828866
1986.551409	-3.020100	3.274000	-9.887800	26.854066	0.000445	20.828767
1987.542848	-3.005700	3.274500	-9.841500	26.894148	0.000445	20.839672
1988.543355	-3.021500	3.271800	-9.884800	26.927947	0.000445	20.824347
1989.547729	-3.011600	3.272800	-9.854700	26.940757	0.000444	20.811150
1990.544222	-2.992900	3.272000	-9.791900	26.931203	0.000444	20.819561
1991.543173	-2.978800	3.274600	-9.753600	26.886412	0.000445	20.814824
1992.546338	-2.969000	3.272700	-9.715300	26.825251	0.000441	20.821131
1993.554082	-2.997500	3.271500	-9.804900	26.785245	0.000440	20.824055
1994.545081	-2.992200	3.271600	-9.789000	26.749128	0.000440	20.815718
1995.542742	-2.989500	3.271200	-9.777300	26.700432	0.000440	20.819867
1996.544538	-2.987800	3.269900	-9.768600	26.689408	0.000441	20.811154
1997.551482	-3.021700	3.269400	-9.878300	26.672733	0.000438	20.812408
1998.542366	-2.972700	3.271900	-9.725400	26.694867	0.000439	20.811426
1999.545468	-3.013200	3.268500	-9.846900	26.662230	0.000439	20.811332
2000.544245	-3.019900	3.269800	-9.873000	26.655651	0.000437	20.814676
2001.544612	-2.990900	3.270800	-9.781900	26.664391	0.000435	20.807341
2002.547562	-3.004500	3.269400	-9.822100	26.636593	0.000438	20.814483
2003.544886	-3.015000	3.268300	-9.852100	26.632068	0.000436	20.817521
2004.544395	-3.020600	3.267000	-9.867200	26.662824	0.000434	20.808611
2005.545670	-3.004100	3.268000	-9.815800	26.668656	0.000435	20.793611
2006.543867	-3.014000	3.266200	-9.843500	26.690573	0.000434	20.800471
2007.544514	-3.006900	3.265800	-9.818500	26.694380	0.000434	20.810937
2008.546936	-2.989800	3.267500	-9.768100	26.725203	0.000433	20.816795
2009.545632	-3.011000	3.264500	-9.828800	26.743571	0.000430	20.812977
2010.545548	-2.986900	3.265500	-9.753000	26.768345	0.000432	20.790469
2011.546227	-3.001400	3.265300	-9.800500	26.798253	0.000429	20.821487
2012.546742	-3.024400	3.263300	-9.867900	26.840617	0.000429	20.798649
2013.545226	-2.998400	3.265300	-9.788800	26.870625	0.000431	20.804640
2014.547220	-2.991700	3.264600	-9.765800	26.914597	0.000429	20.826095
2015.547650	-2.997400	3.264400	-9.784100	26.924479	0.000428	20.788143
2016.546041	-3.001900	3.263800	-9.796300	26.940732	0.000426	20.792159
2017.550478	-3.008600	3.262300	-9.813600	26.976248	0.000429	20.791838
2018.555068	-3.013100	3.261300	-9.824800	26.964530	0.000427	20.813244
2019.549695	-2.990500	3.263200	-9.757800	26.926906	0.000424	20.803860
2020.548771	-3.028800	3.261700	-9.877800	26.865232	0.000425	20.798269
2021.551134	-3.000700	3.261600	-9.786100	26.869102	0.000425	20.807851
2022.552238	-2.993000	3.261500	-9.760400	26.850785	0.000424	20.798916
2023.551272	-2.993000	3.261400	-9.760100	26.857166	0.000423	20.787314
2024.550758	-2.984300	3.260800	-9.730500	26.870615	0.000423	20.799889
2025.555346	-3.016000	3.259800	-9.829200	26.897592	0.000422	20.799514
2026.552642	-2.999900	3.259300	-9.776000	26.926852	0.000421	20.796694
2027.550719	-2.979700	3.259000	-9.709700	26.957997	0.000421	20.794347
2028.552044	-2.999200	3.258300	-9.770700	27.021327	0.000418	20.798289
2029.553176	-3.002300	3.259300	-9.784100	27.011126	0.000419	20.779970
2030.550429	-3.001200	3.257200	-9.774600	27.039793	0.000416	20.786988
2031.557442	-2.986200	3.257900	-9.727300	27.010806	0.000417	20.786761
2032.555610	-2.986400	3.258300	-9.729800	27.000109	0.000416	20.786435
2033.552936	-2.993100	3.257200	-9.748200	26.932604	0.000415	20.802478
2034.553398	-2.977000	3.256700	-9.694600	26.882650	0.000416	20.784015
2035.553577	-3.018400	3.255400	-9.825200	26.855521	0.000416	20.795617
2036.554254	-3.004700	3.254700	-9.778300	26.867659	0.000416	20.774156
2037.551787	-2.970000	3.257500	-9.673900	26.897789	0.000415	20.775055
2038.552842	-2.991800	3.254000	-9.734400	26.881535	0.000415	20.796170
2039.553236	-2.981100	3.255500	-9.704400	26.875228	0.000411	20.786035
2040.553647	-3.024600	3.253700	-9.839900	26.912563	0.000413	20.786593
2041.556016	-2.985100	3.254300	-9.713100	26.885833	0.000411	20.800017
2042.554053	-2.988000	3.254800	-9.724200	26.856375	0.000408	20.786993
2043.555058	-2.969800	3.254800	-9.664900	26.866966	0.000410	20.782943
2044.555381	-2.988700	3.254800	-9.726100	26.874815	0.000409	20.766653
2045.556376	-2.985600	3.252700	-9.710300	26.893451	0.000408	20.767374
2046.559367	-2.991500	3.251900	-9.726600	26.916733	0.000409	20.773242
2047.555283	-2.971500	3.252600	-9.664000	26.903781	0.000406	20.774916
2048.559417	-2.994400	3.250300	-9.731500	26.900558	0.000408	20.779262
2049.562635	-2.993100	3.250600	-9.728100	26.955924	0.000406	20.773296
2050.558317	-3.008300	3.251000	-9.779100	26.972005	0.000405	20.767181
2051.563030	-3.005800	3.249600	-9.766700	26.933212	0.000404	20.768950
2052.560068	-2.995200	3.250100	-9.733700	26.909881	0.000403	20.765878
2053.559670	-2.973200	3.251700	-9.667000	26.901497	0.000403	20.774516
2054.564605	-2.977200	3.249700	-9.673800	26.909066	0.000402	20.779283
2055.567225	-2.989300	3.249600	-9.713300	26.921158	0.000405	20.768208
2056.559225	-2.999900	3.247600	-9.741700	26.907160	0.000400	20.760770
2057.559994	-2.989500	3.247200	-9.704800	26.853506	0.000399	20.770357
2058.564868	-3.006600	3.247000	-9.761300	26.812081	0.000399	20.764267
2059.565757	-3.015100	3.246200	-9.786800	26.809350	0.000396	20.769107
2060.561818	-2.975700	3.247200	-9.662100	26.784630	0.000396	20.759426
2061.565664	-2.979600	3.246000	-9.670500	26.816674	0.000396	20.768885
2062.561301	-3.003400	3.244600	-9.743200	26.824440	0.000397	20.760572
2063.562293	-3.001500	3.244700	-9.737600	26.893912	0.000395	20.755035
2064.563008	-2.982600	3.245600	-9.680200	26.907263	0.000395	20.740484
2065.562519	-2.967300	3.246300	-9.630300	26.957048	0.000396	20.764469
2066.565563	-2.989000	3.244800	-9.696500	26.977992	0.000392	20.779840
2067.564015	-2.974600	3.243800	-9.647900	27.025343	0.000392	20.756334
2068.565493	-2.980600	3.244000	-9.667700	27.016281	0.000393	20.766188
2069.566698	-3.006600	3.241900	-9.744900	26.996651	0.000394	20.767784
2070.563271	-3.022300	3.241600	-9.796000	27.008939	0.000392	20.763546
2071.565935	-3.000300	3.241800	-9.725100	27.038613	0.000392	20.756404
2072.565402	-2.987900	3.243000	-9.689600	27.003153	0.000390	20.768633
2073.564464	-3.008700	3.241400	-9.751300	27.012357	0.000390	20.745646
2074.565728	-2.984100	3.241900	-9.673500	27.042007	0.000391	20.762188
2075.567938	-3.008700	3.239700	-9.745800	27.054889	0.000388	20.749538
2076.567092	-3.020400	3.238500	-9.780900	27.054541	0.000387	20.757249
2077.568304	-3.000100	3.239100	-9.716900	27.057119	0.000389	20.765532
2078.567088	-3.003700	3.239700	-9.728800	27.046168	0.000387	20.744086
2079.567110	-2.975800	3.238800	-9.636800	26.992467	0.000390	20.752196
2080.573522	-2.995900	3.239200	-9.702500	26.973283	0.000388	20.745232
2081.568873	-2.982600	3.238000	-9.656800	26.996406	0.000386	20.742407
2082.571737	-3.002600	3.238300	-9.722200	27.058216	0.000387	20.744823
2083.572450	-3.011300	3.236400	-9.744300	27.080596	0.000385	20.746942
2084.568914	-2.969200	3.238100	-9.612900	27.057990	0.000384	20.718042
2085.572236	-2.993200	3.236300	-9.684900	27.013686	0.000383	20.765001
2086.577125	-3.020500	3.236100	-9.773400	27.046960	0.000384	20.743461
2087.573186	-2.997600	3.237800	-9.704100	27.026903	0.000384	20.748894
2088.575356	-3.021700	3.234800	-9.773300	27.030145	0.000381	20.753577
2089.574506	-3.011300	3.234000	-9.737500	27.065334	0.000382	20.734437
2090.572559	-2.986400	3.234700	-9.658500	27.063169	0.000380	20.721828
2091.573938	-2.973300	3.234100	-9.615100	27.077559	0.000378	20.736300
2092.575492	-3.013300	3.233200	-9.741600	27.097724	0.000378	20.751366
2093.574020	-3.005300	3.232300	-9.713100	27.052410	0.000380	20.746570
2094.574715	-3.023900	3.231500	-9.770900	27.049223	0.000378	20.768496
2095.574909	-3.002700	3.232300	-9.704600	27.026190	0.000378	20.743909
2096.576834	-3.001300	3.231400	-9.697700	26.993180	0.000378	20.760975
2097.575730	-2.999000	3.230300	-9.685800	27.034142	0.000375	20.735785
2098.576691	-3.020500	3.230300	-9.755500	27.074439	0.000377	20.748810
2099.576646	-2.972200	3.232000	-9.604600	27.110830	0.000376	20.742736
2100.577256	-2.990100	3.229500	-9.656000	27.101696	0.000376	20.756783
2101.577576	-2.991100	3.227900	-9.654400	27.072113	0.000373	20.742203
2102.581632	-2.994300	3.228700	-9.666800	27.020717	0.000372	20.761640
2103.579883	-3.032000	3.227700	-9.785100	27.036046	0.000371	20.744812
2104.580101	-3.004100	3.229200	-9.700400	27.057278	0.000368	20.763795
2105.582897	-2.999900	3.227500	-9.680900	27.031936	0.000370	20.782406
2106.579977	-3.006300	3.228500	-9.704700	27.053124	0.000369	20.755349
2107.580773	-2.998800	3.228300	-9.680000	27.095350	0.000369	20.772687
2108.582879	-3.016300	3.226700	-9.731600	27.099938	0.000367	20.749799
2109.581071	-3.032800	3.224900	-9.779400	27.092012	0.000367	20.756053
2110.581708	-3.018200	3.225000	-9.732500	27.073194	0.000366	20.736652
2111.581137	-3.002800	3.224600	-9.681700	27.098079	0.000365	20.763577
2112.580924	-3.001600	3.224300	-9.677000	27.133134	0.000364	20.754262
2113.583848	-2.989400	3.224700	-9.637700	27.121716	0.000364	20.766013
2114.583056	-2.986800	3.224900	-9.631600	27.154983	0.000362	20.759642
2115.582455	-2.985000	3.223800	-9.622200	27.114312	0.000361	20.737228
2116.581706	-2.999200	3.223500	-9.666600	27.160057	0.000358	20.744831
2117.582009	-2.980400	3.224300	-9.609200	27.188834	0.000357	20.757653
2118.584548	-2.981800	3.222800	-9.608000	27.221308	0.000356	20.753332
2119.585518	-2.985700	3.222400	-9.620200	27.252096	0.000358	20.735936
2120.582026	-3.006900	3.222200	-9.688100	27.296844	0.000357	20.761982
2121.582233	-3.005900	3.221100	-9.681300	27.327851	0.000357	20.762353
2122.582458	-3.007600	3.220300	-9.684300	27.315813	0.000355	20.738388
2123.583447	-3.010000	3.222000	-9.696300	27.297577	0.000354	20.764142
2124.583580	-3.000800	3.220000	-9.661900	27.306602	0.000355	20.759944
2125.588078	-2.969600	3.221000	-9.562600	27.336421	0.000354	20.749162
2126.583736	-3.004700	3.218900	-9.670800	27.339617	0.000353	20.733411
2127.588444	-2.977200	3.217900	-9.578900	27.350307	0.000351	20.758863
2128.589378	-3.006800	3.219000	-9.677900	27.360647	0.000350	20.737496
2129.586711	-3.010000	3.216900	-9.681800	27.369058	0.000351	20.757338
2130.584846	-3.018300	3.216700	-9.708100	27.342457	0.000349	20.770408
2131.589421	-2.996100	3.217600	-9.639500	27.359848	0.000349	20.764194
2132.586873	-2.993100	3.216400	-9.625700	27.375799	0.000346	20.755585
2133.584621	-3.010400	3.214100	-9.675400	27.358327	0.000347	20.756500
2134.591866	-2.994600	3.215400	-9.628300	27.353412	0.000346	20.755823
2135.588555	-3.013500	3.214200	-9.685000	27.375442	0.000345	20.749536
2136.586338	-3.022900	3.214700	-9.716000	27.361249	0.000345	20.750430
2137.589384	-3.016600	3.214000	-9.693500	27.309670	0.000345	20.742167
2138.587864	-2.969800	3.214600	-9.545300	27.304555	0.000342	20.750298
2139.588656	-3.000500	3.212500	-9.637900	27.292029	0.000343	20.765673
2140.592732	-3.001200	3.212700	-9.641000	27.286098	0.000342	20.738369
2141.592313	-3.002500	3.212500	-9.644700	27.298148	0.000342	20.751440
2142.591260	-2.998900	3.212000	-9.630900	27.343349	0.000340	20.764667
2143.590133	-3.001400	3.209900	-9.633200	27.312535	0.000340	20.748842
2144.595242	-3.004100	3.211100	-9.643300	27.347267	0.000337	20.755806
2145.596189	-3.017900	3.212600	-9.695200	27.384646	0.000337	20.755476
2146.592819	-2.978500	3.211900	-9.565300	27.413245	0.000339	20.762910
2147.592577	-2.984700	3.211200	-9.583200	27.415376	0.000337	20.762683
2148.593350	-3.003800	3.208600	-9.636800	27.399474	0.000335	20.744314
2149.597041	-2.992900	3.209000	-9.602800	27.389675	0.000335	20.761009
2150.594398	-3.041700	3.207400	-9.755600	27.356284	0.000333	20.756816
2151.598918	-3.021300	3.206900	-9.687800	27.314653	0.000334	20.742912
2152.600660	-2.993300	3.207200	-9.598300	27.298430	0.000333	20.768319
2153.594254	-2.977500	3.207400	-9.548500	27.270541	0.000333	20.751171
2154.601584	-2.975200	3.207600	-9.542100	27.283912	0.000333	20.746128
2155.593153	-3.004600	3.205200	-9.629600	27.300032	0.000333	20.748119
2156.593854	-3.020100	3.205200	-9.679100	27.305590	0.000332	20.750391
2157.594481	-3.020500	3.205000	-9.679000	27.345680	0.000331	20.750416
2158.597729	-3.013300	3.206200	-9.659800	27.334712	0.000329	20.766410
2159.596337	-3.003600	3.205100	-9.626200	27.321981	0.000330	20.750758
2160.592432	-3.013200	3.203800	-9.651700	27.262916	0.000330	20.767684
2161.594244	-3.010100	3.201800	-9.635200	27.258022	0.000329	20.757544
2162.594225	-3.025300	3.202700	-9.687600	27.224004	0.000330	20.765053
2163.593538	-3.002600	3.201600	-9.612900	27.235485	0.000327	20.764273
2164.595545	-3.014400	3.201200	-9.649200	27.188713	0.000329	20.767489
2165.598553	-3.012300	3.201300	-9.642300	27.172410	0.000328	20.762471
2166.596939	-2.994700	3.201700	-9.586600	27.200740	0.000328	20.747343
2167.595230	-2.998600	3.199500	-9.593200	27.237382	0.000327	20.760018
2168.600171	-3.009600	3.198900	-9.626600	27.256057	0.000327	20.779277
2169.597703	-2.972200	3.199700	-9.509000	27.293169	0.000324	20.766346
2170.597840	-3.003700	3.198500	-9.606400	27.259476	0.000326	20.764697
2171.600808	-2.988800	3.198700	-9.559200	27.285176	0.000325	20.744555
2172.597171	-3.003800	3.198200	-9.606000	27.285344	0.000324	20.775071
2173.598455	-2.985900	3.197600	-9.547100	27.303125	0.000324	20.745540
2174.601288	-3.000400	3.197200	-9.591800	27.312745	0.000324	20.760907
2175.597945	-2.977700	3.196000	-9.515900	27.307461	0.000321	20.768395
2176.605921	-2.998900	3.195200	-9.581000	27.313703	0.000322	20.758553
2177.601080	-3.011300	3.195900	-9.622900	27.341509	0.000321	20.773722
2178.598008	-2.996600	3.195200	-9.574000	27.359121	0.000320	20.793809
2179.598194	-2.979800	3.196800	-9.523100	27.358990	0.000320	20.778504
2180.600040	-2.974100	3.193600	-9.497200	27.387663	0.000319	20.773684
2181.599144	-2.981600	3.193900	-9.521900	27.427992	0.000318	20.776797
2182.609358	-2.992300	3.193500	-9.555300	27.444955	0.000317	20.777267
2183.598418	-2.991100	3.192600	-9.548400	27.485187	0.000319	20.777914
2184.599579	-2.994900	3.192200	-9.559700	27.513558	0.000318	20.789389
2185.604536	-3.004900	3.192300	-9.590900	27.551324	0.000314	20.785661
2186.601377	-2.988800	3.192200	-9.540100	27.595990	0.000314	20.791248
2187.606260	-3.001400	3.193100	-9.582800	27.586016	0.000314	20.759875
2188.602160	-2.962700	3.191300	-9.453500	27.550291	0.000315	20.791735
2189.601398	-2.991300	3.190400	-9.542700	27.535457	0.000313	20.796724
2190.604730	-3.001900	3.188200	-9.569600	27.547775	0.000313	20.775926
2191.608974	-2.998600	3.189900	-9.564000	27.557918	0.000314	20.788028
2192.606163	-3.005500	3.189100	-9.583600	27.569248	0.000312	20.775246
2193.604184	-2.994800	3.189400	-9.550300	27.574026	0.000311	20.775786
2194.600598	-3.025700	3.186500	-9.640500	27.577964	0.000310	20.800137
2195.604347	-3.000000	3.187100	-9.560000	27.570543	0.000310	20.799783
2196.603269	-3.013900	3.188000	-9.607100	27.553279	0.000311	20.791895
2197.604058	-3.008900	3.185800	-9.584300	27.521368	0.000309	20.781600
2198.609067	-3.018500	3.186100	-9.616600	27.520598	0.000307	20.790782
2199.605609	-2.975500	3.185100	-9.475800	27.538944	0.000306	20.785533
2200.611273	-2.987200	3.184500	-9.511000	27.560171	0.000307	20.784132
2201.606627	-2.980500	3.183900	-9.488800	27.601284	0.000306	20.791834
2202.608086	-3.003100	3.182500	-9.556000	27.613881	0.000307	20.787438
2203.607859	-3.005000	3.183800	-9.565900	27.606259	0.000305	20.788304
2204.606997	-3.004000	3.183400	-9.562100	27.596089	0.000305	20.785657
2205.607783	-2.996700	3.183000	-9.536400	27.594515	0.000304	20.786445
2206.607843	-2.998200	3.182500	-9.540900	27.577866	0.000300	20.789134
2207.608626	-3.005700	3.183100	-9.566500	27.597433	0.000301	20.781794
2208.614684	-3.001100	3.179700	-9.541100	27.615283	0.000300	20.795013
2209.613707	-2.993900	3.179700	-9.519400	27.642859	0.000301	20.801425
2210.610413	-2.991200	3.180400	-9.512300	27.672587	0.000301	20.803363
2211.618017	-2.984500	3.179000	-9.486800	27.643614	0.000299	20.806451
2212.610441	-2.981100	3.177600	-9.471500	27.575454	0.000297	20.827009
2213.616392	-3.005800	3.176400	-9.546500	27.513592	0.000299	20.812182
2214.613460	-3.002300	3.178600	-9.541800	27.534717	0.000297	20.808781
2215.614326	-2.993900	3.179300	-9.517600	27.543442	0.000297	20.817559
2216.620285	-2.985900	3.176800	-9.484700	27.584662	0.000295	20.798816
2217.617493	-3.003500	3.174900	-9.535100	27.617620	0.000295	20.815857
2218.613643	-3.035700	3.174600	-9.636300	27.621287	0.000294	20.819073
2219.614257	-2.996200	3.175200	-9.512700	27.609871	0.000294	20.782930
2220.616400	-3.002200	3.174300	-9.528900	27.613564	0.000293	20.829319
2221.612998	-3.003400	3.173600	-9.530600	27.585388	0.000292	20.796701
2222.613806	-3.006200	3.172900	-9.537100	27.571988	0.000291	20.805504
2223.616807	-3.011700	3.172400	-9.553800	27.575283	0.000291	20.803130
2224.613806	-3.020800	3.170200	-9.573800	27.557171	0.000293	20.790122
2225.724809	-3.013300	3.171500	-9.555500	27.569821	0.000292	20.812807
2226.637809	-2.987700	3.169900	-9.468600	27.546377	0.000292	20.811030
2227.630806	-3.004400	3.171800	-9.528400	27.559565	0.000291	20.813393
2228.644809	-2.984900	3.170900	-9.464500	27.579283	0.000292	20.788189
2229.693809	-2.990700	3.169900	-9.478300	27.605542	0.000291	20.808446
2230.734808	-3.001300	3.168900	-9.509800	27.643756	0.000287	20.815129
2231.642808	-3.021700	3.167900	-9.571100	27.691344	0.000288	20.828401
2232.671811	-2.995800	3.167400	-9.487700	27.713335	0.000289	20.824452
2233.671851	-3.021400	3.167800	-9.570400	27.742921	0.000286	20.823405
2234.646852	-2.981300	3.167800	-9.443200	27.709090	0.000286	20.834879
2235.687850	-3.006100	3.166500	-9.517700	27.705538	0.000284	20.819925
2236.946856	-2.980100	3.166400	-9.434800	27.708636	0.000283	20.826836
2237.760955	-3.011900	3.165000	-9.531000	27.695066	0.000284	20.821715
2238.710948	-3.029700	3.163400	-9.583500	27.733478	0.000281	20.828601
2239.693771	-3.025300	3.163900	-9.570200	27.760060	0.000282	20.837807
2240.679302	-3.014000	3.163700	-9.533700	27.794521	0.000280	20.835977
2241.683588	-3.007100	3.162400	-9.508100	27.795340	0.000280	20.825423
2242.683273	-2.995800	3.162900	-9.474200	27.813559	0.000278	20.839965
2243.679842	-3.005700	3.162900	-9.505900	27.852438	0.000278	20.821247
2244.680944	-3.008000	3.160300	-9.504300	27.835355	0.000277	20.865217
2245.688742	-3.000600	3.159000	-9.477900	27.778441	0.000277	20.828804
2246.684516	-3.008200	3.159200	-9.502400	27.748705	0.000276	20.833966
2247.684536	-2.994600	3.160400	-9.463400	27.704365	0.000276	20.828701
2248.688565	-3.012000	3.157500	-9.509400	27.705106	0.000274	20.831818
2249.683963	-3.003700	3.158500	-9.485700	27.688509	0.000276	20.839772
2250.687153	-2.991800	3.158700	-9.448400	27.680453	0.000273	20.825028
2251.684831	-2.995100	3.158100	-9.458500	27.654557	0.000276	20.829316
2252.686997	-2.987600	3.159000	-9.436900	27.691951	0.000272	20.847977
2253.686701	-3.018300	3.155100	-9.522200	27.630300	0.000272	20.827667
2254.685706	-3.015200	3.156800	-9.516200	27.634664	0.000271	20.848179
2255.688359	-3.017700	3.151900	-9.510600	27.665936	0.000271	20.848352
2256.688905	-3.016600	3.154900	-9.515600	27.660499	0.000271	20.848097
2257.684630	-2.984900	3.154900	-9.416000	27.701621	0.000269	20.839690
2258.688831	-3.010000	3.152500	-9.487800	27.725471	0.000271	20.839509
2259.688480	-3.000300	3.151600	-9.454700	27.736952	0.000268	20.837786
2260.688090	-2.993300	3.152400	-9.435000	27.728544	0.000271	20.837860
2261.690843	-2.978800	3.152900	-9.390900	27.749694	0.000270	20.842074
2262.690054	-2.998200	3.151200	-9.445700	27.757081	0.000269	20.840974
2263.689350	-3.015000	3.149100	-9.493400	27.790308	0.000269	20.861135
2264.691370	-2.993600	3.149000	-9.425500	27.783364	0.000268	20.872637
2265.691672	-2.994800	3.149200	-9.430000	27.771930	0.000269	20.849752
2266.689822	-2.986600	3.147500	-9.397800	27.741202	0.000266	20.849175
2267.693817	-2.993100	3.147300	-9.418400	27.707248	0.000268	20.842982
2268.688555	-2.995500	3.146500	-9.423700	27.734774	0.000268	20.837965
2269.688989	-3.016700	3.145600	-9.488500	27.729981	0.000265	20.836461
2270.690458	-2.996600	3.144900	-9.421800	27.689409	0.000264	20.851584
2271.687021	-2.998600	3.145400	-9.430700	27.667161	0.000263	20.849584
2272.690011	-3.001700	3.144000	-9.435400	27.665891	0.000266	20.867746
2273.689225	-2.984600	3.145300	-9.385900	27.628714	0.000263	20.837925
2274.690027	-2.993000	3.143900	-9.409400	27.619659	0.000261	20.857262
2275.688708	-2.996300	3.143400	-9.417700	27.581657	0.000262	20.836095
2276.688900	-2.995000	3.143500	-9.413100	27.597082	0.000261	20.861571
2277.690521	-3.031300	3.141000	-9.519200	27.656730	0.000262	20.857106
2278.689155	-2.986000	3.141700	-9.378800	27.711135	0.000260	20.856376
2279.690461	-3.005800	3.139700	-9.436500	27.739332	0.000260	20.851561
2280.692522	-3.013200	3.138800	-9.456500	27.748601	0.000261	20.848086
2281.694522	-3.000800	3.138100	-9.415800	27.766009	0.000259	20.851854
2282.689192	-3.008800	3.136400	-9.435200	27.796237	0.000259	20.881798
2283.693440	-2.973600	3.137200	-9.327800	27.808061	0.000256	20.833483
2284.692634	-3.003300	3.136200	-9.417300	27.796110	0.000255	20.861284
2285.691594	-2.991900	3.135500	-9.380400	27.805054	0.000254	20.886405
2286.692709	-2.979700	3.136900	-9.346300	27.824002	0.000253	20.876077
2287.691829	-3.000400	3.135100	-9.405200	27.813437	0.000253	20.876349
2288.690553	-3.005500	3.132700	-9.413600	27.881373	0.000253	20.861746
2289.692992	-2.997800	3.133300	-9.392400	27.870362	0.000253	20.864888
2290.694018	-2.997800	3.131700	-9.387300	27.900513	0.000252	20.870578
2291.693886	-2.995400	3.132900	-9.381800	27.908378	0.000253	20.863321
2292.694367	-3.011400	3.131100	-9.428100	27.937409	0.000252	20.844179
2293.694104	-2.994200	3.131500	-9.374600	27.955061	0.000252	20.864315
2294.695297	-3.000000	3.129900	-9.388600	27.991706	0.000251	20.867061
2295.695601	-3.002700	3.128300	-9.392300	28.035190	0.000252	20.880959
2296.699443	-2.973200	3.127900	-9.298900	28.030778	0.000252	20.866088
2297.694752	-2.992000	3.127300	-9.355600	28.023512	0.000249	20.861145
2298.692919	-2.978900	3.126400	-9.310800	28.033278	0.000249	20.875241
2299.696360	-2.985500	3.126200	-9.331900	28.056956	0.000250	20.888170
2300.694310	-2.991900	3.125800	-9.351500	28.065607	0.000249	20.877912
2301.692178	-3.008200	3.123100	-9.394400	28.025663	0.000249	20.877060
2302.695278	-3.007200	3.122600	-9.388500	27.987037	0.000248	20.871844
2303.697203	-3.009900	3.122700	-9.397900	27.997302	0.000250	20.871745
2304.696646	-2.989800	3.122500	-9.335300	28.028465	0.000247	20.864708
2305.694505	-2.985800	3.121600	-9.320000	28.012970	0.000248	20.880403
2306.695687	-2.988200	3.120600	-9.323500	27.978755	0.000247	20.863508
2307.695245	-2.987200	3.121200	-9.321900	27.970251	0.000249	20.876285
2308.694637	-3.025900	3.118500	-9.434600	27.939975	0.000247	20.869994
2309.695445	-3.024000	3.116400	-9.422800	27.960080	0.000247	20.887384
2310.694685	-3.012000	3.117700	-9.389900	27.940717	0.000245	20.882593
2311.695305	-3.021900	3.116500	-9.417000	27.949323	0.000246	20.885565
2312.698295	-3.002500	3.114400	-9.349800	27.942749	0.000246	20.896491
2313.696809	-3.000300	3.113900	-9.341900	27.942401	0.000246	20.891399
2314.701022	-2.975600	3.115200	-9.268600	27.983261	0.000245	20.880371
2315.699592	-2.974800	3.113800	-9.262100	28.000195	0.000246	20.893621
2316.696134	-2.988900	3.111900	-9.299900	27.998237	0.000244	20.903978
2317.701376	-2.977300	3.112500	-9.265300	28.000789	0.000242	20.884263
2318.702324	-2.985700	3.112600	-9.292000	28.023522	0.000244	20.891498
2319.698738	-2.977700	3.110900	-9.262300	28.009194	0.000242	20.872810
2320.702793	-2.969900	3.111000	-9.238100	27.977903	0.000242	20.884935
2321.702999	-3.004200	3.109000	-9.338400	27.914852	0.000241	20.879320
2322.698355	-2.988200	3.108400	-9.287700	27.902108	0.000242	20.892571
2323.699200	-2.996300	3.107800	-9.311100	27.923357	0.000241	20.864647
2324.700420	-2.984000	3.106800	-9.268900	27.938055	0.000240	20.877544
2325.701211	-2.973100	3.106500	-9.234900	27.965381	0.000241	20.893667
2326.699464	-2.997000	3.104600	-9.303300	27.983556	0.000240	20.905322
2327.701945	-2.980900	3.104900	-9.254500	28.019627	0.000240	20.890897
2328.699820	-2.963800	3.105100	-9.201300	28.033386	0.000241	20.875350
2329.701240	-2.976500	3.103300	-9.235500	28.013901	0.000239	20.892245
2330.701654	-2.995800	3.102200	-9.292100	27.983925	0.000240	20.885781
2331.701036	-2.993400	3.099800	-9.277700	27.959254	0.000240	20.890819
2332.700016	-2.996300	3.099800	-9.286800	27.972222	0.000241	20.907664
2333.701625	-3.012900	3.098500	-9.334700	27.970285	0.000240	20.900499
2334.703352	-2.996400	3.098800	-9.284200	27.931460	0.000238	20.923532
2335.702330	-2.987600	3.097600	-9.253300	27.888094	0.000240	20.881786
2336.701341	-2.961500	3.098600	-9.174800	27.887222	0.000238	20.901295
2337.704180	-2.996300	3.095600	-9.274300	27.895161	0.000238	20.911181
2338.705846	-2.982500	3.096100	-9.233000	27.943659	0.000238	20.915897
2339.704865	-2.998300	3.094300	-9.275600	27.957214	0.000239	20.887344
2340.710900	-2.987200	3.094300	-9.242200	27.986744	0.000239	20.888144
2341.705229	-2.988400	3.092800	-9.241800	27.994605	0.000237	20.906960
2342.705841	-3.023600	3.090900	-9.345000	27.994724	0.000237	20.913243
2343.706242	-3.013700	3.090100	-9.311100	28.006873	0.000236	20.916937
2344.703952	-2.979700	3.091500	-9.211300	28.043636	0.000236	20.912691
2345.705986	-3.008800	3.089700	-9.295200	28.068252	0.000238	20.912815
2346.705850	-2.984300	3.089600	-9.219500	28.120068	0.000237	20.921827
2347.706423	-2.999600	3.086900	-9.258500	28.121821	0.000237	20.901309
2348.703753	-3.020000	3.085800	-9.317600	28.130795	0.000236	20.903230
2349.704848	-2.994000	3.084300	-9.233700	28.111382	0.000236	20.900283
2350.706209	-3.011900	3.084500	-9.289800	28.081729	0.000236	20.904097
2351.705965	-2.966800	3.086400	-9.156000	28.065911	0.000235	20.913303
2352.707067	-3.006300	3.082200	-9.264800	27.994066	0.000235	20.924908
2353.706960	-2.983000	3.081900	-9.192300	27.977821	0.000236	20.927522
2354.709733	-2.994100	3.081500	-9.224800	27.939784	0.000234	20.909626
2355.706777	-2.997800	3.080100	-9.232500	27.962096	0.000234	20.916437
2356.712929	-2.988500	3.079900	-9.203600	27.946621	0.000234	20.901336
2357.712845	-2.999400	3.078200	-9.229600	27.977983	0.000233	20.919151
2358.709133	-3.010300	3.078000	-9.264600	28.016384	0.000233	20.916554
2359.713237	-2.993500	3.075600	-9.205500	28.039610	0.000234	20.932818
2360.712987	-3.028000	3.074300	-9.308000	27.998333	0.000234	20.931099
2361.709209	-3.019200	3.073700	-9.278500	27.962922	0.000233	20.894511
2362.711261	-3.032700	3.072300	-9.315700	27.942219	0.000233	20.927249
2363.714741	-3.003400	3.074100	-9.231500	27.923892	0.000233	20.915917
2364.710344	-3.019600	3.070400	-9.270500	27.952179	0.000233	20.911197
2365.711700	-3.005400	3.069200	-9.223100	27.943495	0.000233	20.943704
2366.711832	-2.979100	3.069600	-9.142300	27.961916	0.000232	20.907722
2367.710669	-3.025600	3.067700	-9.279700	27.993147	0.000230	20.926354
2368.709657	-3.013500	3.067800	-9.243800	28.022746	0.000231	20.933861
2369.710766	-2.997200	3.066400	-9.189300	28.071463	0.000230	20.922210
2370.710665	-3.022000	3.064600	-9.260100	28.090870	0.000230	20.934158
2371.710874	-3.007900	3.064200	-9.215100	28.129538	0.000230	20.927093
2372.713741	-3.001300	3.063900	-9.194500	28.197676	0.000230	20.933100
2373.712153	-3.008000	3.062500	-9.210700	28.183969	0.000229	20.911242
2374.711301	-3.001200	3.061800	-9.188900	28.165671	0.000229	20.922217
2375.715965	-2.989400	3.060400	-9.147800	28.160237	0.000229	20.921488
2376.711638	-3.008800	3.059900	-9.206000	28.148884	0.000228	20.917172
2377.711481	-2.991800	3.058500	-9.148900	28.076469	0.000230	20.904491
2378.716283	-2.989300	3.057300	-9.137900	28.006104	0.000228	20.914741
2379.711360	-3.000600	3.056400	-9.169900	27.943899	0.000227	20.910449
2380.711736	-3.021900	3.053500	-9.226200	27.944465	0.000227	20.921923
2381.711932	-2.986100	3.054200	-9.118800	27.975306	0.000225	20.908871
2382.711743	-3.002900	3.053400	-9.168200	27.998782	0.000226	20.910690
2383.712029	-2.980400	3.053800	-9.100700	28.041570	0.000224	20.898285
2384.712058	-3.023900	3.052000	-9.227800	28.078409	0.000225	20.906444
2385.712489	-3.021900	3.048700	-9.211600	28.089116	0.000224	20.890671
2386.710793	-3.004600	3.049800	-9.162300	28.091123	0.000223	20.907389
2387.711714	-2.998600	3.048500	-9.140300	28.131675	0.000225	20.908383
2388.713258	-3.000000	3.046800	-9.139300	28.141714	0.000226	20.899998
2389.712589	-2.988900	3.045600	-9.101700	28.138659	0.000224	20.895027
2390.711949	-2.988000	3.044200	-9.093900	28.190418	0.000222	20.904459
2391.714832	-2.976100	3.042900	-9.055000	28.209904	0.000223	20.910326
2392.713042	-3.009700	3.042100	-9.155000	28.220757	0.000223	20.889486
2393.712418	-2.980500	3.041400	-9.062600	28.235799	0.000223	20.903207
2394.720476	-2.991900	3.039600	-9.092200	28.235009	0.000223	20.898618
2395.713450	-2.979700	3.038800	-9.054100	28.214684	0.000222	20.901388
2396.712370	-3.001000	3.038000	-9.116400	28.216691	0.000221	20.877332
2397.715006	-3.002500	3.037000	-9.118100	28.197156	0.000221	20.891803
2398.712587	-2.998700	3.035400	-9.101300	28.223906	0.000222	20.876062
2399.712268	-3.008100	3.033300	-9.122900	28.189821	0.000223	20.892479
2400.714241	-2.998600	3.032500	-9.092600	28.194330	0.000221	20.900812
2401.716520	-2.989500	3.031600	-9.061800	28.207148	0.000220	20.876734
2402.717452	-2.992400	3.029500	-9.064300	28.218849	0.000222	20.881875
2403.715590	-2.993500	3.031200	-9.072700	28.290481	0.000220	20.897096
2404.721273	-2.983600	3.028500	-9.034600	28.280940	0.000222	20.900766
2405.717435	-2.994300	3.026900	-9.062300	28.285203	0.000221	20.873766
2406.714697	-3.026000	3.024100	-9.150200	28.289641	0.000221	20.883450
2407.720149	-2.986700	3.024400	-9.032400	28.303027	0.000221	20.905461
2408.718709	-3.011500	3.022100	-9.100800	28.269644	0.000220	20.886075
2409.718625	-2.986600	3.024000	-9.030300	28.245475	0.000222	20.880708
2410.720909	-3.011100	3.020300	-9.093700	28.254026	0.000219	20.897850
2411.720559	-3.012300	3.018600	-9.091900	28.289870	0.000219	20.886524
2412.719000	-2.991000	3.018300	-9.026800	28.311356	0.000219	20.881606
2413.717588	-2.991600	3.019300	-9.030700	28.303203	0.000218	20.883354
2414.723639	-3.000000	3.015900	-9.046700	28.264239	0.000221	20.878737
2415.720918	-2.992500	3.016800	-9.026700	28.213229	0.000220	20.869106
2416.719032	-2.989700	3.014600	-9.012200	28.186928	0.000219	20.876292
2417.724226	-2.968600	3.013400	-8.944500	28.228872	0.000219	20.886751
2418.718315	-2.985700	3.011900	-8.991700	28.268927	0.000220	20.864492
2419.719973	-2.968800	3.011900	-8.940200	28.252645	0.000219	20.867064
2420.720512	-2.976800	3.009300	-8.957200	28.229319	0.000219	20.863968
2421.721140	-3.010300	3.006900	-9.051300	28.185965	0.000219	20.874374
2422.723089	-3.001400	3.008200	-9.027500	28.209612	0.000217	20.878740
2423.722341	-2.986900	3.005600	-8.976600	28.167101	0.000217	20.878617
2424.722308	-2.981600	3.004800	-8.957800	28.181157	0.000217	20.858155
2425.723262	-2.983300	3.003200	-8.958900	28.234696	0.000221	20.859899
2426.723156	-2.995300	3.002500	-8.991400	28.226844	0.000217	20.862900
2427.725572	-2.986000	3.000600	-8.958500	28.268312	0.000217	20.887105
2428.723035	-2.982700	2.998400	-8.942600	28.283231	0.000218	20.858505
2429.723733	-2.964500	2.999500	-8.891000	28.312530	0.000218	20.837746
2430.723550	-2.995600	2.996600	-8.975800	28.282043	0.000218	20.843085
2431.727182	-3.008100	2.994600	-9.006700	28.242140	0.000217	20.855540
2432.725478	-2.985700	2.994300	-8.938900	28.204713	0.000217	20.863851
2433.726224	-3.002500	2.993300	-8.986400	28.219562	0.000218	20.840396
2434.725960	-3.003100	2.990900	-8.980700	28.230865	0.000217	20.859836
2435.728801	-2.981300	2.990900	-8.915600	28.279428	0.000217	20.857047
2436.727011	-3.002600	2.988500	-8.972700	28.335117	0.000216	20.850530
2437.726806	-2.976800	2.987200	-8.891500	28.315714	0.000219	20.849486
2438.728573	-2.997600	2.985400	-8.946900	28.314150	0.000218	20.861661
2439.728322	-2.986100	2.985400	-8.913700	28.310931	0.000217	20.842300
2440.727935	-3.004000	2.984000	-8.962800	28.333461	0.000217	20.850760
2441.728214	-3.009300	2.981300	-8.970000	28.375624	0.000216	20.849592
2442.725886	-3.013300	2.980100	-8.978300	28.401077	0.000215	20.853884
2443.727892	-2.965200	2.980400	-8.836600	28.405044	0.000216	20.846500
2444.730070	-3.021800	2.976600	-8.993600	28.414708	0.000217	20.857652
2445.728648	-2.981900	2.977100	-8.876100	28.440335	0.000219	20.849794
2446.731522	-2.986700	2.974200	-8.882400	28.445767	0.000218	20.837247
2447.735019	-2.974200	2.973600	-8.843300	28.447949	0.000218	20.833755
2448.730551	-3.014400	2.971500	-8.956900	28.500884	0.000217	20.840594
2449.730581	-3.019000	2.968700	-8.961600	28.485790	0.000217	20.850049
2450.732148	-3.002400	2.968600	-8.911800	28.511766	0.000218	20.835906
2451.734480	-2.984100	2.967800	-8.855500	28.531790	0.000215	20.840899
2452.735679	-3.018300	2.966400	-8.953400	28.511766	0.000218	20.833061
2453.731949	-3.008100	2.964000	-8.914200	28.462279	0.000218	20.843443
2454.729975	-3.001600	2.964000	-8.895500	28.433142	0.000218	20.828327
2455.731024	-2.979900	2.962900	-8.828600	28.438072	0.000217	20.842774
2456.731661	-2.972000	2.959800	-8.795700	28.434354	0.000218	20.839979
2457.731058	-2.978500	2.958200	-8.810100	28.475818	0.000218	20.821516
2458.731432	-2.981700	2.957100	-8.816400	28.451411	0.000217	20.838189
2459.729422	-2.969400	2.956300	-8.777200	28.441965	0.000216	20.856177
2460.732141	-2.967700	2.954900	-8.767400	28.467891	0.000216	20.850990
2461.733820	-2.990200	2.953100	-8.828400	28.469626	0.000216	20.825238
2462.733655	-2.977600	2.950300	-8.782400	28.474932	0.000217	20.817779
2463.731317	-2.996500	2.949500	-8.836800	28.448466	0.000215	20.851344
2464.729978	-3.009400	2.948100	-8.871200	28.435507	0.000216	20.836398
2465.734098	-2.987800	2.946500	-8.801800	28.345544	0.000215	20.838744
2466.743682	-3.015300	2.944900	-8.878100	28.300835	0.000214	20.830712
2467.733685	-2.979700	2.944500	-8.773300	28.301580	0.000215	20.807755
2468.731973	-3.014900	2.941000	-8.866300	28.305323	0.000216	20.832860
2469.733170	-3.010700	2.939800	-8.850100	28.322722	0.000215	20.818611
2470.730365	-2.988100	2.938700	-8.780500	28.322329	0.000216	20.801620
2471.736390	-2.990800	2.937900	-8.785800	28.342430	0.000215	20.817592
2472.733460	-2.985400	2.935900	-8.764300	28.353887	0.000215	20.822489
2473.732718	-2.959400	2.935400	-8.685900	28.374806	0.000214	20.817476
2474.740359	-2.996500	2.932900	-8.787900	28.410889	0.000214	20.826307
2475.738438	-2.965800	2.931300	-8.692200	28.417783	0.000215	20.833250
2476.734948	-2.973500	2.929200	-8.709200	28.405073	0.000213	20.817607
2477.737906	-2.984300	2.928700	-8.739200	28.390697	0.000214	20.820200
2478.736284	-2.994500	2.927600	-8.765900	28.385275	0.000216	20.786291
2479.735202	-2.953700	2.925800	-8.640200	28.442328	0.000213	20.820034
2480.734263	-3.012900	2.922800	-8.804800	28.460765	0.000217	20.824376
2481.735814	-3.006900	2.921000	-8.782300	28.467979	0.000215	20.824054
2482.735525	-2.994100	2.919500	-8.739900	28.480995	0.000216	20.809186
2483.734604	-3.038300	2.915600	-8.857600	28.481465	0.000215	20.819617
2484.734909	-3.014700	2.915200	-8.787000	28.502579	0.000215	20.812430
2485.735037	-3.007900	2.913800	-8.763800	28.541711	0.000214	20.829079
2486.735916	-3.009900	2.911200	-8.761600	28.550357	0.000215	20.821666
2487.740808	-3.010400	2.911800	-8.763900	28.549890	0.000216	20.803178
2488.735927	-3.016900	2.909200	-8.775800	28.552392	0.000216	20.802378
2489.737899	-2.975000	2.910200	-8.656100	28.505138	0.000216	20.820696
2490.735794	-2.996400	2.906300	-8.707300	28.478328	0.000213	20.812664
2491.735801	-3.001000	2.904700	-8.715900	28.412306	0.000214	20.833424
2492.738398	-2.992300	2.903300	-8.686100	28.401128	0.000212	20.833548
2493.745672	-2.995000	2.900500	-8.685900	28.385220	0.000214	20.819900
2494.739316	-3.012000	2.898600	-8.729600	28.397139	0.000214	20.812462
2495.738333	-3.028200	2.897300	-8.771800	28.434883	0.000215	20.792622
2496.741049	-3.004300	2.894800	-8.694700	28.432950	0.000215	20.802530
2497.739342	-3.006900	2.891800	-8.694000	28.424851	0.000216	20.808599
2498.742156	-2.994600	2.892000	-8.659200	28.410250	0.000216	20.817130
2499.743424	-2.983900	2.890700	-8.624900	28.396570	0.000216	20.796242
2500.740389	-2.966600	2.888800	-8.568900	28.415528	0.000215	20.790676
2501.741193	-2.992100	2.887900	-8.640200	28.451662	0.000214	20.807622
2502.747097	-3.001900	2.884900	-8.660000	28.466581	0.000218	20.803680
2503.741034	-3.024000	2.881400	-8.712900	28.471982	0.000214	20.821446
2504.739895	-3.030000	2.878300	-8.721100	28.481174	0.000216	20.817901
2505.742611	-3.011400	2.878000	-8.665200	28.524294	0.000215	20.819599
2506.743341	-3.011500	2.876900	-8.662300	28.554525	0.000217	20.808793
2507.742676	-3.011600	2.873500	-8.653400	28.584537	0.000216	20.804406
2508.741288	-3.009700	2.874300	-8.649500	28.615106	0.000216	20.804373
2509.742416	-3.010500	2.870800	-8.641300	28.632894	0.000217	20.808064
2510.742744	-3.005900	2.869800	-8.625600	28.622790	0.000216	20.817328
2511.741995	-2.981500	2.867600	-8.549100	28.624968	0.000216	20.785383
2512.745492	-3.011700	2.865500	-8.628900	28.634904	0.000217	20.786380
2513.744958	-3.008400	2.863800	-8.614200	28.678783	0.000214	20.820144
2514.742181	-3.022200	2.861500	-8.646100	28.711237	0.000215	20.808736
2515.746377	-2.982400	2.858900	-8.525300	28.723795	0.000216	20.800049
2516.745235	-3.011600	2.857100	-8.603400	28.740218	0.000215	20.804263
2517.742645	-3.016400	2.855400	-8.611800	28.768363	0.000213	20.802268
2518.745631	-2.994700	2.854100	-8.545700	28.772252	0.000215	20.788641
2519.742731	-2.983400	2.850600	-8.503600	28.789742	0.000213	20.786819
2520.745589	-3.005800	2.848200	-8.559100	28.802921	0.000214	20.793457
2521.746892	-3.004200	2.845500	-8.547200	28.751962	0.000216	20.794756
2522.745346	-2.997800	2.845900	-8.530400	28.763529	0.000214	20.795028
2523.745841	-2.980100	2.844100	-8.474700	28.744082	0.000213	20.801992
2524.746624	-3.012000	2.840200	-8.554400	28.748336	0.000214	20.777827
2525.748852	-2.972300	2.839000	-8.437400	28.702981	0.000213	20.783351
2526.749357	-2.988600	2.838300	-8.480800	28.678727	0.000212	20.792587
2527.748890	-3.042100	2.833100	-8.617100	28.625604	0.000212	20.786971
2528.755481	-2.986500	2.832600	-8.458800	28.543460	0.000213	20.772520
2529.753369	-3.009300	2.831700	-8.520700	28.504283	0.000215	20.794232
2530.754973	-3.021800	2.827400	-8.542300	28.504733	0.000214	20.782831
2531.751894	-2.997300	2.825000	-8.466100	28.469297	0.000213	20.795035
2532.754171	-3.012800	2.822300	-8.501700	28.431597	0.000213	20.777459
2533.749312	-2.992100	2.821600	-8.441300	28.463078	0.000213	20.774073
2534.751208	-3.020500	2.818700	-8.513100	28.481072	0.000212	20.781763
2535.751090	-3.014900	2.816400	-8.489900	28.497305	0.000213	20.771083
2536.751508	-2.986000	2.815700	-8.406000	28.539258	0.000213	20.770659
2537.750318	-3.015600	2.812600	-8.480900	28.567089	0.000213	20.782092
2538.755674	-2.974600	2.810200	-8.357300	28.608224	0.000213	20.763777
2539.754026	-2.990400	2.807000	-8.391700	28.619772	0.000214	20.762131
2540.753596	-2.992600	2.804300	-8.391400	28.632483	0.000214	20.780624
2541.756548	-3.036800	2.803300	-8.511700	28.653176	0.000213	20.770645
2542.756097	-3.029100	2.797200	-8.471200	28.639401	0.000212	20.778582
2543.753496	-3.013900	2.796900	-8.428600	28.668838	0.000214	20.781678
2544.755109	-2.987300	2.796600	-8.352400	28.682539	0.000213	20.779831
2545.753507	-3.008900	2.791800	-8.399600	28.710587	0.000212	20.791487
2546.755161	-3.032100	2.787500	-8.451100	28.705662	0.000217	20.771353
2547.760431	-2.997200	2.786900	-8.352100	28.733612	0.000213	20.753986
2548.754002	-2.983100	2.784100	-8.304400	28.779791	0.000214	20.768735
2549.754507	-2.975900	2.782100	-8.278300	28.776303	0.000212	20.765221
2550.755712	-3.006300	2.780400	-8.357900	28.770929	0.000214	20.769291
2551.758709	-3.012100	2.776600	-8.363200	28.729730	0.000212	20.782319
2552.756896	-3.007800	2.771400	-8.334700	28.741179	0.000212	20.756393
2553.754964	-3.015100	2.769300	-8.348800	28.735804	0.000214	20.765204
2554.758306	-3.010900	2.767400	-8.331600	28.748240	0.000213	20.756393
2555.756797	-2.984100	2.764900	-8.248800	28.758427	0.000216	20.760965
2556.757589	-3.003200	2.761700	-8.292700	28.823507	0.000215	20.759192
2557.759329	-2.989900	2.758900	-8.247900	28.850242	0.000213	20.771899
2558.757477	-3.018800	2.756200	-8.319500	28.817859	0.000213	20.769149
2559.758479	-3.002500	2.752500	-8.262800	28.776220	0.000215	20.779836
2560.759726	-2.968800	2.752500	-8.170600	28.734522	0.000214	20.789517
2561.764974	-3.005000	2.746700	-8.253000	28.734080	0.000214	20.772476
2562.760581	-3.010000	2.743300	-8.255200	28.787018	0.000216	20.773169
2563.761656	-3.015200	2.740300	-8.261000	28.781967	0.000214	20.764288
2564.766062	-3.001700	2.738200	-8.218300	28.795543	0.000213	20.761842
2565.765304	-3.009000	2.732300	-8.220000	28.827751	0.000215	20.758251
2566.764661	-3.005300	2.731100	-8.206800	28.893199	0.000213	20.755431
2567.767635	-3.016300	2.728200	-8.228200	28.900828	0.000211	20.765487
2568.763756	-2.997800	2.724700	-8.167100	28.911109	0.000214	20.752136
2569.764173	-2.978400	2.722500	-8.106800	28.917027	0.000212	20.754305
2570.768126	-3.014300	2.717800	-8.189800	28.916880	0.000213	20.754631
2571.770191	-3.004600	2.713800	-8.153500	28.927655	0.000215	20.763116
2572.763798	-3.007600	2.711100	-8.152800	28.961169	0.000213	20.759422
2573.770070	-2.969200	2.708400	-8.040700	28.972488	0.000211	20.781258
2574.766728	-3.028400	2.703000	-8.184200	28.996494	0.000212	20.766563
2575.764095	-2.996600	2.699600	-8.088300	28.986537	0.000212	20.741358
2576.769618	-3.023900	2.694300	-8.145600	28.956540	0.000212	20.751439
2577.764571	-3.019600	2.693000	-8.130600	28.916212	0.000212	20.736414
2578.765726	-3.001700	2.689400	-8.069500	28.924663	0.000212	20.735445
2579.767999	-2.990600	2.685500	-8.030500	28.965212	0.000214	20.763021
2580.768220	-2.989300	2.681600	-8.013900	28.998425	0.000213	20.771828
2581.766519	-2.983800	2.678100	-7.990000	29.040530	0.000213	20.738385
2582.766171	-2.978100	2.673500	-7.960500	29.079621	0.000212	20.758333
2583.767956	-3.011000	2.668000	-8.032200	29.039646	0.000213	20.760728
2584.768332	-3.014300	2.666000	-8.034800	29.066244	0.000213	20.761924
2585.769064	-3.027900	2.661100	-8.056600	29.122295	0.000213	20.742062
2586.771084	-2.999700	2.657300	-7.970000	29.105752	0.000213	20.767593
2587.771008	-2.998400	2.652800	-7.952300	29.041258	0.000214	20.750024
2588.773532	-3.010600	2.648900	-7.973500	29.056987	0.000213	20.749278
2589.773424	-2.995700	2.645600	-7.924400	29.116898	0.000212	20.767919
2590.770838	-3.014600	2.639800	-7.956100	29.121853	0.000212	20.751100
2591.772736	-3.067600	2.635400	-8.083100	29.125319	0.000214	20.761231
2592.777472	-3.029400	2.629700	-7.965600	29.077001	0.000212	20.758538
2593.771457	-2.969400	2.627900	-7.802600	29.081110	0.000213	20.761730
2594.770560	-2.982200	2.624500	-7.825600	29.048520	0.000212	20.744065
2595.775752	-3.022100	2.617600	-7.909600	29.013872	0.000214	20.754200
2596.771768	-3.003000	2.612100	-7.842700	28.963814	0.000214	20.757820
2597.774279	-2.996500	2.607900	-7.813000	28.931144	0.000214	20.732965
2598.776307	-3.011000	2.602600	-7.834800	28.938843	0.000213	20.745463
2599.778182	-2.987500	2.597800	-7.759500	28.988438	0.000213	20.733315
2600.774742	-2.962100	2.594100	-7.682500	28.994974	0.000214	20.749858
2601.773903	-2.979400	2.588000	-7.709800	29.050185	0.000213	20.748588
2602.774598	-2.997800	2.581500	-7.737700	29.071881	0.000214	20.751957
2603.776435	-2.985200	2.578300	-7.696400	29.093753	0.000215	20.728949
2604.773189	-2.947500	2.572500	-7.581200	29.130358	0.000213	20.753507
2605.774900	-3.026700	2.564300	-7.760200	29.110223	0.000213	20.759770
2606.774254	-3.002400	2.559100	-7.682500	29.087583	0.000215	20.743595
2607.773341	-3.006300	2.553300	-7.674600	29.080601	0.000214	20.764537
2608.776267	-3.004200	2.547100	-7.650700	29.056774	0.000215	20.740527
2609.774358	-3.013100	2.542100	-7.659100	29.059425	0.000216	20.760269
2610.774115	-2.975100	2.537700	-7.549000	29.087014	0.000214	20.742073
2611.776838	-3.006000	2.530200	-7.604600	29.101352	0.000215	20.748935
2612.773514	-2.992100	2.525700	-7.556200	29.118791	0.000214	20.757024
2613.773773	-3.032500	2.518300	-7.636500	29.136226	0.000213	20.751359
2614.775343	-3.045300	2.511200	-7.646900	29.124160	0.000213	20.738252
2615.777323	-2.985000	2.505700	-7.477300	29.086224	0.000212	20.744597
2616.777369	-3.007200	2.500500	-7.517400	29.096155	0.000214	20.765510
2617.773993	-3.006800	2.494600	-7.499500	29.121815	0.000214	20.750588
