LabVIEW Measurement	
Writer_Version	2
Reader_Version	2
Separator	Tab
Decimal_Separator	.
Multi_Headings	No
X_Columns	One
Time_Pref	Absolute
Operator	admin
Description	Clolumns are: time, Current, Voltage, Power, Battery Temp, and Chamber Temp
Date	2024/08/16
Time	13:06:06.104549407958984375
***End_of_Header***	
	
Channels	6						
Samples	1	1	1	1	1	1	
Date	2024/08/22	2024/08/22	2024/08/22	2024/08/22	2024/08/22	2024/08/22	
Time	10:40:54.4776406288146972657	10:40:54.48538970947265625	10:40:54.4903821945190429688	10:40:54.4576191902160644532	10:40:54.4576191902160644532	10:40:54.4576191902160644532	
X_Dimension	Time	Time	Time	Time	Time	Time	
X0	0.0000000000000000E+0	0.0000000000000000E+0	0.0000000000000000E+0	0.0000000000000000E+0	0.0000000000000000E+0	0.0000000000000000E+0	
Delta_X	1.000000	1.000000	1.000000	1.000000	1.000000	1.000000	
***End_of_Header***							
X_Value	Untitled	Untitled 1	Untitled 2	Untitled 3	Untitled 4	Untitled 5	Comment
0.000000	-0.001407	4.110700	-0.005804	20.970062	0.000994	20.807441
0.996507	-2.987900	3.956700	-11.821000	20.990096	0.000995	20.816572
2.003388	-3.009400	3.948600	-11.882000	20.965397	0.000993	20.825059
2.997212	-2.987800	3.944500	-11.784000	20.969362	0.000992	20.801999
3.998220	-3.006000	3.939900	-11.843000	20.994338	0.000989	20.816072
5.002912	-3.002500	3.936600	-11.819000	20.980216	0.000990	20.787724
6.004490	-2.986700	3.933800	-11.749000	21.007938	0.000990	20.796485
7.000601	-2.999500	3.931600	-11.792000	20.966144	0.000989	20.808263
8.002539	-2.993900	3.929600	-11.764000	20.993490	0.000988	20.796733
9.000558	-3.002800	3.926400	-11.789000	20.989845	0.000989	20.803044
10.004295	-3.014600	3.925500	-11.833000	20.994237	0.000986	20.795584
11.001712	-2.993800	3.923600	-11.746000	20.984856	0.000983	20.804693
12.000150	-3.029200	3.919800	-11.873000	20.988674	0.000987	20.801399
12.999729	-3.004800	3.921300	-11.782000	21.020458	0.000984	20.796679
14.004598	-2.998400	3.919800	-11.752000	21.009156	0.000983	20.789642
15.001809	-2.981600	3.918700	-11.683000	21.011624	0.000983	20.800645
16.002010	-2.992100	3.916400	-11.717000	21.016044	0.000983	20.797006
17.000875	-3.007500	3.914400	-11.771000	21.009878	0.000981	20.781356
18.005300	-3.004300	3.914200	-11.757000	20.988825	0.000981	20.810084
19.002591	-2.997800	3.912600	-11.729000	21.005213	0.000978	20.790440
20.002847	-2.983300	3.912400	-11.670000	21.014220	0.000979	20.788543
21.006099	-3.007100	3.911800	-11.762000	20.996080	0.000979	20.798849
22.007344	-3.002400	3.909200	-11.737000	21.022932	0.000978	20.788722
23.009430	-3.009400	3.910700	-11.767000	21.037154	0.000977	20.793938
24.003835	-2.990100	3.909200	-11.688000	21.029073	0.000979	20.798184
25.007178	-3.010000	3.907600	-11.760000	21.046089	0.000979	20.814254
26.005562	-2.987400	3.906900	-11.670000	21.041970	0.000977	20.820092
27.007653	-2.986900	3.907100	-11.669000	21.037556	0.000974	20.777745
28.003544	-2.990300	3.906500	-11.681000	21.047285	0.000978	20.776096
29.003835	-3.004800	3.906100	-11.736000	21.058986	0.000974	20.800601
30.009133	-2.976800	3.905700	-11.626000	21.072460	0.000974	20.805070
31.006360	-3.001000	3.903800	-11.714000	21.068372	0.000974	20.791973
32.009714	-3.010600	3.903000	-11.749000	21.062106	0.000973	20.790921
33.004783	-2.996500	3.903800	-11.696000	21.096987	0.000972	20.809215
34.010839	-3.000700	3.902300	-11.709000	21.066699	0.000971	20.798834
35.005040	-2.986800	3.902200	-11.653000	21.098984	0.000974	20.797936
36.010491	-3.013500	3.899700	-11.751000	21.095691	0.000970	20.792745
37.010747	-2.995500	3.900000	-11.681000	21.077627	0.000973	20.787479
38.007175	-3.006400	3.899600	-11.723000	21.102101	0.000971	20.806743
39.006355	-2.989200	3.899900	-11.657000	21.103200	0.000972	20.800256
40.008435	-2.984400	3.898700	-11.635000	21.088433	0.000972	20.798287
41.005520	-2.991100	3.899900	-11.664000	21.111258	0.000971	20.794566
42.006292	-2.998700	3.897600	-11.687000	21.119640	0.000968	20.795364
43.012834	-3.008300	3.897100	-11.721000	21.119791	0.000970	20.806420
44.009810	-3.011600	3.896200	-11.732000	21.119219	0.000970	20.781667
45.008026	-3.003500	3.897800	-11.707000	21.126703	0.000969	20.796265
46.006993	-2.993600	3.897500	-11.667000	21.128872	0.000968	20.787055
47.010167	-3.019400	3.894700	-11.758000	21.111757	0.000967	20.803600
48.015347	-3.020800	3.894800	-11.765000	21.130495	0.000966	20.787730
49.009790	-3.005600	3.894700	-11.706000	21.139753	0.000967	20.796042
50.009788	-2.992600	3.895600	-11.657000	21.167569	0.000969	20.806797
51.009337	-3.008100	3.892800	-11.710000	21.188776	0.000969	20.778699
52.013620	-3.003100	3.893900	-11.692000	21.183063	0.000967	20.807124
53.010472	-2.986100	3.894600	-11.629000	21.172987	0.000967	20.777604
54.011227	-2.993100	3.892900	-11.650000	21.180844	0.000967	20.789731
55.014120	-2.992800	3.893500	-11.651000	21.199480	0.000966	20.785140
56.011784	-3.004000	3.892500	-11.692000	21.187781	0.000966	20.807102
57.012142	-3.006400	3.892400	-11.700000	21.182115	0.000966	20.780097
58.010632	-2.986000	3.892000	-11.621000	21.202751	0.000969	20.791257
59.014820	-3.004300	3.893300	-11.696000	21.187835	0.000964	20.787715
60.014754	-3.000600	3.891500	-11.676000	21.218770	0.000966	20.797798
61.020095	-3.000000	3.891100	-11.673000	21.216299	0.000965	20.771144
62.012943	-3.012600	3.890500	-11.719000	21.235635	0.000965	20.790014
63.015573	-2.988400	3.891000	-11.627000	21.228949	0.000963	20.793757
64.015661	-2.992300	3.889800	-11.639000	21.233567	0.000965	20.795531
65.015201	-2.997600	3.889900	-11.659000	21.252249	0.000965	20.794306
66.011346	-3.007500	3.889300	-11.697000	21.271757	0.000965	20.767354
67.012459	-3.001800	3.889700	-11.676000	21.270583	0.000963	20.785146
68.017331	-3.009800	3.888600	-11.703000	21.265100	0.000963	20.786773
69.016502	-2.983300	3.889200	-11.602000	21.298528	0.000964	20.803620
70.020569	-3.009600	3.889400	-11.705000	21.276327	0.000965	20.797057
71.018280	-2.990700	3.888200	-11.627000	21.301924	0.000963	20.805121
72.017351	-3.000300	3.887700	-11.663000	21.310706	0.000962	20.809639
73.016729	-3.007800	3.887000	-11.690000	21.303644	0.000963	20.793565
74.019630	-3.009100	3.886600	-11.693000	21.343584	0.000962	20.779944
75.017972	-3.023100	3.886300	-11.748000	21.308340	0.000962	20.788780
76.018847	-2.979400	3.887700	-11.583000	21.321233	0.000963	20.785558
77.018915	-2.979500	3.887500	-11.581000	21.340094	0.000961	20.792099
78.022882	-2.975000	3.886800	-11.562000	21.345404	0.000960	20.802154
79.030583	-3.007400	3.886400	-11.687000	21.337950	0.000962	20.802282
80.017375	-3.009400	3.885200	-11.690000	21.349874	0.000962	20.792875
81.019099	-3.010700	3.884100	-11.693000	21.326403	0.000959	20.790256
82.016751	-3.015500	3.884400	-11.712000	21.340646	0.000961	20.801187
83.017625	-3.008800	3.885100	-11.688000	21.386915	0.000961	20.796743
84.019569	-3.001300	3.886100	-11.663000	21.371778	0.000957	20.780176
85.017237	-2.989900	3.884900	-11.613000	21.387765	0.000960	20.781947
86.020667	-2.975700	3.886100	-11.563000	21.397218	0.000962	20.814165
87.020812	-3.004600	3.883300	-11.667000	21.396173	0.000960	20.808852
88.018462	-2.986300	3.882800	-11.594000	21.398216	0.000960	20.786240
89.017527	-2.981100	3.883500	-11.576000	21.399764	0.000960	20.796323
90.017501	-2.984900	3.884500	-11.594000	21.415826	0.000961	20.794850
91.018496	-2.984900	3.881800	-11.584000	21.434481	0.000960	20.799764
92.022055	-2.985000	3.882900	-11.589000	21.441416	0.000958	20.788686
93.022020	-3.009500	3.882500	-11.684000	21.429964	0.000962	20.809944
94.020673	-3.006400	3.881700	-11.669000	21.452661	0.000960	20.800411
95.019084	-3.007400	3.881000	-11.671000	21.439618	0.000960	20.800637
96.022099	-2.989500	3.881500	-11.602000	21.450191	0.000960	20.831604
97.025358	-2.997700	3.881500	-11.634000	21.420634	0.000962	20.802980
98.022343	-2.999200	3.881900	-11.641000	21.437996	0.000960	20.810393
99.023468	-2.972500	3.882400	-11.539000	21.452036	0.000959	20.792200
100.022167	-2.986000	3.879500	-11.582000	21.437396	0.000961	20.808845
101.024723	-2.990900	3.880600	-11.605000	21.459418	0.000962	20.810016
102.022883	-2.993200	3.880700	-11.614000	21.457425	0.000959	20.801384
103.030715	-2.985300	3.880600	-11.584000	21.465478	0.000959	20.805649
104.025481	-2.971400	3.880200	-11.528000	21.463930	0.000961	20.787505
105.026632	-3.017000	3.878500	-11.700000	21.482735	0.000961	20.793992
106.024632	-3.005200	3.879000	-11.655000	21.478944	0.000958	20.798734
107.027855	-2.999300	3.881000	-11.639000	21.515532	0.000961	20.795515
108.025149	-2.985400	3.880300	-11.582000	21.508597	0.000960	20.803749
109.026512	-3.004300	3.878300	-11.651000	21.502738	0.000961	20.811162
110.024195	-3.015300	3.877000	-11.689000	21.525034	0.000960	20.804075
111.026170	-3.023700	3.877100	-11.722000	21.530021	0.000962	20.810013
112.030755	-3.024200	3.877500	-11.726000	21.530247	0.000961	20.803601
113.023439	-3.006600	3.878400	-11.660000	21.556035	0.000960	20.803802
114.024106	-2.995400	3.878600	-11.618000	21.543916	0.000960	20.787408
115.026484	-2.996900	3.879700	-11.626000	21.552044	0.000960	20.817351
116.024083	-2.972000	3.878400	-11.525000	21.566758	0.000962	20.796040
117.026077	-3.022400	3.876700	-11.716000	21.577408	0.000961	20.801956
118.029324	-3.021600	3.876700	-11.713000	21.586684	0.000958	20.805074
119.027385	-3.022400	3.876600	-11.717000	21.588777	0.000964	20.801004
120.028351	-2.997000	3.876300	-11.616000	21.586013	0.000961	20.818626
121.028145	-3.003000	3.878200	-11.645000	21.614420	0.000962	20.809596
122.029304	-3.007400	3.877500	-11.660000	21.620677	0.000957	20.797365
123.027368	-2.998300	3.876100	-11.621000	21.618110	0.000961	20.827039
124.024994	-2.992200	3.876900	-11.600000	21.634396	0.000960	20.794498
125.025768	-2.995600	3.876600	-11.612000	21.632023	0.000962	20.829108
126.024713	-2.998300	3.875100	-11.618000	21.634967	0.000963	20.819251
127.025523	-2.985500	3.875600	-11.570000	21.660706	0.000962	20.843112
128.026614	-2.979600	3.875500	-11.546000	21.653571	0.000959	20.821274
129.025872	-3.000100	3.874200	-11.622000	21.652573	0.000960	20.822172
130.025630	-3.004700	3.875600	-11.644000	21.662673	0.000962	20.832279
131.025327	-3.019000	3.872900	-11.691000	21.658161	0.000959	20.818281
132.025518	-2.991000	3.874400	-11.587000	21.660031	0.000962	20.802609
133.028828	-2.994200	3.873200	-11.596000	21.662400	0.000964	20.822997
134.027956	-2.994800	3.875300	-11.605000	21.658089	0.000964	20.827218
135.028374	-2.983900	3.874500	-11.560000	21.666244	0.000964	20.829689
136.027108	-2.983600	3.874200	-11.559000	21.690056	0.000964	20.821277
137.030001	-2.997700	3.873700	-11.611000	21.691678	0.000964	20.824323
138.029702	-2.992700	3.873200	-11.590000	21.704097	0.000964	20.832958
139.030826	-3.016100	3.872200	-11.677000	21.708390	0.000963	20.797899
140.027774	-2.991500	3.873300	-11.587000	21.718888	0.000963	20.796078
141.028856	-2.998900	3.872800	-11.614000	21.713849	0.000964	20.816639
142.031483	-2.994600	3.872400	-11.595000	21.744224	0.000965	20.846089
143.027343	-2.983800	3.872900	-11.555000	21.750806	0.000964	20.829444
144.033151	-3.003000	3.871600	-11.625000	21.732803	0.000964	20.834660
145.030751	-2.991000	3.872600	-11.582000	21.781105	0.000967	20.825155
146.035548	-2.994800	3.871000	-11.590000	21.776367	0.000967	20.808560
147.029524	-3.012600	3.870900	-11.659000	21.784270	0.000966	20.838754
148.031225	-2.996600	3.870900	-11.598000	21.786646	0.000966	20.823114
149.036270	-2.985800	3.870900	-11.557000	21.807515	0.000968	20.858226
150.034434	-3.001700	3.870000	-11.614000	21.803327	0.000967	20.816103
151.033304	-2.991400	3.870900	-11.579000	21.824746	0.000966	20.837540
152.037179	-3.005900	3.869100	-11.629000	21.820134	0.000968	20.828657
153.031209	-2.975900	3.871000	-11.519000	21.826967	0.000966	20.834547
154.031814	-3.000100	3.870500	-11.611000	21.839660	0.000967	20.811217
155.036565	-3.005600	3.869400	-11.627000	21.836068	0.000966	20.847450
156.032232	-3.007500	3.870900	-11.641000	21.828319	0.000969	20.829263
157.031903	-2.978700	3.870800	-11.529000	21.835924	0.000967	20.835926
158.032677	-2.985900	3.869000	-11.552000	21.839269	0.000967	20.841644
159.035699	-3.007300	3.869500	-11.636000	21.846299	0.000968	20.849629
160.037020	-3.016600	3.868300	-11.667000	21.847175	0.000968	20.831066
161.034176	-3.003700	3.868700	-11.618000	21.842036	0.000968	20.852000
162.038540	-3.023000	3.867300	-11.690000	21.860364	0.000972	20.834309
163.042687	-2.997900	3.867800	-11.595000	21.861964	0.000969	20.848239
164.038315	-2.996500	3.868600	-11.590000	21.859473	0.000970	20.851435
165.036851	-2.999100	3.868800	-11.603000	21.851865	0.000969	20.843821
166.037868	-3.015900	3.866600	-11.660000	21.872493	0.000968	20.846449
167.036338	-3.016700	3.868600	-11.670000	21.899663	0.000969	20.863213
168.040278	-3.011800	3.867100	-11.647000	21.890565	0.000970	20.846995
169.039465	-3.013500	3.867500	-11.654000	21.926918	0.000971	20.852088
170.037139	-3.014700	3.867100	-11.657000	21.932304	0.000969	20.861747
171.038650	-3.024500	3.867000	-11.693000	21.922783	0.000969	20.839416
172.037175	-3.008700	3.866800	-11.633000	21.928270	0.000971	20.840166
173.044476	-3.016900	3.866500	-11.664000	21.920741	0.000971	20.853018
174.038007	-3.006200	3.868100	-11.627000	21.940216	0.000970	20.835055
175.036868	-2.996300	3.866400	-11.583000	21.954950	0.000969	20.842691
176.042833	-3.003700	3.864500	-11.607000	21.951039	0.000973	20.865801
177.041768	-3.014300	3.865100	-11.649000	21.951462	0.000974	20.848682
178.041842	-3.004600	3.866700	-11.616000	21.974600	0.000972	20.867101
179.045307	-3.011900	3.866500	-11.644000	21.972630	0.000973	20.863707
180.043619	-3.002100	3.864600	-11.600000	21.972264	0.000972	20.866185
181.039506	-3.002300	3.865200	-11.604000	21.974033	0.000974	20.866534
182.040526	-2.999400	3.865300	-11.592000	21.978694	0.000973	20.883527
183.038586	-3.012400	3.864200	-11.639000	21.976897	0.000975	20.851383
184.043083	-2.999600	3.864300	-11.590000	21.993704	0.000973	20.862992
185.042327	-3.003700	3.864500	-11.606000	21.992011	0.000976	20.862245
186.048488	-2.978900	3.865100	-11.512000	22.001882	0.000974	20.861221
187.044992	-2.995100	3.864000	-11.572000	22.013325	0.000978	20.874572
188.041414	-2.998400	3.863100	-11.581000	22.004451	0.000975	20.866637
189.041291	-2.997000	3.864000	-11.578000	22.006518	0.000975	20.871551
190.043065	-3.015700	3.863500	-11.650000	22.026487	0.000974	20.856929
191.046986	-3.014300	3.863500	-11.644000	22.017290	0.000977	20.873325
192.045714	-3.016000	3.862600	-11.649000	22.036408	0.000976	20.869705
193.048151	-2.994000	3.863800	-11.567000	22.033018	0.000977	20.858251
194.044317	-2.983400	3.862800	-11.523000	22.048397	0.000981	20.881231
195.043366	-2.989400	3.863400	-11.548000	22.054479	0.000979	20.874044
196.047879	-2.997600	3.863000	-11.578000	22.072749	0.000978	20.869576
197.051065	-3.001100	3.863400	-11.592000	22.063352	0.000980	20.881030
198.051235	-3.025900	3.860700	-11.681000	22.057066	0.000979	20.871893
199.047930	-2.995200	3.862500	-11.568000	22.083618	0.000978	20.885197
200.046690	-2.994600	3.861600	-11.563000	22.071949	0.000981	20.867353
201.047493	-3.009100	3.862000	-11.621000	22.070980	0.000980	20.882977
202.050918	-2.989100	3.862800	-11.546000	22.091268	0.000981	20.874838
203.045702	-3.002600	3.861100	-11.593000	22.114751	0.000981	20.867529
204.046443	-2.978200	3.862100	-11.501000	22.126039	0.000984	20.879303
205.047924	-3.012900	3.862300	-11.635000	22.114948	0.000982	20.868675
206.048423	-2.989800	3.861700	-11.544000	22.143042	0.000983	20.879256
207.049848	-3.014100	3.861300	-11.637000	22.163008	0.000984	20.898770
208.052733	-3.002600	3.859600	-11.588000	22.159442	0.000982	20.868649
209.054819	-2.991100	3.860400	-11.545000	22.154232	0.000984	20.862960
210.051201	-2.985500	3.860700	-11.525000	22.159743	0.000983	20.880330
211.050550	-2.988500	3.861000	-11.538000	22.175249	0.000985	20.868829
212.080437	-2.994200	3.859000	-11.554000	22.160094	0.000984	20.889690
213.053056	-3.015800	3.859100	-11.638000	22.172655	0.000986	20.896101
214.055446	-3.003700	3.859400	-11.592000	22.169441	0.000987	20.892409
215.052629	-3.009000	3.857500	-11.607000	22.179311	0.000986	20.873843
216.059227	-2.982700	3.859800	-11.512000	22.188484	0.000985	20.890139
217.055538	-2.994400	3.859800	-11.555000	22.177520	0.000987	20.891963
218.057518	-3.023400	3.857700	-11.663000	22.189356	0.000985	20.892434
219.056036	-2.994600	3.858500	-11.553000	22.179038	0.000988	20.895854
220.057766	-3.024700	3.858600	-11.671000	22.187763	0.000988	20.882779
221.085623	-3.000100	3.858100	-11.574000	22.218790	0.000987	20.894877
222.055934	-2.983400	3.858700	-11.511000	22.196488	0.000990	20.911427
223.063066	-3.003000	3.857100	-11.582000	22.230833	0.000987	20.898874
224.060628	-2.991100	3.857000	-11.536000	22.238607	0.000990	20.880107
225.061868	-2.986000	3.857300	-11.516000	22.239856	0.000988	20.897003
226.056879	-2.973300	3.858600	-11.472000	22.238435	0.000989	20.895106
227.058732	-3.011400	3.857200	-11.614000	22.252419	0.000990	20.898202
228.065135	-3.011200	3.856600	-11.612000	22.240204	0.000987	20.904937
229.060656	-2.991400	3.856800	-11.536000	22.248182	0.000989	20.898702
230.062999	-3.004800	3.857000	-11.588000	22.256879	0.000992	20.897452
231.060709	-3.013200	3.856100	-11.618000	22.285370	0.000991	20.913650
232.067958	-2.995100	3.856000	-11.548000	22.271781	0.000992	20.889615
233.066884	-2.996500	3.856400	-11.555000	22.307573	0.000992	20.886098
234.064573	-2.995700	3.855000	-11.547000	22.291049	0.000993	20.919336
235.064637	-3.007100	3.854300	-11.589000	22.275196	0.000993	20.914843
236.069663	-2.985500	3.856400	-11.513000	22.308617	0.000991	20.898048
237.066424	-2.995900	3.854000	-11.545000	22.296559	0.000994	20.912052
238.070695	-3.010300	3.854000	-11.600000	22.287910	0.000994	20.925675
239.071609	-3.007500	3.854600	-11.591000	22.306378	0.000996	20.906711
240.064460	-3.007500	3.853500	-11.588000	22.312760	0.000994	20.921161
241.070830	-3.002200	3.853900	-11.569000	22.310737	0.000996	20.916290
242.075310	-3.006300	3.853800	-11.585000	22.287584	0.000996	20.908755
243.067887	-3.010800	3.853400	-11.601000	22.312534	0.000996	20.924253
244.071975	-2.991900	3.853900	-11.530000	22.319909	0.000997	20.921682
245.069684	-2.999000	3.853300	-11.556000	22.314080	0.000996	20.914423
246.073995	-3.010000	3.853300	-11.598000	22.323124	0.000997	20.903565
247.065713	-3.004200	3.852400	-11.572000	22.325520	0.000996	20.919239
248.068404	-3.007800	3.852100	-11.585000	22.336260	0.000999	20.924303
249.075416	-2.986500	3.854100	-11.508000	22.339377	0.001000	20.924106
250.071720	-3.013600	3.851700	-11.607000	22.347678	0.000999	20.908237
251.071138	-2.989100	3.854300	-11.520000	22.377086	0.001000	20.922037
252.072536	-2.978700	3.852700	-11.475000	22.373825	0.001001	20.926357
253.076285	-2.977100	3.853200	-11.470000	22.387158	0.001001	20.924062
254.072883	-2.993200	3.852400	-11.530000	22.377613	0.001002	20.931098
255.076361	-2.990900	3.852100	-11.520000	22.396879	0.001001	20.923839
256.072248	-2.988600	3.850600	-11.507000	22.381602	0.001005	20.927981
257.075616	-2.978000	3.852800	-11.471000	22.409914	0.001005	20.926461
258.071937	-2.995400	3.852300	-11.539000	22.420005	0.001001	20.928979
259.071630	-3.000500	3.850600	-11.554000	22.432369	0.001005	20.910543
260.074530	-3.009200	3.850000	-11.583000	22.427185	0.001005	20.913887
261.074944	-3.000300	3.850900	-11.552000	22.453825	0.001007	20.925865
262.075723	-2.981600	3.850000	-11.479000	22.442788	0.001004	20.935199
263.075179	-3.005900	3.850900	-11.575000	22.444058	0.001007	20.939790
264.075435	-2.988600	3.849200	-11.503000	22.454127	0.001007	20.915262
265.075452	-3.014300	3.847800	-11.596000	22.492577	0.001009	20.917733
266.079410	-3.011900	3.849700	-11.593000	22.472344	0.001007	20.934926
267.079786	-3.002800	3.848100	-11.554000	22.485156	0.001008	20.927369
268.076107	-2.999600	3.848000	-11.542000	22.503126	0.001008	20.931140
269.077764	-2.981600	3.849500	-11.476000	22.515909	0.001009	20.936356
270.077638	-2.977200	3.848000	-11.456000	22.507663	0.001012	20.949907
271.079460	-3.006700	3.848700	-11.571000	22.508430	0.001011	20.935504
272.078834	-3.007900	3.846900	-11.569000	22.527970	0.001010	20.930418
273.080904	-3.003900	3.848300	-11.559000	22.512074	0.001009	20.942472
274.080175	-2.999300	3.847600	-11.539000	22.501981	0.001010	20.944692
275.082326	-2.995200	3.847200	-11.522000	22.508785	0.001012	20.954349
276.083595	-2.993900	3.848600	-11.521000	22.558449	0.001011	20.958569
277.080298	-2.990400	3.848100	-11.507000	22.512874	0.001012	20.949910
278.079911	-3.003900	3.846800	-11.555000	22.527726	0.001011	20.977583
279.081269	-3.003800	3.845900	-11.551000	22.533182	0.001012	20.930896
280.081248	-2.999700	3.846500	-11.537000	22.559873	0.001011	20.968529
281.081855	-3.006300	3.846300	-11.561000	22.543532	0.001016	20.956432
282.083630	-2.996500	3.846600	-11.526000	22.556860	0.001014	20.930429
283.082737	-2.999800	3.847000	-11.538000	22.565156	0.001014	20.946322
284.089170	-2.993100	3.847000	-11.513000	22.571364	0.001017	20.950642
285.084066	-3.018800	3.845800	-11.609000	22.586915	0.001014	20.959578
286.085608	-2.987700	3.845300	-11.489000	22.584698	0.001017	20.954040
287.092228	-2.986100	3.845100	-11.480000	22.579910	0.001019	20.944978
288.086113	-2.970100	3.845100	-11.419000	22.580735	0.001016	20.955286
289.086134	-2.992000	3.844600	-11.501000	22.597778	0.001016	20.951019
290.083580	-2.994900	3.844200	-11.512000	22.585096	0.001017	20.949698
291.087121	-3.021900	3.842900	-11.613000	22.612156	0.001017	20.969685
292.090915	-2.992800	3.844700	-11.506000	22.619608	0.001019	20.958184
293.092491	-2.997900	3.844000	-11.522000	22.607745	0.001018	20.959578
294.086771	-2.972800	3.844700	-11.429000	22.623169	0.001021	20.944684
295.088534	-2.992200	3.843800	-11.501000	22.623417	0.001019	20.928812
296.086256	-2.998400	3.843300	-11.523000	22.625264	0.001022	20.956737
297.089981	-3.001700	3.844500	-11.538000	22.631045	0.001022	20.943089
298.090329	-3.013800	3.842800	-11.579000	22.623593	0.001021	20.946056
299.089666	-2.997600	3.844200	-11.522000	22.627656	0.001025	20.958184
300.090852	-3.010200	3.842500	-11.565000	22.604309	0.001023	20.946655
301.087626	-2.986500	3.841600	-11.472000	22.634509	0.001024	20.943240
302.087941	-2.989500	3.842000	-11.484000	22.612930	0.001024	20.940593
303.093359	-2.986800	3.840700	-11.469000	22.650432	0.001023	20.951127
304.091806	-2.992000	3.841200	-11.492000	22.645200	0.001021	20.929767
305.093395	-2.978600	3.842300	-11.443000	22.653072	0.001026	20.943814
306.089436	-3.021300	3.841200	-11.604000	22.682224	0.001025	20.935557
307.088550	-3.019900	3.840500	-11.596000	22.690071	0.001026	20.941993
308.089805	-3.015800	3.841300	-11.583000	22.680456	0.001025	20.927623
309.098015	-2.989100	3.841300	-11.480000	22.699463	0.001027	20.925324
310.091903	-2.981000	3.839300	-11.444000	22.698390	0.001028	20.926147
311.088762	-2.982200	3.840300	-11.451000	22.694829	0.001027	20.934433
312.090399	-2.973400	3.840800	-11.419000	22.702080	0.001026	20.942169
313.088924	-2.998300	3.840400	-11.514000	22.702504	0.001027	20.946860
314.093023	-3.013500	3.839200	-11.568000	22.685738	0.001028	20.930069
315.091297	-2.986100	3.840300	-11.466000	22.711275	0.001030	20.929570
316.089109	-2.987700	3.839500	-11.469000	22.688901	0.001029	20.921858
317.092196	-3.036300	3.836400	-11.648000	22.705021	0.001030	20.931840
318.088999	-3.006700	3.838400	-11.540000	22.677688	0.001028	20.934806
319.090705	-3.006100	3.837300	-11.534000	22.681797	0.001031	20.941767
320.091023	-3.006800	3.838600	-11.541000	22.700836	0.001031	20.912003
321.090711	-3.007000	3.838800	-11.541000	22.690964	0.001030	20.920605
322.091707	-3.000600	3.839400	-11.520000	22.720162	0.001030	20.942263
323.091424	-2.975100	3.840000	-11.423000	22.736381	0.001030	20.918684
324.089806	-2.993900	3.838300	-11.489000	22.716149	0.001029	20.929710
325.094455	-2.991000	3.840100	-11.485000	22.713208	0.001033	20.916335
326.102558	-3.024800	3.835400	-11.599000	22.702396	0.001031	20.914988
327.092490	-3.012800	3.837800	-11.560000	22.702691	0.001034	20.914334
328.092114	-2.994700	3.837500	-11.491000	22.692574	0.001033	20.903728
329.090331	-2.991100	3.836400	-11.474000	22.694095	0.001033	20.908570
330.098864	-3.009300	3.836100	-11.543000	22.703060	0.001033	20.908541
331.100047	-2.988900	3.835800	-11.464000	22.708540	0.001035	20.911659
332.098048	-2.997200	3.835300	-11.493000	22.735048	0.001035	20.910711
333.094549	-2.991900	3.834900	-11.473000	22.738609	0.001036	20.918070
334.093174	-2.990000	3.835900	-11.468000	22.727897	0.001034	20.910660
335.100833	-3.010400	3.833100	-11.538000	22.753806	0.001038	20.913379
336.098252	-3.011400	3.833300	-11.543000	22.757962	0.001038	20.906164
337.098054	-3.006000	3.834500	-11.525000	22.760232	0.001038	20.909859
338.097876	-3.029700	3.832000	-11.608000	22.780012	0.001039	20.887476
339.095965	-2.998200	3.833900	-11.494000	22.761297	0.001039	20.913771
340.094709	-3.020900	3.833100	-11.578000	22.785538	0.001038	20.897278
341.102846	-2.979600	3.834900	-11.425000	22.757037	0.001042	20.903341
342.095175	-2.995300	3.833200	-11.479000	22.788302	0.001039	20.894832
343.097882	-2.987800	3.833300	-11.453000	22.785835	0.001040	20.907532
344.101611	-2.964900	3.834600	-11.367000	22.794405	0.001043	20.900945
345.097979	-3.008900	3.832900	-11.532000	22.805690	0.001039	20.898025
346.102878	-3.000800	3.831400	-11.496000	22.826190	0.001043	20.912870
347.101469	-3.001800	3.832200	-11.502000	22.842630	0.001043	20.893306
348.101738	-2.994500	3.833200	-11.477000	22.821033	0.001044	20.913868
349.102246	-2.986600	3.833100	-11.447000	22.825243	0.001043	20.897698
350.101656	-3.007300	3.831800	-11.523000	22.814482	0.001045	20.907780
351.101429	-3.004700	3.831000	-11.510000	22.804417	0.001046	20.896750
352.103488	-2.986800	3.831700	-11.443000	22.787976	0.001047	20.902565
353.100863	-3.005300	3.830100	-11.508000	22.786854	0.001049	20.884847
354.102193	-3.014700	3.829800	-11.544000	22.803994	0.001046	20.885896
355.105569	-3.004000	3.830000	-11.504000	22.812686	0.001047	20.879905
356.106626	-3.019400	3.829000	-11.560000	22.821880	0.001048	20.906656
357.104433	-3.006400	3.829500	-11.512000	22.839966	0.001049	20.890637
358.103529	-2.995700	3.830900	-11.474000	22.848109	0.001047	20.885045
359.109394	-2.965800	3.830800	-11.361000	22.860540	0.001049	20.881377
360.104159	-2.987300	3.830300	-11.442000	22.867066	0.001051	20.895974
361.106283	-3.007500	3.828400	-11.513000	22.867514	0.001052	20.865131
362.111849	-3.024500	3.827300	-11.574000	22.901393	0.001053	20.870149
363.103957	-3.019100	3.827900	-11.556000	22.876908	0.001052	20.880706
364.108968	-2.997500	3.829100	-11.476000	22.895341	0.001052	20.879732
365.104198	-2.989800	3.828200	-11.445000	22.892153	0.001052	20.886495
366.103717	-3.017400	3.827500	-11.547000	22.908518	0.001054	20.882976
367.106916	-3.002400	3.829500	-11.496000	22.917911	0.001052	20.881955
368.113087	-3.010400	3.828100	-11.523000	22.939381	0.001055	20.875016
369.106106	-3.000100	3.828600	-11.484000	22.920303	0.001050	20.902842
370.107537	-3.005200	3.825600	-11.496000	22.917685	0.001055	20.876988
371.108785	-3.001000	3.825700	-11.480000	22.902763	0.001054	20.880055
372.106802	-3.018100	3.826100	-11.547000	22.902067	0.001056	20.875566
373.110234	-3.002200	3.826400	-11.487000	22.910511	0.001054	20.860792
374.107098	-3.034100	3.824900	-11.603000	22.909790	0.001055	20.886621
375.110657	-3.016100	3.826900	-11.541000	22.922891	0.001058	20.864661
376.109962	-2.971200	3.825800	-11.366000	22.910759	0.001056	20.888065
377.106936	-2.991900	3.825200	-11.444000	22.915369	0.001059	20.868978
378.119040	-3.013400	3.823900	-11.522000	22.943167	0.001056	20.886869
379.108698	-2.972500	3.826000	-11.372000	22.926330	0.001058	20.882329
380.108315	-3.013700	3.822800	-11.520000	22.932554	0.001059	20.881927
381.108934	-3.019300	3.823300	-11.542000	22.936512	0.001060	20.856023
382.112323	-2.988800	3.824300	-11.429000	22.917610	0.001059	20.884024
383.111332	-3.011800	3.823300	-11.513000	22.924835	0.001061	20.897899
384.114007	-2.986600	3.823900	-11.419000	22.925728	0.001060	20.871769
385.112724	-3.004200	3.822700	-11.483000	22.916363	0.001060	20.881826
386.112406	-2.972500	3.826700	-11.374000	22.934817	0.001062	20.873763
387.110255	-2.992900	3.824000	-11.444000	22.941765	0.001063	20.871241
388.112751	-3.009400	3.823400	-11.505000	22.961291	0.001062	20.872312
389.114878	-3.005500	3.821800	-11.485000	22.994421	0.001062	20.881798
390.110719	-2.986300	3.822100	-11.412000	22.955737	0.001061	20.873860
391.111275	-2.992100	3.822900	-11.437000	22.969784	0.001063	20.875606
392.112501	-2.978000	3.821000	-11.378000	22.945896	0.001063	20.862104
393.112829	-2.988500	3.820900	-11.418000	22.941586	0.001063	20.869640
394.118815	-2.998200	3.821800	-11.458000	22.974115	0.001063	20.860506
395.116214	-2.991700	3.822600	-11.434000	22.966418	0.001065	20.886457
396.110271	-3.001900	3.821800	-11.471000	22.958394	0.001064	20.859928
397.114031	-3.010500	3.820600	-11.501000	22.958247	0.001065	20.878745
398.113982	-3.006100	3.819100	-11.479000	22.988880	0.001067	20.857281
399.115739	-3.024000	3.818400	-11.546000	22.990672	0.001067	20.885153
400.116011	-2.995100	3.819400	-11.438000	23.018045	0.001069	20.867061
401.116763	-2.990200	3.820000	-11.421000	23.004070	0.001069	20.863017
402.114105	-3.017900	3.817300	-11.519000	23.019310	0.001067	20.848416
403.113030	-3.018200	3.818000	-11.522000	23.013983	0.001068	20.878164
404.116718	-3.010300	3.819500	-11.497000	23.028603	0.001069	20.875743
405.115012	-3.008200	3.819400	-11.489000	23.030295	0.001070	20.856103
406.115950	-3.002500	3.818500	-11.464000	23.043771	0.001069	20.874820
407.115028	-2.992800	3.817400	-11.423000	23.039885	0.001070	20.849116
408.116003	-2.994200	3.817300	-11.429000	23.048077	0.001069	20.853057
409.118844	-2.996000	3.816700	-11.435000	23.044467	0.001069	20.866508
410.119430	-2.991800	3.817900	-11.420000	23.039609	0.001069	20.859745
411.117394	-3.026300	3.816400	-11.547000	23.057792	0.001071	20.853308
412.121969	-3.017200	3.816300	-11.511000	23.025039	0.001072	20.859845
413.122519	-2.991200	3.818200	-11.419000	23.024168	0.001074	20.836688
414.115920	-3.008300	3.816600	-11.480000	23.003823	0.001074	20.854235
415.119089	-2.990300	3.816500	-11.411000	23.030098	0.001070	20.851164
416.121536	-2.991300	3.815900	-11.413000	23.023996	0.001071	20.861171
417.117618	-3.007400	3.816600	-11.476000	23.055028	0.001072	20.865237
418.119092	-3.000400	3.815100	-11.446000	23.068980	0.001073	20.858829
419.120710	-3.006400	3.814600	-11.466000	23.096871	0.001074	20.846947
420.118117	-2.996700	3.815900	-11.434000	23.121254	0.001074	20.849095
421.119931	-2.999200	3.815200	-11.441000	23.106629	0.001072	20.857673
422.118596	-3.000300	3.814900	-11.444000	23.117519	0.001074	20.856257
423.129241	-3.002800	3.813600	-11.451000	23.116049	0.001077	20.842931
424.121654	-2.988500	3.813400	-11.395000	23.116422	0.001076	20.861322
425.121137	-2.980700	3.813700	-11.366000	23.167350	0.001075	20.856404
426.123427	-3.017600	3.812400	-11.502000	23.157338	0.001077	20.848743
427.122718	-3.005800	3.813100	-11.461000	23.153653	0.001076	20.836990
428.140084	-3.022800	3.811800	-11.521000	23.157560	0.001074	20.835216
429.118478	-3.022200	3.812000	-11.518000	23.162116	0.001077	20.836462
430.121287	-2.992400	3.812100	-11.407000	23.145480	0.001077	20.822637
431.122571	-2.989500	3.812800	-11.397000	23.143738	0.001077	20.856925
432.128759	-3.006400	3.811800	-11.458000	23.151334	0.001075	20.844149
433.123354	-2.994600	3.812500	-11.415000	23.162192	0.001076	20.833693
434.122379	-2.993900	3.812200	-11.412000	23.173225	0.001077	20.843800
435.122093	-2.987300	3.812500	-11.388000	23.178548	0.001078	20.833488
436.122666	-2.993100	3.811900	-11.408000	23.191302	0.001079	20.849113
437.127857	-2.995900	3.810100	-11.412000	23.202658	0.001080	20.842475
438.120658	-3.010500	3.811300	-11.472000	23.201285	0.001078	20.827350
439.122627	-3.029800	3.810500	-11.543000	23.208035	0.001080	20.837906
440.124314	-3.004600	3.810000	-11.446000	23.203626	0.001079	20.834437
441.121156	-2.974900	3.811200	-11.338000	23.196829	0.001080	20.835686
442.124429	-3.000600	3.810200	-11.432000	23.193664	0.001079	20.833937
443.123060	-3.014400	3.807800	-11.478000	23.206787	0.001081	20.836182
444.127134	-3.007100	3.809200	-11.454000	23.228448	0.001082	20.825173
445.126282	-3.011200	3.807000	-11.462000	23.277206	0.001082	20.829466
446.125629	-3.015300	3.807200	-11.478000	23.239406	0.001081	20.827145
447.123636	-3.005800	3.807000	-11.442000	23.225509	0.001079	20.814642
448.124325	-2.994400	3.807800	-11.401000	23.213229	0.001083	20.844060
449.128790	-3.020800	3.806600	-11.497000	23.216692	0.001082	20.826194
450.130652	-3.006900	3.807500	-11.448000	23.225932	0.001082	20.841617
451.128945	-2.994200	3.805900	-11.394000	23.235417	0.001082	20.832631
452.124917	-2.986700	3.806700	-11.369000	23.258274	0.001088	20.823769
453.130558	-3.003900	3.807400	-11.435000	23.266092	0.001085	20.823543
454.127977	-3.002200	3.805300	-11.424000	23.260414	0.001084	20.822121
455.130173	-3.006300	3.805000	-11.438000	23.263378	0.001085	20.824143
456.127696	-2.996400	3.805800	-11.403000	23.285314	0.001082	20.817677
457.127396	-3.027000	3.804100	-11.513000	23.282500	0.001086	20.825289
458.129646	-2.976000	3.806700	-11.327000	23.308898	0.001084	20.818080
459.128934	-2.999700	3.804000	-11.410000	23.305135	0.001087	20.835170
460.130191	-3.003400	3.804600	-11.426000	23.324482	0.001085	20.812835
461.129051	-2.984900	3.805100	-11.356000	23.322417	0.001086	20.815034
462.133073	-2.984500	3.805100	-11.353000	23.303590	0.001085	20.831252
463.131299	-3.006700	3.802500	-11.432000	23.309812	0.001086	20.800504
464.134987	-2.990700	3.803400	-11.374000	23.294250	0.001088	20.844650
465.129542	-3.008600	3.802400	-11.438000	23.319350	0.001087	20.818123
466.129184	-3.030500	3.801500	-11.518000	23.313400	0.001090	20.820221
467.127764	-3.024000	3.802200	-11.495000	23.309744	0.001088	20.812289
468.127855	-3.001300	3.802200	-11.411000	23.308716	0.001089	20.817423
469.128329	-3.007500	3.802100	-11.434000	23.311084	0.001090	20.810788
470.127820	-2.996600	3.801600	-11.390000	23.305733	0.001090	20.801158
471.130116	-2.991400	3.802700	-11.374000	23.297812	0.001087	20.809815
472.134428	-3.022900	3.800500	-11.487000	23.319328	0.001090	20.810989
473.136829	-2.993900	3.801000	-11.379000	23.329138	0.001090	20.807544
474.130994	-2.995900	3.799100	-11.380000	23.309020	0.001091	20.809667
475.130981	-3.012500	3.800100	-11.446000	23.310640	0.001091	20.779048
476.133051	-3.005000	3.800400	-11.418000	23.322865	0.001092	20.793672
477.130532	-3.008300	3.799000	-11.428000	23.336363	0.001092	20.820001
478.134005	-2.982600	3.799600	-11.332000	23.335642	0.001092	20.803158
479.135321	-3.004900	3.799500	-11.415000	23.366192	0.001091	20.816707
480.138609	-3.008800	3.799600	-11.431000	23.357229	0.001091	20.803931
481.133082	-3.008000	3.797800	-11.423000	23.304668	0.001093	20.818108
482.133796	-3.013600	3.797800	-11.444000	23.329815	0.001090	20.811068
483.132632	-3.007100	3.798000	-11.419000	23.329520	0.001092	20.813618
484.139630	-3.022700	3.796200	-11.472000	23.347720	0.001094	20.784917
485.131628	-3.001400	3.797500	-11.397000	23.344857	0.001091	20.800065
486.138208	-2.997700	3.797100	-11.382000	23.322374	0.001096	20.818783
487.131888	-2.981500	3.798000	-11.323000	23.333954	0.001093	20.811897
488.133759	-2.995200	3.797700	-11.374000	23.334129	0.001094	20.807332
489.135444	-3.000500	3.796900	-11.391000	23.321284	0.001096	20.821958
490.131869	-2.968000	3.798100	-11.271000	23.339559	0.001095	20.821308
491.139055	-3.007400	3.796400	-11.416000	23.352282	0.001096	20.814620
492.137619	-2.995800	3.795400	-11.369000	23.334061	0.001097	20.785926
493.142189	-3.000400	3.793900	-11.382000	23.355698	0.001095	20.787697
494.138108	-3.024500	3.794100	-11.475000	23.357117	0.001095	20.817569
495.135751	-2.991500	3.794000	-11.348000	23.385276	0.001096	20.805489
496.140410	-3.009700	3.793100	-11.416000	23.396655	0.001097	20.792712
497.139980	-2.995200	3.795300	-11.367000	23.380201	0.001096	20.811782
498.139623	-3.010300	3.793400	-11.418000	23.373208	0.001101	20.801928
499.138411	-2.995300	3.793000	-11.360000	23.374252	0.001099	20.814353
500.135964	-2.986400	3.794400	-11.330000	23.362299	0.001099	20.811857
501.140027	-3.014400	3.792100	-11.429000	23.377341	0.001097	20.822665
502.140740	-3.000200	3.792600	-11.378000	23.379011	0.001098	20.807270
503.151146	-3.000700	3.791100	-11.375000	23.364399	0.001100	20.800685
504.138119	-2.999200	3.791500	-11.371000	23.402915	0.001097	20.778598
505.143588	-2.994500	3.791700	-11.352000	23.412878	0.001097	20.797592
506.142168	-2.972000	3.792200	-11.269000	23.414025	0.001097	20.806328
507.145996	-3.007200	3.791700	-11.402000	23.409491	0.001098	20.797517
508.142875	-2.998400	3.791400	-11.366000	23.415243	0.001098	20.823196
509.141974	-3.007600	3.790400	-11.400000	23.423489	0.001101	20.802538
510.144186	-3.028800	3.790900	-11.479000	23.432925	0.001098	20.810100
511.141573	-3.014400	3.790000	-11.423000	23.424811	0.001098	20.814769
512.142793	-3.004500	3.790100	-11.387000	23.448486	0.001099	20.812420
513.141150	-3.000800	3.790400	-11.372000	23.434423	0.001100	20.786945
514.144478	-3.003000	3.789600	-11.380000	23.454216	0.001099	20.802991
515.141794	-3.008500	3.788600	-11.397000	23.449141	0.001101	20.807861
516.141730	-2.996000	3.787400	-11.346000	23.460369	0.001100	20.802994
517.142695	-3.010700	3.788300	-11.405000	23.469532	0.001102	20.807912
518.141960	-3.021800	3.786600	-11.441000	23.439358	0.001099	20.805641
519.141845	-2.997900	3.788000	-11.355000	23.471102	0.001100	20.807114
520.143358	-2.984600	3.788300	-11.305000	23.482505	0.001101	20.790095
521.143620	-2.976700	3.787700	-11.272000	23.492141	0.001099	20.802599
522.142106	-2.985300	3.786600	-11.303000	23.497469	0.001103	20.801302
523.144085	-3.016600	3.786100	-11.421000	23.474986	0.001099	20.802947
524.142660	-2.956500	3.786900	-11.195000	23.482762	0.001100	20.811690
525.147154	-3.018700	3.785700	-11.426000	23.462017	0.001100	20.811284
526.147336	-3.022000	3.786100	-11.440000	23.488388	0.001103	20.808795
527.148129	-2.993800	3.786400	-11.335000	23.493717	0.001099	20.802757
528.150854	-3.002300	3.785800	-11.366000	23.485328	0.001101	20.825167
529.147828	-2.999200	3.784600	-11.350000	23.461726	0.001100	20.774009
530.150334	-2.974100	3.786600	-11.261000	23.473678	0.001103	20.806851
531.145939	-2.987800	3.784400	-11.306000	23.454333	0.001101	20.796944
532.148657	-2.983400	3.784400	-11.290000	23.464866	0.001103	20.802286
533.152881	-2.978600	3.783500	-11.268000	23.467528	0.001102	20.813964
534.154177	-2.997800	3.784500	-11.345000	23.496010	0.001102	20.800314
535.150966	-2.979200	3.785300	-11.276000	23.480626	0.001101	20.808126
536.148542	-2.988500	3.783500	-11.306000	23.508882	0.001100	20.796147
537.148092	-2.993700	3.781900	-11.321000	23.516056	0.001101	20.808080
538.147775	-2.989800	3.782700	-11.307000	23.502038	0.001099	20.791183
539.150778	-2.985200	3.782100	-11.288000	23.492054	0.001099	20.802986
540.148520	-2.974900	3.783100	-11.253000	23.485510	0.001103	20.807332
541.156717	-2.996700	3.781100	-11.329000	23.523872	0.001103	20.818759
542.151763	-3.002800	3.780800	-11.351000	23.533433	0.001101	20.819333
543.151518	-3.001500	3.780300	-11.345000	23.537041	0.001103	20.818683
544.154553	-3.008600	3.779700	-11.370000	23.528753	0.001102	20.809901
545.154494	-2.998400	3.780100	-11.332000	23.555585	0.001102	20.830160
546.154795	-2.998600	3.779300	-11.331000	23.550486	0.001103	20.807031
547.155786	-3.012000	3.778700	-11.381000	23.537389	0.001104	20.801488
548.156314	-3.016900	3.777500	-11.396000	23.553023	0.001103	20.805781
549.153554	-2.989200	3.778900	-11.296000	23.553173	0.001104	20.790285
550.156153	-2.993300	3.778900	-11.310000	23.555589	0.001102	20.786067
551.151134	-2.985200	3.778300	-11.279000	23.564027	0.001103	20.793579
552.154692	-3.002100	3.778000	-11.341000	23.577590	0.001103	20.785838
553.153328	-2.997300	3.777900	-11.322000	23.564200	0.001103	20.794699
554.157900	-2.996000	3.776700	-11.313000	23.586104	0.001103	20.792950
555.157330	-3.010100	3.777400	-11.370000	23.585610	0.001105	20.830860
556.157265	-2.992900	3.775500	-11.298000	23.593152	0.001105	20.822301
557.155443	-3.023000	3.776700	-11.415000	23.566790	0.001105	20.803934
558.154123	-2.994400	3.777600	-11.310000	23.591683	0.001106	20.814190
559.155190	-3.003900	3.776000	-11.341000	23.576100	0.001104	20.811844
560.160115	-3.022800	3.775900	-11.412000	23.590189	0.001104	20.814589
561.157941	-2.994400	3.775800	-11.305000	23.595363	0.001105	20.806499
562.156989	-2.985300	3.776800	-11.274000	23.577716	0.001105	20.822473
563.155263	-2.982100	3.775100	-11.256000	23.570725	0.001103	20.809301
564.158901	-3.001700	3.775400	-11.331000	23.553170	0.001104	20.806402
565.161985	-3.019600	3.773500	-11.393000	23.540775	0.001106	20.823375
566.163072	-2.995700	3.774600	-11.306000	23.593826	0.001103	20.801639
567.155548	-3.004800	3.774700	-11.341000	23.614508	0.001104	20.796769
568.161114	-2.982900	3.774700	-11.258000	23.618546	0.001103	20.798446
569.158315	-2.994800	3.773600	-11.301000	23.656111	0.001104	20.820458
570.158754	-2.988500	3.773300	-11.276000	23.648716	0.001107	20.821578
571.163828	-3.023000	3.772000	-11.402000	23.637537	0.001107	20.827441
572.161632	-3.007000	3.772000	-11.340000	23.641349	0.001107	20.825573
573.166434	-2.999100	3.772900	-11.315000	23.643764	0.001105	20.831787
574.158856	-2.993300	3.771400	-11.288000	23.615880	0.001106	20.808101
575.158964	-3.003800	3.771400	-11.328000	23.636075	0.001107	20.818863
576.165467	-2.990200	3.770900	-11.274000	23.639185	0.001107	20.819610
577.163386	-2.996000	3.769400	-11.292000	23.638612	0.001106	20.823303
578.163738	-3.003300	3.770600	-11.323000	23.624548	0.001108	20.818213
579.164764	-3.015800	3.768800	-11.365000	23.624598	0.001107	20.831539
580.164504	-3.001700	3.769400	-11.313000	23.632090	0.001107	20.831938
581.165500	-2.997400	3.769200	-11.297000	23.668161	0.001107	20.834908
582.171295	-2.995600	3.768300	-11.288000	23.658304	0.001108	20.827871
583.162880	-3.009700	3.769200	-11.344000	23.652678	0.001107	20.829818
584.170766	-3.009000	3.768100	-11.336000	23.643993	0.001106	20.795507
585.164828	-2.999500	3.768400	-11.302000	23.653825	0.001107	20.833812
586.164145	-2.985700	3.767800	-11.248000	23.661715	0.001106	20.828446
587.172747	-2.994800	3.767400	-11.282000	23.680708	0.001106	20.833263
588.166174	-2.995200	3.768900	-11.287000	23.683073	0.001110	20.835634
589.169354	-3.016200	3.764800	-11.354000	23.703388	0.001109	20.819017
590.168602	-2.986800	3.767500	-11.252000	23.712223	0.001109	20.836884
591.172782	-2.989800	3.766000	-11.260000	23.725164	0.001107	20.837056
592.168266	-3.017400	3.765500	-11.361000	23.756628	0.001109	20.833040
593.167006	-3.006500	3.765900	-11.321000	23.760286	0.001107	20.849035
594.174304	-3.001600	3.765800	-11.302000	23.762403	0.001106	20.834089
595.171505	-3.010100	3.765800	-11.335000	23.763449	0.001107	20.823284
596.174048	-2.999100	3.765100	-11.291000	23.787944	0.001108	20.842153
597.171472	-3.001900	3.764700	-11.301000	23.757677	0.001107	20.845472
598.171038	-3.034900	3.762300	-11.416000	23.738015	0.001107	20.844724
599.171118	-3.034700	3.761500	-11.414000	23.738116	0.001109	20.836765
600.175159	-2.972000	3.763300	-11.184000	23.751830	0.001108	20.841032
601.171116	-2.996000	3.763900	-11.276000	23.768407	0.001107	20.832048
602.174782	-2.978500	3.763700	-11.210000	23.781205	0.001107	20.832077
603.175514	-2.991600	3.762300	-11.254000	23.803409	0.001105	20.848650
604.175999	-2.984100	3.763100	-11.228000	23.815780	0.001109	20.838769
605.178144	-3.005200	3.762700	-11.307000	23.828075	0.001109	20.848251
606.175878	-2.980900	3.762100	-11.213000	23.811921	0.001109	20.858607
607.174398	-2.994000	3.761300	-11.261000	23.831664	0.001106	20.849480
608.177180	-2.991600	3.762200	-11.253000	23.828626	0.001106	20.846908
609.177660	-2.983900	3.760400	-11.220000	23.829622	0.001108	20.831312
610.174439	-3.010400	3.759500	-11.315000	23.809567	0.001108	20.853876
611.177399	-2.987700	3.759400	-11.231000	23.835773	0.001109	20.841746
612.173798	-2.997700	3.758400	-11.264000	23.835006	0.001107	20.832443
613.174276	-2.997000	3.759700	-11.267000	23.826469	0.001109	20.844271
614.177486	-2.965100	3.759700	-11.147000	23.798519	0.001108	20.856074
615.177511	-2.991500	3.759100	-11.245000	23.791081	0.001106	20.843402
616.181035	-3.001500	3.758600	-11.281000	23.788767	0.001109	20.851038
617.178595	-2.992000	3.759200	-11.246000	23.821249	0.001107	20.846149
618.177683	-2.966600	3.759900	-11.153000	23.819806	0.001107	20.854659
619.179008	-2.992600	3.758300	-11.245000	23.839567	0.001110	20.837015
620.182635	-3.006900	3.758100	-11.297000	23.835884	0.001108	20.875994
621.188804	-2.991200	3.757700	-11.239000	23.843306	0.001107	20.869687
622.183159	-2.996700	3.757900	-11.261000	23.841042	0.001109	20.867417
623.183487	-2.986600	3.756900	-11.219000	23.843181	0.001109	20.846803
624.184218	-3.006600	3.756900	-11.294000	23.828274	0.001110	20.840866
625.181696	-3.003600	3.755900	-11.280000	23.865632	0.001108	20.862676
626.184255	-2.993300	3.754700	-11.239000	23.854734	0.001108	20.856490
627.179759	-2.995100	3.756800	-11.250000	23.862576	0.001107	20.852974
628.180134	-3.008900	3.755000	-11.297000	23.844707	0.001110	20.860186
629.182019	-3.007000	3.754200	-11.287000	23.840827	0.001108	20.866727
630.184563	-3.015700	3.754200	-11.321000	23.846258	0.001108	20.868853
631.181332	-2.982300	3.754400	-11.196000	23.800761	0.001108	20.876339
632.180129	-3.012200	3.754300	-11.308000	23.813281	0.001110	20.860445
633.180965	-2.993500	3.755600	-11.241000	23.786276	0.001108	20.867506
634.181372	-2.998000	3.753600	-11.252000	23.818687	0.001108	20.867761
635.185262	-2.983200	3.754200	-11.198000	23.837950	0.001107	20.850093
636.184145	-3.006100	3.751900	-11.278000	23.838849	0.001108	20.862848
637.186822	-3.009000	3.753600	-11.293000	23.836635	0.001107	20.865369
638.183158	-3.005700	3.753000	-11.279000	23.882078	0.001108	20.883432
639.181207	-3.009900	3.751300	-11.290000	23.877876	0.001105	20.878745
640.189494	-3.009800	3.751700	-11.290000	23.874293	0.001106	20.872783
641.186867	-3.006200	3.751000	-11.275000	23.887236	0.001109	20.869640
642.182318	-3.014600	3.751600	-11.309000	23.907719	0.001107	20.864101
643.185980	-3.021000	3.750100	-11.329000	23.911452	0.001108	20.891076
644.185703	-2.994600	3.751500	-11.234000	23.899111	0.001107	20.869693
645.185555	-2.991600	3.749500	-11.217000	23.936169	0.001107	20.894998
646.185759	-3.000300	3.750000	-11.250000	23.928876	0.001106	20.888633
647.186728	-3.003400	3.748100	-11.256000	23.943387	0.001108	20.891331
648.187776	-2.993400	3.749400	-11.221000	23.906433	0.001107	20.873716
649.188151	-3.001500	3.748700	-11.250000	23.895511	0.001107	20.883626
650.188625	-2.968800	3.749400	-11.130000	23.895289	0.001108	20.885300
651.193455	-3.008900	3.748200	-11.277000	23.873140	0.001104	20.874470
652.184774	-3.004500	3.746900	-11.256000	23.918111	0.001108	20.893486
653.188896	-2.995000	3.747800	-11.224000	23.911993	0.001105	20.881661
654.191994	-3.006800	3.747900	-11.268000	23.930512	0.001105	20.865146
655.185866	-3.002800	3.747000	-11.250000	23.922746	0.001106	20.878220
656.189161	-3.011800	3.746800	-11.283000	23.911072	0.001106	20.866515
657.188052	-3.009300	3.746300	-11.273000	23.903707	0.001107	20.882836
658.189428	-3.010600	3.745400	-11.275000	23.922202	0.001107	20.886683
659.188553	-2.976600	3.746300	-11.150000	23.932407	0.001106	20.880796
660.188802	-2.985700	3.746000	-11.184000	23.936813	0.001106	20.893273
661.188312	-2.995400	3.745400	-11.218000	23.917176	0.001106	20.888755
662.187128	-2.962800	3.746800	-11.100000	23.912200	0.001105	20.907946
663.190446	-2.979200	3.745900	-11.159000	23.902793	0.001105	20.894247
664.190320	-2.986900	3.744300	-11.184000	23.908844	0.001105	20.902210
665.198629	-2.984300	3.743700	-11.171000	23.960261	0.001108	20.894028
666.196599	-2.997300	3.744000	-11.222000	23.954638	0.001106	20.898819
667.191411	-2.991400	3.744800	-11.201000	23.962826	0.001106	20.900866
668.189142	-2.992900	3.744100	-11.205000	23.952449	0.001104	20.883349
669.190126	-3.014600	3.742500	-11.281000	23.972931	0.001104	20.894405
670.188771	-2.983900	3.745100	-11.174000	23.968328	0.001103	20.892160
671.189477	-2.987500	3.743900	-11.184000	23.993986	0.001105	20.892286
672.192022	-3.013300	3.741500	-11.274000	24.019070	0.001104	20.904164
673.191616	-2.985700	3.743800	-11.176000	24.010960	0.001105	20.872800
674.190535	-2.998200	3.742700	-11.220000	24.044579	0.001104	20.894660
675.191137	-2.990300	3.742200	-11.189000	24.022784	0.001103	20.905992
676.192989	-3.001100	3.741500	-11.228000	24.023730	0.001104	20.892243
677.191305	-3.009100	3.740400	-11.254000	24.020545	0.001103	20.905643
678.191300	-3.002700	3.741200	-11.233000	24.048043	0.001103	20.891970
679.188775	-2.990900	3.740300	-11.185000	24.046778	0.001105	20.908244
680.193475	-3.005300	3.740500	-11.239000	24.055461	0.001102	20.896089
681.188994	-3.008000	3.739200	-11.247000	24.061883	0.001104	20.910115
682.190419	-3.006100	3.740000	-11.242000	24.038820	0.001103	20.899789
683.204680	-3.021600	3.738700	-11.295000	24.078434	0.001103	20.905852
684.195454	-3.002500	3.738800	-11.225000	24.047753	0.001104	20.910643
685.191415	-3.020600	3.737200	-11.288000	24.035485	0.001102	20.922047
686.197307	-3.019700	3.737900	-11.285000	24.031928	0.001104	20.917058
687.194771	-2.973500	3.739000	-11.117000	24.003757	0.001102	20.906825
688.195927	-2.998900	3.737300	-11.207000	23.978028	0.001103	20.926066
689.196640	-2.979000	3.738400	-11.136000	23.989953	0.001102	20.912421
690.197017	-2.996000	3.737600	-11.197000	24.010781	0.001103	20.907705
691.198783	-3.001700	3.737600	-11.218000	24.038200	0.001102	20.915761
692.194967	-2.997300	3.737100	-11.200000	24.021778	0.001101	20.918258
693.193733	-3.012300	3.735000	-11.249000	24.034174	0.001101	20.911250
694.197615	-2.999500	3.736000	-11.205000	24.072445	0.001101	20.928767
695.195768	-3.025000	3.735100	-11.298000	24.068462	0.001101	20.916713
696.201303	-2.996900	3.736500	-11.197000	24.061048	0.001099	20.905486
697.196158	-3.022100	3.734000	-11.283000	24.093698	0.001099	20.941072
698.197904	-3.002600	3.733900	-11.211000	24.102158	0.001099	20.929169
699.195967	-3.012800	3.734900	-11.251000	24.086804	0.001100	20.905712
700.197523	-2.999400	3.734600	-11.201000	24.097978	0.001100	20.917866
701.197363	-3.002700	3.733500	-11.209000	24.056421	0.001100	20.925499
702.198722	-2.992000	3.735100	-11.174000	24.048057	0.001100	20.937972
703.196561	-2.998700	3.733300	-11.194000	24.061571	0.001099	20.916440
704.195771	-2.993700	3.733100	-11.175000	24.066123	0.001099	20.930013
705.199452	-3.002400	3.732800	-11.206000	24.059755	0.001097	20.953021
706.198997	-2.998000	3.732600	-11.189000	24.096983	0.001097	20.924453
707.199281	-3.003200	3.732000	-11.207000	24.097298	0.001097	20.933777
708.200139	-2.991100	3.732900	-11.164000	24.039497	0.001096	20.920380
709.197662	-2.998100	3.734300	-11.194000	24.051288	0.001096	20.927937
710.202358	-2.997200	3.732700	-11.186000	24.071245	0.001098	20.926615
711.202949	-2.990700	3.731700	-11.160000	24.052481	0.001095	20.936245
712.200808	-2.998900	3.729900	-11.184000	24.068383	0.001097	20.943658
713.200770	-2.995400	3.731300	-11.176000	24.063405	0.001096	20.938665
714.203123	-2.992700	3.730500	-11.164000	24.090228	0.001098	20.956081
715.202412	-2.991400	3.730700	-11.158000	24.099930	0.001097	20.939262
716.202311	-2.978200	3.730900	-11.111000	24.101574	0.001097	20.913412
717.200778	-3.004000	3.729600	-11.203000	24.076915	0.001098	20.932775
718.201084	-2.993500	3.729700	-11.163000	24.087140	0.001097	20.955356
719.203478	-3.012700	3.729000	-11.234000	24.106821	0.001096	20.935742
720.202627	-2.979300	3.730500	-11.113000	24.114385	0.001095	20.944276
721.204746	-2.973300	3.729500	-11.088000	24.105775	0.001095	20.943227
722.198876	-3.005200	3.727700	-11.201000	24.129539	0.001094	20.940982
723.202776	-3.011300	3.727300	-11.224000	24.155440	0.001095	20.951312
724.201962	-3.013600	3.727500	-11.233000	24.138002	0.001096	20.949943
725.199486	-3.002900	3.727100	-11.191000	24.152507	0.001097	20.929880
726.205987	-2.990800	3.727400	-11.147000	24.148449	0.001094	20.952834
727.200713	-3.005500	3.725500	-11.196000	24.133647	0.001095	20.957428
728.203997	-3.026300	3.725400	-11.273000	24.120162	0.001095	20.941061
729.201665	-2.987500	3.726600	-11.132000	24.145444	0.001095	20.961199
730.202930	-2.987500	3.726800	-11.133000	24.141311	0.001097	20.931928
731.203856	-2.995400	3.726000	-11.158000	24.136487	0.001095	20.958854
732.212347	-3.005200	3.725900	-11.196000	24.111699	0.001098	20.947271
733.204810	-2.967600	3.726600	-11.058000	24.114389	0.001093	20.971302
734.203238	-2.995000	3.724000	-11.153000	24.126283	0.001092	20.968533
735.203790	-2.976200	3.726100	-11.088000	24.153230	0.001094	20.941984
736.201876	-2.988700	3.724700	-11.131000	24.171169	0.001093	20.975145
737.204493	-2.986300	3.724900	-11.122000	24.157087	0.001094	20.945852
738.204006	-3.016400	3.724400	-11.232000	24.161417	0.001091	20.975321
739.204002	-2.993800	3.723200	-11.146000	24.188288	0.001092	20.953912
740.204880	-2.987400	3.723200	-11.122000	24.176545	0.001093	20.950669
741.208437	-2.992800	3.722100	-11.138000	24.195157	0.001095	20.941837
742.207043	-2.995800	3.722600	-11.150000	24.205879	0.001092	20.953538
743.202759	-3.016500	3.721300	-11.224000	24.208590	0.001094	20.958154
744.207112	-3.015100	3.721700	-11.220000	24.193739	0.001095	20.958430
745.204874	-3.007600	3.721400	-11.192000	24.166621	0.001092	20.957310
746.208242	-3.010500	3.720900	-11.201000	24.190931	0.001091	20.959407
747.206153	-2.991900	3.721200	-11.133000	24.192718	0.001091	20.955510
748.209823	-3.009300	3.721400	-11.198000	24.212003	0.001091	20.957310
749.206992	-3.025700	3.719900	-11.254000	24.197126	0.001089	20.959931
750.209008	-3.006500	3.720000	-11.183000	24.214893	0.001090	20.969216
751.209379	-2.999600	3.719700	-11.156000	24.224770	0.001090	20.944039
752.212200	-2.992900	3.720000	-11.132000	24.249526	0.001089	20.963652
753.206327	-2.988500	3.719600	-11.116000	24.258260	0.001088	20.957715
754.212468	-3.017600	3.718300	-11.219000	24.265351	0.001090	20.945863
755.210837	-2.992200	3.721300	-11.133000	24.238432	0.001088	20.955844
756.211876	-3.017000	3.718400	-11.218000	24.232040	0.001087	20.939951
757.215438	-2.985700	3.717800	-11.100000	24.247342	0.001087	20.953876
758.210998	-3.016100	3.718000	-11.212000	24.246049	0.001086	20.938357
759.207753	-3.008300	3.718100	-11.185000	24.261297	0.001088	20.945116
760.210538	-3.003000	3.717600	-11.163000	24.286450	0.001090	20.955173
761.208763	-3.011700	3.718600	-11.198000	24.288069	0.001088	20.954900
762.208121	-2.970600	3.717200	-11.041000	24.285702	0.001087	20.937355
763.219728	-2.984500	3.717000	-11.091000	24.309039	0.001089	20.953176
764.210440	-3.008900	3.715200	-11.176000	24.275202	0.001088	20.921609
765.213882	-2.987400	3.718300	-11.105000	24.281548	0.001085	20.936507
766.215640	-3.010500	3.716400	-11.187000	24.208307	0.001087	20.940329
767.214395	-3.018400	3.716300	-11.216000	24.215419	0.001088	20.930868
768.221258	-3.001500	3.716200	-11.152000	24.212060	0.001083	20.919439
769.215945	-3.017400	3.715500	-11.210000	24.235198	0.001086	20.923207
770.215394	-3.008800	3.713900	-11.173000	24.219624	0.001086	20.947885
771.213440	-3.002900	3.713800	-11.150000	24.258884	0.001085	20.926102
772.212703	-3.002200	3.713000	-11.146000	24.259184	0.001085	20.949160
773.214581	-3.003000	3.712500	-11.148000	24.283911	0.001086	20.926077
774.215580	-3.001600	3.713600	-11.146000	24.297419	0.001083	20.938676
775.216399	-2.981800	3.714100	-11.074000	24.298214	0.001088	20.939000
776.213574	-2.979200	3.714100	-11.064000	24.309211	0.001084	20.941970
777.214731	-3.018600	3.713000	-11.206000	24.272789	0.001083	20.914921
778.220024	-3.005500	3.712300	-11.157000	24.250973	0.001083	20.922435
779.213976	-2.994100	3.713700	-11.118000	24.234450	0.001083	20.909181
780.222626	-2.996100	3.713100	-11.124000	24.244205	0.001084	20.936033
781.214704	-2.979800	3.713100	-11.063000	24.261286	0.001083	20.930882
782.214526	-2.989000	3.711400	-11.093000	24.260294	0.001081	20.918983
783.220339	-2.979800	3.712700	-11.062000	24.255897	0.001084	20.924055
784.221381	-3.006500	3.711900	-11.160000	24.265423	0.001082	20.938824
785.219536	-3.004800	3.711600	-11.152000	24.241859	0.001081	20.923250
786.219911	-3.013700	3.711200	-11.183000	24.246711	0.001082	20.919583
787.219913	-3.002100	3.710600	-11.139000	24.208719	0.001081	20.917511
788.216759	-2.981500	3.710100	-11.061000	24.234840	0.001081	20.914788
789.222737	-2.983700	3.710200	-11.068000	24.229167	0.001081	20.902461
790.217760	-2.987500	3.709600	-11.081000	24.224541	0.001080	20.912518
791.222064	-2.986400	3.710600	-11.080000	24.221977	0.001079	20.924170
792.217024	-2.983800	3.710100	-11.069000	24.206674	0.001081	20.898866
793.220079	-2.999800	3.709300	-11.126000	24.193065	0.001079	20.913190
794.220793	-2.975500	3.709200	-11.036000	24.201001	0.001079	20.894125
795.221832	-2.980000	3.708400	-11.049000	24.202695	0.001084	20.878755
796.218510	-2.978600	3.708700	-11.046000	24.203888	0.001081	20.903657
797.218537	-2.995000	3.709600	-11.109000	24.188736	0.001080	20.890357
798.225820	-2.997600	3.707100	-11.110000	24.210979	0.001078	20.899864
799.217762	-3.008400	3.706000	-11.149000	24.204482	0.001077	20.911365
800.217968	-3.000400	3.707200	-11.123000	24.199931	0.001079	20.906800
801.218316	-3.029300	3.705900	-11.224000	24.186569	0.001079	20.901459
802.218053	-2.984300	3.707100	-11.062000	24.187586	0.001076	20.907220
803.219747	-2.994700	3.706100	-11.098000	24.190075	0.001077	20.922043
804.221716	-2.984300	3.705000	-11.056000	24.209310	0.001076	20.924741
805.223414	-3.010200	3.705500	-11.153000	24.200747	0.001076	20.909041
806.221294	-2.997300	3.705800	-11.106000	24.218041	0.001073	20.896991
807.224193	-2.995100	3.704900	-11.096000	24.242171	0.001076	20.902702
808.223426	-3.001500	3.704800	-11.118000	24.234059	0.001076	20.887929
809.229738	-3.018400	3.704200	-11.180000	24.255557	0.001074	20.875354
810.223403	-2.978700	3.707100	-11.040000	24.268269	0.001075	20.876726
811.225127	-2.994300	3.704900	-11.093000	24.270357	0.001076	20.875975
812.222195	-3.017000	3.703400	-11.172000	24.282174	0.001075	20.908215
813.222147	-2.981400	3.704900	-11.044000	24.296452	0.001073	20.872753
814.233331	-3.002700	3.704400	-11.122000	24.333145	0.001075	20.895809
815.221456	-3.006000	3.704800	-11.136000	24.339565	0.001075	20.906516
816.227520	-3.009200	3.702000	-11.138000	24.332078	0.001073	20.881938
817.223675	-3.021200	3.702200	-11.184000	24.324315	0.001073	20.889323
818.226664	-3.003300	3.702100	-11.117000	24.333417	0.001074	20.896082
819.223848	-3.002800	3.701800	-11.115000	24.342373	0.001071	20.892264
820.233980	-3.008900	3.701400	-11.136000	24.332969	0.001073	20.872876
821.225239	-3.005900	3.703100	-11.130000	24.350383	0.001071	20.890343
822.228480	-2.999700	3.702400	-11.106000	24.333048	0.001072	20.874851
823.225894	-2.998300	3.700900	-11.094000	24.363119	0.001072	20.888895
824.227824	-2.982800	3.702600	-11.043000	24.371355	0.001070	20.872502
825.227049	-2.988700	3.701600	-11.062000	24.368670	0.001073	20.870756
826.226294	-2.980400	3.700000	-11.025000	24.364341	0.001070	20.881112
827.229712	-3.008100	3.699300	-11.127000	24.390483	0.001070	20.870354
828.226689	-3.013000	3.700100	-11.148000	24.369837	0.001072	20.873350
829.228361	-3.005200	3.700400	-11.119000	24.341653	0.001069	20.879689
830.227244	-2.981800	3.699800	-11.031000	24.329686	0.001068	20.880013
831.225793	-2.988900	3.698400	-11.054000	24.293988	0.001069	20.867438
832.227539	-2.998300	3.698500	-11.088000	24.284907	0.001068	20.863544
833.227544	-2.989500	3.700000	-11.061000	24.292470	0.001067	20.881087
834.228434	-2.982400	3.700200	-11.033000	24.315284	0.001067	20.885479
835.226869	-2.997700	3.697200	-11.082000	24.312616	0.001068	20.856252
836.234819	-2.983400	3.699700	-11.037000	24.330581	0.001067	20.894186
837.230510	-3.006200	3.697500	-11.115000	24.352893	0.001067	20.851612
838.241036	-2.988300	3.698000	-11.050000	24.353938	0.001065	20.883479
839.229746	-3.017200	3.696800	-11.153000	24.372322	0.001066	20.871575
840.230154	-2.982200	3.697800	-11.026000	24.375129	0.001063	20.886244
841.231534	-2.987800	3.697800	-11.047000	24.352392	0.001066	20.876238
842.231103	-3.010000	3.695300	-11.122000	24.355872	0.001064	20.883996
843.234027	-2.998200	3.695600	-11.078000	24.339404	0.001065	20.879804
844.234203	-3.015700	3.694900	-11.142000	24.345946	0.001067	20.875462
845.236067	-3.010800	3.694600	-11.122000	24.349824	0.001066	20.871292
846.233409	-2.997200	3.695000	-11.074000	24.381241	0.001064	20.879574
847.233660	-3.015200	3.693700	-11.135000	24.398056	0.001065	20.874632
848.236173	-3.015100	3.693800	-11.136000	24.386143	0.001066	20.864578
849.240564	-2.993700	3.695500	-11.062000	24.375763	0.001064	20.883087
850.237635	-2.991100	3.695300	-11.052000	24.379963	0.001061	20.862646
851.233166	-3.009500	3.693700	-11.115000	24.369217	0.001061	20.866565
852.242699	-3.006400	3.694300	-11.106000	24.379763	0.001062	20.867660
853.234112	-3.004900	3.693100	-11.096000	24.399564	0.001061	20.883730
854.235496	-3.003600	3.692200	-11.089000	24.404311	0.001063	20.869054
855.239634	-2.996000	3.692200	-11.061000	24.416772	0.001063	20.851210
856.241570	-2.984500	3.692800	-11.019000	24.406073	0.001062	20.841425
857.234922	-3.000500	3.692700	-11.079000	24.426819	0.001059	20.859866
858.240175	-3.004200	3.692900	-11.093000	24.427141	0.001060	20.856396
859.237368	-2.995000	3.692200	-11.058000	24.430321	0.001057	20.854371
860.238426	-2.992600	3.692000	-11.047000	24.443457	0.001060	20.867075
861.238322	-2.993400	3.691100	-11.048000	24.434273	0.001059	20.851224
862.243578	-3.015000	3.690900	-11.127000	24.432981	0.001062	20.831436
863.238376	-3.016100	3.690200	-11.129000	24.410363	0.001060	20.844306
864.253859	-3.001600	3.691400	-11.080000	24.436157	0.001059	20.844105
865.240593	-3.007800	3.690800	-11.100000	24.417925	0.001062	20.862323
866.238378	-3.007900	3.690100	-11.097000	24.387225	0.001060	20.873250
867.237943	-2.997900	3.687300	-11.053000	24.387970	0.001059	20.840808
868.248746	-3.012000	3.688700	-11.110000	24.404881	0.001060	20.835014
869.242092	-3.009700	3.689800	-11.104000	24.394211	0.001056	20.852758
870.242084	-2.983800	3.688700	-11.005000	24.417148	0.001058	20.859173
871.241791	-2.978000	3.689400	-10.986000	24.375327	0.001058	20.855150
872.243607	-2.993000	3.690100	-11.044000	24.378882	0.001059	20.863933
873.252591	-3.004200	3.689500	-11.082000	24.408161	0.001058	20.844942
874.253677	-3.016600	3.688400	-11.125000	24.419952	0.001057	20.846339
875.246507	-3.012400	3.688400	-11.110000	24.441943	0.001058	20.835686
876.243680	-3.004600	3.688900	-11.082000	24.440944	0.001054	20.847485
877.248349	-3.004000	3.687200	-11.076000	24.421391	0.001055	20.826921
878.243372	-2.993400	3.686700	-11.035000	24.428903	0.001057	20.848681
879.246690	-2.986700	3.686400	-11.010000	24.425469	0.001056	20.837651
880.248584	-3.011800	3.685700	-11.100000	24.436361	0.001057	20.826293
881.245514	-2.971400	3.687700	-10.956000	24.441367	0.001056	20.856444
882.244393	-3.011700	3.685600	-11.099000	24.452062	0.001054	20.845837
883.247781	-3.014900	3.685200	-11.109000	24.443103	0.001053	20.832108
884.256811	-3.007900	3.685300	-11.084000	24.422308	0.001054	20.841117
885.251224	-3.005900	3.685000	-11.075000	24.411162	0.001054	20.828987
886.252858	-2.973700	3.685000	-10.957000	24.391340	0.001055	20.836602
887.247818	-3.007500	3.685000	-11.082000	24.386814	0.001053	20.844389
888.247793	-3.009800	3.684200	-11.088000	24.422659	0.001054	20.831038
889.246903	-3.006300	3.682600	-11.070000	24.417585	0.001055	20.816465
890.246162	-3.002500	3.684400	-11.061000	24.407058	0.001053	20.828190
891.246046	-3.008300	3.682100	-11.076000	24.408430	0.001053	20.823876
892.249576	-3.002600	3.683300	-11.059000	24.430321	0.001051	20.824026
893.248343	-2.974800	3.683800	-10.958000	24.451940	0.001051	20.819163
894.249917	-2.995500	3.683500	-11.033000	24.448059	0.001052	20.828071
895.249331	-3.004000	3.681400	-11.057000	24.461439	0.001053	20.845287
896.258595	-2.990400	3.682800	-11.012000	24.442437	0.001049	20.830492
897.251618	-3.009300	3.682100	-11.080000	24.424678	0.001050	20.828796
898.252577	-2.989600	3.681600	-11.006000	24.437962	0.001050	20.841174
899.257852	-3.000400	3.681900	-11.046000	24.451668	0.001050	20.835959
900.249525	-3.022100	3.681000	-11.123000	24.440350	0.001049	20.824130
901.253411	-3.009200	3.679900	-11.072000	24.437539	0.001050	20.816095
902.251814	-2.996400	3.680300	-11.026000	24.460751	0.001049	20.814252
903.261412	-3.019800	3.679600	-11.110000	24.472516	0.001049	20.823211
904.251793	-2.999000	3.679100	-11.032000	24.482366	0.001048	20.823135
905.250112	-3.016000	3.679200	-11.096000	24.444933	0.001047	20.812607
906.251028	-2.999100	3.680000	-11.036000	24.441578	0.001050	20.832000
907.250271	-3.000200	3.679800	-11.039000	24.478341	0.001048	20.823365
908.252782	-2.997600	3.679700	-11.028000	24.462896	0.001047	20.832525
909.253931	-2.981600	3.679300	-10.970000	24.440235	0.001048	20.824015
910.254254	-2.994800	3.677400	-11.012000	24.476032	0.001047	20.814410
911.256442	-3.012200	3.678100	-11.078000	24.442405	0.001046	20.819554
912.258897	-3.003100	3.678800	-11.046000	24.439791	0.001045	20.809345
913.257765	-2.983600	3.678400	-10.974000	24.438226	0.001046	20.821526
914.253989	-2.997500	3.677500	-11.022000	24.451234	0.001044	20.831731
915.255278	-2.993700	3.678600	-11.012000	24.456759	0.001044	20.816885
916.252741	-2.987800	3.677700	-10.987000	24.412780	0.001048	20.833455
917.255488	-3.015200	3.675500	-11.081000	24.425945	0.001044	20.821059
918.266083	-3.005900	3.676900	-11.051000	24.435419	0.001046	20.828193
919.271078	-3.010200	3.676200	-11.064000	24.435641	0.001043	20.806130
920.255365	-3.000200	3.677100	-11.032000	24.409826	0.001045	20.801094
921.255755	-2.996900	3.675300	-11.014000	24.415375	0.001045	20.809981
922.253527	-3.023200	3.676000	-11.111000	24.399703	0.001045	20.812750
923.257278	-3.009400	3.675500	-11.059000	24.403015	0.001044	20.838358
924.256448	-3.037500	3.673100	-11.155000	24.445204	0.001044	20.824259
925.257967	-3.000200	3.675100	-11.024000	24.436826	0.001042	20.803052
926.262712	-2.976900	3.674600	-10.937000	24.456873	0.001043	20.790447
927.265478	-2.986200	3.674100	-10.971000	24.474259	0.001041	20.816425
928.271582	-3.004400	3.673100	-11.034000	24.453071	0.001042	20.806073
929.260715	-3.011900	3.673800	-11.064000	24.486207	0.001041	20.788583
930.269970	-2.997400	3.675000	-11.015000	24.495011	0.001038	20.793623
931.262706	-2.990700	3.673400	-10.984000	24.493471	0.001042	20.813889
932.267163	-2.999000	3.673800	-11.015000	24.478993	0.001042	20.796518
933.261227	-3.005300	3.671600	-11.032000	24.482057	0.001038	20.810498
934.262305	-2.983600	3.673400	-10.958000	24.489619	0.001039	20.819981
935.265460	-3.001300	3.673200	-11.023000	24.512232	0.001041	20.810426
936.263378	-2.986400	3.672900	-10.966000	24.517581	0.001037	20.802517
937.265401	-2.987800	3.672200	-10.971000	24.503478	0.001039	20.822980
938.276691	-2.995600	3.672100	-10.999000	24.527308	0.001040	20.819862
939.275203	-3.003900	3.671200	-11.027000	24.538725	0.001039	20.794334
940.274161	-3.004200	3.670000	-11.024000	24.529972	0.001040	20.798828
941.264688	-3.014400	3.670800	-11.064000	24.554696	0.001037	20.791392
942.264350	-3.005700	3.670400	-11.031000	24.560095	0.001038	20.798705
943.264040	-2.981300	3.672400	-10.947000	24.554324	0.001039	20.825631
944.264447	-3.001300	3.670400	-11.015000	24.564774	0.001036	20.794391
945.269100	-2.999400	3.669600	-11.006000	24.560993	0.001039	20.793917
946.268626	-2.981400	3.669500	-10.939000	24.558008	0.001036	20.801353
947.263814	-3.005200	3.668300	-11.022000	24.535453	0.001034	20.809543
948.264980	-3.000500	3.668900	-11.008000	24.486074	0.001036	20.809787
949.271482	-2.990000	3.668600	-10.968000	24.488416	0.001036	20.794118
950.279199	-3.001400	3.667500	-11.007000	24.473142	0.001035	20.800606
951.277759	-3.003200	3.668100	-11.014000	24.482748	0.001034	20.789855
952.266247	-3.003000	3.666800	-11.010000	24.508959	0.001036	20.821842
953.273756	-3.013900	3.668300	-11.054000	24.525257	0.001037	20.817804
954.267227	-2.998900	3.668200	-11.000000	24.552247	0.001035	20.824970
955.266212	-3.006300	3.667800	-11.025000	24.551721	0.001032	20.811166
956.266308	-3.008900	3.666900	-11.033000	24.559905	0.001034	20.796618
957.274936	-2.998500	3.667000	-10.993000	24.563711	0.001033	20.808971
958.272667	-2.988400	3.667700	-10.960000	24.595970	0.001033	20.808149
959.267879	-2.999200	3.666500	-10.995000	24.593285	0.001030	20.804032
960.283749	-2.991400	3.666500	-10.967000	24.620271	0.001033	20.799341
961.272400	-3.004300	3.665800	-11.012000	24.599478	0.001031	20.791755
962.270818	-2.995100	3.666800	-10.981000	24.581224	0.001031	20.789086
963.267350	-2.990600	3.665100	-10.960000	24.577741	0.001030	20.801238
964.272070	-3.009000	3.664300	-11.025000	24.549637	0.001029	20.799119
965.281922	-3.009000	3.665200	-11.028000	24.551478	0.001027	20.799068
966.274745	-3.001100	3.664100	-10.996000	24.601544	0.001028	20.812793
967.274705	-3.021700	3.664400	-11.071000	24.569117	0.001030	20.806335
968.271053	-3.014400	3.663500	-11.042000	24.594857	0.001028	20.792807
969.268302	-2.990600	3.664500	-10.958000	24.610626	0.001028	20.816691
970.280647	-2.974100	3.665100	-10.900000	24.621398	0.001028	20.815646
971.270802	-2.994500	3.662200	-10.966000	24.633187	0.001027	20.794284
972.272574	-2.987900	3.663300	-10.944000	24.645870	0.001027	20.825028
973.270631	-2.985800	3.663500	-10.937000	24.651394	0.001025	20.805441
974.276871	-2.993900	3.662500	-10.964000	24.626374	0.001027	20.802147
975.280297	-2.989900	3.662200	-10.949000	24.625057	0.001025	20.803670
976.279226	-2.995900	3.660800	-10.966000	24.633688	0.001025	20.793838
977.269364	-2.982700	3.662800	-10.924000	24.599489	0.001025	20.808835
978.282570	-2.989700	3.661000	-10.944000	24.631651	0.001024	20.805071
979.268815	-2.985300	3.661200	-10.928000	24.602872	0.001024	20.788996
980.268732	-2.994400	3.660700	-10.960000	24.617622	0.001024	20.799528
981.278572	-3.002200	3.661400	-10.990000	24.618345	0.001023	20.777020
982.280870	-3.016800	3.659800	-11.040000	24.615631	0.001025	20.811755
983.273098	-2.998200	3.660600	-10.974000	24.637493	0.001028	20.815674
984.279062	-2.994500	3.660900	-10.961000	24.630581	0.001022	20.807316
985.275004	-2.987700	3.659900	-10.933000	24.660823	0.001021	20.818695
986.273388	-3.019600	3.657600	-11.044000	24.656545	0.001021	20.808239
987.281908	-2.985900	3.659500	-10.926000	24.680969	0.001020	20.796238
988.278878	-3.015400	3.659100	-11.032000	24.679351	0.001020	20.800304
989.286291	-3.000400	3.658000	-10.974000	24.685072	0.001019	20.805570
990.278412	-3.036900	3.656200	-11.102000	24.689997	0.001019	20.806245
991.273535	-3.005600	3.655900	-10.987000	24.690269	0.001022	20.797509
992.273359	-3.010600	3.657000	-11.009000	24.692306	0.001020	20.827528
993.280447	-3.008200	3.656400	-10.998000	24.699243	0.001018	20.811730
994.274687	-2.982400	3.657400	-10.906000	24.707870	0.001018	20.799999
995.278739	-3.005600	3.656300	-10.988000	24.704140	0.001020	20.811903
996.287428	-3.009000	3.656100	-11.000000	24.704588	0.001016	20.825628
997.278065	-3.003200	3.655400	-10.977000	24.695660	0.001016	20.811928
998.277841	-2.991700	3.655600	-10.935000	24.683572	0.001016	20.789840
999.287025	-2.991100	3.656400	-10.936000	24.675363	0.001018	20.805785
1000.281975	-2.998600	3.654200	-10.956000	24.686181	0.001017	20.815218
1001.277668	-2.997800	3.655800	-10.958000	24.686006	0.001013	20.819309
1002.279850	-2.979400	3.656700	-10.894000	24.715226	0.001014	20.814492
1003.287542	-2.999900	3.654500	-10.963000	24.712015	0.001014	20.802736
1004.290849	-2.969600	3.654600	-10.851000	24.692664	0.001013	20.816033
1005.279571	-3.008700	3.654500	-10.994000	24.682967	0.001013	20.823372
1006.281579	-3.001100	3.654600	-10.966000	24.670678	0.001014	20.808196
1007.281646	-3.013100	3.652300	-11.004000	24.701019	0.001011	20.821098
1008.282695	-2.995100	3.654400	-10.943000	24.676122	0.001011	20.819823
1009.279480	-2.976200	3.654900	-10.876000	24.669700	0.001013	20.820491
1010.282557	-2.976400	3.654200	-10.874000	24.638191	0.001010	20.827754
1011.283570	-2.982900	3.653000	-10.896000	24.580687	0.001012	20.811780
1012.280471	-2.983200	3.652000	-10.893000	24.599564	0.001010	20.808910
1013.283553	-3.003700	3.651500	-10.967000	24.610036	0.001009	20.811357
1014.282115	-3.008600	3.651600	-10.985000	24.604215	0.001011	20.805042
1015.283625	-3.011800	3.649900	-10.991000	24.570334	0.001011	20.800918
1016.284813	-2.976700	3.652500	-10.871000	24.569861	0.001009	20.832686
1017.286571	-2.982700	3.650600	-10.887000	24.558469	0.001009	20.808454
1018.283051	-3.002200	3.651900	-10.963000	24.540415	0.001011	20.821159
1019.282532	-2.990300	3.650700	-10.916000	24.581002	0.001012	20.810674
1020.281935	-2.985400	3.650600	-10.897000	24.584808	0.001009	20.829191
1021.282249	-3.008600	3.649300	-10.979000	24.589458	0.001010	20.830064
1022.286793	-2.997900	3.649500	-10.939000	24.582420	0.001010	20.822528
1023.286531	-2.989400	3.649000	-10.906000	24.572471	0.001009	20.822028
1024.284379	-2.985100	3.651100	-10.898000	24.577991	0.001010	20.822352
1025.298008	-2.996000	3.650300	-10.935000	24.568393	0.001009	20.825523
1026.291735	-3.005600	3.648800	-10.966000	24.579284	0.001010	20.822700
1027.287688	-3.001800	3.648200	-10.950000	24.604551	0.001008	20.817707
1028.286687	-3.006900	3.648400	-10.968000	24.624674	0.001007	20.823674
1029.286297	-2.989700	3.648900	-10.909000	24.652081	0.001007	20.821777
1030.283175	-3.005800	3.647200	-10.961000	24.645039	0.001008	20.821824
1031.284927	-2.991700	3.646800	-10.908000	24.656928	0.001007	20.826641
1032.284379	-2.993900	3.648100	-10.921000	24.645190	0.001006	20.812492
1033.284874	-3.026700	3.646400	-11.034000	24.620271	0.001006	20.819730
1034.283532	-3.004300	3.647800	-10.958000	24.641657	0.001007	20.823171
1035.283359	-3.025800	3.645200	-11.028000	24.625068	0.001004	20.826914
1036.283824	-3.005200	3.646100	-10.955000	24.676004	0.001004	20.814015
1037.296630	-3.006400	3.645100	-10.958000	24.652879	0.001005	20.824000
1038.286761	-2.984500	3.645500	-10.879000	24.633208	0.001003	20.829392
1039.294603	-3.006400	3.644500	-10.956000	24.617042	0.001004	20.814119
1040.293855	-2.997500	3.645000	-10.925000	24.592519	0.001002	20.800893
1041.286304	-2.992500	3.643800	-10.903000	24.587074	0.001004	20.819611
1042.289042	-3.011500	3.643500	-10.972000	24.613812	0.001002	20.825103
1043.299409	-3.006800	3.643300	-10.953000	24.618112	0.001006	20.831788
1044.285509	-2.993600	3.645600	-10.911000	24.646865	0.001003	20.829345
1045.290508	-2.979400	3.644000	-10.855000	24.674547	0.000999	20.834837
1046.284131	-2.985000	3.643700	-10.876000	24.687008	0.001003	20.840229
1047.283929	-3.016100	3.643400	-10.988000	24.726401	0.001000	20.838983
1048.291907	-3.009000	3.641800	-10.957000	24.727443	0.001002	20.842398
1049.290163	-3.002200	3.643200	-10.936000	24.730131	0.001000	20.822337
1050.286528	-3.000300	3.642900	-10.929000	24.749632	0.001002	20.839536
1051.297666	-3.014200	3.640600	-10.971000	24.741027	0.001001	20.829478
1052.290082	-3.010100	3.640300	-10.957000	24.736703	0.000999	20.838889
1053.284391	-2.990300	3.640500	-10.885000	24.704623	0.000999	20.832776
1054.294547	-3.000500	3.641500	-10.923000	24.723849	0.001000	20.834999
1055.290757	-2.988200	3.642500	-10.882000	24.738898	0.000998	20.819755
1056.288294	-3.014700	3.638900	-10.968000	24.760707	0.000999	20.847330
1057.286937	-2.997000	3.640200	-10.909000	24.764537	0.000997	20.832682
1058.289047	-3.005500	3.639300	-10.936000	24.723907	0.000999	20.858763
1059.297668	-3.005400	3.641000	-10.941000	24.745047	0.000999	20.838728
1060.297861	-3.018400	3.638700	-10.982000	24.752310	0.000998	20.847912
1061.293547	-3.023600	3.638200	-10.999000	24.779395	0.000997	20.843325
1062.286223	-2.990900	3.639800	-10.885000	24.793043	0.000998	20.853228
1063.290534	-2.996400	3.638700	-10.901000	24.809311	0.000997	20.841580
1064.289205	-3.007400	3.638300	-10.940000	24.811351	0.000997	20.837463
1065.291103	-3.008000	3.637300	-10.940000	24.843954	0.000995	20.838889
1066.300048	-3.014300	3.637400	-10.962000	24.843804	0.000993	20.861023
1067.296656	-2.989700	3.637300	-10.874000	24.868721	0.000994	20.848099
1068.292919	-3.004700	3.636700	-10.927000	24.872358	0.000994	20.859809
1069.297124	-2.980900	3.637300	-10.842000	24.865894	0.000995	20.852373
1070.289979	-2.992800	3.636900	-10.884000	24.868603	0.000991	20.849403
1071.300101	-2.995000	3.637300	-10.892000	24.875422	0.000991	20.842022
1072.293064	-3.002800	3.637000	-10.919000	24.855776	0.000993	20.846961
1073.290196	-2.986200	3.636300	-10.859000	24.853221	0.000992	20.851982
1074.307289	-2.997900	3.635700	-10.898000	24.851728	0.000991	20.863286
1075.296030	-2.997000	3.634900	-10.892000	24.861649	0.000988	20.859019
1076.292544	-3.014200	3.635100	-10.956000	24.878535	0.000990	20.859371
1077.295930	-3.014700	3.634900	-10.957000	24.852927	0.000990	20.860222
1078.308547	-3.012500	3.636200	-10.953000	24.830722	0.000988	20.859274
1079.291870	-3.000100	3.634100	-10.901000	24.837909	0.000991	20.858900
1080.298608	-2.998100	3.634100	-10.894000	24.881621	0.000988	20.859148
1081.296533	-3.006100	3.633600	-10.921000	24.856234	0.000990	20.845998
1082.299708	-2.999000	3.633700	-10.896000	24.875683	0.000988	20.849396
1083.296806	-2.989300	3.634400	-10.863000	24.883016	0.000986	20.863394
1084.294987	-2.994100	3.632600	-10.876000	24.884881	0.000987	20.872377
1085.304835	-3.002400	3.632400	-10.905000	24.889605	0.000988	20.870480
1086.294458	-3.039600	3.632300	-11.039000	24.907980	0.000986	20.856680
1087.294574	-2.990100	3.632100	-10.860000	24.927800	0.000987	20.855711
1088.293032	-3.013800	3.630600	-10.941000	24.942691	0.000987	20.857855
1089.297629	-3.007500	3.632100	-10.923000	24.949355	0.000986	20.866440
1090.302189	-2.997100	3.631600	-10.884000	24.919121	0.000983	20.875448
1091.298268	-3.013700	3.629700	-10.938000	24.910743	0.000984	20.872729
1092.298394	-3.008300	3.630800	-10.922000	24.923469	0.000984	20.873174
1093.297260	-2.994100	3.630600	-10.870000	24.926257	0.000985	20.873602
1094.299091	-3.009000	3.630000	-10.922000	24.928766	0.000983	20.847198
1095.298160	-2.979000	3.632100	-10.819000	24.929757	0.000983	20.875218
1096.297898	-3.002500	3.630100	-10.897000	24.922424	0.000983	20.873548
1097.298478	-2.996800	3.630700	-10.879000	24.883092	0.000979	20.875322
1098.301329	-3.003600	3.628100	-10.896000	24.907955	0.000982	20.865190
1099.296080	-3.029100	3.627900	-10.987000	24.905564	0.000980	20.873695
1100.301059	-3.015700	3.628800	-10.942000	24.900192	0.000978	20.861666
1101.298288	-2.989200	3.628400	-10.845000	24.899469	0.000981	20.867104
1102.303463	-3.000200	3.627600	-10.883000	24.948428	0.000979	20.884000
1103.304038	-2.989700	3.627500	-10.844000	24.928633	0.000977	20.891158
1104.297870	-2.987900	3.628800	-10.842000	24.917643	0.000978	20.887240
1105.301019	-2.993000	3.626200	-10.852000	24.912467	0.000976	20.852176
1106.306836	-2.996200	3.627900	-10.869000	24.915749	0.000976	20.873961
1107.301813	-3.009300	3.626400	-10.911000	24.940290	0.000977	20.875358
1108.305094	-3.001000	3.627300	-10.884000	24.937577	0.000977	20.880221
1109.305452	-3.001300	3.626300	-10.882000	24.973404	0.000976	20.881094
1110.305560	-3.006300	3.626000	-10.900000	24.959730	0.000975	20.878274
1111.308570	-3.015500	3.624600	-10.929000	24.944835	0.000972	20.899832
1112.304678	-3.003700	3.625400	-10.889000	24.976159	0.000976	20.879593
1113.315104	-3.013100	3.624600	-10.919000	24.977401	0.000972	20.896959
1114.304546	-3.028400	3.624100	-10.974000	24.954079	0.000973	20.882085
1115.303308	-2.990400	3.625300	-10.840000	24.979641	0.000972	20.893518
1116.302983	-2.991800	3.623700	-10.840000	24.957686	0.000972	20.880490
1117.304921	-2.971800	3.624600	-10.770000	24.988191	0.000972	20.880763
1118.305550	-2.997300	3.624900	-10.863000	24.966211	0.000972	20.874823
1119.313277	-2.996100	3.624600	-10.858000	24.967230	0.000971	20.882010
1120.303585	-3.023300	3.622600	-10.950000	24.967180	0.000970	20.877692
1121.305563	-3.006100	3.623900	-10.892000	24.930104	0.000971	20.881730
1122.303857	-2.975600	3.623100	-10.780000	24.908251	0.000968	20.893460
1123.310604	-3.009000	3.624000	-10.903000	24.892980	0.000968	20.898521
1124.308544	-2.982800	3.623100	-10.805000	24.895743	0.000969	20.885174
1125.309345	-3.005800	3.621700	-10.885000	24.888682	0.000968	20.877613
1126.314853	-2.986900	3.622000	-10.817000	24.931070	0.000969	20.894078
1127.305447	-2.987200	3.622300	-10.820000	24.960710	0.000967	20.882103
1128.305270	-3.019400	3.620700	-10.931000	24.980303	0.000967	20.891812
1129.306658	-2.996300	3.621300	-10.850000	25.001557	0.000966	20.890860
1130.309639	-3.009600	3.620500	-10.895000	25.012848	0.000964	20.879908
1131.309923	-2.997500	3.620800	-10.851000	25.020452	0.000966	20.890386
1132.312408	-3.006500	3.619700	-10.882000	25.015503	0.000965	20.893478
1133.311959	-2.987300	3.618900	-10.809000	25.018963	0.000965	20.916864
1134.310592	-2.997800	3.619500	-10.848000	25.017192	0.000964	20.896596
1135.317872	-3.014500	3.618400	-10.906000	25.022664	0.000964	20.898295
1136.317881	-2.988000	3.619600	-10.815000	25.025322	0.000963	20.901912
1137.313461	-3.022400	3.617500	-10.933000	25.035890	0.000961	20.906355
1138.314995	-3.037100	3.617400	-10.985000	25.056398	0.000962	20.886165
1139.323036	-2.996300	3.617600	-10.838000	25.051699	0.000963	20.900888
1140.313711	-3.012100	3.616100	-10.890000	25.046328	0.000961	20.906401
1141.315374	-3.000900	3.616300	-10.850000	25.021690	0.000959	20.894473
1142.317523	-3.001400	3.617000	-10.855000	24.998172	0.000963	20.905004
1143.315349	-2.991400	3.617200	-10.819000	24.999063	0.000959	20.897839
1144.316332	-3.014400	3.615200	-10.896000	25.007294	0.000960	20.901359
1145.325850	-2.998400	3.615900	-10.841000	24.976116	0.000957	20.900884
1146.327351	-2.990500	3.616300	-10.812000	24.958860	0.000961	20.901581
1147.314997	-2.976400	3.615800	-10.761000	24.979198	0.000957	20.884538
1148.315322	-2.989200	3.614000	-10.802000	25.006002	0.000961	20.913811
1149.313376	-2.999400	3.614900	-10.842000	24.994661	0.000960	20.910489
1150.313331	-2.981700	3.616900	-10.783000	25.001947	0.000958	20.899785
1151.314208	-3.008800	3.613600	-10.871000	24.994933	0.000957	20.888953
1152.315810	-2.998400	3.612300	-10.829000	24.980858	0.000957	20.901851
1153.323066	-3.007100	3.613800	-10.866000	25.010972	0.000957	20.897939
1154.319965	-2.982600	3.615600	-10.782000	24.981660	0.000958	20.931576
1155.318880	-2.994100	3.612900	-10.816000	24.967910	0.000957	20.910665
1156.331852	-2.998300	3.612100	-10.829000	24.970372	0.000957	20.919299
1157.322695	-2.980700	3.614000	-10.771000	24.961669	0.000957	20.901082
1158.317695	-2.993500	3.611700	-10.810000	24.961393	0.000958	20.920718
1159.331018	-3.017700	3.611000	-10.896000	24.962764	0.000955	20.915456
1160.321071	-3.002400	3.610700	-10.840000	24.931289	0.000956	20.919899
1161.330310	-2.988300	3.612300	-10.793000	24.905903	0.000952	20.919077
1162.323283	-2.993800	3.609300	-10.804000	24.902325	0.000955	20.922596
1163.321138	-2.989500	3.610200	-10.792000	24.924825	0.000952	20.925265
1164.326061	-2.996400	3.611900	-10.822000	24.931142	0.000954	20.933501
1165.330057	-3.007700	3.609800	-10.856000	24.957672	0.000955	20.918405
1166.322565	-2.979000	3.610900	-10.755000	24.967048	0.000952	20.910273
1167.324178	-3.004800	3.608500	-10.842000	24.951108	0.000955	20.920826
1168.326015	-2.999100	3.608200	-10.820000	24.963444	0.000952	20.948851
1169.322967	-2.991400	3.609500	-10.797000	24.998823	0.000947	20.925570
1170.325269	-2.994800	3.609100	-10.808000	25.020824	0.000951	20.914939
1171.328424	-3.020600	3.608700	-10.899000	25.020806	0.000949	20.931515
1172.324383	-3.009600	3.608000	-10.857000	25.063991	0.000951	20.940249
1173.327955	-3.001800	3.608000	-10.829000	25.060710	0.000948	20.922733
1174.324912	-2.988700	3.608600	-10.783000	25.026002	0.000947	20.915395
1175.328439	-2.988700	3.607400	-10.781000	25.050519	0.000953	20.915348
1176.324593	-2.999200	3.605800	-10.812000	25.055865	0.000949	20.928300
1177.334135	-2.987500	3.607600	-10.777000	25.076401	0.000948	20.955076
1178.327323	-3.007700	3.607000	-10.848000	25.096140	0.000949	20.918470
1179.333633	-2.991100	3.607600	-10.790000	25.109143	0.000947	20.946219
1180.327815	-3.001200	3.607700	-10.827000	25.114614	0.000946	20.931798
1181.328054	-3.003700	3.605600	-10.829000	25.080334	0.000945	20.937215
1182.329151	-3.010800	3.605300	-10.853000	25.053983	0.000944	20.950116
1183.336057	-2.998900	3.605800	-10.812000	25.049681	0.000945	20.933946
1184.336540	-2.995300	3.604100	-10.793000	25.066514	0.000946	20.949419
1185.328995	-2.997100	3.606300	-10.808000	25.084417	0.000946	20.951743
1186.329001	-3.023300	3.603900	-10.894000	25.072508	0.000946	20.948324
1187.338959	-2.980500	3.604000	-10.740000	25.095406	0.000944	20.937646
1188.341494	-2.984100	3.603600	-10.753000	25.095979	0.000944	20.933479
1189.332530	-2.990500	3.605400	-10.780000	25.101153	0.000943	20.948629
1190.329846	-2.977400	3.603800	-10.728000	25.112067	0.000942	20.978073
1191.333899	-3.014500	3.601900	-10.857000	25.141082	0.000942	20.937980
1192.330159	-3.000200	3.602000	-10.805000	25.132230	0.000942	20.949006
1193.337870	-3.012500	3.603300	-10.853000	25.134323	0.000941	20.968649
1194.333031	-3.025100	3.600800	-10.892000	25.139594	0.000941	20.950709
1195.335508	-3.013100	3.600900	-10.849000	25.152050	0.000943	20.963685
1196.333783	-3.005000	3.600200	-10.817000	25.143251	0.000939	20.946320
1197.332738	-3.011000	3.599500	-10.836000	25.148525	0.000940	20.977215
1198.335263	-2.989000	3.601100	-10.763000	25.176517	0.000942	20.968807
1199.334314	-2.991100	3.600600	-10.769000	25.167919	0.000939	20.957806
1200.336859	-3.007200	3.599500	-10.824000	25.180817	0.000938	20.941834
1201.334660	-2.991100	3.600700	-10.769000	25.213760	0.000941	20.947405
1202.335642	-2.971700	3.601200	-10.701000	25.186593	0.000939	20.940994
1203.341588	-3.027000	3.598400	-10.892000	25.188657	0.000936	20.952074
1204.335901	-2.999800	3.598300	-10.793000	25.151968	0.000936	20.946062
1205.338473	-3.006200	3.598300	-10.817000	25.113492	0.000936	20.953428
1206.337410	-2.990300	3.598200	-10.757000	25.118863	0.000934	20.955501
1207.336761	-2.997500	3.597400	-10.782000	25.137162	0.000936	20.960119
1208.339846	-3.012400	3.598100	-10.837000	25.137809	0.000934	20.957925
1209.335156	-3.021400	3.596800	-10.866000	25.110243	0.000932	20.934048
1210.337027	-2.995700	3.597600	-10.777000	25.090659	0.000932	20.944259
1211.337329	-2.979300	3.598500	-10.720000	25.045364	0.000931	20.953317
1212.337392	-2.978300	3.597700	-10.714000	25.038650	0.000931	20.945157
1213.337595	-3.016800	3.596500	-10.849000	25.055312	0.000931	20.948131
1214.336361	-2.989700	3.595900	-10.750000	25.071647	0.000927	20.928970
1215.338530	-2.995700	3.595200	-10.769000	25.092234	0.000928	20.920239
1216.340759	-3.001100	3.594400	-10.785000	25.081520	0.000928	20.950258
1217.338465	-3.010100	3.593700	-10.815000	25.120427	0.000930	20.942374
1218.341901	-2.990800	3.593600	-10.746000	25.130622	0.000927	20.948814
1219.337719	-2.989400	3.595200	-10.745000	25.136243	0.000927	20.934545
1220.337440	-3.010300	3.594500	-10.820000	25.161297	0.000925	20.943574
1221.344690	-3.001000	3.592700	-10.780000	25.129831	0.000927	20.940435
1222.340118	-3.017000	3.592100	-10.836000	25.107188	0.000926	20.944731
1223.338081	-3.006500	3.593100	-10.801000	25.087969	0.000924	20.952463
1224.338684	-2.982300	3.593500	-10.716000	25.064577	0.000924	20.931355
1225.341530	-3.009800	3.592100	-10.810000	25.058988	0.000923	20.954191
1226.339993	-3.023200	3.592100	-10.858000	25.070525	0.000925	20.929739
1227.347046	-3.019600	3.591600	-10.844000	25.091458	0.000923	20.952173
1228.342781	-3.010500	3.589900	-10.805000	25.109432	0.000922	20.926597
1229.344274	-2.994900	3.590100	-10.751000	25.109307	0.000921	20.947805
1230.344397	-2.986500	3.592300	-10.725000	25.127828	0.000922	20.937476
1231.356795	-2.984300	3.591400	-10.717000	25.133868	0.000920	20.919359
1232.347510	-3.018600	3.591000	-10.838000	25.172923	0.000918	20.942443
1233.343002	-2.995700	3.590500	-10.754000	25.160171	0.000918	20.929168
1234.357331	-3.002700	3.590800	-10.781000	25.181353	0.000916	20.933364
1235.342925	-3.014100	3.589300	-10.817000	25.165709	0.000918	20.919083
1236.351727	-3.021900	3.589100	-10.843000	25.186544	0.000917	20.921507
1237.344630	-3.005100	3.588700	-10.783000	25.174039	0.000917	20.931711
1238.344277	-2.999600	3.588400	-10.763000	25.161985	0.000916	20.921507
1239.350126	-3.004800	3.587600	-10.779000	25.174633	0.000918	20.937522
1240.348649	-2.977500	3.588100	-10.682000	25.161086	0.000915	20.915865
1241.344927	-3.035700	3.587200	-10.888000	25.181642	0.000915	20.911845
1242.355638	-2.998300	3.589500	-10.760000	25.170429	0.000915	20.932354
1243.348714	-2.979500	3.587000	-10.686000	25.155290	0.000917	20.917632
1244.352400	-2.976000	3.587800	-10.676000	25.141167	0.000914	20.936642
1245.347140	-3.004000	3.586000	-10.772000	25.064774	0.000916	20.914485
1246.345959	-2.975000	3.586800	-10.670000	25.094778	0.000914	20.899561
1247.346433	-3.008800	3.585200	-10.786000	25.110337	0.000916	20.925134
1248.346476	-3.007200	3.586300	-10.784000	25.116577	0.000913	20.911486
1249.352139	-2.967500	3.586700	-10.643000	25.142229	0.000918	20.908314
1250.347069	-2.992400	3.586400	-10.731000	25.136558	0.000915	20.909259
1251.347398	-3.003000	3.584200	-10.762000	25.139964	0.000914	20.915997
1252.346395	-3.018400	3.584000	-10.817000	25.152638	0.000912	20.912599
1253.348580	-2.994900	3.584700	-10.735000	25.170539	0.000914	20.913975
1254.349556	-2.998700	3.583100	-10.744000	25.174464	0.000910	20.920759
1255.348508	-2.987200	3.583700	-10.705000	25.178017	0.000910	20.913421
1256.349573	-3.003700	3.583100	-10.761000	25.163798	0.000909	20.907682
1257.356893	-2.983600	3.584200	-10.692000	25.165884	0.000910	20.912146
1258.350334	-3.005400	3.581900	-10.765000	25.145399	0.000910	20.911970
1259.349510	-2.990600	3.582000	-10.711000	25.143961	0.000909	20.906734
1260.356256	-3.009400	3.581200	-10.776000	25.152162	0.000907	20.880355
1261.360033	-3.007300	3.582500	-10.772000	25.190289	0.000907	20.903458
1262.350093	-3.014100	3.581800	-10.795000	25.185470	0.000909	20.905257
1263.357723	-2.981200	3.580900	-10.674000	25.203542	0.000907	20.904909
1264.366014	-2.978600	3.581200	-10.666000	25.198343	0.000904	20.890682
1265.363236	-3.018500	3.578600	-10.801000	25.223972	0.000906	20.888437
1266.362281	-3.006400	3.579000	-10.758000	25.235478	0.000904	20.894299
1267.352294	-3.007400	3.579100	-10.763000	25.264140	0.000906	20.908375
1268.354349	-2.990300	3.581000	-10.706000	25.215693	0.000904	20.887237
1269.356098	-3.010800	3.579900	-10.777000	25.179999	0.000902	20.886016
1270.354449	-3.006100	3.579800	-10.761000	25.169930	0.000903	20.878279
1271.354023	-3.020700	3.577600	-10.805000	25.187309	0.000901	20.891932
1272.357531	-2.995300	3.578300	-10.718000	25.150991	0.000902	20.896723
1273.355524	-3.035800	3.577900	-10.860000	25.155267	0.000902	20.897697
1274.369940	-2.966800	3.578700	-10.616000	25.178106	0.000905	20.870840
1275.357030	-2.953200	3.578800	-10.567000	25.182757	0.000901	20.912965
1276.357968	-3.018600	3.577200	-10.797000	25.178285	0.000902	20.886192
1277.368387	-3.012300	3.575600	-10.770000	25.161779	0.000899	20.895225
1278.365940	-3.021900	3.575400	-10.803000	25.173286	0.000902	20.870744
1279.366295	-3.003000	3.575800	-10.737000	25.152881	0.000897	20.874914
1280.359347	-3.016100	3.575600	-10.783000	25.158699	0.000899	20.883125
1281.369807	-3.015000	3.574200	-10.775000	25.159017	0.000900	20.900987
1282.363150	-2.998300	3.575000	-10.718000	25.130582	0.000898	20.882399
1283.367622	-2.990700	3.575000	-10.691000	25.120512	0.000897	20.880826
1284.362543	-2.999000	3.574100	-10.718000	25.131426	0.000896	20.869023
1285.363685	-2.991500	3.574700	-10.693000	25.116687	0.000895	20.882202
1286.366239	-3.009400	3.574400	-10.756000	25.157955	0.000896	20.893282
1287.363231	-2.983400	3.574400	-10.663000	25.174310	0.000896	20.891684
1288.365524	-2.984500	3.573300	-10.663000	25.164316	0.000894	20.863161
1289.362881	-2.964600	3.575200	-10.598000	25.160291	0.000894	20.876189
1290.364270	-2.994200	3.574100	-10.701000	25.187760	0.000894	20.876264
1291.364435	-3.006300	3.573300	-10.740000	25.166410	0.000892	20.875693
1292.365639	-3.016300	3.572100	-10.774000	25.174585	0.000893	20.871099
1293.362497	-3.017100	3.570200	-10.770000	25.169669	0.000892	20.862371
1294.361942	-2.991100	3.571600	-10.681000	25.156938	0.000889	20.878039
1295.364874	-2.987900	3.572100	-10.671000	25.164896	0.000893	20.892665
1296.362768	-2.986700	3.572100	-10.668000	25.136633	0.000890	20.890844
1297.366848	-3.004800	3.569700	-10.724000	25.128578	0.000893	20.880862
1298.363439	-3.000900	3.570700	-10.714000	25.134321	0.000889	20.901325
1299.363032	-2.986100	3.568400	-10.654000	25.141284	0.000890	20.846204
1300.366580	-3.001300	3.569900	-10.712000	25.137284	0.000890	20.883912
1301.368540	-3.022500	3.569400	-10.788000	25.167788	0.000890	20.855267
1302.368551	-3.002100	3.569400	-10.714000	25.202416	0.000887	20.852573
1303.366116	-3.005200	3.568500	-10.723000	25.219071	0.000888	20.874983
1304.371151	-3.011300	3.567800	-10.743000	25.223322	0.000886	20.875931
1305.367409	-2.978700	3.569000	-10.630000	25.219790	0.000886	20.867170
1306.382611	-3.008000	3.567600	-10.729000	25.184573	0.000886	20.847936
1307.367037	-3.010400	3.567300	-10.738000	25.180447	0.000887	20.873191
1308.367610	-2.994100	3.567100	-10.679000	25.159540	0.000886	20.877806
1309.367994	-3.001500	3.566000	-10.701000	25.173885	0.000886	20.865655
1310.370085	-3.003900	3.567300	-10.715000	25.153132	0.000885	20.863787
1311.370112	-2.996800	3.566500	-10.686000	25.164049	0.000885	20.852462
1312.374472	-2.995800	3.566200	-10.683000	25.181027	0.000884	20.884204
1313.371611	-3.006900	3.564500	-10.718000	25.197708	0.000884	20.872027
1314.367451	-3.011500	3.565200	-10.734000	25.179757	0.000882	20.869179
1315.370591	-2.978100	3.564500	-10.615000	25.177056	0.000882	20.879743
1316.368957	-2.993900	3.565600	-10.674000	25.157466	0.000881	20.884258
1317.370255	-3.011100	3.563500	-10.729000	25.189411	0.000879	20.876025
1318.372959	-2.987900	3.564400	-10.650000	25.160375	0.000880	20.873902
1319.372575	-2.977000	3.565400	-10.613000	25.142907	0.000880	20.867272
1320.373879	-3.030000	3.561900	-10.791000	25.120260	0.000880	20.848332
1321.378461	-2.998100	3.563200	-10.681000	25.115018	0.000878	20.861561
1322.372180	-2.995400	3.562400	-10.670000	25.127675	0.000878	20.878059
1323.374734	-3.009200	3.562400	-10.720000	25.115720	0.000878	20.867007
1324.378658	-2.977900	3.562500	-10.608000	25.136030	0.000878	20.862266
1325.371768	-3.005200	3.561500	-10.702000	25.142818	0.000879	20.879984
1326.372429	-3.004500	3.562400	-10.702000	25.105379	0.000876	20.850463
1327.372060	-2.991900	3.562200	-10.657000	25.098770	0.000877	20.866587
1328.371319	-2.988500	3.560800	-10.640000	25.101085	0.000873	20.855161
1329.374229	-2.996400	3.560600	-10.667000	25.102180	0.000875	20.851519
1330.371868	-3.007600	3.561400	-10.710000	25.118490	0.000875	20.862202
1331.379921	-2.999200	3.560600	-10.678000	25.109369	0.000876	20.882442
1332.372180	-2.994600	3.560900	-10.663000	25.153575	0.000874	20.846689
1333.382387	-3.008500	3.559400	-10.708000	25.158273	0.000874	20.847612
1334.376701	-3.022900	3.558100	-10.753000	25.162674	0.000874	20.860090
1335.373472	-2.983000	3.559000	-10.615000	25.178561	0.000874	20.858970
1336.380687	-2.989500	3.559200	-10.639000	25.187810	0.000874	20.878685
1337.375184	-2.988000	3.559500	-10.634000	25.196115	0.000872	20.853359
1338.374775	-2.999800	3.556700	-10.669000	25.165691	0.000872	20.869756
1339.374198	-3.001700	3.557400	-10.677000	25.167834	0.000871	20.837771
1340.378291	-2.987400	3.557600	-10.627000	25.184716	0.000873	20.871786
1341.376082	-3.008000	3.557600	-10.700000	25.153193	0.000871	20.846305
1342.374361	-2.992300	3.556400	-10.641000	25.171821	0.000871	20.866428
1343.378418	-3.012500	3.555400	-10.709000	25.185121	0.000870	20.853228
1344.379056	-3.002500	3.556300	-10.677000	25.197977	0.000870	20.846694
1345.383311	-3.015400	3.554700	-10.718000	25.224303	0.000868	20.849891
1346.379899	-2.994200	3.555100	-10.644000	25.199125	0.000870	20.858278
1347.384974	-3.030400	3.553300	-10.767000	25.177078	0.000865	20.844206
1348.380259	-2.998600	3.554800	-10.659000	25.190005	0.000865	20.845804
1349.381947	-3.001900	3.553600	-10.667000	25.222744	0.000866	20.856860
1350.381658	-2.989100	3.555400	-10.626000	25.174774	0.000866	20.859910
1351.379062	-2.998700	3.555600	-10.661000	25.195258	0.000865	20.860086
1352.379581	-3.016800	3.553400	-10.720000	25.225861	0.000866	20.835334
1353.381696	-3.014500	3.552700	-10.708000	25.203149	0.000864	20.859473
1354.382240	-2.999300	3.552300	-10.653000	25.162255	0.000865	20.856825
1355.385996	-3.006400	3.552400	-10.680000	25.145975	0.000862	20.853758
1356.381825	-2.983800	3.552000	-10.598000	25.127333	0.000863	20.849268
1357.385195	-2.999700	3.552400	-10.655000	25.117568	0.000863	20.848475
1358.384683	-3.034700	3.550200	-10.773000	25.132160	0.000865	20.849847
1359.382108	-3.019300	3.551500	-10.722000	25.156628	0.000859	20.847383
1360.383958	-3.009200	3.551700	-10.686000	25.193472	0.000861	20.848335
1361.386580	-3.006500	3.550500	-10.672000	25.219970	0.000862	20.858343
1362.383419	-3.006800	3.548900	-10.670000	25.244679	0.000859	20.844270
1363.389522	-2.986600	3.551000	-10.605000	25.252515	0.000859	20.858774
1364.383501	-3.004100	3.549800	-10.663000	25.298227	0.000858	20.839238
1365.384390	-3.017000	3.549000	-10.706000	25.306803	0.000858	20.840262
1366.384455	-2.990900	3.550600	-10.618000	25.320677	0.000857	20.848976
1367.391418	-3.009100	3.548600	-10.678000	25.322867	0.000857	20.868243
1368.387312	-2.999300	3.548000	-10.641000	25.338802	0.000856	20.854372
1369.385380	-2.990100	3.548000	-10.607000	25.344046	0.000856	20.837827
1370.385198	-2.996100	3.548000	-10.630000	25.344096	0.000852	20.838352
1371.384646	-3.006100	3.546700	-10.661000	25.353048	0.000854	20.840701
1372.385493	-3.013400	3.547400	-10.689000	25.345692	0.000849	20.831894
1373.386714	-2.982200	3.546900	-10.576000	25.350318	0.000853	20.836065
1374.392504	-3.011700	3.546200	-10.680000	25.342090	0.000853	20.841553
1375.386525	-2.987700	3.546900	-10.596000	25.302330	0.000850	20.841934
1376.386544	-3.003400	3.545300	-10.647000	25.282742	0.000851	20.834122
1377.387694	-3.006600	3.545100	-10.658000	25.291246	0.000851	20.845031
1378.389017	-3.002300	3.546100	-10.646000	25.277329	0.000851	20.855239
1379.389174	-3.027700	3.544300	-10.729000	25.284166	0.000851	20.854517
1380.388182	-3.043800	3.543600	-10.784000	25.291651	0.000850	20.831213
1381.388137	-3.036400	3.541900	-10.754000	25.296725	0.000850	20.829669
1382.395101	-3.016300	3.544000	-10.689000	25.287179	0.000849	20.844267
1383.393174	-2.989200	3.544200	-10.593000	25.282883	0.000848	20.830944
1384.393299	-3.014900	3.545000	-10.687000	25.249975	0.000849	20.827302
1385.393867	-2.992500	3.543000	-10.602000	25.251195	0.000847	20.835165
1386.390775	-3.000200	3.541100	-10.624000	25.230515	0.000845	20.835740
1387.390641	-2.978600	3.542600	-10.550000	25.226938	0.000845	20.843053
1388.394210	-3.004800	3.541700	-10.640000	25.197785	0.000844	20.847450
1389.395262	-3.028500	3.542800	-10.728000	25.212777	0.000841	20.825518
1390.394382	-3.022700	3.541600	-10.705000	25.201217	0.000845	20.850421
1391.391785	-3.000000	3.542400	-10.626000	25.182923	0.000843	20.836323
1392.395772	-3.018100	3.540000	-10.683000	25.116376	0.000844	20.841115
1393.401885	-3.002300	3.540300	-10.626000	25.143850	0.000841	20.847358
1394.397751	-2.992200	3.540900	-10.594000	25.167963	0.000843	20.827469
1395.394031	-2.999500	3.540600	-10.619000	25.185217	0.000840	20.850479
1396.394857	-3.008200	3.539800	-10.648000	25.247462	0.000840	20.826676
1397.394806	-2.999700	3.539300	-10.615000	25.221683	0.000838	20.835882
1398.395945	-2.992400	3.539100	-10.589000	25.201927	0.000839	20.830746
1399.400781	-3.023800	3.536500	-10.693000	25.229691	0.000839	20.823533
1400.397852	-3.006300	3.538800	-10.637000	25.240503	0.000840	20.826328
1401.400830	-2.992200	3.537500	-10.584000	25.250024	0.000841	20.844420
1402.398239	-3.020700	3.537100	-10.683000	25.282739	0.000840	20.829852
1403.398005	-2.980300	3.537400	-10.541000	25.306201	0.000839	20.829227
1404.406694	-2.995900	3.536300	-10.594000	25.309156	0.000838	20.816547
1405.402186	-3.002700	3.536100	-10.616000	25.337841	0.000837	20.830175
1406.401902	-2.997500	3.535200	-10.595000	25.333963	0.000837	20.840980
1407.403975	-3.024500	3.537000	-10.697000	25.379221	0.000835	20.830947
1408.402068	-3.017500	3.535400	-10.666000	25.365728	0.000835	20.835890
1409.402030	-3.003500	3.535100	-10.617000	25.350621	0.000837	20.829730
1410.403200	-2.997400	3.533800	-10.590000	25.314681	0.000834	20.819249
1411.400051	-2.988300	3.535500	-10.564000	25.309214	0.000833	20.820398
1412.402253	-2.982900	3.534600	-10.543000	25.301508	0.000833	20.811713
1413.400710	-3.004000	3.533900	-10.615000	25.322237	0.000831	20.809766
1414.400425	-2.999400	3.533600	-10.596000	25.319604	0.000832	20.803803
1415.404097	-3.004700	3.534800	-10.620000	25.282024	0.000834	20.827238
1416.401187	-3.012900	3.532400	-10.641000	25.281552	0.000831	20.805901
1417.400419	-3.001800	3.534800	-10.609000	25.265123	0.000833	20.825916
1418.400613	-3.021800	3.532000	-10.672000	25.250634	0.000832	20.809472
1419.400641	-3.032600	3.530500	-10.706000	25.242630	0.000830	20.809497
1420.401649	-3.004900	3.531500	-10.611000	25.254788	0.000833	20.816487
1421.401638	-3.019000	3.531300	-10.659000	25.247607	0.000826	20.836779
1422.405445	-2.996700	3.531600	-10.581000	25.262891	0.000831	20.809925
1423.401592	-3.005300	3.531100	-10.610000	25.246061	0.000832	20.802511
1424.401334	-3.018900	3.530600	-10.656000	25.266548	0.000828	20.812174
1425.402866	-3.019200	3.531100	-10.660000	25.268241	0.000830	20.802493
1426.403274	-3.009000	3.529700	-10.620000	25.258102	0.000828	20.820763
1427.404947	-2.985100	3.531700	-10.542000	25.226188	0.000826	20.813378
1428.412242	-3.001900	3.528600	-10.592000	25.197625	0.000827	20.807936
1429.404891	-3.022800	3.529700	-10.668000	25.191439	0.000827	20.805519
1430.411561	-3.007200	3.530700	-10.616000	25.190845	0.000824	20.823889
1431.405711	-2.973300	3.529300	-10.493000	25.201010	0.000827	20.812283
1432.404574	-3.004300	3.528700	-10.601000	25.212224	0.000824	20.798885
1433.403756	-3.010500	3.527600	-10.618000	25.257587	0.000824	20.812660
1434.403917	-3.002200	3.528200	-10.592000	25.281698	0.000822	20.807470
1435.405513	-3.008000	3.527500	-10.609000	25.301114	0.000822	20.795670
1436.407763	-3.018800	3.527900	-10.648000	25.318065	0.000823	20.795620
1437.408416	-3.014900	3.526900	-10.631000	25.335466	0.000820	20.814040
1438.410455	-2.996800	3.526500	-10.567000	25.312502	0.000823	20.820380
1439.407824	-2.974500	3.528400	-10.494000	25.299831	0.000821	20.818089
1440.410087	-2.977100	3.526400	-10.497000	25.299806	0.000818	20.791986
1441.410358	-3.013700	3.525000	-10.623000	25.315394	0.000823	20.801947
1442.410453	-2.984800	3.526000	-10.523000	25.330556	0.000819	20.806265
1443.408244	-3.009000	3.525000	-10.606000	25.377356	0.000820	20.807263
1444.409632	-2.993200	3.525300	-10.551000	25.373507	0.000817	20.819046
1445.408566	-2.997200	3.524900	-10.564000	25.380264	0.000820	20.811606
1446.408888	-3.029400	3.521600	-10.667000	25.399976	0.000818	20.814329
1447.413344	-2.972400	3.524000	-10.473000	25.388869	0.000818	20.816452
1448.410751	-3.005300	3.521900	-10.583000	25.367874	0.000818	20.814338
1449.413454	-3.026600	3.522700	-10.661000	25.342073	0.000818	20.807397
1450.411413	-2.979900	3.523800	-10.499000	25.340882	0.000818	20.800986
1451.411459	-3.007100	3.522900	-10.593000	25.346624	0.000816	20.808174
1452.411467	-3.003600	3.522900	-10.580000	25.376378	0.000814	20.803436
1453.410789	-2.973900	3.522000	-10.473000	25.347794	0.000815	20.798443
1454.412288	-2.995400	3.521400	-10.547000	25.286432	0.000815	20.828343
1455.410956	-2.997700	3.521100	-10.554000	25.300077	0.000813	20.798896
1456.412531	-3.018100	3.518700	-10.619000	25.298535	0.000812	20.812995
1457.415494	-3.018600	3.519600	-10.623000	25.303336	0.000813	20.796953
1458.413443	-2.988800	3.521400	-10.524000	25.339598	0.000813	20.821982
1459.412808	-2.995200	3.520600	-10.544000	25.345942	0.000814	20.807489
1460.412883	-3.021000	3.518800	-10.629000	25.350765	0.000814	20.820392
1461.422982	-2.998600	3.518200	-10.549000	25.350021	0.000810	20.832921
1462.412879	-3.023400	3.518700	-10.637000	25.344354	0.000812	20.816326
1463.416640	-3.002900	3.517600	-10.562000	25.356235	0.000810	20.834893
1464.412153	-3.005300	3.516600	-10.567000	25.359448	0.000811	20.817257
1465.425033	-2.998200	3.517400	-10.545000	25.355148	0.000811	20.825742
1466.419227	-2.970400	3.518000	-10.449000	25.340208	0.000808	20.819750
1467.414766	-2.988300	3.517300	-10.510000	25.331215	0.000809	20.833953
1468.417571	-2.984300	3.516000	-10.491000	25.297665	0.000809	20.811647
1469.419168	-3.018100	3.516300	-10.610000	25.301815	0.000807	20.813443
1470.422621	-3.010000	3.516000	-10.582000	25.296771	0.000806	20.818336
1471.419036	-3.011600	3.514500	-10.583000	25.305396	0.000807	20.807556
1472.418540	-2.996000	3.515900	-10.532000	25.283430	0.000803	20.832442
1473.422000	-3.010700	3.514800	-10.580000	25.287137	0.000808	20.799655
1474.418527	-3.004400	3.515700	-10.560000	25.257239	0.000807	20.823215
1475.417333	-2.998300	3.513900	-10.534000	25.231167	0.000804	20.810791
1476.421299	-3.014200	3.512200	-10.585000	25.215482	0.000805	20.805949
1477.418218	-3.010600	3.513700	-10.577000	25.229057	0.000804	20.816733
1478.419679	-2.986400	3.513100	-10.491000	25.214993	0.000805	20.823001
1479.422445	-3.018600	3.511000	-10.597000	25.246510	0.000801	20.839470
1480.420290	-3.026500	3.511200	-10.625000	25.268117	0.000802	20.818016
1481.425398	-3.007200	3.512000	-10.560000	25.284496	0.000802	20.828296
1482.421106	-3.000000	3.510900	-10.531000	25.337270	0.000802	20.826282
1483.423187	-3.025600	3.509400	-10.617000	25.350346	0.000802	20.845101
1484.431873	-2.990800	3.511200	-10.500000	25.343538	0.000802	20.823568
1485.425348	-2.995900	3.511000	-10.518000	25.324006	0.000799	20.838094
1486.423044	-3.000700	3.511100	-10.535000	25.316429	0.000800	20.840918
1487.424375	-2.973400	3.511400	-10.439000	25.340195	0.000798	20.827797
1488.424558	-2.979200	3.511100	-10.459000	25.328389	0.000798	20.838228
1489.424548	-3.003100	3.510000	-10.540000	25.357300	0.000798	20.840704
1490.429107	-2.993000	3.510200	-10.505000	25.386728	0.000796	20.829001
1491.429723	-2.998500	3.507800	-10.517000	25.405344	0.000799	20.814504
1492.428867	-2.998200	3.508300	-10.517000	25.394337	0.000796	20.827633
1493.426081	-2.983700	3.509500	-10.469000	25.412381	0.000796	20.842907
1494.425805	-2.979000	3.509100	-10.452000	25.426455	0.000795	20.832383
1495.426218	-2.983400	3.509100	-10.469000	25.435427	0.000796	20.830013
1496.425942	-3.005200	3.506400	-10.536000	25.450391	0.000796	20.837926
1497.426455	-2.974400	3.508600	-10.435000	25.446718	0.000794	20.830919
1498.425605	-2.994700	3.506300	-10.499000	25.413739	0.000791	20.830994
1499.425569	-2.976400	3.505600	-10.434000	25.421917	0.000794	20.833990
1500.425514	-2.988100	3.507100	-10.478000	25.405716	0.000794	20.829102
1501.427363	-2.990600	3.506200	-10.485000	25.356707	0.000795	20.833470
1502.427202	-2.998800	3.505500	-10.512000	25.331632	0.000792	20.832002
1503.426731	-2.994800	3.506100	-10.500000	25.363623	0.000791	20.860328
1504.425994	-3.010500	3.504100	-10.548000	25.333676	0.000790	20.835950
1505.427020	-3.005500	3.503900	-10.530000	25.329777	0.000791	20.825871
1506.427020	-2.997900	3.504200	-10.504000	25.337061	0.000791	20.845987
1507.429685	-2.996400	3.503200	-10.496000	25.344446	0.000790	20.859564
1508.427977	-2.996500	3.504300	-10.500000	25.371488	0.000789	20.843096
1509.427578	-3.012400	3.503100	-10.551000	25.404521	0.000789	20.836437
1510.428518	-2.983300	3.502600	-10.449000	25.430145	0.000788	20.846520
1511.429262	-2.983300	3.501600	-10.446000	25.461138	0.000789	20.845399
1512.430774	-2.973000	3.502000	-10.410000	25.439869	0.000787	20.839689
1513.429611	-2.997400	3.500300	-10.490000	25.439472	0.000790	20.836919
1514.433282	-2.995900	3.501000	-10.488000	25.448001	0.000789	20.847380
1515.429517	-2.989500	3.501700	-10.467000	25.475191	0.000787	20.858088
1516.429864	-2.998400	3.500100	-10.494000	25.473749	0.000785	20.844313
1517.428949	-3.003500	3.500300	-10.512000	25.486009	0.000787	20.845244
1518.432570	-3.006400	3.500300	-10.522000	25.471965	0.000785	20.843469
1519.430489	-2.988300	3.499600	-10.457000	25.434095	0.000786	20.839580
1520.431227	-2.949400	3.500700	-10.322000	25.415629	0.000785	20.830047
1521.429853	-2.987400	3.499300	-10.453000	25.434671	0.000785	20.833047
1522.429242	-3.009300	3.499200	-10.528000	25.436711	0.000783	20.849319
1523.433323	-3.004700	3.496500	-10.505000	25.413949	0.000781	20.849222
1524.430694	-2.989700	3.498900	-10.460000	25.427442	0.000784	20.849495
1525.433465	-2.971800	3.498800	-10.397000	25.415792	0.000782	20.848702
1526.431304	-2.986200	3.497300	-10.442000	25.390193	0.000780	20.841015
1527.434564	-3.015600	3.497300	-10.544000	25.398622	0.000781	20.851849
1528.434831	-2.989400	3.497300	-10.454000	25.381777	0.000780	20.850108
1529.434015	-3.000200	3.495800	-10.487000	25.378346	0.000780	20.858042
1530.435106	-2.984200	3.497100	-10.435000	25.360979	0.000777	20.864785
1531.434323	-3.011700	3.496500	-10.530000	25.359738	0.000779	20.852160
1532.435040	-2.986000	3.496300	-10.439000	25.337739	0.000777	20.858521
1533.434663	-3.009600	3.494300	-10.515000	25.357356	0.000776	20.856406
1534.435526	-3.012700	3.493700	-10.525000	25.370356	0.000776	20.867089
1535.433641	-2.994200	3.493500	-10.458000	25.405425	0.000778	20.862948
1536.436319	-3.003700	3.493900	-10.494000	25.365940	0.000776	20.871662
1537.434511	-2.994700	3.493200	-10.460000	25.346382	0.000777	20.850604
1538.436531	-2.993800	3.492800	-10.456000	25.354907	0.000777	20.880025
1539.437063	-3.005500	3.493300	-10.496000	25.349918	0.000779	20.855102
1540.435972	-3.010700	3.493100	-10.516000	25.342910	0.000774	20.871772
1541.438045	-3.002800	3.492400	-10.485000	25.360507	0.000772	20.861467
1542.442037	-2.986700	3.492200	-10.429000	25.369204	0.000772	20.873517
1543.437297	-2.988800	3.491200	-10.433000	25.373909	0.000772	20.854062
1544.438272	-3.011400	3.491300	-10.511000	25.382957	0.000770	20.859353
1545.439789	-3.007900	3.492700	-10.504000	25.385614	0.000767	20.849694
1546.437280	-3.001800	3.489900	-10.475000	25.401252	0.000770	20.873455
1547.436748	-2.974600	3.491600	-10.385000	25.372547	0.000769	20.858383
1548.438164	-2.995500	3.490100	-10.453000	25.396012	0.000769	20.856814
1549.437523	-2.998800	3.488900	-10.461000	25.432822	0.000770	20.872914
1550.438800	-2.999400	3.488200	-10.461000	25.441940	0.000768	20.867845
1551.440962	-2.980700	3.491000	-10.405000	25.435430	0.000766	20.876954
1552.443795	-2.992700	3.487700	-10.437000	25.401929	0.000767	20.888358
1553.438172	-3.015500	3.487200	-10.515000	25.397633	0.000767	20.878356
1554.440182	-2.992900	3.488600	-10.439000	25.388686	0.000766	20.860838
1555.439415	-3.005200	3.486000	-10.476000	25.409589	0.000767	20.889886
1556.441432	-2.990600	3.486400	-10.426000	25.404470	0.000764	20.881427
1557.441267	-3.003500	3.485200	-10.467000	25.444485	0.000762	20.870875
1558.444428	-2.998900	3.485800	-10.452000	25.438844	0.000764	20.873271
1559.447528	-3.004900	3.484800	-10.470000	25.426793	0.000766	20.859274
1560.442547	-3.001300	3.485500	-10.460000	25.413446	0.000763	20.889966
1561.447000	-2.997700	3.484100	-10.443000	25.429400	0.000760	20.859521
1562.447756	-3.021300	3.484900	-10.528000	25.413225	0.000760	20.882632
1563.445980	-3.029300	3.483000	-10.550000	25.435840	0.000760	20.860772
1564.443755	-3.015000	3.483000	-10.500000	25.416856	0.000761	20.877270
1565.443018	-3.010400	3.482200	-10.482000	25.437432	0.000759	20.876120
1566.444883	-2.977800	3.483000	-10.371000	25.436608	0.000760	20.868181
1567.444286	-2.983300	3.484100	-10.392000	25.414290	0.000760	20.883227
1568.444067	-2.996200	3.483400	-10.436000	25.416208	0.000757	20.886102
1569.445166	-2.978400	3.482100	-10.370000	25.383325	0.000758	20.881532
1570.445791	-3.015800	3.482000	-10.500000	25.399978	0.000758	20.881658
1571.447407	-3.004300	3.481800	-10.458000	25.431218	0.000756	20.880785
1572.448113	-3.001900	3.481600	-10.450000	25.423287	0.000756	20.885623
1573.447638	-3.006400	3.480500	-10.461000	25.403283	0.000759	20.882132
1574.449087	-3.022900	3.478900	-10.514000	25.413124	0.000757	20.883953
1575.453907	-2.996600	3.479700	-10.426000	25.419881	0.000756	20.869402
1576.448145	-2.979600	3.480000	-10.369000	25.418786	0.000754	20.890586
1577.450645	-3.005000	3.480100	-10.457000	25.411356	0.000756	20.895454
1578.451365	-3.020500	3.477600	-10.502000	25.414587	0.000754	20.877836
1579.448614	-3.005000	3.479100	-10.453000	25.420449	0.000754	20.895101
1580.448265	-3.017000	3.476900	-10.489000	25.449921	0.000754	20.873963
1581.448210	-3.002600	3.478000	-10.442000	25.456532	0.000752	20.889135
1582.451257	-3.010000	3.477200	-10.465000	25.397859	0.000752	20.879057
1583.454611	-3.000400	3.476000	-10.429000	25.371837	0.000753	20.892756
1584.452004	-3.014600	3.476200	-10.479000	25.352794	0.000753	20.876480
1585.455351	-3.012600	3.476000	-10.469000	25.375740	0.000752	20.880080
1586.451095	-2.987500	3.476100	-10.383000	25.396137	0.000752	20.888232
1587.457189	-3.014200	3.475600	-10.475000	25.446645	0.000749	20.896750
1588.455203	-2.992600	3.475400	-10.400000	25.448605	0.000750	20.905829
1589.454486	-2.996300	3.474500	-10.410000	25.440181	0.000751	20.880777
1590.456401	-2.957100	3.476000	-10.277000	25.463142	0.000749	20.887238
1591.458267	-2.980800	3.473400	-10.352000	25.457652	0.000752	20.892630
1592.456278	-2.991400	3.475500	-10.395000	25.446892	0.000750	20.892256
1593.456892	-2.984000	3.473800	-10.365000	25.447017	0.000750	20.885270
1594.459516	-3.011900	3.472500	-10.457000	25.474278	0.000751	20.879455
1595.458247	-2.977700	3.474600	-10.345000	25.501915	0.000748	20.881129
1596.458012	-2.987100	3.473000	-10.372000	25.517078	0.000747	20.893985
1597.457896	-3.007100	3.472400	-10.441000	25.549698	0.000746	20.897346
1598.458112	-3.006100	3.471100	-10.434000	25.558347	0.000746	20.899393
1599.459469	-2.996000	3.471800	-10.400000	25.549506	0.000749	20.907109
1600.461943	-3.010700	3.471200	-10.449000	25.558372	0.000746	20.894203
1601.460910	-3.021200	3.471300	-10.486000	25.515256	0.000748	20.909224
1602.461097	-3.003200	3.469500	-10.419000	25.478060	0.000745	20.905536
1603.462379	-2.971400	3.472700	-10.318000	25.467371	0.000745	20.909975
1604.462064	-2.986400	3.470800	-10.365000	25.466602	0.000748	20.896402
1605.463933	-2.978400	3.469700	-10.333000	25.492547	0.000745	20.902066
1606.462132	-2.990100	3.470100	-10.375000	25.503231	0.000745	20.908053
1607.464571	-3.002700	3.469900	-10.418000	25.499850	0.000747	20.899444
1608.463219	-2.994000	3.468800	-10.385000	25.470873	0.000743	20.895474
1609.461938	-2.996700	3.467400	-10.390000	25.472339	0.000741	20.908326
1610.465226	-2.993100	3.469200	-10.383000	25.497987	0.000744	20.908477
1611.465151	-3.004200	3.466300	-10.411000	25.503803	0.000741	20.907206
1612.462280	-3.024900	3.465200	-10.480000	25.535588	0.000738	20.894082
1613.462615	-2.993100	3.468300	-10.380000	25.568487	0.000740	20.910998
1614.463714	-3.007100	3.466300	-10.422000	25.557051	0.000737	20.906626
1615.464413	-2.992700	3.466200	-10.372000	25.574178	0.000737	20.920506
1616.466228	-3.030900	3.464300	-10.499000	25.554620	0.000738	20.919356
1617.466935	-3.008000	3.464000	-10.418000	25.559195	0.000738	20.901667
1618.464620	-2.994700	3.465000	-10.375000	25.572661	0.000739	20.908552
1619.465131	-2.996300	3.464700	-10.380000	25.587075	0.000738	20.903115
1620.467439	-3.010600	3.464600	-10.429000	25.543263	0.000736	20.914590
1621.467478	-3.006600	3.465000	-10.417000	25.541901	0.000736	20.891413
1622.464193	-3.005600	3.463500	-10.409000	25.537130	0.000737	20.910801
1623.467760	-3.020100	3.462600	-10.456000	25.543192	0.000738	20.888917
1624.466595	-3.012400	3.462100	-10.428000	25.556241	0.000735	20.906761
1625.466251	-2.989600	3.463000	-10.351000	25.560691	0.000735	20.893687
1626.467456	-2.990600	3.461300	-10.350000	25.567627	0.000737	20.917246
1627.470930	-3.006800	3.461800	-10.408000	25.586532	0.000735	20.912052
1628.468458	-3.015100	3.460200	-10.432000	25.587828	0.000733	20.912404
1629.467718	-2.989600	3.461600	-10.348000	25.593343	0.000735	20.915098
1630.467676	-2.996800	3.460700	-10.370000	25.579330	0.000733	20.907189
1631.467598	-3.001300	3.459200	-10.381000	25.578360	0.000734	20.931343
1632.470646	-3.005100	3.459600	-10.396000	25.564372	0.000732	20.904970
1633.468368	-3.027400	3.458000	-10.468000	25.565316	0.000735	20.925356
1634.473626	-2.995300	3.458400	-10.358000	25.565166	0.000732	20.916671
1635.468911	-3.004400	3.459200	-10.392000	25.571475	0.000732	20.912576
1636.467779	-2.995000	3.458900	-10.358000	25.570359	0.000733	20.921412
1637.470229	-3.022800	3.457200	-10.450000	25.547722	0.000732	20.938505
1638.468298	-3.011200	3.457600	-10.411000	25.555924	0.000730	20.936785
1639.468256	-3.034000	3.456000	-10.484000	25.574458	0.000732	20.921735
1640.468334	-3.004700	3.456500	-10.384000	25.605100	0.000729	20.926904
1641.468558	-3.000300	3.457000	-10.371000	25.641176	0.000729	20.899129
1642.468852	-2.995400	3.455200	-10.349000	25.643215	0.000731	20.930571
1643.469576	-2.990700	3.455900	-10.334000	25.682921	0.000731	20.935837
1644.468623	-2.993700	3.454900	-10.342000	25.707644	0.000729	20.930798
1645.468235	-2.968100	3.456400	-10.258000	25.707423	0.000728	20.947643
1646.469063	-3.010800	3.454500	-10.400000	25.714755	0.000728	20.940309
1647.468294	-3.007700	3.455000	-10.390000	25.724125	0.000725	20.925541
1648.475924	-2.983500	3.454800	-10.307000	25.702832	0.000727	20.919802
1649.470130	-3.002300	3.454600	-10.371000	25.702832	0.000729	20.943033
1650.471044	-3.023700	3.452700	-10.439000	25.686259	0.000727	20.941086
1651.470179	-3.009000	3.452100	-10.386000	25.705046	0.000726	20.938145
1652.471460	-2.984100	3.453100	-10.303000	25.729247	0.000727	20.938271
1653.471883	-3.002400	3.453200	-10.366000	25.687559	0.000727	20.934331
1654.473336	-2.994000	3.451500	-10.332000	25.686991	0.000728	20.947510
1655.470733	-2.980700	3.453200	-10.290000	25.629421	0.000727	20.935682
1656.470372	-3.019200	3.451300	-10.419000	25.614836	0.000723	20.942370
1657.471175	-2.982500	3.452200	-10.294000	25.642744	0.000725	20.950959
1658.472486	-3.011300	3.451000	-10.390000	25.636853	0.000726	20.956421
1659.472858	-3.000300	3.449500	-10.349000	25.642151	0.000724	20.941829
1660.471848	-2.987100	3.450000	-10.304000	25.656941	0.000723	20.957156
1661.475818	-3.008600	3.448600	-10.375000	25.649538	0.000721	20.950196
1662.474307	-3.016500	3.449300	-10.404000	25.655675	0.000723	20.961100
1663.473883	-3.009700	3.449800	-10.382000	25.668798	0.000723	20.945358
1664.476151	-3.023200	3.448400	-10.424000	25.678942	0.000721	20.951279
1665.474642	-3.018700	3.447300	-10.404000	25.701280	0.000723	20.943370
1666.474564	-3.012900	3.447500	-10.386000	25.731471	0.000721	20.953305
1667.476785	-3.009800	3.447500	-10.376000	25.692837	0.000719	20.956225
1668.475039	-3.014200	3.446000	-10.386000	25.705437	0.000722	20.948493
1669.476689	-2.986900	3.447700	-10.297000	25.675274	0.000722	20.962292
1670.476999	-2.965600	3.447900	-10.224000	25.646953	0.000721	20.955185
1671.476735	-3.022300	3.446400	-10.415000	25.628094	0.000719	20.968011
1672.476305	-3.028200	3.445400	-10.433000	25.618682	0.000720	20.983211
1673.476963	-2.983700	3.446500	-10.282000	25.596271	0.000718	20.969715
1674.476575	-3.013300	3.444300	-10.378000	25.606211	0.000719	20.965947
1675.481293	-2.987900	3.444300	-10.289000	25.645324	0.000716	20.964928
1676.476861	-3.001400	3.444600	-10.337000	25.676261	0.000715	20.959965
1677.475978	-3.013300	3.444800	-10.379000	25.682302	0.000718	20.950387
1678.480670	-2.999900	3.443900	-10.330000	25.658648	0.000716	20.971670
1679.477502	-3.002000	3.443400	-10.335000	25.667873	0.000713	20.960074
1680.486650	-3.005000	3.444400	-10.350000	25.661565	0.000715	20.983607
1681.479759	-3.025100	3.442000	-10.410000	25.666732	0.000717	20.974574
1682.477054	-2.985800	3.442700	-10.278000	25.657592	0.000714	20.959706
1683.477195	-3.011600	3.442500	-10.366000	25.654663	0.000714	20.979521
1684.477502	-2.999100	3.441800	-10.322000	25.629793	0.000711	20.982991
1685.477686	-3.015400	3.440300	-10.372000	25.679693	0.000715	20.986641
1686.481024	-3.008800	3.442000	-10.355000	25.710946	0.000714	20.953551
1687.477274	-3.013400	3.440100	-10.366000	25.709555	0.000712	20.985814
1688.480357	-2.998500	3.440100	-10.314000	25.717317	0.000711	20.968958
1689.477534	-2.991700	3.441100	-10.294000	25.727703	0.000708	20.960898
1690.476980	-2.999100	3.439400	-10.314000	25.744425	0.000711	20.979115
1691.481715	-3.029500	3.438300	-10.415000	25.705967	0.000710	20.966567
1692.479434	-3.017400	3.437700	-10.371000	25.722941	0.000709	20.967494
1693.483346	-2.983000	3.439300	-10.259000	25.705771	0.000708	20.972533
1694.478209	-3.029900	3.438000	-10.415000	25.668853	0.000706	20.968170
1695.478517	-2.997700	3.437800	-10.304000	25.678967	0.000707	20.971216
1696.480990	-3.021200	3.436700	-10.382000	25.695194	0.000705	20.966177
1697.483614	-3.006900	3.438000	-10.336000	25.680434	0.000707	20.949458
1698.481784	-2.973300	3.437600	-10.220000	25.654177	0.000706	20.957225
1699.481753	-2.968100	3.436800	-10.200000	25.587535	0.000705	20.945297
1700.481584	-2.963600	3.436000	-10.182000	25.583390	0.000704	20.974321
1701.482858	-2.996900	3.436600	-10.298000	25.584485	0.000704	20.946501
1702.483360	-3.002300	3.435000	-10.312000	25.607548	0.000704	20.963498
1703.486538	-2.969600	3.435200	-10.200000	25.630059	0.000702	20.957657
1704.489115	-3.010000	3.433900	-10.335000	25.605710	0.000702	20.973030
1705.483428	-2.992100	3.435800	-10.279000	25.608593	0.000702	20.959806
1706.482974	-3.003200	3.434200	-10.312000	25.650665	0.000706	20.951801
1707.486177	-3.000100	3.433600	-10.301000	25.661698	0.000702	20.959563
1708.485718	-2.994100	3.433800	-10.279000	25.676755	0.000701	20.956668
1709.484003	-3.007600	3.432800	-10.324000	25.666369	0.000701	20.949082
1710.490063	-2.989800	3.433600	-10.265000	25.656384	0.000700	20.955175
1711.485283	-2.978500	3.432900	-10.224000	25.643291	0.000701	20.931596
1712.485059	-2.997900	3.433800	-10.292000	25.650774	0.000700	20.964237
1713.486167	-2.993700	3.431900	-10.272000	25.652783	0.000698	20.957247
1714.484667	-3.003500	3.431000	-10.304000	25.703225	0.000701	20.940583
1715.495297	-3.014500	3.430400	-10.339000	25.698906	0.000698	20.956157
1716.486232	-2.969100	3.432800	-10.192000	25.733814	0.000698	20.949495
1717.487133	-3.004700	3.429500	-10.304000	25.693186	0.000700	20.967006
1718.488462	-2.984800	3.429800	-10.236000	25.677412	0.000697	20.963016
1719.486366	-2.999700	3.429900	-10.287000	25.674604	0.000698	20.957353
1720.486285	-2.991200	3.429800	-10.258000	25.697389	0.000696	20.935196
1721.493422	-2.973700	3.431100	-10.202000	25.738760	0.000697	20.957307
1722.486479	-2.981100	3.430700	-10.226000	25.705866	0.000694	20.936124
1723.490023	-3.014500	3.427100	-10.329000	25.674187	0.000695	20.944607
1724.488519	-3.026500	3.427100	-10.371000	25.703410	0.000691	20.939346
1725.487626	-3.005000	3.428400	-10.300000	25.688726	0.000695	20.941192
1726.487521	-3.006800	3.426400	-10.302000	25.665819	0.000691	20.943315
1727.489002	-3.033300	3.425900	-10.390000	25.603080	0.000691	20.933410
1728.487995	-2.984600	3.427600	-10.229000	25.645323	0.000693	20.943118
1729.492577	-2.991400	3.428200	-10.254000	25.638960	0.000690	20.929143
1730.489793	-3.005000	3.426500	-10.295000	25.672383	0.000690	20.946114
1731.490875	-2.992900	3.425800	-10.252000	25.649376	0.000688	20.957618
1732.490135	-3.008300	3.425300	-10.303000	25.658446	0.000690	20.934014
1733.495878	-2.993500	3.425300	-10.253000	25.659812	0.000689	20.910259
1734.489478	-2.996900	3.424900	-10.263000	25.646965	0.000688	20.926278
1735.492314	-2.991000	3.424000	-10.240000	25.628533	0.000685	20.924361
1736.489398	-3.004000	3.424700	-10.286000	25.627383	0.000688	20.919413
1737.489703	-2.994700	3.424000	-10.252000	25.645554	0.000689	20.933868
1738.489358	-2.997900	3.422900	-10.261000	25.647145	0.000685	20.933570
1739.502896	-2.993200	3.422600	-10.243000	25.598865	0.000686	20.935341
1740.492196	-2.991700	3.423300	-10.240000	25.563280	0.000684	20.931845
1741.493328	-3.000300	3.422000	-10.266000	25.549960	0.000687	20.920366
1742.495902	-2.994000	3.423200	-10.247000	25.568750	0.000686	20.914107
1743.493835	-3.008300	3.422200	-10.294000	25.593918	0.000682	20.903823
1744.494264	-2.980300	3.421500	-10.196000	25.614817	0.000686	20.928128
1745.496946	-2.986100	3.420900	-10.215000	25.639316	0.000685	20.919070
1746.494091	-3.000900	3.422300	-10.269000	25.675843	0.000684	20.922091
1747.493878	-2.988800	3.420600	-10.222000	25.671936	0.000682	20.921960
1748.495521	-2.982800	3.421400	-10.204000	25.710997	0.000680	20.929425
1749.496124	-2.993000	3.419900	-10.234000	25.692361	0.000679	20.931094
1750.497261	-2.974600	3.420000	-10.171000	25.701631	0.000679	20.901528
1751.497690	-2.998000	3.419600	-10.250000	25.714201	0.000679	20.929798
1752.497066	-2.991600	3.418000	-10.225000	25.716612	0.000678	20.925107
1753.496021	-2.985500	3.420100	-10.209000	25.745784	0.000679	20.914107
1754.495174	-2.980200	3.419600	-10.190000	25.728243	0.000679	20.917824
1755.496114	-2.990600	3.418500	-10.223000	25.712861	0.000679	20.924184
1756.498697	-2.978400	3.418000	-10.179000	25.682994	0.000679	20.932592
1757.495690	-2.989000	3.418000	-10.216000	25.703791	0.000678	20.925980
1758.497985	-2.991700	3.417400	-10.223000	25.701405	0.000675	20.930696
1759.501906	-2.982900	3.416800	-10.191000	25.712484	0.000676	20.896308
1760.496016	-2.969400	3.417700	-10.147000	25.731618	0.000679	20.922636
1761.503314	-2.992900	3.415600	-10.222000	25.770000	0.000678	20.921360
1762.502604	-2.991900	3.414800	-10.215000	25.756085	0.000677	20.910229
1763.497175	-2.990800	3.415800	-10.215000	25.803786	0.000671	20.917840
1764.497770	-3.010600	3.414200	-10.278000	25.793004	0.000677	20.886150
1765.497859	-2.989200	3.414700	-10.207000	25.790719	0.000674	20.918939
1766.503288	-3.001100	3.414200	-10.244000	25.763562	0.000677	20.905887
1767.507552	-3.013200	3.413300	-10.284000	25.734571	0.000673	20.926550
1768.499164	-2.981800	3.414500	-10.180000	25.717426	0.000673	20.897479
1769.501552	-2.989300	3.413700	-10.203000	25.731538	0.000673	20.909755
1770.503953	-3.027700	3.411300	-10.327000	25.714293	0.000673	20.898599
1771.500756	-3.000500	3.412300	-10.238000	25.736509	0.000672	20.912852
1772.503486	-3.004800	3.411300	-10.250000	25.681825	0.000675	20.911979
1773.503975	-2.996900	3.412600	-10.226000	25.648356	0.000672	20.906340
1774.503168	-2.985300	3.411700	-10.184000	25.609598	0.000671	20.919569
1775.500609	-3.005800	3.410100	-10.249000	25.614666	0.000671	20.911383
1776.499839	-3.023500	3.410000	-10.309000	25.631144	0.000671	20.889529
1777.506864	-3.018200	3.409300	-10.289000	25.624314	0.000672	20.922968
1778.508851	-2.996600	3.410000	-10.218000	25.637286	0.000673	20.905653
1779.502540	-3.008100	3.410300	-10.258000	25.670659	0.000670	20.906929
1780.502557	-3.013800	3.410300	-10.277000	25.707054	0.000670	20.896070
1781.503511	-2.991400	3.409500	-10.198000	25.699732	0.000667	20.903413
1782.501977	-3.014300	3.408900	-10.274000	25.705291	0.000670	20.882921
1783.505363	-3.017800	3.408100	-10.283000	25.699405	0.000668	20.883647
1784.505688	-3.011300	3.407900	-10.261000	25.689145	0.000668	20.888988
1785.506589	-3.020000	3.407800	-10.290000	25.657967	0.000670	20.877589
1786.504975	-3.010100	3.408300	-10.258000	25.639013	0.000667	20.899801
1787.505825	-3.006100	3.407700	-10.243000	25.631927	0.000667	20.877513
1788.509954	-2.989100	3.407900	-10.186000	25.640997	0.000666	20.895630
1789.512212	-3.029600	3.405300	-10.317000	25.641996	0.000666	20.885255
1790.513455	-3.000100	3.406000	-10.218000	25.663511	0.000665	20.897854
1791.510355	-3.003700	3.405200	-10.227000	25.684534	0.000664	20.891943
1792.506756	-3.013400	3.406400	-10.264000	25.706696	0.000666	20.895236
1793.512590	-2.995400	3.406000	-10.201000	25.739027	0.000664	20.876503
1794.512407	-3.009700	3.404900	-10.247000	25.697009	0.000665	20.895463
1795.508872	-3.016700	3.404600	-10.269000	25.694774	0.000663	20.885633
1796.510331	-2.987000	3.405400	-10.170000	25.691519	0.000663	20.875727
1797.510107	-2.993600	3.404400	-10.190000	25.684543	0.000661	20.887211
1798.515085	-2.986400	3.404500	-10.166000	25.690007	0.000662	20.904551
1799.516870	-3.006800	3.402200	-10.230000	25.673856	0.000661	20.880271
1800.510788	-3.003300	3.402500	-10.217000	25.699624	0.000661	20.891453
1801.512464	-2.991000	3.402500	-10.176000	25.690409	0.000661	20.886464
1802.511428	-3.012000	3.402400	-10.247000	25.684589	0.000659	20.893894
1803.512805	-2.986300	3.401700	-10.157000	25.690856	0.000658	20.890706
1804.511510	-2.983700	3.401300	-10.147000	25.722956	0.000657	20.889284
1805.517171	-2.985500	3.400700	-10.152000	25.678657	0.000660	20.899790
1806.514062	-3.003200	3.399700	-10.209000	25.679977	0.000657	20.890685
1807.516187	-3.007800	3.399900	-10.225000	25.713670	0.000657	20.889439
1808.515665	-3.001700	3.400300	-10.206000	25.678887	0.000657	20.885324
1809.514474	-2.982700	3.400600	-10.143000	25.697821	0.000655	20.879685
1810.518056	-3.000100	3.400500	-10.201000	25.690142	0.000655	20.871498
1811.515145	-3.003400	3.398200	-10.205000	25.690569	0.000656	20.883306
1812.519578	-3.001200	3.398500	-10.198000	25.724758	0.000655	20.895360
1813.514429	-2.998500	3.398400	-10.188000	25.732783	0.000654	20.895360
1814.514433	-2.994300	3.398100	-10.173000	25.776709	0.000656	20.870257
1815.518792	-3.011400	3.398100	-10.231000	25.780364	0.000655	20.884359
1816.514564	-2.999400	3.398200	-10.192000	25.743841	0.000655	20.878019
1817.516576	-3.019400	3.396400	-10.254000	25.774951	0.000655	20.866121
1818.515247	-2.984600	3.396800	-10.137000	25.787324	0.000655	20.862903
1819.516216	-2.986900	3.395300	-10.140000	25.787926	0.000653	20.888162
1820.517074	-3.026800	3.395900	-10.277000	25.771802	0.000653	20.884767
1821.519263	-2.990900	3.395900	-10.156000	25.774061	0.000654	20.896045
1822.517958	-3.008400	3.395400	-10.214000	25.739561	0.000653	20.865660
1823.516736	-3.021300	3.395300	-10.258000	25.678343	0.000652	20.872923
1824.518011	-3.007200	3.394800	-10.208000	25.666370	0.000652	20.869907
1825.518202	-2.992200	3.395000	-10.158000	25.664084	0.000650	20.877569
1826.520524	-3.021700	3.394300	-10.256000	25.665526	0.000647	20.871430
1827.517805	-2.999000	3.395100	-10.181000	25.685312	0.000650	20.860484
1828.519029	-2.994400	3.393200	-10.160000	25.711301	0.000648	20.863828
1829.517207	-3.006000	3.392500	-10.196000	25.701247	0.000646	20.866057
1830.517289	-3.014500	3.392400	-10.226000	25.678642	0.000648	20.881284
1831.526990	-2.982400	3.393700	-10.121000	25.651382	0.000650	20.865759
1832.520930	-3.005000	3.391900	-10.192000	25.658693	0.000646	20.867887
1833.516738	-3.008000	3.393200	-10.206000	25.675141	0.000647	20.893888
1834.524904	-2.985700	3.393900	-10.132000	25.684934	0.000646	20.877173
1835.519166	-2.998900	3.391700	-10.170000	25.697831	0.000644	20.881117
1836.517823	-3.016100	3.391500	-10.229000	25.692020	0.000645	20.866273
1837.520193	-2.985900	3.392000	-10.127000	25.732372	0.000642	20.866500
1838.530803	-2.998000	3.389300	-10.160000	25.714584	0.000643	20.879452
1839.525948	-2.980100	3.391100	-10.104000	25.715528	0.000643	20.869970
1840.520449	-3.003200	3.390400	-10.182000	25.750636	0.000641	20.875836
1841.520700	-3.009300	3.390200	-10.201000	25.745594	0.000640	20.874090
1842.521984	-2.989100	3.389100	-10.129000	25.740230	0.000640	20.866807
1843.525972	-2.976700	3.390200	-10.091000	25.711439	0.000641	20.858751
1844.522120	-3.005800	3.388000	-10.183000	25.686073	0.000638	20.873101
1845.522910	-3.000500	3.387600	-10.164000	25.682567	0.000636	20.872425
1846.526897	-2.998800	3.387300	-10.157000	25.634519	0.000635	20.855936
1847.528068	-3.003600	3.387000	-10.171000	25.615409	0.000638	20.862347
1848.529238	-3.003300	3.387400	-10.173000	25.621250	0.000638	20.869636
1849.528560	-2.995200	3.386100	-10.141000	25.623385	0.000636	20.857556
1850.528746	-2.995300	3.386300	-10.143000	25.623786	0.000637	20.875502
1851.526860	-2.980400	3.387700	-10.096000	25.662920	0.000635	20.863598
1852.526504	-3.001400	3.386300	-10.163000	25.636086	0.000635	20.861303
1853.526567	-3.009400	3.385500	-10.187000	25.677560	0.000633	20.861706
1854.526013	-2.997200	3.386100	-10.147000	25.637799	0.000638	20.870135
1855.533317	-3.021500	3.385400	-10.228000	25.646894	0.000635	20.851296
1856.527876	-2.999500	3.385400	-10.153000	25.667942	0.000633	20.859633
1857.529539	-2.983100	3.385800	-10.100000	25.711052	0.000632	20.868319
1858.535577	-3.009800	3.383500	-10.183000	25.730201	0.000633	20.866690
1859.530898	-3.006300	3.385000	-10.175000	25.742329	0.000633	20.847104
1860.526982	-3.010600	3.383800	-10.186000	25.729533	0.000630	20.847054
1861.526476	-3.006800	3.383800	-10.174000	25.710625	0.000629	20.854615
1862.529308	-3.021200	3.383100	-10.219000	25.695544	0.000628	20.849899
1863.529537	-2.977000	3.383700	-10.072000	25.692039	0.000629	20.844482
1864.532523	-3.016300	3.383100	-10.204000	25.681206	0.000629	20.855886
1865.541698	-2.970400	3.382300	-10.046000	25.687690	0.000626	20.836795
1866.533787	-2.992300	3.382200	-10.119000	25.676284	0.000626	20.851891
1867.528087	-3.002400	3.381700	-10.152000	25.713398	0.000625	20.866408
1868.535086	-2.989600	3.381100	-10.106000	25.768925	0.000625	20.867654
1869.531582	-3.030400	3.380300	-10.242000	25.782760	0.000626	20.844094
1870.529982	-2.992600	3.380600	-10.115000	25.807928	0.000626	20.851357
1871.531051	-2.986900	3.380200	-10.095000	25.833939	0.000626	20.841451
1872.530475	-2.984500	3.380200	-10.087000	25.833100	0.000625	20.854358
1873.529299	-2.992300	3.380600	-10.115000	25.793712	0.000624	20.839923
1874.536681	-2.999200	3.378700	-10.132000	25.780053	0.000624	20.830470
1875.534507	-3.022700	3.378900	-10.213000	25.805433	0.000625	20.849800
1876.531503	-2.986400	3.379400	-10.091000	25.807798	0.000625	20.842218
1877.532719	-2.996500	3.378100	-10.122000	25.837756	0.000627	20.831061
1878.533265	-2.982300	3.378900	-10.076000	25.852439	0.000625	20.822577
1879.534229	-3.012300	3.377100	-10.172000	25.845479	0.000622	20.837871
1880.535680	-2.992800	3.376900	-10.105000	25.821532	0.000624	20.828988
1881.535529	-2.977300	3.377100	-10.054000	25.837927	0.000620	20.825543
1882.533351	-2.986000	3.377000	-10.082000	25.844234	0.000621	20.815284
1883.532079	-2.978800	3.377100	-10.058000	25.819097	0.000622	20.834602
1884.534114	-2.996800	3.376200	-10.116000	25.805182	0.000621	20.828211
1885.532532	-3.030400	3.374900	-10.226000	25.778397	0.000619	20.816953
1886.533861	-3.004200	3.375500	-10.139000	25.780983	0.000618	20.834723
1887.531771	-3.007000	3.373000	-10.142000	25.798674	0.000618	20.861027
1888.533985	-3.002500	3.375400	-10.134000	25.825997	0.000621	20.810240
1889.533498	-2.967300	3.375300	-10.014000	25.826569	0.000617	20.818401
1890.537302	-2.988100	3.374800	-10.083000	25.865103	0.000620	20.848574
1891.542817	-3.009400	3.374300	-10.153000	25.869572	0.000618	20.818451
1892.533731	-2.997300	3.373800	-10.112000	25.873172	0.000616	20.832025
1893.539462	-2.972900	3.374600	-10.031000	25.912247	0.000617	20.820545
1894.541486	-3.009300	3.375300	-10.157000	25.952565	0.000616	20.833548
1895.539824	-3.005600	3.374300	-10.140000	25.935720	0.000615	20.843178
1896.540139	-3.007000	3.373300	-10.142000	25.913070	0.000615	20.823743
1897.537550	-3.009800	3.371300	-10.146000	25.871927	0.000618	20.834093
1898.545116	-2.998200	3.372700	-10.111000	25.826640	0.000613	20.834593
1899.535048	-2.998700	3.372500	-10.112000	25.809371	0.000614	20.825781
1900.535219	-3.007700	3.371000	-10.138000	25.811309	0.000613	20.812081
1901.545732	-3.002100	3.372700	-10.124000	25.834614	0.000614	20.816051
1902.538943	-2.997500	3.370700	-10.103000	25.826735	0.000612	20.840378
1903.549636	-3.015000	3.369300	-10.157000	25.837943	0.000613	20.839309
1904.544860	-3.010600	3.369200	-10.142000	25.815783	0.000609	20.817049
1905.537283	-3.015800	3.369500	-10.161000	25.826339	0.000613	20.799678
1906.538564	-3.016200	3.369600	-10.162000	25.790636	0.000613	20.832565
1907.544446	-3.022500	3.369100	-10.181000	25.739555	0.000610	20.808283
1908.539104	-3.003600	3.369600	-10.119000	25.762735	0.000610	20.824929
1909.543322	-2.999000	3.369700	-10.105000	25.756202	0.000609	20.829746
1910.539041	-2.976800	3.369500	-10.029000	25.754234	0.000611	20.817338
1911.549655	-3.019300	3.367900	-10.168000	25.801588	0.000611	20.808480
1912.552613	-3.016800	3.367100	-10.156000	25.823673	0.000609	20.809802
1913.542815	-2.995300	3.367800	-10.087000	25.835352	0.000610	20.820112
1914.541927	-3.001800	3.366400	-10.105000	25.846801	0.000609	20.818811
1915.540183	-2.989800	3.368000	-10.069000	25.849437	0.000606	20.815769
1916.553385	-2.979600	3.367900	-10.034000	25.865983	0.000607	20.811527
1917.546474	-2.989700	3.366000	-10.063000	25.861981	0.000605	20.810352
1918.552785	-2.992100	3.366900	-10.074000	25.899319	0.000608	20.792858
1919.546111	-3.006200	3.366100	-10.118000	25.922496	0.000605	20.819935
1920.542290	-3.008100	3.364900	-10.121000	25.952109	0.000607	20.816969
1921.542266	-3.011400	3.365800	-10.135000	25.931112	0.000606	20.817212
1922.542792	-2.990700	3.365900	-10.066000	25.925056	0.000606	20.793110
1923.545215	-3.016300	3.363900	-10.145000	25.906002	0.000605	20.807633
1924.543867	-3.012800	3.363600	-10.133000	25.923495	0.000603	20.811930
1925.546631	-3.002100	3.363300	-10.096000	25.906649	0.000604	20.796430
1926.542905	-3.000200	3.362600	-10.088000	25.858264	0.000602	20.806144
1927.542748	-3.003900	3.364800	-10.106000	25.820996	0.000603	20.817070
1928.547557	-3.002500	3.364000	-10.100000	25.818415	0.000601	20.817322
1929.543902	-3.003300	3.362200	-10.096000	25.838465	0.000602	20.812807
1930.549348	-2.997000	3.362500	-10.076000	25.826263	0.000601	20.776368
1931.553024	-2.989200	3.362400	-10.050000	25.832726	0.000604	20.798033
1932.543915	-3.008000	3.361100	-10.109000	25.849372	0.000600	20.822815
1933.542663	-3.010100	3.362000	-10.120000	25.874739	0.000600	20.800883
1934.547302	-3.022700	3.360000	-10.155000	25.888301	0.000602	20.813559
1935.548033	-3.003300	3.359900	-10.090000	25.914461	0.000600	20.834148
1936.548088	-3.006800	3.360300	-10.103000	25.896601	0.000598	20.818577
1937.544106	-3.028800	3.359500	-10.174000	25.899061	0.000600	20.816782
1938.547447	-2.997200	3.360600	-10.071000	25.907210	0.000598	20.816908
1939.546200	-2.983000	3.360900	-10.024000	25.943648	0.000598	20.796615
1940.549253	-2.967200	3.360500	-9.969700	25.955798	0.000597	20.799339
1941.547982	-2.981000	3.359200	-10.012000	25.937713	0.000594	20.821947
1942.550057	-2.994300	3.360100	-10.060000	25.937417	0.000595	20.808373
1943.545270	-2.977600	3.359400	-10.002000	25.947750	0.000594	20.824918
1944.550929	-2.995900	3.360300	-10.066000	25.933194	0.000593	20.809346
1945.548110	-2.977600	3.357700	-9.997300	25.911579	0.000594	20.825089
1946.545000	-3.004900	3.358200	-10.090000	25.917744	0.000596	20.826542
1947.551465	-2.982600	3.358500	-10.016000	25.913025	0.000594	20.790506
1948.556827	-2.996300	3.357100	-10.058000	25.934510	0.000593	20.809720
1949.550268	-2.988600	3.357900	-10.034000	25.932768	0.000591	20.824565
1950.552870	-2.978700	3.356600	-9.997900	25.938381	0.000591	20.804600
1951.546558	-2.998600	3.356400	-10.063000	25.939647	0.000590	20.797811
1952.545675	-3.008100	3.356300	-10.095000	25.945803	0.000588	20.794512
1953.554389	-3.016900	3.356600	-10.126000	25.959214	0.000588	20.823632
1954.547991	-3.010800	3.354300	-10.098000	25.922847	0.000588	20.857745
1955.550028	-2.985400	3.355300	-10.016000	25.911244	0.000589	20.807209
1956.547764	-3.000100	3.355700	-10.067000	25.885134	0.000589	20.824601
1957.550267	-2.982200	3.355600	-10.006000	25.836593	0.000584	20.833211
1958.566747	-2.996300	3.353800	-10.048000	25.802648	0.000583	20.821873
1959.551100	-2.994300	3.353300	-10.041000	25.815297	0.000587	20.817984
1960.549360	-3.003200	3.352100	-10.065000	25.807841	0.000586	20.808123
1961.556906	-3.007700	3.352100	-10.081000	25.777129	0.000584	20.827059
1962.551531	-3.005300	3.352500	-10.074000	25.816403	0.000583	20.832845
1963.553211	-2.982700	3.354300	-10.004000	25.805220	0.000584	20.806913
1964.549747	-2.999800	3.351400	-10.052000	25.798858	0.000585	20.839876
1965.549937	-3.010100	3.352600	-10.090000	25.829681	0.000584	20.813940
1966.551478	-2.980000	3.352000	-9.987900	25.850600	0.000583	20.816462
1967.558113	-2.984000	3.351900	-10.002000	25.875958	0.000584	20.824866
1968.550786	-2.973400	3.352100	-9.966100	25.847211	0.000582	20.817800
1969.549758	-3.003200	3.351400	-10.063000	25.841271	0.000582	20.808988
1970.551203	-2.990600	3.349300	-10.015000	25.783434	0.000583	20.826280
1971.564312	-3.022500	3.350100	-10.125000	25.799478	0.000582	20.825327
1972.557222	-3.001600	3.349400	-10.052000	25.812248	0.000582	20.806386
1973.555695	-3.000800	3.349900	-10.051000	25.851149	0.000581	20.810850
1974.554932	-3.011900	3.348300	-10.084000	25.890717	0.000580	20.811718
1975.560171	-3.000000	3.348200	-10.043000	25.953344	0.000581	20.822951
1976.560107	-3.006900	3.347600	-10.065000	25.949835	0.000581	20.801408
1977.559951	-3.024000	3.348500	-10.125000	25.980241	0.000580	20.812990
1978.550841	-3.018500	3.347500	-10.103000	25.996925	0.000579	20.828804
1979.551156	-3.011400	3.347200	-10.079000	26.009994	0.000580	20.802579
1980.559516	-3.002300	3.348000	-10.050000	26.004059	0.000578	20.814160
1981.559206	-3.022600	3.345500	-10.111000	26.019604	0.000578	20.825984
1982.560050	-2.983400	3.348300	-9.988000	26.019257	0.000577	20.814730
1983.556579	-2.982600	3.346800	-9.981100	26.070621	0.000579	20.810862
1984.560346	-2.998200	3.346200	-10.031000	26.036021	0.000575	20.805969
1985.567269	-2.993000	3.346800	-10.017000	26.018384	0.000575	20.822862
1986.554086	-2.989600	3.346200	-10.002000	25.972610	0.000574	20.816228
1987.562769	-2.991400	3.345900	-10.008000	25.942947	0.000575	20.821041
1988.564644	-3.002700	3.346700	-10.047000	25.908342	0.000575	20.818519
1989.555212	-2.997000	3.344600	-10.024000	25.890211	0.000575	20.824486
1990.555942	-2.989400	3.346400	-10.004000	25.894434	0.000574	20.812133
1991.561514	-2.999200	3.343200	-10.026000	25.911621	0.000574	20.810907
1992.554620	-3.021700	3.343300	-10.101000	25.932484	0.000574	20.817168
1993.553989	-2.989600	3.343700	-9.995500	25.896769	0.000571	20.823961
1994.562500	-2.988600	3.343900	-9.993200	25.889634	0.000572	20.827699
1995.559792	-2.988300	3.343500	-9.990500	25.857433	0.000571	20.828068
1996.559342	-3.014700	3.341900	-10.073000	25.894751	0.000570	20.830943
1997.564588	-3.012300	3.341900	-10.066000	25.907369	0.000571	20.824179
1998.558007	-2.989800	3.343000	-9.993100	25.916558	0.000569	20.822030
1999.574034	-2.999900	3.341800	-10.024000	25.917105	0.000570	20.857666
2000.557052	-3.024100	3.339900	-10.100000	25.876263	0.000570	20.828966
2001.564550	-3.018100	3.341000	-10.083000	25.929025	0.000568	20.828391
2002.559729	-2.998500	3.341700	-10.019000	25.931260	0.000567	20.836326
2003.559752	-2.999500	3.340200	-10.017000	25.977633	0.000567	20.835973
2004.569767	-3.011700	3.340100	-10.058000	25.986253	0.000568	20.829935
2005.561586	-2.991800	3.339600	-9.990700	26.003811	0.000565	20.831454
2006.566439	-2.977300	3.339200	-9.940900	25.992163	0.000565	20.834924
2007.566852	-3.008800	3.338200	-10.043000	26.010589	0.000564	20.833048
2008.562514	-3.013600	3.340000	-10.065000	26.002320	0.000565	20.835645
2009.570170	-2.990300	3.338700	-9.982800	26.027825	0.000565	20.822390
2010.564542	-2.991300	3.338300	-9.984800	26.038378	0.000560	20.844372
2011.563308	-2.988400	3.339000	-9.977200	26.057029	0.000564	20.829447
2012.563329	-3.017900	3.336900	-10.069000	26.073099	0.000564	20.828524
2013.563679	-3.021100	3.335500	-10.076000	26.155434	0.000563	20.821639
2014.580067	-2.995700	3.336700	-9.994300	26.161468	0.000563	20.856624
2015.568551	-2.988900	3.338000	-9.976300	26.157192	0.000563	20.844741
2016.571396	-3.000300	3.336600	-10.010000	26.190915	0.000562	20.824575
2017.572791	-2.993900	3.336400	-9.987800	26.169661	0.000561	20.840201
2018.572270	-2.987100	3.335500	-9.962400	26.170705	0.000560	20.844095
2019.570884	-2.979300	3.336000	-9.937600	26.195016	0.000561	20.828222
2020.571795	-2.984500	3.335100	-9.952700	26.182447	0.000559	20.840721
2021.568001	-2.987900	3.334600	-9.962500	26.174028	0.000559	20.837004
2022.569187	-2.999100	3.335600	-10.002000	26.162849	0.000558	20.829090
2023.571535	-3.000600	3.332700	-9.998900	26.161213	0.000556	20.830290
2024.566374	-3.005500	3.333000	-10.017000	26.170174	0.000557	20.848303
2025.578148	-3.003500	3.333200	-10.010000	26.148543	0.000559	20.831309
2026.572265	-2.983300	3.333700	-9.944700	26.114371	0.000557	20.819259
2027.568549	-3.036100	3.332100	-10.115000	26.112534	0.000558	20.849180
2028.580504	-2.988400	3.331400	-9.954200	26.092659	0.000554	20.849125
2029.571828	-2.986500	3.333800	-9.955300	26.080591	0.000557	20.855490
2030.568698	-3.011500	3.330200	-10.028000	26.120059	0.000555	20.848206
2031.574361	-2.980600	3.332100	-9.930900	26.135877	0.000554	20.831859
2032.573043	-3.018500	3.330500	-10.052000	26.134637	0.000551	20.825872
2033.572848	-2.999500	3.331300	-9.991300	26.152122	0.000554	20.839647
2034.568876	-2.985800	3.331700	-9.946500	26.132077	0.000552	20.852222
2035.581934	-3.000800	3.329900	-9.990600	26.110566	0.000550	20.831083
2036.571665	-3.011300	3.329700	-10.026000	26.109205	0.000553	20.833508
2037.575399	-3.008200	3.329500	-10.014000	26.086053	0.000552	20.861927
2038.573559	-3.016300	3.329600	-10.041000	26.054560	0.000549	20.853044
2039.575686	-3.011800	3.328600	-10.024000	26.000063	0.000548	20.839542
2040.574788	-3.007900	3.328100	-10.009000	25.932302	0.000551	20.836898
2041.576390	-3.005400	3.328200	-10.002000	25.918414	0.000549	20.876998
2042.576377	-3.009000	3.328100	-10.014000	25.938658	0.000548	20.849448
2043.574758	-2.994700	3.328300	-9.966300	25.990448	0.000547	20.848374
2044.578731	-2.996000	3.329000	-9.971600	26.005354	0.000549	20.860504
2045.584729	-2.990900	3.327400	-9.951000	25.978278	0.000545	20.845156
2046.574846	-3.003000	3.327800	-9.992000	25.993275	0.000547	20.857852
2047.579112	-2.985400	3.327100	-9.931900	26.008211	0.000546	20.857685
2048.576004	-2.980800	3.326200	-9.913000	26.018368	0.000544	20.838967
2049.575281	-3.010500	3.326500	-10.013000	26.029790	0.000545	20.877467
2050.576464	-3.020400	3.324000	-10.038000	26.047698	0.000544	20.861322
2051.576647	-3.001200	3.326100	-9.980700	26.036497	0.000544	20.843431
2052.578052	-3.023800	3.323800	-10.048000	26.012278	0.000541	20.858452
2053.578491	-2.989600	3.325600	-9.941500	26.071294	0.000543	20.857055
2054.580320	-3.012300	3.323800	-10.011000	26.105718	0.000544	20.868883
2055.580519	-3.006000	3.323500	-9.988900	26.117982	0.000540	20.864611
2056.588495	-3.004400	3.323900	-9.985800	26.123499	0.000538	20.863990
2057.581127	-2.991300	3.322600	-9.937600	26.154794	0.000542	20.864616
2058.587418	-2.990900	3.323100	-9.938400	26.190851	0.000539	20.867183
2059.582815	-3.001200	3.322100	-9.969400	26.208435	0.000538	20.861620
2060.582937	-2.994800	3.322400	-9.948000	26.203838	0.000540	20.856526
2061.587514	-3.040600	3.321500	-10.099000	26.232249	0.000540	20.869902
2062.580381	-2.998500	3.322700	-9.962500	26.209871	0.000540	20.872071
2063.591933	-3.004300	3.320600	-9.975100	26.148003	0.000540	20.872490
2064.584696	-3.013200	3.321300	-10.006000	26.099508	0.000539	20.867859
2065.581449	-3.007100	3.319900	-9.981700	26.140733	0.000535	20.871350
2066.585476	-3.009500	3.320200	-9.990400	26.143765	0.000538	20.884826
2067.581187	-3.004800	3.318400	-9.970000	26.172825	0.000539	20.891267
2068.585524	-3.008200	3.319400	-9.984000	26.174065	0.000537	20.883505
2069.585304	-3.009000	3.320000	-9.988300	26.203967	0.000537	20.871828
2070.590671	-3.002700	3.318200	-9.962700	26.220111	0.000534	20.891368
2071.584932	-2.977600	3.318300	-9.880200	26.225552	0.000535	20.857483
2072.583558	-3.001900	3.318200	-9.959700	26.226942	0.000534	20.880216
2073.582932	-2.976100	3.318200	-9.874400	26.231239	0.000532	20.869361
2074.586062	-3.005900	3.316500	-9.967000	26.220391	0.000532	20.877900
2075.587970	-2.980000	3.318600	-9.888900	26.217063	0.000532	20.874082
2076.594251	-3.008900	3.317100	-9.979700	26.181131	0.000530	20.871640
2077.582463	-2.984200	3.316600	-9.896300	26.159747	0.000528	20.870067
2078.587197	-2.995000	3.317000	-9.933700	26.133723	0.000528	20.875211
2079.585772	-2.990100	3.316400	-9.915400	26.136876	0.000530	20.884068
2080.585896	-2.996200	3.316300	-9.934600	26.140731	0.000529	20.884148
2081.595838	-3.009700	3.314500	-9.974200	26.164621	0.000525	20.880653
2082.582779	-3.004400	3.314300	-9.956500	26.132984	0.000526	20.897227
2083.586238	-2.999600	3.314800	-9.942100	26.114531	0.000528	20.902391
2084.583902	-3.003700	3.316400	-9.959900	26.092849	0.000526	20.887245
2085.588195	-3.008600	3.314000	-9.968900	26.111629	0.000527	20.882408
2086.585090	-3.004800	3.315100	-9.960000	26.156854	0.000525	20.882332
2087.585018	-2.996700	3.314600	-9.932100	26.183178	0.000525	20.885076
2088.584375	-3.001600	3.311800	-9.939500	26.181868	0.000524	20.884233
2089.585801	-2.999300	3.312300	-9.933600	26.221749	0.000523	20.883058
2090.590367	-2.996400	3.312900	-9.924700	26.229324	0.000526	20.898255
2091.589942	-2.981200	3.314000	-9.877900	26.249367	0.000525	20.883310
2092.587326	-3.009500	3.312300	-9.967300	26.231613	0.000519	20.904347
2093.587655	-2.989800	3.313500	-9.906200	26.240030	0.000523	20.884833
2094.590858	-3.001400	3.311800	-9.938000	26.227742	0.000520	20.894769
2095.589740	-3.037600	3.309900	-10.052000	26.216267	0.000521	20.896040
2096.592128	-3.026600	3.309500	-10.015000	26.222522	0.000521	20.874826
2097.589578	-2.992700	3.310200	-9.905000	26.243780	0.000519	20.881015
2098.593786	-2.963800	3.310800	-9.811100	26.250812	0.000519	20.881443
2099.588716	-2.981100	3.310000	-9.866700	26.241175	0.000517	20.913481
2100.593613	-2.995400	3.308100	-9.908600	26.269835	0.000517	20.889180
2101.591732	-2.998500	3.310100	-9.923800	26.308052	0.000518	20.908619
2102.592256	-2.986300	3.308900	-9.880100	26.325881	0.000518	20.897614
2103.597253	-2.966400	3.308500	-9.813100	26.347136	0.000517	20.892424
2104.593614	-3.001000	3.307700	-9.925800	26.338970	0.000515	20.920249
2105.601592	-2.996700	3.308000	-9.912400	26.322532	0.000514	20.895197
2106.592952	-2.985300	3.306700	-9.870600	26.327768	0.000513	20.900932
2107.594559	-3.016600	3.306500	-9.972800	26.384086	0.000517	20.923866
2108.601819	-2.972500	3.308600	-9.834200	26.389647	0.000513	20.915705
2109.591992	-2.999500	3.307300	-9.919000	26.407052	0.000513	20.905225
2110.593031	-3.018500	3.304300	-9.973500	26.421034	0.000512	20.900786
2111.593638	-3.019600	3.304900	-9.978100	26.419940	0.000514	20.910591
2112.598422	-3.001200	3.306300	-9.921200	26.435838	0.000512	20.916138
2113.603034	-3.008000	3.305100	-9.941000	26.469799	0.000511	20.906177
2114.596569	-3.012300	3.305000	-9.955000	26.436927	0.000510	20.933827
2115.596941	-3.003100	3.304700	-9.923300	26.417410	0.000511	20.901885
2116.598576	-3.012100	3.305800	-9.956200	26.422921	0.000509	20.921172
2117.599191	-3.001400	3.304700	-9.916600	26.394419	0.000510	20.898692
2118.600377	-3.002600	3.303700	-9.918800	26.376838	0.000511	20.908049
2119.597809	-2.984000	3.303800	-9.857600	26.339196	0.000508	20.916683
2120.599839	-3.010900	3.302600	-9.942500	26.287673	0.000506	20.910898
2121.602036	-2.972200	3.305100	-9.821500	26.250746	0.000508	20.919780
2122.600783	-2.985200	3.303300	-9.859500	26.244487	0.000507	20.913017
2123.603670	-3.002400	3.303100	-9.914700	26.288496	0.000507	20.915992
2124.605653	-3.032500	3.300900	-10.009000	26.330487	0.000507	20.928318
2125.605484	-3.000300	3.300600	-9.902000	26.335180	0.000506	20.924974
2126.607204	-2.997800	3.301500	-9.896400	26.340369	0.000505	20.925923
2127.605207	-3.004100	3.300500	-9.914200	26.307669	0.000504	20.929095
2128.606378	-2.987300	3.301200	-9.859300	26.279883	0.000503	20.928671
2129.604616	-2.995200	3.300600	-9.884700	26.268459	0.000503	20.921933
2130.608245	-3.011700	3.299700	-9.937200	26.229593	0.000500	20.936928
2131.603008	-2.976400	3.299800	-9.820000	26.306480	0.000502	20.951130
2132.602842	-3.012900	3.299200	-9.938200	26.294534	0.000502	20.920637
2133.603627	-2.985800	3.300000	-9.851600	26.334517	0.000499	20.919567
2134.606512	-2.995100	3.299400	-9.881300	26.351104	0.000500	20.934814
2135.603922	-2.999300	3.297700	-9.889900	26.352098	0.000498	20.941976
2136.606387	-2.990800	3.298400	-9.864100	26.352816	0.000496	20.951705
2137.604456	-2.997200	3.297300	-9.881600	26.396245	0.000496	20.935611
2138.606485	-2.985600	3.299100	-9.848500	26.391652	0.000496	20.944271
2139.608701	-2.996500	3.296300	-9.876800	26.410197	0.000496	20.963381
2140.604576	-2.990200	3.297100	-9.858400	26.418885	0.000497	20.928969
2141.607833	-3.006600	3.294900	-9.906100	26.404014	0.000497	20.938678
2142.605938	-3.006500	3.294900	-9.904900	26.380918	0.000494	20.952447
2143.615323	-3.015200	3.294900	-9.933600	26.396611	0.000493	20.955891
2144.607559	-2.992400	3.295000	-9.859600	26.443170	0.000493	20.955271
2145.606715	-2.980900	3.296300	-9.824500	26.454642	0.000494	20.938355
2146.607689	-3.016400	3.294800	-9.936600	26.487488	0.000494	20.951927
2147.607908	-3.011600	3.294000	-9.918400	26.499326	0.000492	20.951025
2148.609700	-3.007700	3.293200	-9.904200	26.534133	0.000493	20.946657
2149.615640	-3.013300	3.293700	-9.923300	26.505087	0.000490	20.964400
2150.613972	-2.983200	3.293500	-9.823700	26.478249	0.000489	20.949753
2151.610790	-2.996500	3.293000	-9.866300	26.471820	0.000493	20.950878
2152.612572	-2.990600	3.291400	-9.842700	26.454908	0.000488	20.946682
2153.609653	-2.985800	3.292000	-9.827400	26.463450	0.000489	20.951948
2154.612401	-3.002500	3.291400	-9.882000	26.448947	0.000488	20.937372
2155.611923	-2.990400	3.291800	-9.842400	26.458803	0.000486	20.944907
2156.610260	-2.993400	3.291600	-9.851800	26.472383	0.000488	20.960925
2157.609483	-2.966700	3.291000	-9.761500	26.505926	0.000484	20.944383
2158.611486	-2.992400	3.290300	-9.844000	26.518712	0.000484	20.952493
2159.612386	-2.994300	3.290400	-9.851000	26.550834	0.000484	20.972450
2160.617552	-2.993400	3.290500	-9.848800	26.511160	0.000484	20.968607
2161.615252	-2.993400	3.290300	-9.848100	26.477417	0.000483	20.952236
2162.620651	-3.016500	3.287800	-9.915200	26.457971	0.000484	20.959242
2163.618946	-3.028300	3.289200	-9.960100	26.456807	0.000482	20.964709
2164.612881	-3.004300	3.289200	-9.880500	26.444904	0.000483	20.958910
2165.613574	-3.009800	3.288300	-9.896400	26.448803	0.000482	20.934383
2166.617833	-2.995000	3.288200	-9.847500	26.420343	0.000480	20.954613
2167.615671	-3.025000	3.286300	-9.939600	26.413834	0.000482	20.946650
2168.616922	-3.015400	3.286900	-9.910600	26.439459	0.000478	20.971928
2169.615642	-3.004600	3.288000	-9.878300	26.468081	0.000479	20.950912
2170.623293	-3.022800	3.285500	-9.929800	26.487789	0.000478	20.953652
2171.621903	-3.022800	3.286000	-9.930900	26.520458	0.000479	20.972736
2172.628527	-2.992100	3.286300	-9.832300	26.529145	0.000475	20.961555
2173.624516	-2.983700	3.285300	-9.801300	26.559304	0.000475	20.944933
2174.618080	-2.985300	3.285900	-9.808600	26.580450	0.000473	20.942482
2175.619492	-3.007600	3.284500	-9.877300	26.593327	0.000474	20.940254
2176.627942	-3.012000	3.283900	-9.890500	26.619089	0.000472	20.941969
2177.623003	-3.003700	3.284800	-9.865500	26.585721	0.000470	20.940194
2178.622702	-3.009200	3.283400	-9.879500	26.599767	0.000470	20.945778
2179.620989	-3.005200	3.282900	-9.864400	26.570413	0.000470	20.916274
2180.622650	-3.009500	3.282200	-9.877300	26.568451	0.000469	20.950808
2181.622747	-3.007300	3.282300	-9.870200	26.532051	0.000470	20.935557
2182.624984	-2.996000	3.284400	-9.839200	26.514885	0.000474	20.924467
2183.622580	-2.993000	3.283600	-9.827000	26.510785	0.000470	20.944526
2184.624155	-2.992800	3.282900	-9.823900	26.488856	0.000468	20.947613
2185.631474	-2.998100	3.281800	-9.838500	26.519042	0.000468	20.925800
2186.624079	-2.977500	3.281100	-9.768200	26.515380	0.000466	20.939662
2187.623883	-3.002700	3.282300	-9.855000	26.511331	0.000467	20.925162
2188.633999	-2.978700	3.281700	-9.773800	26.520138	0.000467	20.922636
2189.624754	-2.999700	3.280800	-9.840100	26.496302	0.000466	20.919539
2190.628581	-2.993500	3.278900	-9.813800	26.490065	0.000465	20.932709
2191.635969	-2.999100	3.278600	-9.831000	26.517742	0.000464	20.905529
2192.626825	-3.015600	3.278900	-9.886700	26.531738	0.000464	20.918175
2193.627363	-3.030000	3.278700	-9.933300	26.583696	0.000462	20.909238
2194.628287	-3.006500	3.277700	-9.853700	26.566735	0.000461	20.909259
2195.632072	-2.997700	3.278800	-9.827300	26.578302	0.000462	20.914247
2196.631380	-3.002700	3.277300	-9.839200	26.612805	0.000461	20.921904
2197.628094	-3.023400	3.278500	-9.910600	26.642913	0.000461	20.918979
2198.637522	-2.992200	3.278100	-9.806400	26.625632	0.000461	20.923418
2199.630730	-2.996400	3.275800	-9.814300	26.630515	0.000462	20.916948
2200.630310	-2.982000	3.277500	-9.771400	26.609557	0.000457	20.925276
2201.629899	-2.984600	3.276400	-9.777300	26.573981	0.000455	20.922230
2202.630813	-2.979700	3.277300	-9.764200	26.548138	0.000459	20.913323
2203.631077	-2.991700	3.275200	-9.797200	26.510572	0.000456	20.910176
2204.632457	-3.016000	3.274400	-9.874600	26.510238	0.000456	20.911262
2205.631336	-2.991500	3.275700	-9.798400	26.511056	0.000454	20.921093
2206.634331	-3.005500	3.272800	-9.835100	26.521529	0.000455	20.886579
2207.632092	-2.995700	3.274500	-9.808400	26.541708	0.000453	20.904964
2208.631072	-2.982500	3.273500	-9.760300	26.577227	0.000455	20.902736
2209.632859	-2.992100	3.272400	-9.789700	26.585717	0.000454	20.907951
2210.631948	-3.003800	3.271800	-9.827000	26.571337	0.000454	20.916254
2211.639317	-3.020800	3.271500	-9.882500	26.538660	0.000450	20.900479
2212.632598	-2.993100	3.272300	-9.793300	26.518156	0.000450	20.880343
2213.633712	-2.987900	3.272100	-9.775300	26.562462	0.000449	20.891214
2214.637407	-2.995100	3.272900	-9.801500	26.539866	0.000448	20.901691
2215.636538	-2.997700	3.271600	-9.806500	26.558880	0.000448	20.902786
2216.642003	-2.997700	3.271500	-9.804900	26.572881	0.000445	20.902635
2217.641284	-3.008600	3.269800	-9.837200	26.550857	0.000446	20.879076
2218.634799	-3.019400	3.270100	-9.872800	26.532903	0.000447	20.888054
2219.634430	-2.999900	3.269800	-9.807400	26.571253	0.000444	20.887249
2220.636138	-2.991100	3.270200	-9.779600	26.576662	0.000445	20.885575
2221.634112	-3.023300	3.268700	-9.881800	26.554288	0.000446	20.897696
2222.643076	-2.983900	3.268700	-9.752200	26.564715	0.000445	20.884471
2223.646236	-2.995100	3.268700	-9.789000	26.593434	0.000443	20.884416
2224.637479	-2.999700	3.267700	-9.800400	26.614480	0.000443	20.890873
2225.639567	-3.005300	3.267300	-9.818700	26.607104	0.000442	20.882511
2226.640775	-2.990600	3.267800	-9.772200	26.573936	0.000439	20.897532
2227.637682	-3.021100	3.266800	-9.868000	26.593342	0.000441	20.882427
2228.637660	-3.022400	3.265100	-9.867700	26.576958	0.000440	20.883027
2229.641169	-3.003500	3.266800	-9.809000	26.591376	0.000439	20.872391
2230.642738	-2.995700	3.266400	-9.784200	26.622969	0.000439	20.875701
2231.643439	-3.001000	3.264600	-9.795700	26.622569	0.000441	20.891893
2232.640391	-2.991200	3.264700	-9.763800	26.648957	0.000438	20.854412
2233.640820	-3.007300	3.264100	-9.815200	26.651010	0.000437	20.898673
2234.644403	-3.017900	3.262400	-9.845100	26.672852	0.000438	20.871321
2235.640091	-3.013900	3.262800	-9.832700	26.724281	0.000433	20.862333
2236.644146	-2.962600	3.265800	-9.672700	26.749394	0.000435	20.864347
2237.640759	-3.003800	3.263000	-9.800300	26.785703	0.000433	20.885204
2238.644053	-3.012300	3.262000	-9.825000	26.805656	0.000434	20.893885
2239.641924	-3.008400	3.262200	-9.812500	26.788053	0.000432	20.897049
2240.642891	-2.970200	3.262400	-9.688800	26.778767	0.000433	20.884395
2241.653251	-3.002200	3.260900	-9.789500	26.786579	0.000434	20.864276
2242.647854	-3.021600	3.261200	-9.853500	26.794989	0.000432	20.867515
2243.644475	-3.026300	3.258700	-9.860800	26.815163	0.000434	20.877841
2244.642102	-3.023500	3.259300	-9.853200	26.835511	0.000430	20.863214
2245.641726	-3.011500	3.260000	-9.816500	26.841362	0.000431	20.872890
2246.648166	-3.002500	3.259700	-9.786300	26.849079	0.000428	20.866898
2247.644231	-3.003100	3.258800	-9.785400	26.872803	0.000431	20.837649
2248.647577	-3.020000	3.257500	-9.836300	26.885906	0.000428	20.865522
2249.645736	-3.010800	3.257000	-9.803900	26.835866	0.000431	20.856459
2250.646836	-2.993800	3.259100	-9.756700	26.766217	0.000427	20.858503
2251.646220	-2.998800	3.257300	-9.767300	26.692912	0.000429	20.841228
2252.654831	-2.961600	3.258700	-9.650100	26.665632	0.000430	20.857899
2253.645166	-3.008100	3.257400	-9.797600	26.659296	0.000429	20.845366
2254.655513	-2.990800	3.256900	-9.738600	26.685808	0.000427	20.860164
2255.644519	-2.990500	3.256400	-9.736800	26.699878	0.000427	20.871464
2256.646735	-3.020900	3.255300	-9.832800	26.709064	0.000426	20.835656
2257.649511	-2.994400	3.255400	-9.746800	26.749098	0.000425	20.851723
2258.646623	-3.021200	3.252800	-9.826200	26.753467	0.000425	20.844736
2259.645976	-3.016800	3.255000	-9.818100	26.787915	0.000425	20.853292
2260.655849	-2.999900	3.253900	-9.760500	26.810059	0.000422	20.828142
2261.645936	-2.981200	3.255700	-9.704500	26.819762	0.000424	20.860655
2262.651950	-3.007500	3.255000	-9.788700	26.823255	0.000423	20.856581
2263.656916	-2.994200	3.252100	-9.736500	26.833709	0.000421	20.865195
2264.647051	-2.999700	3.252000	-9.753600	26.847481	0.000421	20.838266
2265.648782	-3.002500	3.253100	-9.766400	26.844451	0.000421	20.845651
2266.646776	-2.993600	3.252600	-9.736200	26.877189	0.000418	20.848697
2267.647086	-2.980000	3.253300	-9.694600	26.862942	0.000419	20.848123
2268.649161	-3.002300	3.251500	-9.761000	26.831869	0.000416	20.844854
2269.650935	-3.023700	3.250300	-9.826500	26.812133	0.000416	20.837339
2270.648251	-3.008400	3.250500	-9.777300	26.757132	0.000416	20.852688
2271.647600	-3.000300	3.249000	-9.747000	26.754352	0.000414	20.830454
2272.653090	-2.987500	3.250600	-9.709100	26.736924	0.000414	20.835690
2273.651396	-3.011600	3.249500	-9.785400	26.737821	0.000415	20.829480
2274.652791	-3.004000	3.251000	-9.764400	26.773889	0.000412	20.849621
2275.652828	-2.992100	3.249000	-9.720300	26.765024	0.000412	20.855407
2276.654016	-3.011300	3.248300	-9.779600	26.761105	0.000413	20.837243
2277.657844	-2.993200	3.247400	-9.719800	26.764156	0.000409	20.842681
2278.659686	-2.989800	3.248600	-9.711700	26.790440	0.000410	20.837339
2279.671832	-3.023600	3.246100	-9.813700	26.814241	0.000413	20.846570
2280.653032	-2.998900	3.246700	-9.735300	26.833722	0.000409	20.834390
2281.654678	-3.004000	3.245900	-9.749500	26.846254	0.000410	20.828499
2282.654907	-2.994900	3.246300	-9.721300	26.860422	0.000409	20.844640
2283.657891	-3.014400	3.245000	-9.780500	26.817505	0.000409	20.861231
2284.653876	-3.002200	3.244900	-9.740600	26.790428	0.000406	20.840172
2285.653307	-3.039900	3.244000	-9.860500	26.778730	0.000406	20.835049
2286.653728	-3.000500	3.243700	-9.731500	26.796893	0.000403	20.839560
2287.657809	-3.014500	3.242000	-9.771900	26.769340	0.000404	20.822289
2288.653029	-3.004500	3.244900	-9.748900	26.738014	0.000405	20.851958
2289.658782	-3.008000	3.242800	-9.754100	26.707379	0.000402	20.831118
2290.656061	-2.994900	3.242600	-9.710300	26.673017	0.000402	20.852521
2291.656607	-3.009600	3.241700	-9.755700	26.667653	0.000402	20.837173
2292.655500	-2.991500	3.240900	-9.693700	26.667374	0.000402	20.853012
2293.656508	-3.013600	3.240100	-9.763800	26.703415	0.000398	20.827132
2294.655634	-2.993500	3.241700	-9.703200	26.708048	0.000400	20.825152
2295.658359	-3.024000	3.237800	-9.790600	26.709359	0.000401	20.823625
2296.667482	-3.008100	3.240400	-9.746700	26.703324	0.000400	20.812816
2297.655560	-3.003400	3.240600	-9.732400	26.698950	0.000397	20.812212
2298.662766	-2.988700	3.239600	-9.680700	26.722602	0.000398	20.834094
2299.658886	-2.972900	3.240000	-9.630900	26.713062	0.000398	20.837778
2300.659603	-2.999800	3.238400	-9.713800	26.749126	0.000396	20.839423
2301.672060	-2.991600	3.237000	-9.683100	26.780123	0.000393	20.838345
2302.663130	-2.985200	3.238400	-9.665000	26.790569	0.000394	20.828460
2303.673431	-3.016300	3.236200	-9.759800	26.838963	0.000393	20.832073
2304.658531	-3.003600	3.238300	-9.725700	26.862187	0.000395	20.826501
2305.659964	-3.038900	3.233500	-9.825100	26.831460	0.000393	20.820262
2306.667745	-2.997300	3.235400	-9.696400	26.788542	0.000393	20.817887
2307.665686	-3.005800	3.234500	-9.721300	26.755918	0.000392	20.813536
2308.682517	-2.977900	3.234400	-9.630300	26.750080	0.000391	20.832796
2309.672836	-2.986100	3.233800	-9.655300	26.727638	0.000393	20.800751
2310.666940	-3.039600	3.232800	-9.825300	26.737263	0.000393	20.806635
2311.662296	-2.997400	3.234400	-9.693000	26.740686	0.000392	20.820981
2312.665374	-2.995800	3.234200	-9.687500	26.685522	0.000390	20.830481
2313.664821	-3.005100	3.232100	-9.711000	26.681670	0.000390	20.815229
2314.664946	-2.962800	3.232700	-9.576900	26.644728	0.000389	20.820290
2315.681931	-2.999400	3.231900	-9.692600	26.623674	0.000388	20.818091
2316.659128	-2.980800	3.232300	-9.632800	26.632185	0.000386	20.814793
2317.664011	-2.999800	3.230100	-9.689600	26.624481	0.000388	20.788556
2318.680271	-2.983100	3.232200	-9.640800	26.640910	0.000389	20.802702
2319.663341	-2.976000	3.229800	-9.610200	26.665732	0.000388	20.794939
2320.671850	-2.970100	3.230400	-9.593700	26.696553	0.000386	20.804587
2321.661907	-2.988600	3.229500	-9.650400	26.774670	0.000386	20.808682
2322.672064	-3.004700	3.228400	-9.699100	26.837654	0.000383	20.815111
2323.668977	-2.987200	3.228300	-9.642900	26.899996	0.000381	20.808095
2324.665094	-2.997100	3.228600	-9.674900	26.910813	0.000382	20.818023
2325.665772	-2.997000	3.227700	-9.672000	26.925523	0.000381	20.803892
2326.673001	-3.005100	3.225700	-9.692800	26.950785	0.000380	20.822182
2327.667729	-3.007900	3.224200	-9.697200	26.972450	0.000380	20.806984
2328.665519	-2.997600	3.225500	-9.667400	26.957604	0.000379	20.792530
2329.667306	-2.987400	3.226500	-9.636600	26.919185	0.000379	20.817907
2330.663919	-2.989500	3.225600	-9.642200	26.887217	0.000381	20.789081
2331.669187	-2.994900	3.224600	-9.656300	26.874952	0.000378	20.809466
2332.665904	-3.004900	3.223600	-9.685300	26.877160	0.000377	20.796038
2333.665298	-3.006800	3.223600	-9.691300	26.898447	0.000376	20.779511
2334.672303	-2.969700	3.224200	-9.574100	26.891399	0.000376	20.781433
2335.665827	-2.998400	3.224300	-9.666200	26.903505	0.000376	20.790761
2336.666722	-2.980400	3.222100	-9.602300	26.919809	0.000372	20.788663
2337.678423	-3.002800	3.222200	-9.674900	26.959317	0.000375	20.802313
2338.672662	-2.980200	3.220800	-9.597800	26.953484	0.000376	20.791231
2339.669712	-3.003000	3.220700	-9.670800	26.976806	0.000372	20.796666
2340.670543	-2.997200	3.221400	-9.653800	26.981592	0.000373	20.788677
2341.672005	-2.998700	3.220200	-9.655000	26.972559	0.000373	20.799507
2342.667996	-3.026000	3.218900	-9.739500	26.973527	0.000374	20.794316
2343.669234	-3.003300	3.220000	-9.668600	27.018858	0.000373	20.800548
2344.673843	-3.007200	3.217900	-9.675900	27.055609	0.000373	20.786773
2345.669193	-3.016900	3.217200	-9.704000	27.094169	0.000374	20.786198
2346.677866	-3.004600	3.218000	-9.666800	27.054512	0.000370	20.789937
2347.673569	-2.990500	3.216500	-9.617200	27.018626	0.000370	20.776606
2348.682480	-3.012100	3.218000	-9.690900	26.989093	0.000371	20.771563
2349.675235	-2.981600	3.218000	-9.593900	26.955119	0.000368	20.790978
2350.679220	-2.992500	3.216400	-9.624500	26.950675	0.000370	20.762327
2351.676758	-2.999500	3.217500	-9.648800	26.937765	0.000369	20.769734
2352.675457	-2.990000	3.215200	-9.612100	26.976576	0.000369	20.773201
2353.670929	-3.010300	3.214400	-9.674400	26.987149	0.000369	20.789523
2354.683087	-3.008600	3.213600	-9.667800	26.966027	0.000368	20.787723
2355.675519	-3.018400	3.213200	-9.697400	27.008984	0.000368	20.790145
2356.675820	-2.989500	3.213700	-9.606500	27.007320	0.000366	20.769978
2357.691518	-3.028000	3.211600	-9.723500	27.005655	0.000364	20.794857
2358.672055	-2.977400	3.213500	-9.566600	27.047246	0.000363	20.779311
2359.678594	-3.011200	3.211800	-9.670500	27.037516	0.000365	20.803665
2360.680221	-2.996300	3.211900	-9.623100	27.042503	0.000365	20.792558
2361.677885	-3.008000	3.209500	-9.653000	27.061312	0.000362	20.773541
2362.675741	-3.008200	3.210600	-9.657200	27.059397	0.000364	20.800065
2363.676674	-2.991300	3.212300	-9.607900	27.079374	0.000363	20.765154
2364.678896	-3.013300	3.209100	-9.668800	27.056768	0.000364	20.770869
2365.674846	-3.009500	3.210100	-9.659200	27.064162	0.000363	20.786365
2366.678612	-2.994600	3.208200	-9.606400	27.048082	0.000361	20.785841
2367.679280	-3.006300	3.208800	-9.645500	27.016092	0.000358	20.774533
2368.682591	-3.016100	3.209400	-9.679000	26.969885	0.000360	20.775007
2369.683471	-3.000000	3.207200	-9.620600	26.977950	0.000356	20.768893
2370.679590	-3.002400	3.208100	-9.630800	27.014899	0.000358	20.775704
2371.684748	-2.984700	3.207200	-9.572500	27.018913	0.000357	20.771680
2372.684446	-3.020900	3.205200	-9.681500	27.066087	0.000357	20.784982
2373.681719	-2.996200	3.204700	-9.600500	27.078716	0.000356	20.775398
2374.680472	-3.000600	3.205500	-9.617500	27.082659	0.000355	20.774148
2375.680976	-2.991600	3.205200	-9.588000	27.123472	0.000355	20.784374
2376.682424	-3.000400	3.203400	-9.610400	27.147887	0.000354	20.760092
2377.684371	-3.011600	3.202400	-9.643600	27.150912	0.000353	20.766927
2378.688471	-2.986300	3.202700	-9.562900	27.129472	0.000353	20.778555
2379.685898	-3.030100	3.203100	-9.703400	27.135372	0.000354	20.760781
2380.685432	-3.003800	3.202400	-9.618100	27.133261	0.000352	20.772409
2381.686347	-2.993400	3.203400	-9.588100	27.106185	0.000353	20.754660
2382.687299	-2.993900	3.202100	-9.585600	27.074919	0.000353	20.771579
2383.690151	-2.990200	3.200700	-9.569100	27.048709	0.000351	20.766557
2384.688842	-2.990900	3.201800	-9.574600	26.988654	0.000352	20.772545
2385.685762	-2.988300	3.201600	-9.566700	26.957710	0.000350	20.759918
2386.702912	-2.985000	3.200100	-9.551100	26.966165	0.000350	20.765102
2387.691945	-3.007800	3.198200	-9.618300	26.975866	0.000350	20.783867
2388.687850	-2.992800	3.198300	-9.571200	27.015594	0.000350	20.765023
2389.695807	-2.986800	3.198600	-9.553000	27.033582	0.000350	20.764146
2390.690936	-3.001200	3.197600	-9.595600	27.099309	0.000349	20.761495
2391.688961	-3.004100	3.197100	-9.602300	27.143525	0.000348	20.775619
2392.687902	-2.996700	3.196100	-9.576800	27.151929	0.000349	20.782175
2393.688623	-3.040100	3.195200	-9.712000	27.171307	0.000348	20.748559
2394.683915	-3.015900	3.194100	-9.632000	27.198796	0.000347	20.773837
2395.689017	-3.009500	3.194900	-9.613600	27.174429	0.000345	20.749328
2396.691202	-2.975300	3.195500	-9.507000	27.152414	0.000344	20.804000
2397.685168	-2.976100	3.196700	-9.511800	27.139039	0.000341	20.784384
2398.688666	-3.015400	3.193300	-9.627600	27.163279	0.000342	20.756132
2399.694011	-2.994300	3.194700	-9.564700	27.190517	0.000342	20.755079
2400.690015	-3.008000	3.192100	-9.601200	27.216938	0.000342	20.768851
2401.686892	-3.000200	3.191400	-9.573500	27.243883	0.000342	20.745218
2402.694744	-3.022200	3.192700	-9.648000	27.241276	0.000342	20.760615
2403.694892	-3.010700	3.189800	-9.601500	27.191475	0.000341	20.779276
2404.687964	-2.985200	3.189100	-9.518600	27.184203	0.000343	20.755366
2405.697967	-2.996800	3.190500	-9.559400	27.188067	0.000340	20.755460
2406.688733	-3.045100	3.188400	-9.707400	27.194814	0.000339	20.765090
2407.695835	-3.015600	3.189300	-9.617200	27.221409	0.000338	20.769555
2408.691333	-2.994600	3.187900	-9.546100	27.228227	0.000339	20.765033
2409.706192	-3.000600	3.189400	-9.568400	27.268391	0.000336	20.762759
2410.698139	-2.974600	3.187600	-9.480800	27.251118	0.000336	20.755341
2411.691652	-2.966900	3.187600	-9.456300	27.248829	0.000338	20.770583
2412.693808	-3.002200	3.187300	-9.567700	27.231612	0.000335	20.775551
2413.705087	-3.025100	3.185500	-9.635900	27.204981	0.000338	20.758722
2414.696198	-2.996400	3.185900	-9.545600	27.191928	0.000337	20.742747
2415.696024	-3.003400	3.185400	-9.566300	27.194750	0.000335	20.761707
2416.697443	-3.023800	3.185800	-9.632600	27.199714	0.000336	20.761010
2417.696200	-3.013400	3.184300	-9.594100	27.193279	0.000335	20.782039
2418.701922	-2.989400	3.182700	-9.512500	27.193971	0.000335	20.772304
2419.700778	-2.989600	3.182600	-9.513600	27.172483	0.000334	20.763018
2420.699085	-2.981000	3.184500	-9.491600	27.162751	0.000332	20.778835
2421.697448	-2.964600	3.182500	-9.433300	27.162797	0.000334	20.773666
2422.700916	-2.989400	3.186000	-9.522700	27.198100	0.000332	20.770767
2423.701570	-2.990600	3.181800	-9.514500	27.207500	0.000331	20.784489
2424.704093	-2.989900	3.180300	-9.508100	27.229752	0.000333	20.756136
2425.707939	-2.964900	3.180300	-9.428200	27.257758	0.000331	20.755856
2426.700476	-2.996900	3.181500	-9.534100	27.281002	0.000332	20.764538
2427.699327	-2.992100	3.180100	-9.514000	27.265389	0.000329	20.759740
2428.697582	-2.996000	3.180600	-9.528400	27.280424	0.000329	20.769647
2429.698033	-2.987900	3.179000	-9.497600	27.307931	0.000329	20.759858
2430.700202	-3.018000	3.177500	-9.588000	27.327007	0.000327	20.757710
2431.702543	-3.001100	3.178500	-9.538500	27.318815	0.000327	20.767963
2432.702186	-2.991600	3.176400	-9.502100	27.294544	0.000329	20.763936
2433.700489	-3.015700	3.174500	-9.571300	27.271175	0.000326	20.769827
2434.710034	-3.000100	3.174700	-9.523300	27.252984	0.000328	20.759116
2435.702265	-2.998500	3.176100	-9.523400	27.246357	0.000329	20.775683
2436.703152	-3.012100	3.175100	-9.562300	27.268730	0.000327	20.767841
2437.699642	-3.004400	3.173200	-9.531700	27.324245	0.000326	20.763467
2438.702908	-3.028100	3.171900	-9.603700	27.289882	0.000324	20.777264
2439.704604	-3.005700	3.173200	-9.536900	27.289953	0.000328	20.775914
2440.702509	-3.001500	3.171200	-9.517700	27.288314	0.000326	20.773791
2441.702528	-3.009400	3.170500	-9.540700	27.273845	0.000327	20.744062
2442.703138	-3.006600	3.169700	-9.528400	27.237813	0.000327	20.769934
2443.703787	-2.998400	3.170100	-9.503900	27.232577	0.000323	20.771780
2444.703872	-2.984700	3.169800	-9.460400	27.252694	0.000325	20.770678
2445.708907	-3.009200	3.168900	-9.534500	27.239467	0.000326	20.751682
2446.707666	-2.993100	3.167900	-9.480400	27.243138	0.000326	20.769600
2447.712427	-3.009900	3.167700	-9.532000	27.238367	0.000324	20.758163
2448.704334	-2.991600	3.166500	-9.471900	27.219808	0.000326	20.761306
2449.710759	-2.982000	3.166800	-9.442400	27.222536	0.000324	20.766896
2450.714935	-3.021100	3.164500	-9.558600	27.218487	0.000323	20.769935
2451.711918	-3.002800	3.163300	-9.497000	27.229257	0.000321	20.761802
2452.711626	-2.991000	3.164000	-9.461800	27.223694	0.000326	20.788923
2453.706983	-2.999200	3.163400	-9.487100	27.218827	0.000323	20.775967
2454.704426	-2.986700	3.165300	-9.452300	27.186053	0.000325	20.774771
2455.705855	-2.994800	3.162100	-9.468700	27.145782	0.000324	20.756551
2456.705167	-3.021400	3.160500	-9.546600	27.122656	0.000322	20.773122
2457.714249	-2.992500	3.162100	-9.461300	27.134489	0.000319	20.778859
2458.712566	-3.004600	3.160900	-9.496100	27.132528	0.000323	20.754601
2459.707247	-2.999000	3.159400	-9.474300	27.131360	0.000319	20.770497
2460.708037	-2.998500	3.161100	-9.477800	27.130664	0.000320	20.757468
2461.713440	-3.019000	3.158800	-9.535200	27.083818	0.000322	20.767253
2462.710661	-3.000500	3.158000	-9.474800	27.112427	0.000321	20.789388
2463.713738	-3.016700	3.156400	-9.520500	27.152175	0.000321	20.786216
2464.709765	-3.004100	3.156900	-9.482400	27.181604	0.000320	20.786891
2465.715510	-2.991000	3.156400	-9.438900	27.212692	0.000320	20.783547
2466.709903	-2.991700	3.157100	-9.443700	27.233930	0.000319	20.775511
2467.713099	-2.996300	3.155100	-9.452600	27.235912	0.000318	20.789833
2468.710156	-2.987400	3.154200	-9.421900	27.242287	0.000319	20.790556
2469.709046	-2.997200	3.154200	-9.452200	27.280272	0.000314	20.783720
2470.710427	-2.979800	3.153900	-9.397400	27.306791	0.000318	20.775781
2471.723349	-2.981300	3.154000	-9.401600	27.331676	0.000316	20.769520
2472.715945	-2.986700	3.154100	-9.419700	27.376779	0.000315	20.783123
2473.714110	-2.973500	3.153800	-9.376800	27.403987	0.000316	20.790581
2474.715147	-2.982900	3.150200	-9.395300	27.421230	0.000315	20.784219
2475.718430	-2.993800	3.150600	-9.430300	27.435519	0.000311	20.800965
2476.712648	-2.998500	3.148300	-9.438600	27.409147	0.000315	20.794349
2477.709758	-3.013900	3.149200	-9.490100	27.395504	0.000314	20.796745
2478.713200	-3.034900	3.146400	-9.546000	27.417952	0.000312	20.780447
2479.715502	-3.006400	3.148600	-9.463900	27.404580	0.000310	20.783116
2480.713515	-3.031800	3.144700	-9.533100	27.417977	0.000313	20.819353
2481.714128	-2.987800	3.144800	-9.395100	27.421076	0.000312	20.784539
2482.710578	-3.006100	3.145000	-9.452500	27.409047	0.000310	20.791877
2483.725980	-2.975700	3.143300	-9.352100	27.412296	0.000310	20.784241
2484.712315	-3.002000	3.143500	-9.434600	27.439408	0.000311	20.801558
2485.716036	-2.992600	3.142800	-9.404300	27.467954	0.000314	20.814156
2486.717715	-3.017100	3.141100	-9.475800	27.494324	0.000308	20.800858
2487.711955	-2.985800	3.142600	-9.382300	27.485242	0.000310	20.786979
2488.716377	-3.001600	3.141000	-9.425400	27.473163	0.000310	20.818448
2489.717616	-3.014700	3.140200	-9.465700	27.444485	0.000310	20.772528
2490.716883	-2.984900	3.140000	-9.371700	27.456043	0.000310	20.791742
2491.715523	-3.020600	3.135900	-9.470800	27.467925	0.000307	20.798006
2492.718420	-3.012900	3.138200	-9.454300	27.495357	0.000308	20.799526
2493.723695	-2.989900	3.136800	-9.377600	27.523162	0.000308	20.784353
2494.726985	-3.011900	3.135700	-9.443300	27.541934	0.000307	20.807982
2495.724454	-2.995600	3.135800	-9.392300	27.550264	0.000308	20.811621
2496.719771	-3.006600	3.133800	-9.421200	27.605499	0.000306	20.805558
2497.718708	-3.000700	3.134100	-9.403100	27.618569	0.000308	20.816338
2498.721772	-3.003300	3.133000	-9.408200	27.616138	0.000306	20.828116
2499.712836	-3.002500	3.130800	-9.399400	27.573399	0.000305	20.806923
2500.720817	-3.006100	3.131000	-9.411100	27.522100	0.000302	20.790871
2501.725492	-2.993700	3.130500	-9.370200	27.557891	0.000305	20.814079
2502.719194	-2.987600	3.131100	-9.353800	27.570540	0.000301	20.807366
2503.728883	-3.008700	3.129800	-9.414600	27.608582	0.000305	20.812927
2504.727366	-3.012600	3.129000	-9.425600	27.625864	0.000305	20.804712
2505.724276	-3.022000	3.126300	-9.447200	27.595431	0.000305	20.803488
2506.742520	-2.997200	3.128300	-9.374800	27.603935	0.000302	20.809673
2507.721094	-2.961600	3.127500	-9.261100	27.581684	0.000304	20.793449
2508.725546	-2.985200	3.124900	-9.327900	27.531827	0.000303	20.805400
2509.726363	-3.018500	3.124300	-9.429900	27.522124	0.000304	20.802749
2510.724870	-3.010900	3.123000	-9.402100	27.474771	0.000302	20.805368
2511.722807	-3.003400	3.123900	-9.380800	27.418808	0.000301	20.808810
2512.717443	-3.003000	3.123100	-9.376800	27.416027	0.000301	20.790365
2513.718522	-3.006000	3.120900	-9.380900	27.463451	0.000303	20.803462
2514.720385	-2.992800	3.120200	-9.336400	27.464019	0.000300	20.812094
2515.714508	-2.988000	3.119200	-9.319100	27.460170	0.000298	20.817231
2516.720351	-3.007600	3.118200	-9.376600	27.431171	0.000300	20.823143
2517.723968	-2.982400	3.119100	-9.301100	27.445975	0.000297	20.808165
2518.713667	-3.009100	3.117800	-9.381000	27.449642	0.000298	20.826553
2519.720711	-3.002200	3.115200	-9.351600	27.468766	0.000299	20.823508
2520.718237	-3.000600	3.114900	-9.345200	27.455841	0.000301	20.804815
2521.732329	-2.991200	3.114600	-9.315500	27.478089	0.000298	20.823878
2522.726128	-2.994300	3.115200	-9.327000	27.500507	0.000299	20.804407
2523.723660	-2.997000	3.113400	-9.330000	27.517866	0.000298	20.828337
2524.729726	-3.009500	3.112100	-9.364500	27.482168	0.000299	20.804275
2525.726032	-2.974600	3.112300	-9.257000	27.520067	0.000299	20.829602
2526.720902	-2.999000	3.110400	-9.326700	27.536258	0.000296	20.817444
2527.720664	-2.978400	3.111500	-9.266600	27.549254	0.000298	20.831941
2528.735024	-2.982000	3.109700	-9.271500	27.592206	0.000297	20.818260
2529.722879	-3.004000	3.107800	-9.335000	27.597365	0.000297	20.826770
2530.724787	-2.965300	3.106300	-9.209700	27.644706	0.000299	20.833628
2531.724895	-2.977100	3.107000	-9.248900	27.659086	0.000298	20.792148
2532.729511	-3.018700	3.105700	-9.374300	27.657198	0.000296	20.824861
2533.732738	-3.002700	3.104900	-9.322000	27.636882	0.000296	20.823385
2534.729282	-3.009600	3.103400	-9.338600	27.575048	0.000297	20.842247
2535.726212	-2.987500	3.102500	-9.267500	27.563935	0.000296	20.830592
2536.732931	-2.996300	3.102200	-9.294400	27.512389	0.000297	20.822826
2537.737182	-3.009200	3.101700	-9.332000	27.545178	0.000295	20.826893
2538.736695	-2.991700	3.099600	-9.271500	27.560774	0.000297	20.815557
2539.734564	-2.994200	3.099200	-9.277700	27.554919	0.000296	20.817253
2540.732332	-2.976300	3.098200	-9.218600	27.548540	0.000296	20.842128
2541.729503	-3.007500	3.097700	-9.314000	27.564856	0.000295	20.802121
2542.730137	-2.985100	3.098000	-9.247000	27.533107	0.000297	20.829920
2543.737675	-2.984100	3.096000	-9.237800	27.545878	0.000296	20.804363
2544.728106	-2.997500	3.095900	-9.278800	27.584467	0.000294	20.830388
2545.730628	-3.001900	3.093700	-9.285400	27.607305	0.000296	20.819703
2546.734801	-2.988500	3.093300	-9.242800	27.562781	0.000294	20.827534
2547.728099	-2.993200	3.093100	-9.257600	27.549037	0.000296	20.843576
2548.729757	-3.013000	3.090300	-9.310200	27.547523	0.000295	20.818347
2549.731520	-3.024500	3.089700	-9.343300	27.578423	0.000295	20.828100
2550.734976	-2.973100	3.089800	-9.185700	27.570783	0.000294	20.845542
2551.736663	-2.985500	3.088400	-9.219900	27.594960	0.000294	20.847583
2552.731640	-2.977500	3.088200	-9.192300	27.612789	0.000294	20.835652
2553.731079	-3.021100	3.085600	-9.321100	27.607403	0.000293	20.856310
2554.738598	-2.987600	3.086100	-9.219200	27.638975	0.000296	20.834974
2555.735641	-2.980700	3.084200	-9.191600	27.647723	0.000295	20.833344
2556.737871	-3.008500	3.083500	-9.275100	27.723754	0.000295	20.846790
2557.735203	-2.999800	3.082400	-9.245700	27.664359	0.000295	20.850084
2558.732441	-3.037600	3.080200	-9.355300	27.638115	0.000291	20.845961
2559.744923	-3.006000	3.079600	-9.254700	27.588655	0.000293	20.833653
2560.735301	-2.982700	3.080100	-9.185700	27.544801	0.000293	20.829358
2561.731237	-2.986700	3.079200	-9.195500	27.549411	0.000291	20.835892
2562.737854	-2.996300	3.077100	-9.218700	27.549901	0.000293	20.847291
2563.738853	-3.007600	3.076700	-9.252300	27.597793	0.000292	20.840477
2564.744008	-3.032000	3.073900	-9.318200	27.593968	0.000295	20.842318
2565.741587	-2.995500	3.074700	-9.208300	27.609291	0.000292	20.857735
2566.741071	-3.013800	3.073500	-9.262600	27.636566	0.000295	20.836343
2567.733011	-3.002500	3.072000	-9.223100	27.625254	0.000294	20.832547
2568.738544	-3.028100	3.070500	-9.296700	27.625401	0.000292	20.829376
2569.741382	-3.001500	3.070300	-9.214900	27.611236	0.000294	20.849736
2570.739044	-2.975100	3.069600	-9.130300	27.629015	0.000293	20.851978
2571.753355	-3.000400	3.068400	-9.205700	27.675266	0.000293	20.844938
2572.736262	-3.016500	3.068100	-9.253800	27.696838	0.000293	20.848154
2573.740792	-2.988600	3.065400	-9.160600	27.719256	0.000293	20.851746
2574.736609	-2.998600	3.064700	-9.188500	27.763269	0.000294	20.860476
2575.740283	-2.995300	3.065000	-9.179300	27.795180	0.000294	20.848494
2576.736222	-2.985700	3.064500	-9.148100	27.805024	0.000293	20.857926
2577.736158	-2.990100	3.063100	-9.158400	27.764602	0.000292	20.845696
2578.745099	-2.975800	3.062700	-9.112800	27.746173	0.000293	20.836161
2579.735529	-3.009400	3.059200	-9.205500	27.735040	0.000291	20.858147
2580.736034	-2.998700	3.060200	-9.175200	27.788949	0.000291	20.855026
2581.740350	-3.004400	3.057500	-9.185200	27.815156	0.000294	20.856744
2582.733606	-2.998400	3.056600	-9.164200	27.782794	0.000296	20.847883
2583.743147	-2.984400	3.056000	-9.119900	27.755120	0.000293	20.857965
2584.745388	-3.004600	3.053100	-9.171500	27.750755	0.000292	20.858314
2585.742562	-3.012700	3.053200	-9.197500	27.693368	0.000292	20.855092
2586.746132	-2.983000	3.053400	-9.107800	27.662166	0.000295	20.854041
2587.739944	-2.957000	3.052400	-9.025300	27.686868	0.000293	20.862302
2588.743068	-2.987600	3.050400	-9.112200	27.681809	0.000293	20.863850
2589.745276	-2.979500	3.050300	-9.087400	27.670124	0.000291	20.853040
2590.744031	-2.985600	3.049000	-9.101200	27.649368	0.000290	20.866767
2591.746203	-3.000300	3.047700	-9.143200	27.685995	0.000292	20.871854
2592.746559	-2.992100	3.046800	-9.115500	27.709479	0.000292	20.865615
2593.742763	-2.984600	3.044600	-9.085100	27.768476	0.000291	20.869034
2594.749104	-3.016400	3.044100	-9.180800	27.800318	0.000293	20.869311
2595.743264	-3.010300	3.043900	-9.162100	27.822533	0.000291	20.868435
2596.738097	-3.019900	3.040500	-9.181100	27.866692	0.000292	20.875418
2597.745409	-2.988300	3.041700	-9.088300	27.905697	0.000288	20.883381
2598.763474	-3.014200	3.039600	-9.161100	27.936911	0.000292	20.872599
2599.758964	-3.012000	3.038500	-9.151000	27.959126	0.000289	20.876941
2600.747219	-3.024700	3.037000	-9.184800	27.979925	0.000290	20.872272
2601.746279	-2.983100	3.037300	-9.059600	28.007097	0.000289	20.875915
2602.745060	-2.988000	3.035500	-9.068800	28.008560	0.000287	20.877861
2603.744884	-2.972800	3.033400	-9.015900	28.016612	0.000291	20.894500
2604.747931	-2.985700	3.032700	-9.053700	28.035679	0.000289	20.880977
2605.738208	-2.989200	3.030200	-9.056800	28.014900	0.000289	20.897992
2606.755673	-3.010300	3.029400	-9.118400	27.972626	0.000290	20.878202
2607.757557	-2.995400	3.028200	-9.069500	27.938509	0.000289	20.885113
2608.746192	-3.001400	3.027000	-9.084600	27.917310	0.000290	20.879423
2609.752519	-3.002500	3.026400	-9.086000	27.920755	0.000289	20.891424
2610.754900	-3.000100	3.024500	-9.073100	27.933948	0.000288	20.871040
2611.760242	-3.000900	3.023700	-9.073000	27.952589	0.000286	20.890749
2612.747283	-3.016200	3.022800	-9.116400	27.883610	0.000290	20.897660
2613.748024	-2.997300	3.021900	-9.056900	27.855689	0.000287	20.910335
2614.745951	-3.001700	3.020000	-9.063600	27.848520	0.000290	20.896957
2615.748951	-3.001200	3.018700	-9.059100	27.800539	0.000288	20.912678
2616.760965	-2.979700	3.017800	-8.991300	27.808197	0.000288	20.867757
2617.755672	-2.997900	3.016600	-9.042700	27.788237	0.000292	20.907410
2618.747860	-3.006000	3.017300	-9.068500	27.809136	0.000288	20.917536
2619.766622	-2.982800	3.016100	-8.995700	27.839264	0.000287	20.892383
2620.752219	-3.022400	3.013500	-9.106300	27.855354	0.000287	20.917110
2621.757822	-2.979900	3.012700	-8.975900	27.892173	0.000287	20.890632
2622.754876	-2.989200	3.012200	-9.003500	27.881709	0.000288	20.889109
2623.757884	-3.005900	3.009400	-9.045200	27.839383	0.000287	20.897719
2624.760789	-3.009200	3.008600	-9.052700	27.806398	0.000286	20.906247
2625.757281	-3.007400	3.006800	-9.041200	27.815771	0.000289	20.909990
2626.753927	-2.983700	3.007800	-8.973600	27.829950	0.000285	20.892492
2627.758224	-3.005000	3.005100	-9.029700	27.884799	0.000288	20.902175
2628.768038	-3.009000	3.003300	-9.036300	27.918840	0.000286	20.916995
2629.770893	-3.019000	3.001400	-9.060000	27.928110	0.000284	20.904041
2630.770112	-3.009800	2.999500	-9.026700	27.971000	0.000286	20.937725
2631.767390	-2.988700	3.000000	-8.964300	27.970405	0.000288	20.914369
2632.757495	-3.017800	2.998200	-9.046600	27.978560	0.000287	20.897448
2633.756106	-3.006100	2.996500	-9.007100	27.979549	0.000287	20.918357
2634.764452	-2.982000	2.996600	-8.934200	27.966703	0.000287	20.920125
2635.759997	-3.002300	2.995300	-8.992000	27.963353	0.000284	20.915331
2636.761307	-2.986900	2.993900	-8.941200	27.985343	0.000289	20.904750
2637.759376	-2.982000	2.992900	-8.922300	27.991168	0.000288	20.919146
2638.756803	-3.011600	2.990300	-9.004700	28.018833	0.000286	20.903373
2639.759917	-3.004300	2.989700	-8.981400	28.042582	0.000288	20.909734
2640.770095	-2.991700	2.987500	-8.936200	28.025624	0.000285	20.920164
2641.771238	-2.979600	2.987900	-8.900800	27.987117	0.000288	20.923603
2642.763020	-3.011900	2.985900	-8.990300	28.016669	0.000285	20.912099
2643.758082	-3.009500	2.984900	-8.982200	28.008905	0.000287	20.921827
2644.755523	-3.012300	2.982800	-8.984100	28.025217	0.000285	20.922125
2645.762440	-2.985200	2.983000	-8.904000	28.037659	0.000287	20.921847
2646.760221	-3.017000	2.980500	-8.990900	28.002006	0.000287	20.906349
2647.764129	-3.011500	2.978000	-8.966400	28.002846	0.000289	20.897712
2648.770010	-3.000300	2.977200	-8.931300	28.000213	0.000286	20.911183
2649.766316	-3.001800	2.975500	-8.931000	28.034750	0.000289	20.938831
2650.758867	-2.976700	2.976000	-8.856900	27.994433	0.000286	20.909632
2651.760871	-2.980100	2.973600	-8.860100	27.984616	0.000287	20.913974
2652.767251	-2.980600	2.974000	-8.862900	28.009876	0.000286	20.896728
2653.764903	-2.999800	2.968900	-8.905100	28.072649	0.000287	20.899224
2654.766655	-2.994700	2.969100	-8.890800	28.100733	0.000289	20.891934
2655.770592	-3.000900	2.967800	-8.905400	28.100852	0.000286	20.894899
2656.771362	-2.979800	2.966100	-8.837200	28.104745	0.000285	20.894076
2657.774953	-3.003900	2.965400	-8.906500	28.072439	0.000288	20.912288
2658.772516	-3.002500	2.964600	-8.900500	28.076407	0.000286	20.902058
2659.770947	-3.027600	2.961400	-8.964700	28.144703	0.000288	20.893050
2660.763100	-3.015100	2.960000	-8.924100	28.153771	0.000287	20.885585
2661.768534	-3.012800	2.957900	-8.910800	28.182152	0.000289	20.901827
2662.773818	-3.000500	2.956600	-8.870300	28.210881	0.000286	20.889975
2663.768679	-2.984100	2.957000	-8.822400	28.235917	0.000287	20.871085
2664.768561	-3.013700	2.953700	-8.900600	28.230584	0.000288	20.899379
2665.766483	-3.038500	2.952300	-8.968700	28.244067	0.000290	20.892566
2666.766787	-2.977300	2.953200	-8.790400	28.232964	0.000287	20.902249
2667.767470	-3.011900	2.950900	-8.887100	28.193101	0.000290	20.868757
2668.775815	-2.992600	2.949900	-8.826500	28.198185	0.000291	20.875771
2669.777276	-2.999400	2.946300	-8.835200	28.196226	0.000289	20.880437
2670.778278	-2.978900	2.946200	-8.775200	28.227507	0.000287	20.883480
2671.769990	-3.010200	2.944500	-8.862900	28.196423	0.000290	20.896281
2672.773649	-2.985800	2.943400	-8.787300	28.139459	0.000289	20.892987
2673.776147	-2.979300	2.942000	-8.764400	28.049445	0.000290	20.872550
2674.778167	-2.988500	2.939400	-8.783500	28.039902	0.000290	20.893288
2675.778129	-2.963300	2.939300	-8.708900	28.047835	0.000288	20.879463
2676.787542	-3.011800	2.936900	-8.844300	28.089557	0.000288	20.875944
2677.771129	-3.033000	2.935500	-8.902100	28.108944	0.000286	20.877916
2678.790968	-3.014500	2.932600	-8.839200	28.138741	0.000290	20.916444
2679.785340	-2.997700	2.933400	-8.792800	28.130510	0.000287	20.889194
2680.776574	-2.974800	2.930000	-8.715800	28.156512	0.000286	20.898774
2681.774676	-2.987500	2.928800	-8.748700	28.163502	0.000288	20.871674
2682.770525	-3.008500	2.928000	-8.808000	28.163407	0.000287	20.869683
2683.787971	-3.016400	2.926400	-8.826000	28.162291	0.000287	20.890368
2684.784987	-3.015400	2.922800	-8.812300	28.155176	0.000287	20.872776
2685.760150	-3.009100	2.922200	-8.792100	28.158673	0.000284	20.884829
2686.764022	-2.991200	2.920400	-8.734100	28.159144	0.000286	20.884829
2687.761688	-3.075000	2.917500	-8.968000	28.126124	0.000286	20.894261
2688.758896	-2.997800	2.917500	-8.745200	28.060900	0.000286	20.884079
2689.757951	-2.991600	2.917100	-8.725900	28.022743	0.000286	20.876965
2690.758729	-3.036000	2.913000	-8.842700	27.996663	0.000285	20.864939
2691.767168	-3.032100	2.912500	-8.829900	27.989373	0.000288	20.868980
2692.785241	-3.019300	2.913000	-8.794000	28.015802	0.000284	20.860496
2693.763256	-3.031300	2.909200	-8.817900	28.070268	0.000285	20.866958
2694.784042	-2.985900	2.908500	-8.683500	28.102444	0.000285	20.869003
2695.766810	-3.023400	2.905800	-8.785000	28.094908	0.000286	20.856675
2696.785870	-2.975400	2.905900	-8.645800	28.063549	0.000286	20.864462
2697.799155	-2.970000	2.904400	-8.624600	28.029038	0.000286	20.879983
2698.778015	-2.981500	2.902500	-8.652900	28.018698	0.000286	20.866730
2699.792607	-3.007700	2.899100	-8.718500	28.055711	0.000286	20.864158
2700.783506	-2.993900	2.899700	-8.680400	28.110349	0.000285	20.858943
2701.778819	-2.998500	2.895900	-8.682800	28.149046	0.000287	20.871820
2702.792482	-3.023300	2.893600	-8.746900	28.151301	0.000284	20.866030
2703.766795	-2.980700	2.893100	-8.620400	28.164860	0.000286	20.863559
2704.762082	-3.019900	2.889100	-8.722900	28.176610	0.000284	20.876809
2705.764445	-2.995300	2.889400	-8.653500	28.166245	0.000286	20.852152
2706.766253	-2.994400	2.886700	-8.642300	28.189548	0.000284	20.852378
2707.763112	-3.007300	2.884900	-8.674400	28.235428	0.000285	20.849257
2708.765617	-2.986800	2.884700	-8.615100	28.240855	0.000285	20.876056
2709.779038	-3.005900	2.880100	-8.656100	28.237758	0.000289	20.853973
2710.784890	-2.994300	2.880400	-8.623500	28.271068	0.000284	20.869017
2711.788863	-3.009400	2.878400	-8.660800	28.291617	0.000286	20.853672
2712.800366	-3.018000	2.875800	-8.678000	28.319401	0.000285	20.869318
2713.769196	-3.047800	2.872900	-8.754700	28.300786	0.000286	20.865275
2714.794436	-2.999600	2.873700	-8.618300	28.309686	0.000287	20.857167
2715.774970	-3.018900	2.869600	-8.662100	28.322819	0.000285	20.843364
2716.775124	-3.021400	2.867500	-8.662500	28.311171	0.000283	20.853446
2717.771106	-3.028600	2.867400	-8.681900	28.351468	0.000288	20.848028
2718.770279	-3.021700	2.864400	-8.654700	28.294021	0.000285	20.855145
2719.781102	-2.991800	2.862500	-8.563000	28.206572	0.000286	20.864775
2720.794574	-2.961500	2.860400	-8.469600	28.127597	0.000285	20.854969
2721.768366	-2.998200	2.858500	-8.569200	28.063937	0.000285	20.849681
2722.772178	-3.008100	2.857300	-8.593900	28.011899	0.000285	20.848033
2723.788559	-3.006300	2.855300	-8.583000	28.003098	0.000285	20.846287
2724.774408	-2.997200	2.854600	-8.555300	28.015099	0.000286	20.856469
2725.773763	-3.023800	2.849700	-8.615300	28.020230	0.000283	20.849781
2726.771609	-3.021500	2.848000	-8.604600	28.057964	0.000283	20.872590
2727.774039	-2.996600	2.846300	-8.528400	28.103329	0.000285	20.864203
2728.797314	-2.991800	2.844400	-8.509200	28.159652	0.000283	20.856419
2729.800726	-3.005000	2.841400	-8.537500	28.184045	0.000283	20.870071
2730.770458	-3.035000	2.839400	-8.616500	28.212326	0.000285	20.854922
2731.797924	-3.006900	2.838200	-8.533600	28.212029	0.000284	20.874536
2732.790394	-3.012800	2.834900	-8.540600	28.196537	0.000287	20.847087
2733.796828	-3.005100	2.833700	-8.514500	28.172393	0.000287	20.843169
2734.773418	-2.996100	2.831300	-8.481500	28.152238	0.000284	20.846111
2735.779733	-3.021000	2.829100	-8.545200	28.123335	0.000284	20.855421
2736.779718	-3.031700	2.826200	-8.566200	28.155385	0.000286	20.856392
2737.777611	-3.010100	2.825000	-8.502500	28.128536	0.000284	20.839320
2738.775128	-2.995400	2.823700	-8.457400	28.122887	0.000284	20.834107
2739.782017	-2.965400	2.821500	-8.365600	28.133620	0.000284	20.868144
2740.779253	-2.987500	2.818900	-8.419900	28.127943	0.000285	20.847258
2741.776191	-2.995200	2.816400	-8.434700	28.128384	0.000283	20.845805
2742.775655	-3.000000	2.813600	-8.439500	28.100325	0.000285	20.842689
2743.794857	-2.979100	2.812000	-8.376300	28.082100	0.000287	20.852317
2744.780759	-3.014400	2.809500	-8.467800	28.078432	0.000284	20.857159
2745.779166	-2.989000	2.806900	-8.389100	28.048283	0.000286	20.864268
2746.808987	-2.983700	2.804000	-8.364900	28.094965	0.000284	20.847724
2747.778220	-3.000300	2.801100	-8.403000	28.089833	0.000282	20.847774
2748.783332	-3.000600	2.799300	-8.398000	28.076767	0.000284	20.828458
2749.796963	-2.988400	2.797800	-8.359800	28.069849	0.000287	20.848993
2750.780648	-3.011600	2.794200	-8.414300	28.070095	0.000285	20.825061
2751.802381	-2.976900	2.791500	-8.308500	28.088809	0.000283	20.840579
2752.802536	-3.017300	2.789100	-8.415000	28.123788	0.000286	20.843550
2753.805222	-3.019800	2.784400	-8.407500	28.120489	0.000284	20.844021
2754.777438	-3.020400	2.783000	-8.404300	28.138437	0.000284	20.861614
2755.780536	-2.992800	2.780900	-8.321800	28.168602	0.000283	20.853577
2756.781015	-2.976600	2.778400	-8.269000	28.123958	0.000284	20.841349
2757.783515	-2.969500	2.775600	-8.239500	28.081539	0.000283	20.844167
2758.784211	-3.003100	2.772300	-8.324100	28.059426	0.000282	20.829494
2759.782308	-2.932700	2.771300	-8.126500	28.111512	0.000283	20.828821
2760.786612	-3.018400	2.765900	-8.348300	28.168747	0.000285	20.828593
2761.782636	-3.015600	2.764200	-8.334800	28.239245	0.000285	20.831764
2762.804833	-2.979900	2.761000	-8.226500	28.269929	0.000282	20.822828
2763.798577	-3.037100	2.756700	-8.370800	28.337814	0.000285	20.840918
2764.780553	-2.991500	2.755200	-8.240600	28.381904	0.000284	20.834579
2765.780502	-2.957200	2.753700	-8.142200	28.431246	0.000283	20.834004
2766.785427	-3.004900	2.748800	-8.259400	28.465145	0.000283	20.824045
2767.793447	-3.009200	2.746000	-8.262000	28.477930	0.000284	20.846876
2768.784544	-2.987000	2.742300	-8.190000	28.490122	0.000282	20.843981
2769.783854	-2.984100	2.739500	-8.174000	28.535718	0.000283	20.836794
2770.782263	-3.016200	2.736100	-8.251400	28.506898	0.000280	20.823892
2771.785895	-2.989400	2.732200	-8.167000	28.518544	0.000282	20.825189
2772.799438	-2.997300	2.729400	-8.179600	28.460803	0.000284	20.838638
2773.804545	-3.005400	2.726600	-8.193200	28.415052	0.000285	20.831448
2774.808894	-2.992200	2.723300	-8.146900	28.385115	0.000284	20.843502
2775.810193	-3.023500	2.717600	-8.215300	28.403950	0.000283	20.829278
2776.789777	-2.999700	2.717600	-8.150800	28.409252	0.000285	20.833194
2777.784515	-3.008200	2.712200	-8.158300	28.439931	0.000284	20.833741
2778.792573	-3.007400	2.708600	-8.145000	28.485900	0.000284	20.820763
2779.789446	-2.985100	2.704900	-8.074000	28.509145	0.000284	20.826155
2780.786714	-3.009200	2.701500	-8.128300	28.551913	0.000283	20.811378
2781.787968	-2.998500	2.697000	-8.086100	28.598968	0.000286	20.803293
2782.809278	-2.999100	2.694800	-8.080800	28.568192	0.000284	20.810704
2783.786101	-3.017900	2.689600	-8.116000	28.544701	0.000284	20.828297
2784.791978	-3.008100	2.686900	-8.081100	28.495337	0.000285	20.809878
2785.791067	-3.010700	2.682500	-8.075000	28.491572	0.000285	20.838803
2786.788217	-2.989100	2.679200	-8.006800	28.520687	0.000284	20.833036
2787.792684	-3.006200	2.675400	-8.041600	28.543984	0.000284	20.828997
2788.788548	-3.014600	2.671200	-8.051500	28.594011	0.000286	20.808732
2789.817553	-2.988000	2.668300	-7.971100	28.623299	0.000286	20.821634
2790.792003	-2.996400	2.663300	-7.979500	28.655486	0.000287	20.840301
2791.815527	-2.986200	2.659900	-7.941800	28.672212	0.000287	20.818741
2792.826582	-3.020500	2.653900	-8.015100	28.699292	0.000289	20.811403
2793.807293	-3.006500	2.650100	-7.966700	28.695799	0.000286	20.810257
2794.816583	-2.989000	2.647800	-7.912800	28.725606	0.000286	20.821787
2795.792976	-3.017100	2.640900	-7.966500	28.765171	0.000285	20.812803
2796.796495	-3.012200	2.638500	-7.947000	28.822921	0.000286	20.831147
2797.801826	-2.983400	2.633100	-7.854700	28.853416	0.000285	20.821564
2798.816255	-2.999300	2.628400	-7.882700	28.880989	0.000285	20.811408
2799.829985	-2.991800	2.624600	-7.851500	28.943165	0.000287	20.819045
2800.793842	-2.996400	2.619000	-7.847000	28.921171	0.000287	20.815854
2801.816999	-2.971200	2.614400	-7.766400	28.895408	0.000284	20.823089
2802.793186	-2.986900	2.608900	-7.791900	28.843883	0.000287	20.799158
2803.809289	-2.971700	2.604900	-7.739500	28.801944	0.000287	20.806223
2804.795074	-3.014400	2.598800	-7.833300	28.793867	0.000284	20.819424
2805.795294	-3.020900	2.594300	-7.836000	28.754801	0.000287	20.812314
2806.803414	-2.989600	2.590200	-7.742700	28.728216	0.000287	20.816356
2807.797688	-2.991200	2.584900	-7.731300	28.681936	0.000285	20.812888
2808.796576	-3.018200	2.577600	-7.778400	28.683597	0.000284	20.810769
2809.798120	-2.990800	2.572100	-7.691200	28.727922	0.000283	20.810370
2810.800520	-3.001300	2.568200	-7.706900	28.778463	0.000285	20.805804
2811.798103	-2.998700	2.561300	-7.679700	28.830387	0.000286	20.812116
2812.801380	-3.014600	2.556000	-7.703600	28.851097	0.000288	20.812590
2813.801724	-3.018800	2.549000	-7.694000	28.869456	0.000287	20.814963
2814.804566	-2.967200	2.545100	-7.551400	28.856153	0.000286	20.802036
2815.801651	-3.010000	2.538800	-7.639500	28.841066	0.000285	20.820502
2816.835908	-3.008600	2.531100	-7.614600	28.834995	0.000285	20.786411
2817.820451	-3.005900	2.526600	-7.593900	28.848077	0.000285	20.814762
2818.825436	-2.997800	2.521500	-7.557900	28.855134	0.000286	20.817131
2819.809853	-3.025800	2.514100	-7.605300	28.898981	0.000283	20.811516
2820.806799	-3.000800	2.508100	-7.526000	28.909804	0.000283	20.810091
2821.800990	-3.018500	2.501100	-7.548000	28.946713	0.000284	20.811240
2822.812369	-3.030000	2.494800	-7.558500	28.958130	0.000284	20.806622
