LabVIEW Measurement	
Writer_Version	2
Reader_Version	2
Separator	Tab
Decimal_Separator	.
Multi_Headings	No
X_Columns	One
Time_Pref	Absolute
Operator	admin
Description	Clolumns are: time, Current, Voltage, Power, Battery Temp, and Chamber Temp
Date	2024/08/16
Time	13:06:06.104549407958984375
***End_of_Header***	
	
Channels	6						
Samples	1	1	1	1	1	1	
Date	2024/08/31	2024/08/31	2024/08/31	2024/08/31	2024/08/31	2024/08/31	
Time	20:26:57.8139672279357910156	20:26:57.8231792449951171875	20:26:57.82915496826171875	20:26:57.7935743331909179688	20:26:57.7935743331909179688	20:26:57.7935743331909179688	
X_Dimension	Time	Time	Time	Time	Time	Time	
X0	0.0000000000000000E+0	0.0000000000000000E+0	0.0000000000000000E+0	0.0000000000000000E+0	0.0000000000000000E+0	0.0000000000000000E+0	
Delta_X	1.000000	1.000000	1.000000	1.000000	1.000000	1.000000	
***End_of_Header***							
X_Value	Untitled	Untitled 1	Untitled 2	Untitled 3	Untitled 4	Untitled 5	Comment
0.000000	0.026289	4.106200	0.107890	21.007318	0.000942	20.699607
0.995537	-2.989500	3.940800	-11.779000	21.002953	0.000942	20.723692
1.997706	-3.012200	3.932900	-11.846000	21.016596	0.000939	20.727381
3.015181	-2.973500	3.929600	-11.683000	21.023380	0.000941	20.712354
3.999065	-2.999300	3.924800	-11.770000	21.034203	0.000939	20.726499
4.997386	-3.003900	3.921200	-11.777000	21.016620	0.000939	20.714602
6.006224	-2.994400	3.917900	-11.731000	21.013000	0.000937	20.702446
6.998466	-3.003400	3.915100	-11.756000	21.018861	0.000937	20.703566
7.997732	-3.009000	3.912900	-11.772000	21.031857	0.000937	20.719411
9.000340	-2.989800	3.911200	-11.693000	21.025670	0.000935	20.715593
9.999085	-3.017000	3.909900	-11.795000	21.030509	0.000937	20.731814
10.996771	-3.015900	3.906600	-11.780000	21.025565	0.000934	20.717859
11.996322	-3.014400	3.907600	-11.777000	21.049711	0.000934	20.711189
12.996252	-3.017100	3.905800	-11.783000	21.031303	0.000935	20.712692
13.996390	-2.993600	3.904500	-11.688000	21.056273	0.000933	20.707796
14.997416	-2.996100	3.903700	-11.695000	21.059887	0.000932	20.717101
16.000955	-2.994300	3.901600	-11.682000	21.048306	0.000933	20.723062
16.998127	-3.008200	3.900000	-11.731000	21.066092	0.000930	20.708608
17.999674	-3.005800	3.899800	-11.720000	21.070716	0.000930	20.726037
19.006375	-2.997800	3.899000	-11.688000	21.074699	0.000928	20.734288
20.004279	-2.975400	3.898100	-11.597000	21.071005	0.000930	20.746241
21.001337	-2.994000	3.896900	-11.666000	21.087467	0.000929	20.731886
22.004548	-2.985300	3.895400	-11.628000	21.082400	0.000928	20.730611
23.003945	-2.998500	3.894500	-11.677000	21.100093	0.000925	20.748784
24.001186	-2.999000	3.893200	-11.674000	21.091930	0.000928	20.734928
25.003774	-2.987300	3.895300	-11.636000	21.101337	0.000927	20.735803
26.004527	-3.003700	3.892700	-11.690000	21.116259	0.000925	20.716589
27.000551	-2.997800	3.891900	-11.666000	21.098215	0.000923	20.739319
28.005570	-3.001300	3.891900	-11.680000	21.105627	0.000923	20.727766
29.003364	-3.002500	3.889700	-11.677000	21.126028	0.000926	20.721146
30.002285	-2.997300	3.890000	-11.658000	21.133514	0.000925	20.760878
31.001784	-3.012600	3.888900	-11.714000	21.143173	0.000922	20.732606
32.003046	-3.006100	3.889100	-11.690000	21.137534	0.000924	20.712266
33.002107	-3.006600	3.887900	-11.688000	21.145716	0.000923	20.741788
34.005754	-2.993000	3.888000	-11.636000	21.167495	0.000921	20.743186
35.003438	-3.010900	3.887300	-11.704000	21.164528	0.000922	20.729312
36.006152	-2.994300	3.885700	-11.635000	21.142170	0.000922	20.712161
37.002666	-2.996700	3.885800	-11.644000	21.173036	0.000921	20.735451
38.003767	-3.005300	3.884900	-11.674000	21.190475	0.000921	20.744836
39.004744	-2.986100	3.884700	-11.599000	21.180146	0.000921	20.748728
40.003887	-2.987100	3.885100	-11.603000	21.188179	0.000921	20.740169
41.006540	-2.970000	3.885600	-11.538000	21.205415	0.000919	20.767369
42.007983	-2.998800	3.883900	-11.646000	21.193713	0.000920	20.740014
43.006703	-3.007000	3.882400	-11.673000	21.199530	0.000920	20.742515
44.004550	-2.998800	3.883400	-11.644000	21.228419	0.000920	20.723997
45.005836	-2.984800	3.881300	-11.584000	21.217985	0.000918	20.745803
46.014450	-2.995500	3.882000	-11.627000	21.242835	0.000919	20.744110
47.007500	-2.997800	3.882400	-11.638000	21.257226	0.000918	20.747601
48.010723	-2.994500	3.882200	-11.624000	21.253231	0.000917	20.744553
49.010704	-2.985700	3.881900	-11.590000	21.253231	0.000918	20.744078
50.008595	-2.971700	3.881300	-11.534000	21.274356	0.000917	20.735814
51.012562	-2.987200	3.879800	-11.589000	21.289326	0.000918	20.755058
52.009652	-2.989900	3.879300	-11.596000	21.286156	0.000917	20.741929
53.008142	-3.020000	3.876900	-11.706000	21.265239	0.000918	20.743289
54.009113	-3.007800	3.879000	-11.666000	21.292834	0.000918	20.742920
55.012641	-2.980800	3.877900	-11.559000	21.297493	0.000917	20.749952
56.010231	-3.025000	3.876900	-11.726000	21.298718	0.000916	20.738375
57.012360	-3.026000	3.877000	-11.731000	21.324378	0.000917	20.769264
58.013031	-3.014700	3.876400	-11.684000	21.333506	0.000916	20.739988
59.015479	-2.993300	3.876600	-11.603000	21.326710	0.000918	20.756898
60.013002	-2.998700	3.876000	-11.622000	21.349939	0.000915	20.738886
61.013728	-2.991400	3.876500	-11.596000	21.335592	0.000914	20.762465
62.013091	-3.026800	3.874400	-11.725000	21.335733	0.000915	20.753596
63.015029	-3.023500	3.874800	-11.715000	21.365116	0.000914	20.736526
64.012656	-3.026300	3.876200	-11.729000	21.333665	0.000915	20.738725
65.015133	-3.005300	3.874600	-11.643000	21.364267	0.000915	20.768868
66.013805	-3.026900	3.873100	-11.722000	21.365984	0.000915	20.787182
67.014699	-2.982300	3.874600	-11.554000	21.385340	0.000914	20.763874
68.015597	-2.986500	3.875000	-11.571000	21.395427	0.000914	20.764957
69.015924	-2.985900	3.874300	-11.567000	21.399945	0.000914	20.760468
70.016963	-2.992500	3.874800	-11.593000	21.388596	0.000914	20.781356
71.013978	-3.007500	3.872100	-11.644000	21.426052	0.000914	20.768097
72.015508	-3.000700	3.873200	-11.621000	21.390380	0.000915	20.760381
73.014802	-3.001700	3.873500	-11.626000	21.404941	0.000912	20.763571
74.020094	-3.001900	3.872600	-11.624000	21.416887	0.000915	20.767462
75.016771	-3.000000	3.870900	-11.610000	21.421399	0.000914	20.761544
76.016711	-3.003000	3.873100	-11.630000	21.437585	0.000915	20.758773
77.019324	-3.007100	3.871400	-11.641000	21.436932	0.000913	20.748163
78.017273	-2.995300	3.872800	-11.599000	21.462497	0.000914	20.767105
79.017554	-3.008100	3.870600	-11.642000	21.453389	0.000914	20.746610
80.020839	-2.992400	3.870900	-11.583000	21.451813	0.000916	20.770639
81.016256	-3.004200	3.869200	-11.623000	21.471445	0.000915	20.756143
82.019086	-2.997800	3.870600	-11.602000	21.495902	0.000916	20.751216
83.018112	-2.987500	3.871500	-11.564000	21.493335	0.000915	20.780892
84.021421	-3.009400	3.870400	-11.646000	21.504671	0.000915	20.784173
85.021198	-2.989400	3.871400	-11.571000	21.501883	0.000913	20.779487
86.017682	-2.990000	3.869200	-11.567000	21.518117	0.000916	20.778662
87.020867	-2.999800	3.869100	-11.606000	21.512825	0.000915	20.773366
88.019526	-2.997500	3.870200	-11.600000	21.536037	0.000914	20.792800
89.019178	-2.989500	3.869200	-11.566000	21.534412	0.000915	20.780743
90.020677	-2.987700	3.868000	-11.555000	21.529231	0.000916	20.776980
91.019438	-2.975400	3.869100	-11.511000	21.537526	0.000914	20.764892
92.019177	-3.010400	3.868200	-11.643000	21.548948	0.000914	20.796236
93.021845	-3.017200	3.867500	-11.668000	21.575107	0.000913	20.792541
94.022598	-2.984100	3.868200	-11.542000	21.573735	0.000915	20.780262
95.022497	-3.008900	3.865800	-11.630000	21.580713	0.000914	20.789616
96.020622	-2.994100	3.866700	-11.576000	21.568467	0.000915	20.787319
97.022886	-2.993000	3.867500	-11.574000	21.598417	0.000914	20.792633
98.026317	-2.979900	3.867800	-11.525000	21.621554	0.000914	20.775009
99.023295	-3.005900	3.866700	-11.622000	21.613622	0.000915	20.791253
100.023066	-3.001000	3.866900	-11.603000	21.611277	0.000915	20.801709
101.030521	-3.002100	3.866200	-11.606000	21.617701	0.000916	20.799129
102.022913	-3.013100	3.866000	-11.647000	21.628254	0.000916	20.784559
103.027371	-3.002300	3.865600	-11.605000	21.635029	0.000915	20.800348
104.025286	-2.978000	3.866400	-11.513000	21.643434	0.000913	20.790267
105.024552	-2.974800	3.864400	-11.493000	21.652511	0.000917	20.785125
106.025521	-3.006000	3.864100	-11.615000	21.660811	0.000915	20.806709
107.025680	-2.996200	3.865000	-11.579000	21.659685	0.000915	20.784719
108.025431	-2.998500	3.864100	-11.585000	21.667395	0.000916	20.778210
109.025817	-2.992300	3.865700	-11.566000	21.689509	0.000915	20.782323
110.026057	-3.021400	3.863000	-11.671000	21.707310	0.000917	20.790655
111.025083	-3.009900	3.863700	-11.628000	21.707039	0.000914	20.801764
112.025261	-3.004600	3.864500	-11.610000	21.720741	0.000915	20.818321
113.028798	-2.987400	3.863700	-11.542000	21.715887	0.000915	20.784066
114.025626	-2.994200	3.864300	-11.569000	21.727953	0.000915	20.786184
115.026718	-2.990100	3.863200	-11.550000	21.729122	0.000916	20.802527
116.031940	-2.984900	3.864400	-11.533000	21.750743	0.000916	20.805674
117.031867	-2.990800	3.864200	-11.555000	21.745279	0.000918	20.796412
118.031959	-2.987300	3.863000	-11.538000	21.744258	0.000915	20.786855
119.034144	-2.988400	3.861700	-11.538000	21.770019	0.000917	20.807422
120.031867	-3.019600	3.861200	-11.657000	21.776122	0.000917	20.802625
121.030594	-3.001600	3.862400	-11.591000	21.768370	0.000917	20.807194
122.034348	-3.004300	3.861500	-11.600000	21.771065	0.000915	20.798986
123.032976	-3.011500	3.862200	-11.631000	21.795023	0.000919	20.822964
124.034516	-2.999100	3.862000	-11.581000	21.785653	0.000919	20.821173
125.038902	-2.994100	3.862300	-11.564000	21.780965	0.000918	20.801308
126.038581	-2.986500	3.861200	-11.530000	21.811832	0.000920	20.782889
127.034247	-3.005100	3.860500	-11.600000	21.803803	0.000919	20.809467
128.034406	-3.007500	3.860000	-11.607000	21.803224	0.000918	20.803198
129.035662	-3.010200	3.859600	-11.617000	21.812078	0.000918	20.813956
130.034699	-3.009300	3.859200	-11.612000	21.807340	0.000919	20.793093
131.035803	-2.998300	3.860100	-11.573000	21.831606	0.000918	20.810741
132.034591	-2.993100	3.861100	-11.555000	21.828486	0.000919	20.799559
133.036758	-2.992500	3.860100	-11.550000	21.842101	0.000920	20.795168
134.034655	-3.001400	3.859500	-11.582000	21.842631	0.000922	20.817983
135.037278	-2.997400	3.858500	-11.564000	21.862478	0.000921	20.804184
136.035774	-2.997300	3.859000	-11.566000	21.853951	0.000920	20.800865
137.036942	-3.005400	3.858600	-11.596000	21.845971	0.000921	20.824172
138.041474	-2.999800	3.858100	-11.573000	21.855224	0.000920	20.823476
139.040386	-2.999300	3.857400	-11.568000	21.869639	0.000920	20.819412
140.037138	-3.027800	3.857100	-11.677000	21.874720	0.000921	20.816438
141.040718	-2.991100	3.857500	-11.538000	21.888440	0.000921	20.814997
142.041727	-2.998300	3.858200	-11.567000	21.915416	0.000921	20.835361
143.037737	-3.003300	3.857000	-11.581000	21.912426	0.000922	20.813876
144.037570	-3.001100	3.857300	-11.575000	21.923998	0.000922	20.827356
145.040758	-3.013100	3.857200	-11.621000	21.914100	0.000923	20.823612
146.039153	-3.014300	3.857200	-11.626000	21.926016	0.000923	20.811832
147.036863	-2.992600	3.857600	-11.543000	21.929658	0.000923	20.818323
148.037707	-3.007100	3.856100	-11.594000	21.936984	0.000923	20.818070
149.039106	-2.983900	3.856700	-11.507000	21.957138	0.000924	20.833027
150.039502	-2.980800	3.856900	-11.495000	21.959500	0.000924	20.842978
151.040745	-2.996000	3.856200	-11.552000	21.966864	0.000922	20.854142
152.041870	-3.003000	3.856300	-11.579000	21.973144	0.000925	20.824394
153.039391	-2.996600	3.855500	-11.551000	21.955225	0.000923	20.828268
154.042948	-2.987500	3.854800	-11.515000	21.964815	0.000925	20.821746
155.044844	-3.011600	3.855000	-11.609000	21.964895	0.000924	20.839844
156.043661	-3.009100	3.855200	-11.600000	21.988923	0.000925	20.819327
157.044057	-2.996400	3.854100	-11.548000	21.982944	0.000925	20.836100
158.044677	-2.985600	3.856200	-11.511000	22.011290	0.000923	20.828440
159.047505	-3.007500	3.853300	-11.587000	22.008023	0.000927	20.828489
160.046623	-3.005500	3.853700	-11.581000	22.020787	0.000927	20.838896
161.049852	-2.994300	3.852800	-11.536000	22.026446	0.000927	20.832707
162.049648	-2.998300	3.852900	-11.551000	22.024583	0.000926	20.813299
163.046897	-3.004900	3.854600	-11.580000	22.041757	0.000924	20.843293
164.052447	-3.013100	3.853600	-11.610000	22.033533	0.000926	20.844069
165.046257	-3.012300	3.851700	-11.601000	22.042286	0.000928	20.836710
166.046296	-2.991000	3.853900	-11.525000	22.077760	0.000928	20.846144
167.049626	-2.983400	3.852600	-11.493000	22.060235	0.000928	20.849463
168.046409	-3.016500	3.851300	-11.616000	22.072827	0.000930	20.854955
169.046038	-3.002300	3.851700	-11.563000	22.086309	0.000928	20.842375
170.047791	-3.026300	3.851200	-11.654000	22.090203	0.000927	20.844851
171.051835	-3.010000	3.851700	-11.592000	22.086821	0.000930	20.849999
172.049863	-2.996600	3.850400	-11.537000	22.111203	0.000930	20.833158
173.047554	-2.995800	3.851100	-11.536000	22.121499	0.000930	20.836354
174.050531	-3.011500	3.850000	-11.593000	22.114094	0.000931	20.830837
175.048840	-2.981400	3.851600	-11.482000	22.128154	0.000930	20.819310
176.048369	-2.998100	3.850200	-11.542000	22.094952	0.000930	20.832536
177.052730	-3.015400	3.849400	-11.607000	22.126814	0.000932	20.862062
178.050855	-3.015700	3.849700	-11.609000	22.135640	0.000932	20.859045
179.051471	-3.013800	3.849100	-11.599000	22.139152	0.000932	20.859716
180.051092	-2.983800	3.849300	-11.484000	22.173103	0.000933	20.860991
181.051466	-2.997500	3.849400	-11.538000	22.164389	0.000933	20.826189
182.052774	-2.998600	3.849500	-11.541000	22.157408	0.000935	20.862346
183.053414	-2.987800	3.848800	-11.499000	22.204649	0.000933	20.851799
184.052394	-2.983600	3.850000	-11.486000	22.189765	0.000934	20.843061
185.053901	-2.999400	3.847400	-11.539000	22.203801	0.000933	20.845259
186.054061	-3.010200	3.849300	-11.586000	22.203376	0.000934	20.870911
187.053810	-2.993100	3.849000	-11.520000	22.235056	0.000935	20.848104
188.054334	-2.985400	3.848700	-11.488000	22.230923	0.000935	20.874785
189.053953	-3.010000	3.848200	-11.582000	22.244871	0.000936	20.860302
190.062780	-2.993500	3.849300	-11.521000	22.250592	0.000936	20.860813
191.054283	-3.011500	3.848200	-11.587000	22.230025	0.000938	20.866300
192.054804	-3.020200	3.846900	-11.618000	22.244632	0.000937	20.844416
193.056245	-3.007800	3.846700	-11.569000	22.254282	0.000936	20.869723
194.053344	-3.021500	3.846100	-11.619000	22.245456	0.000937	20.869422
195.053332	-3.006700	3.846700	-11.565000	22.246729	0.000938	20.861688
196.062850	-3.006100	3.846800	-11.563000	22.245961	0.000936	20.864237
197.054390	-2.996700	3.847700	-11.530000	22.251539	0.000937	20.857969
198.054913	-2.995600	3.846200	-11.521000	22.272560	0.000939	20.861473
199.058214	-3.009800	3.846400	-11.576000	22.249743	0.000940	20.845266
200.058887	-2.987600	3.846500	-11.491000	22.259140	0.000938	20.854674
201.056026	-3.004000	3.845900	-11.551000	22.260290	0.000942	20.845869
202.059058	-3.012100	3.845300	-11.582000	22.257873	0.000941	20.873320
203.061577	-2.972400	3.845500	-11.428000	22.278709	0.000942	20.870475
204.058327	-2.992500	3.843800	-11.501000	22.275173	0.000942	20.855081
205.060667	-2.988600	3.844600	-11.489000	22.277843	0.000943	20.853487
206.061128	-2.994000	3.845000	-11.510000	22.274072	0.000943	20.868203
207.059778	-3.001700	3.845000	-11.540000	22.283764	0.000943	20.850881
208.060028	-3.004000	3.843600	-11.544000	22.306347	0.000945	20.854053
209.060826	-3.011700	3.842500	-11.572000	22.325152	0.000943	20.845856
210.060890	-3.029600	3.844100	-11.644000	22.328928	0.000945	20.845845
211.068990	-2.978300	3.844300	-11.449000	22.311598	0.000944	20.839871
212.063150	-3.015200	3.842500	-11.585000	22.345895	0.000946	20.867574
213.067719	-3.029000	3.842800	-11.640000	22.350027	0.000945	20.858436
214.061452	-3.007500	3.843200	-11.556000	22.374133	0.000947	20.867876
215.062456	-2.988600	3.842500	-11.482000	22.385940	0.000947	20.836552
216.062576	-2.980400	3.843200	-11.454000	22.374133	0.000946	20.830894
217.063149	-2.997600	3.843300	-11.520000	22.373579	0.000948	20.839822
218.066035	-3.002100	3.843400	-11.537000	22.381359	0.000948	20.822956
219.066438	-3.013600	3.841100	-11.574000	22.397802	0.000948	20.847008
220.064502	-3.002200	3.841800	-11.531000	22.398681	0.000947	20.828923
221.065142	-3.002000	3.840400	-11.528000	22.377620	0.000950	20.820635
222.067813	-3.020200	3.841700	-11.600000	22.389131	0.000950	20.840697
223.065470	-3.008200	3.842600	-11.558000	22.385466	0.000950	20.833708
224.066230	-2.980000	3.841800	-11.447000	22.380215	0.000950	20.840777
225.069295	-3.011700	3.840300	-11.564000	22.397415	0.000951	20.818646
226.070313	-3.019500	3.841000	-11.596000	22.386592	0.000952	20.826300
227.067097	-2.995400	3.841900	-11.507000	22.408901	0.000952	20.813080
228.067663	-2.993200	3.841100	-11.496000	22.414762	0.000953	20.826060
229.074946	-3.030100	3.838700	-11.630000	22.413096	0.000953	20.822495
230.070585	-2.978300	3.841200	-11.438000	22.409879	0.000952	20.851990
231.068273	-3.005300	3.840400	-11.538000	22.429440	0.000953	20.811362
232.069540	-2.991200	3.839600	-11.483000	22.425812	0.000953	20.809626
233.071358	-2.984700	3.839600	-11.459000	22.442704	0.000956	20.834127
234.070206	-3.014800	3.838500	-11.571000	22.437576	0.000955	20.842268
235.070236	-3.006600	3.838500	-11.540000	22.449517	0.000956	20.828623
236.070983	-2.990900	3.839400	-11.482000	22.468733	0.000953	20.826530
237.070123	-2.995000	3.838100	-11.494000	22.432724	0.000955	20.807539
238.074061	-2.991600	3.837900	-11.481000	22.471026	0.000956	20.810335
239.071083	-2.996300	3.838900	-11.502000	22.470959	0.000957	20.814061
240.077665	-3.015800	3.836600	-11.568000	22.495130	0.000959	20.844430
241.075749	-2.989900	3.837900	-11.473000	22.489578	0.000958	20.812792
242.074204	-3.007700	3.837700	-11.542000	22.520721	0.000959	20.809843
243.071946	-3.004800	3.837500	-11.530000	22.515015	0.000960	20.807447
244.072966	-2.996200	3.838500	-11.500000	22.522049	0.000960	20.806906
245.073778	-3.005800	3.836200	-11.529000	22.544325	0.000962	20.821629
246.072123	-2.995400	3.837000	-11.493000	22.537623	0.000961	20.819659
247.072390	-2.994600	3.838000	-11.492000	22.562844	0.000962	20.807460
248.073968	-2.991500	3.836800	-11.477000	22.552103	0.000964	20.818988
249.071541	-3.002400	3.835600	-11.515000	22.534765	0.000961	20.800675
250.072607	-2.980500	3.836600	-11.434000	22.560256	0.000964	20.799178
251.076190	-3.012600	3.833100	-11.546000	22.563816	0.000963	20.802743
252.072830	-2.973200	3.836300	-11.405000	22.573733	0.000963	20.804141
253.073546	-2.986000	3.834400	-11.448000	22.561246	0.000964	20.796850
254.074879	-2.995300	3.835400	-11.486000	22.575375	0.000963	20.809104
255.077029	-2.992500	3.834700	-11.473000	22.596986	0.000965	20.817473
256.072276	-2.993300	3.834900	-11.478000	22.610561	0.000964	20.800724
257.075112	-2.988900	3.833600	-11.458000	22.593241	0.000964	20.803291
258.073435	-3.005500	3.833500	-11.521000	22.587339	0.000966	20.789319
259.073121	-3.035700	3.832200	-11.633000	22.576549	0.000968	20.788470
260.073645	-2.999900	3.834500	-11.503000	22.591225	0.000966	20.811229
261.074095	-3.015900	3.831900	-11.556000	22.590678	0.000969	20.789344
262.073981	-3.017500	3.831900	-11.561000	22.572695	0.000969	20.796463
263.075427	-3.008400	3.833000	-11.530000	22.592154	0.000970	20.796038
264.075114	-2.997100	3.832700	-11.486000	22.591674	0.000969	20.781333
265.073124	-3.000300	3.832100	-11.496000	22.598824	0.000969	20.797029
266.074927	-2.998500	3.831200	-11.487000	22.606521	0.000971	20.789091
267.077734	-2.992400	3.832300	-11.467000	22.601166	0.000970	20.789892
268.075972	-2.991000	3.831200	-11.458000	22.625292	0.000972	20.780865
269.076825	-3.000100	3.831900	-11.496000	22.637292	0.000973	20.786246
270.079332	-3.010200	3.831300	-11.532000	22.629521	0.000972	20.805016
271.078340	-3.004100	3.830200	-11.505000	22.633978	0.000972	20.782453
272.077470	-3.020300	3.830000	-11.567000	22.670601	0.000973	20.780729
273.080311	-3.003800	3.830200	-11.503000	22.641725	0.000974	20.791634
274.080327	-2.992100	3.829900	-11.456000	22.632650	0.000973	20.803408
275.080553	-2.998400	3.830600	-11.484000	22.655428	0.000974	20.799196
276.077368	-2.980300	3.831200	-11.417000	22.662554	0.000973	20.791160
277.079073	-2.976700	3.828900	-11.396000	22.673319	0.000975	20.788666
278.077869	-3.001600	3.828800	-11.491000	22.651912	0.000976	20.790932
279.078510	-2.977600	3.829300	-11.401000	22.679792	0.000975	20.780452
280.081883	-3.009300	3.827400	-11.517000	22.700546	0.000977	20.796499
281.080028	-2.967000	3.828000	-11.357000	22.703712	0.000977	20.794455
282.079151	-2.979500	3.827700	-11.403000	22.707419	0.000979	20.771141
283.081328	-3.002300	3.827000	-11.487000	22.729649	0.000978	20.798150
284.082104	-2.997900	3.827600	-11.474000	22.723594	0.000980	20.784972
285.081149	-3.000900	3.828000	-11.486000	22.724337	0.000979	20.802786
286.082375	-3.000400	3.827700	-11.483000	22.741882	0.000980	20.786222
287.082967	-3.001900	3.826500	-11.486000	22.756181	0.000982	20.792958
288.081332	-2.977100	3.828000	-11.395000	22.725266	0.000982	20.796604
289.082187	-2.983100	3.826700	-11.414000	22.740112	0.000982	20.788716
290.081426	-3.006400	3.826500	-11.502000	22.762685	0.000980	20.779559
291.080763	-3.008000	3.825800	-11.506000	22.758351	0.000983	20.775218
292.085582	-3.000100	3.826500	-11.478000	22.781544	0.000982	20.793236
293.083313	-3.043300	3.824000	-11.635000	22.776295	0.000984	20.805521
294.082088	-3.009200	3.824200	-11.506000	22.765826	0.000984	20.779387
295.080666	-3.007900	3.824700	-11.503000	22.808653	0.000984	20.778192
296.082841	-3.024100	3.825000	-11.566000	22.807454	0.000985	20.791216
297.080719	-3.005400	3.825100	-11.495000	22.816054	0.000987	20.785132
298.081570	-2.998300	3.825300	-11.468000	22.803699	0.000986	20.773229
299.084455	-3.003000	3.822900	-11.479000	22.819515	0.000986	20.764891
300.083458	-2.993600	3.824000	-11.447000	22.801283	0.000986	20.773180
301.085542	-3.012600	3.823400	-11.517000	22.784864	0.000985	20.785656
302.089298	-2.982700	3.824000	-11.405000	22.796298	0.000987	20.784307
303.086691	-2.996400	3.822600	-11.452000	22.787680	0.000987	20.778993
304.090306	-3.013100	3.822000	-11.513000	22.783924	0.000986	20.774757
305.091127	-2.991800	3.823400	-11.438000	22.799285	0.000989	20.780187
306.087393	-3.016300	3.822000	-11.527000	22.810553	0.000990	20.754965
307.091596	-2.974500	3.823400	-11.372000	22.808309	0.000989	20.763623
308.094087	-3.003900	3.821700	-11.478000	22.829412	0.000991	20.770538
309.089829	-3.020200	3.821100	-11.539000	22.828097	0.000990	20.791506
310.087602	-2.996600	3.821700	-11.451000	22.845830	0.000991	20.768020
311.095294	-2.995500	3.821600	-11.446000	22.838362	0.000991	20.785195
312.089283	-3.006000	3.820600	-11.484000	22.822343	0.000990	20.775785
313.092263	-2.990800	3.821800	-11.429000	22.830021	0.000991	20.779210
314.092587	-3.000200	3.820600	-11.462000	22.855229	0.000995	20.772220
315.093078	-3.008800	3.819500	-11.492000	22.843575	0.000992	20.756751
316.090660	-3.017500	3.819800	-11.524000	22.841952	0.000992	20.772670
317.091659	-3.006300	3.819500	-11.481000	22.870830	0.000993	20.770780
318.090300	-3.023400	3.819400	-11.547000	22.861518	0.000993	20.767141
319.091440	-3.000400	3.820600	-11.462000	22.834263	0.000992	20.778717
320.090246	-3.006200	3.819100	-11.480000	22.825547	0.000993	20.755760
321.091035	-2.999200	3.818600	-11.451000	22.835413	0.000996	20.771808
322.090370	-2.988200	3.818900	-11.411000	22.839347	0.000997	20.759628
323.090998	-2.994100	3.820000	-11.437000	22.851610	0.000996	20.763853
324.091698	-2.992200	3.819700	-11.428000	22.850467	0.000997	20.759388
325.090283	-3.002100	3.817600	-11.459000	22.835942	0.000997	20.768545
326.090830	-2.991500	3.817900	-11.419000	22.867936	0.000998	20.761716
327.093772	-2.993000	3.819500	-11.432000	22.868974	0.000998	20.767024
328.092037	-2.999100	3.818300	-11.451000	22.856349	0.000999	20.759117
329.089517	-2.983000	3.818000	-11.388000	22.869553	0.001000	20.750059
330.093487	-3.005300	3.816800	-11.468000	22.884256	0.001001	20.777592
331.091892	-2.993500	3.816200	-11.423000	22.890728	0.001000	20.772696
332.093571	-2.992100	3.816600	-11.419000	22.911177	0.001000	20.751457
333.092846	-3.008200	3.816700	-11.481000	22.897224	0.000999	20.759764
334.095797	-3.008900	3.817500	-11.485000	22.857303	0.001001	20.754382
335.093314	-2.983800	3.817900	-11.391000	22.894773	0.001001	20.752092
336.094059	-2.991600	3.815900	-11.415000	22.885848	0.001001	20.764487
337.097717	-3.002100	3.814500	-11.450000	22.897532	0.001001	20.766237
338.093825	-3.016800	3.814600	-11.507000	22.922321	0.001003	20.747923
339.093125	-2.993100	3.816700	-11.423000	22.931534	0.001003	20.761421
340.097385	-2.995600	3.815000	-11.426000	22.945161	0.001004	20.755633
341.096995	-2.984300	3.815400	-11.386000	22.950969	0.001002	20.756236
342.101583	-3.035500	3.812500	-11.572000	22.975677	0.001004	20.747800
343.097633	-3.010100	3.813100	-11.477000	23.009775	0.001004	20.758256
344.096687	-3.005700	3.813800	-11.461000	22.981282	0.001005	20.740139
345.094839	-2.994800	3.814700	-11.423000	22.985990	0.001006	20.759081
346.095255	-3.028900	3.812700	-11.547000	23.000464	0.001008	20.751772
347.095620	-3.000200	3.813700	-11.440000	22.985124	0.001007	20.769119
348.095308	-3.006000	3.812100	-11.457000	23.005049	0.001007	20.759685
349.111071	-3.008700	3.813100	-11.470000	23.017580	0.001008	20.746636
350.099737	-3.006600	3.812000	-11.460000	23.027070	0.001009	20.737652
351.095665	-3.011700	3.811600	-11.478000	23.029134	0.001010	20.740669
352.096592	-3.009700	3.811800	-11.471000	23.040818	0.001010	20.747634
353.097607	-3.007200	3.812000	-11.461000	23.049594	0.001008	20.749316
354.098190	-3.002900	3.812000	-11.445000	23.033172	0.001010	20.749457
355.098105	-2.995300	3.811600	-11.416000	23.051641	0.001010	20.755160
356.097574	-2.999800	3.810700	-11.431000	23.037112	0.001010	20.735860
357.097762	-3.007100	3.811100	-11.460000	23.049121	0.001010	20.744100
358.101795	-2.996400	3.810600	-11.417000	23.048844	0.001011	20.729597
359.098695	-2.993700	3.811200	-11.408000	23.046152	0.001010	20.738280
360.098490	-3.012900	3.808100	-11.472000	23.069463	0.001010	20.730342
361.101735	-3.009100	3.809700	-11.462000	23.061572	0.001013	20.749463
362.099618	-3.015000	3.809300	-11.483000	23.074023	0.001013	20.739653
363.100396	-3.022600	3.808700	-11.510000	23.082393	0.001013	20.759421
364.102262	-3.002500	3.809000	-11.434000	23.066771	0.001014	20.751354
365.099023	-2.988500	3.808900	-11.382000	23.071681	0.001014	20.741575
366.101983	-3.008300	3.807300	-11.453000	23.040621	0.001014	20.732738
367.100121	-3.005600	3.807300	-11.442000	23.037449	0.001013	20.721973
368.101734	-2.969800	3.808000	-11.308000	23.024101	0.001015	20.742738
369.101094	-2.994300	3.807800	-11.399000	23.030228	0.001015	20.755516
370.100421	-3.016900	3.805800	-11.481000	23.055659	0.001016	20.738797
371.101295	-3.003800	3.806000	-11.432000	23.060693	0.001014	20.741944
372.101018	-2.997600	3.807100	-11.411000	23.086866	0.001016	20.712692
373.101487	-3.029300	3.805000	-11.526000	23.105714	0.001017	20.742960
374.101205	-3.002000	3.806500	-11.426000	23.133405	0.001016	20.740835
375.101924	-3.008000	3.805900	-11.447000	23.121803	0.001018	20.734898
376.101063	-3.019500	3.805100	-11.488000	23.143888	0.001017	20.719096
377.106721	-3.021900	3.804600	-11.496000	23.150039	0.001019	20.708664
378.101171	-2.998500	3.804400	-11.407000	23.151287	0.001018	20.734572
379.105468	-3.005600	3.804000	-11.432000	23.139076	0.001017	20.719964
380.104482	-3.007900	3.804000	-11.441000	23.140397	0.001018	20.710856
381.104372	-3.007400	3.803400	-11.437000	23.126749	0.001018	20.718517
382.108152	-3.012200	3.801900	-11.451000	23.152122	0.001019	20.727822
383.106863	-3.006700	3.803300	-11.434000	23.195524	0.001019	20.739073
384.105842	-2.992500	3.804100	-11.382000	23.154359	0.001018	20.739547
385.104902	-3.027000	3.801900	-11.506000	23.185809	0.001021	20.715111
386.113183	-3.014200	3.801400	-11.457000	23.143819	0.001024	20.731356
387.107576	-3.010400	3.801500	-11.443000	23.139960	0.001022	20.729385
388.104321	-2.989300	3.802300	-11.363000	23.148029	0.001022	20.736523
389.108437	-2.994400	3.802800	-11.386000	23.141994	0.001022	20.703921
390.108352	-3.019000	3.800700	-11.473000	23.141742	0.001023	20.714574
391.105899	-3.010900	3.802900	-11.449000	23.144654	0.001024	20.721287
392.112754	-3.007100	3.801600	-11.430000	23.146449	0.001024	20.723559
393.106610	-3.001800	3.800600	-11.407000	23.144027	0.001024	20.706433
394.108675	-2.999500	3.801600	-11.402000	23.129807	0.001023	20.728221
395.106991	-3.008500	3.800500	-11.432000	23.156957	0.001024	20.720812
396.108464	-2.995600	3.801300	-11.386000	23.137648	0.001024	20.725646
397.109882	-3.006600	3.799600	-11.423000	23.134816	0.001023	20.734662
398.107521	-2.996200	3.799000	-11.382000	23.138195	0.001026	20.714814
399.109138	-3.014700	3.798900	-11.451000	23.151616	0.001024	20.698389
400.109044	-3.012200	3.799100	-11.442000	23.179256	0.001026	20.727986
401.111222	-2.985900	3.799100	-11.344000	23.191884	0.001027	20.721674
402.108630	-3.005100	3.799100	-11.415000	23.184780	0.001025	20.721193
403.110770	-3.010000	3.798100	-11.431000	23.207338	0.001027	20.712504
404.110884	-2.998600	3.798900	-11.390000	23.192695	0.001027	20.707312
405.111888	-3.008600	3.796700	-11.422000	23.206896	0.001027	20.720122
406.112394	-3.005200	3.798200	-11.413000	23.219289	0.001028	20.711678
407.111556	-3.011800	3.797300	-11.436000	23.245883	0.001027	20.730744
408.112300	-2.984700	3.797100	-11.332000	23.260501	0.001028	20.715047
409.110070	-3.003600	3.796900	-11.403000	23.250590	0.001029	20.709855
410.117246	-2.982800	3.797700	-11.326000	23.280145	0.001028	20.700119
411.111967	-2.989300	3.795600	-11.345000	23.296028	0.001030	20.701338
412.117835	-3.005200	3.796600	-11.408000	23.292114	0.001029	20.710692
413.111778	-3.003500	3.794600	-11.395000	23.276581	0.001029	20.711247
414.113345	-2.990800	3.795400	-11.349000	23.257207	0.001030	20.701788
415.115324	-3.005500	3.794000	-11.401000	23.272366	0.001032	20.711764
416.112262	-3.012800	3.795400	-11.434000	23.281134	0.001030	20.705852
417.113049	-3.001000	3.794200	-11.385000	23.281404	0.001031	20.723193
418.120162	-3.009900	3.793900	-11.419000	23.285164	0.001031	20.709417
419.113774	-3.011900	3.793800	-11.426000	23.291161	0.001032	20.704995
420.114048	-3.011500	3.793600	-11.422000	23.304243	0.001033	20.701036
421.115856	-3.005200	3.793200	-11.398000	23.287751	0.001031	20.710587
422.119881	-3.000700	3.793200	-11.381000	23.326343	0.001032	20.708961
423.116934	-3.012800	3.792500	-11.425000	23.305084	0.001035	20.706621
424.114781	-3.003900	3.791900	-11.390000	23.297336	0.001033	20.697433
425.116797	-2.985900	3.792800	-11.323000	23.308365	0.001034	20.703745
426.116343	-3.015700	3.792500	-11.435000	23.302368	0.001034	20.708167
427.117412	-3.012800	3.791300	-11.421000	23.325950	0.001035	20.707619
428.115577	-3.000700	3.792100	-11.378000	23.341236	0.001035	20.682634
429.118019	-2.994000	3.790700	-11.349000	23.322239	0.001035	20.705796
430.115854	-3.004100	3.790500	-11.386000	23.331190	0.001035	20.726623
431.118270	-2.994800	3.791300	-11.353000	23.288838	0.001032	20.721635
432.117918	-2.991200	3.791800	-11.341000	23.316678	0.001036	20.710180
433.118559	-3.008700	3.789400	-11.399000	23.346378	0.001034	20.707704
434.119258	-2.984400	3.789800	-11.310000	23.330766	0.001036	20.708653
435.118766	-2.983300	3.791200	-11.309000	23.337936	0.001035	20.703036
436.118242	-2.983200	3.790400	-11.306000	23.338115	0.001036	20.709854
437.120367	-3.008500	3.789000	-11.397000	23.330170	0.001037	20.733187
438.123355	-3.002500	3.787800	-11.371000	23.319479	0.001036	20.731955
439.124804	-2.990600	3.788200	-11.328000	23.314551	0.001037	20.724171
440.121850	-2.984500	3.787600	-11.303000	23.295431	0.001038	20.730139
441.128114	-3.001000	3.787300	-11.365000	23.297937	0.001037	20.680964
442.122361	-3.002200	3.786300	-11.365000	23.281655	0.001038	20.692622
443.125220	-2.998700	3.788400	-11.359000	23.267485	0.001038	20.702131
444.122034	-2.999000	3.786700	-11.355000	23.284087	0.001036	20.717347
445.124030	-2.997000	3.785800	-11.344000	23.279878	0.001040	20.698429
446.123676	-2.974000	3.786900	-11.261000	23.281746	0.001038	20.699827
447.123899	-2.999200	3.786400	-11.355000	23.280050	0.001041	20.695756
448.125811	-2.998100	3.786700	-11.352000	23.283135	0.001038	20.712599
449.126349	-2.985700	3.786100	-11.303000	23.294114	0.001038	20.715068
450.126071	-2.991700	3.784900	-11.322000	23.323693	0.001040	20.711521
451.127391	-2.986400	3.785300	-11.303000	23.329843	0.001041	20.692079
452.125513	-2.989700	3.785900	-11.318000	23.365994	0.001042	20.711718
453.124078	-2.992300	3.784500	-11.323000	23.378497	0.001042	20.717138
454.135335	-2.995700	3.783000	-11.330000	23.378294	0.001040	20.706502
455.126376	-3.019600	3.783700	-11.424000	23.381446	0.001041	20.704444
456.125116	-3.003400	3.784800	-11.366000	23.392437	0.001040	20.723998
457.126537	-3.005600	3.783500	-11.370000	23.419679	0.001043	20.709101
458.124967	-3.014300	3.782400	-11.400000	23.441857	0.001042	20.692923
459.126133	-2.990800	3.781400	-11.309000	23.440014	0.001043	20.700559
460.125368	-3.005100	3.782800	-11.366000	23.460944	0.001045	20.687398
461.125449	-3.001100	3.782300	-11.350000	23.451686	0.001043	20.709889
462.125590	-3.006000	3.780900	-11.365000	23.466743	0.001041	20.700324
463.126786	-2.989200	3.780800	-11.300000	23.457958	0.001041	20.718073
464.129215	-2.984900	3.780600	-11.284000	23.453099	0.001042	20.702769
465.127589	-2.996400	3.780100	-11.325000	23.457510	0.001046	20.703398
466.127333	-2.996700	3.780000	-11.327000	23.445954	0.001043	20.704143
467.130291	-2.988200	3.780700	-11.297000	23.470300	0.001043	20.705787
468.126851	-3.017500	3.779500	-11.404000	23.465398	0.001044	20.705140
469.126893	-3.007200	3.779200	-11.363000	23.473507	0.001044	20.727969
470.128882	-3.008300	3.778800	-11.367000	23.482543	0.001043	20.699567
471.128683	-3.008800	3.778400	-11.368000	23.479281	0.001045	20.727119
472.127326	-3.026600	3.777700	-11.433000	23.473507	0.001044	20.724649
473.130150	-3.022200	3.777700	-11.417000	23.455034	0.001043	20.712296
474.131358	-3.003700	3.778600	-11.349000	23.471135	0.001045	20.720849
475.128515	-3.019100	3.778700	-11.407000	23.488041	0.001045	20.726891
476.128533	-3.009200	3.777300	-11.364000	23.491678	0.001046	20.713940
477.133083	-2.989700	3.778600	-11.296000	23.494338	0.001043	20.721822
478.128243	-2.999900	3.777800	-11.332000	23.523868	0.001047	20.715861
479.130676	-2.987900	3.776400	-11.282000	23.527180	0.001044	20.722974
480.131033	-2.985100	3.776200	-11.271000	23.549012	0.001046	20.702658
481.127502	-2.993100	3.775800	-11.299000	23.551272	0.001047	20.740488
482.129796	-2.984000	3.775200	-11.264000	23.569572	0.001047	20.703354
483.129148	-3.009000	3.775500	-11.358000	23.577588	0.001046	20.735099
484.127223	-3.003000	3.775500	-11.337000	23.580370	0.001046	20.720344
485.128738	-3.008000	3.774700	-11.354000	23.584431	0.001047	20.731053
486.131376	-3.003000	3.774900	-11.335000	23.575469	0.001047	20.714956
487.129567	-2.997500	3.775400	-11.314000	23.609843	0.001048	20.729501
488.128244	-3.001300	3.775300	-11.330000	23.607705	0.001047	20.734471
489.132120	-3.009200	3.772900	-11.352000	23.629217	0.001049	20.726638
490.130317	-3.007200	3.773500	-11.346000	23.644720	0.001046	20.732697
491.130038	-2.968900	3.775000	-11.205000	23.648559	0.001046	20.728960
492.130526	-3.002600	3.773400	-11.329000	23.657416	0.001048	20.722192
493.131803	-3.003300	3.772300	-11.329000	23.652466	0.001048	20.737618
494.131145	-3.007300	3.771600	-11.342000	23.658583	0.001047	20.730474
495.132557	-2.991400	3.773500	-11.288000	23.660782	0.001047	20.738844
496.131241	-2.989300	3.772100	-11.275000	23.656028	0.001049	20.732655
497.131123	-2.989700	3.771800	-11.275000	23.658589	0.001048	20.724316
498.133377	-2.990400	3.772300	-11.280000	23.665733	0.001049	20.719624
499.132835	-3.008600	3.771600	-11.346000	23.681789	0.001048	20.742360
500.133957	-3.006800	3.770500	-11.335000	23.706774	0.001050	20.742279
501.133324	-3.002300	3.770700	-11.319000	23.684725	0.001050	20.745777
502.136553	-2.996800	3.770600	-11.299000	23.675591	0.001047	20.744681
503.134768	-2.997400	3.771000	-11.303000	23.642183	0.001048	20.736793
504.136790	-3.009500	3.768800	-11.340000	23.677108	0.001051	20.730554
505.136375	-2.988600	3.770000	-11.266000	23.663743	0.001049	20.753192
506.134151	-2.993500	3.770400	-11.286000	23.686469	0.001049	20.733775
507.136715	-2.987600	3.769800	-11.261000	23.697396	0.001051	20.729557
508.136608	-2.989300	3.769700	-11.267000	23.677980	0.001049	20.731903
509.136401	-2.994200	3.767500	-11.280000	23.714391	0.001051	20.741380
510.138973	-3.019900	3.768800	-11.380000	23.702819	0.001050	20.725985
511.138341	-3.005000	3.768200	-11.322000	23.730919	0.001050	20.734717
512.141909	-3.020700	3.766400	-11.376000	23.719617	0.001051	20.734292
513.140480	-2.984300	3.768200	-11.244000	23.723524	0.001051	20.735364
514.138927	-3.010800	3.766400	-11.339000	23.666980	0.001052	20.750747
515.144718	-3.004800	3.766900	-11.318000	23.682532	0.001050	20.751166
516.143126	-3.009200	3.765200	-11.329000	23.695203	0.001050	20.733048
517.144981	-2.996900	3.765500	-11.283000	23.683281	0.001050	20.741959
518.142574	-3.019900	3.764100	-11.366000	23.735255	0.001051	20.744755
519.145989	-2.991500	3.765400	-11.264000	23.740328	0.001052	20.737987
520.145583	-3.006400	3.764100	-11.315000	23.776829	0.001051	20.740445
521.142118	-3.004900	3.765100	-11.313000	23.776749	0.001054	20.762651
522.146823	-3.005600	3.764100	-11.312000	23.803624	0.001053	20.735068
523.153846	-2.989400	3.764800	-11.253000	23.809151	0.001051	20.751991
524.141883	-2.986300	3.763800	-11.238000	23.768758	0.001052	20.752268
525.146897	-3.003600	3.763000	-11.302000	23.787878	0.001053	20.744885
526.148913	-3.019000	3.762600	-11.358000	23.780164	0.001051	20.757066
527.143782	-3.002100	3.763500	-11.297000	23.786662	0.001052	20.763107
528.146897	-2.994300	3.762100	-11.264000	23.758907	0.001053	20.758513
529.143889	-3.002500	3.762000	-11.295000	23.750524	0.001052	20.747736
530.143764	-3.008200	3.762800	-11.318000	23.738056	0.001051	20.755151
531.145737	-3.007100	3.761500	-11.310000	23.740446	0.001051	20.770349
532.156423	-2.996600	3.761800	-11.272000	23.761580	0.001053	20.768304
533.147635	-3.015600	3.760700	-11.339000	23.757839	0.001051	20.762657
534.145714	-2.993500	3.760900	-11.258000	23.754805	0.001051	20.758667
535.145993	-3.002200	3.761000	-11.290000	23.761039	0.001051	20.745477
536.145449	-3.017700	3.759200	-11.342000	23.758749	0.001052	20.774949
537.147336	-2.990900	3.759600	-11.242000	23.771566	0.001052	20.755558
538.147826	-2.998400	3.758700	-11.269000	23.789193	0.001051	20.751420
539.144853	-2.975600	3.758900	-11.183000	23.770971	0.001054	20.757805
540.147126	-2.982600	3.758600	-11.209000	23.777917	0.001052	20.745803
541.146329	-2.983700	3.757300	-11.210000	23.812844	0.001053	20.746210
542.145272	-2.987500	3.758700	-11.228000	23.823739	0.001053	20.755712
543.149033	-2.993900	3.757600	-11.249000	23.833749	0.001053	20.753895
544.146045	-2.992500	3.758300	-11.246000	23.822572	0.001052	20.757861
545.145195	-2.995500	3.757400	-11.254000	23.796944	0.001054	20.757295
546.147842	-3.004800	3.756500	-11.287000	23.776781	0.001053	20.769321
547.147033	-2.975600	3.758000	-11.180000	23.794205	0.001055	20.761187
548.146454	-3.017000	3.756600	-11.331000	23.784827	0.001054	20.767905
549.148649	-2.983300	3.754900	-11.202000	23.805561	0.001054	20.746494
550.149630	-2.973800	3.756300	-11.170000	23.824200	0.001055	20.768503
551.150031	-2.999600	3.755500	-11.264000	23.818409	0.001052	20.753213
552.150335	-2.993400	3.754600	-11.238000	23.846997	0.001053	20.766230
553.150032	-2.982200	3.755100	-11.197000	23.859101	0.001052	20.750392
554.148422	-3.015300	3.753100	-11.316000	23.861736	0.001054	20.769630
555.151304	-3.014600	3.754400	-11.317000	23.850583	0.001054	20.770775
556.152440	-2.979500	3.754600	-11.186000	23.854618	0.001053	20.766286
557.150332	-2.991700	3.753300	-11.228000	23.846155	0.001053	20.771077
558.153935	-2.990700	3.753900	-11.225000	23.836821	0.001053	20.770726
559.151542	-3.016700	3.752300	-11.319000	23.854219	0.001054	20.767308
560.150594	-3.001000	3.752100	-11.258000	23.853052	0.001054	20.766138
561.152975	-2.989900	3.752400	-11.218000	23.890734	0.001056	20.765042
562.153013	-2.969500	3.753100	-11.143000	23.892447	0.001054	20.771976
563.151541	-2.994200	3.751100	-11.230000	23.892146	0.001054	20.765984
564.152796	-2.989300	3.751400	-11.213000	23.889463	0.001054	20.757129
565.156455	-3.002800	3.750700	-11.261000	23.899485	0.001053	20.768127
566.151546	-3.016400	3.751100	-11.314000	23.864671	0.001052	20.765935
567.152097	-2.985500	3.752000	-11.200000	23.872163	0.001054	20.780560
568.151053	-2.995200	3.751000	-11.233000	23.852303	0.001054	20.773922
569.151147	-3.013900	3.748800	-11.298000	23.875050	0.001052	20.779187
570.149442	-3.010400	3.749100	-11.286000	23.899368	0.001053	20.777019
571.151666	-3.009700	3.749200	-11.282000	23.904005	0.001053	20.779772
572.155637	-3.005900	3.749200	-11.269000	23.937154	0.001053	20.755639
573.153270	-3.042400	3.746900	-11.398000	23.952512	0.001054	20.794274
574.153108	-2.995700	3.747600	-11.226000	23.919977	0.001054	20.762598
575.155715	-3.016600	3.746800	-11.302000	23.910877	0.001054	20.763904
576.154211	-3.010500	3.747200	-11.280000	23.863486	0.001053	20.775179
577.153713	-3.011800	3.746500	-11.282000	23.900671	0.001053	20.783067
578.156462	-3.005300	3.746800	-11.259000	23.916901	0.001052	20.791282
579.156090	-3.006600	3.746400	-11.262000	23.907322	0.001052	20.775037
580.155611	-3.004000	3.747100	-11.254000	23.918474	0.001054	20.785746
581.155678	-2.989200	3.747500	-11.201000	23.908789	0.001054	20.766078
582.159033	-3.017800	3.745600	-11.302000	23.900383	0.001053	20.800796
583.157047	-3.014800	3.745400	-11.290000	23.929969	0.001054	20.793006
584.155054	-2.989400	3.744800	-11.194000	23.953961	0.001053	20.790987
585.154173	-3.020700	3.744200	-11.309000	23.928655	0.001055	20.769403
586.156950	-2.984600	3.744700	-11.176000	23.955030	0.001054	20.776885
587.156441	-2.969200	3.745700	-11.121000	23.935987	0.001054	20.788135
588.158871	-2.997400	3.743300	-11.220000	23.962920	0.001054	20.793807
589.160814	-2.994000	3.744000	-11.209000	23.956724	0.001053	20.789964
590.158591	-3.000000	3.744200	-11.231000	23.961355	0.001052	20.798875
591.158178	-3.005700	3.743100	-11.249000	23.951923	0.001055	20.781356
592.164082	-3.008300	3.742700	-11.258000	23.944105	0.001055	20.806233
593.161396	-3.010300	3.742400	-11.265000	23.952862	0.001054	20.789410
594.157956	-2.979700	3.743300	-11.153000	23.955772	0.001053	20.796596
595.161006	-3.023800	3.741100	-11.311000	23.953758	0.001054	20.792206
596.158987	-3.002600	3.741800	-11.234000	23.973912	0.001053	20.793449
597.158841	-2.998700	3.741400	-11.219000	23.995637	0.001054	20.804804
598.164204	-3.004600	3.740900	-11.240000	23.990239	0.001054	20.793702
599.158440	-2.999500	3.740200	-11.217000	23.983165	0.001054	20.805100
600.159510	-2.997200	3.740500	-11.211000	24.007002	0.001055	20.802452
601.161824	-2.994700	3.739400	-11.198000	23.973856	0.001054	20.805721
602.158623	-3.005800	3.739600	-11.239000	23.983435	0.001054	20.794939
603.157252	-2.990600	3.739900	-11.183000	23.977607	0.001053	20.792414
604.161272	-3.006700	3.739200	-11.241000	23.989753	0.001052	20.804120
605.159199	-3.006200	3.739000	-11.239000	23.986216	0.001055	20.815746
606.165184	-3.009500	3.739500	-11.253000	24.028143	0.001053	20.817962
607.166828	-2.995200	3.739100	-11.199000	24.023986	0.001051	20.813794
608.162968	-2.987700	3.738100	-11.168000	24.035284	0.001054	20.812796
609.161978	-2.992900	3.737400	-11.185000	24.033564	0.001052	20.803485
610.165366	-2.999800	3.738000	-11.213000	24.049215	0.001055	20.812069
611.162842	-3.001000	3.736600	-11.212000	24.085963	0.001051	20.815733
612.161498	-2.983200	3.737400	-11.149000	24.056405	0.001051	20.812168
613.166023	-3.009100	3.736700	-11.242000	24.082580	0.001052	20.803331
614.165525	-3.007000	3.738200	-11.240000	24.053593	0.001052	20.809347
615.165062	-2.978300	3.737000	-11.129000	24.053986	0.001052	20.806896
616.166150	-2.992300	3.736600	-11.180000	24.059352	0.001052	20.817019
617.164087	-2.983500	3.737000	-11.148000	24.066499	0.001052	20.813756
618.165140	-3.003000	3.735200	-11.216000	24.096554	0.001052	20.814027
619.165753	-2.987100	3.735100	-11.156000	24.117755	0.001051	20.815849
620.169158	-2.990800	3.734900	-11.169000	24.113850	0.001050	20.826632
621.165145	-2.989800	3.734900	-11.165000	24.095062	0.001049	20.826755
622.177986	-3.005000	3.734800	-11.221000	24.042927	0.001050	20.828522
623.167678	-2.988400	3.735500	-11.162000	24.059751	0.001049	20.808885
624.168208	-2.987500	3.733500	-11.152000	24.021332	0.001050	20.822038
625.169976	-3.018800	3.734000	-11.272000	24.053783	0.001051	20.829452
626.167100	-2.983900	3.734100	-11.139000	24.070533	0.001049	20.824914
627.167974	-3.002100	3.732300	-11.204000	24.086951	0.001051	20.832371
628.168351	-2.986600	3.732800	-11.148000	24.107336	0.001050	20.833849
629.168325	-2.998100	3.731800	-11.187000	24.097156	0.001050	20.786655
630.169314	-2.985200	3.731700	-11.138000	24.109669	0.001050	20.827180
631.171930	-2.981700	3.732300	-11.128000	24.131324	0.001052	20.831355
632.169749	-3.008700	3.731200	-11.225000	24.142467	0.001049	20.831152
633.167638	-2.993800	3.730600	-11.168000	24.146109	0.001049	20.823424
634.170598	-3.019400	3.730400	-11.263000	24.127899	0.001051	20.828868
635.170695	-3.006600	3.730800	-11.217000	24.130833	0.001051	20.839871
636.168833	-3.010100	3.729800	-11.227000	24.159874	0.001049	20.843394
637.171348	-3.021800	3.728300	-11.266000	24.122306	0.001049	20.819465
638.169777	-3.016300	3.729700	-11.247000	24.139650	0.001051	20.831645
639.167918	-2.994100	3.728900	-11.163000	24.111764	0.001050	20.835919
640.173694	-3.011500	3.729000	-11.229000	24.090023	0.001050	20.842563
641.169447	-2.985000	3.729900	-11.133000	24.104311	0.001050	20.847410
642.170711	-3.002500	3.727800	-11.192000	24.073329	0.001049	20.840045
643.173481	-3.020700	3.727700	-11.260000	24.105558	0.001049	20.839651
644.170661	-3.013300	3.727900	-11.232000	24.110912	0.001050	20.842650
645.171170	-2.994600	3.726700	-11.159000	24.102377	0.001051	20.831721
646.170500	-3.002800	3.727400	-11.191000	24.122314	0.001049	20.837965
647.170361	-2.981700	3.726400	-11.109000	24.123094	0.001048	20.833058
648.173831	-2.993300	3.725700	-11.151000	24.134096	0.001048	20.848359
649.173627	-2.963700	3.727800	-11.047000	24.151490	0.001047	20.827399
650.171520	-2.980100	3.726300	-11.103000	24.170774	0.001048	20.850533
651.171414	-3.013000	3.725600	-11.224000	24.193472	0.001048	20.840109
652.171768	-3.020900	3.723900	-11.248000	24.207310	0.001048	20.839764
653.171856	-3.010500	3.723700	-11.209000	24.181562	0.001046	20.852344
654.173133	-3.003600	3.724800	-11.187000	24.165667	0.001048	20.862954
655.174464	-3.002200	3.725300	-11.183000	24.130211	0.001046	20.851575
656.177571	-3.010400	3.723000	-11.205000	24.119142	0.001048	20.840473
657.173897	-3.016300	3.723400	-11.229000	24.134725	0.001047	20.873170
658.176523	-3.023700	3.724100	-11.260000	24.151492	0.001047	20.843047
659.173940	-2.978700	3.723900	-11.092000	24.170954	0.001047	20.871575
660.175257	-3.012200	3.723000	-11.212000	24.177579	0.001047	20.842186
661.176443	-3.007600	3.722600	-11.195000	24.163968	0.001046	20.829957
662.175258	-2.987600	3.722900	-11.122000	24.182607	0.001047	20.859082
663.175281	-3.029900	3.720600	-11.272000	24.186095	0.001047	20.843615
664.176017	-3.020200	3.722100	-11.239000	24.182387	0.001048	20.845585
665.177234	-2.988500	3.722400	-11.123000	24.185297	0.001045	20.837125
666.175106	-3.002400	3.720800	-11.171000	24.231273	0.001046	20.836299
667.177513	-2.988700	3.720900	-11.119000	24.223195	0.001046	20.859963
668.173417	-3.015500	3.720100	-11.217000	24.212795	0.001044	20.870868
669.174681	-3.008100	3.719800	-11.189000	24.221475	0.001046	20.862032
670.177958	-2.991600	3.721500	-11.131000	24.210063	0.001045	20.851060
671.175395	-3.012400	3.719000	-11.202000	24.245688	0.001047	20.846491
672.178790	-3.009500	3.719600	-11.194000	24.202100	0.001047	20.862039
673.177501	-3.003000	3.720500	-11.173000	24.234172	0.001046	20.865758
674.174257	-3.007800	3.720700	-11.190000	24.250041	0.001044	20.875037
675.175814	-3.010800	3.719200	-11.197000	24.251760	0.001046	20.855900
676.179243	-2.983400	3.719900	-11.097000	24.264652	0.001046	20.846547
677.175834	-2.990600	3.718700	-11.120000	24.264547	0.001045	20.870148
678.175529	-3.014200	3.717100	-11.203000	24.271085	0.001045	20.860585
679.180004	-2.983900	3.718000	-11.092000	24.230341	0.001043	20.867605
680.175705	-2.983600	3.717900	-11.091000	24.264179	0.001043	20.859348
681.175929	-2.995400	3.718500	-11.137000	24.253080	0.001044	20.867180
682.179702	-2.999100	3.717200	-11.147000	24.273080	0.001042	20.865431
683.176855	-3.004200	3.715800	-11.163000	24.265892	0.001043	20.854902
684.176106	-3.002600	3.717200	-11.160000	24.258427	0.001041	20.857371
685.181622	-2.988800	3.716300	-11.107000	24.264271	0.001042	20.869871
686.176497	-2.976100	3.717200	-11.062000	24.282632	0.001043	20.848461
687.177857	-3.003300	3.715800	-11.158000	24.279109	0.001043	20.858677
688.181521	-2.997300	3.716000	-11.138000	24.284075	0.001040	20.847538
689.177711	-2.989300	3.714200	-11.101000	24.281319	0.001043	20.847618
690.178864	-2.983300	3.716000	-11.084000	24.309852	0.001042	20.843049
691.183481	-2.979700	3.714700	-11.068000	24.297691	0.001043	20.866411
692.180942	-2.988800	3.714900	-11.103000	24.301123	0.001040	20.848043
693.178994	-2.975800	3.715000	-11.054000	24.289607	0.001041	20.839336
694.182662	-2.979300	3.713400	-11.062000	24.296175	0.001040	20.850666
695.184338	-2.990100	3.713400	-11.103000	24.298888	0.001042	20.823043
696.180354	-2.993100	3.713000	-11.112000	24.293462	0.001042	20.825660
697.183543	-2.994900	3.714300	-11.122000	24.297323	0.001040	20.843758
698.182474	-3.012500	3.712100	-11.182000	24.315015	0.001040	20.829737
699.181124	-2.975100	3.713000	-11.045000	24.308937	0.001041	20.854933
700.183896	-2.999000	3.712900	-11.134000	24.355437	0.001042	20.833776
701.183989	-2.988000	3.712300	-11.091000	24.355038	0.001040	20.844281
702.183393	-2.988200	3.710900	-11.086000	24.353025	0.001040	20.843210
703.184700	-3.000800	3.710600	-11.134000	24.350287	0.001041	20.832403
704.183497	-3.023200	3.710300	-11.215000	24.338250	0.001038	20.828388
705.180864	-2.995300	3.710900	-11.114000	24.351779	0.001040	20.839115
706.184008	-3.002000	3.710400	-11.137000	24.351607	0.001040	20.827089
707.182095	-2.983100	3.711300	-11.070000	24.366935	0.001038	20.832034
708.182148	-3.017100	3.709500	-11.191000	24.358200	0.001039	20.824694
709.185076	-3.007700	3.708400	-11.153000	24.361183	0.001038	20.821048
710.182292	-3.014600	3.708900	-11.180000	24.365271	0.001038	20.826572
711.181453	-3.021400	3.708200	-11.203000	24.365437	0.001039	20.830531
712.183930	-3.013700	3.707700	-11.173000	24.360667	0.001038	20.821954
713.184474	-3.011800	3.708500	-11.168000	24.371213	0.001039	20.823998
714.181990	-3.017900	3.707900	-11.189000	24.374994	0.001038	20.831110
715.183261	-3.027800	3.707700	-11.225000	24.414444	0.001038	20.831806
716.182471	-3.001900	3.708400	-11.131000	24.423001	0.001038	20.814786
717.180878	-3.004400	3.708400	-11.141000	24.406158	0.001039	20.826338
718.184582	-2.999200	3.706500	-11.116000	24.399835	0.001037	20.804822
719.181982	-3.004400	3.707700	-11.138000	24.389990	0.001037	20.825291
720.181609	-3.011200	3.706300	-11.159000	24.377830	0.001038	20.833007
721.182136	-3.020800	3.707300	-11.197000	24.341957	0.001037	20.827366
722.184673	-3.034300	3.705100	-11.240000	24.346635	0.001036	20.841067
723.181430	-3.005300	3.705300	-11.133000	24.361116	0.001036	20.816714
724.183186	-3.000700	3.706300	-11.120000	24.340508	0.001035	20.826387
725.182043	-2.987700	3.705000	-11.068000	24.352086	0.001036	20.827096
726.182657	-3.003000	3.704700	-11.124000	24.366437	0.001036	20.810673
727.184045	-2.975200	3.705600	-11.024000	24.344198	0.001034	20.804010
728.181625	-2.985200	3.705000	-11.059000	24.350742	0.001034	20.823850
729.182507	-2.967700	3.704700	-10.994000	24.349054	0.001035	20.796079
730.182158	-2.976000	3.704300	-11.023000	24.326569	0.001035	20.814774
731.182273	-2.999500	3.702200	-11.103000	24.330522	0.001033	20.812576
732.183400	-2.965200	3.704300	-10.982000	24.369875	0.001035	20.816018
733.182546	-3.010200	3.701700	-11.141000	24.373737	0.001032	20.812779
734.183924	-2.984800	3.704100	-11.055000	24.379125	0.001031	20.809651
735.183422	-3.012900	3.701200	-11.151000	24.409234	0.001032	20.816622
736.186038	-3.003800	3.701500	-11.118000	24.400720	0.001034	20.808081
737.182180	-3.021400	3.700700	-11.180000	24.420031	0.001032	20.793315
738.183805	-2.995500	3.701000	-11.085000	24.455422	0.001033	20.816492
739.183964	-3.009200	3.699700	-11.132000	24.443564	0.001032	20.811234
740.182843	-2.999000	3.700800	-11.098000	24.442440	0.001031	20.806314
741.184539	-2.979100	3.700700	-11.023000	24.461541	0.001033	20.817890
742.183987	-2.997100	3.700000	-11.088000	24.456601	0.001032	20.804873
743.184541	-3.004700	3.699800	-11.116000	24.483196	0.001029	20.805003
744.185945	-3.003800	3.698500	-11.108000	24.473136	0.001032	20.799651
745.185591	-2.969500	3.699400	-10.984000	24.468514	0.001031	20.786005
746.186543	-2.998300	3.699000	-11.090000	24.466894	0.001031	20.835113
747.190022	-2.990200	3.699100	-11.060000	24.464936	0.001030	20.797114
748.190090	-2.986700	3.699000	-11.047000	24.469466	0.001030	20.803082
749.188467	-3.012600	3.697900	-11.140000	24.473499	0.001031	20.810446
750.188973	-3.020300	3.697200	-11.165000	24.502745	0.001029	20.810865
751.186975	-2.997500	3.699200	-11.087000	24.485265	0.001031	20.799492
752.192068	-3.016800	3.697200	-11.153000	24.477157	0.001029	20.798944
753.189681	-3.010600	3.696300	-11.126000	24.480073	0.001032	20.804240
754.190039	-3.036600	3.696000	-11.222000	24.474549	0.001029	20.802491
755.188529	-2.998100	3.695900	-11.080000	24.427122	0.001030	20.796161
756.190106	-3.018300	3.696500	-11.156000	24.416000	0.001028	20.790219
757.186365	-3.005500	3.695400	-11.106000	24.409131	0.001028	20.799923
758.191835	-2.986800	3.696100	-11.038000	24.418468	0.001029	20.776573
759.190254	-2.995600	3.695000	-11.068000	24.451306	0.001028	20.786759
760.188012	-2.978800	3.697000	-11.012000	24.436385	0.001027	20.779850
761.192496	-2.997800	3.693800	-11.072000	24.443173	0.001027	20.801359
762.190715	-2.991400	3.695600	-11.053000	24.474397	0.001029	20.787640
763.189254	-3.009700	3.695000	-11.119000	24.478693	0.001026	20.783415
764.194854	-3.007100	3.693200	-11.105000	24.497855	0.001027	20.793157
765.196150	-3.003500	3.693100	-11.091000	24.489268	0.001028	20.802086
766.195575	-3.001700	3.692200	-11.081000	24.509799	0.001028	20.782381
767.193799	-3.006300	3.692800	-11.101000	24.486513	0.001025	20.783674
768.192469	-2.967200	3.693300	-10.957000	24.468063	0.001028	20.790295
769.194176	-2.981300	3.694500	-11.013000	24.499980	0.001026	20.776322
770.194769	-2.991500	3.693100	-11.047000	24.486968	0.001026	20.781760
771.201350	-2.985400	3.692100	-11.022000	24.499931	0.001025	20.784334
772.199531	-3.000400	3.691600	-11.075000	24.508567	0.001025	20.780196
773.195985	-2.995000	3.691700	-11.055000	24.524120	0.001026	20.771619
774.195125	-3.007700	3.692500	-11.105000	24.518246	0.001023	20.775683
775.198391	-3.025600	3.689600	-11.162000	24.523346	0.001024	20.785067
776.197676	-2.998800	3.690600	-11.065000	24.527949	0.001023	20.787315
777.196528	-2.994900	3.691900	-11.056000	24.514545	0.001023	20.775763
778.194874	-3.001300	3.691000	-11.077000	24.484274	0.001024	20.791386
779.194916	-3.009900	3.690200	-11.105000	24.512956	0.001024	20.782703
780.197046	-2.999300	3.689100	-11.063000	24.492445	0.001021	20.790574
781.196347	-2.955000	3.690900	-10.905000	24.480378	0.001024	20.786054
782.204132	-2.993300	3.689000	-11.041000	24.445110	0.001022	20.770111
783.194316	-3.002400	3.689000	-11.075000	24.444760	0.001021	20.764544
784.193881	-3.006000	3.688400	-11.086000	24.469815	0.001023	20.761232
785.195660	-3.014500	3.688000	-11.116000	24.467575	0.001021	20.759932
786.198016	-3.024100	3.686000	-11.146000	24.482404	0.001022	20.773862
787.195518	-3.022800	3.686800	-11.143000	24.444693	0.001021	20.779176
788.195091	-2.991900	3.688300	-11.033000	24.449751	0.001022	20.782354
789.196019	-3.010500	3.686600	-11.097000	24.479526	0.001020	20.786147
790.195299	-2.988100	3.686700	-11.016000	24.464434	0.001020	20.771006
791.199539	-3.001200	3.686300	-11.062000	24.485326	0.001019	20.746921
792.197725	-3.005200	3.685400	-11.074000	24.462280	0.001021	20.764577
793.200278	-3.004300	3.685800	-11.073000	24.463894	0.001018	20.765248
794.202645	-2.985800	3.685400	-11.003000	24.479644	0.001018	20.776783
795.198630	-2.998600	3.685300	-11.050000	24.481731	0.001020	20.767970
796.197837	-3.008500	3.685000	-11.086000	24.528598	0.001020	20.759990
797.199186	-2.987100	3.684900	-11.005000	24.517955	0.001019	20.752157
798.197771	-2.987000	3.684700	-11.005000	24.517851	0.001018	20.762958
799.196066	-2.993400	3.685600	-11.032000	24.532287	0.001018	20.751363
800.197502	-2.990600	3.684100	-11.016000	24.532588	0.001016	20.770158
801.196497	-3.012400	3.683300	-11.095000	24.558838	0.001019	20.750976
802.202971	-3.019200	3.683300	-11.119000	24.540058	0.001016	20.759634
803.205325	-2.991800	3.683600	-11.019000	24.524770	0.001016	20.760417
804.200027	-2.991700	3.683500	-11.019000	24.529502	0.001018	20.771330
805.205602	-3.003200	3.682500	-11.058000	24.548651	0.001015	20.765412
806.200185	-3.004400	3.682500	-11.062000	24.566843	0.001016	20.771336
807.200452	-2.997800	3.682600	-11.037000	24.559981	0.001015	20.762555
808.202849	-3.015300	3.680900	-11.097000	24.523201	0.001014	20.729918
809.201700	-2.976700	3.682200	-10.960000	24.499375	0.001014	20.760068
810.202501	-2.991700	3.681800	-11.014000	24.456270	0.001017	20.742426
811.202577	-2.979300	3.683100	-10.973000	24.463292	0.001016	20.763696
812.204409	-3.021500	3.679900	-11.118000	24.443946	0.001014	20.768943
813.201786	-3.013100	3.680200	-11.088000	24.435299	0.001014	20.734188
814.202633	-3.000300	3.680600	-11.040000	24.428829	0.001012	20.749983
815.202085	-3.008700	3.679900	-11.071000	24.437091	0.001013	20.747841
816.201239	-2.994800	3.680300	-11.020000	24.451049	0.001013	20.754732
817.201273	-3.013300	3.678900	-11.085000	24.484033	0.001012	20.755582
818.204307	-3.006400	3.679800	-11.062000	24.477798	0.001011	20.733204
819.204140	-3.020400	3.678000	-11.108000	24.499415	0.001011	20.743513
820.207274	-3.011400	3.679400	-11.078000	24.475645	0.001011	20.737682
821.203338	-3.022800	3.678900	-11.118000	24.480728	0.001011	20.753687
822.202458	-2.996100	3.677400	-11.016000	24.471570	0.001010	20.754931
823.203990	-2.992700	3.678700	-11.008000	24.465807	0.001010	20.740614
824.203747	-2.991400	3.678600	-11.003000	24.482054	0.001010	20.756441
825.203900	-3.009000	3.677000	-11.064000	24.485957	0.001010	20.741864
826.203961	-2.998400	3.677400	-11.025000	24.528448	0.001008	20.727122
827.207521	-2.999400	3.677000	-11.028000	24.521097	0.001010	20.753887
828.204462	-2.996200	3.677400	-11.017000	24.535225	0.001012	20.746725
829.204838	-3.008300	3.676400	-11.058000	24.558916	0.001009	20.734459
830.207743	-3.004700	3.676500	-11.046000	24.516017	0.001007	20.733616
831.206687	-2.996900	3.677100	-11.019000	24.500666	0.001008	20.730543
832.205740	-2.993300	3.676800	-11.003000	24.528010	0.001011	20.734743
833.211723	-2.997800	3.674700	-11.015000	24.493118	0.001006	20.722969
834.207480	-3.002200	3.674000	-11.028000	24.529410	0.001007	20.722397
835.207815	-2.992900	3.675400	-10.998000	24.542796	0.001007	20.736776
836.208482	-2.993900	3.675400	-11.002000	24.561202	0.001008	20.711620
837.206713	-2.999900	3.674400	-11.022000	24.548848	0.001006	20.718192
838.207355	-2.969000	3.675300	-10.911000	24.585666	0.001005	20.728107
839.208466	-2.996300	3.675000	-11.010000	24.600886	0.001007	20.714929
840.207737	-3.001600	3.674400	-11.028000	24.637849	0.001006	20.731156
841.207511	-2.998100	3.674100	-11.015000	24.615394	0.001007	20.736126
842.209169	-3.001000	3.674600	-11.026000	24.606643	0.001005	20.732087
843.209525	-2.998700	3.672200	-11.011000	24.591529	0.001007	20.725929
844.209751	-3.015900	3.673100	-11.076000	24.586656	0.001005	20.729101
845.212150	-2.995700	3.671600	-10.997000	24.602453	0.001005	20.748746
846.212543	-3.010100	3.672700	-11.053000	24.617249	0.001003	20.725658
847.211985	-3.019100	3.671600	-11.084000	24.635433	0.001003	20.734422
848.211661	-3.005800	3.671100	-11.034000	24.632703	0.001003	20.738321
849.212642	-3.011400	3.669900	-11.050000	24.629874	0.001004	20.734534
850.212239	-2.999600	3.671300	-11.011000	24.643823	0.001001	20.715813
851.214037	-2.973800	3.671300	-10.917000	24.619013	0.001003	20.724109
852.215363	-2.987700	3.672100	-10.970000	24.619037	0.001001	20.718917
853.212429	-2.997700	3.669200	-10.998000	24.622075	0.001001	20.743304
854.212687	-2.983300	3.671300	-10.951000	24.626580	0.001001	20.710838
855.215611	-2.991700	3.671000	-10.982000	24.633945	0.001000	20.726764
856.212576	-2.985400	3.669900	-10.955000	24.675061	0.001001	20.740996
857.212662	-3.013500	3.669500	-11.055000	24.640137	0.001001	20.696939
858.215723	-2.991600	3.668700	-10.974000	24.636185	0.001002	20.710044
859.211455	-3.004500	3.668200	-11.020000	24.646962	0.000999	20.710901
860.211883	-2.994000	3.668500	-10.981000	24.635866	0.000999	20.734382
861.222468	-3.008200	3.667400	-11.031000	24.637585	0.001000	20.711923
862.212329	-3.018300	3.667800	-11.070000	24.671939	0.001000	20.698505
863.210905	-2.981300	3.668700	-10.936000	24.678180	0.001000	20.727055
864.223606	-3.014100	3.667400	-11.053000	24.657039	0.001000	20.723859
865.212851	-3.030400	3.665800	-11.108000	24.647767	0.000998	20.710286
866.212856	-3.017400	3.666500	-11.062000	24.646251	0.000997	20.699756
867.217240	-2.992000	3.666100	-10.968000	24.628099	0.000997	20.715681
868.217561	-3.008900	3.666500	-11.031000	24.619022	0.000998	20.696615
869.213841	-2.983900	3.667700	-10.942000	24.598580	0.000997	20.721150
870.217047	-2.994400	3.666100	-10.975000	24.583052	0.000999	20.706517
871.216286	-3.009500	3.666000	-11.032000	24.610450	0.000995	20.706507
872.221199	-3.010900	3.664700	-11.033000	24.600673	0.000996	20.717086
873.220242	-3.012500	3.664000	-11.037000	24.641858	0.000996	20.710047
874.216673	-3.014600	3.664000	-11.044000	24.649321	0.000996	20.709949
875.218310	-3.001600	3.666000	-11.002000	24.651266	0.000996	20.691986
876.222744	-2.987900	3.664500	-10.948000	24.655194	0.000995	20.699696
877.219041	-3.002500	3.664500	-11.002000	24.666216	0.000995	20.693236
878.220585	-3.023700	3.663100	-11.076000	24.664774	0.000994	20.720714
879.220499	-2.991000	3.663300	-10.955000	24.643216	0.000994	20.706668
880.220269	-3.029000	3.662300	-11.092000	24.664235	0.000994	20.689825
881.219213	-2.978500	3.664200	-10.913000	24.668813	0.000991	20.705326
882.222713	-3.009300	3.662100	-11.019000	24.684560	0.000992	20.717809
883.224420	-2.990000	3.663600	-10.953000	24.683125	0.000993	20.702143
884.222809	-3.001000	3.661900	-10.989000	24.709505	0.000991	20.688311
885.225135	-2.996700	3.661300	-10.970000	24.722245	0.000993	20.702993
886.223760	-2.983800	3.662400	-10.926000	24.736223	0.000992	20.697581
887.227070	-2.996500	3.661400	-10.970000	24.743416	0.000991	20.699583
888.228815	-2.991900	3.661700	-10.953000	24.713851	0.000991	20.698364
889.227647	-2.992000	3.661200	-10.953000	24.701272	0.000990	20.676255
890.224545	-3.003200	3.660700	-10.992000	24.699088	0.000989	20.707257
891.225689	-2.979200	3.661600	-10.907000	24.714037	0.000992	20.691911
892.225054	-3.008800	3.659500	-11.010000	24.734582	0.000991	20.688820
893.226250	-2.999400	3.659100	-10.974000	24.741245	0.000991	20.677014
894.229483	-3.019900	3.658800	-11.047000	24.733993	0.000988	20.685384
895.230033	-2.979300	3.659900	-10.903000	24.719377	0.000991	20.693951
896.227446	-3.017100	3.657500	-11.034000	24.681080	0.000988	20.690607
897.234827	-3.001100	3.658500	-10.978000	24.648230	0.000991	20.683723
898.229769	-3.018100	3.657200	-11.038000	24.625384	0.000988	20.677393
899.228414	-3.000400	3.658400	-10.977000	24.611761	0.000988	20.666567
900.234717	-3.017000	3.656600	-11.030000	24.630109	0.000988	20.674073
901.234548	-3.014700	3.656300	-11.021000	24.662574	0.000989	20.665871
902.229194	-2.983800	3.657900	-10.914000	24.670754	0.000987	20.705852
903.235794	-3.003300	3.656200	-10.980000	24.688367	0.000988	20.691281
904.233054	-2.994900	3.655900	-10.948000	24.661048	0.000988	20.684730
905.231987	-3.004100	3.656500	-10.984000	24.684576	0.000987	20.679890
906.237528	-3.004400	3.656000	-10.984000	24.696843	0.000986	20.682718
907.234710	-2.999500	3.655500	-10.964000	24.712534	0.000985	20.688032
908.232550	-2.998800	3.654100	-10.957000	24.717063	0.000986	20.672187
909.236115	-2.992400	3.656100	-10.940000	24.702717	0.000986	20.685766
910.236454	-2.994900	3.655600	-10.947000	24.719408	0.000984	20.686869
911.231292	-2.997900	3.654500	-10.955000	24.709892	0.000983	20.668309
912.235129	-3.010100	3.654400	-10.999000	24.690225	0.000985	20.698837
913.238476	-3.016400	3.652800	-11.017000	24.653693	0.000984	20.677350
914.233386	-2.991700	3.654000	-10.930000	24.644103	0.000985	20.677209
915.236051	-3.004500	3.652600	-10.973000	24.662181	0.000984	20.665952
916.236135	-3.001600	3.653800	-10.965000	24.691656	0.000985	20.663285
917.233371	-2.985600	3.653900	-10.908000	24.707329	0.000982	20.684705
918.235599	-3.006400	3.653000	-10.981000	24.737251	0.000983	20.687705
919.232556	-2.990800	3.652200	-10.922000	24.772859	0.000982	20.673177
920.234100	-2.992800	3.652700	-10.931000	24.786193	0.000982	20.685611
921.235538	-2.988900	3.653100	-10.918000	24.805140	0.000982	20.662425
922.234336	-2.980600	3.650800	-10.880000	24.781671	0.000981	20.664476
923.233678	-2.961200	3.652200	-10.814000	24.755856	0.000981	20.673658
924.238124	-2.995600	3.650500	-10.934000	24.787519	0.000979	20.657542
925.235835	-2.992100	3.651400	-10.924000	24.785801	0.000981	20.670044
926.236131	-2.985800	3.651200	-10.899000	24.777646	0.000980	20.674188
927.237289	-2.990400	3.651100	-10.917000	24.786851	0.000980	20.690540
928.236103	-2.976700	3.650700	-10.866000	24.786501	0.000980	20.667901
929.238716	-3.010800	3.648700	-10.984000	24.798816	0.000979	20.692591
930.236585	-3.030300	3.649300	-11.058000	24.812714	0.000978	20.684252
931.237175	-2.981900	3.650800	-10.885000	24.828434	0.000980	20.662569
932.237696	-3.010100	3.649200	-10.983000	24.858646	0.000978	20.655905
933.238976	-3.011900	3.649900	-10.992000	24.837117	0.000978	20.678397
934.241348	-2.996500	3.649100	-10.933000	24.865488	0.000977	20.656608
935.237923	-3.027300	3.648700	-11.044000	24.865194	0.000976	20.658684
936.242366	-3.026600	3.647300	-11.038000	24.862083	0.000977	20.673107
937.242032	-3.001400	3.648100	-10.948000	24.856893	0.000976	20.679278
938.237890	-3.006800	3.647800	-10.967000	24.857740	0.000975	20.665428
939.239078	-3.001800	3.648500	-10.951000	24.825792	0.000975	20.674143
940.238705	-2.999600	3.646500	-10.937000	24.802316	0.000973	20.675713
941.238892	-3.000300	3.646400	-10.940000	24.798561	0.000974	20.672892
942.238820	-2.977400	3.646500	-10.855000	24.800465	0.000975	20.678122
943.238914	-3.014600	3.645100	-10.987000	24.777240	0.000976	20.683739
944.239645	-2.993100	3.646500	-10.914000	24.771987	0.000975	20.693167
945.239256	-3.004900	3.645100	-10.952000	24.798151	0.000974	20.678172
946.242333	-2.992200	3.645700	-10.907000	24.797507	0.000974	20.676103
947.238556	-3.010800	3.644000	-10.970000	24.816910	0.000973	20.678031
948.239175	-2.987800	3.645600	-10.892000	24.837446	0.000973	20.674459
949.239278	-2.997000	3.643700	-10.919000	24.844532	0.000973	20.685365
950.239859	-3.003100	3.644300	-10.943000	24.856309	0.000973	20.683433
951.242087	-3.000300	3.643300	-10.930000	24.827010	0.000971	20.672520
952.239156	-2.992100	3.642300	-10.897000	24.841705	0.000971	20.682053
953.240004	-2.983100	3.644300	-10.870000	24.831888	0.000971	20.674097
954.242841	-2.972500	3.644500	-10.832000	24.840840	0.000971	20.668382
955.241575	-3.001400	3.642800	-10.932000	24.841019	0.000971	20.696065
956.241051	-2.971800	3.644600	-10.830000	24.827668	0.000970	20.679345
957.243026	-2.963000	3.642800	-10.792000	24.794375	0.000970	20.679598
958.242487	-2.999900	3.642500	-10.927000	24.772739	0.000970	20.676851
959.242927	-2.996000	3.642800	-10.912000	24.770604	0.000968	20.671863
960.245577	-3.002800	3.642100	-10.936000	24.777048	0.000969	20.666000
961.242988	-3.020000	3.641300	-10.995000	24.772575	0.000968	20.683799
962.241189	-2.989800	3.641200	-10.884000	24.805427	0.000968	20.678361
963.247979	-3.002500	3.640600	-10.931000	24.817050	0.000967	20.674852
964.243974	-3.008000	3.641100	-10.951000	24.825033	0.000966	20.678597
965.242698	-2.975400	3.641300	-10.833000	24.842699	0.000967	20.674989
966.247093	-2.994400	3.639900	-10.898000	24.871672	0.000966	20.668979
967.242973	-2.978200	3.640200	-10.840000	24.886114	0.000966	20.698650
968.243206	-3.016800	3.639800	-10.979000	24.888207	0.000966	20.699802
969.246108	-2.990000	3.639800	-10.880000	24.895423	0.000965	20.677171
970.241822	-2.982100	3.638800	-10.851000	24.890159	0.000962	20.679001
971.242504	-3.003600	3.638000	-10.927000	24.873796	0.000964	20.679173
972.247717	-3.005200	3.639400	-10.937000	24.881484	0.000965	20.654644
973.243189	-2.995200	3.637800	-10.895000	24.895444	0.000964	20.700902
974.243782	-2.998300	3.638100	-10.907000	24.912174	0.000964	20.684976
975.245620	-3.013900	3.638100	-10.963000	24.934329	0.000964	20.702946
976.244837	-2.992400	3.638400	-10.885000	24.940477	0.000962	20.699160
977.244399	-3.009100	3.636900	-10.941000	24.935190	0.000962	20.693378
978.249033	-3.011300	3.635700	-10.947000	24.952172	0.000961	20.684344
979.245004	-2.997200	3.636400	-10.897000	24.941534	0.000961	20.680778
980.246679	-2.986600	3.636400	-10.859000	24.928240	0.000963	20.684979
981.251585	-3.000400	3.636300	-10.909000	24.931701	0.000961	20.681815
982.247643	-2.994800	3.635900	-10.887000	24.945425	0.000959	20.695117
983.248294	-2.993400	3.636200	-10.883000	24.969469	0.000959	20.707397
984.250309	-3.014000	3.634000	-10.951000	24.937825	0.000958	20.684642
985.247041	-2.998800	3.635600	-10.901000	24.917119	0.000959	20.677610
986.249274	-3.004300	3.633500	-10.915000	24.874276	0.000957	20.679655
987.249035	-2.978700	3.634400	-10.825000	24.849765	0.000962	20.690617
988.247422	-2.997900	3.634300	-10.894000	24.859067	0.000957	20.691892
989.249308	-2.984200	3.634500	-10.846000	24.889481	0.000959	20.684485
990.250623	-2.983900	3.633500	-10.842000	24.908745	0.000957	20.679637
991.251933	-2.986600	3.634300	-10.853000	24.924017	0.000957	20.680740
992.248932	-2.980300	3.633800	-10.828000	24.912668	0.000958	20.703017
993.250744	-2.989600	3.631500	-10.855000	24.897576	0.000957	20.703516
994.253186	-3.005400	3.632600	-10.916000	24.900232	0.000956	20.695275
995.248477	-2.985400	3.632200	-10.842000	24.878206	0.000958	20.716319
996.249266	-3.011400	3.631200	-10.934000	24.898080	0.000955	20.704970
997.253305	-3.001600	3.631300	-10.899000	24.917197	0.000954	20.703294
998.251513	-3.008800	3.629700	-10.919000	24.940726	0.000954	20.687081
999.249819	-2.991400	3.630400	-10.859000	24.952316	0.000955	20.670262
1000.255189	-2.995900	3.631000	-10.877000	24.947886	0.000953	20.705174
1001.251823	-2.998900	3.631100	-10.888000	24.902037	0.000956	20.715581
1002.253602	-3.008400	3.629100	-10.917000	24.900872	0.000956	20.702083
1003.254448	-2.991700	3.630400	-10.860000	24.920493	0.000954	20.680997
1004.256557	-2.983900	3.630300	-10.831000	24.926292	0.000952	20.707682
1005.255356	-2.996300	3.628300	-10.871000	24.974127	0.000953	20.694527
1006.261069	-3.007000	3.627700	-10.907000	25.023058	0.000953	20.711876
1007.256989	-3.002400	3.628200	-10.892000	24.984379	0.000951	20.708613
1008.255641	-2.994300	3.627500	-10.861000	24.991287	0.000952	20.702743
1009.256529	-3.003200	3.627200	-10.892000	24.985576	0.000952	20.700805
1010.263100	-2.985500	3.629000	-10.834000	25.010962	0.000949	20.713959
1011.254797	-3.029800	3.625800	-10.984000	25.022950	0.000949	20.699912
1012.256774	-3.029900	3.626100	-10.986000	24.986780	0.000951	20.701539
1013.257853	-3.003600	3.625900	-10.890000	24.949461	0.000949	20.689210
1014.254651	-3.023900	3.625900	-10.964000	24.945185	0.000948	20.703885
1015.256493	-3.003200	3.626500	-10.890000	24.911374	0.000950	20.716892
1016.256876	-3.007500	3.626700	-10.906000	24.929074	0.000948	20.719484
1017.260930	-3.005100	3.627000	-10.898000	24.936111	0.000948	20.705209
1018.259791	-3.010000	3.625600	-10.912000	24.914094	0.000948	20.700180
1019.258330	-3.002900	3.625500	-10.886000	24.897926	0.000947	20.709558
1020.259369	-3.004600	3.625200	-10.890000	24.885024	0.000946	20.712730
1021.263495	-3.020200	3.622600	-10.940000	24.891564	0.000946	20.705543
1022.259461	-2.993600	3.624700	-10.850000	24.860986	0.000946	20.710889
1023.262114	-2.979600	3.625100	-10.800000	24.836247	0.000945	20.718304
1024.261345	-2.994300	3.623200	-10.848000	24.840947	0.000943	20.709744
1025.260200	-3.013000	3.624500	-10.920000	24.842218	0.000944	20.719555
1026.260258	-2.989700	3.624300	-10.835000	24.850323	0.000945	20.715361
1027.261353	-3.004300	3.622300	-10.882000	24.838592	0.000943	20.734409
1028.260981	-3.019000	3.622000	-10.934000	24.880842	0.000944	20.714697
1029.260890	-2.989400	3.622900	-10.830000	24.883978	0.000941	20.728277
1030.266317	-3.001500	3.622200	-10.871000	24.908943	0.000943	20.692164
1031.261549	-3.009100	3.621100	-10.895000	24.913993	0.000942	20.710985
1032.260954	-2.989400	3.622600	-10.828000	24.923864	0.000942	20.719471
1033.264989	-3.008700	3.620800	-10.893000	24.922675	0.000941	20.719699
1034.265477	-2.993200	3.621500	-10.839000	24.902263	0.000943	20.702530
1035.262599	-2.994100	3.620600	-10.839000	24.922976	0.000940	20.710043
1036.266907	-2.993500	3.619900	-10.835000	24.941872	0.000940	20.716682
1037.265387	-2.975300	3.620400	-10.770000	24.943891	0.000939	20.714915
1038.261834	-3.016200	3.619300	-10.915000	24.910529	0.000939	20.727423
1039.265197	-3.008100	3.618400	-10.883000	24.921818	0.000939	20.726900
1040.269132	-2.986500	3.619100	-10.806000	24.889742	0.000937	20.702292
1041.266893	-2.995300	3.619800	-10.842000	24.909118	0.000939	20.716524
1042.268763	-2.996900	3.618000	-10.841000	24.903530	0.000937	20.720399
1043.271493	-2.975500	3.619600	-10.769000	24.901315	0.000939	20.721969
1044.266211	-3.006100	3.618000	-10.875000	24.907929	0.000938	20.730978
1045.270140	-3.000300	3.618400	-10.855000	24.919046	0.000936	20.730757
1046.270681	-2.989100	3.618200	-10.814000	24.917206	0.000935	20.717055
1047.267812	-2.994200	3.618000	-10.831000	24.926955	0.000937	20.696967
1048.270852	-2.994900	3.617500	-10.832000	24.940735	0.000938	20.715541
1049.271208	-3.000200	3.616700	-10.849000	24.954729	0.000935	20.726268
1050.267397	-2.986900	3.617500	-10.805000	24.952661	0.000935	20.724666
1051.272583	-2.988100	3.617200	-10.807000	24.978324	0.000935	20.722450
1052.270388	-3.000800	3.615900	-10.848000	24.966864	0.000935	20.728966
1053.267768	-2.983900	3.614200	-10.784000	25.002237	0.000935	20.752144
1054.270178	-2.993300	3.616600	-10.824000	24.990802	0.000934	20.749201
1055.269882	-2.986800	3.615700	-10.799000	25.006131	0.000933	20.724283
1056.268545	-3.001400	3.614200	-10.847000	25.007783	0.000932	20.748228
1057.272604	-2.995400	3.612900	-10.822000	24.981452	0.000933	20.723694
1058.270745	-2.978500	3.615400	-10.767000	24.993318	0.000933	20.734656
1059.267685	-2.975400	3.615600	-10.757000	24.999305	0.000932	20.725018
1060.272954	-2.964400	3.614900	-10.715000	24.975987	0.000931	20.731958
1061.270404	-2.975500	3.612700	-10.748000	24.988447	0.000930	20.734034
1062.270171	-2.969900	3.613800	-10.731000	25.009053	0.000929	20.740968
1063.273293	-3.051500	3.610900	-11.018000	25.010568	0.000930	20.753869
1064.272513	-2.991300	3.612500	-10.804000	25.020789	0.000929	20.741842
1065.270440	-3.016500	3.611200	-10.892000	24.991127	0.000930	20.744312
1066.274943	-3.036100	3.610500	-10.961000	25.018672	0.000928	20.754891
1067.272493	-3.011300	3.610100	-10.870000	25.030033	0.000929	20.738319
1068.272014	-2.993100	3.610700	-10.806000	25.039309	0.000929	20.731035
1069.276063	-2.987600	3.611400	-10.788000	25.060166	0.000929	20.740118
1070.275725	-3.012300	3.609700	-10.872000	25.100812	0.000927	20.733030
1071.273893	-3.012700	3.608800	-10.871000	25.130170	0.000927	20.732155
1072.275138	-3.034000	3.609200	-10.949000	25.120619	0.000926	20.738688
1073.274006	-2.998700	3.609200	-10.822000	25.079998	0.000926	20.746275
1074.272547	-3.001300	3.609400	-10.831000	25.052056	0.000927	20.731027
1075.275650	-3.009700	3.609000	-10.861000	25.034603	0.000925	20.738639
1076.272923	-3.002600	3.608400	-10.833000	25.003395	0.000924	20.721062
1077.274350	-3.012000	3.607600	-10.865000	24.972267	0.000924	20.757149
1078.274185	-3.001600	3.608800	-10.832000	24.983807	0.000925	20.738860
1079.274921	-3.005200	3.606700	-10.837000	24.996260	0.000923	20.760370
1080.274837	-2.992600	3.607400	-10.794000	24.954347	0.000927	20.754336
1081.280209	-2.997400	3.608200	-10.814000	24.971819	0.000925	20.759070
1082.282891	-3.016100	3.606100	-10.875000	24.981690	0.000924	20.751909
1083.276829	-2.995500	3.605600	-10.799000	24.994794	0.000925	20.768856
1084.278389	-2.997500	3.606500	-10.810000	25.018332	0.000920	20.752179
1085.277347	-3.026000	3.604700	-10.906000	25.016933	0.000923	20.769266
1086.277231	-2.997300	3.605000	-10.804000	25.025964	0.000921	20.749408
1087.278879	-3.004900	3.605800	-10.833000	25.064609	0.000921	20.756432
1088.279219	-3.013500	3.604400	-10.860000	25.092583	0.000919	20.772659
1089.280668	-3.002800	3.604700	-10.821000	25.114132	0.000920	20.757307
1090.282581	-2.997500	3.603500	-10.800000	25.135785	0.000918	20.761026
1091.281198	-2.997700	3.603300	-10.801000	25.160167	0.000918	20.746148
1092.279763	-3.002300	3.605100	-10.823000	25.155314	0.000918	20.764036
1093.284470	-3.007800	3.604000	-10.839000	25.138962	0.000919	20.764215
1094.284575	-3.000700	3.603900	-10.814000	25.179223	0.000917	20.761486
1095.291918	-3.005500	3.603000	-10.828000	25.168742	0.000916	20.769456
1096.286279	-3.015400	3.602200	-10.861000	25.160957	0.000916	20.775866
1097.290214	-3.025900	3.601400	-10.897000	25.187154	0.000917	20.758069
1098.283468	-3.012700	3.602000	-10.850000	25.182837	0.000914	20.772227
1099.291250	-3.017700	3.600700	-10.865000	25.163595	0.000915	20.776617
1100.288444	-2.990500	3.602100	-10.771000	25.105997	0.000913	20.782806
1101.283244	-3.018400	3.599800	-10.865000	25.111046	0.000913	20.756105
1102.288988	-2.979200	3.603000	-10.733000	25.112137	0.000916	20.770952
1103.289227	-3.010800	3.600300	-10.839000	25.136226	0.000912	20.769530
1104.295965	-3.021600	3.600500	-10.878000	25.144108	0.000912	20.789297
1105.288282	-3.010300	3.599800	-10.836000	25.169742	0.000914	20.785634
1106.287991	-3.021200	3.599600	-10.874000	25.204245	0.000913	20.779020
1107.285922	-3.020900	3.599300	-10.872000	25.228436	0.000911	20.774384
1108.288051	-3.029200	3.597500	-10.896000	25.249339	0.000910	20.763601
1109.288534	-2.983400	3.599200	-10.737000	25.269923	0.000912	20.770517
1110.285644	-3.010000	3.597300	-10.826000	25.289943	0.000910	20.775445
1111.286851	-2.996600	3.597900	-10.780000	25.301214	0.000909	20.770640
1112.287851	-3.006400	3.598100	-10.815000	25.311887	0.000910	20.784201
1113.284907	-2.982500	3.598000	-10.730000	25.298468	0.000909	20.780685
1114.288112	-3.013700	3.596300	-10.837000	25.300805	0.000908	20.784928
1115.287075	-3.012100	3.596400	-10.831000	25.281523	0.000910	20.796863
1116.286137	-2.992100	3.595900	-10.759000	25.258620	0.000906	20.796153
1117.289742	-3.003900	3.596300	-10.801000	25.276524	0.000908	20.780938
1118.292551	-2.992600	3.596400	-10.762000	25.270514	0.000907	20.785336
1119.288513	-3.018900	3.594900	-10.852000	25.283860	0.000909	20.775975
1120.290781	-2.991500	3.595300	-10.755000	25.280033	0.000907	20.808169
1121.292154	-3.026900	3.595200	-10.882000	25.308018	0.000907	20.799283
1122.288442	-3.005300	3.595000	-10.803000	25.292059	0.000906	20.788950
1123.292349	-3.004300	3.593500	-10.795000	25.326208	0.000905	20.792416
1124.290975	-3.000500	3.594700	-10.785000	25.320328	0.000905	20.800737
1125.291279	-3.018700	3.593700	-10.848000	25.323626	0.000905	20.785083
1126.291925	-2.993400	3.594900	-10.759000	25.327152	0.000906	20.805218
1127.295373	-3.010800	3.592800	-10.817000	25.336328	0.000902	20.783137
1128.291672	-3.013100	3.591800	-10.820000	25.346139	0.000905	20.794411
1129.293273	-3.021900	3.591500	-10.851000	25.327023	0.000905	20.792286
1130.294997	-3.002900	3.591800	-10.785000	25.331476	0.000902	20.822836
1131.292538	-3.000300	3.591500	-10.774000	25.326631	0.000900	20.789996
1132.298799	-3.003300	3.591700	-10.784000	25.350292	0.000902	20.812805
1133.291314	-3.004200	3.591300	-10.788000	25.334953	0.000901	20.801197
1134.293599	-2.982600	3.592000	-10.712000	25.367561	0.000899	20.802170
1135.295029	-3.014800	3.591700	-10.828000	25.345734	0.000900	20.784046
1136.296597	-3.014000	3.590400	-10.820000	25.333707	0.000899	20.815119
1137.293999	-3.021000	3.588300	-10.839000	25.339839	0.000899	20.805629
1138.297103	-3.009400	3.588600	-10.799000	25.371804	0.000897	20.805956
1139.296868	-3.028200	3.589300	-10.869000	25.336233	0.000898	20.815758
1140.295085	-3.022200	3.588700	-10.845000	25.324892	0.000899	20.819070
1141.296849	-3.032500	3.588200	-10.880000	25.314356	0.000898	20.816078
1142.294853	-3.018800	3.587600	-10.830000	25.338545	0.000895	20.809071
1143.296545	-3.009400	3.587200	-10.794000	25.327050	0.000895	20.806064
1144.300995	-2.991500	3.587500	-10.731000	25.327474	0.000894	20.821662
1145.301078	-2.999700	3.588800	-10.764000	25.349416	0.000897	20.818564
1146.301737	-2.994800	3.588200	-10.745000	25.335396	0.000894	20.817289
1147.301463	-2.989400	3.587800	-10.725000	25.295329	0.000893	20.809777
1148.300105	-3.008100	3.586800	-10.788000	25.306044	0.000893	20.821009
1149.298657	-3.003700	3.584500	-10.766000	25.292366	0.000893	20.824819
1150.302289	-3.003400	3.585400	-10.767000	25.276341	0.000890	20.830541
1151.301116	-2.987700	3.586500	-10.714000	25.245116	0.000890	20.821001
1152.298341	-3.013500	3.585500	-10.802000	25.233610	0.000889	20.816562
1153.302279	-3.001600	3.584600	-10.758000	25.232788	0.000889	20.816685
1154.302589	-3.012000	3.584400	-10.795000	25.262817	0.000888	20.818859
1155.297752	-2.979200	3.586100	-10.682000	25.280462	0.000888	20.825669
1156.303498	-3.008200	3.585000	-10.783000	25.269632	0.000889	20.831865
1157.305327	-2.999700	3.583700	-10.749000	25.287455	0.000887	20.836957
1158.300112	-2.987700	3.583900	-10.706000	25.283394	0.000888	20.820552
1159.304160	-2.994400	3.583300	-10.729000	25.312876	0.000887	20.821704
1160.306112	-3.005800	3.582400	-10.767000	25.314317	0.000888	20.836427
1161.302282	-3.007500	3.581900	-10.772000	25.335722	0.000886	20.827099
1162.305893	-2.990500	3.581900	-10.711000	25.331650	0.000885	20.829174
1163.305715	-2.999600	3.582500	-10.744000	25.335152	0.000885	20.813250
1164.302620	-2.976600	3.581600	-10.660000	25.359512	0.000885	20.830123
1165.305612	-3.002300	3.580000	-10.747000	25.383546	0.000885	20.831022
1166.304558	-3.019600	3.579700	-10.807000	25.382577	0.000884	20.842377
1167.304935	-3.019900	3.580100	-10.811000	25.432133	0.000884	20.832395
1168.316115	-2.974300	3.580500	-10.648000	25.404868	0.000883	20.838682
1169.310701	-2.987100	3.580500	-10.695000	25.423456	0.000883	20.827000
1170.307523	-2.995200	3.579100	-10.719000	25.395026	0.000882	20.847764
1171.309669	-3.010500	3.579000	-10.773000	25.389457	0.000881	20.831742
1172.311079	-3.009400	3.579200	-10.770000	25.372482	0.000880	20.841723
1173.308606	-2.996800	3.578200	-10.722000	25.355905	0.000882	20.833614
1174.308958	-3.038400	3.576600	-10.865000	25.352379	0.000879	20.835763
1175.310629	-3.010100	3.577400	-10.767000	25.370488	0.000878	20.862954
1176.308617	-3.046300	3.575900	-10.893000	25.394350	0.000880	20.847086
1177.310904	-3.001300	3.578200	-10.737000	25.381447	0.000881	20.822276
1178.311447	-3.003000	3.578200	-10.744000	25.379736	0.000878	20.829568
1179.310023	-2.996200	3.577700	-10.718000	25.407743	0.000879	20.850103
1180.312668	-2.995400	3.576400	-10.712000	25.388750	0.000878	20.848575
1181.312032	-3.027600	3.575000	-10.823000	25.391332	0.000877	20.848796
1182.311168	-3.010500	3.576000	-10.765000	25.396445	0.000875	20.841603
1183.312836	-2.961200	3.575800	-10.588000	25.403308	0.000877	20.844227
1184.313988	-2.978200	3.576700	-10.651000	25.419387	0.000875	20.840933
1185.310925	-3.002800	3.574900	-10.735000	25.435442	0.000876	20.839510
1186.314487	-3.000200	3.575600	-10.726000	25.476270	0.000873	20.839732
1187.316110	-3.009100	3.573500	-10.752000	25.468113	0.000874	20.856196
1188.311840	-2.999700	3.574600	-10.721000	25.484419	0.000874	20.862139
1189.313807	-3.010800	3.573000	-10.756000	25.466616	0.000872	20.843314
1190.315094	-3.007400	3.574100	-10.747000	25.438212	0.000873	20.845136
1191.314034	-2.998700	3.573300	-10.715000	25.443805	0.000871	20.828942
1192.314767	-3.004800	3.573400	-10.736000	25.433539	0.000870	20.825746
1193.320546	-2.989700	3.572900	-10.681000	25.424242	0.000870	20.829687
1194.313278	-2.978100	3.572800	-10.638000	25.428695	0.000870	20.845063
1195.319370	-2.973200	3.573300	-10.623000	25.411370	0.000869	20.812020
1196.318296	-2.988800	3.572600	-10.677000	25.407096	0.000871	20.846608
1197.314971	-3.033000	3.570800	-10.828000	25.371453	0.000870	20.839742
1198.318213	-2.989900	3.570400	-10.674000	25.393028	0.000868	20.837224
1199.319321	-3.013100	3.569500	-10.754000	25.416166	0.000870	20.819680
1200.314712	-3.002700	3.571300	-10.722000	25.430478	0.000866	20.844957
1201.318466	-2.965700	3.571200	-10.589000	25.449170	0.000867	20.833856
1202.317437	-3.026300	3.570100	-10.804000	25.436169	0.000866	20.825068
1203.316151	-2.984700	3.570100	-10.654000	25.440093	0.000868	20.826638
1204.322232	-2.988000	3.570100	-10.667000	25.423696	0.000867	20.833880
1205.317489	-2.988900	3.568800	-10.666000	25.414406	0.000865	20.827397
1206.315695	-2.993800	3.568300	-10.682000	25.416970	0.000863	20.829497
1207.318910	-2.975100	3.568200	-10.614000	25.396812	0.000865	20.822058
1208.317232	-3.015400	3.566700	-10.753000	25.381499	0.000864	20.813320
1209.315866	-3.016700	3.567300	-10.760000	25.405134	0.000864	20.823302
1210.349628	-3.025000	3.567000	-10.789000	25.414406	0.000865	20.816491
1211.316628	-3.020500	3.565700	-10.767000	25.429671	0.000864	20.810956
1212.315213	-2.995100	3.567600	-10.685000	25.450919	0.000862	20.813327
1213.316192	-2.993600	3.568500	-10.681000	25.426211	0.000862	20.808905
1214.317876	-3.006400	3.565200	-10.718000	25.434791	0.000862	20.811357
1215.316780	-2.998700	3.565700	-10.691000	25.441353	0.000863	20.818420
1216.317073	-3.001500	3.565400	-10.701000	25.428856	0.000861	20.822466
1217.317160	-3.023700	3.564600	-10.776000	25.406379	0.000860	20.816491
1218.314538	-2.988000	3.564300	-10.650000	25.396900	0.000859	20.799861
1219.315698	-3.006100	3.564100	-10.713000	25.404767	0.000858	20.794958
1220.317374	-3.014000	3.564000	-10.740000	25.402430	0.000858	20.810630
1221.315155	-3.002300	3.563300	-10.697000	25.406159	0.000858	20.818641
1222.320117	-2.995400	3.563600	-10.674000	25.397267	0.000857	20.784583
1223.317021	-3.017000	3.563800	-10.751000	25.359263	0.000856	20.810907
1224.317219	-2.979500	3.563000	-10.615000	25.368812	0.000854	20.803426
1225.317245	-3.031100	3.562000	-10.796000	25.344306	0.000856	20.800630
1226.317497	-2.992900	3.562900	-10.661000	25.302472	0.000854	20.781861
1227.315857	-3.023000	3.562600	-10.769000	25.294623	0.000853	20.801006
1228.318221	-2.997200	3.562000	-10.676000	25.275953	0.000854	20.801702
1229.317451	-2.998400	3.562000	-10.679000	25.267672	0.000854	20.811880
1230.315098	-3.036700	3.558500	-10.804000	25.235086	0.000852	20.803820
1231.319614	-2.979400	3.561200	-10.609000	25.250695	0.000854	20.793413
1232.319107	-2.981500	3.561000	-10.617000	25.248757	0.000853	20.779613
1233.316010	-3.008200	3.559200	-10.706000	25.262306	0.000853	20.810760
1234.318803	-2.981100	3.560100	-10.612000	25.325231	0.000851	20.786219
1235.319704	-2.982400	3.561000	-10.618000	25.340570	0.000851	20.790241
1236.317753	-3.001400	3.559700	-10.683000	25.366014	0.000852	20.784021
1237.320012	-3.009100	3.557600	-10.704000	25.379488	0.000851	20.788541
1238.318089	-3.018400	3.558900	-10.740000	25.392409	0.000850	20.804834
1239.318182	-2.986900	3.558400	-10.627000	25.366811	0.000849	20.788615
1240.319647	-2.996500	3.556600	-10.657000	25.388183	0.000849	20.792057
1241.319770	-3.009700	3.557300	-10.704000	25.372219	0.000849	20.777449
1242.319783	-3.016900	3.558000	-10.731000	25.378935	0.000848	20.798417
1243.322201	-2.999000	3.557900	-10.670000	25.386711	0.000849	20.796268
1244.321111	-3.002400	3.556700	-10.677000	25.381957	0.000846	20.785331
1245.320851	-2.995700	3.558000	-10.658000	25.411591	0.000847	20.767197
1246.322561	-3.018800	3.556300	-10.736000	25.403091	0.000847	20.791853
1247.321983	-3.012700	3.556500	-10.714000	25.404273	0.000845	20.789721
1248.321103	-3.006700	3.555600	-10.689000	25.438670	0.000846	20.803398
1249.321914	-2.999700	3.556300	-10.667000	25.432685	0.000844	20.783164
1250.326901	-3.014800	3.555000	-10.715000	25.417820	0.000846	20.787677
1251.322779	-3.001100	3.556000	-10.670000	25.394217	0.000843	20.774882
1252.325845	-2.989500	3.555500	-10.627000	25.414766	0.000842	20.764696
1253.322970	-3.006500	3.555800	-10.689000	25.410321	0.000841	20.784414
1254.323622	-3.001600	3.554300	-10.667000	25.448960	0.000842	20.774850
1255.322966	-3.000500	3.553200	-10.660000	25.434941	0.000842	20.778317
1256.323079	-3.010300	3.552800	-10.693000	25.437579	0.000841	20.792345
1257.325337	-3.016300	3.552100	-10.713000	25.421199	0.000841	20.771629
1258.328650	-3.005300	3.553000	-10.677000	25.418194	0.000841	20.772880
1259.324422	-3.013300	3.553100	-10.705000	25.367017	0.000838	20.776019
1260.324167	-3.008900	3.551400	-10.685000	25.362050	0.000838	20.776248
1261.325760	-3.001000	3.551300	-10.655000	25.316496	0.000839	20.773656
1262.324834	-3.011900	3.550700	-10.694000	25.279059	0.000836	20.771629
1263.324241	-3.003000	3.551800	-10.665000	25.227379	0.000838	20.778538
1264.327085	-2.983700	3.552000	-10.597000	25.219308	0.000837	20.787505
1265.325709	-2.992800	3.550000	-10.622000	25.181021	0.000836	20.774671
1266.325687	-3.000700	3.549600	-10.650000	25.215376	0.000835	20.784979
1267.327569	-2.992000	3.549500	-10.619000	25.240365	0.000835	20.774980
1268.326703	-2.992500	3.550400	-10.623000	25.267578	0.000832	20.781913
1269.327124	-2.985200	3.548900	-10.593000	25.305732	0.000832	20.793669
1270.326789	-2.993900	3.550800	-10.630000	25.342143	0.000833	20.763372
1271.326097	-2.984900	3.547100	-10.586000	25.376567	0.000831	20.775177
1272.327258	-2.993200	3.549800	-10.624000	25.417330	0.000832	20.759684
1273.331182	-3.007900	3.547200	-10.668000	25.418740	0.000830	20.748297
1274.326146	-3.038600	3.546100	-10.773000	25.421157	0.000831	20.767794
1275.326951	-3.031300	3.546300	-10.748000	25.426855	0.000830	20.782525
1276.328464	-3.017700	3.545100	-10.697000	25.401104	0.000832	20.763779
1277.325357	-3.000900	3.547000	-10.643000	25.401853	0.000832	20.752203
1278.325950	-3.003200	3.546700	-10.650000	25.362505	0.000830	20.780024
1279.327603	-3.011200	3.546300	-10.677000	25.324125	0.000828	20.767565
1280.326509	-3.007900	3.546100	-10.665000	25.354883	0.000830	20.760516
1281.327720	-3.014300	3.545100	-10.684000	25.381076	0.000830	20.784446
1282.328055	-2.982700	3.546000	-10.576000	25.384773	0.000827	20.755441
1283.328950	-2.970200	3.546200	-10.532000	25.390674	0.000827	20.767056
1284.330406	-2.992900	3.544900	-10.608000	25.416652	0.000827	20.765641
1285.330810	-3.002000	3.544000	-10.638000	25.437925	0.000826	20.782261
1286.330583	-3.013600	3.542700	-10.675000	25.449527	0.000826	20.750763
1287.330019	-3.014500	3.541400	-10.674000	25.438268	0.000824	20.770751
1288.329845	-3.008300	3.541900	-10.653000	25.437950	0.000824	20.752888
1289.330030	-3.000000	3.542400	-10.626000	25.437495	0.000824	20.779933
1290.328479	-2.998000	3.541900	-10.618000	25.462454	0.000824	20.761374
1291.330849	-2.980000	3.543000	-10.558000	25.407656	0.000823	20.759452
1292.330641	-2.994600	3.541000	-10.602000	25.394133	0.000824	20.756305
1293.332867	-2.985600	3.542200	-10.575000	25.410594	0.000822	20.747229
1294.332475	-3.002900	3.540800	-10.632000	25.423759	0.000821	20.755708
1295.332508	-3.010500	3.542000	-10.661000	25.421920	0.000821	20.760499
1296.332407	-3.011700	3.540900	-10.664000	25.427292	0.000822	20.746453
1297.333374	-2.998700	3.540200	-10.614000	25.462339	0.000819	20.745610
1298.333413	-3.003200	3.539500	-10.628000	25.466190	0.000819	20.769392
1299.337068	-3.019200	3.539500	-10.685000	25.476903	0.000821	20.754072
1300.334223	-2.999100	3.540600	-10.618000	25.500829	0.000819	20.760555
1301.342522	-2.961600	3.539800	-10.481000	25.519551	0.000817	20.769874
1302.337482	-2.993800	3.538800	-10.593000	25.478718	0.000818	20.741195
1303.334275	-2.982400	3.538700	-10.553000	25.502358	0.000818	20.736959
1304.336237	-2.984900	3.538400	-10.561000	25.468834	0.000815	20.763987
1305.337151	-3.007300	3.536400	-10.634000	25.460286	0.000817	20.748764
1306.336102	-3.026100	3.535900	-10.699000	25.467418	0.000815	20.763987
1307.340738	-3.024400	3.534900	-10.690000	25.491848	0.000815	20.757700
1308.336771	-3.001800	3.536500	-10.616000	25.495227	0.000816	20.754455
1309.337449	-2.993900	3.535800	-10.585000	25.525242	0.000813	20.745716
1310.341532	-2.982600	3.535200	-10.541000	25.498133	0.000816	20.745045
1311.338995	-2.975200	3.536700	-10.520000	25.487445	0.000815	20.743320
1312.337806	-2.992400	3.535900	-10.580000	25.450982	0.000814	20.752698
1313.345505	-2.988800	3.535600	-10.566000	25.453700	0.000812	20.736935
1314.338297	-3.013600	3.534800	-10.651000	25.466596	0.000810	20.734711
1315.341101	-3.016200	3.533600	-10.658000	25.472832	0.000810	20.733861
1316.344706	-3.005300	3.534300	-10.620000	25.479085	0.000810	20.753418
1317.341455	-3.008000	3.534300	-10.630000	25.430801	0.000810	20.760882
1318.342753	-3.019900	3.533600	-10.671000	25.405026	0.000810	20.742112
1319.343814	-3.025200	3.531500	-10.682000	25.389883	0.000809	20.757728
1320.340869	-3.008700	3.533400	-10.629000	25.392839	0.000809	20.742677
1321.340181	-3.020000	3.532000	-10.664000	25.445008	0.000808	20.738164
1322.341577	-2.994600	3.532600	-10.578000	25.436673	0.000805	20.753976
1323.340034	-3.017300	3.530200	-10.649000	25.472055	0.000808	20.743987
1324.343889	-2.969000	3.532800	-10.489000	25.480585	0.000807	20.750657
1325.344146	-2.985500	3.533300	-10.547000	25.507646	0.000806	20.737528
1326.341146	-3.006200	3.530300	-10.611000	25.506750	0.000806	20.742793
1327.341946	-2.996400	3.531200	-10.580000	25.509030	0.000807	20.755515
1328.344905	-2.990600	3.531000	-10.559000	25.548827	0.000803	20.754229
1329.343071	-2.989700	3.530100	-10.552000	25.557189	0.000805	20.728961
1330.343354	-2.988500	3.529700	-10.548000	25.558679	0.000803	20.723344
1331.350739	-2.984200	3.529000	-10.530000	25.530302	0.000804	20.733727
1332.342907	-3.028800	3.528300	-10.684000	25.508656	0.000802	20.724791
1333.343812	-3.004900	3.528000	-10.600000	25.489469	0.000802	20.721644
1334.346199	-2.991800	3.529300	-10.558000	25.495257	0.000803	20.725086
1335.343603	-3.026500	3.527500	-10.675000	25.515014	0.000801	20.725013
1336.344210	-2.988000	3.528300	-10.542000	25.551835	0.000802	20.713151
1337.345700	-3.032700	3.525500	-10.689000	25.573462	0.000799	20.718276
1338.344335	-3.005700	3.526300	-10.599000	25.549880	0.000798	20.740113
1339.344687	-3.009700	3.527300	-10.615000	25.515340	0.000799	20.726288
1340.348095	-3.004100	3.524900	-10.589000	25.501892	0.000798	20.727482
1341.345133	-3.002400	3.525000	-10.583000	25.440901	0.000799	20.731194
1342.345087	-3.006400	3.526000	-10.600000	25.457557	0.000798	20.713780
1343.346978	-3.016900	3.525000	-10.633000	25.490854	0.000795	20.722087
1344.345898	-2.990000	3.525400	-10.539000	25.488713	0.000796	20.716144
1345.349423	-3.009900	3.524200	-10.606000	25.520673	0.000796	20.722635
1346.348709	-3.009400	3.523500	-10.603000	25.505337	0.000794	20.723355
1347.347640	-2.997100	3.522500	-10.556000	25.485205	0.000793	20.715940
1348.348162	-2.997600	3.523300	-10.560000	25.485628	0.000793	20.728219
1349.349468	-3.013800	3.522700	-10.616000	25.508464	0.000794	20.721753
1350.348187	-3.010200	3.521500	-10.600000	25.515018	0.000790	20.716481
1351.347029	-3.010000	3.522300	-10.601000	25.475332	0.000793	20.715033
1352.352258	-3.002000	3.521200	-10.570000	25.460044	0.000792	20.746624
1353.359258	-2.996400	3.522800	-10.555000	25.459865	0.000790	20.735539
1354.348430	-3.000500	3.520300	-10.562000	25.468137	0.000790	20.702592
1355.362430	-3.001000	3.520200	-10.563000	25.447809	0.000791	20.726751
1356.347428	-3.014700	3.520900	-10.614000	25.452751	0.000789	20.735033
1357.349695	-3.016300	3.518600	-10.612000	25.488800	0.000789	20.733301
1358.352238	-2.998100	3.521700	-10.557000	25.531245	0.000791	20.718553
1359.349217	-3.000100	3.519800	-10.559000	25.545312	0.000787	20.707074
1360.351241	-2.998400	3.519200	-10.550000	25.554601	0.000788	20.707868
1361.355162	-3.011300	3.517800	-10.592000	25.588122	0.000786	20.718774
1362.351613	-2.992500	3.517400	-10.525000	25.613592	0.000786	20.726810
1363.351862	-2.996100	3.517100	-10.536000	25.589132	0.000785	20.728798
1364.353153	-2.979700	3.519600	-10.486000	25.597777	0.000785	20.709504
1365.351936	-2.987000	3.517800	-10.507000	25.601799	0.000788	20.707853
1366.352868	-2.993800	3.517900	-10.531000	25.588457	0.000785	20.713421
1367.353777	-3.015300	3.516100	-10.601000	25.612853	0.000787	20.708998
1368.352826	-3.002800	3.515300	-10.553000	25.641645	0.000783	20.719423
1369.353526	-3.003000	3.515900	-10.557000	25.637990	0.000783	20.727133
1370.354475	-2.991100	3.515400	-10.513000	25.594255	0.000782	20.713080
1371.357478	-2.987100	3.517400	-10.503000	25.579896	0.000784	20.713357
1372.354055	-2.981200	3.516100	-10.481000	25.570405	0.000782	20.703824
1373.356995	-2.994000	3.515300	-10.524000	25.547287	0.000780	20.707635
1374.355664	-3.002100	3.514600	-10.550000	25.538568	0.000780	20.709311
1375.356778	-3.005100	3.513800	-10.558000	25.547207	0.000780	20.715616
1376.356153	-2.993600	3.513300	-10.516000	25.548746	0.000780	20.725697
1377.354872	-2.999700	3.513700	-10.538000	25.578417	0.000779	20.709975
1378.356949	-3.005200	3.513400	-10.557000	25.569544	0.000779	20.725247
1379.356390	-3.002400	3.512000	-10.542000	25.568421	0.000777	20.712739
1380.357863	-2.996500	3.511400	-10.519000	25.550382	0.000778	20.705528
1381.358043	-3.000100	3.512200	-10.535000	25.521826	0.000777	20.712886
1382.359225	-3.012300	3.510300	-10.573000	25.510683	0.000777	20.698850
1383.358721	-2.997000	3.511700	-10.523000	25.518693	0.000778	20.701678
1384.359075	-2.992900	3.510300	-10.505000	25.510309	0.000777	20.698949
1385.359327	-3.006300	3.509500	-10.550000	25.510169	0.000775	20.693592
1386.358401	-2.978100	3.509700	-10.451000	25.523554	0.000773	20.708457
1387.358746	-3.018800	3.509600	-10.594000	25.478797	0.000772	20.691959
1388.360666	-3.000400	3.508800	-10.527000	25.472431	0.000774	20.708801
1389.360551	-2.985600	3.509600	-10.477000	25.473554	0.000774	20.701393
1390.358754	-2.997900	3.509400	-10.520000	25.463949	0.000775	20.708345
1391.362279	-3.011500	3.508500	-10.563000	25.478930	0.000774	20.700628
1392.360147	-3.003200	3.508700	-10.536000	25.475086	0.000774	20.695819
1393.361142	-2.984100	3.508400	-10.468000	25.482836	0.000773	20.704551
1394.363214	-2.979400	3.508700	-10.453000	25.467947	0.000773	20.706669
1395.362642	-3.005400	3.505800	-10.534000	25.430190	0.000773	20.716170
1396.361995	-3.004600	3.508000	-10.540000	25.414664	0.000771	20.708165
1397.363565	-3.010300	3.505500	-10.551000	25.418808	0.000771	20.712328
1398.363676	-2.997300	3.506500	-10.509000	25.406734	0.000770	20.702574
1399.363894	-2.990300	3.505500	-10.481000	25.392015	0.000769	20.694906
1400.364518	-3.003800	3.505200	-10.528000	25.412670	0.000769	20.704267
1401.367993	-2.992200	3.504400	-10.483000	25.414975	0.000769	20.684294
1402.366889	-2.990100	3.505000	-10.479000	25.448200	0.000767	20.702486
1403.374678	-2.976700	3.505900	-10.435000	25.452816	0.000769	20.718977
1404.366134	-2.999300	3.503500	-10.507000	25.493913	0.000766	20.705243
1405.366149	-3.000100	3.504300	-10.513000	25.509966	0.000767	20.685327
1406.368775	-3.010400	3.502800	-10.544000	25.502859	0.000766	20.691467
1407.366230	-2.990900	3.504400	-10.480000	25.501492	0.000765	20.705268
1408.367150	-2.970500	3.503000	-10.404000	25.487467	0.000764	20.706356
1409.368870	-2.973700	3.502800	-10.415000	25.481525	0.000767	20.693750
1410.369928	-3.010800	3.501100	-10.540000	25.472480	0.000763	20.703160
1411.367236	-2.976900	3.501800	-10.423000	25.469787	0.000763	20.697610
1412.371498	-3.014500	3.500100	-10.550000	25.468842	0.000762	20.723691
1413.368498	-2.981700	3.502000	-10.441000	25.446723	0.000763	20.706219
1414.367626	-2.993900	3.500300	-10.478000	25.459042	0.000761	20.704839
1415.370357	-2.980000	3.500500	-10.430000	25.500520	0.000762	20.702394
1416.370397	-2.978200	3.500500	-10.424000	25.519773	0.000762	20.698021
1417.369559	-3.011900	3.500100	-10.542000	25.528744	0.000761	20.695650
1418.369041	-3.003900	3.498100	-10.505000	25.548819	0.000761	20.685464
1419.369863	-2.969900	3.500900	-10.395000	25.578416	0.000763	20.709500
1420.369218	-2.965000	3.498000	-10.371000	25.569796	0.000762	20.710800
1421.367249	-2.993200	3.499100	-10.472000	25.601127	0.000758	20.718085
1422.373032	-2.974400	3.498900	-10.406000	25.602047	0.000758	20.707154
1423.370276	-3.011500	3.498000	-10.533000	25.615714	0.000758	20.702387
1424.371383	-2.974700	3.497800	-10.404000	25.628282	0.000757	20.671385
1425.372556	-2.994600	3.496700	-10.470000	25.637749	0.000758	20.711242
1426.372436	-2.981500	3.497500	-10.426000	25.638570	0.000757	20.696419
1427.371516	-2.999300	3.496700	-10.487000	25.638245	0.000758	20.688506
1428.374127	-2.987900	3.496900	-10.448000	25.617871	0.000756	20.714038
1429.371917	-2.989000	3.496600	-10.449000	25.582382	0.000754	20.692619
1430.372913	-3.009200	3.496100	-10.519000	25.530423	0.000755	20.702078
1431.374289	-3.027400	3.494200	-10.577000	25.547168	0.000754	20.700877
1432.373127	-3.000100	3.493200	-10.478000	25.491153	0.000755	20.698678
1433.372861	-3.007700	3.493800	-10.507000	25.479097	0.000754	20.699374
1434.374575	-3.004100	3.492300	-10.490000	25.462155	0.000754	20.700852
1435.375268	-2.983900	3.495200	-10.427000	25.444156	0.000752	20.701270
1436.375822	-2.975200	3.495300	-10.397000	25.472039	0.000754	20.688017
1437.374883	-2.991100	3.491800	-10.443000	25.454495	0.000753	20.689366
1438.372889	-2.994500	3.491800	-10.455000	25.460878	0.000753	20.697673
1439.374756	-2.989800	3.491800	-10.438000	25.412586	0.000752	20.708924
1440.376739	-2.980900	3.491900	-10.408000	25.427199	0.000751	20.693725
1441.375450	-2.986800	3.491900	-10.429000	25.447797	0.000750	20.689279
1442.375688	-2.991100	3.490100	-10.438000	25.427941	0.000751	20.718654
1443.376461	-3.003700	3.491400	-10.486000	25.412065	0.000750	20.680897
1444.376823	-3.013600	3.490100	-10.517000	25.413800	0.000747	20.694969
1445.379253	-2.998600	3.489800	-10.464000	25.425727	0.000748	20.687979
1446.378000	-2.994300	3.488300	-10.443000	25.452341	0.000746	20.695264
1447.378817	-2.984800	3.489800	-10.414000	25.465562	0.000746	20.698583
1448.378908	-3.012400	3.488100	-10.506000	25.446601	0.000746	20.708468
1449.378142	-2.994700	3.489000	-10.447000	25.419361	0.000746	20.706244
1450.379457	-3.001600	3.487600	-10.467000	25.407150	0.000746	20.710104
1451.379515	-3.036400	3.485400	-10.581000	25.369699	0.000744	20.702844
1452.379055	-2.991100	3.487200	-10.430000	25.377377	0.000744	20.693009
1453.378508	-3.014400	3.486300	-10.509000	25.364596	0.000744	20.702935
1454.378699	-3.009000	3.486000	-10.489000	25.335821	0.000743	20.683051
1455.379908	-2.995800	3.485600	-10.441000	25.352024	0.000745	20.689363
1456.380342	-2.999300	3.484700	-10.451000	25.383491	0.000742	20.706736
1457.380630	-2.977900	3.486100	-10.379000	25.410946	0.000742	20.702535
1458.380400	-3.004000	3.484100	-10.465000	25.438780	0.000741	20.702036
1459.381214	-2.980900	3.483600	-10.382000	25.476555	0.000742	20.710097
1460.380940	-2.969400	3.485400	-10.348000	25.531741	0.000742	20.697238
1461.381453	-3.001500	3.483200	-10.454000	25.540167	0.000742	20.704751
1462.381051	-3.000200	3.483000	-10.449000	25.567127	0.000741	20.702430
1463.380470	-3.015000	3.482900	-10.498000	25.596773	0.000741	20.713238
1464.380815	-2.989800	3.483400	-10.413000	25.625908	0.000740	20.712627
1465.382904	-2.992800	3.483500	-10.425000	25.642358	0.000740	20.706388
1466.381757	-2.993500	3.483000	-10.425000	25.644848	0.000738	20.704621
1467.381254	-3.015400	3.480700	-10.494000	25.614909	0.000739	20.708692
1468.382701	-3.003700	3.482600	-10.460000	25.600120	0.000739	20.697632
1469.382910	-2.992900	3.481900	-10.420000	25.574356	0.000737	20.699258
1470.384225	-2.998200	3.480000	-10.433000	25.555740	0.000737	20.689096
1471.381447	-3.007800	3.480900	-10.468000	25.534316	0.000737	20.718791
1472.384367	-3.006600	3.478900	-10.458000	25.479797	0.000736	20.688696
1473.384214	-2.989200	3.479300	-10.399000	25.450613	0.000735	20.735732
1474.383756	-3.003600	3.478800	-10.448000	25.421198	0.000736	20.725633
1475.384765	-3.011300	3.478500	-10.474000	25.445052	0.000735	20.706438
1476.384882	-2.993300	3.477600	-10.408000	25.489363	0.000735	20.706364
1477.385643	-3.009100	3.477600	-10.464000	25.516699	0.000732	20.711056
1478.391002	-2.982300	3.478200	-10.371000	25.503601	0.000733	20.725879
1479.386490	-3.002800	3.476400	-10.437000	25.470518	0.000732	20.720632
1480.386195	-2.995500	3.476200	-10.412000	25.484764	0.000731	20.710754
1481.386613	-2.992200	3.476500	-10.402000	25.482672	0.000731	20.718612
1482.384425	-3.005900	3.475800	-10.445000	25.472144	0.000732	20.716575
1483.387217	-2.990600	3.475000	-10.392000	25.497586	0.000731	20.710828
1484.387998	-3.001500	3.473200	-10.424000	25.485830	0.000731	20.708032
1485.386874	-2.978800	3.474700	-10.350000	25.474474	0.000728	20.721759
1486.387986	-2.999400	3.473800	-10.418000	25.511075	0.000731	20.694976
1487.387916	-2.998500	3.473600	-10.414000	25.502828	0.000730	20.711826
1488.388895	-2.990300	3.473800	-10.387000	25.568040	0.000728	20.716624
1489.388654	-3.025700	3.473200	-10.508000	25.592811	0.000728	20.723958
1490.388081	-3.001200	3.473700	-10.425000	25.576685	0.000728	20.730523
1491.389163	-3.013400	3.473100	-10.465000	25.572087	0.000727	20.713101
1492.388393	-2.997500	3.471000	-10.403000	25.543311	0.000727	20.724032
1493.389227	-2.987800	3.473800	-10.377000	25.490486	0.000726	20.727407
1494.389158	-2.992800	3.472200	-10.390000	25.497635	0.000726	20.720361
1495.389601	-2.983800	3.470800	-10.355000	25.471812	0.000726	20.731889
1496.388605	-2.981200	3.471800	-10.349000	25.533892	0.000725	20.716469
1497.392864	-3.009900	3.470100	-10.443000	25.570418	0.000725	20.725177
1498.390170	-3.000500	3.470700	-10.411000	25.582841	0.000724	20.720108
1499.388533	-3.000300	3.470400	-10.411000	25.574993	0.000722	20.707010
1500.390108	-3.025800	3.467800	-10.492000	25.527657	0.000724	20.741977
1501.389804	-3.015900	3.468500	-10.460000	25.540723	0.000723	20.738503
1502.388300	-3.005900	3.468600	-10.424000	25.563385	0.000724	20.739925
1503.390934	-2.989800	3.469100	-10.370000	25.510953	0.000722	20.719511
1504.390434	-3.028500	3.466300	-10.496000	25.550809	0.000720	20.735830
1505.389234	-3.009300	3.467300	-10.433000	25.526632	0.000721	20.735257
1506.387429	-3.022500	3.467300	-10.479000	25.551827	0.000720	20.725946
1507.389713	-2.999600	3.466700	-10.398000	25.544622	0.000718	20.739100
1508.392405	-2.984100	3.465400	-10.339000	25.540814	0.000718	20.738120
1509.392751	-2.984600	3.466600	-10.345000	25.493256	0.000718	20.751527
1510.392207	-2.991700	3.466300	-10.369000	25.478097	0.000716	20.741994
1511.393958	-3.008200	3.464200	-10.419000	25.496690	0.000718	20.744070
1512.398955	-3.037300	3.465400	-10.524000	25.478888	0.000717	20.744685
1513.394905	-3.033800	3.463500	-10.507000	25.516507	0.000719	20.734098
1514.394842	-3.018200	3.464000	-10.454000	25.537428	0.000718	20.740410
1515.400229	-2.986100	3.466100	-10.348000	25.565879	0.000718	20.748120
1516.393158	-3.028300	3.464200	-10.489000	25.602852	0.000715	20.725507
1517.394043	-2.982600	3.463500	-10.329000	25.608094	0.000716	20.726979
1518.395136	-2.998300	3.462700	-10.380000	25.603918	0.000715	20.755977
1519.394765	-3.018500	3.462700	-10.450000	25.580533	0.000714	20.718264
1520.394982	-3.004100	3.462100	-10.399000	25.579379	0.000714	20.745082
1521.394868	-2.993900	3.461900	-10.363000	25.599711	0.000713	20.724250
1522.394860	-3.004200	3.461700	-10.398000	25.576896	0.000712	20.753020
1523.393394	-2.986600	3.462000	-10.338000	25.553436	0.000712	20.754590
1524.395113	-2.996800	3.461400	-10.373000	25.572818	0.000710	20.749399
1525.394137	-2.987000	3.459400	-10.333000	25.564411	0.000710	20.751387
1526.394073	-3.031500	3.459800	-10.486000	25.533494	0.000710	20.744994
1527.401452	-2.997800	3.459700	-10.371000	25.560724	0.000711	20.745788
1528.393209	-3.005900	3.458400	-10.395000	25.591241	0.000709	20.747039
1529.394860	-3.008400	3.457400	-10.400000	25.632437	0.000710	20.740997
1530.394475	-2.972500	3.458300	-10.279000	25.664558	0.000708	20.754292
1531.395085	-2.999300	3.458200	-10.371000	25.676986	0.000710	20.741169
1532.396509	-3.024900	3.457700	-10.458000	25.719619	0.000708	20.737049
1533.395346	-3.008700	3.457100	-10.400000	25.698394	0.000708	20.751292
1534.395525	-3.000700	3.457700	-10.374000	25.673471	0.000708	20.746175
1535.395915	-2.991200	3.457000	-10.340000	25.660001	0.000706	20.748767
1536.393703	-2.998400	3.457500	-10.365000	25.623111	0.000706	20.755338
1537.395403	-3.013300	3.455000	-10.410000	25.640394	0.000707	20.749462
1538.395961	-2.981100	3.456800	-10.305000	25.611473	0.000705	20.758349
1539.396833	-3.019600	3.455100	-10.432000	25.656494	0.000706	20.742873
1540.396297	-3.002600	3.455400	-10.374000	25.670908	0.000704	20.737436
1541.396349	-3.003600	3.453900	-10.372000	25.668492	0.000703	20.756347
1542.401967	-2.985500	3.454700	-10.313000	25.626941	0.000705	20.757288
1543.398221	-2.991500	3.454300	-10.333000	25.621754	0.000703	20.749708
1544.397524	-3.005900	3.453800	-10.381000	25.573574	0.000702	20.756322
1545.395487	-2.983000	3.453700	-10.299000	25.574756	0.000703	20.757984
1546.397026	-2.995900	3.453300	-10.345000	25.597467	0.000703	20.760878
1547.397695	-3.005200	3.451500	-10.372000	25.641667	0.000702	20.747896
1548.397334	-2.995700	3.451600	-10.339000	25.652679	0.000700	20.760853
1549.398172	-3.024000	3.450300	-10.431000	25.638142	0.000701	20.759055
1550.402561	-2.987800	3.452000	-10.312000	25.633162	0.000699	20.766382
1551.398413	-3.010300	3.450400	-10.386000	25.667926	0.000702	20.767158
1552.399213	-3.000500	3.450400	-10.352000	25.679948	0.000701	20.770699
1553.397847	-2.990400	3.450600	-10.318000	25.691033	0.000699	20.758124
1554.397232	-2.999200	3.449600	-10.345000	25.705587	0.000700	20.748560
1555.398938	-3.005700	3.450600	-10.369000	25.694925	0.000701	20.763456
1556.398027	-3.024900	3.447700	-10.427000	25.736932	0.000699	20.786209
1557.399602	-2.991500	3.448100	-10.314000	25.763888	0.000701	20.753067
1558.399147	-3.000700	3.448700	-10.347000	25.764703	0.000699	20.771904
1559.397918	-2.996400	3.447400	-10.329000	25.778871	0.000696	20.768117
1560.398897	-2.996600	3.447500	-10.329000	25.770392	0.000697	20.775247
1561.398803	-3.018400	3.446400	-10.401000	25.760895	0.000696	20.770450
1562.397794	-2.981900	3.447700	-10.279000	25.726142	0.000694	20.783431
1563.403364	-2.986000	3.446600	-10.290000	25.692293	0.000697	20.760338
1564.401322	-3.037700	3.444800	-10.462000	25.690306	0.000694	20.762610
1565.399984	-2.995000	3.445100	-10.317000	25.706252	0.000694	20.765824
1566.401222	-3.000000	3.444100	-10.331000	25.707515	0.000694	20.777998
1567.399775	-3.021200	3.444500	-10.406000	25.677253	0.000692	20.779371
1568.400534	-3.014200	3.443400	-10.378000	25.639332	0.000694	20.792493
1569.403262	-2.998400	3.444400	-10.327000	25.635076	0.000692	20.781107
1570.400352	-3.009900	3.443900	-10.364000	25.631023	0.000692	20.771820
1571.401309	-3.029400	3.442500	-10.427000	25.644438	0.000691	20.772965
1572.402727	-2.979700	3.443300	-10.259000	25.655688	0.000691	20.787583
1573.401505	-2.988100	3.442100	-10.284000	25.670665	0.000691	20.768961
1574.402930	-3.009900	3.442200	-10.360000	25.672627	0.000690	20.787527
1575.404767	-2.996400	3.442100	-10.312000	25.697119	0.000690	20.781307
1576.402964	-3.005800	3.441000	-10.342000	25.736252	0.000689	20.788370
1577.402285	-2.988100	3.442100	-10.285000	25.738042	0.000690	20.790643
1578.404103	-2.995500	3.442200	-10.310000	25.736416	0.000688	20.793277
1579.404103	-3.001200	3.439500	-10.322000	25.742595	0.000687	20.789052
1580.407412	-3.001100	3.439800	-10.320000	25.730322	0.000688	20.800906
1581.405248	-3.009800	3.438700	-10.349000	25.722388	0.000686	20.815696
1582.405045	-2.994100	3.439800	-10.298000	25.727770	0.000686	20.797869
1583.404700	-3.009300	3.440000	-10.351000	25.733581	0.000689	20.777627
1584.407910	-2.987500	3.439300	-10.274000	25.772688	0.000686	20.800787
1585.403711	-2.971500	3.438100	-10.214000	25.792556	0.000686	20.798933
1586.403988	-3.015300	3.438400	-10.364000	25.771877	0.000685	20.777213
1587.406522	-2.978700	3.439000	-10.243000	25.825909	0.000686	20.789289
1588.406583	-2.989900	3.437600	-10.276000	25.802528	0.000686	20.802312
1589.404109	-3.002200	3.436600	-10.315000	25.810221	0.000684	20.818100
1590.405850	-3.001200	3.437400	-10.315000	25.826882	0.000685	20.786473
1591.406760	-3.009100	3.435200	-10.336000	25.846112	0.000683	20.789194
1592.404687	-3.018800	3.434900	-10.368000	25.828843	0.000682	20.792236
1593.406504	-2.984600	3.436600	-10.255000	25.829627	0.000683	20.790653
1594.405769	-2.998600	3.435000	-10.299000	25.853822	0.000682	20.800259
1595.405557	-3.012100	3.434300	-10.343000	25.826340	0.000681	20.821490
1596.411084	-3.027100	3.433600	-10.393000	25.790515	0.000681	20.807789
1597.408275	-3.013700	3.433700	-10.347000	25.790435	0.000679	20.803915
1598.407438	-3.007200	3.434100	-10.325000	25.766207	0.000679	20.831735
1599.410764	-3.008800	3.433800	-10.330000	25.780344	0.000681	20.808478
1600.412234	-2.985700	3.432100	-10.246000	25.786498	0.000682	20.797590
1601.412760	-2.998900	3.432200	-10.292000	25.792880	0.000678	20.816802
1602.419251	-3.000800	3.433600	-10.302000	25.781537	0.000677	20.818211
1603.409021	-3.004700	3.432300	-10.310000	25.790384	0.000678	20.820933
1604.411308	-3.006300	3.431000	-10.314000	25.786160	0.000679	20.822380
1605.414031	-3.021000	3.430700	-10.362000	25.800216	0.000678	20.796197
1606.410951	-3.008800	3.430500	-10.319000	25.818146	0.000677	20.851664
1607.411479	-3.009300	3.430600	-10.322000	25.809104	0.000676	20.821246
1608.417432	-3.015400	3.428300	-10.337000	25.800926	0.000677	20.804971
1609.410851	-2.996000	3.429700	-10.274000	25.789615	0.000673	20.815420
1610.411049	-2.992100	3.430900	-10.265000	25.744894	0.000674	20.813172
1611.415663	-3.005700	3.429100	-10.305000	25.746408	0.000673	20.813270
1612.412782	-3.029100	3.426600	-10.377000	25.746604	0.000675	20.821528
1613.413454	-2.982500	3.430200	-10.230000	25.785182	0.000674	20.812863
1614.415679	-3.016800	3.427100	-10.337000	25.798847	0.000675	20.815209
1615.415542	-3.012800	3.427800	-10.325000	25.814301	0.000673	20.812241
1616.415351	-3.001000	3.426200	-10.280000	25.831685	0.000672	20.832075
1617.419978	-2.985400	3.427100	-10.230000	25.837986	0.000672	20.837930
1618.414271	-2.998400	3.425700	-10.270000	25.795137	0.000670	20.824759
1619.417293	-3.001000	3.426000	-10.280000	25.831378	0.000671	20.835085
1620.418306	-3.015100	3.426500	-10.330000	25.790214	0.000670	20.812228
1621.416021	-2.979700	3.426900	-10.208000	25.750716	0.000669	20.840831
1622.418391	-2.990300	3.424900	-10.241000	25.753720	0.000668	20.841951
1623.421782	-3.023400	3.422900	-10.347000	25.772130	0.000668	20.815874
1624.418835	-2.986400	3.424800	-10.227000	25.788896	0.000669	20.823706
1625.419802	-3.008500	3.424000	-10.300000	25.792280	0.000670	20.822364
1626.426805	-2.986300	3.423200	-10.222000	25.760004	0.000668	20.831194
1627.421981	-2.993200	3.423800	-10.248000	25.772154	0.000668	20.847191
1628.421227	-2.997600	3.423200	-10.260000	25.739908	0.000667	20.831397
1629.423269	-2.963600	3.423400	-10.144000	25.730859	0.000667	20.833213
1630.421339	-2.998000	3.422700	-10.260000	25.693240	0.000665	20.842369
1631.421732	-3.010400	3.420400	-10.296000	25.651574	0.000666	20.818065
1632.423990	-2.997000	3.423500	-10.259000	25.636443	0.000664	20.828472
1633.421019	-3.006400	3.420700	-10.283000	25.653855	0.000665	20.843114
1634.422096	-2.991800	3.420000	-10.230000	25.653561	0.000663	20.816267
1635.423594	-2.986400	3.420800	-10.215000	25.646461	0.000663	20.836637
1636.425003	-2.977800	3.420400	-10.185000	25.656988	0.000664	20.849580
1637.424467	-3.022500	3.418800	-10.332000	25.708672	0.000662	20.823730
1638.425622	-2.998600	3.419000	-10.251000	25.693394	0.000662	20.842050
1639.426038	-3.006300	3.418700	-10.277000	25.697017	0.000662	20.852800
1640.425633	-2.988900	3.418700	-10.217000	25.728775	0.000660	20.844396
1641.432760	-2.983700	3.418000	-10.198000	25.772902	0.000659	20.845098
1642.429132	-3.001200	3.418000	-10.256000	25.781945	0.000659	20.845646
1643.425938	-3.008000	3.417800	-10.279000	25.795903	0.000660	20.847813
1644.428811	-2.986800	3.417600	-10.206000	25.767955	0.000658	20.843447
1645.430243	-3.002600	3.416800	-10.259000	25.753143	0.000659	20.819562
1646.426787	-2.990000	3.417800	-10.218000	25.736027	0.000659	20.826551
1647.428993	-3.000300	3.417000	-10.251000	25.745884	0.000659	20.844986
1648.430181	-2.979000	3.416400	-10.176000	25.759801	0.000659	20.852326
1649.425892	-2.996600	3.415800	-10.234000	25.765091	0.000656	20.834882
1650.430432	-2.987000	3.416300	-10.203000	25.755381	0.000657	20.837456
1651.430667	-2.991500	3.415100	-10.215000	25.736971	0.000657	20.864481
1652.427215	-2.993800	3.414200	-10.221000	25.715361	0.000654	20.824285
1653.429843	-2.973500	3.415100	-10.154000	25.698556	0.000658	20.836803
1654.428960	-2.980000	3.414700	-10.175000	25.701136	0.000655	20.829912
1655.428333	-3.000700	3.413600	-10.243000	25.690530	0.000656	20.833484
1656.429274	-2.977900	3.413400	-10.164000	25.713294	0.000654	20.842598
1657.431260	-2.969200	3.412700	-10.132000	25.773116	0.000653	20.839623
1658.427429	-2.999500	3.413100	-10.237000	25.810652	0.000653	20.833231
1659.430385	-2.976000	3.412500	-10.155000	25.821613	0.000654	20.813896
1660.429065	-2.996700	3.411700	-10.223000	25.831763	0.000654	20.834050
1661.427927	-2.989700	3.411200	-10.197000	25.828312	0.000651	20.835324
1662.428941	-2.984700	3.410200	-10.177000	25.794131	0.000650	20.846033
1663.429143	-2.995800	3.410500	-10.215000	25.793204	0.000652	20.828508
1664.429563	-3.013900	3.409200	-10.275000	25.807672	0.000649	20.808428
1665.432708	-3.005700	3.410000	-10.248000	25.822047	0.000651	20.821445
1666.432238	-2.997100	3.409900	-10.219000	25.823991	0.000648	20.837147
1667.429085	-3.002900	3.407200	-10.230000	25.825253	0.000649	20.819924
1668.433889	-3.016100	3.408800	-10.280000	25.823463	0.000649	20.829505
1669.431482	-3.015600	3.407300	-10.274000	25.779564	0.000649	20.810539
1670.429841	-3.016500	3.408200	-10.279000	25.782176	0.000649	20.809844
1671.444073	-2.974600	3.407500	-10.134000	25.798145	0.000648	20.832048
1672.437285	-2.968800	3.409000	-10.118000	25.789330	0.000648	20.832676
1673.432615	-2.999800	3.407500	-10.221000	25.776334	0.000648	20.799708
1674.435244	-3.014600	3.406000	-10.267000	25.802571	0.000646	20.818003
1675.434190	-3.038100	3.404600	-10.342000	25.772116	0.000647	20.818705
1676.432656	-3.013900	3.405700	-10.264000	25.769970	0.000645	20.824609
1677.437179	-3.018200	3.404700	-10.275000	25.793830	0.000645	20.817757
1678.432129	-2.999400	3.405500	-10.213000	25.785701	0.000645	20.807220
1679.433169	-2.997300	3.405500	-10.206000	25.796680	0.000644	20.809714
1680.436984	-2.993500	3.405000	-10.192000	25.843141	0.000643	20.800909
1681.432957	-2.989500	3.406300	-10.181000	25.831953	0.000643	20.804369
1682.430749	-3.014100	3.403200	-10.256000	25.825743	0.000643	20.820416
1683.435863	-2.972600	3.404600	-10.119000	25.824382	0.000641	20.810989
1684.437328	-2.994100	3.403100	-10.188000	25.818890	0.000642	20.805471
1685.432305	-2.977900	3.403100	-10.133000	25.803295	0.000642	20.804979
1686.433930	-2.986000	3.402700	-10.160000	25.823187	0.000640	20.823538
1687.435459	-3.025600	3.401800	-10.292000	25.825026	0.000641	20.792669
1688.436383	-2.999300	3.402100	-10.204000	25.799120	0.000641	20.801260
1689.432262	-2.998000	3.402200	-10.199000	25.830991	0.000639	20.804351
1690.432857	-2.979900	3.401400	-10.135000	25.835735	0.000640	20.800108
1691.433428	-3.012300	3.399300	-10.239000	25.832676	0.000639	20.795138
1692.432078	-3.014900	3.400800	-10.252000	25.774844	0.000641	20.781616
1693.432529	-3.001800	3.400800	-10.208000	25.762522	0.000638	20.789627
1694.433405	-3.018300	3.399200	-10.259000	25.745007	0.000639	20.793371
1695.434485	-2.997000	3.399600	-10.188000	25.739783	0.000637	20.779590
1696.432454	-2.995500	3.401100	-10.187000	25.773967	0.000638	20.787847
1697.431078	-2.987500	3.399400	-10.155000	25.774040	0.000637	20.812577
1698.434031	-2.998300	3.399900	-10.193000	25.790960	0.000637	20.787373
1699.433677	-3.004400	3.397400	-10.206000	25.779257	0.000636	20.800274
1700.437139	-3.016500	3.397900	-10.249000	25.769320	0.000637	20.796930
1701.432621	-2.988400	3.397800	-10.153000	25.781212	0.000635	20.796073
1702.434396	-3.011600	3.396700	-10.228000	25.794251	0.000635	20.786885
1703.438658	-3.007300	3.396600	-10.214000	25.769509	0.000636	20.788585
1704.435890	-3.014700	3.397000	-10.240000	25.709072	0.000635	20.791417
1705.436161	-3.010900	3.395500	-10.223000	25.686290	0.000633	20.766637
1706.437218	-3.001900	3.395300	-10.192000	25.710660	0.000634	20.795856
1707.433891	-2.989500	3.395800	-10.151000	25.739449	0.000633	20.774987
1708.435633	-3.013400	3.393900	-10.227000	25.789762	0.000634	20.784273
1709.437685	-2.973800	3.395700	-10.097000	25.822546	0.000632	20.777375
1710.435606	-3.018400	3.394100	-10.244000	25.842916	0.000632	20.789777
1711.439503	-2.993400	3.393500	-10.158000	25.867687	0.000634	20.771513
1712.438907	-3.000500	3.394700	-10.183000	25.904919	0.000632	20.791372
1713.437522	-3.006000	3.393800	-10.201000	25.889686	0.000630	20.785078
1714.438439	-2.991900	3.393800	-10.153000	25.859031	0.000629	20.759972
1715.440303	-3.000100	3.392200	-10.176000	25.879271	0.000631	20.779357
1716.439683	-3.001700	3.392600	-10.182000	25.899487	0.000629	20.761258
1717.441249	-3.008800	3.391100	-10.201000	25.916968	0.000628	20.774553
1718.440297	-2.996700	3.392800	-10.166000	25.910238	0.000629	20.792922
1719.441129	-3.004800	3.391400	-10.189000	25.941308	0.000628	20.791893
1720.442204	-2.991900	3.391200	-10.145000	25.939990	0.000626	20.783457
1721.444406	-2.993900	3.389500	-10.147000	25.923912	0.000626	20.773942
1722.441825	-3.015500	3.390200	-10.222000	25.908532	0.000625	20.778881
1723.444912	-2.982700	3.390800	-10.112000	25.881101	0.000624	20.772187
1724.442319	-2.998400	3.389100	-10.161000	25.842275	0.000625	20.778702
1725.444591	-2.991900	3.389200	-10.139000	25.802594	0.000624	20.792421
1726.446542	-2.990700	3.389700	-10.136000	25.795115	0.000623	20.768313
1727.444888	-3.008300	3.389200	-10.194000	25.770115	0.000625	20.759796
1728.446834	-2.980800	3.388000	-10.098000	25.780346	0.000623	20.780979
1729.445946	-2.985900	3.387400	-10.113000	25.801410	0.000622	20.779378
1730.446943	-2.995100	3.386200	-10.141000	25.820242	0.000621	20.760362
1731.446772	-2.990200	3.387900	-10.130000	25.844958	0.000619	20.776181
1732.447518	-2.999200	3.386600	-10.156000	25.837553	0.000620	20.775855
1733.447318	-2.985400	3.386700	-10.110000	25.799116	0.000620	20.772806
1734.445209	-3.008900	3.385800	-10.186000	25.776207	0.000620	20.769709
1735.453789	-3.020400	3.384400	-10.221000	25.761525	0.000619	20.771556
1736.447309	-3.014000	3.386300	-10.204000	25.806791	0.000618	20.746376
1737.448721	-3.044000	3.384000	-10.300000	25.820627	0.000619	20.769758
1738.446952	-3.014700	3.385700	-10.206000	25.835609	0.000617	20.765367
1739.446871	-3.004100	3.384900	-10.168000	25.855206	0.000618	20.760872
1740.445725	-3.008500	3.384800	-10.183000	25.861091	0.000617	20.774844
1741.447549	-3.006400	3.383700	-10.172000	25.912789	0.000616	20.777942
1742.446739	-3.028300	3.382000	-10.240000	25.900714	0.000617	20.759646
1743.445809	-3.025100	3.383400	-10.234000	25.890079	0.000619	20.750384
1744.453850	-2.999400	3.382200	-10.143000	25.895148	0.000618	20.775392
1745.449419	-2.998500	3.381900	-10.140000	25.915548	0.000614	20.750840
1746.448071	-2.993800	3.383900	-10.129000	25.903766	0.000613	20.744694
1747.450002	-3.006000	3.382600	-10.167000	25.883023	0.000613	20.761789
1748.448828	-3.001300	3.382300	-10.149000	25.883642	0.000613	20.753876
1749.448771	-2.984400	3.381800	-10.090000	25.863738	0.000614	20.751424
1750.452026	-3.002600	3.379700	-10.146000	25.911930	0.000613	20.758112
1751.449230	-2.986400	3.381200	-10.097000	25.904875	0.000612	20.763827
1752.451829	-2.968900	3.381300	-10.038000	25.918740	0.000611	20.749306
1753.456815	-2.999600	3.379900	-10.138000	25.925268	0.000613	20.752545
1754.455554	-3.000200	3.379600	-10.138000	25.921045	0.000612	20.752570
1755.451420	-2.984700	3.379800	-10.087000	25.929215	0.000609	20.739915
1756.452202	-3.003300	3.378900	-10.146000	25.916423	0.000609	20.755039
1757.451301	-3.002200	3.378600	-10.142000	25.878713	0.000611	20.761252
1758.451515	-3.000900	3.378700	-10.137000	25.856896	0.000610	20.755931
1759.457074	-2.991800	3.378400	-10.106000	25.837967	0.000609	20.742605
1760.450706	-2.984000	3.378700	-10.082000	25.814360	0.000610	20.744970
1761.450060	-3.015700	3.377700	-10.185000	25.838010	0.000609	20.737432
1762.452844	-2.982600	3.377400	-10.073000	25.846604	0.000609	20.758394
1763.452729	-2.980700	3.377100	-10.065000	25.898541	0.000604	20.743239
1764.453055	-2.988000	3.376700	-10.089000	25.922882	0.000605	20.739242
1765.452403	-3.003600	3.376500	-10.140000	25.922434	0.000607	20.743060
1766.452816	-2.987200	3.375200	-10.081000	25.894888	0.000606	20.762803
1767.453925	-3.004300	3.375500	-10.140000	25.894654	0.000606	20.731272
1768.452304	-3.015700	3.375100	-10.177000	25.903395	0.000605	20.763288
1769.455067	-2.990300	3.375000	-10.091000	25.876100	0.000605	20.745350
1770.453487	-2.978200	3.375500	-10.052000	25.821438	0.000604	20.748287
1771.457348	-3.019900	3.372900	-10.184000	25.781959	0.000605	20.730441
1772.455163	-3.011600	3.373600	-10.159000	25.766431	0.000602	20.761311
1773.455895	-3.015600	3.372600	-10.170000	25.796862	0.000602	20.745885
1774.454690	-2.995300	3.372800	-10.100000	25.834243	0.000602	20.749296
1775.455263	-3.014300	3.372100	-10.164000	25.852173	0.000601	20.740754
1776.457804	-3.015300	3.372700	-10.169000	25.866763	0.000604	20.747824
1777.455888	-3.009800	3.371200	-10.146000	25.880413	0.000599	20.739726
1778.459695	-3.017400	3.370300	-10.168000	25.893482	0.000600	20.744320
1779.458922	-3.007400	3.371000	-10.137000	25.933998	0.000600	20.744246
1780.457340	-3.000800	3.371700	-10.117000	25.950609	0.000601	20.757140
1781.457990	-2.993300	3.370900	-10.089000	26.001150	0.000598	20.744380
1782.457847	-3.015300	3.371600	-10.165000	26.013469	0.000599	20.730678
1783.456981	-3.037100	3.370200	-10.235000	26.004674	0.000597	20.741757
1784.457995	-2.998500	3.370100	-10.105000	26.021713	0.000600	20.742754
1785.459301	-2.999300	3.369900	-10.107000	26.022656	0.000597	20.751289
1786.456821	-3.008400	3.370000	-10.138000	26.044628	0.000595	20.776210
1787.461491	-3.032100	3.369000	-10.215000	26.027240	0.000596	20.758266
1788.459795	-3.015400	3.369000	-10.157000	26.009993	0.000594	20.731453
1789.457213	-2.994600	3.369000	-10.088000	26.027926	0.000594	20.726711
1790.459911	-2.998800	3.367700	-10.099000	26.032345	0.000596	20.744428
1791.461691	-3.017000	3.368200	-10.159000	26.069700	0.000593	20.735967
1792.458232	-3.007200	3.367200	-10.125000	26.067806	0.000594	20.742124
1793.461331	-3.001300	3.367300	-10.105000	26.073640	0.000594	20.747987
1794.461111	-3.012600	3.367100	-10.141000	26.083673	0.000589	20.742894
1795.458926	-3.023300	3.366700	-10.177000	26.103413	0.000592	20.729062
1796.460812	-3.020600	3.365900	-10.167000	26.095733	0.000590	20.738890
1797.460008	-3.022500	3.363900	-10.167000	26.065979	0.000589	20.750720
1798.459530	-3.021600	3.364600	-10.165000	26.037608	0.000590	20.739284
1799.465847	-3.000700	3.364800	-10.096000	26.007404	0.000589	20.729801
1800.463627	-2.969400	3.365300	-9.992000	26.000399	0.000589	20.735091
1801.461819	-2.987200	3.365300	-10.051000	25.991149	0.000589	20.714891
1802.463225	-2.965100	3.366000	-9.978500	25.993932	0.000587	20.726696
1803.463970	-2.991400	3.364400	-10.063000	25.960246	0.000587	20.747856
1804.460510	-3.006600	3.363200	-10.110000	25.922335	0.000588	20.723044
1805.461863	-2.992400	3.363900	-10.064000	25.916818	0.000586	20.721295
1806.463366	-2.995600	3.362300	-10.072000	25.935446	0.000587	20.734794
1807.461813	-2.997100	3.364200	-10.082000	25.954275	0.000588	20.734270
1808.462365	-3.004800	3.361400	-10.100000	25.954999	0.000585	20.731204
1809.462798	-2.995400	3.363100	-10.073000	25.974839	0.000587	20.729799
1810.463427	-3.000400	3.362200	-10.087000	26.022278	0.000584	20.738581
1811.465979	-3.000800	3.361600	-10.086000	26.048381	0.000584	20.732564
1812.462475	-3.001600	3.361700	-10.090000	26.059658	0.000582	20.730144
1813.462430	-2.971700	3.361100	-9.987500	26.066136	0.000584	20.728592
1814.466364	-2.972200	3.361600	-9.990600	26.091888	0.000582	20.747355
1815.463216	-2.979300	3.359600	-10.008000	26.086575	0.000581	20.705504
1816.462953	-2.985900	3.359400	-10.029000	26.074501	0.000581	20.714237
1817.466073	-3.004200	3.361100	-10.097000	26.090423	0.000580	20.731184
1818.464933	-2.988600	3.359500	-10.039000	26.106829	0.000579	20.739608
1819.463716	-3.002000	3.358700	-10.082000	26.156359	0.000578	20.725364
1820.466251	-2.985200	3.359700	-10.029000	26.139414	0.000580	20.751961
1821.463098	-3.001200	3.358300	-10.077000	26.123125	0.000580	20.706668
1822.463481	-2.984000	3.358400	-10.021000	26.140235	0.000579	20.726707
1823.467246	-3.006800	3.358400	-10.095000	26.133727	0.000577	20.741505
1824.464067	-2.997100	3.357500	-10.062000	26.120703	0.000576	20.736005
1825.464462	-2.998000	3.357100	-10.064000	26.102226	0.000576	20.744940
1826.469759	-3.004800	3.357500	-10.087000	26.038984	0.000576	20.715061
1827.464824	-3.004900	3.355700	-10.083000	26.007469	0.000575	20.727969
1828.463405	-2.992800	3.357300	-10.047000	25.992808	0.000578	20.724144
1829.467857	-3.007900	3.355800	-10.092000	26.000978	0.000573	20.717179
1830.467135	-3.017200	3.355600	-10.124000	26.002614	0.000575	20.722142
1831.466366	-2.995100	3.356700	-10.053000	25.985501	0.000574	20.721071
1832.471209	-2.986800	3.353900	-10.016000	25.974279	0.000572	20.716434
1833.467544	-3.006500	3.354200	-10.083000	25.923172	0.000574	20.729101
1834.467978	-3.029500	3.354500	-10.161000	25.858656	0.000573	20.708859
1835.467524	-3.011500	3.354500	-10.101000	25.857314	0.000570	20.715097
1836.467441	-3.016100	3.353900	-10.115000	25.856646	0.000574	20.712055
1837.467367	-3.020500	3.353000	-10.126000	25.867998	0.000570	20.726305
1838.470172	-2.997200	3.353400	-10.049000	25.888220	0.000571	20.724809
1839.467178	-3.009500	3.353800	-10.092000	25.915809	0.000568	20.722653
1840.468515	-2.994000	3.353100	-10.037000	25.945526	0.000572	20.724531
1841.468863	-2.991800	3.352100	-10.029000	25.976822	0.000568	20.717092
1842.469761	-3.001500	3.350900	-10.056000	26.002429	0.000568	20.698248
1843.467177	-2.993500	3.352100	-10.032000	26.027883	0.000569	20.696794
1844.469090	-2.996500	3.352000	-10.042000	26.022545	0.000567	20.720830
1845.469729	-3.009100	3.351900	-10.086000	26.029078	0.000569	20.711272
1846.468955	-2.993700	3.351100	-10.031000	26.065312	0.000567	20.716858
1847.470186	-2.978000	3.350700	-9.975700	26.088257	0.000567	20.711937
1848.471753	-3.012300	3.349200	-10.087000	26.092008	0.000567	20.708119
1849.471429	-2.988200	3.349300	-10.007000	26.117165	0.000567	20.715379
1850.468002	-2.976100	3.348900	-9.965800	26.122583	0.000564	20.717504
1851.469100	-2.984200	3.349700	-9.995200	26.118054	0.000566	20.702521
1852.470125	-2.999300	3.347600	-10.039000	26.115848	0.000564	20.714055
1853.470574	-2.993200	3.348100	-10.020000	26.131732	0.000565	20.716266
1854.470454	-3.002100	3.347200	-10.048000	26.159107	0.000564	20.711056
1855.469416	-2.981300	3.349300	-9.984800	26.113702	0.000565	20.698148
1856.470501	-3.005300	3.347500	-10.060000	26.074112	0.000564	20.721907
1857.469786	-2.985500	3.346800	-9.990500	26.067425	0.000563	20.703807
1858.471058	-3.012600	3.346300	-10.081000	26.011689	0.000564	20.711345
1859.471477	-2.997200	3.345800	-10.027000	26.019681	0.000560	20.698511
1860.471372	-3.007000	3.345100	-10.058000	25.993553	0.000562	20.708296
1861.472062	-3.013700	3.344800	-10.078000	25.959793	0.000561	20.710889
1862.470825	-3.005500	3.345100	-10.052000	25.933755	0.000561	20.695634
1863.469779	-2.995300	3.346300	-10.022000	25.929182	0.000560	20.695782
1864.471973	-3.010900	3.343700	-10.066000	25.966443	0.000561	20.700974
1865.472876	-3.010300	3.343900	-10.065000	25.984794	0.000558	20.699021
1866.473985	-2.991700	3.344400	-10.005000	25.992939	0.000557	20.713844
1867.473299	-3.005100	3.343800	-10.048000	26.004829	0.000558	20.696391
1868.473539	-2.993700	3.344100	-10.009000	26.004259	0.000557	20.703406
1869.472535	-2.998000	3.342500	-10.020000	26.005620	0.000556	20.699556
1870.472707	-2.988900	3.342600	-9.989600	25.997051	0.000555	20.697586
1871.473907	-3.003000	3.343400	-10.040000	26.005994	0.000556	20.685232
1872.475688	-2.981900	3.342600	-9.966300	25.991277	0.000554	20.704587
1873.483422	-2.997100	3.341300	-10.014000	26.013409	0.000555	20.700745
1874.474207	-2.996900	3.341500	-10.013000	26.017786	0.000554	20.713677
1875.475984	-2.992100	3.341400	-9.996200	26.019716	0.000553	20.701865
1876.473796	-2.983700	3.340400	-9.965500	25.992319	0.000553	20.705634
1877.474263	-2.987800	3.339600	-9.976500	25.956622	0.000552	20.699168
1878.480886	-2.990400	3.340400	-9.987900	25.896700	0.000552	20.698238
1879.475563	-3.007000	3.339100	-10.040000	25.875932	0.000549	20.697289
1880.473602	-2.993300	3.339600	-9.995400	25.926061	0.000551	20.712088
1881.477282	-2.990200	3.338600	-9.982000	25.941979	0.000551	20.715278
1882.476027	-3.035800	3.337200	-10.130000	25.956843	0.000550	20.711718
1883.477077	-2.993500	3.337000	-9.988700	26.008230	0.000551	20.709766
1884.480480	-2.970100	3.339200	-9.916800	26.028793	0.000548	20.707666
1885.477099	-2.994900	3.339000	-9.998700	26.039083	0.000548	20.696667
1886.478799	-3.000600	3.338300	-10.016000	26.020647	0.000550	20.724614
1887.482442	-3.000700	3.336700	-10.011000	26.064309	0.000546	20.720118
1888.480774	-2.993400	3.337600	-9.988800	26.101198	0.000546	20.704550
1889.477643	-2.986400	3.336000	-9.962000	26.149361	0.000547	20.716910
1890.486770	-3.016300	3.335600	-10.060000	26.168100	0.000546	20.693539
1891.480308	-3.010400	3.335400	-10.041000	26.174014	0.000547	20.725088
1892.479993	-3.006400	3.335400	-10.026000	26.144360	0.000545	20.704772
1893.484334	-2.987600	3.334100	-9.960200	26.123199	0.000544	20.722390
1894.481788	-3.000300	3.335000	-10.005000	26.107350	0.000544	20.701249
1895.481206	-3.003200	3.333500	-10.010000	26.084730	0.000545	20.710289
1896.484494	-3.016500	3.335000	-10.058000	26.103508	0.000541	20.710665
1897.483801	-3.014600	3.333200	-10.048000	26.110862	0.000541	20.706201
1898.482472	-2.989700	3.332600	-9.962400	26.117168	0.000540	20.720598
1899.485865	-2.993600	3.333400	-9.977500	26.117193	0.000541	20.732952
1900.483055	-2.975600	3.334500	-9.920200	26.110041	0.000542	20.728610
1901.483369	-2.995700	3.332200	-9.981600	26.162218	0.000540	20.709440
1902.484676	-2.997400	3.331700	-9.984900	26.169798	0.000540	20.715635
1903.484711	-2.996300	3.333300	-9.986100	26.206223	0.000539	20.710037
1904.483265	-3.002000	3.331800	-10.001000	26.207718	0.000539	20.718178
1905.487224	-3.004700	3.331200	-10.008000	26.213387	0.000539	20.721504
1906.483206	-2.986100	3.331500	-9.946800	26.197320	0.000537	20.703460
1907.485802	-2.998800	3.332200	-9.991600	26.181779	0.000537	20.713449
1908.485451	-3.024100	3.328800	-10.066000	26.150084	0.000538	20.710524
1909.484244	-3.028600	3.328000	-10.077000	26.100218	0.000535	20.700246
1910.483394	-3.008100	3.329800	-10.016000	26.088120	0.000535	20.729818
1911.486515	-2.996700	3.330100	-9.978500	26.100291	0.000536	20.708855
1912.489117	-3.023600	3.329300	-10.065000	26.085718	0.000536	20.727878
1913.485270	-3.023100	3.327700	-10.058000	26.109459	0.000535	20.735139
1914.489537	-3.007000	3.328900	-10.009000	26.117408	0.000536	20.694285
1915.490270	-3.009700	3.330200	-10.022000	26.108816	0.000533	20.738286
1916.488311	-3.006600	3.328200	-10.005000	26.091834	0.000534	20.714109
1917.488839	-3.022900	3.325600	-10.052000	26.059567	0.000533	20.719146
1918.489093	-2.993800	3.326800	-9.958900	26.044171	0.000532	20.742085
1919.488398	-2.992200	3.327200	-9.954900	26.018516	0.000532	20.694494
1920.493009	-3.000000	3.326800	-9.979700	26.051403	0.000532	20.723746
1921.493142	-3.010900	3.327400	-10.018000	26.108406	0.000532	20.717009
1922.489590	-2.998700	3.326600	-9.974900	26.098570	0.000530	20.711393
1923.492828	-2.988000	3.326500	-9.938600	26.133765	0.000530	20.712144
1924.492939	-2.982300	3.325700	-9.916600	26.168911	0.000530	20.717114
1925.499167	-2.990400	3.323500	-9.937700	26.161239	0.000527	20.708930
1926.492059	-3.000400	3.324600	-9.973900	26.154982	0.000528	20.730619
1927.492673	-2.948100	3.325800	-9.803700	26.134471	0.000528	20.719966
1928.491489	-3.004500	3.324100	-9.985600	26.130677	0.000529	20.716154
1929.494961	-2.992200	3.323000	-9.942300	26.146574	0.000527	20.722645
1930.494937	-3.021500	3.321600	-10.034000	26.201905	0.000525	20.717078
1931.492802	-2.969500	3.322800	-9.866500	26.198553	0.000526	20.702803
1932.494051	-2.966700	3.323500	-9.858000	26.178490	0.000526	20.716308
1933.494935	-2.996500	3.322900	-9.956300	26.214026	0.000525	20.707446
1934.492365	-2.980900	3.323200	-9.904400	26.170426	0.000523	20.721482
1935.496335	-2.989700	3.322500	-9.932000	26.139380	0.000523	20.718735
1936.494473	-2.966900	3.321600	-9.852300	26.142181	0.000521	20.704952
1937.493062	-3.030000	3.319600	-10.057000	26.182425	0.000521	20.733540
1938.505797	-2.996200	3.319500	-9.945100	26.202519	0.000522	20.722911
1939.500771	-2.991600	3.320000	-9.931000	26.246896	0.000520	20.712029
1940.494676	-3.032900	3.318200	-10.061000	26.269188	0.000521	20.746287
1941.498432	-2.992500	3.319700	-9.933100	26.287197	0.000521	20.723606
1942.496922	-3.002300	3.320000	-9.966700	26.342968	0.000517	20.715644
1943.494483	-3.017000	3.317400	-10.007000	26.347447	0.000519	20.738639
1944.499172	-3.001000	3.318600	-9.957400	26.384687	0.000519	20.728650
1945.494687	-3.013700	3.317900	-9.998400	26.346455	0.000520	20.750918
1946.497841	-3.003500	3.317600	-9.963200	26.317075	0.000517	20.716174
1947.500442	-3.034300	3.317000	-10.063000	26.302602	0.000516	20.735295
1948.496897	-3.027200	3.316200	-10.038000	26.271389	0.000517	20.746601
1949.497625	-3.023000	3.315400	-10.021000	26.291408	0.000515	20.709819
1950.500143	-3.014500	3.315700	-9.993400	26.328852	0.000515	20.717578
1951.497424	-3.037100	3.314800	-10.066000	26.348195	0.000515	20.736545
1952.499233	-2.997200	3.315800	-9.936800	26.387230	0.000515	20.719352
1953.505442	-2.986800	3.315000	-9.900400	26.385245	0.000514	20.738220
1954.501388	-3.000200	3.315400	-9.945200	26.401285	0.000514	20.751023
1955.499340	-3.003300	3.314400	-9.952400	26.419286	0.000513	20.735449
1956.503690	-3.010900	3.313900	-9.977000	26.434486	0.000514	20.739822
1957.502706	-3.010300	3.313000	-9.972100	26.420407	0.000511	20.739421
1958.501410	-3.050500	3.312700	-10.103000	26.419237	0.000509	20.737771
1959.503840	-3.022700	3.312800	-10.012000	26.408313	0.000511	20.743387
1960.504427	-3.007100	3.312400	-9.959000	26.382568	0.000511	20.744539
1961.501795	-2.990900	3.312400	-9.905800	26.369634	0.000509	20.735807
1962.506106	-3.016700	3.312200	-9.990200	26.340126	0.000509	20.728435
1963.505178	-3.012200	3.312000	-9.974700	26.308944	0.000509	20.746411
1964.505157	-2.993300	3.310400	-9.908400	26.339943	0.000508	20.752434
1965.506607	-2.983100	3.311400	-9.877100	26.339342	0.000506	20.742347
1966.503812	-3.004900	3.311300	-9.949400	26.345083	0.000506	20.756178
1967.503859	-2.985600	3.312100	-9.887000	26.338576	0.000505	20.748690
1968.507802	-3.014600	3.310100	-9.977300	26.287156	0.000505	20.752964
1969.507393	-2.980700	3.311100	-9.868800	26.303173	0.000504	20.738240
1970.504435	-2.981300	3.311400	-9.870900	26.312959	0.000505	20.747600
1971.506338	-3.004200	3.309600	-9.942100	26.364684	0.000505	20.738893
1972.507691	-2.992300	3.308500	-9.899000	26.401158	0.000503	20.729083
1973.504272	-2.981900	3.308900	-9.865700	26.443175	0.000501	20.742391
1974.506895	-2.993900	3.308100	-9.903000	26.495470	0.000502	20.730943
1975.506870	-2.994900	3.308900	-9.908800	26.478660	0.000503	20.730641
1976.507025	-2.980700	3.308000	-9.858100	26.448322	0.000502	20.762263
1977.509653	-2.988900	3.308200	-9.886100	26.380094	0.000501	20.746794
1978.510290	-2.980300	3.307500	-9.856800	26.405741	0.000499	20.754079
1979.506899	-2.993600	3.307300	-9.900400	26.414411	0.000498	20.740981
1980.510871	-2.985100	3.307000	-9.870700	26.420869	0.000500	20.766913
1981.510692	-2.998000	3.306700	-9.913400	26.431076	0.000498	20.760102
1982.517969	-3.005500	3.306400	-9.936300	26.462144	0.000498	20.752448
1983.513822	-2.992600	3.306000	-9.892200	26.453003	0.000498	20.735673
1984.512338	-3.010100	3.303700	-9.942400	26.481705	0.000497	20.729435
1985.511027	-3.004900	3.303600	-9.926400	26.462438	0.000496	20.762701
1986.513862	-3.036900	3.303100	-10.030000	26.485584	0.000496	20.761310
1987.512452	-2.993500	3.304000	-9.889800	26.487226	0.000496	20.777185
1988.510813	-2.982400	3.303800	-9.851900	26.477913	0.000495	20.766403
1989.518518	-3.009700	3.302600	-9.938600	26.465048	0.000493	20.772437
1990.516076	-3.020400	3.301400	-9.971000	26.467584	0.000493	20.747485
1991.517871	-3.000500	3.303100	-9.910200	26.477019	0.000492	20.758865
1992.518448	-3.031600	3.301900	-10.009000	26.500060	0.000494	20.751205
1993.516737	-3.005900	3.302900	-9.926100	26.524638	0.000492	20.743667
1994.517474	-3.040300	3.300000	-10.030000	26.494675	0.000492	20.758594
1995.516489	-2.980000	3.302000	-9.839200	26.489388	0.000491	20.752332
1996.514437	-2.979700	3.301500	-9.836200	26.513869	0.000491	20.752282
1997.517035	-2.992100	3.301300	-9.876700	26.542717	0.000492	20.761840
1998.519896	-3.005500	3.301300	-9.919400	26.526979	0.000490	20.785376
1999.515354	-3.017800	3.298700	-9.953400	26.529044	0.000490	20.763269
2000.516819	-2.995400	3.299800	-9.883400	26.533565	0.000488	20.761649
2001.519238	-2.982300	3.298400	-9.835100	26.501488	0.000487	20.764020
2002.518077	-2.984800	3.298400	-9.844300	26.503602	0.000487	20.769464
2003.517066	-3.016000	3.297400	-9.943900	26.485530	0.000486	20.773110
2004.520842	-2.981500	3.297500	-9.830500	26.457232	0.000487	20.772168
2005.520380	-3.018000	3.296200	-9.946300	26.469215	0.000486	20.768091
2006.516498	-2.964400	3.298600	-9.776800	26.466189	0.000485	20.752246
2007.518259	-2.980000	3.298300	-9.828200	26.475924	0.000485	20.777679
2008.518172	-3.009300	3.296600	-9.919300	26.465619	0.000485	20.770166
2009.518873	-3.024700	3.295200	-9.965800	26.402564	0.000484	20.778862
2010.521520	-2.989100	3.298700	-9.859400	26.411944	0.000482	20.771694
2011.522582	-2.986800	3.297200	-9.847400	26.372064	0.000481	20.780924
2012.520193	-3.019700	3.294100	-9.945300	26.383858	0.000481	20.774286
2013.521613	-3.018400	3.295300	-9.944400	26.419517	0.000481	20.768399
2014.521070	-3.013900	3.293700	-9.925700	26.430447	0.000480	20.783178
2015.519676	-3.016000	3.295000	-9.936900	26.475280	0.000481	20.771343
2016.526157	-3.028000	3.293200	-9.971200	26.503590	0.000478	20.775142
2017.523127	-3.006800	3.293200	-9.900900	26.519280	0.000479	20.776214
2018.520510	-2.993300	3.294600	-9.860600	26.557537	0.000478	20.775315
2019.522635	-2.981300	3.292800	-9.814800	26.566272	0.000479	20.780302
2020.527132	-2.986600	3.292700	-9.833400	26.558609	0.000477	20.776867
2021.527014	-3.007000	3.293300	-9.901700	26.559001	0.000477	20.762087
2022.526358	-3.024000	3.291100	-9.950900	26.573452	0.000477	20.762863
2023.526146	-2.984600	3.292300	-9.825100	26.579479	0.000475	20.776035
2024.529226	-3.001500	3.290200	-9.874200	26.576680	0.000475	20.784601
2025.524491	-3.008000	3.289400	-9.893600	26.538815	0.000476	20.788739
2026.525247	-2.965900	3.290100	-9.756700	26.534123	0.000473	20.782599
2027.525589	-2.970600	3.291700	-9.777100	26.524095	0.000472	20.808081
2028.527198	-2.997500	3.288700	-9.856600	26.529088	0.000473	20.789866
2029.528125	-3.016300	3.288300	-9.916800	26.523917	0.000474	20.803634
2030.527211	-2.999500	3.288100	-9.861400	26.502365	0.000473	20.789083
2031.526852	-2.998200	3.289100	-9.860000	26.498922	0.000473	20.806012
2032.530372	-2.980700	3.289400	-9.803800	26.511180	0.000472	20.789410
2033.529264	-3.019600	3.286500	-9.923100	26.523739	0.000472	20.793498
2034.528806	-2.994800	3.287800	-9.845500	26.517882	0.000470	20.792353
2035.528285	-3.004400	3.287100	-9.875500	26.509416	0.000468	20.806602
2036.528182	-3.000000	3.286500	-9.858400	26.498021	0.000470	20.797046
2037.530884	-3.002500	3.287000	-9.868100	26.494646	0.000471	20.811670
2038.529789	-3.002600	3.286200	-9.866300	26.489003	0.000469	20.801731
2039.530134	-3.009500	3.285100	-9.885500	26.477461	0.000466	20.792027
2040.529389	-3.014200	3.285800	-9.901800	26.517729	0.000467	20.800734
2041.529665	-2.993000	3.285100	-9.831500	26.529270	0.000467	20.795740
2042.533733	-3.025500	3.284300	-9.934800	26.553701	0.000466	20.806547
2043.531581	-3.000900	3.284300	-9.854200	26.595853	0.000465	20.805297
2044.533406	-2.994500	3.284900	-9.834900	26.620233	0.000466	20.802778
2045.532366	-3.000900	3.283100	-9.850600	26.654811	0.000464	20.806245
2046.535869	-2.998600	3.283700	-9.845900	26.662382	0.000461	20.802950
2047.532746	-3.020600	3.282700	-9.915200	26.672409	0.000463	20.808763
2048.533764	-3.004900	3.282500	-9.862300	26.669922	0.000462	20.783029
2049.536924	-3.013300	3.281900	-9.888200	26.683281	0.000463	20.807840
2050.534936	-3.003000	3.282400	-9.856100	26.700928	0.000461	20.800924
2051.541434	-3.008800	3.282900	-9.875200	26.711401	0.000460	20.803868
2052.535846	-2.992700	3.283500	-9.826100	26.695746	0.000459	20.802353
2053.534976	-3.017800	3.280600	-9.898900	26.709791	0.000461	20.792291
2054.535072	-2.948000	3.282300	-9.675300	26.710930	0.000458	20.812402
2055.538348	-2.998900	3.281100	-9.838800	26.723014	0.000460	20.820284
2056.546382	-3.005400	3.279200	-9.854400	26.761154	0.000457	20.825439
2057.538064	-2.992600	3.279700	-9.813900	26.710336	0.000458	20.809434
2058.538552	-2.997600	3.280300	-9.831200	26.718647	0.000455	20.806885
2059.535825	-3.013100	3.278900	-9.878700	26.722647	0.000454	20.814699
2060.536197	-3.010100	3.279600	-9.870300	26.744544	0.000455	20.813480
2061.538402	-3.001000	3.278800	-9.838700	26.774873	0.000454	20.810309
2062.536065	-2.977400	3.278600	-9.760800	26.766863	0.000452	20.811738
2063.541055	-3.002700	3.278000	-9.841300	26.758698	0.000451	20.829133
2064.538185	-2.977100	3.276800	-9.754800	26.813997	0.000451	20.823093
2065.540565	-2.998800	3.277900	-9.828300	26.823870	0.000451	20.809785
2066.536519	-3.010200	3.275700	-9.859700	26.836780	0.000450	20.835568
2067.539212	-2.997100	3.275600	-9.816800	26.827397	0.000449	20.842255
2068.535952	-2.994000	3.275800	-9.806800	26.747257	0.000450	20.816208
2069.536193	-3.002100	3.276400	-9.834500	26.711537	0.000449	20.841461
2070.538963	-3.040300	3.274400	-9.953800	26.701308	0.000448	20.831652
2071.539452	-3.005100	3.274600	-9.839300	26.693964	0.000448	20.808148
2072.537808	-3.008200	3.273800	-9.847200	26.681248	0.000448	20.829028
2073.541689	-2.991200	3.274100	-9.792500	26.656918	0.000447	20.823536
2074.538959	-3.006900	3.273800	-9.843200	26.651411	0.000447	20.813259
2075.538586	-2.973400	3.273800	-9.733200	26.636539	0.000444	20.835291
2076.538487	-2.980700	3.273400	-9.755800	26.617899	0.000446	20.851165
2077.538155	-2.972000	3.275700	-9.733600	26.597813	0.000445	20.829552
2078.537535	-2.980100	3.273900	-9.755200	26.623479	0.000445	20.851559
2079.538484	-2.990900	3.272700	-9.786800	26.630799	0.000444	20.848486
2080.538085	-3.004800	3.271500	-9.828000	26.621697	0.000440	20.842655
2081.538763	-2.986700	3.271100	-9.768900	26.694454	0.000443	20.829977
2082.540926	-2.987900	3.271200	-9.773100	26.691250	0.000443	20.845248
2083.539333	-2.985400	3.271500	-9.766000	26.719346	0.000441	20.842673
2084.538005	-2.994100	3.268900	-9.785800	26.686883	0.000442	20.837064
2085.539314	-3.014200	3.269500	-9.853600	26.700082	0.000440	20.861238
2086.540687	-3.004900	3.268700	-9.820200	26.661659	0.000439	20.833043
2087.541396	-2.974700	3.268800	-9.722900	26.668262	0.000438	20.858646
2088.543877	-3.017700	3.268800	-9.863800	26.680157	0.000439	20.839312
2089.544135	-3.005000	3.269100	-9.822300	26.714360	0.000437	20.845722
2090.540975	-3.009600	3.267900	-9.833500	26.762912	0.000435	20.858499
2091.542612	-3.032500	3.266800	-9.905300	26.805925	0.000436	20.859071
2092.543773	-3.000200	3.267900	-9.803000	26.809802	0.000435	20.846375
2093.543967	-2.992400	3.267600	-9.777100	26.791937	0.000433	20.847853
2094.546196	-3.004900	3.265300	-9.810600	26.814445	0.000434	20.873800
2095.543410	-2.987700	3.266700	-9.759000	26.838655	0.000434	20.862108
2096.543180	-2.986900	3.266300	-9.754700	26.845477	0.000432	20.859010
2097.548309	-3.002400	3.265800	-9.804200	26.820539	0.000432	20.855273
2098.546052	-2.997900	3.265500	-9.788900	26.827882	0.000430	20.856492
2099.545257	-2.988200	3.265600	-9.757300	26.803684	0.000430	20.852551
2100.549941	-2.997300	3.265000	-9.785200	26.817238	0.000427	20.827773
2101.545693	-3.011600	3.262200	-9.823600	26.865069	0.000430	20.846468
2102.546834	-2.995500	3.264700	-9.778900	26.848711	0.000430	20.855624
2103.549195	-3.024700	3.262300	-9.865700	26.865075	0.000425	20.866862
2104.547043	-3.011000	3.261800	-9.820100	26.921655	0.000428	20.847890
2105.546539	-2.988600	3.262500	-9.749100	26.922035	0.000426	20.847324
2106.550349	-3.012700	3.262000	-9.825400	26.924986	0.000425	20.839861
2107.552845	-2.988000	3.262400	-9.747800	26.986633	0.000423	20.844480
2108.547230	-2.973900	3.262100	-9.699100	26.996308	0.000424	20.832872
2109.550762	-2.983900	3.261700	-9.731500	27.012076	0.000423	20.838772
2110.547490	-3.005800	3.260900	-9.799900	26.965422	0.000424	20.830736
2111.548409	-3.028500	3.260400	-9.873600	26.953211	0.000422	20.845009
2112.550682	-3.012200	3.259100	-9.815100	26.957566	0.000423	20.839431
2113.553577	-3.004300	3.259400	-9.790800	26.946721	0.000421	20.855552
2114.549528	-2.999000	3.258900	-9.772200	26.931974	0.000418	20.845940
2115.552875	-2.988500	3.258000	-9.734400	26.968337	0.000421	20.851211
2116.551574	-2.990400	3.258800	-9.744000	27.000829	0.000418	20.843108
2117.550719	-2.984700	3.258800	-9.723600	27.010308	0.000419	20.827036
2118.553316	-2.999300	3.257600	-9.767900	26.995967	0.000417	20.805029
2119.551202	-2.999600	3.255800	-9.765100	26.994730	0.000419	20.834130
2120.551901	-2.997500	3.256200	-9.759300	27.005532	0.000416	20.825553
2121.553868	-3.004400	3.255800	-9.780500	26.981584	0.000414	20.837505
2122.553919	-2.981200	3.255900	-9.705900	26.993622	0.000416	20.824008
2123.552657	-3.007300	3.256900	-9.793100	26.998093	0.000412	20.829926
2124.555124	-3.007000	3.255100	-9.787000	26.983078	0.000415	20.839008
2125.557827	-2.984200	3.255900	-9.714900	26.955388	0.000413	20.819224
2126.554487	-3.008100	3.254600	-9.789400	26.919876	0.000414	20.821921
2127.555069	-3.004100	3.252700	-9.770000	26.961468	0.000415	20.842407
2128.553309	-2.988000	3.254200	-9.722900	26.968688	0.000412	20.819796
2129.553875	-2.976900	3.254000	-9.685800	26.989857	0.000412	20.833023
2130.555498	-2.963200	3.253600	-9.640500	26.981946	0.000410	20.801834
2131.554682	-3.006000	3.251700	-9.773100	26.969246	0.000412	20.798547
2132.555301	-3.043900	3.249600	-9.891200	26.935094	0.000410	20.850973
2133.557918	-2.986900	3.251700	-9.711100	26.924684	0.000408	20.811109
2134.556067	-3.015700	3.249700	-9.798900	26.937612	0.000408	20.830272
2135.557388	-2.999500	3.250600	-9.748900	26.949620	0.000405	20.831916
2136.558313	-3.001200	3.250800	-9.755100	26.956148	0.000405	20.803867
2137.560609	-2.986400	3.251600	-9.708800	26.963343	0.000405	20.817741
2138.556795	-2.993800	3.249700	-9.727900	26.982926	0.000405	20.802821
2139.559334	-3.001300	3.248900	-9.749300	27.013329	0.000405	20.816799
2140.556257	-2.978100	3.249600	-9.676700	27.020769	0.000404	20.815271
2141.559489	-3.021300	3.247400	-9.810000	26.976007	0.000401	20.813406
2142.558162	-2.991000	3.248900	-9.716700	26.953968	0.000402	20.803098
2143.561102	-2.995300	3.247200	-9.725300	26.926044	0.000401	20.821485
2144.558586	-2.992800	3.247800	-9.718300	26.909944	0.000400	20.803400
2145.558029	-3.010100	3.246100	-9.768300	26.917122	0.000399	20.781219
2146.562141	-2.979100	3.246900	-9.672000	26.937196	0.000398	20.818474
2147.558801	-3.020500	3.245200	-9.801500	26.938316	0.000398	20.809170
2148.559143	-3.004000	3.245200	-9.747900	26.950552	0.000396	20.799188
2149.562361	-3.018800	3.246200	-9.798500	26.946828	0.000397	20.794970
2150.561311	-2.986400	3.245800	-9.692600	26.984329	0.000394	20.807551
2151.562391	-3.014600	3.243600	-9.777400	27.009742	0.000395	20.812243
2152.564968	-2.993000	3.244400	-9.709400	27.018780	0.000394	20.789564
2153.562671	-2.982000	3.243700	-9.672300	27.016765	0.000395	20.798443
2154.562406	-2.985800	3.244700	-9.687500	27.011585	0.000393	20.784699
2155.568799	-3.000000	3.243300	-9.729400	27.006950	0.000393	20.785728
2156.564073	-3.008000	3.242800	-9.753500	27.071170	0.000393	20.805267
2157.564993	-2.996500	3.242900	-9.715700	27.074868	0.000393	20.808038
2158.566474	-3.021600	3.239900	-9.789100	27.096335	0.000391	20.794066
2159.567009	-2.995000	3.241500	-9.706700	27.102397	0.000388	20.801585
2160.564855	-2.998700	3.242600	-9.722700	27.117662	0.000388	20.793229
2161.567340	-2.984300	3.241200	-9.672100	27.140934	0.000391	20.772539
2162.567145	-3.003800	3.240900	-9.733700	27.141748	0.000387	20.778573
2163.567786	-3.006300	3.239600	-9.737400	27.163985	0.000388	20.799991
2164.567654	-2.988700	3.239500	-9.681400	27.142030	0.000387	20.794978
2165.567021	-2.997500	3.239400	-9.708800	27.149083	0.000388	20.785951
2166.565877	-2.997800	3.239200	-9.709300	27.121244	0.000386	20.796358
2167.574479	-3.015900	3.238800	-9.765600	27.091389	0.000386	20.785773
2168.567084	-3.017600	3.237900	-9.769500	27.066230	0.000385	20.786549
2169.566276	-3.013500	3.236500	-9.751800	27.042191	0.000385	20.791771
2170.568841	-3.022000	3.235400	-9.776800	27.079033	0.000385	20.793261
2171.569058	-3.003300	3.236600	-9.718100	27.037323	0.000383	20.769331
2172.579178	-2.995500	3.236000	-9.692600	27.014080	0.000380	20.780096
2173.571281	-3.002200	3.236300	-9.715700	27.014233	0.000381	20.762706
2174.569172	-3.016600	3.234900	-9.757000	27.022671	0.000381	20.781623
2175.570790	-2.995500	3.236300	-9.693200	27.036222	0.000379	20.788139
2176.570743	-3.004100	3.235900	-9.720100	27.051487	0.000381	20.748962
2177.570288	-2.987500	3.235700	-9.665000	27.097318	0.000380	20.784148
2178.570515	-2.993100	3.234500	-9.680100	27.114866	0.000377	20.788047
2179.570040	-2.997900	3.233900	-9.693000	27.082985	0.000377	20.794864
2180.570282	-2.983200	3.233200	-9.644100	27.042107	0.000376	20.778409
2181.570417	-2.972100	3.232800	-9.606400	27.003500	0.000377	20.774198
2182.571267	-3.016300	3.231200	-9.745300	26.950722	0.000376	20.764746
2183.570939	-3.013600	3.231500	-9.737600	26.916772	0.000376	20.771384
2184.570442	-3.013900	3.230700	-9.735500	26.871234	0.000374	20.789606
2185.573337	-2.990700	3.231800	-9.664200	26.889275	0.000374	20.777400
2186.571120	-3.017500	3.229800	-9.744000	26.914249	0.000375	20.775012
2187.572588	-2.997100	3.229900	-9.679900	26.932186	0.000373	20.767917
2188.572381	-2.999500	3.229900	-9.686900	26.932926	0.000373	20.782413
2189.575809	-2.996300	3.229800	-9.676300	26.930477	0.000370	20.768096
2190.571425	-2.989500	3.227600	-9.648100	26.937893	0.000369	20.775079
2191.572507	-2.973800	3.228700	-9.600300	26.944997	0.000370	20.763256
2192.573008	-3.001600	3.229500	-9.692500	26.926087	0.000367	20.767474
2193.574486	-2.982000	3.228200	-9.625300	26.899901	0.000370	20.768170
2194.574041	-3.007200	3.225500	-9.698400	26.874584	0.000368	20.770688
2195.572259	-3.023400	3.224500	-9.748000	26.894291	0.000369	20.740243
2196.572278	-2.964900	3.227100	-9.566900	26.928266	0.000369	20.777253
2197.573986	-3.000100	3.226000	-9.677100	26.917844	0.000367	20.766772
2198.573334	-3.008800	3.224700	-9.700300	26.934494	0.000366	20.765497
2199.571801	-2.994400	3.225200	-9.656600	26.902154	0.000367	20.767591
2200.572652	-3.006500	3.223000	-9.689400	26.894071	0.000366	20.763256
2201.571718	-3.025700	3.223400	-9.750700	26.913967	0.000363	20.761925
2202.572703	-3.006100	3.224600	-9.691600	26.947673	0.000363	20.770688
2203.575171	-2.997700	3.223200	-9.660900	27.004450	0.000363	20.773256
2204.573540	-3.020000	3.223300	-9.732900	27.016862	0.000362	20.776255
2205.580836	-2.999300	3.222200	-9.663300	27.028992	0.000362	20.781816
2206.577270	-3.005600	3.221600	-9.681300	27.057005	0.000362	20.741708
2207.572447	-2.995800	3.221100	-9.649000	27.037748	0.000360	20.773551
2208.575431	-2.960700	3.223300	-9.541900	27.028740	0.000360	20.755484
2209.574848	-2.992200	3.220500	-9.636000	27.009556	0.000360	20.763692
2210.574642	-2.985800	3.219900	-9.611700	27.040577	0.000359	20.768810
2211.575150	-3.005400	3.219100	-9.673600	27.067591	0.000359	20.769899
2212.574225	-2.984700	3.220000	-9.610100	27.071589	0.000357	20.763015
2213.574498	-2.998100	3.218800	-9.649200	27.070800	0.000355	20.753211
2214.574569	-2.990300	3.219300	-9.625100	27.093099	0.000357	20.758094
2215.575222	-2.993700	3.216900	-9.629200	27.120841	0.000354	20.764184
2216.575130	-2.996300	3.217500	-9.639100	27.116525	0.000355	20.756050
2217.574746	-3.023000	3.216100	-9.721700	27.088880	0.000353	20.770447
2218.576047	-2.992700	3.217400	-9.628200	27.114112	0.000352	20.755046
2219.575130	-3.006000	3.215300	-9.663600	27.110316	0.000352	20.767349
2220.575265	-2.994500	3.215700	-9.627200	27.128507	0.000350	20.767627
2221.578169	-3.022700	3.213500	-9.712100	27.163362	0.000351	20.752422
2222.577001	-2.985100	3.215000	-9.596100	27.143366	0.000350	20.760760
2223.577487	-2.989600	3.214500	-9.609200	27.140929	0.000350	20.767318
2224.578391	-3.005800	3.212400	-9.654900	27.101799	0.000350	20.759731
2225.578909	-2.997400	3.212100	-9.626800	27.111252	0.000348	20.755014
2226.580511	-3.004300	3.212900	-9.650600	27.117057	0.000347	20.768439
2227.580546	-3.003600	3.212200	-9.646400	27.159633	0.000348	20.733972
2228.579562	-2.997800	3.212700	-9.630300	27.163240	0.000346	20.758463
2229.580203	-3.006000	3.210600	-9.650100	27.194347	0.000346	20.739964
2230.578083	-3.000700	3.210400	-9.633100	27.174303	0.000347	20.746830
2231.580417	-3.022400	3.210600	-9.702900	27.192988	0.000346	20.758038
2232.582186	-3.004400	3.211800	-9.647500	27.230383	0.000345	20.728794
2233.581343	-2.991300	3.210600	-9.602000	27.245803	0.000342	20.752366
2234.581968	-3.021500	3.208900	-9.693800	27.249061	0.000342	20.754694
2235.581511	-3.022800	3.208700	-9.698100	27.256358	0.000342	20.775312
2236.583071	-3.014600	3.206900	-9.667000	27.274920	0.000341	20.748463
2237.581098	-3.005900	3.207400	-9.640300	27.296358	0.000342	20.751536
2238.582434	-2.998300	3.206200	-9.612500	27.336002	0.000339	20.745895
2239.581335	-2.984700	3.206800	-9.570700	27.350607	0.000338	20.749682
2240.581651	-3.007700	3.206300	-9.642400	27.359967	0.000339	20.742976
2241.581424	-2.995700	3.205700	-9.602200	27.370685	0.000338	20.758027
2242.582749	-2.992700	3.206400	-9.594800	27.368880	0.000337	20.755262
2243.584772	-3.004500	3.204300	-9.626200	27.339137	0.000338	20.744781
2244.582228	-2.998400	3.204700	-9.608600	27.348588	0.000338	20.757609
2245.583809	-3.001800	3.203300	-9.613900	27.338874	0.000336	20.736456
2246.583509	-3.010500	3.203200	-9.642700	27.267869	0.000336	20.732835
2247.585138	-3.049700	3.201800	-9.763500	27.241649	0.000336	20.752455
2248.585356	-2.974500	3.205700	-9.534300	27.226295	0.000335	20.750288
2249.585031	-2.987800	3.202900	-9.568700	27.211835	0.000332	20.748071
2250.584598	-3.002300	3.202600	-9.613500	27.217541	0.000334	20.736740
2251.584884	-2.982700	3.201700	-9.547900	27.234707	0.000332	20.751637
2252.585184	-2.981000	3.201200	-9.542000	27.267142	0.000332	20.743958
2253.586153	-3.003700	3.202000	-9.617600	27.303989	0.000331	20.733132
2254.584423	-2.982200	3.201300	-9.546300	27.319017	0.000330	20.739715
2255.586178	-3.003000	3.198800	-9.605100	27.323615	0.000326	20.753350
2256.587471	-2.990200	3.198700	-9.563400	27.272732	0.000328	20.732511
2257.585571	-3.005500	3.200100	-9.616900	27.221479	0.000328	20.739753
2258.587539	-2.989900	3.197900	-9.560100	27.208744	0.000326	20.738798
2259.587784	-2.986700	3.199300	-9.554000	27.230240	0.000325	20.744298
2260.587532	-3.003300	3.196400	-9.598100	27.264756	0.000325	20.742032
2261.587509	-2.987300	3.196100	-9.546900	27.301823	0.000324	20.724315
2262.588138	-2.976800	3.195500	-9.511900	27.279228	0.000325	20.720079
2263.587936	-2.960400	3.196000	-9.461100	27.276180	0.000323	20.729341
2264.588141	-2.988000	3.195000	-9.546000	27.322692	0.000323	20.734877
2265.589993	-2.987400	3.194300	-9.542000	27.335443	0.000323	20.716408
2266.588873	-2.962000	3.195900	-9.465100	27.379560	0.000321	20.721908
2267.588608	-2.967800	3.193400	-9.475300	27.398836	0.000321	20.728972
2268.590840	-2.991700	3.192900	-9.551100	27.405434	0.000318	20.726601
2269.591190	-3.016600	3.193600	-9.632200	27.401321	0.000318	20.709186
2270.590223	-3.022400	3.192800	-9.649500	27.386386	0.000321	20.710282
2271.590563	-3.016600	3.190800	-9.624300	27.375276	0.000319	20.712856
2272.589867	-3.039800	3.189000	-9.693400	27.332132	0.000320	20.727777
2273.590553	-2.990400	3.191600	-9.542700	27.346451	0.000319	20.722266
2274.588604	-3.004600	3.189400	-9.582200	27.339160	0.000318	20.721571
2275.590134	-3.020700	3.189600	-9.633500	27.319615	0.000316	20.735100
2276.590331	-2.992200	3.189200	-9.541300	27.324304	0.000317	20.757362
2277.590068	-2.995800	3.188200	-9.548900	27.279640	0.000316	20.707215
2278.588935	-3.004600	3.186900	-9.574500	27.257394	0.000316	20.724668
2279.590407	-3.005400	3.186800	-9.576000	27.287678	0.000317	20.722414
2280.592525	-3.014500	3.188200	-9.609600	27.299517	0.000315	20.739540
2281.592134	-3.019200	3.187000	-9.620100	27.277516	0.000315	20.705079
2282.592605	-3.013800	3.185600	-9.599800	27.262223	0.000313	20.727156
2283.591146	-2.996400	3.187100	-9.548700	27.286581	0.000314	20.710879
2284.592532	-3.013500	3.184000	-9.594700	27.268327	0.000313	20.718122
2285.593396	-3.001900	3.184200	-9.557900	27.265100	0.000313	20.718195
2286.592974	-2.981000	3.183900	-9.489800	27.276316	0.000311	20.714778
2287.593154	-2.983300	3.183800	-9.496700	27.307751	0.000310	20.716527
2288.592193	-3.008500	3.182700	-9.574300	27.327328	0.000309	20.707296
2289.591952	-2.979400	3.184600	-9.486900	27.341957	0.000309	20.708736
2290.595682	-3.001600	3.183900	-9.555900	27.403702	0.000308	20.704943
2291.591449	-3.003100	3.181000	-9.551700	27.425934	0.000306	20.723042
2292.592200	-3.021800	3.179400	-9.605800	27.433322	0.000308	20.720517
2293.595650	-3.000800	3.180200	-9.542000	27.451832	0.000307	20.713534
2294.597750	-3.005200	3.181800	-9.560600	27.433793	0.000305	20.712456
2295.593993	-3.010200	3.179300	-9.569200	27.417053	0.000306	20.721219
2296.594809	-3.000400	3.178100	-9.533800	27.405612	0.000305	20.708287
2297.596669	-2.990300	3.179000	-9.505000	27.422108	0.000302	20.710658
2298.596136	-3.010400	3.180600	-9.573500	27.460480	0.000303	20.723657
2299.594141	-3.006000	3.176600	-9.547500	27.444064	0.000301	20.724212
2300.597149	-2.994700	3.177300	-9.512300	27.440967	0.000302	20.713035
2301.596181	-2.997100	3.176000	-9.518400	27.472642	0.000301	20.713134
2302.597308	-2.996800	3.177000	-9.519800	27.517952	0.000300	20.716994
2303.596838	-2.994500	3.176000	-9.509500	27.473511	0.000299	20.711637
2304.603180	-3.018100	3.175600	-9.584000	27.446298	0.000298	20.711286
2305.599555	-2.998900	3.173800	-9.516600	27.361436	0.000300	20.698458
2306.597071	-3.001700	3.172500	-9.521800	27.338591	0.000300	20.709143
2307.598532	-3.008700	3.173100	-9.546100	27.313634	0.000298	20.709168
2308.599299	-2.992500	3.173500	-9.496000	27.296445	0.000297	20.714637
2309.599382	-3.019200	3.171700	-9.574400	27.320851	0.000296	20.694616
2310.599320	-3.001900	3.172700	-9.523600	27.352707	0.000297	20.704851
2311.599839	-3.003700	3.170600	-9.522600	27.380247	0.000296	20.708374
2312.599353	-2.995600	3.170100	-9.495200	27.399400	0.000295	20.704408
2313.601623	-2.986300	3.170700	-9.467600	27.356160	0.000295	20.707376
2314.601326	-2.991200	3.170300	-9.482000	27.310892	0.000295	20.710678
2315.601852	-3.011700	3.168500	-9.541400	27.266908	0.000295	20.688243
2316.604233	-2.991100	3.169800	-9.480100	27.256953	0.000296	20.690084
2317.602409	-3.005400	3.169000	-9.522400	27.223956	0.000293	20.701465
2318.602788	-2.991300	3.167300	-9.473800	27.197532	0.000292	20.697646
2319.603420	-3.002900	3.166300	-9.507100	27.185649	0.000292	20.698022
2320.605364	-2.998800	3.165800	-9.492300	27.229857	0.000291	20.690330
2321.604877	-2.995100	3.164400	-9.476500	27.274639	0.000291	20.707401
2322.605752	-3.023800	3.163500	-9.564700	27.310397	0.000289	20.693108
2323.604905	-3.007100	3.162400	-9.507900	27.365073	0.000289	20.697376
2324.604115	-3.007100	3.162100	-9.508400	27.415872	0.000289	20.706280
2325.609647	-2.996800	3.163900	-9.480400	27.449666	0.000286	20.697604
2326.606419	-2.992500	3.162500	-9.463100	27.441679	0.000289	20.680557
2327.607461	-2.993100	3.161300	-9.461400	27.400650	0.000289	20.685275
2328.607012	-2.989000	3.162500	-9.451100	27.402811	0.000286	20.697407
2329.606401	-2.992800	3.160600	-9.457400	27.397571	0.000287	20.690712
2330.606361	-3.007400	3.159800	-9.501300	27.355996	0.000286	20.681604
2331.607762	-3.011900	3.158900	-9.513300	27.384747	0.000285	20.672120
2332.608029	-2.978300	3.160300	-9.411500	27.362399	0.000286	20.694685
2333.606444	-2.999000	3.158600	-9.471600	27.371630	0.000285	20.682159
2334.608839	-2.996800	3.159200	-9.465400	27.335336	0.000285	20.677891
2335.611402	-3.002400	3.156800	-9.475600	27.373889	0.000284	20.707667
2336.608879	-3.000900	3.156600	-9.471000	27.372688	0.000284	20.690337
2337.608605	-3.011500	3.155100	-9.500700	27.374200	0.000283	20.688064
2338.608543	-2.982500	3.156600	-9.414200	27.418836	0.000282	20.700252
2339.608130	-3.004900	3.154700	-9.477200	27.444506	0.000281	20.687670
2340.610406	-2.961200	3.155300	-9.341900	27.497462	0.000282	20.706810
2341.609107	-2.992200	3.154700	-9.439200	27.516987	0.000282	20.692314
2342.610817	-3.010500	3.151700	-9.486700	27.558483	0.000282	20.694235
2343.610646	-2.980500	3.152700	-9.395900	27.596384	0.000278	20.707242
2344.614842	-3.026300	3.150000	-9.531500	27.557980	0.000280	20.713172
2345.610256	-2.968700	3.151600	-9.354700	27.521375	0.000280	20.682503
2346.610619	-2.991500	3.152200	-9.429300	27.522115	0.000280	20.721184
2347.610946	-2.986800	3.149200	-9.404500	27.543402	0.000278	20.686648
2348.609801	-3.009100	3.147900	-9.470500	27.579835	0.000277	20.701970
2349.610569	-2.999400	3.149200	-9.444500	27.594402	0.000276	20.702402
2350.615499	-2.994500	3.148800	-9.428100	27.564266	0.000277	20.690571
2351.611197	-2.994600	3.146800	-9.422300	27.543727	0.000275	20.702623
2352.609307	-3.006500	3.145400	-9.455600	27.542209	0.000278	20.694457
2353.612779	-3.019100	3.143800	-9.490900	27.548115	0.000273	20.682380
2354.610310	-2.986400	3.145500	-9.391300	27.582810	0.000275	20.689314
2355.611350	-2.993600	3.143400	-9.409400	27.597296	0.000274	20.720488
2356.613394	-3.021900	3.142500	-9.494400	27.590778	0.000275	20.700653
2357.610549	-3.034900	3.141700	-9.534000	27.549504	0.000273	20.705591
2358.612072	-2.996100	3.141600	-9.411500	27.536560	0.000273	20.709638
2359.610909	-3.015800	3.141600	-9.473800	27.527208	0.000272	20.702124
2360.612384	-3.008400	3.142300	-9.452400	27.516994	0.000272	20.688527
2361.611759	-3.021200	3.141000	-9.488500	27.496600	0.000272	20.707365
2362.612959	-3.004600	3.140100	-9.433600	27.525592	0.000272	20.716621
2363.612899	-3.016600	3.139800	-9.469800	27.583979	0.000270	20.718468
2364.612943	-3.012900	3.137400	-9.451200	27.609279	0.000272	20.696982
2365.613831	-3.033200	3.137400	-9.515200	27.576561	0.000271	20.687769
2366.614160	-2.993700	3.137200	-9.391000	27.579511	0.000270	20.704489
2367.613073	-3.008400	3.136200	-9.433600	27.614658	0.000269	20.703343
2368.613725	-3.000100	3.136000	-9.407500	27.592841	0.000271	20.706522
2369.615064	-3.010200	3.134100	-9.433500	27.568005	0.000271	20.709982
2370.615910	-2.977200	3.134000	-9.329200	27.564315	0.000269	20.695363
2371.616786	-3.004100	3.132700	-9.409900	27.588000	0.000270	20.704021
2372.614205	-2.991600	3.133600	-9.373300	27.605760	0.000268	20.713831
2373.615626	-2.993600	3.132700	-9.376800	27.577999	0.000269	20.702968
2374.619763	-2.989700	3.133000	-9.365700	27.593152	0.000269	20.696403
2375.617716	-2.998700	3.132400	-9.391800	27.618477	0.000268	20.715722
2376.616611	-2.993000	3.129300	-9.364800	27.655054	0.000265	20.715543
2377.620485	-3.015800	3.127800	-9.431700	27.672635	0.000265	20.715216
2378.622661	-3.006600	3.128400	-9.404800	27.675425	0.000264	20.716126
2379.617299	-2.985500	3.128500	-9.339800	27.665089	0.000264	20.683913
2380.620903	-2.995100	3.126600	-9.363800	27.654943	0.000264	20.707370
2381.618372	-2.977900	3.126500	-9.307900	27.683453	0.000265	20.726576
2382.620574	-3.017400	3.124100	-9.424900	27.690883	0.000263	20.718406
2383.621643	-2.981200	3.126000	-9.317600	27.639539	0.000264	20.720320
2384.619937	-3.011300	3.124000	-9.405800	27.578353	0.000263	20.702375
2385.619242	-3.007700	3.122600	-9.391300	27.567018	0.000264	20.722740
2386.620935	-3.015700	3.121800	-9.413900	27.580849	0.000263	20.722432
2387.620660	-3.000100	3.120100	-9.359000	27.623016	0.000263	20.717444
2388.621320	-2.996400	3.119900	-9.346700	27.663938	0.000262	20.691290
2389.621474	-2.987400	3.119100	-9.317000	27.670933	0.000263	20.707338
2390.619926	-2.984300	3.119100	-9.306900	27.703079	0.000261	20.718350
2391.620996	-2.986300	3.119600	-9.315300	27.721944	0.000263	20.707936
2392.622285	-2.964500	3.118100	-9.243100	27.660744	0.000259	20.722217
2393.621044	-2.993300	3.118200	-9.332900	27.627257	0.000259	20.712228
2394.621161	-3.019600	3.115500	-9.406700	27.524525	0.000262	20.731195
2395.625072	-2.994800	3.114600	-9.326800	27.521795	0.000260	20.720862
2396.624431	-3.012000	3.113800	-9.376100	27.505479	0.000260	20.731473
2397.624742	-2.995500	3.113600	-9.325100	27.490642	0.000259	20.731244
2398.624266	-3.003000	3.113600	-9.350000	27.517083	0.000259	20.705688
2399.624671	-2.999000	3.111500	-9.330000	27.521177	0.000260	20.725930
2400.627574	-3.026300	3.110400	-9.411900	27.539085	0.000258	20.727353
2401.625123	-3.015700	3.109800	-9.377100	27.590029	0.000259	20.719341
2402.624603	-2.992000	3.110000	-9.304000	27.596162	0.000258	20.717925
2403.629169	-3.006400	3.108000	-9.342700	27.615929	0.000257	20.722168
2404.625909	-3.015200	3.107700	-9.368600	27.667892	0.000258	20.741265
2405.626090	-2.983800	3.109100	-9.275500	27.686189	0.000258	20.707517
2406.626048	-3.001600	3.106000	-9.321800	27.681868	0.000258	20.736836
2407.626622	-3.007300	3.105700	-9.338300	27.685784	0.000260	20.726078
2408.625566	-2.978800	3.105900	-9.250300	27.630677	0.000256	20.720412
2409.625545	-2.987400	3.103100	-9.269400	27.608830	0.000258	20.727353
2410.629169	-3.010400	3.103200	-9.340700	27.506739	0.000256	20.725154
2411.627058	-3.011200	3.101800	-9.339300	27.489797	0.000255	20.747939
2412.632390	-3.003300	3.100100	-9.307100	27.514769	0.000256	20.746036
2413.626984	-2.976200	3.101700	-9.229600	27.538381	0.000256	20.728066
2414.628042	-3.014300	3.099200	-9.341000	27.605525	0.000255	20.732562
2415.627522	-2.996500	3.097800	-9.282300	27.666225	0.000255	20.718723
2416.631239	-3.026700	3.096900	-9.370900	27.721679	0.000254	20.729008
2417.627069	-3.029500	3.094900	-9.375100	27.777822	0.000255	20.734772
2418.628282	-3.010400	3.095500	-9.318300	27.808544	0.000254	20.732973
2419.629458	-3.025600	3.093000	-9.355400	27.841052	0.000255	20.746725
2420.627980	-3.005000	3.093800	-9.295900	27.836903	0.000252	20.734962
2421.630157	-3.002800	3.093100	-9.287500	27.823430	0.000253	20.737049
2422.632488	-3.018300	3.092600	-9.333300	27.838910	0.000254	20.742198
2423.627879	-3.005300	3.091100	-9.288100	27.849788	0.000253	20.727541
2424.628292	-2.994700	3.090000	-9.251900	27.874953	0.000253	20.735324
2425.629637	-2.996200	3.089700	-9.256300	27.876813	0.000250	20.731032
2426.628713	-2.975700	3.089300	-9.191800	27.841730	0.000252	20.746933
2427.628478	-2.995300	3.087300	-9.246300	27.774399	0.000252	20.739863
2428.630633	-2.981800	3.087000	-9.204200	27.758973	0.000250	20.732873
2429.644426	-2.996600	3.086800	-9.249400	27.773586	0.000250	20.732880
2430.631382	-2.985200	3.084400	-9.206300	27.807404	0.000252	20.755535
2431.631171	-3.009200	3.082900	-9.275600	27.849702	0.000249	20.761594
2432.634634	-3.003400	3.082400	-9.255500	27.884564	0.000249	20.758749
2433.633583	-2.959600	3.083900	-9.125400	27.914537	0.000251	20.750983
2434.633510	-2.974300	3.083000	-9.168000	27.917835	0.000251	20.746242
2435.633623	-2.982300	3.081000	-9.186700	27.929166	0.000250	20.778510
2436.636367	-3.006800	3.079100	-9.257300	27.926639	0.000250	20.747991
2437.633620	-3.000600	3.077800	-9.234900	27.903898	0.000246	20.732213
2438.634403	-2.991200	3.077500	-9.203900	27.886816	0.000248	20.749635
2439.634279	-3.012900	3.076200	-9.267800	27.844213	0.000249	20.748483
2440.633937	-3.027700	3.073800	-9.305700	27.850760	0.000247	20.747485
2441.638925	-3.001200	3.075200	-9.228600	27.858493	0.000248	20.760959
2442.633808	-2.975500	3.074300	-9.146400	27.852791	0.000248	20.747159
2443.634085	-2.995200	3.071200	-9.198400	27.877705	0.000248	20.772708
2444.635926	-2.989200	3.073100	-9.184400	27.899651	0.000248	20.767770
2445.634517	-2.969200	3.073100	-9.123500	27.935283	0.000247	20.767597
2446.634648	-2.990200	3.069900	-9.179000	27.955637	0.000247	20.762480
2447.635925	-2.981100	3.068100	-9.145200	27.963761	0.000248	20.756906
2448.637047	-2.984600	3.068700	-9.158300	27.957271	0.000249	20.758434
2449.636174	-2.995600	3.067600	-9.188800	27.962373	0.000248	20.764043
2450.638884	-2.995700	3.066300	-9.184600	28.019964	0.000248	20.751838
2451.637028	-2.994100	3.064700	-9.174800	28.040935	0.000249	20.760619
2452.636482	-2.975800	3.063400	-9.114500	28.073889	0.000247	20.765343
2453.639992	-2.991300	3.063000	-9.161000	28.080354	0.000248	20.759523
2454.643249	-2.993300	3.062900	-9.167400	28.068083	0.000246	20.759024
2455.636611	-3.014000	3.060400	-9.222400	28.065630	0.000244	20.764616
2456.641829	-2.997900	3.059300	-9.170600	28.056032	0.000245	20.764911
2457.640908	-3.018100	3.058200	-9.228800	28.084918	0.000246	20.785455
2458.638827	-2.982100	3.057600	-9.116500	28.114989	0.000245	20.755983
2459.642010	-3.003100	3.057000	-9.179600	28.126043	0.000244	20.773748
2460.640418	-3.007200	3.055400	-9.186800	28.138240	0.000245	20.765638
2461.638980	-2.991000	3.054000	-9.133600	28.118751	0.000243	20.749338
2462.642682	-2.987100	3.053700	-9.120800	28.126807	0.000245	20.767405
2463.644634	-3.017100	3.052400	-9.208900	28.158046	0.000242	20.782733
2464.640615	-3.000200	3.051600	-9.153400	28.189730	0.000243	20.761999
2465.642585	-2.983700	3.050700	-9.102000	28.188635	0.000245	20.761371
2466.643973	-3.008600	3.049200	-9.173400	28.188813	0.000244	20.786680
2467.642844	-3.010400	3.047500	-9.172300	28.193198	0.000243	20.769284
2468.645052	-2.994200	3.047700	-9.125300	28.210495	0.000243	20.766783
2469.644295	-3.014400	3.045200	-9.178600	28.189981	0.000244	20.774106
2470.643316	-2.990200	3.044900	-9.103200	28.160725	0.000243	20.774998
2471.645199	-3.015700	3.042800	-9.174600	28.159092	0.000242	20.759129
2472.643421	-2.979100	3.042100	-9.061400	28.175779	0.000243	20.772135
2473.643489	-2.975700	3.042000	-9.050800	28.156217	0.000244	20.774254
2474.642431	-3.001500	3.040500	-9.123600	28.200074	0.000242	20.774309
2475.642810	-2.985900	3.038500	-9.071200	28.221438	0.000246	20.770214
2476.644724	-3.005000	3.037400	-9.125700	28.187626	0.000245	20.790701
2477.646163	-2.986500	3.036900	-9.068600	28.157930	0.000243	20.768866
2478.646851	-2.982100	3.035100	-9.050200	28.147128	0.000242	20.792131
2479.646551	-2.997600	3.033200	-9.091600	28.128857	0.000242	20.797919
2480.649521	-3.002200	3.032900	-9.104200	28.081530	0.000243	20.788208
2481.648058	-2.983600	3.032100	-9.045400	28.019953	0.000245	20.779328
2482.651751	-3.019600	3.029900	-9.148100	27.963352	0.000243	20.787789
2483.648890	-2.981400	3.029000	-9.030600	27.964937	0.000243	20.769469
2484.647481	-3.018000	3.027800	-9.137400	27.946589	0.000241	20.766649
2485.648301	-2.988100	3.027400	-9.045000	27.985046	0.000242	20.786392
2486.650767	-2.987700	3.026700	-9.042300	27.986606	0.000242	20.789384
2487.653828	-2.997600	3.024600	-9.064800	28.009014	0.000244	20.775904
2488.650797	-3.015200	3.023100	-9.113400	27.967843	0.000243	20.789939
2489.651470	-3.007100	3.021800	-9.085800	27.977111	0.000242	20.798319
2490.648783	-2.976300	3.021300	-8.991800	27.986759	0.000241	20.782426
2491.650419	-3.001400	3.018800	-9.059100	28.030647	0.000242	20.784403
2492.652510	-2.990300	3.018600	-9.025700	28.026530	0.000243	20.798751
2493.653181	-2.993100	3.016900	-9.028700	27.993660	0.000241	20.808339
2494.651714	-2.997000	3.016500	-9.039600	27.982275	0.000241	20.797827
2495.655394	-3.018500	3.014000	-9.097100	27.979920	0.000241	20.767481
2496.654050	-2.988300	3.014100	-9.004700	28.007419	0.000243	20.793264
2497.652838	-3.019900	3.010900	-9.091500	28.057625	0.000240	20.795913
2498.654613	-3.008200	3.009400	-9.052100	28.063424	0.000241	20.789422
2499.653656	-3.007100	3.009600	-9.049100	28.075824	0.000242	20.799059
2500.656069	-2.982900	3.010300	-8.979100	28.062611	0.000241	20.806621
2501.655164	-3.016200	3.007000	-9.068900	28.041965	0.000243	20.790580
2502.653473	-2.986300	3.006300	-8.977400	28.017813	0.000242	20.793296
2503.653820	-3.011600	3.005300	-9.049800	27.994511	0.000241	20.794023
2504.655757	-2.964800	3.005200	-8.909300	28.000146	0.000241	20.797324
2505.653292	-2.999800	3.001700	-9.003300	27.973247	0.000241	20.799645
2506.652483	-2.965000	3.001000	-8.897200	27.928194	0.000241	20.827318
2507.656455	-2.991100	3.001200	-8.975400	27.917579	0.000242	20.808099
2508.653891	-2.990200	2.998500	-8.965200	27.920663	0.000242	20.798876
2509.653648	-2.986600	2.997200	-8.950000	27.979848	0.000240	20.801074
2510.658535	-2.995600	2.995900	-8.973600	28.034662	0.000240	20.805514
2511.656686	-2.983700	2.994800	-8.935400	28.089106	0.000239	20.793463
2512.657744	-3.015200	2.993000	-9.023200	28.083105	0.000241	20.820139
2513.658972	-3.004900	2.993000	-8.991300	28.151847	0.000242	20.821062
2514.659477	-2.989400	2.991800	-8.942800	28.189703	0.000240	20.816026
2515.658523	-3.012600	2.989400	-9.004600	28.196474	0.000239	20.803403
2516.660021	-2.990900	2.989500	-8.940600	28.203961	0.000241	20.806198
2517.658782	-3.009700	2.986300	-8.986200	28.220567	0.000241	20.817227
2518.660598	-3.006600	2.985600	-8.975100	28.231552	0.000240	20.801734
2519.660511	-3.002900	2.982800	-8.956000	28.231412	0.000240	20.812499
2520.661159	-3.004900	2.981900	-8.959400	28.226452	0.000238	20.828841
2521.662828	-3.010400	2.980500	-8.971700	28.211241	0.000240	20.816372
2522.665006	-3.005000	2.979200	-8.951700	28.172639	0.000241	20.805485
2523.660549	-3.004700	2.978100	-8.947100	28.148026	0.000240	20.821009
2524.661767	-3.009200	2.976700	-8.956900	28.194439	0.000239	20.815104
2525.667599	-2.984900	2.976000	-8.882100	28.206409	0.000239	20.816249
2526.664195	-2.986800	2.974400	-8.882500	28.195179	0.000239	20.809211
2527.665083	-2.986900	2.972000	-8.876100	28.237272	0.000239	20.808441
2528.663396	-2.999200	2.970000	-8.906400	28.251052	0.000239	20.835117
2529.668397	-2.976300	2.970200	-8.839800	28.274128	0.000240	20.822789
2530.665043	-2.981700	2.968500	-8.849500	28.265211	0.000239	20.807647
2531.665466	-3.008300	2.966500	-8.922800	28.187901	0.000238	20.813263
2532.666754	-3.008800	2.965000	-8.920200	28.139348	0.000239	20.815118
2533.667330	-3.000400	2.963200	-8.890100	28.113840	0.000239	20.797500
2534.665950	-3.016400	2.961500	-8.932400	28.133622	0.000238	20.837802
2535.663770	-2.988500	2.961000	-8.848100	28.140467	0.000240	20.829995
2536.664358	-2.978200	2.959900	-8.812700	28.182190	0.000240	20.813677
2537.672262	-2.996900	2.958500	-8.865000	28.146744	0.000238	20.810709
2538.666565	-3.007900	2.955400	-8.888900	28.109859	0.000239	20.802975
2539.667404	-3.043900	2.954100	-8.990700	28.094193	0.000240	20.838413
2540.668102	-3.008700	2.952400	-8.882000	28.102347	0.000240	20.811060
2541.667513	-2.984400	2.952900	-8.810600	28.107859	0.000239	20.833204
2542.666985	-2.972200	2.951500	-8.771100	28.120259	0.000238	20.841419
2543.668458	-2.999300	2.948200	-8.841400	28.142860	0.000240	20.839516
2544.668345	-3.011700	2.946900	-8.874200	28.104813	0.000240	20.827293
2545.668939	-2.982500	2.946100	-8.785400	28.087912	0.000239	20.818340
2546.668767	-3.009700	2.942000	-8.853700	28.094287	0.000239	20.814800
2547.667378	-3.004800	2.943100	-8.842100	28.064068	0.000238	20.843175
2548.669822	-2.996300	2.941300	-8.811700	28.068247	0.000238	20.835054
2549.668198	-3.003100	2.939200	-8.825100	28.139803	0.000237	20.823636
2550.669419	-3.000700	2.937400	-8.813600	28.164748	0.000237	20.822196
2551.672735	-2.995500	2.935100	-8.791400	28.207498	0.000237	20.822561
2552.668355	-2.984800	2.936800	-8.765000	28.249357	0.000237	20.835781
2553.670261	-3.018800	2.931500	-8.847900	28.247975	0.000238	20.833916
2554.672962	-2.987800	2.933100	-8.762600	28.237695	0.000237	20.835418
2555.668756	-3.003700	2.930800	-8.802700	28.205303	0.000238	20.835524
2556.672956	-2.990600	2.929500	-8.760000	28.200917	0.000238	20.834902
2557.671391	-2.975800	2.928200	-8.712900	28.190912	0.000238	20.822932
2558.669703	-3.018500	2.923000	-8.821300	28.201995	0.000238	20.842150
2559.672784	-3.003400	2.923300	-8.778300	28.221402	0.000239	20.823283
2560.669418	-2.996300	2.921600	-8.752900	28.241733	0.000238	20.848967
2561.670119	-2.970100	2.920700	-8.674000	28.206289	0.000238	20.834146
2562.670783	-3.003300	2.918500	-8.764300	28.172417	0.000238	20.841296
2563.672062	-2.987200	2.916700	-8.711800	28.179335	0.000238	20.845416
2564.670672	-2.988700	2.916100	-8.713900	28.222224	0.000239	20.852559
2565.671625	-2.983700	2.914400	-8.694700	28.274922	0.000238	20.838286
2566.672650	-2.991400	2.913400	-8.714000	28.333072	0.000238	20.837566
2567.672739	-3.008000	2.910700	-8.754400	28.371215	0.000239	20.816704
2568.673923	-2.997600	2.909100	-8.719000	28.376597	0.000239	20.837295
2569.674220	-3.006700	2.906700	-8.738500	28.349071	0.000237	20.824279
2570.674418	-3.020700	2.905300	-8.773900	28.337006	0.000239	20.825880
2571.674062	-3.011300	2.904900	-8.746400	28.332548	0.000238	20.830400
2572.673610	-3.018000	2.901000	-8.754200	28.374213	0.000237	20.837741
2573.673871	-3.005700	2.900600	-8.718200	28.385099	0.000239	20.823572
2574.675193	-3.001300	2.898200	-8.697000	28.442741	0.000238	20.820924
2575.678700	-3.039400	2.895800	-8.799900	28.447359	0.000237	20.815143
2576.677084	-3.017600	2.894900	-8.734400	28.467759	0.000238	20.839953
2577.675782	-3.019900	2.892300	-8.733500	28.454282	0.000238	20.824959
2578.684016	-2.993000	2.892500	-8.656300	28.440303	0.000237	20.816572
2579.677168	-2.995900	2.890300	-8.658300	28.380362	0.000236	20.817380
2580.676849	-2.962600	2.889300	-8.558300	28.377335	0.000238	20.813383
2581.680505	-2.997700	2.886300	-8.651400	28.331273	0.000239	20.808729
2582.679002	-2.985700	2.885200	-8.613500	28.319947	0.000238	20.814868
2583.676176	-2.975200	2.883200	-8.577100	28.323146	0.000237	20.806235
2584.678340	-2.989800	2.880600	-8.611900	28.288848	0.000238	20.799204
2585.676329	-2.999000	2.878300	-8.630700	28.288531	0.000238	20.806944
2586.678584	-2.987000	2.877400	-8.593400	28.267339	0.000236	20.806470
2587.683300	-2.996800	2.875000	-8.614900	28.280783	0.000238	20.793928
2588.680064	-3.001800	2.875600	-8.629700	28.243401	0.000237	20.810344
2589.680687	-2.990800	2.870600	-8.584500	28.261077	0.000237	20.805381
2590.683381	-2.997400	2.870100	-8.601700	28.262943	0.000237	20.802044
2591.679682	-3.001900	2.867700	-8.607200	28.244527	0.000238	20.806263
2592.681700	-2.998600	2.865200	-8.590600	28.261530	0.000237	20.798251
2593.684394	-3.017500	2.861500	-8.633600	28.293658	0.000238	20.782235
2594.680527	-2.999300	2.861300	-8.581100	28.335625	0.000239	20.779920
2595.682291	-3.033100	2.858100	-8.667500	28.292845	0.000238	20.789951
2596.682379	-3.001000	2.857100	-8.573000	28.259384	0.000239	20.802255
2597.684781	-2.963500	2.855400	-8.460900	28.203445	0.000238	20.804257
2598.682611	-2.985100	2.853700	-8.517100	28.205573	0.000239	20.801658
2599.683634	-2.980800	2.851600	-8.499500	28.241300	0.000237	20.777883
2600.683323	-2.999300	2.847600	-8.540600	28.208204	0.000239	20.793400
2601.683730	-2.995100	2.846500	-8.524400	28.211287	0.000238	20.788918
2602.684796	-2.978100	2.846500	-8.476300	28.214284	0.000239	20.802841
2603.685320	-2.993500	2.843200	-8.509800	28.249759	0.000238	20.794461
2604.683906	-2.995500	2.841800	-8.511800	28.292621	0.000239	20.786881
2605.686265	-3.008400	2.839700	-8.542500	28.348782	0.000239	20.793642
2606.684363	-2.985300	2.837900	-8.471200	28.426087	0.000239	20.774757
2607.686897	-3.004700	2.834500	-8.515400	28.458570	0.000238	20.792294
2608.692304	-3.025000	2.831200	-8.563200	28.465786	0.000236	20.810466
2609.683986	-2.988800	2.830800	-8.459500	28.442892	0.000235	20.785515
2610.682705	-2.981100	2.829100	-8.433000	28.423855	0.000239	20.786734
2611.685860	-2.987900	2.826500	-8.443800	28.449533	0.000239	20.772287
2612.684447	-2.979100	2.824100	-8.411800	28.483734	0.000238	20.783021
2613.685314	-2.990100	2.821600	-8.435400	28.498947	0.000238	20.793126
2614.685137	-2.987700	2.819400	-8.422500	28.482377	0.000238	20.782603
2615.685033	-3.011400	2.818000	-8.484900	28.476378	0.000238	20.756647
2616.682107	-2.964800	2.814700	-8.344000	28.507924	0.000237	20.774191
2617.689730	-2.978200	2.812800	-8.376100	28.553228	0.000237	20.782831
2618.684939	-3.012600	2.808800	-8.460700	28.535232	0.000237	20.771820
2619.683984	-2.997500	2.806900	-8.412700	28.557409	0.000237	20.784672
2620.687190	-2.999400	2.805000	-8.412400	28.569730	0.000236	20.772424
2621.685736	-2.997300	2.803500	-8.402000	28.563512	0.000239	20.772800
2622.685503	-2.995200	2.799800	-8.384400	28.544565	0.000237	20.764623
2623.688047	-2.999600	2.797800	-8.390100	28.555313	0.000238	20.771181
2624.690410	-2.977800	2.796000	-8.324900	28.568520	0.000238	20.776895
2625.687807	-3.042100	2.789900	-8.485900	28.549461	0.000237	20.779038
2626.691167	-2.985700	2.789400	-8.327500	28.537576	0.000239	20.786982
2627.690588	-3.011600	2.787600	-8.393800	28.446557	0.000238	20.772610
2628.687658	-2.995800	2.783200	-8.336600	28.430646	0.000237	20.744258
2629.688052	-2.999500	2.782400	-8.344400	28.430792	0.000237	20.770485
2630.689034	-3.019500	2.779500	-8.390900	28.449804	0.000237	20.746956
2631.689403	-3.016000	2.774700	-8.367400	28.506777	0.000238	20.760707
2632.689354	-2.996200	2.773500	-8.308500	28.518547	0.000239	20.758810
2633.688844	-3.005700	2.770600	-8.326700	28.541966	0.000237	20.774809
2634.688020	-2.995300	2.768000	-8.290300	28.555222	0.000238	20.763502
2635.690799	-2.996600	2.765800	-8.287200	28.588998	0.000237	20.750577
2636.688774	-3.002600	2.761100	-8.289100	28.633949	0.000239	20.766453
2637.689409	-2.985000	2.758800	-8.233900	28.673054	0.000236	20.770752
2638.690669	-2.979500	2.756200	-8.210900	28.726022	0.000238	20.759618
2639.693129	-2.960700	2.754500	-8.154200	28.750995	0.000237	20.753478
2640.688924	-2.986500	2.749600	-8.210000	28.806961	0.000238	20.756748
2641.691823	-2.942900	2.747800	-8.084800	28.842635	0.000236	20.767555
2642.692931	-3.007700	2.742600	-8.248000	28.839494	0.000238	20.764391
2643.693976	-3.000900	2.739800	-8.219200	28.846132	0.000238	20.772501
2644.693664	-2.998900	2.737100	-8.207200	28.834770	0.000236	20.754416
2645.692525	-2.988900	2.734100	-8.170900	28.812898	0.000239	20.744237
2646.691383	-3.001300	2.729600	-8.191400	28.827012	0.000237	20.748023
2647.693406	-3.008400	2.727800	-8.205100	28.818644	0.000237	20.758560
2648.692442	-3.004800	2.724200	-8.183600	28.770583	0.000235	20.744286
2649.690365	-3.011500	2.720800	-8.193000	28.720484	0.000238	20.759256
2650.694585	-2.988400	2.716600	-8.117000	28.664887	0.000237	20.759681
2651.694769	-2.985700	2.714100	-8.102500	28.626137	0.000237	20.745308
2652.696952	-3.005300	2.710100	-8.144000	28.681939	0.000239	20.758363
2653.698440	-2.980600	2.707400	-8.069000	28.727277	0.000236	20.750450
2654.695664	-3.010700	2.702300	-8.135100	28.741399	0.000238	20.732905
2655.694372	-3.004900	2.698500	-8.107800	28.755998	0.000237	20.752354
2656.693758	-2.999300	2.696700	-8.087200	28.723713	0.000237	20.764405
2657.693947	-2.981900	2.692900	-8.028900	28.717252	0.000237	20.755525
2658.694706	-3.026900	2.687500	-8.133200	28.729135	0.000234	20.758486
2659.695085	-2.996200	2.684800	-8.044000	28.695322	0.000235	20.732487
2660.694701	-3.046500	2.678800	-8.158400	28.638182	0.000236	20.750801
2661.697373	-2.995400	2.676400	-8.014800	28.599934	0.000236	20.748788
2662.696268	-3.011300	2.671900	-8.045100	28.628481	0.000236	20.755255
2663.695827	-2.990500	2.669000	-7.979400	28.649910	0.000236	20.756923
2664.695572	-3.000100	2.663900	-7.990700	28.670379	0.000237	20.723011
2665.695986	-3.003900	2.660600	-7.991300	28.745966	0.000239	20.748887
2666.695811	-2.964100	2.658500	-7.879200	28.779638	0.000238	20.743924
2667.698799	-2.983400	2.653600	-7.915700	28.789921	0.000238	20.751911
2668.700106	-3.052100	2.646300	-8.076300	28.792727	0.000236	20.725339
2669.698277	-3.003400	2.642300	-7.935600	28.775151	0.000238	20.733713
2670.698942	-2.993000	2.640100	-7.901600	28.732817	0.000236	20.750815
2671.700760	-3.002500	2.634300	-7.908700	28.656385	0.000237	20.754436
2672.699260	-3.004100	2.629800	-7.898800	28.649965	0.000236	20.744177
2673.697933	-3.005900	2.626000	-7.892800	28.613025	0.000234	20.751068
2674.700897	-3.013700	2.620900	-7.898500	28.629656	0.000236	20.740790
2675.702973	-3.014000	2.615600	-7.882300	28.669591	0.000236	20.756832
2676.697273	-3.011100	2.610800	-7.860700	28.719595	0.000236	20.737970
2677.700655	-3.011000	2.606200	-7.846000	28.745656	0.000237	20.739091
2678.698156	-3.001700	2.602700	-7.811600	28.732849	0.000237	20.724767
2679.699419	-3.006400	2.597500	-7.807500	28.756814	0.000236	20.740847
2680.703210	-2.999900	2.591700	-7.773900	28.781932	0.000236	20.748606
2681.699270	-3.003900	2.584400	-7.761800	28.822963	0.000238	20.730668
2682.699585	-2.985200	2.581100	-7.704600	28.870826	0.000238	20.728149
2683.701497	-3.025500	2.573200	-7.784000	28.897598	0.000236	20.711971
2684.699315	-3.027400	2.568000	-7.773300	28.909543	0.000236	20.742023
2685.699284	-3.016500	2.563800	-7.732600	28.907716	0.000236	20.728802
2686.700655	-3.015200	2.557700	-7.711000	28.951308	0.000236	20.735262
2687.700571	-3.028500	2.552100	-7.727500	29.016089	0.000234	20.722294
2688.701764	-2.972600	2.548500	-7.574400	29.000015	0.000236	20.744032
2689.700628	-3.004800	2.540500	-7.632700	29.020049	0.000239	20.731974
2690.701171	-2.993400	2.535800	-7.588700	29.029939	0.000236	20.739094
2691.698824	-3.002000	2.528500	-7.588900	29.050840	0.000236	20.732652
2692.699799	-3.021800	2.522000	-7.619900	29.015821	0.000237	20.713488
2693.700299	-3.016300	2.515800	-7.586600	29.010400	0.000238	20.734580
2694.700270	-3.021600	2.510800	-7.585800	29.036332	0.000237	20.704756
2695.700699	-2.994700	2.504800	-7.500500	29.052259	0.000238	20.721278
2696.703159	-3.005800	2.497400	-7.505700	29.034279	0.000237	20.741096
