LabVIEW Measurement	
Writer_Version	2
Reader_Version	2
Separator	Tab
Decimal_Separator	.
Multi_Headings	No
X_Columns	One
Time_Pref	Absolute
Operator	admin
Description	Clolumns are: time, Current, Voltage, Power, Battery Temp, and Chamber Temp
Date	2024/08/16
Time	13:06:06.104549407958984375
***End_of_Header***	
	
Channels	6						
Samples	1	1	1	1	1	1	
Date	2024/09/14	2024/09/14	2024/09/14	2024/09/14	2024/09/14	2024/09/14	
Time	16:25:31.0906720161437988281	16:25:31.096790313720703125	16:25:31.1046733856201171875	16:25:31.0747408866882324219	16:25:31.0747408866882324219	16:25:31.0747408866882324219	
X_Dimension	Time	Time	Time	Time	Time	Time	
X0	0.0000000000000000E+0	0.0000000000000000E+0	0.0000000000000000E+0	0.0000000000000000E+0	0.0000000000000000E+0	0.0000000000000000E+0	
Delta_X	1.000000	1.000000	1.000000	1.000000	1.000000	1.000000	
***End_of_Header***							
X_Value	Untitled	Untitled 1	Untitled 2	Untitled 3	Untitled 4	Untitled 5	Comment
0.000000	0.020096	4.094500	0.082260	20.981126	0.000934	20.712766
0.999820	-2.992700	3.913100	-11.709000	21.004904	0.000933	20.714737
2.001919	-2.998800	3.908400	-11.718000	20.994359	0.000930	20.709406
3.002459	-3.022200	3.900900	-11.789000	20.994409	0.000929	20.720362
4.003035	-3.007100	3.897700	-11.719000	20.980442	0.000930	20.716351
5.001621	-2.999700	3.895000	-11.681000	20.975578	0.000929	20.701527
6.002247	-2.996100	3.892400	-11.661000	21.000210	0.000928	20.703878
7.003333	-2.993600	3.889600	-11.643000	20.995691	0.000926	20.720697
8.002034	-3.005600	3.886800	-11.681000	21.012367	0.000926	20.715090
9.009007	-2.997100	3.884300	-11.641000	20.999068	0.000924	20.712694
10.003107	-2.985900	3.884300	-11.596000	21.023699	0.000924	20.707458
11.003166	-2.987300	3.881600	-11.595000	21.008138	0.000923	20.710386
12.003102	-2.985700	3.880400	-11.585000	21.014928	0.000922	20.730929
13.005322	-3.001700	3.878500	-11.639000	21.028478	0.000922	20.705125
14.005337	-3.007200	3.876600	-11.657000	21.016557	0.000923	20.707426
15.005868	-3.001700	3.874500	-11.628000	21.039538	0.000920	20.716188
16.005664	-2.986900	3.875300	-11.574000	21.024443	0.000919	20.704408
17.007050	-2.997700	3.874300	-11.613000	21.039024	0.000921	20.691964
18.006286	-2.994400	3.872000	-11.593000	21.058707	0.000919	20.701221
19.005859	-2.998000	3.872900	-11.610000	21.048381	0.000918	20.690892
20.007061	-2.995100	3.869800	-11.590000	21.047981	0.000917	20.683853
21.005566	-2.986000	3.869200	-11.552000	21.057018	0.000918	20.709489
22.006750	-2.973500	3.869700	-11.505000	21.046494	0.000918	20.699436
23.006485	-3.010800	3.868200	-11.645000	21.062612	0.000919	20.724568
24.009706	-3.013800	3.867200	-11.654000	21.070176	0.000916	20.711271
25.008660	-3.009400	3.866300	-11.635000	21.083400	0.000917	20.710273
26.008529	-3.009600	3.864000	-11.626000	21.086244	0.000918	20.689883
27.009362	-3.001700	3.865500	-11.601000	21.091285	0.000918	20.682597
28.008585	-3.002500	3.864200	-11.599000	21.090317	0.000919	20.693957
29.008121	-2.992200	3.863100	-11.558000	21.104987	0.000917	20.699149
30.008461	-3.008100	3.862200	-11.617000	21.118062	0.000918	20.687096
31.008659	-2.998100	3.862100	-11.577000	21.118936	0.000917	20.706464
32.008764	-2.994900	3.862000	-11.566000	21.140490	0.000919	20.684399
33.009464	-3.011300	3.861700	-11.627000	21.129291	0.000917	20.695958
34.009532	-3.007900	3.861100	-11.612000	21.123306	0.000917	20.701825
35.007559	-3.003600	3.860000	-11.593000	21.159627	0.000917	20.702122
36.008952	-2.984600	3.860700	-11.521000	21.157435	0.000918	20.683806
37.009644	-2.993000	3.859800	-11.551000	21.143358	0.000914	20.691063
38.007974	-2.998300	3.859000	-11.569000	21.167814	0.000917	20.691818
39.013340	-2.995600	3.858100	-11.557000	21.180764	0.000917	20.697187
40.013685	-3.004700	3.858700	-11.593000	21.176597	0.000915	20.683060
41.010319	-3.007100	3.857000	-11.598000	21.195557	0.000915	20.692070
42.013350	-3.020500	3.857100	-11.648000	21.190570	0.000915	20.701780
43.012873	-3.002300	3.856600	-11.577000	21.211401	0.000916	20.708394
44.013087	-3.011900	3.855000	-11.610000	21.211702	0.000916	20.703479
45.016307	-2.999100	3.854900	-11.560000	21.215197	0.000915	20.701286
46.018528	-2.991700	3.855300	-11.533000	21.227051	0.000917	20.684220
47.013493	-2.996400	3.854700	-11.549000	21.224380	0.000914	20.694825
48.017501	-3.024700	3.852600	-11.651000	21.227323	0.000915	20.698717
49.016227	-3.016900	3.853600	-11.625000	21.248454	0.000914	20.689984
50.023293	-2.997100	3.853800	-11.548000	21.265896	0.000913	20.698425
51.018182	-2.992900	3.853100	-11.531000	21.261882	0.000913	20.683028
52.017127	-3.010700	3.852000	-11.596000	21.270241	0.000914	20.704194
53.015403	-2.994900	3.853000	-11.539000	21.259843	0.000914	20.701378
54.016747	-3.005000	3.852200	-11.574000	21.288725	0.000913	20.696607
55.021783	-2.980400	3.851300	-11.477000	21.311553	0.000915	20.690995
56.016263	-3.020400	3.850700	-11.629000	21.298534	0.000916	20.701679
57.019939	-3.007100	3.849800	-11.576000	21.303348	0.000915	20.704125
58.020584	-2.992200	3.850000	-11.518000	21.307643	0.000914	20.698938
59.016842	-3.004000	3.849600	-11.562000	21.345310	0.000914	20.715761
60.027045	-3.003800	3.851300	-11.567000	21.337249	0.000916	20.699160
61.023200	-3.002900	3.849300	-11.557000	21.354533	0.000915	20.702702
62.017397	-3.014000	3.849500	-11.602000	21.336800	0.000915	20.679743
63.020533	-3.002500	3.847500	-11.551000	21.336548	0.000915	20.695140
64.020067	-3.005100	3.847500	-11.562000	21.357801	0.000915	20.709291
65.020982	-3.023400	3.847300	-11.631000	21.363785	0.000914	20.699630
66.019193	-2.995100	3.845700	-11.517000	21.367526	0.000914	20.701003
67.019805	-3.003100	3.847300	-11.553000	21.380569	0.000913	20.709786
68.019387	-3.002600	3.845900	-11.547000	21.388453	0.000914	20.717200
69.020825	-2.994800	3.846700	-11.519000	21.386878	0.000913	20.701873
70.019990	-2.976300	3.846200	-11.447000	21.416957	0.000914	20.697353
71.019326	-2.991900	3.845700	-11.504000	21.409794	0.000913	20.708206
72.019323	-2.986300	3.846800	-11.486000	21.416730	0.000916	20.714671
73.022598	-2.994600	3.844600	-11.511000	21.454715	0.000914	20.700994
74.018976	-2.979900	3.844700	-11.455000	21.438031	0.000914	20.729346
75.019398	-3.001600	3.844700	-11.539000	21.448032	0.000914	20.703315
76.022015	-2.999700	3.844000	-11.530000	21.462298	0.000915	20.724703
77.021493	-3.006000	3.843600	-11.552000	21.484471	0.000915	20.708008
78.024200	-3.002500	3.843300	-11.538000	21.473765	0.000916	20.715788
79.022963	-2.996600	3.842900	-11.515000	21.474511	0.000915	20.717957
80.021531	-3.005700	3.842000	-11.547000	21.483795	0.000918	20.718712
81.026778	-2.998900	3.843100	-11.524000	21.498431	0.000916	20.700165
82.024077	-3.024300	3.842900	-11.621000	21.509000	0.000916	20.718802
83.024155	-3.004300	3.841400	-11.538000	21.511838	0.000917	20.723065
84.023860	-2.992300	3.843400	-11.500000	21.520022	0.000917	20.717029
85.025419	-2.998700	3.841500	-11.518000	21.539573	0.000916	20.718575
86.023655	-2.988700	3.841500	-11.480000	21.526252	0.000916	20.724685
87.027112	-3.004000	3.842500	-11.541000	21.533656	0.000917	20.724982
88.030414	-2.990500	3.842200	-11.489000	21.541736	0.000917	20.732594
89.023216	-2.999500	3.839500	-11.515000	21.562082	0.000917	20.732090
90.028215	-2.995500	3.841800	-11.507000	21.534994	0.000917	20.731537
91.029787	-2.983000	3.841200	-11.457000	21.553598	0.000918	20.722177
92.023953	-3.005500	3.840100	-11.540000	21.559403	0.000919	20.716132
93.028544	-2.964100	3.841800	-11.386000	21.572819	0.000919	20.710590
94.028775	-2.990000	3.839100	-11.478000	21.578002	0.000917	20.731899
95.024225	-3.008600	3.838500	-11.547000	21.578570	0.000919	20.722984
96.025502	-2.987600	3.839500	-11.470000	21.573827	0.000920	20.717289
97.028580	-2.978400	3.840600	-11.437000	21.584193	0.000918	20.717231
98.025002	-2.985900	3.839400	-11.463000	21.581449	0.000920	20.715433
99.027128	-2.995000	3.839000	-11.497000	21.612861	0.000920	20.737385
100.029276	-3.000100	3.838300	-11.512000	21.622387	0.000922	20.725106
101.024658	-3.014900	3.836700	-11.566000	21.613079	0.000920	20.738551
102.029362	-3.009700	3.836800	-11.546000	21.635689	0.000919	20.749799
103.032731	-2.989500	3.837000	-11.469000	21.649648	0.000923	20.741482
104.027896	-2.983300	3.837800	-11.448000	21.653207	0.000919	20.740302
105.028731	-2.982200	3.836200	-11.438000	21.672575	0.000923	20.745934
106.029972	-3.006100	3.836700	-11.532000	21.683463	0.000921	20.739287
107.027078	-3.015600	3.836100	-11.564000	21.678947	0.000922	20.747571
108.031878	-2.992400	3.836400	-11.478000	21.709182	0.000922	20.733732
109.031142	-3.023400	3.834800	-11.593000	21.705709	0.000923	20.749697
110.029919	-3.018800	3.834100	-11.573000	21.711262	0.000925	20.755255
111.032613	-3.010100	3.835100	-11.543000	21.720457	0.000924	20.751181
112.031698	-2.995700	3.835700	-11.489000	21.718149	0.000926	20.750768
113.031809	-3.012600	3.835100	-11.552000	21.728568	0.000926	20.742702
114.032733	-3.000300	3.834500	-11.504000	21.739728	0.000926	20.755768
115.032954	-3.004300	3.835300	-11.522000	21.735711	0.000928	20.766447
116.030851	-3.017000	3.833100	-11.563000	21.748243	0.000927	20.752910
117.033903	-2.989900	3.833700	-11.462000	21.764214	0.000926	20.759886
118.032172	-3.001000	3.833600	-11.503000	21.760519	0.000927	20.761403
119.032124	-2.986000	3.834200	-11.448000	21.787736	0.000928	20.769204
120.035238	-2.977100	3.834300	-11.413000	21.766512	0.000927	20.744168
121.032339	-3.006500	3.832100	-11.520000	21.781733	0.000927	20.763196
122.034745	-3.004600	3.831400	-11.510000	21.796737	0.000926	20.759246
123.031730	-2.980600	3.832700	-11.423000	21.795430	0.000928	20.747507
124.035473	-3.019100	3.832800	-11.571000	21.821226	0.000928	20.758627
125.035001	-2.996900	3.832200	-11.483000	21.835055	0.000929	20.772468
126.038034	-2.991100	3.833500	-11.465000	21.824550	0.000928	20.771437
127.035022	-2.991000	3.831100	-11.457000	21.832649	0.000928	20.763896
128.035217	-3.017300	3.831400	-11.559000	21.874624	0.000927	20.756597
129.040562	-2.989600	3.832700	-11.457000	21.882245	0.000928	20.755690
130.035869	-2.998000	3.830300	-11.480000	21.878245	0.000930	20.771127
131.036611	-2.995800	3.830000	-11.472000	21.882397	0.000929	20.782870
132.037205	-2.974700	3.830900	-11.394000	21.891764	0.000932	20.771383
133.037091	-2.993900	3.828500	-11.460000	21.918130	0.000931	20.788292
134.036998	-3.000900	3.829900	-11.493000	21.918241	0.000933	20.783187
135.040734	-2.997600	3.829900	-11.478000	21.907165	0.000933	20.787273
136.037138	-2.986200	3.830700	-11.438000	21.905060	0.000934	20.759087
137.037126	-2.990800	3.828400	-11.447000	21.931431	0.000932	20.767466
138.040386	-2.983200	3.829400	-11.423000	21.930524	0.000932	20.781732
139.037861	-2.987000	3.828500	-11.434000	21.936967	0.000934	20.789129
140.038999	-2.983500	3.828700	-11.422000	21.947882	0.000935	20.788201
141.040537	-2.985800	3.828800	-11.432000	21.971908	0.000932	20.775741
142.044441	-2.989100	3.828400	-11.442000	21.968803	0.000934	20.780219
143.037840	-2.991800	3.827300	-11.450000	21.980661	0.000934	20.803944
144.040235	-2.995600	3.827500	-11.465000	21.996033	0.000935	20.798943
145.037519	-3.029400	3.826700	-11.591000	22.005074	0.000935	20.780492
146.041075	-3.020600	3.826400	-11.556000	21.999032	0.000934	20.808583
147.042902	-2.992600	3.827700	-11.453000	22.007924	0.000940	20.798045
148.045259	-3.016100	3.826500	-11.540000	22.021899	0.000936	20.794491
149.037964	-2.986800	3.826000	-11.427000	22.025635	0.000939	20.807714
150.045216	-2.984000	3.827100	-11.419000	22.005582	0.000938	20.808502
151.044417	-3.012600	3.825800	-11.524000	22.036036	0.000938	20.794892
152.040026	-2.991600	3.827100	-11.448000	22.068235	0.000938	20.794884
153.047769	-3.010400	3.824900	-11.512000	22.051477	0.000939	20.800867
154.040609	-3.000300	3.825500	-11.477000	22.057001	0.000939	20.806397
155.040246	-3.012400	3.824100	-11.518000	22.084690	0.000941	20.783856
156.045457	-2.983900	3.825800	-11.414000	22.088990	0.000942	20.815662
157.042500	-2.984300	3.826300	-11.418000	22.080856	0.000941	20.799933
158.042486	-3.012500	3.822800	-11.515000	22.102462	0.000941	20.811132
159.044160	-3.019700	3.822900	-11.542000	22.107714	0.000942	20.821130
160.043726	-3.003000	3.824200	-11.482000	22.091574	0.000942	20.813982
161.042659	-2.964300	3.825400	-11.338000	22.092514	0.000940	20.796431
162.049519	-2.982500	3.824000	-11.404000	22.094026	0.000941	20.794625
163.043638	-3.009300	3.822500	-11.502000	22.088013	0.000944	20.812788
164.045166	-2.982900	3.824900	-11.408000	22.078558	0.000942	20.823710
165.045897	-3.000300	3.821700	-11.463000	22.096672	0.000944	20.811025
166.042911	-2.993000	3.823100	-11.441000	22.099209	0.000945	20.826841
167.043771	-3.007800	3.822100	-11.494000	22.109172	0.000943	20.815479
168.045716	-3.001000	3.821500	-11.467000	22.129604	0.000942	20.821709
169.044613	-3.012700	3.822700	-11.515000	22.136980	0.000945	20.823878
170.046803	-2.999800	3.821200	-11.462000	22.141857	0.000942	20.835398
171.045334	-2.999300	3.821100	-11.459000	22.176796	0.000947	20.834818
172.051328	-3.003600	3.821000	-11.475000	22.167819	0.000945	20.824882
173.046217	-3.007500	3.821300	-11.491000	22.161733	0.000946	20.823056
174.044724	-2.993600	3.820900	-11.436000	22.173116	0.000946	20.833978
175.046259	-2.984100	3.821400	-11.402000	22.176279	0.000948	20.826240
176.045691	-2.998000	3.820300	-11.453000	22.201379	0.000946	20.827662
177.044780	-3.002600	3.819400	-11.467000	22.206128	0.000949	20.831469
178.051972	-3.006600	3.820000	-11.483000	22.202513	0.000948	20.843021
179.048010	-3.000800	3.819100	-11.459000	22.211330	0.000949	20.838099
180.048634	-2.986600	3.819700	-11.407000	22.226205	0.000950	20.835449
181.050003	-2.996000	3.818700	-11.440000	22.224727	0.000951	20.823538
182.048792	-2.967800	3.820600	-11.337000	22.227067	0.000950	20.837260
183.047363	-2.994800	3.818400	-11.434000	22.231848	0.000952	20.851056
184.051018	-2.983700	3.818900	-11.393000	22.255049	0.000951	20.822604
185.047715	-3.019600	3.816500	-11.523000	22.260229	0.000952	20.850075
186.048098	-3.017600	3.815700	-11.514000	22.276722	0.000955	20.841459
187.054307	-3.019400	3.816600	-11.523000	22.269064	0.000952	20.844697
188.049637	-2.988900	3.817800	-11.409000	22.289825	0.000954	20.835140
189.049397	-2.997300	3.816700	-11.439000	22.323039	0.000954	20.847534
190.051606	-2.997800	3.817400	-11.442000	22.287055	0.000954	20.856546
191.053582	-2.998600	3.816800	-11.443000	22.307331	0.000955	20.833229
192.048850	-2.998100	3.816700	-11.442000	22.315604	0.000954	20.860951
193.051023	-2.993700	3.816000	-11.421000	22.328163	0.000955	20.841759
194.051531	-2.994900	3.815900	-11.427000	22.347697	0.000956	20.853733
195.048365	-2.968900	3.816200	-11.329000	22.349142	0.000955	20.843327
196.051702	-2.998100	3.814600	-11.435000	22.350489	0.000958	20.846097
197.049937	-2.994500	3.815500	-11.424000	22.375408	0.000957	20.831696
198.051555	-2.998500	3.815200	-11.439000	22.400697	0.000956	20.851804
199.054643	-3.016500	3.814200	-11.505000	22.374107	0.000957	20.853627
200.050213	-2.995900	3.812800	-11.421000	22.375977	0.000954	20.852179
201.052122	-3.008300	3.812500	-11.468000	22.394369	0.000958	20.844045
202.056125	-2.992600	3.814200	-11.414000	22.391397	0.000959	20.872362
203.052661	-2.988400	3.813800	-11.396000	22.409987	0.000956	20.853994
204.054467	-3.001300	3.813100	-11.442000	22.396758	0.000957	20.848807
205.056459	-3.004700	3.812200	-11.453000	22.424838	0.000958	20.848478
206.053485	-2.994800	3.813500	-11.419000	22.438844	0.000958	20.845909
207.054880	-2.974700	3.813000	-11.340000	22.435329	0.000960	20.849975
208.053505	-3.001400	3.812600	-11.443000	22.451724	0.000959	20.846953
209.052490	-3.017400	3.810900	-11.498000	22.413771	0.000960	20.841663
210.054060	-2.971500	3.813200	-11.329000	22.425806	0.000960	20.864146
211.057134	-3.007200	3.812100	-11.463000	22.469987	0.000962	20.846277
212.056840	-2.975500	3.813400	-11.345000	22.469814	0.000960	20.865543
213.056993	-2.981100	3.812200	-11.363000	22.474997	0.000960	20.872156
214.058577	-3.001100	3.810000	-11.433000	22.474100	0.000964	20.841387
215.057185	-3.021100	3.809500	-11.508000	22.492787	0.000964	20.859153
216.057020	-2.997800	3.810000	-11.421000	22.503327	0.000965	20.851217
217.061567	-3.036500	3.808200	-11.563000	22.488572	0.000965	20.849242
218.058965	-3.012800	3.810300	-11.478000	22.504097	0.000966	20.875220
219.058877	-2.996000	3.810100	-11.414000	22.524204	0.000966	20.871650
220.059761	-3.016500	3.809800	-11.491000	22.538506	0.000966	20.865586
221.058885	-3.000000	3.809600	-11.428000	22.547653	0.000966	20.851988
222.059728	-2.988400	3.807900	-11.377000	22.560330	0.000969	20.890760
223.060333	-2.990700	3.808600	-11.389000	22.565566	0.000969	20.874194
224.059277	-2.985600	3.809200	-11.372000	22.578500	0.000968	20.848269
225.059677	-2.985400	3.808500	-11.369000	22.583930	0.000967	20.866035
226.061328	-2.989400	3.807700	-11.382000	22.590010	0.000968	20.902468
227.065005	-2.991100	3.808200	-11.389000	22.608597	0.000970	20.871300
228.062024	-2.994500	3.807300	-11.399000	22.608798	0.000970	20.866760
229.062701	-2.999200	3.807300	-11.417000	22.617242	0.000970	20.883751
230.061558	-2.988400	3.808000	-11.378000	22.613327	0.000971	20.869400
231.063110	-2.999800	3.807300	-11.420000	22.626908	0.000972	20.875415
232.061434	-2.992400	3.806200	-11.388000	22.634680	0.000973	20.864708
233.064000	-3.007200	3.805300	-11.443000	22.613875	0.000973	20.864733
234.063717	-2.989700	3.806500	-11.380000	22.650150	0.000972	20.850806
235.063488	-3.008700	3.805700	-11.449000	22.658497	0.000975	20.862486
236.065238	-2.991000	3.806100	-11.382000	22.690132	0.000974	20.880421
237.063920	-2.983600	3.806500	-11.355000	22.681940	0.000976	20.884069
238.064736	-2.973400	3.805600	-11.315000	22.666838	0.000976	20.883641
239.064991	-2.994800	3.805700	-11.397000	22.668308	0.000976	20.869467
240.065949	-3.016100	3.804500	-11.474000	22.653951	0.000976	20.876423
241.065519	-3.018600	3.803100	-11.477000	22.681657	0.000977	20.879519
242.065173	-3.008600	3.803500	-11.443000	22.690528	0.000977	20.888403
243.063998	-2.999700	3.803700	-11.409000	22.689306	0.000980	20.879593
244.066075	-2.995300	3.802900	-11.389000	22.693191	0.000980	20.891545
245.065248	-3.015300	3.802400	-11.464000	22.719869	0.000980	20.869431
246.065344	-3.002700	3.803100	-11.419000	22.721286	0.000981	20.868954
247.066131	-3.022900	3.802800	-11.495000	22.698066	0.000980	20.883627
248.068672	-3.012400	3.803200	-11.454000	22.706559	0.000978	20.874116
249.069029	-2.980300	3.803900	-11.335000	22.700804	0.000983	20.887317
250.069426	-2.980000	3.803500	-11.334000	22.719212	0.000982	20.886790
251.068801	-2.990100	3.801800	-11.367000	22.728605	0.000984	20.886715
252.069706	-2.985500	3.801500	-11.348000	22.728951	0.000982	20.870942
253.069278	-2.976200	3.802200	-11.315000	22.753738	0.000984	20.897666
254.071969	-3.010900	3.801600	-11.445000	22.740131	0.000984	20.870288
255.070326	-3.003300	3.801400	-11.416000	22.777773	0.000985	20.896138
256.070819	-2.980300	3.801700	-11.328000	22.770747	0.000983	20.868239
257.071856	-3.006600	3.799900	-11.424000	22.768059	0.000983	20.907269
258.071423	-2.983300	3.801300	-11.338000	22.777847	0.000985	20.890523
259.071279	-3.002000	3.798300	-11.402000	22.775477	0.000986	20.909483
260.070417	-2.977100	3.801100	-11.316000	22.771541	0.000985	20.879466
261.072019	-2.985300	3.800200	-11.344000	22.784869	0.000986	20.912254
262.073314	-3.006100	3.798800	-11.418000	22.777292	0.000988	20.906087
263.073574	-3.035400	3.798000	-11.527000	22.804498	0.000986	20.902995
264.071903	-2.990700	3.799900	-11.362000	22.789871	0.000986	20.909678
265.073772	-3.017200	3.798200	-11.458000	22.807557	0.000987	20.917437
266.072845	-2.982900	3.799400	-11.332000	22.817624	0.000988	20.895281
267.074948	-2.990400	3.797800	-11.355000	22.848516	0.000987	20.897779
268.074578	-3.008000	3.797700	-11.420000	22.848417	0.000989	20.862595
269.073035	-2.997800	3.798300	-11.385000	22.856459	0.000990	20.898625
270.073973	-2.994500	3.797500	-11.370000	22.873201	0.000989	20.888371
271.074377	-2.999200	3.797300	-11.389000	22.896693	0.000990	20.900051
272.076086	-2.989500	3.798000	-11.353000	22.914822	0.000991	20.892136
273.078247	-3.021800	3.795600	-11.469000	22.910192	0.000991	20.900298
274.076354	-3.008600	3.796700	-11.423000	22.922373	0.000992	20.902545
275.076366	-2.999100	3.795700	-11.383000	22.912311	0.000993	20.880612
276.078419	-3.005200	3.795500	-11.404000	22.933258	0.000993	20.890218
277.077800	-3.015900	3.794900	-11.444000	22.917867	0.000992	20.901349
278.078701	-2.990600	3.795400	-11.349000	22.926036	0.000992	20.893887
279.078037	-3.002800	3.794200	-11.392000	22.918739	0.000995	20.907913
280.080079	-2.988900	3.794700	-11.340000	22.937246	0.000994	20.891368
281.078862	-3.015400	3.794100	-11.439000	22.946789	0.000995	20.865369
282.078943	-3.024600	3.792800	-11.470000	22.970851	0.000992	20.896113
283.079638	-2.996100	3.795500	-11.368000	22.971670	0.000995	20.886503
284.080067	-2.996400	3.793600	-11.366000	22.964999	0.000996	20.872708
285.078849	-2.985500	3.792800	-11.324000	22.956310	0.000997	20.863529
286.080004	-2.987500	3.794800	-11.335000	22.944599	0.000996	20.877399
287.080399	-2.981600	3.792300	-11.305000	22.954838	0.000996	20.865847
288.079383	-2.974500	3.794400	-11.284000	22.921741	0.000994	20.866827
289.080624	-2.970400	3.793800	-11.267000	22.930207	0.000998	20.884317
290.082052	-3.004700	3.792600	-11.395000	22.949137	0.000998	20.868671
291.082501	-3.001800	3.792300	-11.382000	22.946722	0.000998	20.878103
292.083429	-3.005100	3.791700	-11.393000	22.954647	0.000999	20.886043
293.085579	-3.000300	3.791800	-11.374000	22.974421	0.001001	20.877881
294.084637	-3.027000	3.791000	-11.474000	22.998437	0.001001	20.869700
295.085071	-2.994200	3.791700	-11.352000	23.022522	0.001000	20.869177
296.085333	-3.023200	3.790500	-11.457000	23.066210	0.001000	20.876915
297.082559	-2.997900	3.790000	-11.361000	23.061580	0.000999	20.873224
298.085603	-3.020200	3.790700	-11.447000	23.060560	0.001001	20.875521
299.085093	-3.019400	3.790000	-11.442000	23.091844	0.001000	20.860876
300.084893	-3.010400	3.790000	-11.408000	23.087338	0.001001	20.861576
301.086583	-3.000800	3.789600	-11.370000	23.108459	0.001002	20.856662
302.084139	-2.985100	3.789700	-11.311000	23.111828	0.001002	20.857667
303.085078	-2.998800	3.788500	-11.360000	23.115095	0.001003	20.865681
304.084670	-2.993500	3.790300	-11.345000	23.122242	0.001003	20.869049
305.083866	-3.011100	3.789300	-11.409000	23.127401	0.001005	20.865210
306.086435	-3.012600	3.787600	-11.410000	23.133379	0.001005	20.855080
307.083546	-3.006200	3.788600	-11.388000	23.154902	0.001004	20.858629
308.085564	-3.007600	3.787100	-11.389000	23.161202	0.001004	20.845976
309.084399	-3.002800	3.787400	-11.371000	23.161505	0.001004	20.857660
310.087061	-2.953000	3.789000	-11.188000	23.175947	0.001003	20.856959
311.085919	-2.983600	3.788200	-11.299000	23.161131	0.001006	20.842587
312.085785	-2.995400	3.786200	-11.339000	23.148186	0.001006	20.857589
313.088963	-3.006400	3.785900	-11.381000	23.165767	0.001008	20.840595
314.085714	-3.019400	3.784600	-11.426000	23.166470	0.001008	20.841773
315.089048	-2.993500	3.786200	-11.333000	23.172350	0.001008	20.847665
316.087236	-2.979000	3.785900	-11.276000	23.162515	0.001008	20.834017
317.089953	-3.012000	3.784600	-11.399000	23.185552	0.001008	20.848567
318.090823	-2.996700	3.784400	-11.340000	23.169987	0.001008	20.850987
319.087902	-3.004500	3.784500	-11.370000	23.157290	0.001009	20.844427
320.090320	-2.997800	3.784200	-11.343000	23.175422	0.001011	20.842683
321.089712	-2.992000	3.783700	-11.320000	23.183769	0.001008	20.835401
322.087162	-2.977800	3.784400	-11.268000	23.182353	0.001011	20.824500
323.091467	-2.996600	3.783900	-11.336000	23.190228	0.001012	20.850407
324.093150	-3.033500	3.781300	-11.469000	23.192767	0.001012	20.839201
325.086909	-3.017100	3.782200	-11.411000	23.170408	0.001012	20.838133
326.092883	-2.994000	3.783100	-11.325000	23.167792	0.001011	20.817020
327.095830	-2.998800	3.782800	-11.343000	23.162566	0.001012	20.828378
328.089863	-2.981200	3.783200	-11.277000	23.180949	0.001013	20.828307
329.092194	-2.993300	3.781100	-11.317000	23.169918	0.001014	20.806822
330.095160	-3.004700	3.782500	-11.364000	23.172065	0.001012	20.800439
331.091522	-3.019900	3.781000	-11.417000	23.178092	0.001014	20.838721
332.098433	-3.005800	3.781800	-11.366000	23.190624	0.001014	20.819511
333.095546	-3.034500	3.779100	-11.467000	23.200063	0.001014	20.820435
334.092588	-2.996700	3.781500	-11.331000	23.198449	0.001013	20.824982
335.095740	-2.966500	3.781500	-11.216000	23.226714	0.001013	20.821539
336.096756	-3.019700	3.779300	-11.411000	23.207393	0.001016	20.824936
337.093983	-3.008500	3.779800	-11.370000	23.210882	0.001016	20.835544
338.095744	-2.975500	3.779700	-11.245000	23.187602	0.001017	20.812216
339.100775	-2.997000	3.779700	-11.325000	23.179262	0.001017	20.820453
340.095400	-3.007800	3.779000	-11.365000	23.165713	0.001016	20.808773
341.095760	-2.999600	3.779600	-11.337000	23.200755	0.001017	20.815914
342.100266	-2.998000	3.778300	-11.327000	23.186017	0.001016	20.826274
343.100207	-2.971600	3.780300	-11.232000	23.198669	0.001017	20.794857
344.096472	-2.996800	3.778700	-11.323000	23.192024	0.001018	20.819966
345.094825	-3.006100	3.777400	-11.354000	23.216306	0.001018	20.814428
346.095894	-3.008800	3.776000	-11.360000	23.248505	0.001021	20.810660
347.098413	-3.001900	3.777300	-11.338000	23.270992	0.001020	20.817075
348.098643	-2.983200	3.776800	-11.265000	23.262505	0.001020	20.813310
349.097099	-2.995600	3.776000	-11.310000	23.292587	0.001020	20.797465
350.096550	-3.000300	3.777100	-11.330000	23.266820	0.001019	20.795350
351.099713	-3.006600	3.775900	-11.351000	23.285818	0.001021	20.786889
352.096854	-3.016400	3.774900	-11.386000	23.305644	0.001020	20.806758
353.097486	-3.029800	3.774100	-11.434000	23.283407	0.001023	20.789688
354.099123	-3.006000	3.775200	-11.346000	23.283308	0.001022	20.823254
355.096773	-2.989300	3.773700	-11.280000	23.256097	0.001021	20.793613
356.099406	-3.006800	3.774500	-11.347000	23.258170	0.001024	20.806121
357.099402	-2.992900	3.774800	-11.296000	23.290314	0.001025	20.808464
358.095918	-3.002300	3.774200	-11.330000	23.282751	0.001022	20.809420
359.097846	-2.989700	3.774200	-11.283000	23.317363	0.001024	20.808071
360.097845	-3.013200	3.772600	-11.367000	23.304515	0.001024	20.805626
361.096710	-3.020300	3.772500	-11.393000	23.287638	0.001024	20.793929
362.100493	-3.002100	3.770600	-11.319000	23.284030	0.001024	20.793632
363.101176	-2.989100	3.771400	-11.272000	23.277477	0.001023	20.792754
364.100346	-2.990500	3.772100	-11.278000	23.277332	0.001024	20.770323
365.112590	-3.029600	3.770000	-11.420000	23.296515	0.001024	20.798558
366.103405	-2.988400	3.770600	-11.267000	23.317703	0.001025	20.806515
367.103804	-3.000000	3.770600	-11.311000	23.297285	0.001026	20.774673
368.105519	-2.977800	3.772300	-11.232000	23.289447	0.001026	20.790526
369.104030	-2.990900	3.770300	-11.276000	23.298983	0.001026	20.779220
370.103014	-2.988100	3.770700	-11.266000	23.344603	0.001026	20.806449
371.105084	-2.984800	3.770600	-11.253000	23.329418	0.001028	20.785066
372.103601	-2.971900	3.770600	-11.205000	23.323691	0.001028	20.779327
373.105753	-2.994300	3.768700	-11.283000	23.294737	0.001029	20.777809
374.104700	-2.972200	3.768900	-11.201000	23.290903	0.001028	20.783449
375.104513	-3.007700	3.768200	-11.333000	23.309531	0.001028	20.780782
376.104413	-2.981300	3.769000	-11.236000	23.322880	0.001029	20.774720
377.106064	-2.997200	3.768800	-11.294000	23.333469	0.001029	20.781065
378.106776	-2.985200	3.767300	-11.245000	23.372608	0.001029	20.779515
379.105404	-2.983600	3.767400	-11.240000	23.384015	0.001032	20.787629
380.109899	-2.988600	3.767500	-11.256000	23.369254	0.001028	20.803181
381.105381	-3.009900	3.765600	-11.333000	23.376750	0.001029	20.792201
382.106191	-3.005100	3.765900	-11.315000	23.401900	0.001030	20.778055
383.107130	-2.988400	3.766300	-11.254000	23.429564	0.001031	20.770695
384.107338	-3.023500	3.765500	-11.383000	23.434969	0.001032	20.771845
385.105243	-3.024800	3.764900	-11.386000	23.433105	0.001031	20.777089
386.107086	-2.999000	3.765300	-11.291000	23.447321	0.001030	20.776166
387.104691	-2.988400	3.765300	-11.252000	23.474034	0.001031	20.775914
388.105400	-3.022900	3.763100	-11.374000	23.455293	0.001032	20.781311
389.105330	-2.999100	3.764100	-11.287000	23.486987	0.001034	20.749068
390.105815	-2.995900	3.763800	-11.275000	23.483972	0.001032	20.774970
391.107373	-2.992200	3.763100	-11.259000	23.495307	0.001033	20.783014
392.109445	-2.986400	3.763800	-11.240000	23.466251	0.001036	20.780441
393.110263	-3.006900	3.764000	-11.316000	23.455823	0.001035	20.773308
394.109697	-2.993000	3.762600	-11.260000	23.460878	0.001034	20.770788
395.110425	-3.013900	3.763400	-11.341000	23.456321	0.001032	20.767642
396.109680	-2.996200	3.763000	-11.273000	23.478109	0.001034	20.775732
397.110357	-2.992300	3.763200	-11.259000	23.460385	0.001032	20.766026
398.114169	-3.000700	3.760800	-11.283000	23.479808	0.001034	20.782176
399.111317	-3.013300	3.762400	-11.335000	23.520911	0.001035	20.768850
400.115885	-2.984100	3.762800	-11.228000	23.542275	0.001033	20.769876
401.115123	-2.992200	3.760700	-11.251000	23.550715	0.001035	20.764586
402.113503	-2.996800	3.760400	-11.268000	23.547955	0.001036	20.765138
403.113453	-3.001900	3.759600	-11.286000	23.558163	0.001035	20.774898
404.114461	-2.996700	3.760200	-11.267000	23.540810	0.001035	20.768408
405.116160	-2.988000	3.760100	-11.235000	23.550348	0.001034	20.777021
406.117067	-2.989500	3.760800	-11.241000	23.563572	0.001036	20.741912
407.120527	-2.998900	3.759200	-11.272000	23.525982	0.001036	20.758759
408.114979	-3.028900	3.759200	-11.385000	23.553544	0.001036	20.767896
409.120046	-3.006300	3.759100	-11.298000	23.557275	0.001036	20.780645
410.118258	-2.981100	3.759500	-11.205000	23.577839	0.001038	20.768069
411.119642	-3.017700	3.757200	-11.337000	23.581228	0.001038	20.742068
412.116950	-3.008800	3.758400	-11.306000	23.538560	0.001037	20.759513
413.116864	-3.022200	3.757500	-11.355000	23.535273	0.001037	20.775186
414.115731	-2.979600	3.757300	-11.194000	23.552305	0.001038	20.742946
415.116042	-3.004400	3.757800	-11.289000	23.550039	0.001038	20.755374
416.119464	-3.000100	3.756100	-11.268000	23.568589	0.001038	20.749312
417.117535	-2.996000	3.756300	-11.253000	23.545391	0.001036	20.746446
418.122402	-3.005900	3.755900	-11.288000	23.555077	0.001039	20.754260
419.115507	-3.002800	3.755100	-11.275000	23.546415	0.001039	20.755060
420.118105	-2.982800	3.754900	-11.199000	23.604149	0.001040	20.759356
421.117446	-2.999100	3.754400	-11.258000	23.578928	0.001039	20.757781
422.115499	-3.019000	3.755500	-11.337000	23.605321	0.001040	20.752944
423.115473	-3.005900	3.754000	-11.283000	23.572170	0.001040	20.740574
424.114719	-3.012600	3.753800	-11.307000	23.564104	0.001040	20.757145
425.116646	-2.987900	3.753600	-11.215000	23.555887	0.001039	20.744640
426.116386	-2.989100	3.753400	-11.218000	23.563314	0.001040	20.744025
427.118624	-3.002100	3.752200	-11.264000	23.599163	0.001040	20.729700
428.116519	-3.000800	3.752500	-11.259000	23.596276	0.001039	20.729651
429.116327	-2.986400	3.752400	-11.205000	23.629639	0.001038	20.746503
430.115466	-3.019300	3.750700	-11.324000	23.667698	0.001040	20.735819
431.116918	-3.005700	3.751400	-11.274000	23.667233	0.001040	20.750527
432.121159	-3.006100	3.749800	-11.270000	23.671440	0.001042	20.739097
433.119475	-3.004600	3.750300	-11.267000	23.673258	0.001045	20.712943
434.121072	-3.003300	3.749500	-11.261000	23.707338	0.001043	20.741422
435.118857	-3.003400	3.750500	-11.263000	23.697036	0.001042	20.741999
436.120115	-3.015800	3.749100	-11.304000	23.714683	0.001043	20.733613
437.123506	-3.000500	3.749000	-11.248000	23.729422	0.001045	20.742700
438.120562	-3.013700	3.749000	-11.298000	23.711846	0.001044	20.744993
439.121506	-2.995800	3.750000	-11.231000	23.712742	0.001045	20.739253
440.121871	-3.001300	3.747800	-11.248000	23.721678	0.001046	20.731617
441.120134	-3.008000	3.746900	-11.268000	23.720358	0.001044	20.739303
442.121382	-2.989000	3.748900	-11.204000	23.721728	0.001047	20.749685
443.123211	-3.000000	3.748000	-11.243000	23.682918	0.001044	20.742544
444.124038	-2.956700	3.748900	-11.084000	23.665374	0.001046	20.737756
445.126202	-3.004600	3.747500	-11.258000	23.684143	0.001045	20.729073
446.126259	-3.016400	3.745300	-11.295000	23.680681	0.001044	20.732714
447.121294	-3.017300	3.746000	-11.302000	23.708182	0.001045	20.724249
448.135056	-3.004200	3.746900	-11.256000	23.690016	0.001044	20.728322
449.122148	-2.995500	3.747300	-11.224000	23.713409	0.001046	20.718109
450.123797	-3.000800	3.746100	-11.240000	23.694939	0.001044	20.747009
451.126721	-3.001600	3.745400	-11.241000	23.730039	0.001043	20.738103
452.122728	-3.007600	3.743900	-11.259000	23.738005	0.001047	20.725226
453.124418	-3.007000	3.744700	-11.258000	23.754257	0.001046	20.746737
454.127749	-3.004900	3.743600	-11.248000	23.759512	0.001047	20.731143
455.125729	-3.000300	3.744700	-11.233000	23.761104	0.001045	20.723729
456.125224	-3.016600	3.742400	-11.288000	23.743507	0.001045	20.709879
457.125832	-3.020700	3.742700	-11.304000	23.769443	0.001046	20.712650
458.127639	-2.992800	3.743700	-11.202000	23.787216	0.001046	20.714823
459.131892	-3.025400	3.741500	-11.318000	23.794207	0.001046	20.734635
460.133132	-3.006300	3.741300	-11.247000	23.805088	0.001046	20.733217
461.132006	-3.001500	3.741900	-11.230000	23.792546	0.001046	20.715899
462.130671	-2.986900	3.742300	-11.177000	23.812584	0.001046	20.726508
463.131356	-3.019600	3.741500	-11.297000	23.761510	0.001047	20.719869
464.132642	-2.996500	3.742400	-11.213000	23.736170	0.001047	20.739983
465.137874	-3.005700	3.741900	-11.245000	23.730125	0.001045	20.711161
466.134428	-3.007700	3.742100	-11.253000	23.739382	0.001048	20.728504
467.130677	-3.010400	3.740700	-11.260000	23.771791	0.001046	20.710736
468.135258	-2.967500	3.740100	-11.097000	23.766314	0.001045	20.713305
469.137820	-2.995600	3.738800	-11.198000	23.759298	0.001048	20.720022
470.134237	-3.021700	3.738500	-11.295000	23.798397	0.001048	20.710386
471.133081	-2.982800	3.738800	-11.152000	23.795835	0.001047	20.713507
472.131905	-3.003800	3.739300	-11.231000	23.819303	0.001049	20.724710
473.132172	-2.982500	3.739800	-11.153000	23.840114	0.001050	20.706221
474.141697	-2.975000	3.739000	-11.123000	23.854695	0.001047	20.710884
475.134872	-3.002100	3.737500	-11.219000	23.865797	0.001049	20.721069
476.132800	-2.976700	3.739400	-11.130000	23.830800	0.001047	20.722488
477.132552	-2.967300	3.738200	-11.090000	23.823761	0.001049	20.694564
478.132520	-2.972100	3.738900	-11.111000	23.840089	0.001051	20.709990
479.133749	-3.012600	3.736500	-11.255000	23.827692	0.001047	20.713206
480.132977	-2.997400	3.737200	-11.200000	23.850114	0.001048	20.717672
481.132433	-3.002000	3.735800	-11.214000	23.838194	0.001050	20.697657
482.132743	-3.005900	3.734800	-11.226000	23.850316	0.001049	20.717874
483.133661	-2.998700	3.734900	-11.200000	23.890785	0.001051	20.703924
484.132453	-3.009500	3.735600	-11.241000	23.869329	0.001050	20.715602
485.133650	-2.998200	3.735700	-11.199000	23.887372	0.001049	20.704770
486.135146	-2.997700	3.735300	-11.196000	23.875403	0.001047	20.731175
487.140992	-3.026800	3.733700	-11.300000	23.908527	0.001049	20.693265
488.133192	-2.991900	3.734500	-11.172000	23.887718	0.001049	20.699900
489.133878	-2.989200	3.734200	-11.161000	23.899444	0.001049	20.714979
490.136109	-2.981800	3.733600	-11.131000	23.920147	0.001051	20.719144
491.134787	-3.007900	3.732900	-11.227000	23.909794	0.001051	20.707813
492.133707	-3.006300	3.732500	-11.220000	23.889042	0.001050	20.719247
493.135586	-2.998400	3.732600	-11.191000	23.886275	0.001050	20.686598
494.138385	-2.997200	3.731900	-11.185000	23.874111	0.001050	20.699533
495.138424	-3.015400	3.731100	-11.249000	23.858774	0.001049	20.696482
496.135818	-3.005700	3.730400	-11.211000	23.887870	0.001051	20.720917
497.141627	-2.992200	3.731800	-11.165000	23.891353	0.001049	20.699277
498.135775	-3.007300	3.730600	-11.218000	23.881899	0.001051	20.714929
499.137611	-2.998600	3.730600	-11.185000	23.865078	0.001051	20.711812
500.140796	-3.013100	3.728200	-11.232000	23.904572	0.001050	20.707792
501.138557	-3.009900	3.729400	-11.224000	23.939661	0.001052	20.726858
502.137372	-2.997200	3.729500	-11.177000	23.946630	0.001051	20.711561
503.136393	-3.004600	3.728500	-11.201000	23.963504	0.001052	20.702403
504.136277	-2.977800	3.728600	-11.102000	23.973063	0.001049	20.733328
505.137165	-2.964300	3.728800	-11.053000	23.968282	0.001049	20.710987
506.137250	-2.983500	3.728000	-11.120000	23.945212	0.001049	20.714880
507.137894	-2.978100	3.728100	-11.102000	23.948653	0.001049	20.721650
508.138353	-2.998900	3.726600	-11.175000	23.987268	0.001050	20.707742
509.149205	-3.025500	3.726200	-11.272000	23.977890	0.001049	20.702130
510.139361	-3.023900	3.725400	-11.263000	24.021709	0.001048	20.709565
511.141960	-3.018800	3.726300	-11.247000	23.971299	0.001049	20.721127
512.142883	-2.993000	3.726200	-11.152000	23.973988	0.001050	20.721926
513.138190	-2.970200	3.726600	-11.068000	23.964733	0.001047	20.705532
514.137557	-3.002200	3.724500	-11.181000	23.983716	0.001050	20.704180
515.142684	-3.007100	3.725200	-11.201000	23.976529	0.001049	20.699817
516.140621	-3.011800	3.724600	-11.217000	23.971920	0.001049	20.698040
517.139402	-3.001000	3.725000	-11.177000	23.952069	0.001049	20.702315
518.138618	-3.021400	3.724400	-11.250000	23.946741	0.001048	20.717362
519.146349	-3.029700	3.722100	-11.276000	23.982552	0.001050	20.706806
520.141323	-2.993900	3.724400	-11.149000	23.972549	0.001049	20.703887
521.146505	-2.997300	3.723300	-11.158000	23.952966	0.001050	20.721708
522.141335	-2.990900	3.722400	-11.132000	23.962373	0.001050	20.718339
523.143015	-2.992000	3.722900	-11.138000	23.952797	0.001048	20.711581
524.141718	-2.986500	3.723000	-11.117000	23.967451	0.001048	20.702093
525.142804	-2.974900	3.722800	-11.074000	23.984645	0.001048	20.686143
526.144047	-2.991800	3.721800	-11.133000	23.979744	0.001048	20.724380
527.142375	-2.976100	3.721900	-11.075000	23.979296	0.001050	20.702118
528.141712	-2.989300	3.721300	-11.122000	23.984698	0.001048	20.708010
529.140937	-3.010500	3.720100	-11.198000	24.023666	0.001051	20.713898
530.141021	-3.008200	3.720800	-11.192000	24.043022	0.001048	20.711024
531.145632	-2.981400	3.720400	-11.091000	24.030088	0.001051	20.695207
532.142993	-3.008200	3.719000	-11.187000	24.070299	0.001050	20.685273
533.146277	-2.981800	3.720400	-11.092000	24.092816	0.001052	20.704538
534.143950	-3.004900	3.721200	-11.181000	24.091718	0.001049	20.700118
535.143661	-3.006700	3.718600	-11.180000	24.076787	0.001050	20.686090
536.147683	-3.003000	3.718400	-11.165000	24.080693	0.001051	20.714665
537.144660	-3.007300	3.718100	-11.180000	24.051874	0.001050	20.710892
538.146532	-3.004000	3.718200	-11.168000	24.074518	0.001052	20.716059
539.145773	-3.004100	3.718400	-11.170000	24.079418	0.001052	20.699161
540.144418	-3.019900	3.717100	-11.223000	24.102453	0.001054	20.726533
541.148134	-3.012900	3.716500	-11.197000	24.108648	0.001050	20.702399
542.150909	-3.001100	3.716900	-11.154000	24.100981	0.001051	20.703244
543.145185	-3.015000	3.717000	-11.204000	24.104887	0.001051	20.725655
544.146374	-3.010200	3.714500	-11.180000	24.099831	0.001053	20.722954
545.145702	-2.997900	3.715500	-11.136000	24.060163	0.001054	20.704506
546.146101	-2.994900	3.716400	-11.128000	24.064883	0.001052	20.712560
547.149470	-3.001400	3.714500	-11.148000	24.076501	0.001054	20.717574
548.147228	-3.005800	3.714600	-11.165000	24.090084	0.001054	20.723610
549.150686	-2.995500	3.714800	-11.126000	24.100399	0.001053	20.715463
550.148140	-3.005600	3.713700	-11.161000	24.095992	0.001053	20.718156
551.150925	-3.002800	3.713000	-11.148000	24.098776	0.001053	20.719999
552.151563	-2.999100	3.712700	-11.132000	24.056345	0.001054	20.730077
553.148048	-3.009800	3.712800	-11.173000	24.050738	0.001054	20.719711
554.148560	-3.001200	3.711300	-11.137000	24.032994	0.001052	20.706183
555.149739	-3.028400	3.712000	-11.239000	24.069317	0.001052	20.731232
556.149751	-2.986300	3.712500	-11.086000	24.079809	0.001054	20.728953
557.149864	-2.994100	3.712200	-11.114000	24.098194	0.001053	20.721787
558.155205	-2.991700	3.711600	-11.103000	24.132850	0.001053	20.736631
559.150442	-2.979600	3.711700	-11.057000	24.122515	0.001053	20.715833
560.149090	-3.010200	3.709600	-11.166000	24.144678	0.001052	20.732373
561.153215	-3.010300	3.711900	-11.173000	24.155095	0.001051	20.744244
562.150687	-3.008100	3.711100	-11.161000	24.149768	0.001051	20.737004
563.150141	-2.990800	3.710200	-11.095000	24.184171	0.001050	20.723620
564.154562	-2.978400	3.709800	-11.048000	24.188623	0.001052	20.744682
565.155611	-3.008300	3.708900	-11.156000	24.220358	0.001050	20.724355
566.151654	-3.002200	3.709600	-11.137000	24.224038	0.001050	20.738004
567.153426	-3.014500	3.708700	-11.179000	24.240801	0.001052	20.755293
568.153845	-3.022200	3.707900	-11.205000	24.236913	0.001050	20.745229
569.150767	-2.988200	3.708100	-11.080000	24.237826	0.001049	20.754205
570.154183	-3.017400	3.708000	-11.187000	24.207667	0.001050	20.741972
571.151567	-3.016500	3.707600	-11.183000	24.195373	0.001050	20.744814
572.152760	-3.004600	3.706800	-11.136000	24.178449	0.001048	20.748702
573.159009	-3.010100	3.706300	-11.154000	24.165629	0.001051	20.749119
574.154421	-2.982700	3.707900	-11.058000	24.228818	0.001049	20.740902
575.155546	-2.999600	3.705800	-11.115000	24.207045	0.001048	20.742770
576.157437	-2.993600	3.707500	-11.098000	24.222193	0.001051	20.738524
577.153627	-2.998300	3.706200	-11.111000	24.181782	0.001049	20.750622
578.154602	-3.006200	3.705300	-11.137000	24.192548	0.001049	20.745774
579.154355	-2.982200	3.706500	-11.052000	24.182688	0.001050	20.770023
580.153196	-2.996800	3.704800	-11.101000	24.197564	0.001048	20.756021
581.155470	-3.006600	3.704600	-11.138000	24.233837	0.001048	20.743091
582.154566	-2.989000	3.704600	-11.072000	24.254604	0.001049	20.769612
583.155101	-3.003200	3.705500	-11.128000	24.247806	0.001049	20.752362
584.155735	-2.997300	3.703100	-11.098000	24.257051	0.001051	20.753575
585.158834	-2.998700	3.703900	-11.105000	24.266329	0.001050	20.749605
586.155979	-3.006300	3.703400	-11.132000	24.274012	0.001050	20.752096
587.157145	-2.967700	3.703700	-10.989000	24.295646	0.001050	20.761943
588.159020	-2.981900	3.703800	-11.043000	24.343184	0.001049	20.763638
589.158314	-3.004200	3.701600	-11.119000	24.350440	0.001048	20.775658
590.162101	-2.996700	3.701900	-11.092000	24.344962	0.001046	20.745980
591.156882	-2.984800	3.702500	-11.050000	24.387271	0.001045	20.763294
592.158507	-2.974800	3.702500	-11.013000	24.371592	0.001049	20.773170
593.159520	-2.979700	3.701200	-11.028000	24.423657	0.001045	20.751907
594.162442	-3.001100	3.699000	-11.100000	24.405489	0.001046	20.756914
595.159409	-2.988400	3.701200	-11.060000	24.422105	0.001045	20.760782
596.159739	-3.005000	3.698500	-11.113000	24.417100	0.001047	20.776149
597.158902	-3.010100	3.699000	-11.133000	24.441697	0.001046	20.773326
598.159247	-2.992600	3.700300	-11.071000	24.446025	0.001046	20.774348
599.159352	-2.991000	3.698900	-11.062000	24.454603	0.001044	20.780109
600.158667	-3.010000	3.698000	-11.130000	24.437564	0.001046	20.783877
601.158076	-3.013000	3.696900	-11.138000	24.453777	0.001044	20.777858
602.158301	-2.985900	3.698400	-11.042000	24.423579	0.001044	20.771270
603.157997	-3.013500	3.697400	-11.141000	24.427631	0.001043	20.778654
604.158726	-3.016700	3.696600	-11.150000	24.384318	0.001043	20.779298
605.164069	-3.029300	3.696700	-11.198000	24.371158	0.001044	20.776528
606.159790	-2.992800	3.696700	-11.062000	24.391507	0.001043	20.773707
607.163416	-3.007400	3.695800	-11.113000	24.399019	0.001043	20.777925
608.160246	-3.004600	3.696500	-11.105000	24.434661	0.001042	20.779068
609.160878	-3.007400	3.695800	-11.114000	24.427402	0.001042	20.764199
610.164042	-3.024600	3.695300	-11.175000	24.443468	0.001044	20.792646
611.163017	-3.009000	3.696000	-11.119000	24.428721	0.001043	20.803930
612.160351	-2.994200	3.694600	-11.061000	24.452081	0.001043	20.774734
613.160505	-3.006700	3.693200	-11.102000	24.455315	0.001042	20.768021
614.159638	-3.017100	3.692800	-11.140000	24.464369	0.001040	20.783743
615.160477	-2.970000	3.695400	-10.974000	24.419424	0.001041	20.767575
616.163132	-2.992400	3.694100	-11.053000	24.402356	0.001038	20.795972
617.165275	-2.996200	3.692200	-11.062000	24.414645	0.001040	20.778902
618.161769	-2.998000	3.692700	-11.069000	24.391789	0.001041	20.797699
619.163246	-3.002700	3.691400	-11.083000	24.397316	0.001040	20.775268
620.162812	-3.017400	3.693200	-11.142000	24.370770	0.001041	20.782303
621.165425	-2.984900	3.692500	-11.021000	24.368858	0.001039	20.771850
622.161068	-2.977500	3.693200	-10.995000	24.370827	0.001042	20.774773
623.167236	-2.981500	3.692400	-11.008000	24.403164	0.001039	20.789670
624.164158	-3.007100	3.689500	-11.094000	24.411675	0.001040	20.791096
625.165351	-2.995300	3.691900	-11.057000	24.427572	0.001040	20.789500
626.167381	-3.004100	3.691600	-11.088000	24.392248	0.001040	20.797685
627.164605	-3.010300	3.689500	-11.105000	24.388096	0.001040	20.776450
628.165628	-2.995400	3.691400	-11.055000	24.416483	0.001039	20.767944
629.165976	-2.995300	3.688900	-11.048000	24.445189	0.001039	20.790105
630.165447	-2.975100	3.689000	-10.974000	24.451556	0.001039	20.785112
631.166389	-3.012700	3.688700	-11.113000	24.464591	0.001039	20.777802
632.168419	-3.012600	3.688800	-11.111000	24.496979	0.001041	20.777579
633.164280	-2.989200	3.687900	-11.023000	24.505493	0.001040	20.794656
634.166081	-2.990000	3.687400	-11.023000	24.506360	0.001039	20.774663
635.165359	-2.997300	3.687300	-11.050000	24.499197	0.001040	20.773167
636.165135	-3.009500	3.687700	-11.096000	24.501281	0.001041	20.790431
637.167608	-2.993800	3.688000	-11.040000	24.492877	0.001041	20.788163
638.167234	-2.981400	3.687800	-10.994000	24.504491	0.001043	20.796970
639.170977	-3.006100	3.686100	-11.078000	24.493720	0.001041	20.790431
640.166593	-2.991300	3.687600	-11.029000	24.511477	0.001041	20.792600
641.165308	-3.006300	3.684900	-11.077000	24.531873	0.001041	20.792200
642.167340	-2.999700	3.685300	-11.053000	24.535226	0.001041	20.787979
643.165773	-3.018200	3.684100	-11.118000	24.560343	0.001039	20.804170
644.166206	-2.995400	3.686200	-11.041000	24.570888	0.001041	20.800526
645.167855	-2.985700	3.684700	-11.000000	24.579768	0.001041	20.785728
646.167037	-3.024500	3.682900	-11.137000	24.549569	0.001039	20.782929
647.168184	-2.980100	3.685400	-10.982000	24.512585	0.001038	20.799875
648.172714	-3.011400	3.682300	-11.088000	24.526836	0.001038	20.821760
649.167706	-2.992100	3.683300	-11.020000	24.519748	0.001038	20.793311
650.167839	-2.997500	3.682500	-11.037000	24.544368	0.001038	20.803314
651.168995	-2.996700	3.682200	-11.033000	24.541881	0.001039	20.805561
652.169908	-2.967100	3.684000	-10.930000	24.561183	0.001037	20.800745
653.167603	-2.986000	3.683000	-10.995000	24.576005	0.001038	20.799970
654.168710	-2.961500	3.682400	-10.904000	24.611023	0.001036	20.791959
655.170270	-2.985600	3.681200	-10.990000	24.600204	0.001038	20.804811
656.169611	-2.970200	3.681600	-10.933000	24.618880	0.001036	20.825921
657.169877	-3.002100	3.680500	-11.048000	24.590154	0.001035	20.795675
658.172179	-2.999600	3.681100	-11.041000	24.588440	0.001035	20.810550
659.171404	-2.993500	3.680000	-11.015000	24.614924	0.001035	20.825744
660.172397	-2.981600	3.681100	-10.975000	24.603960	0.001035	20.807631
661.171549	-3.000300	3.680100	-11.040000	24.603762	0.001034	20.815967
662.170584	-3.018000	3.677000	-11.095000	24.612741	0.001034	20.787044
663.175949	-3.012700	3.678100	-11.079000	24.601396	0.001034	20.802214
664.173364	-2.975000	3.680000	-10.947000	24.572253	0.001035	20.825128
665.172520	-2.999000	3.679400	-11.034000	24.550067	0.001031	20.802394
666.172517	-2.999900	3.678300	-11.033000	24.530448	0.001033	20.795986
667.175273	-2.989800	3.679000	-10.998000	24.519353	0.001033	20.821838
668.175767	-3.007600	3.677100	-11.057000	24.519624	0.001032	20.808360
669.173901	-3.023900	3.676200	-11.115000	24.551537	0.001031	20.813827
670.173234	-2.991800	3.676700	-10.999000	24.565422	0.001032	20.810688
671.171335	-2.980600	3.676900	-10.959000	24.553283	0.001033	20.830751
672.172046	-3.007000	3.677100	-11.056000	24.525651	0.001032	20.817726
673.177355	-3.017500	3.677100	-11.095000	24.513315	0.001033	20.814358
674.182158	-3.014500	3.674900	-11.076000	24.551897	0.001033	20.819404
675.176825	-2.997600	3.674900	-11.013000	24.563913	0.001031	20.829562
676.174727	-2.993500	3.677200	-11.006000	24.577518	0.001032	20.827092
677.173674	-2.982800	3.675100	-10.961000	24.586493	0.001033	20.808123
678.178309	-2.998800	3.674900	-11.019000	24.585774	0.001031	20.822100
679.174126	-2.990200	3.675800	-10.991000	24.587791	0.001031	20.830288
680.174834	-3.029200	3.673600	-11.127000	24.592965	0.001032	20.830737
681.177448	-3.012500	3.673600	-11.066000	24.606242	0.001031	20.817507
682.176050	-3.005100	3.673000	-11.037000	24.603008	0.001032	20.824219
683.175066	-3.024300	3.672200	-11.105000	24.594382	0.001031	20.838323
684.176931	-3.036100	3.672300	-11.148000	24.586772	0.001030	20.814092
685.179005	-3.013000	3.671200	-11.059000	24.609772	0.001030	20.841911
686.174983	-3.010700	3.672000	-11.054000	24.613951	0.001030	20.817181
687.175965	-3.009100	3.671900	-11.047000	24.637479	0.001029	20.822298
688.176404	-3.009600	3.671400	-11.048000	24.628201	0.001027	20.808721
689.177928	-3.012100	3.670100	-11.054000	24.643142	0.001028	20.844101
690.174958	-2.997300	3.670700	-11.001000	24.632027	0.001028	20.827733
691.178403	-2.993900	3.671400	-10.990000	24.658813	0.001027	20.839912
692.177196	-3.012600	3.669500	-11.053000	24.702183	0.001026	20.836964
693.177289	-2.996900	3.671500	-11.002000	24.716957	0.001027	20.824290
694.178278	-3.010400	3.667800	-11.040000	24.738738	0.001029	20.846146
695.181589	-3.018500	3.667400	-11.068000	24.762263	0.001028	20.856004
696.177519	-3.001000	3.669200	-11.010000	24.753487	0.001028	20.840085
697.180334	-2.994600	3.668900	-10.986000	24.771688	0.001024	20.835117
698.180089	-3.000700	3.669800	-11.010000	24.763357	0.001025	20.833868
699.182550	-2.982100	3.669100	-10.940000	24.743837	0.001024	20.836090
700.182242	-2.993400	3.668600	-10.980000	24.728068	0.001025	20.846818
701.181652	-2.998400	3.666500	-10.991000	24.702881	0.001025	20.831975
702.187733	-2.995800	3.667900	-10.987000	24.678959	0.001028	20.845902
703.180513	-2.989600	3.667200	-10.962000	24.696812	0.001025	20.833472
704.181398	-3.001400	3.666600	-11.004000	24.713777	0.001025	20.830107
705.188919	-2.989900	3.666900	-10.962000	24.721185	0.001024	20.834696
706.179704	-2.973200	3.666900	-10.902000	24.751104	0.001024	20.841961
707.180471	-3.001300	3.666200	-11.003000	24.760405	0.001023	20.854139
708.181735	-2.980700	3.665500	-10.924000	24.753770	0.001025	20.834205
709.181623	-3.002800	3.665400	-11.005000	24.743950	0.001023	20.840945
710.182183	-2.990700	3.664900	-10.959000	24.707169	0.001022	20.859985
711.184148	-3.000100	3.663900	-10.992000	24.695434	0.001022	20.859589
712.182260	-2.979800	3.665900	-10.922000	24.691086	0.001023	20.848588
713.182725	-3.018500	3.664300	-11.059000	24.680863	0.001020	20.848287
714.183030	-2.994200	3.664000	-10.969000	24.690564	0.001021	20.838582
715.182300	-2.984800	3.663100	-10.931000	24.711383	0.001020	20.843351
716.184573	-2.986900	3.664400	-10.944000	24.730311	0.001021	20.839113
717.185036	-2.986800	3.663000	-10.939000	24.748566	0.001020	20.845103
718.183088	-3.006800	3.662300	-11.011000	24.723749	0.001018	20.846278
719.183448	-2.999200	3.663800	-10.987000	24.725294	0.001019	20.845931
720.187289	-3.007100	3.662700	-11.013000	24.763075	0.001017	20.848758
721.182518	-3.009600	3.662000	-11.020000	24.753474	0.001018	20.842917
722.182593	-2.997900	3.661200	-10.975000	24.758901	0.001019	20.843621
723.183545	-2.993400	3.662100	-10.961000	24.777303	0.001018	20.854975
724.183282	-2.987600	3.661700	-10.938000	24.778724	0.001019	20.850238
725.181643	-2.974000	3.662000	-10.889000	24.782179	0.001016	20.864610
726.190784	-3.021400	3.659700	-11.056000	24.791509	0.001018	20.869705
727.186280	-2.982100	3.661100	-10.917000	24.772018	0.001018	20.856310
728.186190	-2.989300	3.659800	-10.939000	24.745312	0.001018	20.851321
729.184725	-2.997000	3.661000	-10.971000	24.722364	0.001017	20.847733
730.188734	-2.993800	3.658300	-10.952000	24.682325	0.001017	20.885787
731.185742	-2.989800	3.659000	-10.939000	24.664574	0.001016	20.868450
732.186400	-2.986700	3.659600	-10.929000	24.669373	0.001018	20.864731
733.183830	-2.965400	3.659500	-10.851000	24.680121	0.001014	20.866508
734.184458	-2.983100	3.659500	-10.916000	24.735757	0.001016	20.859750
735.186273	-2.986700	3.657800	-10.924000	24.756127	0.001016	20.858855
736.185326	-3.004100	3.658100	-10.989000	24.769907	0.001014	20.855140
737.184130	-2.966300	3.658400	-10.849000	24.806389	0.001015	20.859510
738.186461	-2.992400	3.657700	-10.945000	24.811463	0.001016	20.868394
739.185849	-2.990400	3.656100	-10.933000	24.846354	0.001016	20.892504
740.188733	-3.001800	3.655600	-10.971000	24.841979	0.001014	20.875312
741.187788	-2.979000	3.656200	-10.891000	24.889247	0.001015	20.881974
742.186819	-3.010900	3.654000	-10.999000	24.872321	0.001014	20.860720
743.188079	-2.991100	3.655400	-10.933000	24.875258	0.001014	20.871254
744.188936	-3.012200	3.654800	-11.008000	24.903406	0.001014	20.860151
745.187696	-3.021700	3.654200	-11.040000	24.877353	0.001012	20.867666
746.188539	-3.017000	3.654700	-11.025000	24.891554	0.001013	20.874332
747.189526	-3.012000	3.654200	-11.005000	24.873034	0.001013	20.871867
748.190345	-2.997700	3.654000	-10.953000	24.871543	0.001013	20.846664
749.189469	-3.019200	3.654300	-11.032000	24.840736	0.001012	20.891132
750.191105	-2.964200	3.655100	-10.833000	24.906929	0.001011	20.879333
751.193657	-3.003200	3.651400	-10.965000	24.916879	0.001013	20.880309
752.194477	-3.002000	3.652100	-10.963000	24.913177	0.001011	20.872801
753.194558	-2.992900	3.653600	-10.934000	24.942146	0.001012	20.857308
754.190346	-3.005600	3.652000	-10.975000	24.942569	0.001012	20.871482
755.193045	-2.991000	3.651700	-10.921000	24.961119	0.001011	20.880143
756.195665	-3.020400	3.652500	-11.030000	24.977431	0.001009	20.878024
757.190262	-3.007500	3.651800	-10.981000	24.980491	0.001011	20.865449
758.194169	-2.997600	3.651700	-10.945000	24.980840	0.001010	20.863429
759.191530	-2.983900	3.652100	-10.895000	24.992284	0.001012	20.884397
760.195335	-3.014700	3.650300	-11.003000	25.005313	0.001009	20.879458
761.192428	-2.969300	3.651600	-10.841000	25.023136	0.001009	20.871270
762.196203	-2.992000	3.651800	-10.925000	25.008398	0.001009	20.877339
763.194746	-3.008500	3.648800	-10.975000	25.015758	0.001009	20.884727
764.194926	-3.008600	3.648100	-10.974000	25.027370	0.001008	20.864615
765.195527	-3.015200	3.648900	-11.001000	25.013178	0.001008	20.887352
766.194717	-2.992100	3.649500	-10.919000	25.023570	0.001006	20.880240
767.199290	-2.989800	3.649200	-10.910000	25.020169	0.001007	20.855491
768.200115	-3.000100	3.648700	-10.946000	24.997594	0.001007	20.857012
769.195973	-2.998600	3.648900	-10.940000	24.973235	0.001006	20.852951
770.194270	-2.987000	3.648500	-10.896000	24.960480	0.001005	20.859588
771.195514	-2.994400	3.648500	-10.923000	24.961277	0.001005	20.842845
772.196846	-3.002200	3.646200	-10.946000	24.936695	0.001005	20.873647
773.196788	-3.006700	3.646400	-10.963000	24.902508	0.001004	20.860198
774.196306	-2.984700	3.647700	-10.886000	24.928216	0.001007	20.849965
775.197278	-3.023100	3.646300	-11.022000	24.931827	0.001006	20.868761
776.196862	-2.998300	3.648100	-10.936000	24.941332	0.001005	20.861232
777.197820	-3.008200	3.646100	-10.967000	24.937577	0.001006	20.866472
778.201950	-3.006400	3.646100	-10.961000	24.966397	0.001006	20.846088
779.197547	-3.009800	3.645000	-10.970000	24.957545	0.001006	20.850479
780.200346	-3.015000	3.645800	-10.991000	24.977090	0.001007	20.845441
781.199181	-3.020600	3.643900	-11.005000	24.964515	0.001006	20.846096
782.200767	-3.003500	3.644400	-10.946000	24.982861	0.001005	20.855026
783.201102	-2.995300	3.643200	-10.912000	24.994995	0.001006	20.858671
784.202349	-2.996400	3.642700	-10.914000	25.001337	0.001003	20.844649
785.203549	-3.006500	3.642100	-10.948000	25.038703	0.001005	20.845646
786.200869	-3.001600	3.644200	-10.937000	25.033557	0.001004	20.839532
787.201619	-3.035600	3.641900	-11.054000	25.025206	0.001003	20.847271
788.203492	-2.997600	3.642700	-10.919000	24.992587	0.001003	20.842031
789.205794	-2.997600	3.641700	-10.916000	24.986245	0.001001	20.835191
790.202787	-3.011400	3.642400	-10.966000	24.962449	0.001004	20.838807
791.203632	-3.016300	3.641400	-10.982000	24.999250	0.001003	20.845873
792.204057	-3.022500	3.639900	-11.001000	24.977463	0.001003	20.836333
793.204487	-3.009600	3.640900	-10.957000	25.003547	0.001001	20.839281
794.207024	-2.998500	3.640900	-10.916000	24.983957	0.001000	20.835265
795.204039	-3.005300	3.640800	-10.941000	25.016375	0.001001	20.828924
796.207038	-3.012600	3.638700	-10.960000	25.035019	0.000999	20.863284
797.206487	-3.001900	3.638300	-10.920000	25.066815	0.001001	20.837830
798.208071	-3.017800	3.639100	-10.981000	25.061467	0.001000	20.820608
799.207087	-2.995300	3.639600	-10.900000	25.064704	0.000998	20.823857
800.205045	-2.995600	3.639700	-10.902000	25.081088	0.001000	20.827502
801.206950	-3.007100	3.638200	-10.939000	25.073608	0.000999	20.847494
802.206084	-3.005300	3.638400	-10.934000	25.080817	0.000999	20.851410
803.206203	-3.004900	3.639800	-10.936000	25.051281	0.000997	20.838831
804.213603	-2.992300	3.637700	-10.882000	25.060234	0.000997	20.835017
805.208958	-3.004400	3.637800	-10.928000	25.041813	0.000998	20.834069
806.207423	-3.007700	3.637000	-10.938000	24.988410	0.000998	20.826932
807.214065	-2.988600	3.637200	-10.869000	24.995746	0.000996	20.827658
808.209457	-3.016400	3.635500	-10.966000	24.992485	0.000998	20.822962
809.207949	-3.005900	3.636500	-10.930000	24.999426	0.000997	20.817128
810.211501	-3.006300	3.636500	-10.931000	25.011835	0.000998	20.835273
811.209713	-2.997600	3.634900	-10.894000	25.017853	0.000996	20.847002
812.208906	-2.996600	3.635900	-10.894000	25.059199	0.000994	20.816435
813.211480	-3.014200	3.634600	-10.954000	25.088188	0.000995	20.823250
814.211370	-3.006600	3.634700	-10.925000	25.105595	0.000996	20.849731
815.216366	-2.997700	3.634700	-10.895000	25.131593	0.000993	20.820830
816.213480	-2.978500	3.635600	-10.827000	25.082824	0.000993	20.811227
817.214516	-2.988200	3.634600	-10.860000	25.101266	0.000993	20.814093
818.213355	-2.992100	3.634900	-10.875000	25.121534	0.000992	20.819266
819.212711	-2.992700	3.634400	-10.875000	25.098813	0.000993	20.830596
820.215253	-3.001400	3.634400	-10.906000	25.053846	0.000991	20.836665
821.212117	-2.991000	3.632300	-10.863000	25.066702	0.000994	20.808319
822.213029	-2.987100	3.633000	-10.850000	25.022924	0.000991	20.812739
823.216077	-2.990200	3.633300	-10.863000	25.015793	0.000990	20.812693
824.216966	-3.003000	3.632300	-10.906000	25.009948	0.000990	20.820103
825.213925	-2.995700	3.631800	-10.879000	25.018977	0.000991	20.821578
826.215776	-2.987100	3.632000	-10.847000	25.043942	0.000988	20.805387
827.216377	-3.003700	3.630700	-10.905000	25.063509	0.000988	20.838305
828.215125	-2.994900	3.631400	-10.874000	25.079696	0.000987	20.813777
829.216098	-2.994800	3.631000	-10.872000	25.112587	0.000988	20.816923
830.215390	-2.996900	3.631500	-10.881000	25.156915	0.000988	20.807370
831.218694	-3.020100	3.630400	-10.963000	25.170887	0.000989	20.814284
832.213256	-3.001300	3.630500	-10.894000	25.162887	0.000988	20.813364
833.217138	-3.007100	3.629700	-10.913000	25.158537	0.000986	20.817533
834.215120	-3.014400	3.629000	-10.938000	25.124608	0.000985	20.814292
835.216218	-3.018400	3.628500	-10.952000	25.126477	0.000987	20.816642
836.219007	-3.013300	3.628500	-10.933000	25.135550	0.000985	20.824801
837.216837	-3.001700	3.628300	-10.890000	25.123749	0.000985	20.811059
838.218153	-3.019900	3.628300	-10.956000	25.093397	0.000984	20.824685
839.216229	-3.002700	3.627500	-10.889000	25.063072	0.000985	20.816056
840.218332	-3.003000	3.627900	-10.893000	25.086570	0.000984	20.806453
841.215422	-3.004800	3.626500	-10.896000	25.087342	0.000983	20.821926
842.219262	-2.993700	3.627300	-10.858000	25.064694	0.000983	20.803934
843.216371	-2.999800	3.627400	-10.880000	25.073328	0.000983	20.805488
844.219165	-2.995200	3.626900	-10.862000	25.102765	0.000984	20.792364
845.217177	-3.002500	3.627500	-10.890000	25.121190	0.000982	20.812756
846.217433	-2.990600	3.626900	-10.845000	25.092353	0.000982	20.796136
847.221998	-2.988400	3.625500	-10.833000	25.076424	0.000979	20.810018
848.217778	-2.987500	3.626000	-10.831000	25.068916	0.000981	20.799162
849.218069	-3.013800	3.623300	-10.919000	25.097704	0.000981	20.791551
850.217668	-3.000100	3.624200	-10.871000	25.134402	0.000980	20.800890
851.217686	-2.988200	3.624600	-10.830000	25.140320	0.000981	20.795926
852.219057	-3.002600	3.624600	-10.881000	25.102140	0.000980	20.798374
853.221083	-3.015500	3.623700	-10.926000	25.114991	0.000980	20.794680
854.220346	-3.008300	3.621900	-10.895000	25.074871	0.000979	20.783329
855.219302	-2.990800	3.623500	-10.836000	25.073409	0.000979	20.802724
856.220010	-2.997000	3.621700	-10.853000	25.073832	0.000980	20.794140
857.220509	-2.997300	3.622200	-10.856000	25.101531	0.000979	20.810566
858.224779	-3.032200	3.620600	-10.977000	25.112071	0.000980	20.807870
859.222737	-2.991700	3.622800	-10.836000	25.084404	0.000976	20.794321
860.223255	-3.013500	3.621400	-10.912000	25.060939	0.000978	20.789732
861.221570	-3.002000	3.621700	-10.871000	25.079212	0.000975	20.806653
862.221293	-2.979900	3.621500	-10.791000	25.092865	0.000975	20.792857
863.226893	-3.003800	3.620900	-10.875000	25.066791	0.000974	20.780434
864.230091	-3.027800	3.618400	-10.954000	25.076887	0.000976	20.791043
865.224485	-3.005100	3.620200	-10.878000	25.090240	0.000977	20.792119
866.223238	-3.001600	3.619600	-10.864000	25.132006	0.000975	20.782364
867.226231	-3.005500	3.620000	-10.877000	25.109466	0.000975	20.789134
868.225709	-3.008500	3.618800	-10.885000	25.119483	0.000975	20.793026
869.226667	-2.999100	3.619000	-10.852000	25.138651	0.000975	20.782396
870.224715	-3.008900	3.616500	-10.880000	25.149301	0.000973	20.789768
871.228267	-2.995100	3.617700	-10.834000	25.143555	0.000972	20.782578
872.226820	-2.955800	3.619600	-10.697000	25.142495	0.000973	20.774401
873.224410	-3.014200	3.616900	-10.901000	25.144286	0.000971	20.772880
874.229908	-3.013900	3.616600	-10.898000	25.157490	0.000974	20.800834
875.226250	-2.990100	3.617100	-10.814000	25.121775	0.000973	20.779205
876.234573	-3.024500	3.615700	-10.935000	25.101366	0.000971	20.777209
877.227827	-2.980400	3.617100	-10.779000	25.046303	0.000969	20.766031
878.229700	-3.006400	3.616300	-10.870000	25.067587	0.000970	20.776491
879.228298	-3.010500	3.614300	-10.880000	25.061451	0.000970	20.766538
880.230916	-2.989900	3.614500	-10.806000	25.052382	0.000970	20.780668
881.230163	-2.982300	3.617100	-10.786000	25.007909	0.000969	20.780124
882.228540	-2.987300	3.615800	-10.799000	25.005375	0.000968	20.767622
883.229867	-2.978500	3.616000	-10.768000	25.029618	0.000968	20.782474
884.229382	-3.005000	3.613700	-10.858000	25.027806	0.000968	20.759792
885.232322	-3.003200	3.613800	-10.852000	25.074225	0.000968	20.778887
886.231182	-3.026900	3.612800	-10.935000	25.088420	0.000967	20.776541
887.234930	-3.029700	3.611500	-10.941000	25.089869	0.000967	20.777048
888.231441	-3.022100	3.612600	-10.916000	25.090276	0.000966	20.760386
889.233149	-2.995400	3.612600	-10.821000	25.058805	0.000966	20.782849
890.234931	-3.008100	3.613300	-10.867000	25.087249	0.000966	20.754502
891.231493	-2.982900	3.613200	-10.777000	25.132716	0.000965	20.765532
892.234340	-2.990300	3.611200	-10.797000	25.149128	0.000964	20.771577
893.233854	-2.988900	3.612200	-10.796000	25.183935	0.000964	20.769536
894.235010	-3.010400	3.610500	-10.868000	25.188292	0.000964	20.758263
895.230350	-2.998900	3.611200	-10.828000	25.205570	0.000965	20.773238
896.233402	-2.989700	3.609300	-10.789000	25.214297	0.000964	20.766353
897.232032	-2.967900	3.611800	-10.719000	25.255463	0.000964	20.765008
898.233951	-3.013600	3.608200	-10.871000	25.271500	0.000962	20.757875
899.232268	-2.999400	3.609800	-10.826000	25.270584	0.000962	20.764543
900.231968	-3.019800	3.608300	-10.895000	25.300537	0.000962	20.753839
901.237425	-3.000900	3.609400	-10.830000	25.290973	0.000962	20.752771
902.232198	-3.014800	3.608400	-10.878000	25.334896	0.000963	20.751353
903.233546	-2.998000	3.608600	-10.818000	25.350180	0.000959	20.767648
904.232536	-2.963100	3.609100	-10.694000	25.374025	0.000961	20.755080
905.233132	-3.012500	3.606200	-10.862000	25.403946	0.000960	20.779910
906.232506	-2.989800	3.608500	-10.787000	25.362790	0.000960	20.764188
907.240407	-2.985800	3.607400	-10.770000	25.400300	0.000960	20.753015
908.233534	-2.975800	3.608600	-10.737000	25.357309	0.000960	20.763426
909.233146	-2.986800	3.609200	-10.778000	25.365036	0.000959	20.761702
910.237547	-3.018500	3.606300	-10.883000	25.379831	0.000958	20.761859
911.235030	-3.033000	3.606500	-10.937000	25.357144	0.000956	20.747139
912.238065	-3.013100	3.605900	-10.864000	25.341409	0.000956	20.758841
913.237037	-2.984500	3.606100	-10.760000	25.351330	0.000956	20.742723
914.243840	-3.026900	3.604800	-10.910000	25.308932	0.000956	20.742352
915.234601	-3.003200	3.604800	-10.824000	25.301306	0.000956	20.726634
916.237199	-3.006100	3.604300	-10.834000	25.290699	0.000955	20.764824
917.243931	-3.017800	3.604900	-10.878000	25.311404	0.000955	20.741990
918.234528	-3.017200	3.603800	-10.871000	25.318015	0.000954	20.761905
919.237629	-3.000200	3.604800	-10.814000	25.250565	0.000956	20.752978
920.235599	-3.000000	3.603000	-10.808000	25.256754	0.000954	20.752079
921.236326	-3.021200	3.602300	-10.882000	25.219872	0.000955	20.726429
922.236381	-2.994700	3.604900	-10.795000	25.168121	0.000953	20.748917
923.239121	-3.001000	3.602400	-10.809000	25.125292	0.000950	20.752863
924.238694	-2.993400	3.602800	-10.784000	25.103347	0.000951	20.755964
925.242282	-2.972200	3.602700	-10.706000	25.121920	0.000951	20.735253
926.242526	-3.020300	3.601400	-10.875000	25.150855	0.000950	20.753870
927.240239	-3.000800	3.601300	-10.805000	25.185387	0.000950	20.748707
928.242053	-2.983600	3.601300	-10.743000	25.198365	0.000950	20.760314
929.238469	-2.992400	3.601200	-10.775000	25.264517	0.000950	20.744226
930.242196	-3.006300	3.599500	-10.819000	25.285920	0.000950	20.734421
931.244071	-3.010300	3.599400	-10.834000	25.330385	0.000948	20.753936
932.241120	-2.985400	3.600000	-10.747000	25.324924	0.000948	20.765997
933.243073	-2.990000	3.598700	-10.759000	25.367552	0.000949	20.733881
934.241978	-2.992100	3.600200	-10.771000	25.379460	0.000947	20.737778
935.243851	-3.013400	3.598900	-10.844000	25.382515	0.000947	20.724249
936.245377	-3.002400	3.598500	-10.804000	25.365446	0.000946	20.735559
937.241343	-3.018100	3.597900	-10.857000	25.339055	0.000946	20.752683
938.246442	-2.999600	3.598000	-10.791000	25.325758	0.000945	20.751187
939.246592	-3.003100	3.596900	-10.800000	25.359163	0.000945	20.737786
940.242117	-3.018000	3.597400	-10.855000	25.332550	0.000942	20.730505
941.243006	-2.998600	3.597500	-10.785000	25.317143	0.000945	20.729734
942.243610	-2.999400	3.596800	-10.787000	25.315337	0.000942	20.726497
943.248878	-2.972400	3.597000	-10.691000	25.310738	0.000942	20.727095
944.245500	-3.006900	3.596100	-10.812000	25.303461	0.000942	20.724057
945.245857	-2.973800	3.597600	-10.698000	25.343478	0.000942	20.741003
946.250984	-3.003300	3.595600	-10.797000	25.339479	0.000941	20.722762
947.245369	-2.986800	3.594800	-10.735000	25.343753	0.000942	20.726106
948.250267	-3.010000	3.595000	-10.819000	25.370457	0.000940	20.717357
949.250737	-2.994000	3.595300	-10.763000	25.385892	0.000939	20.727640
950.251709	-2.981900	3.595100	-10.720000	25.404407	0.000938	20.731059
951.245198	-2.977900	3.594900	-10.704000	25.413560	0.000939	20.738827
952.246735	-3.002800	3.593400	-10.787000	25.435601	0.000940	20.714017
953.247515	-3.017800	3.593400	-10.843000	25.456160	0.000939	20.718067
954.248844	-3.015200	3.593000	-10.831000	25.448437	0.000938	20.727382
955.252059	-3.018200	3.592900	-10.842000	25.455618	0.000938	20.734593
956.248989	-3.006000	3.592400	-10.798000	25.475979	0.000939	20.716632
957.249621	-3.002200	3.592600	-10.784000	25.489180	0.000937	20.710448
958.250215	-3.013800	3.591000	-10.821000	25.489086	0.000936	20.732166
959.249830	-3.017200	3.589700	-10.829000	25.487891	0.000937	20.705360
960.254138	-2.980000	3.591600	-10.703000	25.494928	0.000936	20.709108
961.249880	-2.987100	3.590700	-10.724000	25.497023	0.000935	20.715953
962.251914	-2.999500	3.590200	-10.768000	25.472474	0.000935	20.725441
963.253298	-2.997000	3.591200	-10.762000	25.448320	0.000935	20.719677
964.253045	-3.001800	3.590200	-10.776000	25.464284	0.000933	20.718164
965.253690	-2.988300	3.589800	-10.725000	25.460133	0.000932	20.705934
966.254888	-3.009200	3.588600	-10.797000	25.461057	0.000931	20.737684
967.256522	-3.001400	3.589700	-10.774000	25.480642	0.000931	20.717521
968.253335	-2.997600	3.589000	-10.756000	25.470858	0.000930	20.728086
969.255056	-3.008600	3.587500	-10.790000	25.494890	0.000933	20.714759
970.256348	-2.984200	3.589400	-10.709000	25.484531	0.000932	20.694398
971.256666	-2.993600	3.587400	-10.739000	25.469426	0.000930	20.703412
972.255355	-2.994200	3.587500	-10.741000	25.422586	0.000929	20.708060
973.254504	-2.996600	3.587200	-10.748000	25.455413	0.000930	20.704514
974.255723	-3.025700	3.586100	-10.849000	25.457060	0.000930	20.710909
975.255281	-3.009100	3.586000	-10.790000	25.455126	0.000928	20.717029
976.260423	-2.998700	3.587000	-10.755000	25.474510	0.000928	20.687179
977.257389	-2.998500	3.585300	-10.748000	25.452150	0.000927	20.707401
978.259381	-2.999100	3.586500	-10.755000	25.446685	0.000928	20.697645
979.260406	-3.015500	3.583300	-10.805000	25.454618	0.000928	20.698499
980.257458	-2.997300	3.584100	-10.741000	25.468439	0.000926	20.707637
981.261522	-3.014200	3.583800	-10.801000	25.454795	0.000927	20.710532
982.261329	-3.022700	3.584500	-10.834000	25.477341	0.000925	20.706619
983.261401	-3.015000	3.582400	-10.800000	25.425828	0.000926	20.695193
984.257613	-2.995800	3.584500	-10.737000	25.422572	0.000925	20.705201
985.262556	-3.002600	3.582700	-10.756000	25.409330	0.000925	20.704707
986.260081	-2.988700	3.584100	-10.711000	25.384431	0.000924	20.702464
987.261047	-3.003000	3.582700	-10.758000	25.418931	0.000924	20.711977
988.265393	-2.981300	3.582100	-10.678000	25.420200	0.000924	20.699025
989.265801	-2.995100	3.582100	-10.727000	25.455643	0.000923	20.718496
990.262357	-3.000700	3.580500	-10.742000	25.465165	0.000922	20.699607
991.262176	-2.988300	3.581100	-10.699000	25.471234	0.000923	20.692899
992.264594	-3.016000	3.579500	-10.794000	25.469743	0.000919	20.691876
993.263038	-2.995800	3.579000	-10.721000	25.479614	0.000920	20.685193
994.263078	-3.019300	3.579300	-10.806000	25.494251	0.000920	20.696099
995.263874	-3.020700	3.579100	-10.809000	25.530686	0.000920	20.689539
996.264026	-2.988900	3.579400	-10.697000	25.537900	0.000917	20.697733
997.264185	-2.997000	3.578800	-10.725000	25.522648	0.000918	20.693796
998.272918	-2.990400	3.578900	-10.701000	25.527345	0.000918	20.699936
999.264065	-3.000200	3.579800	-10.738000	25.515320	0.000916	20.686436
1000.266375	-2.997800	3.577400	-10.724000	25.497530	0.000918	20.687537
1001.269507	-2.994000	3.576600	-10.708000	25.510184	0.000918	20.683649
1002.268786	-2.971700	3.579100	-10.634000	25.508792	0.000916	20.698374
1003.273471	-2.994100	3.576400	-10.707000	25.508526	0.000916	20.687200
1004.271583	-2.991300	3.577400	-10.700000	25.522046	0.000915	20.700304
1005.271183	-2.998900	3.577300	-10.726000	25.564445	0.000915	20.702107
1006.268207	-2.980800	3.577600	-10.663000	25.545978	0.000915	20.683559
1007.272787	-2.990800	3.575900	-10.694000	25.527101	0.000915	20.690207
1008.273023	-3.001200	3.575600	-10.729000	25.526954	0.000914	20.713294
1009.273324	-2.990600	3.576100	-10.694000	25.532024	0.000912	20.711748
1010.270597	-3.015700	3.575000	-10.780000	25.541669	0.000911	20.692034
1011.271630	-3.004300	3.574800	-10.739000	25.542416	0.000912	20.697053
1012.272504	-2.992400	3.574900	-10.696000	25.557529	0.000911	20.680460
1013.273823	-3.006300	3.573700	-10.743000	25.564660	0.000911	20.675293
1014.274535	-2.987400	3.574000	-10.676000	25.545164	0.000910	20.680371
1015.273681	-2.990000	3.573800	-10.685000	25.566455	0.000910	20.698435
1016.276468	-3.012800	3.572400	-10.762000	25.545838	0.000909	20.682944
1017.272861	-3.012000	3.571200	-10.756000	25.534260	0.000911	20.704036
1018.272449	-3.023900	3.570900	-10.796000	25.486031	0.000908	20.693060
1019.277006	-3.004400	3.572300	-10.731000	25.500619	0.000909	20.684000
1020.272783	-2.994300	3.571600	-10.693000	25.474654	0.000908	20.678789
1021.276342	-3.021300	3.570600	-10.787000	25.470606	0.000907	20.695114
1022.275074	-3.016000	3.571900	-10.772000	25.430023	0.000907	20.688974
1023.273943	-2.985400	3.571600	-10.661000	25.433879	0.000909	20.689527
1024.275773	-3.034900	3.569200	-10.831000	25.433013	0.000907	20.687235
1025.274045	-2.985800	3.570700	-10.660000	25.446436	0.000905	20.678427
1026.276627	-3.011000	3.569900	-10.749000	25.450464	0.000906	20.692431
1027.274246	-3.015400	3.569200	-10.761000	25.481229	0.000905	20.695824
1028.276753	-2.993600	3.569800	-10.686000	25.448255	0.000905	20.676461
1029.275769	-2.998100	3.567900	-10.696000	25.470477	0.000906	20.685974
1030.274546	-2.968100	3.570800	-10.596000	25.452411	0.000904	20.699602
1031.275760	-3.038400	3.567000	-10.836000	25.491581	0.000904	20.686779
1032.275078	-2.997700	3.567600	-10.693000	25.488129	0.000902	20.705124
1033.275072	-2.978100	3.567300	-10.621000	25.472945	0.000900	20.703153
1034.276489	-2.995900	3.568200	-10.689000	25.467781	0.000902	20.688008
1035.277265	-3.045000	3.565900	-10.857000	25.470019	0.000899	20.705430
1036.278883	-2.989400	3.567900	-10.664000	25.456527	0.000899	20.703736
1037.279630	-2.990200	3.566000	-10.662000	25.490376	0.000901	20.691258
1038.279747	-3.013600	3.564700	-10.741000	25.523230	0.000900	20.704338
1039.278788	-2.996800	3.565500	-10.684000	25.550048	0.000900	20.682905
1040.282240	-3.002100	3.565500	-10.702000	25.561606	0.000900	20.701626
1041.282117	-3.010000	3.565000	-10.729000	25.579473	0.000896	20.687326
1042.284924	-3.025500	3.564000	-10.782000	25.604495	0.000897	20.705345
1043.281211	-3.024000	3.563100	-10.774000	25.594256	0.000898	20.695061
1044.281121	-2.988600	3.564400	-10.651000	25.557583	0.000898	20.707543
1045.283244	-3.001900	3.563300	-10.696000	25.550948	0.000897	20.695664
1046.284762	-3.006600	3.563200	-10.711000	25.564315	0.000897	20.685854
1047.284022	-3.009800	3.563100	-10.723000	25.547072	0.000897	20.694142
1048.287562	-2.988100	3.563400	-10.647000	25.557730	0.000897	20.694888
1049.283745	-3.007100	3.560800	-10.707000	25.595451	0.000895	20.697210
1050.289132	-2.995500	3.562100	-10.670000	25.615752	0.000895	20.695313
1051.287229	-3.003200	3.561000	-10.694000	25.638368	0.000894	20.697639
1052.282913	-3.000100	3.561000	-10.682000	25.669945	0.000895	20.709440
1053.286922	-2.977100	3.560900	-10.599000	25.676382	0.000893	20.698835
1054.285284	-3.031300	3.560200	-10.790000	25.713996	0.000894	20.704846
1055.301820	-2.982200	3.560300	-10.616000	25.726943	0.000892	20.698410
1056.288352	-3.008200	3.560300	-10.709000	25.738990	0.000893	20.699605
1057.285344	-3.027000	3.559400	-10.773000	25.744060	0.000890	20.717027
1058.289675	-3.010600	3.558400	-10.713000	25.728408	0.000890	20.703201
1059.290371	-2.986300	3.559600	-10.628000	25.675511	0.000891	20.703651
1060.287316	-3.000600	3.558700	-10.676000	25.643828	0.000889	20.688897
1061.288302	-3.002100	3.559400	-10.684000	25.594404	0.000890	20.679087
1062.292610	-3.021800	3.556900	-10.747000	25.604195	0.000889	20.724486
1063.287613	-3.018300	3.556800	-10.734000	25.592618	0.000888	20.705745
1064.289696	-3.010300	3.556700	-10.706000	25.555094	0.000889	20.712157
1065.291135	-3.023400	3.556700	-10.752000	25.542745	0.000886	20.701650
1066.287921	-3.002900	3.557300	-10.681000	25.565781	0.000887	20.701077
1067.294910	-3.003100	3.555400	-10.676000	25.587823	0.000885	20.705671
1068.290978	-3.011000	3.556500	-10.708000	25.597212	0.000884	20.707514
1069.288079	-3.015200	3.555000	-10.718000	25.591999	0.000884	20.730255
1070.290503	-2.987200	3.556000	-10.622000	25.585733	0.000884	20.717323
1071.294477	-3.001600	3.555500	-10.671000	25.603030	0.000883	20.708141
1072.292730	-2.992500	3.555000	-10.637000	25.600177	0.000883	20.734201
1073.291002	-2.986900	3.555700	-10.619000	25.617497	0.000881	20.728363
1074.293046	-3.015800	3.553200	-10.715000	25.608621	0.000883	20.692418
1075.288423	-2.995900	3.554500	-10.648000	25.612481	0.000881	20.718582
1076.291286	-3.017800	3.552900	-10.721000	25.632708	0.000883	20.716137
1077.289901	-3.011900	3.552100	-10.698000	25.627219	0.000881	20.723428
1078.291257	-3.003800	3.553000	-10.671000	25.604484	0.000881	20.703438
1079.291819	-2.977100	3.552600	-10.575000	25.594742	0.000879	20.703136
1080.289649	-2.997300	3.552200	-10.646000	25.594501	0.000880	20.718542
1081.288633	-2.997600	3.551300	-10.644000	25.619125	0.000877	20.716245
1082.290899	-2.989300	3.553200	-10.620000	25.660895	0.000878	20.706515
1083.297287	-3.005400	3.551500	-10.673000	25.680826	0.000876	20.725586
1084.291157	-3.005200	3.549400	-10.665000	25.677546	0.000876	20.719446
1085.297232	-3.009700	3.549800	-10.683000	25.669501	0.000875	20.700932
1086.293866	-3.013800	3.548700	-10.694000	25.698145	0.000874	20.715954
1087.296066	-3.000300	3.549400	-10.649000	25.683865	0.000877	20.716783
1088.298121	-2.982900	3.548800	-10.585000	25.702383	0.000874	20.714995
1089.302626	-3.026200	3.549300	-10.740000	25.732694	0.000874	20.735483
1090.297433	-2.993000	3.548600	-10.619000	25.745965	0.000873	20.720838
1091.300573	-2.986400	3.549600	-10.600000	25.765595	0.000873	20.709734
1092.298962	-2.994500	3.548400	-10.624000	25.774116	0.000873	20.731097
1093.300437	-2.990600	3.548400	-10.612000	25.720754	0.000872	20.728232
1094.296778	-2.991800	3.547700	-10.613000	25.683928	0.000871	20.720166
1095.302220	-3.014500	3.546400	-10.690000	25.682639	0.000872	20.729778
1096.296916	-2.985300	3.547500	-10.590000	25.687360	0.000872	20.716501
1097.300977	-2.989600	3.545300	-10.598000	25.696580	0.000872	20.718175
1098.299055	-2.967200	3.547700	-10.524000	25.711740	0.000871	20.726290
1099.297921	-2.989500	3.547400	-10.605000	25.722121	0.000873	20.732450
1100.300066	-2.990000	3.546600	-10.603000	25.738766	0.000870	20.739686
1101.300293	-2.994400	3.544900	-10.614000	25.713919	0.000870	20.719469
1102.302736	-2.988500	3.545100	-10.594000	25.706288	0.000870	20.741203
1103.302176	-2.972200	3.545500	-10.536000	25.710861	0.000871	20.751961
1104.298699	-3.000700	3.544900	-10.636000	25.680093	0.000869	20.740023
1105.304334	-2.971400	3.543800	-10.529000	25.702777	0.000871	20.742418
1106.301747	-2.988700	3.543300	-10.589000	25.660540	0.000869	20.738402
1107.300258	-3.005700	3.543300	-10.649000	25.660010	0.000868	20.727912
1108.303397	-2.982800	3.544600	-10.572000	25.661795	0.000866	20.725911
1109.302742	-2.977700	3.543900	-10.552000	25.672275	0.000869	20.752085
1110.303786	-2.995600	3.542400	-10.611000	25.672299	0.000868	20.741204
1111.305674	-2.981700	3.542100	-10.560000	25.691350	0.000865	20.741372
1112.304782	-2.985400	3.542300	-10.574000	25.725560	0.000867	20.744914
1113.309292	-2.982900	3.542000	-10.564000	25.721730	0.000863	20.742015
1114.305432	-2.979200	3.541400	-10.550000	25.722271	0.000867	20.739239
1115.302931	-2.998800	3.541300	-10.618000	25.700502	0.000865	20.744875
1116.302694	-2.990500	3.541100	-10.588000	25.691159	0.000863	20.753509
1117.300290	-2.973500	3.539900	-10.524000	25.709959	0.000863	20.753426
1118.299900	-2.991000	3.539300	-10.586000	25.732864	0.000861	20.754621
1119.304793	-2.993300	3.540500	-10.597000	25.737782	0.000863	20.756716
1120.319806	-3.004100	3.539600	-10.632000	25.736661	0.000862	20.760806
1121.304974	-2.999600	3.537100	-10.609000	25.693275	0.000862	20.757057
1122.317626	-3.008600	3.538700	-10.645000	25.667557	0.000860	20.764891
1123.304606	-2.980400	3.538600	-10.545000	25.665192	0.000861	20.750187
1124.305083	-2.971100	3.538800	-10.513000	25.653783	0.000861	20.744892
1125.304750	-3.025600	3.536500	-10.699000	25.666480	0.000859	20.755749
1126.309094	-2.997700	3.536500	-10.600000	25.647637	0.000860	20.748676
1127.304590	-3.015700	3.535300	-10.660000	25.622242	0.000859	20.773432
1128.304250	-3.011500	3.535300	-10.646000	25.591451	0.000858	20.773803
1129.302821	-2.993200	3.538300	-10.589000	25.611275	0.000856	20.764789
1130.308214	-3.018700	3.534600	-10.668000	25.626054	0.000857	20.733163
1131.303136	-2.997600	3.533900	-10.591000	25.665656	0.000854	20.770569
1132.306424	-2.978500	3.535200	-10.528000	25.698373	0.000857	20.777351
1133.303507	-2.970100	3.534900	-10.498000	25.713249	0.000857	20.768584
1134.303942	-2.991100	3.535600	-10.574000	25.697120	0.000854	20.795058
1135.306589	-3.001000	3.533800	-10.604000	25.682928	0.000855	20.774640
1136.307250	-2.973700	3.533900	-10.508000	25.707964	0.000854	20.775604
1137.303048	-2.989500	3.533900	-10.563000	25.716859	0.000855	20.768892
1138.304524	-3.005100	3.532700	-10.615000	25.719157	0.000855	20.767880
1139.305754	-3.002600	3.532700	-10.606000	25.741905	0.000852	20.773660
1140.307241	-2.975800	3.533600	-10.514000	25.743317	0.000852	20.778871
1141.305752	-2.998700	3.532700	-10.591000	25.758615	0.000853	20.767685
1142.308329	-3.015300	3.531100	-10.646000	25.767451	0.000851	20.782251
1143.306710	-2.999900	3.531400	-10.593000	25.771219	0.000849	20.764698
1144.311302	-2.985200	3.532100	-10.543000	25.783881	0.000852	20.771253
1145.306747	-3.011600	3.529300	-10.626000	25.808767	0.000849	20.788190
1146.310538	-3.011700	3.530300	-10.631000	25.786257	0.000849	20.787864
1147.308252	-3.009700	3.529100	-10.621000	25.764136	0.000847	20.786507
1148.306992	-2.998000	3.529600	-10.580000	25.781096	0.000849	20.772723
1149.310555	-3.001300	3.529600	-10.592000	25.802476	0.000846	20.795622
1150.308619	-2.999500	3.526700	-10.577000	25.818717	0.000846	20.799608
1151.309641	-2.989900	3.528300	-10.548000	25.827874	0.000848	20.780357
1152.317727	-2.989400	3.528800	-10.548000	25.826301	0.000846	20.788260
1153.309803	-3.010700	3.526300	-10.616000	25.854662	0.000846	20.806319
1154.309372	-2.995800	3.527500	-10.567000	25.911469	0.000845	20.795582
1155.312844	-2.980400	3.526800	-10.511000	25.889376	0.000843	20.800414
1156.308791	-2.996900	3.526500	-10.568000	25.888846	0.000843	20.806519
1157.311359	-2.992600	3.526900	-10.553000	25.869986	0.000840	20.794686
1158.307638	-2.992600	3.526700	-10.554000	25.815327	0.000841	20.804263
1159.310955	-3.004700	3.524500	-10.589000	25.796614	0.000842	20.809174
1160.309289	-2.994600	3.525100	-10.556000	25.808431	0.000839	20.802551
1161.311324	-3.017200	3.523200	-10.628000	25.825866	0.000840	20.809635
1162.310483	-3.013400	3.523600	-10.616000	25.857511	0.000838	20.814871
1163.311018	-2.992800	3.524300	-10.546000	25.868958	0.000839	20.811671
1164.316261	-2.983800	3.525200	-10.517000	25.916325	0.000836	20.817529
1165.309881	-2.999500	3.523500	-10.568000	25.890583	0.000835	20.826282
1166.310083	-2.989200	3.521800	-10.526000	25.922247	0.000836	20.798348
1167.312823	-3.011800	3.521000	-10.604000	25.937350	0.000834	20.820159
1168.309674	-3.012200	3.522300	-10.608000	25.955132	0.000834	20.801515
1169.309518	-3.004300	3.521000	-10.577000	25.959248	0.000834	20.806598
1170.310194	-3.017000	3.522000	-10.623000	25.935798	0.000831	20.800108
1171.310376	-3.007400	3.520500	-10.586000	25.890853	0.000832	20.811380
1172.311387	-3.016000	3.520800	-10.618000	25.865956	0.000832	20.823827
1173.314704	-3.001000	3.521200	-10.566000	25.877998	0.000833	20.821700
1174.310339	-2.994300	3.520900	-10.540000	25.896819	0.000832	20.812159
1175.312326	-3.011200	3.518400	-10.593000	25.881667	0.000831	20.810687
1176.311703	-2.975400	3.520100	-10.471000	25.871574	0.000830	20.818566
1177.315918	-3.020800	3.517400	-10.624000	25.884732	0.000829	20.833206
1178.318025	-3.002400	3.519100	-10.565000	25.852065	0.000828	20.832159
1179.312343	-2.984900	3.518500	-10.502000	25.907206	0.000830	20.833024
1180.310362	-3.014400	3.519000	-10.606000	25.899355	0.000828	20.817551
1181.311713	-3.002500	3.515900	-10.556000	25.885162	0.000828	20.824630
1182.312198	-3.009900	3.515900	-10.580000	25.920208	0.000827	20.832335
1183.313034	-2.997300	3.515400	-10.536000	25.904633	0.000828	20.835654
1184.317420	-2.989700	3.515700	-10.510000	25.949384	0.000828	20.830826
1185.314084	-2.990100	3.517100	-10.515000	25.969432	0.000825	20.831053
1186.315262	-2.999000	3.515800	-10.543000	26.001093	0.000826	20.836784
1187.311341	-3.012800	3.513400	-10.585000	25.974060	0.000828	20.839970
1188.314025	-3.020600	3.513800	-10.613000	25.926585	0.000826	20.840164
1189.315607	-2.997900	3.514200	-10.533000	25.922928	0.000827	20.830327
1190.321061	-2.962100	3.515200	-10.411000	25.898081	0.000825	20.837134
1191.318290	-2.972000	3.514900	-10.445000	25.897626	0.000823	20.852796
1192.315398	-2.998500	3.512000	-10.528000	25.938954	0.000824	20.832676
1193.318604	-2.993900	3.512700	-10.516000	25.909388	0.000826	20.838535
1194.317595	-3.007500	3.512200	-10.560000	25.898032	0.000824	20.846092
1195.318104	-2.999600	3.512200	-10.533000	25.861479	0.000822	20.859632
1196.316642	-2.998100	3.511800	-10.528000	25.858019	0.000822	20.837665
1197.317905	-2.987300	3.511800	-10.490000	25.859800	0.000823	20.834239
1198.315684	-3.010200	3.510500	-10.565000	25.869930	0.000821	20.849155
1199.323721	-3.008500	3.510800	-10.561000	25.882164	0.000821	20.857653
1200.319298	-3.011400	3.509600	-10.567000	25.886306	0.000820	20.869873
1201.318089	-2.991500	3.510400	-10.500000	25.895914	0.000819	20.871938
1202.319510	-3.038500	3.509300	-10.662000	25.920871	0.000820	20.833476
1203.321346	-2.984600	3.509400	-10.472000	25.925062	0.000820	20.847168
1204.322490	-2.997900	3.508700	-10.517000	25.877933	0.000818	20.865255
1205.321459	-3.004500	3.508200	-10.539000	25.910168	0.000817	20.868714
1206.321675	-3.001300	3.509600	-10.532000	25.898286	0.000816	20.870529
1207.317864	-2.985800	3.507600	-10.472000	25.910033	0.000816	20.862889
1208.322121	-2.995000	3.507200	-10.503000	25.883667	0.000813	20.868171
1209.323702	-3.006700	3.506400	-10.541000	25.885202	0.000813	20.864497
1210.321979	-3.021100	3.505100	-10.589000	25.868055	0.000813	20.868608
1211.326307	-3.003200	3.505300	-10.526000	25.902030	0.000814	20.887090
1212.320189	-3.003500	3.504800	-10.526000	25.934223	0.000810	20.876285
1213.319252	-2.994100	3.505300	-10.495000	25.928404	0.000812	20.854318
1214.320316	-2.996700	3.505100	-10.502000	25.917245	0.000811	20.877720
1215.318471	-3.002500	3.505700	-10.523000	25.882736	0.000809	20.896631
1216.321387	-3.013200	3.504800	-10.560000	25.888897	0.000810	20.896656
1217.318954	-2.997700	3.502500	-10.498000	25.877245	0.000810	20.871202
1218.319659	-3.008000	3.503200	-10.537000	25.890654	0.000808	20.869025
1219.322194	-2.980200	3.503600	-10.440000	25.899026	0.000810	20.870798
1220.322402	-3.009700	3.501500	-10.537000	25.892164	0.000809	20.882395
1221.320775	-2.980200	3.502500	-10.435000	25.891019	0.000808	20.890254
1222.320262	-3.003500	3.501200	-10.513000	25.923086	0.000808	20.868415
1223.320374	-2.993000	3.501300	-10.479000	25.911290	0.000808	20.878850
1224.320504	-2.959100	3.502100	-10.362000	25.943676	0.000807	20.873928
1225.322244	-3.003500	3.500400	-10.513000	25.950928	0.000808	20.885480
1226.322421	-2.981400	3.501500	-10.437000	25.954950	0.000807	20.885253
1227.325518	-2.988200	3.499000	-10.454000	25.979040	0.000805	20.880058
1228.322115	-2.998400	3.498600	-10.489000	25.973320	0.000806	20.865303
1229.323617	-3.015500	3.499100	-10.551000	25.968551	0.000805	20.886115
1230.328556	-2.992100	3.499500	-10.470000	25.923903	0.000807	20.882512
1231.322913	-3.011300	3.498000	-10.533000	25.910241	0.000805	20.884433
1232.322377	-3.007400	3.498400	-10.520000	25.882041	0.000806	20.895932
1233.325341	-3.003800	3.497400	-10.504000	25.899824	0.000805	20.885349
1234.324455	-3.018800	3.497900	-10.559000	25.910898	0.000805	20.872767
1235.324026	-3.012000	3.496300	-10.530000	25.877481	0.000803	20.902257
1236.326169	-3.011400	3.496600	-10.527000	25.860933	0.000803	20.897961
1237.326814	-3.026200	3.496400	-10.580000	25.881943	0.000803	20.890619
1238.324079	-2.998100	3.495500	-10.479000	25.900072	0.000802	20.921630
1239.324332	-3.000600	3.496200	-10.488000	25.891991	0.000803	20.901186
1240.324990	-3.015000	3.494000	-10.534000	25.884904	0.000802	20.906394
1241.328254	-3.002500	3.495200	-10.492000	25.934384	0.000801	20.888773
1242.328274	-3.014800	3.491900	-10.526000	25.915620	0.000802	20.907380
1243.326827	-3.004300	3.492400	-10.491000	25.980747	0.000797	20.877507
1244.325964	-2.976300	3.494700	-10.400000	25.945938	0.000799	20.907492
1245.324935	-3.002600	3.492400	-10.485000	25.985726	0.000798	20.901947
1246.328978	-3.021200	3.492600	-10.551000	25.990336	0.000797	20.917956
1247.327323	-3.011500	3.493000	-10.518000	26.022251	0.000796	20.915409
1248.329397	-3.011000	3.492100	-10.513000	26.046932	0.000795	20.921713
1249.325734	-2.996500	3.491900	-10.462000	26.046354	0.000797	20.908331
1250.326763	-3.002200	3.491400	-10.480000	26.043416	0.000795	20.898268
1251.332202	-2.996500	3.492900	-10.464000	26.050040	0.000796	20.920094
1252.329409	-3.024600	3.489300	-10.552000	26.059450	0.000796	20.922910
1253.326545	-2.994200	3.490000	-10.449000	26.103949	0.000793	20.909302
1254.327906	-3.001900	3.490400	-10.476000	26.097409	0.000794	20.916481
1255.330714	-3.011100	3.489400	-10.506000	26.106568	0.000792	20.913356
1256.326278	-3.006200	3.489200	-10.488000	26.119999	0.000792	20.898878
1257.333080	-3.017700	3.488800	-10.526000	26.114477	0.000791	20.934103
1258.326299	-2.990000	3.488400	-10.429000	26.116924	0.000791	20.880616
1259.329530	-2.994100	3.487800	-10.442000	26.062155	0.000793	20.904767
1260.328594	-2.999300	3.487700	-10.460000	26.026630	0.000792	20.912696
1261.327942	-3.009900	3.487800	-10.497000	25.998134	0.000789	20.916308
1262.332906	-2.997000	3.486600	-10.448000	26.022019	0.000790	20.912805
1263.330954	-2.991000	3.487900	-10.431000	25.997348	0.000790	20.908881
1264.333976	-2.999100	3.486500	-10.454000	26.013834	0.000789	20.897944
1265.330410	-3.001000	3.486100	-10.462000	26.017778	0.000789	20.881520
1266.331431	-3.000300	3.485300	-10.456000	26.028773	0.000787	20.912953
1267.333273	-3.007200	3.484700	-10.478000	26.022331	0.000788	20.910748
1268.335811	-3.014300	3.483700	-10.498000	26.029727	0.000788	20.906799
1269.329434	-2.997000	3.485500	-10.444000	26.017598	0.000787	20.917371
1270.332286	-3.022100	3.482400	-10.523000	25.995582	0.000787	20.898573
1271.333097	-3.014400	3.483100	-10.498000	26.019770	0.000786	20.885418
1272.333005	-2.978000	3.482100	-10.369000	26.047082	0.000784	20.922338
1273.336774	-2.992500	3.482500	-10.420000	26.043222	0.000787	20.915615
1274.334157	-3.014000	3.480500	-10.489000	26.094907	0.000781	20.891209
1275.344083	-3.005200	3.481500	-10.461000	26.079225	0.000785	20.893470
1276.337461	-3.003400	3.480200	-10.451000	26.090022	0.000783	20.889620
1277.335814	-3.013400	3.480600	-10.488000	26.095230	0.000782	20.897698
1278.353361	-2.982100	3.480100	-10.377000	26.095892	0.000783	20.896941
1279.335205	-2.973300	3.481400	-10.350000	26.102865	0.000780	20.900628
1280.335281	-2.976400	3.480200	-10.356000	26.043373	0.000782	20.896803
1281.337231	-2.985700	3.480700	-10.391000	25.986854	0.000783	20.888856
1282.336822	-2.996600	3.478000	-10.421000	25.957240	0.000780	20.898459
1283.337088	-2.988400	3.478500	-10.394000	25.952017	0.000780	20.876618
1284.341152	-3.018000	3.477100	-10.492000	25.944677	0.000780	20.884890
1285.339687	-3.029200	3.476900	-10.532000	25.934984	0.000780	20.868041
1286.340725	-2.981600	3.478200	-10.369000	25.983417	0.000778	20.897256
1287.338592	-2.995300	3.476400	-10.412000	25.989989	0.000779	20.889161
1288.341713	-2.984500	3.477000	-10.377000	26.021451	0.000779	20.886632
1289.340202	-2.996400	3.476200	-10.416000	26.017450	0.000776	20.871233
1290.340621	-3.015800	3.475200	-10.478000	26.032369	0.000776	20.908031
1291.342418	-2.988600	3.477400	-10.391000	26.060575	0.000776	20.880423
1292.339176	-3.023000	3.474200	-10.501000	26.071644	0.000775	20.898181
1293.339998	-3.004000	3.474700	-10.438000	26.091236	0.000775	20.895107
1294.340874	-2.974900	3.475300	-10.337000	26.085341	0.000774	20.882547
1295.341351	-2.999200	3.472300	-10.413000	26.088039	0.000775	20.886205
1296.338742	-3.011500	3.472700	-10.457000	26.038234	0.000776	20.874572
1297.342734	-3.013900	3.473100	-10.467000	26.049184	0.000771	20.883676
1298.339186	-3.025600	3.471200	-10.501000	26.042916	0.000773	20.884490
1299.338787	-2.993800	3.472200	-10.394000	26.103687	0.000773	20.876799
1300.341275	-3.015400	3.471300	-10.465000	26.086815	0.000772	20.877864
1301.340849	-3.001800	3.470100	-10.415000	26.118802	0.000771	20.886770
1302.344502	-2.998500	3.470800	-10.405000	26.096141	0.000770	20.885812
1303.351492	-3.011600	3.470100	-10.447000	26.089102	0.000769	20.882533
1304.345095	-2.994400	3.471200	-10.392000	26.057012	0.000771	20.878266
1305.347231	-3.015800	3.468600	-10.460000	26.085391	0.000770	20.869322
1306.343062	-3.021700	3.469100	-10.482000	26.135155	0.000770	20.876176
1307.342168	-2.994500	3.469600	-10.387000	26.120123	0.000768	20.889045
1308.347139	-3.010200	3.467600	-10.437000	26.070369	0.000767	20.889314
1309.342421	-3.003500	3.468300	-10.416000	26.041076	0.000768	20.887858
1310.342359	-3.016000	3.467900	-10.458000	26.039460	0.000767	20.890027
1311.343521	-2.987600	3.467100	-10.356000	26.018312	0.000767	20.889642
1312.343570	-3.008200	3.466300	-10.426000	25.984924	0.000767	20.883125
1313.345834	-3.002400	3.466900	-10.408000	25.981812	0.000766	20.885213
1314.346367	-3.001900	3.466700	-10.405000	25.979174	0.000766	20.883512
1315.345739	-2.987000	3.467400	-10.356000	25.991189	0.000762	20.860023
1316.358038	-2.986700	3.465900	-10.351000	25.992700	0.000764	20.889514
1317.343450	-2.972200	3.465000	-10.298000	25.987552	0.000761	20.872015
1318.350502	-3.020300	3.464500	-10.461000	25.960496	0.000760	20.862377
1319.349132	-2.999400	3.463800	-10.388000	25.996731	0.000762	20.891193
1320.350050	-3.006800	3.465000	-10.417000	26.014335	0.000758	20.882802
1321.347314	-3.008800	3.465100	-10.425000	26.020396	0.000757	20.870874
1322.347416	-2.995500	3.463600	-10.374000	26.047987	0.000758	20.861612
1323.352277	-2.991200	3.463200	-10.358000	26.059035	0.000756	20.864652
1324.351707	-2.975800	3.464000	-10.307000	26.075524	0.000757	20.876003
1325.348565	-2.988800	3.463200	-10.350000	26.077332	0.000756	20.874974
1326.352271	-2.986200	3.461900	-10.337000	26.089623	0.000756	20.862194
1327.348634	-3.016800	3.461300	-10.441000	26.118356	0.000756	20.890589
1328.348969	-2.993200	3.460700	-10.358000	26.106855	0.000755	20.872396
1329.351272	-2.997700	3.459900	-10.371000	26.128210	0.000754	20.865879
1330.349962	-2.973400	3.461100	-10.290000	26.155156	0.000756	20.864980
1331.354466	-3.004700	3.458000	-10.388000	26.142585	0.000756	20.867521
1332.351513	-2.982600	3.460900	-10.321000	26.096087	0.000753	20.869164
1333.350042	-3.000400	3.460000	-10.380000	26.097676	0.000753	20.876449
1334.349275	-3.012400	3.456500	-10.411000	26.069436	0.000752	20.856610
1335.349701	-3.001700	3.457800	-10.379000	26.078075	0.000754	20.850118
1336.350155	-3.000900	3.458600	-10.378000	26.117091	0.000752	20.848070
1337.355145	-3.008400	3.455500	-10.394000	26.118828	0.000753	20.853607
1338.351062	-2.998800	3.455300	-10.360000	26.156375	0.000753	20.866679
1339.353817	-2.984700	3.454700	-10.310000	26.140032	0.000749	20.860689
1340.353668	-2.991300	3.456400	-10.338000	26.164912	0.000750	20.852024
1341.352261	-2.997000	3.454100	-10.351000	26.163543	0.000749	20.858709
1342.354866	-3.014200	3.453800	-10.409000	26.181418	0.000749	20.863394
1343.358496	-3.007600	3.453600	-10.386000	26.196666	0.000750	20.872551
1344.355149	-3.003700	3.454900	-10.376000	26.208783	0.000748	20.857227
1345.353434	-3.028700	3.452500	-10.455000	26.217446	0.000747	20.866881
1346.356075	-3.019000	3.452200	-10.421000	26.250644	0.000752	20.861836
1347.354026	-2.999200	3.452600	-10.353000	26.262011	0.000747	20.854767
1348.358214	-3.004500	3.451100	-10.367000	26.252671	0.000746	20.859131
1349.355840	-2.998800	3.453700	-10.356000	26.260464	0.000747	20.865539
1350.359827	-2.988100	3.452800	-10.317000	26.264035	0.000744	20.842103
1351.358455	-2.978100	3.450500	-10.275000	26.233711	0.000743	20.855251
1352.356239	-3.005200	3.451800	-10.372000	26.215229	0.000745	20.873662
1353.362119	-2.991800	3.450200	-10.320000	26.199110	0.000742	20.851301
1354.356930	-2.991000	3.451300	-10.321000	26.156266	0.000744	20.874629
1355.362245	-2.995400	3.449800	-10.333000	26.125146	0.000741	20.855215
1356.356788	-2.983600	3.448900	-10.289000	26.048467	0.000744	20.858776
1357.355701	-2.999300	3.448100	-10.341000	26.014340	0.000740	20.831127
1358.358750	-2.990100	3.448800	-10.311000	25.981150	0.000738	20.847093
1359.360162	-2.997000	3.448600	-10.333000	25.974293	0.000739	20.846368
1360.358107	-2.991200	3.447900	-10.311000	26.008416	0.000737	20.875907
1361.359170	-2.985200	3.447800	-10.291000	26.030032	0.000738	20.832193
1362.362214	-2.993500	3.448600	-10.322000	26.022475	0.000735	20.838826
1363.358808	-2.992000	3.447000	-10.312000	26.002879	0.000736	20.854698
1364.364651	-2.999600	3.446300	-10.336000	25.979726	0.000736	20.868894
1365.359653	-3.005000	3.445400	-10.352000	25.959182	0.000738	20.865324
1366.366296	-2.996700	3.445600	-10.323000	25.918966	0.000735	20.856691
1367.363289	-2.994300	3.445200	-10.315000	25.887417	0.000732	20.832584
1368.362134	-2.993300	3.445700	-10.313000	25.874149	0.000734	20.840118
1369.361162	-2.981500	3.444700	-10.268000	25.905201	0.000732	20.866570
1370.362689	-3.025900	3.443000	-10.418000	25.933668	0.000732	20.852495
1371.362325	-3.008200	3.442700	-10.355000	25.932551	0.000731	20.837149
1372.361274	-3.002300	3.443100	-10.337000	25.939628	0.000729	20.840465
1373.363611	-3.006100	3.441100	-10.344000	25.912654	0.000730	20.829015
1374.361527	-3.000700	3.441700	-10.327000	25.938042	0.000730	20.838398
1375.370533	-3.002800	3.441000	-10.332000	25.988715	0.000728	20.817710
1376.363181	-2.997000	3.440600	-10.310000	26.018919	0.000728	20.833830
1377.363656	-3.013200	3.440600	-10.366000	26.068396	0.000729	20.817161
1378.362278	-3.003200	3.441500	-10.334000	26.061793	0.000726	20.839449
1379.362856	-3.012700	3.439000	-10.360000	26.074287	0.000727	20.818812
1380.365872	-2.993100	3.440100	-10.295000	26.064325	0.000725	20.818286
1381.365794	-2.991400	3.438700	-10.285000	26.067530	0.000727	20.824350
1382.368805	-2.992200	3.438900	-10.288000	26.068600	0.000725	20.846762
1383.364617	-2.988500	3.438500	-10.274000	26.027348	0.000726	20.826653
1384.365940	-2.989400	3.440000	-10.281000	26.009267	0.000724	20.832668
1385.366802	-2.981300	3.437200	-10.247000	26.007552	0.000725	20.825729
1386.372357	-3.015200	3.437500	-10.364000	26.039322	0.000725	20.803596
1387.366610	-2.986000	3.438200	-10.266000	26.056089	0.000724	20.828977
1388.366919	-3.028200	3.434100	-10.397000	26.075983	0.000721	20.825732
1389.365159	-3.006300	3.436300	-10.330000	26.092851	0.000722	20.826085
1390.368811	-3.005800	3.435500	-10.324000	26.131398	0.000721	20.839686
1391.378634	-2.990500	3.435000	-10.272000	26.157898	0.000722	20.839287
1392.366639	-3.026600	3.433400	-10.391000	26.160279	0.000720	20.802799
1393.371910	-3.003300	3.433200	-10.309000	26.202154	0.000718	20.808368
1394.365307	-2.991500	3.435200	-10.275000	26.195671	0.000718	20.839311
1395.369299	-3.003300	3.434300	-10.312000	26.221876	0.000718	20.833402
1396.369408	-2.991400	3.433600	-10.270000	26.234045	0.000717	20.804380
1397.366638	-2.990100	3.432200	-10.262000	26.242640	0.000717	20.830086
1398.365243	-3.002600	3.431700	-10.303000	26.198138	0.000716	20.809074
1399.366076	-3.010800	3.432300	-10.334000	26.180010	0.000716	20.820256
1400.365211	-3.020000	3.430600	-10.359000	26.155970	0.000714	20.816487
1401.367713	-2.983700	3.433600	-10.244000	26.130442	0.000714	20.809328
1402.370092	-2.984900	3.431200	-10.240000	26.128455	0.000714	20.819186
1403.367906	-2.996700	3.431100	-10.280000	26.122049	0.000714	20.800896
1404.367032	-3.005900	3.429300	-10.307000	26.091555	0.000713	20.807713
1405.367578	-3.004200	3.430000	-10.304000	26.049281	0.000714	20.825929
1406.369681	-2.984700	3.430100	-10.237000	26.074739	0.000712	20.831120
1407.371566	-2.988400	3.427900	-10.243000	26.074591	0.000710	20.804893
1408.367693	-2.986300	3.429200	-10.240000	26.115378	0.000711	20.810313
1409.366413	-3.012000	3.426100	-10.318000	26.141581	0.000711	20.800607
1410.372298	-2.955000	3.429600	-10.134000	26.128369	0.000709	20.780693
1411.368448	-3.005000	3.427100	-10.298000	26.091441	0.000708	20.787684
1412.371697	-2.986400	3.428100	-10.236000	26.090352	0.000707	20.807453
1413.368999	-2.997900	3.426800	-10.272000	26.071053	0.000709	20.802761
1414.369770	-3.013500	3.424700	-10.319000	26.071827	0.000709	20.782201
1415.370811	-2.986500	3.425700	-10.230000	26.098152	0.000707	20.790160
1416.370903	-3.009100	3.423500	-10.301000	26.066364	0.000707	20.787619
1417.372658	-2.987800	3.425500	-10.233000	26.047266	0.000704	20.788344
1418.372704	-2.993300	3.424800	-10.250000	26.055190	0.000704	20.784451
1419.375129	-2.978100	3.424600	-10.196000	26.087085	0.000706	20.802748
1420.371172	-2.977500	3.425900	-10.199000	26.119896	0.000702	20.775024
1421.370394	-2.978900	3.425100	-10.201000	26.156431	0.000706	20.800355
1422.371795	-3.015100	3.422200	-10.316000	26.193042	0.000705	20.792574
1423.374536	-3.011800	3.422900	-10.309000	26.219493	0.000703	20.779799
1424.373394	-3.001900	3.423100	-10.275000	26.225630	0.000703	20.796398
1425.373026	-3.029100	3.421500	-10.362000	26.238274	0.000703	20.779706
1426.374464	-3.010700	3.421300	-10.299000	26.188311	0.000702	20.775965
1427.375680	-2.987800	3.421500	-10.222000	26.209893	0.000703	20.775367
1428.376271	-3.002400	3.421700	-10.271000	26.232893	0.000699	20.763392
1429.372450	-3.013200	3.420700	-10.305000	26.260213	0.000697	20.769036
1430.374385	-3.013200	3.420800	-10.307000	26.252392	0.000699	20.772556
1431.374423	-3.011700	3.420100	-10.299000	26.250736	0.000700	20.787013
1432.380899	-2.986500	3.419700	-10.212000	26.255408	0.000699	20.786967
1433.380718	-2.984800	3.419300	-10.205000	26.241922	0.000697	20.785743
1434.375629	-3.003500	3.417000	-10.262000	26.253326	0.000697	20.766857
1435.376723	-2.992400	3.418300	-10.228000	26.275009	0.000695	20.762568
1436.374383	-2.994200	3.419000	-10.235000	26.292244	0.000697	20.752861
1437.374420	-3.015600	3.416800	-10.302000	26.279261	0.000697	20.777747
1438.382625	-2.980100	3.417900	-10.184000	26.273874	0.000693	20.783713
1439.378078	-3.015300	3.415000	-10.296000	26.184625	0.000696	20.769417
1440.378042	-3.001400	3.416200	-10.252000	26.125894	0.000692	20.760662
1441.376143	-3.008900	3.413300	-10.269000	26.118199	0.000696	20.760516
1442.376072	-3.000200	3.416600	-10.249000	26.116163	0.000696	20.763687
1443.381525	-2.992200	3.414900	-10.217000	26.135140	0.000694	20.749564
1444.383942	-3.019100	3.413800	-10.305000	26.113489	0.000695	20.747249
1445.379582	-3.001600	3.414500	-10.248000	26.109020	0.000693	20.758406
1446.380326	-3.012800	3.412600	-10.281000	26.112647	0.000694	20.754464
1447.379073	-2.989100	3.412600	-10.199000	26.091020	0.000692	20.753596
1448.385618	-2.984600	3.412400	-10.183000	26.053221	0.000691	20.757817
1449.387188	-3.018500	3.412200	-10.300000	26.010646	0.000691	20.748705
1450.381751	-3.004600	3.411600	-10.250000	25.999693	0.000693	20.751925
1451.380204	-3.012900	3.411700	-10.278000	26.000464	0.000694	20.745588
1452.382005	-3.012900	3.412300	-10.280000	26.010850	0.000691	20.753178
1453.380353	-3.021300	3.410700	-10.304000	26.059011	0.000690	20.757470
1454.384022	-3.002600	3.410600	-10.240000	26.112283	0.000689	20.765478
1455.384923	-3.019500	3.409200	-10.293000	26.131063	0.000689	20.753528
1456.383086	-3.006600	3.410000	-10.252000	26.112731	0.000690	20.744590
1457.381920	-2.983400	3.409700	-10.171000	26.080941	0.000690	20.756271
1458.384311	-3.003500	3.407300	-10.232000	26.106399	0.000688	20.754823
1459.383419	-3.006500	3.408200	-10.245000	26.105803	0.000689	20.734310
1460.382236	-3.013500	3.408100	-10.269000	26.116379	0.000687	20.768171
1461.383632	-3.013100	3.407400	-10.264000	26.130092	0.000685	20.745439
1462.380408	-2.971800	3.408900	-10.129000	26.155848	0.000686	20.761837
1463.383473	-3.007800	3.406500	-10.246000	26.172437	0.000685	20.746263
1464.383360	-3.000700	3.407600	-10.224000	26.174272	0.000683	20.747159
1465.388667	-3.012700	3.405800	-10.260000	26.200425	0.000683	20.756844
1466.384944	-2.988200	3.407300	-10.180000	26.198343	0.000682	20.746691
1467.383135	-3.015200	3.404500	-10.263000	26.200850	0.000683	20.752056
1468.383480	-2.985300	3.406100	-10.166000	26.203164	0.000681	20.747742
1469.382753	-2.982300	3.405400	-10.155000	26.194997	0.000681	20.781736
1470.399611	-2.988400	3.405300	-10.175000	26.184536	0.000681	20.750361
1471.382963	-3.022800	3.403100	-10.286000	26.179972	0.000679	20.731549
1472.387072	-2.993700	3.404400	-10.191000	26.173763	0.000681	20.749967
1473.386117	-3.009700	3.402000	-10.238000	26.188496	0.000679	20.755763
1474.386989	-2.998600	3.401800	-10.200000	26.208585	0.000679	20.720946
1475.387950	-2.993300	3.402200	-10.182000	26.214374	0.000681	20.749998
1476.387222	-3.001400	3.402200	-10.211000	26.174294	0.000680	20.750975
1477.390297	-3.030100	3.401100	-10.304000	26.140992	0.000679	20.758289
1478.387311	-3.030400	3.399900	-10.300000	26.119134	0.000680	20.733005
1479.387278	-2.993500	3.401000	-10.180000	26.127159	0.000677	20.761933
1480.388587	-3.000100	3.400000	-10.199000	26.142605	0.000676	20.747107
1481.389951	-2.993400	3.399700	-10.176000	26.200200	0.000675	20.742867
1482.389170	-3.000900	3.399100	-10.198000	26.188826	0.000676	20.738550
1483.396198	-2.987200	3.400200	-10.156000	26.195034	0.000676	20.744789
1484.394137	-2.977800	3.400000	-10.124000	26.175170	0.000675	20.740949
1485.389741	-3.004100	3.398400	-10.208000	26.171494	0.000674	20.741522
1486.397910	-3.033200	3.397900	-10.306000	26.153214	0.000674	20.734059
1487.389912	-3.020700	3.397000	-10.260000	26.115812	0.000671	20.748635
1488.392127	-2.992300	3.398900	-10.169000	26.088273	0.000672	20.736136
1489.389674	-3.018200	3.395600	-10.248000	26.058937	0.000671	20.741749
1490.392734	-3.023900	3.396200	-10.268000	26.042547	0.000670	20.750411
1491.390754	-2.989200	3.396500	-10.151000	26.045033	0.000671	20.736313
1492.393726	-3.003900	3.394700	-10.196000	26.040986	0.000671	20.751214
1493.390752	-2.990300	3.395400	-10.152000	26.077277	0.000669	20.741684
1494.392481	-2.993700	3.395300	-10.163000	26.119551	0.000668	20.732002
1495.394817	-2.997900	3.395600	-10.178000	26.166144	0.000668	20.751319
1496.393398	-3.012700	3.394200	-10.225000	26.204787	0.000668	20.757908
1497.401409	-2.990700	3.394000	-10.150000	26.272583	0.000667	20.765346
1498.391875	-2.995400	3.394200	-10.165000	26.258382	0.000668	20.743962
1499.398996	-3.008700	3.393400	-10.209000	26.296677	0.000664	20.739772
1500.406946	-3.005100	3.393300	-10.196000	26.316147	0.000666	20.761711
1501.397431	-2.999700	3.392000	-10.173000	26.340853	0.000666	20.761885
1502.399959	-3.009900	3.392500	-10.211000	26.317763	0.000662	20.742472
1503.397860	-2.981000	3.393300	-10.115000	26.305848	0.000663	20.739032
1504.393582	-2.990800	3.391700	-10.143000	26.307119	0.000662	20.750266
1505.396236	-2.993000	3.391500	-10.150000	26.321470	0.000663	20.757103
1506.401091	-3.004000	3.391300	-10.186000	26.346553	0.000662	20.755284
1507.399990	-2.992800	3.390500	-10.146000	26.359843	0.000660	20.735924
1508.395285	-3.003300	3.390600	-10.182000	26.372510	0.000663	20.743439
1509.395437	-3.009500	3.390600	-10.203000	26.381798	0.000659	20.741394
1510.397030	-2.999400	3.389700	-10.166000	26.343214	0.000660	20.750506
1511.396795	-3.007700	3.389300	-10.193000	26.349174	0.000660	20.749858
1512.397930	-3.006000	3.387800	-10.183000	26.390395	0.000661	20.741025
1513.395361	-2.973700	3.389800	-10.080000	26.377037	0.000659	20.743722
1514.398506	-3.001500	3.386800	-10.165000	26.400358	0.000658	20.752462
1515.398524	-2.989100	3.387800	-10.125000	26.409923	0.000658	20.751644
1516.395497	-2.997800	3.386100	-10.150000	26.459830	0.000657	20.758657
1517.398580	-2.985600	3.387500	-10.112000	26.451317	0.000654	20.747256
1518.403051	-2.986000	3.386400	-10.111000	26.438531	0.000654	20.736300
1519.401288	-2.987400	3.387400	-10.118000	26.433595	0.000654	20.711897
1520.398799	-2.979100	3.386300	-10.087000	26.375546	0.000655	20.755026
1521.398046	-3.004800	3.385000	-10.171000	26.330603	0.000654	20.741625
1522.398412	-3.008300	3.385900	-10.184000	26.331008	0.000653	20.734919
1523.400117	-2.998500	3.384000	-10.146000	26.278612	0.000654	20.744852
1524.398263	-3.012300	3.383500	-10.192000	26.249039	0.000651	20.753065
1525.401553	-2.981600	3.383400	-10.087000	26.280383	0.000652	20.752321
1526.400826	-2.973200	3.384400	-10.062000	26.294048	0.000652	20.761312
1527.400346	-2.969100	3.383000	-10.044000	26.311332	0.000649	20.753552
1528.404515	-3.009700	3.382500	-10.179000	26.303934	0.000652	20.734737
1529.401611	-2.987800	3.381400	-10.102000	26.306867	0.000648	20.743849
1530.403930	-2.989300	3.381500	-10.107000	26.297533	0.000649	20.754858
1531.401121	-3.001600	3.380200	-10.146000	26.318993	0.000649	20.767416
1532.401495	-2.994300	3.380800	-10.122000	26.319693	0.000648	20.735876
1533.405278	-3.007200	3.381600	-10.169000	26.333252	0.000647	20.737175
1534.406280	-2.993600	3.381300	-10.121000	26.353789	0.000648	20.765876
1535.404317	-3.007200	3.378100	-10.158000	26.392256	0.000649	20.746215
1536.404024	-3.013800	3.379500	-10.184000	26.409817	0.000646	20.755331
1537.406905	-2.984000	3.379600	-10.084000	26.426279	0.000645	20.752436
1538.402667	-3.009100	3.378600	-10.165000	26.402698	0.000647	20.752443
1539.407946	-2.999000	3.377800	-10.129000	26.368755	0.000645	20.750097
1540.405426	-3.014200	3.375500	-10.174000	26.335684	0.000646	20.769491
1541.413315	-2.975600	3.377600	-10.049000	26.348126	0.000644	20.735054
1542.405066	-3.010000	3.377300	-10.165000	26.355675	0.000644	20.751176
1543.402620	-2.980600	3.377300	-10.065000	26.346045	0.000645	20.764258
1544.408491	-2.996700	3.376500	-10.117000	26.370828	0.000642	20.752180
1545.407392	-3.021900	3.374900	-10.197000	26.401416	0.000643	20.755422
1546.405306	-3.007100	3.375000	-10.148000	26.433897	0.000643	20.731642
1547.406633	-3.001000	3.375400	-10.128000	26.448123	0.000642	20.760167
1548.407562	-3.004700	3.375100	-10.140000	26.473871	0.000642	20.741476
1549.404446	-3.019100	3.375400	-10.189000	26.463518	0.000641	20.739604
1550.408931	-3.003000	3.374100	-10.131000	26.412963	0.000640	20.766080
1551.406601	-2.993400	3.375100	-10.102000	26.351981	0.000641	20.762637
1552.407207	-3.001500	3.373300	-10.124000	26.310513	0.000640	20.756522
1553.406450	-2.975200	3.374100	-10.038000	26.313143	0.000638	20.739725
1554.407954	-2.975400	3.373200	-10.036000	26.337828	0.000639	20.773543
1555.412114	-3.006300	3.372000	-10.136000	26.366779	0.000639	20.743369
1556.408796	-2.993400	3.371600	-10.092000	26.383763	0.000637	20.768026
1557.411864	-3.000600	3.372600	-10.119000	26.399008	0.000636	20.778132
1558.410311	-2.993700	3.371900	-10.094000	26.411696	0.000634	20.758168
1559.412679	-3.011800	3.369600	-10.147000	26.380933	0.000638	20.765655
1560.413385	-2.990200	3.369800	-10.076000	26.353717	0.000635	20.766752
1561.414993	-2.975100	3.371100	-10.029000	26.366906	0.000637	20.765783
1562.413603	-3.005800	3.369800	-10.128000	26.408397	0.000636	20.758171
1563.413903	-2.992200	3.368900	-10.080000	26.424835	0.000632	20.768529
1564.417512	-2.998700	3.368300	-10.099000	26.392456	0.000633	20.765383
1565.415093	-3.008200	3.369400	-10.135000	26.389030	0.000632	20.766681
1566.416856	-2.987300	3.370000	-10.066000	26.380464	0.000632	20.780358
1567.416231	-3.021700	3.368100	-10.177000	26.378778	0.000631	20.777240
1568.420061	-3.005900	3.367300	-10.120000	26.386699	0.000632	20.771451
1569.416024	-3.005100	3.368000	-10.121000	26.372127	0.000633	20.772927
1570.419700	-3.010900	3.365800	-10.133000	26.349981	0.000631	20.769162
1571.419728	-3.010500	3.365800	-10.131000	26.317625	0.000632	20.774101
1572.417383	-3.005600	3.365500	-10.114000	26.294584	0.000630	20.779395
1573.417004	-2.983100	3.366000	-10.040000	26.284133	0.000627	20.776953
1574.421875	-2.964000	3.367600	-9.981100	26.289897	0.000629	20.768521
1575.417206	-2.976800	3.365200	-10.017000	26.222725	0.000628	20.759812
1576.418154	-2.990000	3.363900	-10.058000	26.207256	0.000628	20.763708
1577.426822	-2.975400	3.365600	-10.012000	26.197621	0.000629	20.776787
1578.418235	-3.006700	3.363800	-10.113000	26.215457	0.000627	20.764363
1579.419899	-3.018200	3.362700	-10.147000	26.265098	0.000629	20.769204
1580.418946	-2.989800	3.364500	-10.059000	26.313624	0.000626	20.753485
1581.422008	-2.998900	3.364100	-10.087000	26.325793	0.000626	20.772827
1582.420599	-3.011000	3.362900	-10.123000	26.355315	0.000628	20.779264
1583.418619	-3.019100	3.361800	-10.148000	26.348368	0.000627	20.780817
1584.419493	-3.021200	3.361000	-10.153000	26.379456	0.000626	20.785035
1585.418718	-3.014900	3.360800	-10.130000	26.383452	0.000625	20.754437
1586.420198	-2.986500	3.361600	-10.038000	26.408336	0.000625	20.765697
1587.418373	-3.001900	3.360600	-10.087000	26.432294	0.000624	20.775552
1588.423147	-2.999300	3.360300	-10.078000	26.429910	0.000624	20.773630
1589.426138	-2.999000	3.360100	-10.075000	26.451068	0.000622	20.800112
1590.421023	-2.991400	3.359700	-10.049000	26.462214	0.000620	20.773382
1591.420582	-3.018000	3.360400	-10.140000	26.477929	0.000621	20.776850
1592.419309	-3.015000	3.359200	-10.127000	26.511700	0.000621	20.793725
1593.424521	-3.001200	3.358800	-10.079000	26.510306	0.000619	20.797066
1594.420342	-3.008500	3.357700	-10.101000	26.548493	0.000619	20.800363
1595.426906	-3.002500	3.358400	-10.082000	26.562144	0.000619	20.788007
1596.424133	-2.990700	3.358700	-10.044000	26.539749	0.000617	20.795367
1597.431627	-3.013100	3.358500	-10.118000	26.549039	0.000616	20.792377
1598.424018	-3.009000	3.356500	-10.099000	26.564974	0.000616	20.773308
1599.423331	-2.987500	3.356600	-10.026000	26.602438	0.000617	20.810494
1600.421227	-2.991100	3.355700	-10.037000	26.599210	0.000616	20.785438
1601.420880	-2.989000	3.355900	-10.030000	26.609464	0.000616	20.796694
1602.422047	-3.015500	3.355200	-10.117000	26.571951	0.000615	20.788856
1603.423369	-2.989700	3.354900	-10.029000	26.583074	0.000616	20.802409
1604.424026	-3.015500	3.352900	-10.110000	26.548018	0.000616	20.800360
1605.423839	-3.003100	3.353200	-10.069000	26.535504	0.000613	20.785884
1606.423981	-2.990900	3.354000	-10.030000	26.532374	0.000613	20.796963
1607.424426	-2.995600	3.353200	-10.044000	26.515618	0.000611	20.792448
1608.425686	-2.986900	3.352500	-10.012000	26.519539	0.000613	20.797338
1609.427393	-3.005900	3.352300	-10.074000	26.503227	0.000613	20.806071
1610.425547	-3.000400	3.351200	-10.053000	26.539492	0.000611	20.820239
1611.427776	-2.975100	3.352600	-9.973500	26.500787	0.000610	20.808835
1612.425331	-3.007100	3.350700	-10.075000	26.515234	0.000611	20.815296
1613.424495	-2.993000	3.351300	-10.029000	26.529361	0.000609	20.805314
1614.430326	-2.983500	3.351300	-9.997100	26.549838	0.000609	20.809302
1615.425893	-3.011200	3.350300	-10.088000	26.562176	0.000609	20.792781
1616.427879	-2.985500	3.351400	-10.005000	26.587820	0.000607	20.816662
1617.426049	-2.984800	3.350400	-9.999200	26.612794	0.000608	20.806206
1618.428357	-3.020000	3.348700	-10.111000	26.632080	0.000606	20.791928
1619.431345	-3.009500	3.348600	-10.077000	26.677756	0.000607	20.814613
1620.432353	-3.025900	3.349100	-10.133000	26.680484	0.000606	20.805028
1621.430062	-2.993300	3.348400	-10.021000	26.711513	0.000604	20.800187
1622.432162	-2.991700	3.348100	-10.015000	26.660105	0.000604	20.804929
1623.429430	-3.005600	3.346600	-10.056000	26.619116	0.000602	20.800707
1624.429750	-2.986900	3.348300	-10.000000	26.595708	0.000603	20.810367
1625.434374	-2.985700	3.346700	-9.990600	26.609362	0.000601	20.794695
1626.432358	-2.983800	3.345700	-9.981400	26.622323	0.000601	20.811517
1627.433794	-2.983700	3.346500	-9.983600	26.613379	0.000601	20.830975
1628.432961	-3.006900	3.346300	-10.061000	26.624927	0.000601	20.840213
1629.431970	-3.016500	3.345200	-10.088000	26.632826	0.000599	20.807851
1630.434990	-2.986100	3.346400	-9.991400	26.639225	0.000600	20.824715
1631.437091	-2.991700	3.345000	-10.006000	26.639056	0.000599	20.808899
1632.436333	-2.990300	3.345200	-10.003000	26.624181	0.000596	20.829980
1633.437187	-2.982500	3.344800	-9.974400	26.629598	0.000596	20.799391
1634.436106	-3.010800	3.343000	-10.064000	26.642530	0.000597	20.846529
1635.434806	-3.007000	3.344100	-10.055000	26.633892	0.000595	20.838794
1636.436255	-3.011600	3.342400	-10.064000	26.606511	0.000594	20.826442
1637.431924	-3.002500	3.342700	-10.035000	26.601175	0.000592	20.818707
1638.438385	-2.999400	3.343100	-10.025000	26.590805	0.000594	20.819188
1639.438077	-2.996800	3.342200	-10.014000	26.604684	0.000594	20.830295
1640.434380	-3.002500	3.341200	-10.031000	26.580604	0.000594	20.820787
1641.440247	-3.011600	3.340200	-10.058000	26.584849	0.000594	20.828374
1642.436098	-2.989600	3.340500	-9.984700	26.577925	0.000592	20.831845
1643.435344	-2.997700	3.340200	-10.013000	26.582719	0.000591	20.846621
1644.435887	-2.990700	3.340200	-9.988200	26.612086	0.000591	20.818770
1645.436687	-2.997400	3.339700	-10.010000	26.627134	0.000592	20.822992
1646.441793	-3.021700	3.339900	-10.091000	26.660769	0.000589	20.823614
1647.436923	-3.027000	3.337600	-10.102000	26.676858	0.000588	20.840736
1648.439509	-3.020600	3.336600	-10.078000	26.670354	0.000589	20.837042
1649.437500	-3.032600	3.338100	-10.122000	26.646451	0.000590	20.834350
1650.440416	-3.002300	3.337900	-10.020000	26.636402	0.000587	20.847954
1651.439514	-2.990500	3.337000	-9.978400	26.630295	0.000589	20.850350
1652.448394	-2.995000	3.336900	-9.992900	26.661206	0.000587	20.821682
1653.444156	-3.000400	3.336500	-10.010000	26.677414	0.000587	20.824700
1654.441350	-3.020500	3.336200	-10.075000	26.709066	0.000588	20.849409
1655.442601	-3.000400	3.336000	-10.009000	26.708767	0.000585	20.845789
1656.442255	-3.023500	3.335000	-10.081000	26.719791	0.000585	20.842173
1657.451677	-3.011800	3.335700	-10.045000	26.720065	0.000582	20.822535
1658.442654	-3.008600	3.334800	-10.032000	26.734668	0.000583	20.834845
1659.444931	-3.006500	3.334200	-10.024000	26.749858	0.000582	20.835418
1660.441931	-2.999300	3.333700	-9.997300	26.774709	0.000583	20.846178
1661.445829	-2.998500	3.334200	-9.995600	26.761680	0.000579	20.842562
1662.445893	-3.009400	3.332400	-10.026000	26.775803	0.000580	20.860554
1663.445993	-3.025500	3.332900	-10.082000	26.727579	0.000582	20.860908
1664.443177	-2.979700	3.333400	-9.931700	26.687146	0.000580	20.849182
1665.440868	-3.002000	3.332600	-10.003000	26.665848	0.000577	20.835358
1666.442590	-2.993500	3.332800	-9.975600	26.674837	0.000579	20.854351
1667.444943	-3.004900	3.332800	-10.014000	26.644430	0.000578	20.844172
1668.444074	-3.006200	3.329900	-10.009000	26.656056	0.000577	20.849695
1669.443263	-3.004900	3.330400	-10.006000	26.649104	0.000575	20.830853
1670.442347	-2.994400	3.330300	-9.970600	26.636595	0.000576	20.845778
1671.449818	-3.010600	3.329600	-10.022000	26.628879	0.000575	20.856513
1672.444750	-3.001900	3.329300	-9.993200	26.627788	0.000576	20.845459
1673.448469	-2.987900	3.329200	-9.946400	26.587404	0.000573	20.858916
1674.444768	-3.008400	3.327800	-10.010000	26.571739	0.000574	20.843644
1675.445665	-3.019700	3.327100	-10.046000	26.577801	0.000573	20.868228
1676.445241	-3.010500	3.327800	-10.018000	26.585098	0.000573	20.857072
1677.449080	-3.006100	3.326900	-9.999400	26.606654	0.000572	20.848870
1678.448211	-3.011800	3.327200	-10.019000	26.568825	0.000571	20.861102
1679.443846	-3.011000	3.327400	-10.017000	26.571085	0.000572	20.847728
1680.445027	-2.995900	3.327400	-9.967100	26.589090	0.000570	20.859662
1681.445102	-3.004300	3.326100	-9.991600	26.616151	0.000571	20.852727
1682.446914	-3.021900	3.325000	-10.045000	26.643012	0.000568	20.857918
1683.451328	-3.001500	3.325700	-9.980800	26.687723	0.000569	20.866831
1684.448422	-2.978000	3.325700	-9.902200	26.687649	0.000569	20.854429
1685.454380	-3.024500	3.323700	-10.051000	26.730800	0.000569	20.857508
1686.444929	-2.999300	3.323600	-9.967700	26.766667	0.000569	20.847576
1687.444913	-3.008400	3.323400	-9.996900	26.790455	0.000568	20.862483
1688.447151	-3.004800	3.324900	-9.989100	26.817585	0.000566	20.890707
1689.447282	-3.019500	3.323300	-10.033000	26.834590	0.000568	20.859918
1690.445073	-2.990700	3.323600	-9.938100	26.854375	0.000567	20.847095
1691.445184	-2.996100	3.323600	-9.957100	26.838398	0.000564	20.864695
1692.445415	-3.003900	3.322500	-9.979300	26.866520	0.000564	20.865470
1693.448230	-3.019300	3.320300	-10.025000	26.845623	0.000566	20.887131
1694.450264	-3.000100	3.321800	-9.964000	26.807556	0.000563	20.868297
1695.451717	-2.985500	3.321900	-9.916600	26.784230	0.000564	20.853854
1696.452154	-3.002700	3.320200	-9.968000	26.795953	0.000562	20.874648
1697.447850	-2.980000	3.320400	-9.893700	26.822292	0.000561	20.862250
1698.446773	-2.997900	3.319000	-9.948100	26.796805	0.000561	20.858911
1699.447634	-2.981100	3.319400	-9.894700	26.755477	0.000562	20.864299
1700.447118	-2.999400	3.320600	-9.958100	26.719022	0.000559	20.885968
1701.447770	-3.012400	3.318500	-9.996100	26.716118	0.000560	20.860765
1702.449856	-2.997200	3.318800	-9.946100	26.751071	0.000562	20.870301
1703.448387	-3.014700	3.318200	-10.003000	26.782971	0.000559	20.877243
1704.451388	-3.004400	3.317500	-9.965800	26.815092	0.000558	20.868288
1705.451591	-2.993300	3.317700	-9.929400	26.813111	0.000559	20.865822
1706.450454	-2.995600	3.319000	-9.941500	26.811549	0.000558	20.886060
1707.448105	-3.008400	3.316300	-9.975600	26.826147	0.000555	20.868971
1708.449386	-2.964800	3.318200	-9.837100	26.829698	0.000558	20.877756
1709.453959	-2.999600	3.315500	-9.943500	26.875394	0.000556	20.859694
1710.448731	-3.002000	3.316000	-9.954100	26.882742	0.000557	20.866134
1711.449041	-2.989200	3.316100	-9.910900	26.873068	0.000555	20.867786
1712.454099	-2.991100	3.314000	-9.911200	26.816554	0.000554	20.862171
1713.455590	-2.968100	3.316200	-9.841700	26.795041	0.000554	20.867093
1714.449572	-2.984900	3.315300	-9.893900	26.801147	0.000552	20.862327
1715.456176	-2.997600	3.315000	-9.936300	26.815552	0.000552	20.867801
1716.449277	-2.990800	3.314300	-9.911600	26.775663	0.000550	20.867051
1717.450513	-3.004300	3.312900	-9.952100	26.818951	0.000552	20.880227
1718.451672	-3.006600	3.311800	-9.956500	26.816076	0.000549	20.861217
1719.450537	-2.977400	3.314000	-9.865400	26.829555	0.000550	20.869553
1720.450764	-3.010100	3.313100	-9.971700	26.751274	0.000550	20.871927
1721.453843	-2.985800	3.312300	-9.889000	26.706228	0.000547	20.839917
1722.457192	-2.994700	3.311600	-9.916100	26.657603	0.000549	20.848406
1723.453747	-2.984400	3.310300	-9.878200	26.694444	0.000546	20.867424
1724.453769	-2.990900	3.310500	-9.900500	26.703532	0.000546	20.830569
1725.457194	-2.976300	3.312700	-9.859100	26.737694	0.000545	20.864438
1726.453067	-3.010700	3.309900	-9.962800	26.801782	0.000543	20.861070
1727.454718	-3.017500	3.307700	-9.979500	26.823644	0.000544	20.834688
1728.457207	-3.028400	3.308500	-10.018000	26.848772	0.000545	20.830556
1729.453291	-2.999400	3.308900	-9.921800	26.890843	0.000543	20.838719
1730.454577	-3.034000	3.306600	-10.031000	26.935643	0.000542	20.851050
1731.456118	-2.993400	3.307600	-9.899700	26.969194	0.000544	20.851125
1732.454908	-3.024900	3.306900	-10.002000	26.993840	0.000541	20.831338
1733.453997	-2.988000	3.308700	-9.884900	26.987468	0.000542	20.855750
1734.456349	-2.997400	3.306900	-9.911300	26.994618	0.000541	20.830225
1735.454495	-3.018200	3.305800	-9.976300	27.017229	0.000541	20.811712
1736.455061	-3.027800	3.304700	-10.005000	27.020603	0.000541	20.830278
1737.455361	-2.998500	3.306500	-9.913800	27.000554	0.000540	20.850892
1738.454716	-2.998500	3.305100	-9.909800	26.987286	0.000539	20.812420
1739.457170	-2.995700	3.304200	-9.896800	26.966343	0.000539	20.843042
1740.458632	-2.991600	3.304900	-9.885900	26.944480	0.000538	20.838601
1741.456814	-2.988200	3.302900	-9.867900	26.872589	0.000536	20.824158
1742.462039	-2.973400	3.303800	-9.822100	26.799892	0.000537	20.804170
1743.455863	-2.975500	3.305200	-9.833900	26.757625	0.000537	20.834218
1744.457026	-2.995400	3.303400	-9.893600	26.716450	0.000535	20.810840
1745.457012	-2.982200	3.302000	-9.846400	26.681976	0.000534	20.822648
1746.455575	-2.975600	3.303700	-9.829200	26.669217	0.000536	20.831158
1747.455457	-2.984100	3.302700	-9.854400	26.713854	0.000534	20.849006
1748.461167	-3.005100	3.301900	-9.921400	26.732268	0.000534	20.840492
1749.457581	-3.007800	3.300700	-9.926400	26.722424	0.000532	20.836760
1750.458861	-3.019900	3.300100	-9.964600	26.693060	0.000534	20.825731
1751.457802	-3.014700	3.300400	-9.947300	26.672365	0.000532	20.817728
1752.457698	-2.998000	3.300900	-9.894200	26.676089	0.000531	20.838541
1753.461327	-2.996700	3.300800	-9.890400	26.687318	0.000531	20.818536
1754.458281	-2.999700	3.300200	-9.897900	26.722464	0.000531	20.829688
1755.459104	-3.008300	3.299800	-9.926000	26.775711	0.000530	20.836281
1756.458345	-2.991000	3.301200	-9.870600	26.819823	0.000531	20.820889
1757.459496	-3.009200	3.298700	-9.925900	26.829849	0.000530	20.821013
1758.471726	-3.005400	3.297300	-9.906400	26.849958	0.000528	20.823689
1759.460098	-2.993500	3.296600	-9.867200	26.850684	0.000529	20.820151
1760.464932	-3.003400	3.296600	-9.900000	26.889503	0.000526	20.824570
1761.460476	-3.009600	3.297400	-9.921300	26.923286	0.000527	20.822505
1762.463406	-2.975300	3.296600	-9.807200	26.955821	0.000528	20.809703
1763.466942	-2.983300	3.297900	-9.837000	26.952479	0.000527	20.814402
1764.463493	-2.978000	3.296600	-9.815400	26.922699	0.000526	20.809113
1765.463579	-2.989000	3.295900	-9.850200	26.951565	0.000524	20.816328
1766.463990	-3.025500	3.293800	-9.963600	26.910820	0.000525	20.815185
1767.462180	-3.002100	3.294700	-9.889800	26.859769	0.000523	20.809846
1768.463197	-3.004700	3.293700	-9.895200	26.876799	0.000523	20.793778
1769.465232	-3.014500	3.295800	-9.933700	26.862410	0.000522	20.792587
1770.463912	-3.003600	3.293500	-9.890100	26.905596	0.000522	20.784802
1771.467311	-3.006000	3.293000	-9.898100	26.911406	0.000520	20.792541
1772.463692	-2.985300	3.294000	-9.832700	26.878032	0.000521	20.825838
1773.463650	-2.998500	3.291900	-9.869500	26.818939	0.000520	20.814310
1774.466066	-2.969300	3.293200	-9.776900	26.802064	0.000518	20.808249
1775.467539	-3.013400	3.291300	-9.917100	26.795293	0.000519	20.796226
1776.467197	-3.018700	3.291900	-9.936400	26.799316	0.000518	20.802168
1777.467802	-3.010500	3.291500	-9.908300	26.802621	0.000518	20.814025
1778.465322	-2.998800	3.291000	-9.868000	26.832556	0.000516	20.792441
1779.471798	-3.026800	3.288100	-9.951100	26.833627	0.000515	20.799207
1780.475459	-3.007400	3.289700	-9.891800	26.878327	0.000516	20.805746
1781.467071	-3.020100	3.287600	-9.928100	26.915312	0.000515	20.792676
1782.466839	-3.016000	3.290000	-9.922000	26.978996	0.000514	20.778954
1783.471893	-2.996200	3.288900	-9.852700	26.989398	0.000514	20.796527
1784.469957	-2.964000	3.290000	-9.751000	27.026946	0.000512	20.773594
1785.468957	-2.996900	3.288500	-9.854900	27.039475	0.000512	20.791410
1786.471930	-2.996800	3.289500	-9.856800	27.021911	0.000512	20.802670
1787.478619	-3.003300	3.286500	-9.869700	27.038167	0.000513	20.778715
1788.471108	-3.029600	3.287000	-9.956300	27.024896	0.000510	20.792395
1789.468670	-2.993700	3.287700	-9.841000	27.027278	0.000512	20.778669
1790.469078	-3.006600	3.287000	-9.881700	27.025170	0.000510	20.807844
1791.469995	-3.011800	3.286300	-9.897200	27.012719	0.000509	20.778253
1792.472507	-2.984000	3.286400	-9.805500	27.035276	0.000509	20.780075
1793.474642	-3.019700	3.285400	-9.920400	27.047137	0.000509	20.784891
1794.470114	-3.009100	3.284800	-9.883500	27.085109	0.000507	20.787043
1795.477321	-2.992000	3.284800	-9.826700	27.117643	0.000507	20.784676
1796.473512	-2.994700	3.284300	-9.833400	27.098384	0.000507	20.799445
1797.473502	-2.990900	3.283200	-9.818400	27.112330	0.000506	20.778859
1798.474623	-3.013500	3.282200	-9.889500	27.140273	0.000506	20.802220
1799.472277	-3.002400	3.283700	-9.857200	27.157515	0.000505	20.776414
1800.473987	-3.011400	3.282400	-9.883000	27.168313	0.000505	20.780161
1801.475498	-3.017200	3.280100	-9.894400	27.153104	0.000504	20.797581
1802.480859	-3.033600	3.281200	-9.952400	27.160278	0.000503	20.773028
1803.474525	-2.990200	3.280900	-9.809700	27.149435	0.000502	20.784882
1804.475072	-3.004100	3.280700	-9.854800	27.129360	0.000500	20.795038
1805.478482	-2.994800	3.281300	-9.826100	27.119410	0.000501	20.785979
1806.476426	-3.012900	3.280800	-9.883700	27.094972	0.000501	20.773729
1807.474782	-3.002200	3.280100	-9.846100	27.100876	0.000501	20.789624
1808.475271	-3.004800	3.279400	-9.853500	27.089266	0.000499	20.794069
1809.474087	-3.010500	3.280300	-9.874200	27.090881	0.000497	20.796167
1810.476020	-3.010000	3.279100	-9.869200	27.086412	0.000497	20.765120
1811.489282	-3.026100	3.277400	-9.916100	27.088725	0.000499	20.781670
1812.475151	-3.016200	3.277200	-9.883900	27.115597	0.000497	20.793050
1813.475207	-3.020100	3.278100	-9.899700	27.156584	0.000498	20.778797
1814.474190	-2.996700	3.276900	-9.819200	27.154329	0.000497	20.781745
1815.477078	-2.975400	3.276700	-9.749200	27.160384	0.000493	20.810594
1816.477970	-3.007300	3.276400	-9.852100	27.130762	0.000494	20.778429
1817.475944	-3.000400	3.276100	-9.828600	27.099966	0.000492	20.783967
1818.475261	-2.952000	3.276900	-9.672800	27.046321	0.000491	20.793553
1819.476083	-2.987600	3.276200	-9.787000	27.007212	0.000493	20.796423
1820.474629	-2.996100	3.274800	-9.809900	27.038207	0.000493	20.792032
1821.479287	-2.997800	3.275600	-9.817800	27.034907	0.000491	20.765953
1822.474678	-2.992000	3.275300	-9.798800	27.061314	0.000492	20.778285
1823.475550	-2.976500	3.275900	-9.749700	27.040073	0.000490	20.777786
1824.475327	-2.988500	3.274800	-9.785600	27.025284	0.000487	20.785200
1825.474090	-3.002700	3.271300	-9.822200	27.020098	0.000490	20.765285
1826.477229	-2.992300	3.272400	-9.790600	26.992038	0.000489	20.774051
1827.476247	-3.006100	3.272300	-9.836300	27.014366	0.000490	20.766633
1828.475693	-2.971500	3.274200	-9.728500	26.993079	0.000488	20.776520
1829.475184	-2.995200	3.270800	-9.795300	26.972632	0.000489	20.772080
1830.475412	-3.018000	3.272500	-9.875600	26.961906	0.000491	20.775518
1831.477751	-3.008300	3.270100	-9.836100	26.987499	0.000485	20.775650
1832.478234	-3.013600	3.271000	-9.855900	27.032090	0.000488	20.778767
1833.480871	-3.030300	3.268400	-9.902000	27.070124	0.000487	20.766757
1834.480643	-3.006400	3.269800	-9.829900	27.065782	0.000485	20.784676
1835.480485	-2.994800	3.271500	-9.795900	27.061560	0.000486	20.782326
1836.482702	-2.981900	3.269700	-9.749600	27.083645	0.000484	20.770872
1837.481850	-3.019700	3.269000	-9.870200	27.113568	0.000483	20.769672
1838.482324	-2.986400	3.268900	-9.761100	27.158380	0.000484	20.771593
1839.483553	-3.035700	3.266700	-9.915500	27.179069	0.000484	20.793351
1840.481141	-3.004300	3.267900	-9.816100	27.195220	0.000482	20.767396
1841.482484	-3.001200	3.268200	-9.808100	27.248091	0.000483	20.756564
1842.486408	-3.008400	3.266700	-9.826800	27.252104	0.000481	20.769610
1843.481378	-2.987900	3.265900	-9.756800	27.296484	0.000481	20.788647
1844.486142	-2.995100	3.265900	-9.780400	27.311416	0.000478	20.773321
1845.483566	-3.024900	3.263800	-9.871600	27.328508	0.000477	20.779609
1846.482238	-3.018700	3.265100	-9.855600	27.346689	0.000478	20.768501
1847.485173	-3.020500	3.265100	-9.861100	27.347284	0.000477	20.771944
1848.482742	-3.009300	3.264300	-9.822600	27.292180	0.000475	20.789059
1849.483584	-3.031400	3.263300	-9.891700	27.298005	0.000474	20.769314
1850.484679	-3.006700	3.262400	-9.807800	27.292024	0.000475	20.777049
1851.482488	-3.003200	3.263500	-9.800000	27.310658	0.000473	20.759282
1852.485230	-3.011600	3.262600	-9.824800	27.309859	0.000472	20.778867
1853.484867	-3.005200	3.262800	-9.804500	27.300210	0.000473	20.776748
1854.484127	-3.002900	3.261300	-9.792000	27.264853	0.000472	20.797133
1855.485283	-3.006400	3.261500	-9.804100	27.226990	0.000469	20.772324
1856.485106	-3.002800	3.262100	-9.794500	27.195651	0.000470	20.772097
1857.486423	-3.015200	3.261000	-9.830900	27.204112	0.000470	20.779185
1858.490983	-3.019200	3.260200	-9.842800	27.235545	0.000470	20.778084
1859.485752	-3.018900	3.258000	-9.834300	27.265591	0.000468	20.774641
1860.486651	-2.977200	3.260600	-9.706200	27.262812	0.000469	20.776113
1861.486019	-2.985600	3.258700	-9.727700	27.216689	0.000469	20.784722
1862.486374	-2.995200	3.259900	-9.762700	27.193094	0.000466	20.779482
1863.488763	-3.015300	3.257800	-9.822600	27.213163	0.000466	20.771693
1864.486989	-2.998200	3.258200	-9.768200	27.232442	0.000464	20.781601
1865.488969	-2.999000	3.256500	-9.764200	27.212340	0.000465	20.772761
1866.486329	-3.002000	3.257800	-9.778400	27.208249	0.000466	20.778604
1867.490503	-2.992100	3.256400	-9.742800	27.194225	0.000464	20.762602
1868.490030	-2.995400	3.256300	-9.752600	27.175541	0.000463	20.771784
1869.488451	-3.012100	3.256200	-9.807000	27.094182	0.000461	20.756813
1870.489017	-3.001500	3.256400	-9.773200	27.055866	0.000461	20.762375
1871.488850	-2.992700	3.256300	-9.743500	27.046211	0.000461	20.766890
1872.487592	-2.995000	3.255700	-9.750100	27.050725	0.000459	20.755782
1873.491990	-3.016000	3.254500	-9.814600	27.066780	0.000459	20.774299
1874.488570	-3.008100	3.255000	-9.790300	27.106506	0.000458	20.778691
1875.492982	-3.014800	3.253200	-9.806600	27.134317	0.000458	20.761143
1876.492061	-2.990900	3.254800	-9.733700	27.189077	0.000455	20.772597
1877.488829	-3.007900	3.252800	-9.783000	27.229044	0.000457	20.747363
1878.504264	-3.017200	3.251300	-9.809100	27.254176	0.000455	20.777384
1879.493145	-2.989400	3.251800	-9.720400	27.217977	0.000453	20.766577
1880.491755	-3.010500	3.251700	-9.787900	27.204601	0.000454	20.768297
1881.491227	-3.025300	3.250400	-9.831900	27.182695	0.000453	20.754797
1882.494067	-3.010400	3.251400	-9.786200	27.197501	0.000452	20.765423
1883.489945	-2.994000	3.251200	-9.732400	27.231942	0.000450	20.758339
1884.494972	-3.001600	3.250500	-9.755900	27.249950	0.000450	20.762227
1885.498053	-2.994700	3.251300	-9.734500	27.248163	0.000452	20.757111
1886.493631	-2.994000	3.249800	-9.729500	27.278532	0.000450	20.751622
1887.494511	-2.982800	3.250100	-9.693300	27.317209	0.000449	20.768243
1888.495825	-2.974200	3.250100	-9.665800	27.358143	0.000449	20.750150
1889.496152	-2.983900	3.247800	-9.690400	27.366356	0.000450	20.773587
1890.498594	-2.980200	3.249000	-9.681400	27.331944	0.000447	20.756513
1891.495927	-2.976200	3.248200	-9.666300	27.304683	0.000445	20.756117
1892.496056	-3.003600	3.247600	-9.752100	27.341699	0.000446	20.731237
1893.496312	-2.989300	3.247700	-9.706900	27.350503	0.000444	20.753371
1894.497866	-3.004300	3.245800	-9.750500	27.351622	0.000442	20.744539
1895.497108	-2.950500	3.246100	-9.576100	27.358421	0.000442	20.766078
1896.497345	-2.975000	3.246300	-9.655900	27.326763	0.000440	20.760310
1897.501044	-2.981100	3.246600	-9.677100	27.321951	0.000441	20.756892
1898.495692	-2.979100	3.244200	-9.663400	27.276179	0.000441	20.762532
1899.496814	-2.995800	3.245000	-9.719000	27.304392	0.000439	20.768626
1900.514302	-3.027100	3.243600	-9.817700	27.329349	0.000438	20.742522
1901.498576	-3.001100	3.243600	-9.732600	27.358028	0.000438	20.761889
1902.501736	-3.002200	3.241800	-9.730500	27.374082	0.000438	20.762866
1903.498300	-3.025000	3.240500	-9.801000	27.340092	0.000436	20.749536
1904.498534	-3.007000	3.243300	-9.752300	27.351929	0.000436	20.761918
1905.497975	-3.025000	3.242000	-9.806100	27.337567	0.000435	20.763592
1906.501329	-2.990600	3.242500	-9.694500	27.316085	0.000437	20.744353
1907.500404	-2.979900	3.241300	-9.657300	27.290312	0.000434	20.749721
1908.499109	-2.981700	3.242200	-9.666000	27.274408	0.000432	20.742258
1909.499942	-3.016000	3.239000	-9.766900	27.321475	0.000433	20.741239
1910.500117	-2.970800	3.240600	-9.626500	27.347129	0.000432	20.773211
1911.502748	-2.998800	3.239900	-9.714700	27.387811	0.000430	20.745383
1912.503515	-2.989500	3.239900	-9.684800	27.386795	0.000428	20.753370
1913.502728	-3.001900	3.238200	-9.719400	27.346686	0.000429	20.719658
1914.501610	-3.019000	3.238400	-9.776000	27.321438	0.000429	20.740728
1915.504947	-3.005800	3.239300	-9.734700	27.290824	0.000427	20.727950
1916.506159	-3.010100	3.237300	-9.742600	27.317400	0.000427	20.741408
1917.505177	-2.988700	3.236500	-9.671900	27.334095	0.000427	20.749193
1918.506353	-2.991900	3.235500	-9.678700	27.370220	0.000425	20.737169
1919.503128	-3.022700	3.233500	-9.773000	27.423553	0.000427	20.729182
1920.506320	-2.995700	3.234900	-9.689900	27.415193	0.000426	20.745902
1921.509809	-2.990800	3.237200	-9.679700	27.435143	0.000424	20.760758
1922.507138	-3.002200	3.235000	-9.712000	27.424180	0.000423	20.742616
1923.509297	-3.009900	3.234400	-9.734400	27.443631	0.000423	20.706706
1924.505974	-3.005300	3.232700	-9.713600	27.463057	0.000423	20.739527
1925.506151	-3.014800	3.233100	-9.746100	27.404942	0.000423	20.735589
1926.505689	-3.011200	3.233900	-9.736000	27.390057	0.000421	20.737210
1927.506588	-3.009800	3.233200	-9.730800	27.387675	0.000419	20.729598
1928.504998	-2.985600	3.232500	-9.649600	27.396561	0.000420	20.728106
1929.506239	-2.976900	3.233700	-9.625200	27.432532	0.000420	20.741535
1930.505182	-2.994600	3.232200	-9.678200	27.445209	0.000419	20.715406
1931.505961	-3.023600	3.231000	-9.768000	27.475724	0.000418	20.733779
1932.509202	-2.988500	3.232000	-9.657200	27.503304	0.000417	20.731182
1933.507160	-2.988700	3.230900	-9.655600	27.491600	0.000418	20.732208
1934.511609	-3.000300	3.231500	-9.693100	27.481531	0.000418	20.726345
1935.507170	-3.003800	3.228900	-9.696500	27.460101	0.000417	20.730864
1936.509223	-2.994200	3.228700	-9.665400	27.462064	0.000416	20.735684
1937.514153	-3.003000	3.228500	-9.693700	27.409204	0.000414	20.734661
1938.509718	-3.038400	3.227800	-9.806300	27.424663	0.000415	20.719393
1939.511770	-3.013700	3.226000	-9.721400	27.474941	0.000413	20.736785
1940.510389	-2.985200	3.228400	-9.636200	27.497313	0.000413	20.739378
1941.509102	-2.967400	3.227500	-9.574700	27.534347	0.000410	20.720688
1942.513252	-2.992200	3.226700	-9.653800	27.582234	0.000412	20.728093
1943.511566	-2.997100	3.225900	-9.667900	27.582931	0.000410	20.710775
1944.513525	-2.991600	3.227400	-9.653900	27.547861	0.000408	20.736657
1945.515819	-2.983700	3.225200	-9.622200	27.543473	0.000407	20.725128
1946.511134	-2.995900	3.225600	-9.662200	27.523352	0.000407	20.731437
1947.514185	-2.998200	3.225900	-9.671300	27.459852	0.000406	20.721603
1948.512981	-2.996400	3.225500	-9.663800	27.429889	0.000405	20.725124
1949.510118	-2.983500	3.224800	-9.620400	27.451667	0.000407	20.738500
1950.516162	-3.011300	3.223900	-9.705100	27.428028	0.000404	20.715665
1951.511817	-3.003000	3.224300	-9.680600	27.399975	0.000402	20.741972
1952.509738	-3.018700	3.224500	-9.732700	27.388987	0.000404	20.726176
1953.518949	-3.015200	3.221900	-9.712400	27.442122	0.000403	20.737432
1954.511584	-3.023600	3.221000	-9.737600	27.462786	0.000401	20.731194
1955.513050	-2.987100	3.221800	-9.622800	27.484039	0.000400	20.716539
1956.513438	-3.005600	3.220100	-9.677100	27.506242	0.000398	20.732715
1957.512300	-3.028500	3.218900	-9.747700	27.498304	0.000400	20.727099
1958.516168	-2.980600	3.220600	-9.598700	27.447409	0.000396	20.727578
1959.512594	-3.000000	3.218900	-9.656100	27.437688	0.000398	20.727755
1960.516114	-3.014200	3.219500	-9.703600	27.450139	0.000395	20.731746
1961.525623	-2.992900	3.220200	-9.636000	27.395073	0.000395	20.713331
1962.514034	-3.007000	3.217600	-9.673800	27.349304	0.000395	20.722291
1963.514021	-2.999000	3.217200	-9.647800	27.315985	0.000393	20.734769
1964.515960	-3.019800	3.217700	-9.716100	27.282674	0.000393	20.735874
1965.515102	-2.993200	3.216800	-9.627300	27.244963	0.000391	20.732080
1966.515075	-3.005500	3.218400	-9.671900	27.245459	0.000391	20.732579
1967.513038	-2.989800	3.217100	-9.617700	27.258806	0.000391	20.729408
1968.514917	-2.993000	3.217000	-9.626300	27.313616	0.000388	20.743765
1969.519165	-2.998100	3.216100	-9.640700	27.360801	0.000387	20.724374
1970.514441	-2.995300	3.214300	-9.627100	27.409052	0.000388	20.735457
1971.515214	-2.995700	3.215700	-9.630700	27.406327	0.000388	20.715170
1972.517109	-2.988300	3.215400	-9.607200	27.443610	0.000387	20.737032
1973.516569	-2.998400	3.214800	-9.637700	27.428409	0.000386	20.732645
1974.517272	-3.010800	3.214000	-9.675600	27.425307	0.000387	20.724308
1975.520328	-2.991900	3.212600	-9.610600	27.454306	0.000384	20.736888
1976.517509	-2.989500	3.212600	-9.603300	27.492210	0.000386	20.724287
1977.517936	-3.017500	3.210500	-9.687600	27.505656	0.000385	20.740186
1978.519702	-3.013100	3.211900	-9.677100	27.572350	0.000385	20.730950
1979.518703	-2.992700	3.210600	-9.607300	27.607992	0.000384	20.729829
1980.523333	-3.001000	3.209000	-9.628700	27.576247	0.000383	20.718275
1981.521016	-3.006600	3.210600	-9.652300	27.568137	0.000384	20.743308
1982.522200	-3.010900	3.210300	-9.664400	27.560843	0.000383	20.719372
1983.520512	-2.994600	3.208300	-9.605700	27.562708	0.000380	20.725990
1984.517886	-3.001300	3.208100	-9.627900	27.608369	0.000381	20.739692
1985.521916	-2.985600	3.209400	-9.580200	27.569723	0.000378	20.753913
1986.519827	-3.005200	3.207200	-9.636900	27.596142	0.000378	20.745406
1987.521000	-3.014400	3.208600	-9.670800	27.543804	0.000378	20.752016
1988.521395	-3.016800	3.208600	-9.678300	27.563200	0.000377	20.743081
1989.519712	-3.005900	3.208000	-9.639900	27.563130	0.000376	20.749175
1990.522488	-2.996500	3.206900	-9.608700	27.568264	0.000376	20.734426
1991.524117	-3.019400	3.206300	-9.680500	27.598149	0.000376	20.743633
1992.524229	-3.024200	3.205400	-9.693400	27.635081	0.000372	20.750923
1993.522197	-3.003700	3.204000	-9.622300	27.674020	0.000374	20.745534
1994.524427	-2.976300	3.206100	-9.541000	27.704820	0.000372	20.751398
1995.522425	-2.985300	3.205600	-9.568000	27.682751	0.000370	20.741992
1996.526503	-2.980100	3.203100	-9.544700	27.701030	0.000368	20.750903
1997.523834	-2.999200	3.204100	-9.609200	27.724073	0.000370	20.748012
1998.524504	-2.986200	3.202300	-9.562200	27.725879	0.000368	20.752202
1999.524192	-2.954000	3.205000	-9.466000	27.726949	0.000367	20.746639
2000.523979	-2.978700	3.204000	-9.542100	27.718000	0.000367	20.764188
2001.526291	-3.007600	3.202000	-9.628500	27.744636	0.000366	20.762543
2002.522948	-2.999300	3.200800	-9.599300	27.763012	0.000362	20.751637
2003.526584	-2.999100	3.201400	-9.600200	27.783423	0.000364	20.739461
2004.522790	-3.000200	3.200600	-9.601800	27.789401	0.000363	20.754486
2005.529666	-2.992700	3.199400	-9.573800	27.771575	0.000361	20.749823
2006.525169	-2.994700	3.200400	-9.583200	27.789360	0.000360	20.759186
2007.523669	-2.993600	3.198100	-9.573400	27.765650	0.000361	20.754292
2008.525763	-3.003200	3.198100	-9.604200	27.773340	0.000359	20.737849
2009.524822	-3.005000	3.198400	-9.610200	27.812278	0.000358	20.740525
2010.526341	-2.982700	3.198100	-9.537500	27.822815	0.000357	20.762984
2011.525536	-3.021900	3.197300	-9.661600	27.847293	0.000356	20.738781
2012.542591	-3.031800	3.194900	-9.685000	27.875786	0.000355	20.745172
2013.526730	-3.000500	3.196800	-9.591500	27.871398	0.000354	20.750239
2014.533689	-3.026700	3.195000	-9.668600	27.847969	0.000355	20.752264
2015.528571	-2.990900	3.195700	-9.556100	27.815191	0.000353	20.755785
2016.529022	-3.012500	3.194900	-9.623400	27.794436	0.000350	20.741061
2017.528802	-2.993600	3.194900	-9.563300	27.773959	0.000351	20.756964
2018.527518	-3.009300	3.193200	-9.608600	27.754371	0.000350	20.753847
2019.531508	-3.010000	3.192900	-9.609500	27.745075	0.000351	20.757768
2020.534394	-3.001800	3.191400	-9.577500	27.776024	0.000351	20.763784
2021.531769	-2.994100	3.191600	-9.554800	27.781928	0.000350	20.760242
2022.533128	-3.020000	3.190400	-9.633900	27.761795	0.000347	20.746145
2023.535235	-2.993100	3.190800	-9.549000	27.760784	0.000346	20.754610
2024.531641	-2.991300	3.190800	-9.542400	27.754585	0.000347	20.764019
2025.535342	-2.995000	3.192200	-9.559000	27.763467	0.000345	20.772010
2026.532676	-3.009600	3.189300	-9.597400	27.787746	0.000344	20.769417
2027.534525	-3.008300	3.189700	-9.594300	27.813561	0.000344	20.751774
2028.535328	-2.990700	3.189500	-9.537900	27.838363	0.000344	20.771520
2029.533609	-2.987800	3.188200	-9.524200	27.878359	0.000344	20.752978
2030.531374	-2.988800	3.189600	-9.531700	27.858474	0.000343	20.750034
2031.534896	-2.996100	3.188300	-9.550900	27.842464	0.000342	20.767112
2032.532170	-2.979700	3.188600	-9.499200	27.836639	0.000340	20.742282
2033.539164	-2.972500	3.187300	-9.473300	27.835897	0.000341	20.760029
2034.535007	-2.970300	3.187900	-9.466900	27.852264	0.000340	20.750896
2035.538838	-3.013800	3.185100	-9.597900	27.868306	0.000340	20.746179
2036.533753	-2.964200	3.186600	-9.445100	27.849638	0.000338	20.780970
2037.538462	-3.003600	3.184300	-9.563300	27.840072	0.000338	20.762808
2038.540638	-3.018100	3.183200	-9.606200	27.856787	0.000337	20.764932
2039.535113	-3.005000	3.185000	-9.569600	27.866680	0.000335	20.743594
2040.535704	-2.990900	3.183100	-9.519800	27.863559	0.000334	20.769376
2041.538422	-3.014400	3.181600	-9.589800	27.887438	0.000334	20.754529
2042.536015	-3.013900	3.182700	-9.591100	27.872170	0.000332	20.768086
2043.536043	-2.991200	3.185200	-9.526200	27.887991	0.000332	20.757457
2044.537889	-2.989900	3.180900	-9.510000	27.914455	0.000332	20.762281
2045.537766	-2.997200	3.179900	-9.530200	27.948713	0.000331	20.771632
2046.536907	-3.022900	3.178400	-9.606900	27.925040	0.000331	20.757762
2047.539738	-3.003300	3.179200	-9.546200	27.965852	0.000330	20.778452
2048.538702	-2.971000	3.181700	-9.451700	27.965582	0.000329	20.774861
2049.541646	-3.002300	3.179500	-9.544600	27.991638	0.000326	20.779751
2050.539323	-3.006000	3.178800	-9.555100	28.035725	0.000327	20.771971
2051.538846	-3.040600	3.177200	-9.659400	28.051224	0.000327	20.764339
2052.539417	-3.018300	3.176500	-9.586000	28.036917	0.000324	20.763687
2053.538175	-3.017000	3.176500	-9.582400	27.993290	0.000325	20.774775
2054.539812	-3.013500	3.175500	-9.568400	27.986965	0.000323	20.775521
2055.536760	-2.993200	3.177000	-9.507100	27.988210	0.000325	20.769662
2056.541550	-3.017800	3.175500	-9.581500	28.016257	0.000322	20.758538
2057.538913	-2.995800	3.175200	-9.509700	28.051462	0.000321	20.765527
2058.539095	-3.020000	3.173200	-9.581700	28.001531	0.000321	20.779752
2059.540078	-3.023000	3.172900	-9.589700	27.995260	0.000320	20.776284
2060.545990	-3.020700	3.173400	-9.585500	28.000614	0.000321	20.782147
2061.542859	-2.999800	3.173400	-9.518500	27.995584	0.000320	20.774713
2062.539749	-3.025000	3.170500	-9.589500	28.033940	0.000319	20.766381
2063.540771	-2.962400	3.172500	-9.397400	28.052384	0.000321	20.778783
2064.541940	-2.985000	3.171200	-9.464000	28.057000	0.000319	20.779163
2065.546021	-2.992500	3.171300	-9.489400	27.935791	0.000316	20.783282
2066.543009	-2.990700	3.170100	-9.479600	27.885977	0.000316	20.778189
2067.545726	-3.002400	3.170100	-9.516700	27.879038	0.000315	20.789223
2068.546908	-3.011600	3.168800	-9.541700	27.906137	0.000315	20.793738
2069.543552	-2.994400	3.169200	-9.487900	27.909139	0.000316	20.776371
2070.545642	-2.971000	3.170300	-9.418100	27.981383	0.000312	20.781282
2071.546662	-2.979200	3.169200	-9.440900	27.990685	0.000313	20.770731
2072.545343	-3.010000	3.168000	-9.534800	28.027030	0.000312	20.770805
2073.545947	-3.009500	3.167900	-9.532000	28.029410	0.000312	20.770830
2074.546505	-3.009400	3.166900	-9.528800	28.054694	0.000311	20.781583
2075.545831	-3.004800	3.166300	-9.513600	28.087273	0.000309	20.792567
2076.548424	-3.010500	3.165000	-9.526600	28.090918	0.000308	20.799556
2077.549071	-3.003100	3.164100	-9.501200	28.026334	0.000309	20.767733
2078.552418	-2.979500	3.164100	-9.426100	27.940031	0.000307	20.790868
2079.547768	-3.003900	3.162800	-9.499700	27.852053	0.000308	20.806635
2080.551467	-3.000300	3.163900	-9.490800	27.799044	0.000305	20.808288
2081.551429	-3.010700	3.163000	-9.521700	27.767104	0.000306	20.787524
2082.547498	-2.977900	3.164800	-9.423800	27.796336	0.000304	20.791338
2083.550742	-2.979400	3.160600	-9.415300	27.792489	0.000306	20.788415
2084.550482	-3.000800	3.161300	-9.485500	27.822872	0.000305	20.790542
2085.549603	-3.018700	3.160100	-9.538800	27.806230	0.000305	20.795605
2086.548930	-2.998600	3.159700	-9.474000	27.858374	0.000303	20.793082
2087.551223	-3.001300	3.160700	-9.485100	27.893138	0.000302	20.802466
2088.548689	-2.984700	3.159300	-9.428300	27.951132	0.000301	20.823378
2089.550204	-2.984700	3.158400	-9.425700	27.987179	0.000302	20.821729
2090.549046	-2.995700	3.156500	-9.455100	28.003641	0.000302	20.804635
2091.548007	-2.976900	3.158200	-9.400100	28.030859	0.000301	20.805954
2092.558371	-3.004900	3.157600	-9.485400	28.064176	0.000302	20.830956
2093.550074	-3.014800	3.156700	-9.515400	28.059711	0.000299	20.809392
2094.554190	-2.994700	3.155800	-9.449100	28.046547	0.000299	20.800882
2095.549045	-3.010400	3.155000	-9.497100	28.076066	0.000299	20.798355
2096.551912	-3.018300	3.153500	-9.516100	28.067293	0.000299	20.812757
2097.552956	-3.012400	3.152300	-9.494400	28.081296	0.000297	20.818792
2098.552718	-3.004900	3.153000	-9.473900	28.114906	0.000297	20.817539
2099.554630	-3.008700	3.152600	-9.483100	28.119690	0.000296	20.803863
2100.551786	-2.997200	3.152800	-9.447300	28.149628	0.000296	20.810295
2101.555239	-2.998100	3.151300	-9.447100	28.159789	0.000293	20.825265
2102.553301	-2.996000	3.149800	-9.435600	28.134081	0.000292	20.809816
2103.556962	-3.013400	3.150400	-9.491900	28.099841	0.000292	20.818021
2104.555040	-3.003200	3.149700	-9.458100	28.089254	0.000290	20.829647
2105.555110	-3.005500	3.146800	-9.456100	28.098473	0.000290	20.809531
2106.553551	-2.987500	3.148900	-9.406100	28.109769	0.000291	20.835601
2107.551376	-3.010000	3.147400	-9.472400	28.143431	0.000290	20.815909
2108.555712	-2.998500	3.147300	-9.436100	28.121040	0.000287	20.822766
2109.553719	-3.011400	3.146800	-9.475300	28.153318	0.000288	20.834397
2110.552632	-3.034800	3.144900	-9.542700	28.136333	0.000286	20.817773
2111.552546	-3.007600	3.144700	-9.457600	28.135584	0.000285	20.834561
2112.552793	-3.015400	3.144800	-9.481700	28.145446	0.000284	20.834532
2113.559788	-3.007500	3.143200	-9.451900	28.178415	0.000284	20.844963
2114.557129	-2.987100	3.146600	-9.397700	28.177694	0.000283	20.820531
2115.555903	-2.987900	3.143900	-9.392100	28.179197	0.000283	20.835320
2116.555160	-3.016200	3.141200	-9.471900	28.151884	0.000284	20.832953
2117.555171	-3.015300	3.140800	-9.469900	28.128158	0.000284	20.852689
2118.556265	-3.033600	3.140600	-9.526700	28.095453	0.000283	20.826880
2119.555948	-3.008900	3.140600	-9.449200	28.030275	0.000281	20.838082
2120.554910	-2.998500	3.142300	-9.421300	28.019634	0.000282	20.868146
2121.555338	-3.007100	3.139600	-9.439900	28.009967	0.000280	20.834235
2122.552654	-2.993200	3.140100	-9.398800	28.009664	0.000280	20.846257
2123.554918	-3.009400	3.137900	-9.442400	27.972868	0.000281	20.841462
2124.557669	-2.995900	3.136700	-9.395200	27.968747	0.000280	20.857702
2125.558816	-2.995800	3.136900	-9.395900	27.977771	0.000280	20.827432
2126.559840	-2.992200	3.137200	-9.385600	28.004568	0.000278	20.852507
2127.557683	-2.999500	3.136100	-9.405700	28.060663	0.000276	20.851126
2128.560097	-2.981600	3.135500	-9.347600	28.065050	0.000275	20.857438
2129.558316	-3.013400	3.134800	-9.444200	28.042456	0.000274	20.838964
2130.559066	-2.980300	3.135000	-9.342900	27.993045	0.000275	20.847547
2131.558378	-2.977600	3.133200	-9.328700	27.940429	0.000273	20.850062
2132.561524	-3.017600	3.132100	-9.449500	27.900160	0.000274	20.857896
2133.559309	-3.024500	3.131300	-9.469800	27.881238	0.000272	20.857818
2134.560245	-3.014300	3.131700	-9.439000	27.864819	0.000272	20.852198
2135.561630	-3.001400	3.130500	-9.395000	27.814453	0.000270	20.865993
2136.561562	-3.013600	3.130300	-9.432200	27.808025	0.000270	20.877541
2137.563195	-3.027900	3.127000	-9.467800	27.829722	0.000269	20.877092
2138.561730	-2.998800	3.128900	-9.381700	27.892848	0.000269	20.862864
2139.561417	-2.973600	3.127600	-9.299500	27.942456	0.000270	20.845465
2140.561867	-2.982700	3.127800	-9.328400	27.985938	0.000271	20.865997
2141.565051	-3.007100	3.125700	-9.398600	27.986237	0.000268	20.879574
2142.563033	-2.982800	3.125500	-9.320700	28.005223	0.000267	20.849848
2143.563081	-2.973700	3.126300	-9.295700	28.035468	0.000266	20.876498
2144.561070	-2.995500	3.123700	-9.356200	28.070243	0.000268	20.887795
2145.564733	-3.030700	3.122400	-9.462000	28.111689	0.000268	20.864084
2146.570224	-3.013200	3.122200	-9.406800	28.092025	0.000267	20.860885
2147.561953	-2.992100	3.123900	-9.344900	28.110742	0.000266	20.878304
2148.562646	-2.989000	3.122900	-9.332500	28.135378	0.000264	20.883190
2149.563885	-2.993400	3.120700	-9.339700	28.182964	0.000265	20.875620
2150.563645	-2.995100	3.120200	-9.344200	28.189480	0.000263	20.864637
2151.564418	-2.996400	3.119800	-9.347100	28.264166	0.000260	20.869180
2152.563359	-3.003700	3.118800	-9.367200	28.280591	0.000260	20.868649
2153.565552	-2.993400	3.119400	-9.337400	28.253097	0.000258	20.882217
2154.565031	-3.006500	3.118400	-9.373800	28.187732	0.000259	20.892272
2155.565410	-3.009900	3.115700	-9.376200	28.167914	0.000260	20.883227
2156.567687	-3.009200	3.115800	-9.374800	28.161271	0.000258	20.907358
2157.566372	-3.009200	3.114500	-9.371100	28.176961	0.000259	20.881904
2158.567949	-2.958100	3.116200	-9.216900	28.235504	0.000257	20.882523
2159.567153	-2.981600	3.114800	-9.285900	28.238277	0.000256	20.872987
2160.567096	-3.010200	3.112900	-9.369100	28.260555	0.000254	20.881665
2161.567957	-2.961800	3.113200	-9.218800	28.290199	0.000256	20.902502
2162.569586	-2.998200	3.110600	-9.325000	28.287001	0.000255	20.890274
2163.568308	-2.980000	3.111600	-9.270900	28.308979	0.000255	20.899599
2164.569188	-2.998600	3.110200	-9.325200	28.321964	0.000254	20.909828
2165.569941	-3.000000	3.109500	-9.327800	28.345784	0.000254	20.883080
2166.572540	-2.997400	3.109500	-9.319300	28.374725	0.000252	20.911271
2167.574411	-2.994000	3.108600	-9.306400	28.421240	0.000252	20.886040
2168.574755	-2.981600	3.108400	-9.266400	28.430731	0.000252	20.893226
2169.574322	-2.976700	3.106700	-9.245500	28.462304	0.000250	20.917430
2170.573170	-2.996400	3.105800	-9.304000	28.476703	0.000248	20.894475
2171.570900	-2.981100	3.104900	-9.254500	28.468253	0.000248	20.891655
2172.588086	-2.993400	3.105100	-9.293800	28.463867	0.000247	20.886766
2173.574910	-2.991500	3.104000	-9.285000	28.477915	0.000248	20.905652
2174.573848	-3.014500	3.103000	-9.352000	28.447162	0.000248	20.887013
2175.575236	-2.988700	3.102500	-9.270200	28.379631	0.000246	20.903409
2176.574392	-3.016800	3.101900	-9.356900	28.388778	0.000248	20.893655
2177.575302	-3.000200	3.101800	-9.304600	28.404068	0.000246	20.893877
2178.577398	-2.999100	3.100100	-9.296500	28.425728	0.000244	20.882498
2179.578116	-3.022800	3.100500	-9.370900	28.445758	0.000244	20.914519
2180.575425	-2.989900	3.099100	-9.265400	28.484736	0.000243	20.879332
2181.580927	-2.986100	3.097700	-9.248700	28.491377	0.000243	20.903561
2182.575663	-2.993800	3.097200	-9.271800	28.501265	0.000241	20.896924
2183.581281	-3.010400	3.095800	-9.318400	28.527930	0.000242	20.871622
2184.580163	-2.985800	3.095500	-9.241600	28.613497	0.000242	20.899476
2185.585733	-2.997300	3.095000	-9.273800	28.612977	0.000242	20.884729
2186.583692	-3.002500	3.092400	-9.283900	28.628341	0.000243	20.895460
2187.579019	-3.000200	3.092400	-9.276600	28.631862	0.000242	20.898531
2188.582036	-2.965700	3.094000	-9.174000	28.669376	0.000239	20.883211
2189.580402	-2.997800	3.092300	-9.268200	28.647548	0.000240	20.883512
2190.580927	-2.994100	3.091100	-9.253300	28.586621	0.000239	20.860556
2191.577563	-2.992900	3.088800	-9.243600	28.583550	0.000238	20.868369
2192.578418	-2.989000	3.089100	-9.231500	28.588111	0.000240	20.855893
2193.582214	-3.028400	3.087400	-9.348000	28.619109	0.000238	20.881896
2194.583953	-2.983800	3.088700	-9.214300	28.637519	0.000238	20.878152
2195.578477	-3.027500	3.085600	-9.340000	28.628852	0.000237	20.869898
2196.581406	-2.997900	3.085500	-9.249100	28.646173	0.000237	20.862688
2197.580542	-2.969400	3.086100	-9.163300	28.694935	0.000237	20.869602
2198.581315	-2.986400	3.084700	-9.209800	28.678831	0.000236	20.859072
2199.583245	-3.002500	3.084500	-9.259500	28.667586	0.000236	20.859125
2200.583097	-3.007500	3.083000	-9.271000	28.582129	0.000238	20.860300
2201.581454	-3.013700	3.082000	-9.287500	28.556534	0.000236	20.870084
2202.580923	-2.994900	3.081900	-9.229100	28.501329	0.000233	20.849102
2203.581686	-3.007000	3.080600	-9.262300	28.497685	0.000237	20.865821
2204.582117	-2.985000	3.079500	-9.191700	28.526926	0.000234	20.866818
2205.586819	-3.018700	3.077600	-9.288600	28.517759	0.000233	20.847156
2206.580850	-2.968300	3.078200	-9.135900	28.452586	0.000235	20.860708
2207.582356	-3.014500	3.076800	-9.273300	28.419994	0.000234	20.855864
2208.583830	-2.981200	3.077400	-9.172100	28.412735	0.000233	20.863726
2209.583487	-2.992100	3.075600	-9.201500	28.448353	0.000231	20.852652
2210.585441	-2.996000	3.073600	-9.207800	28.479846	0.000231	20.861133
2211.582461	-3.003800	3.073200	-9.230400	28.508396	0.000230	20.854796
2212.586878	-3.039500	3.070700	-9.332300	28.543363	0.000233	20.850182
2213.581754	-2.988500	3.071500	-9.177700	28.605390	0.000229	20.850063
2214.587847	-2.983900	3.070000	-9.159400	28.628385	0.000230	20.832920
2215.588168	-3.003200	3.068900	-9.214900	28.660496	0.000230	20.840131
2216.589550	-3.023400	3.067700	-9.273700	28.631459	0.000230	20.843602
2217.587038	-2.997500	3.068400	-9.196600	28.623067	0.000231	20.843685
2218.590314	-2.985500	3.065900	-9.152400	28.555498	0.000229	20.846282
2219.591209	-2.961800	3.067100	-9.082600	28.535724	0.000228	20.863825
2220.590853	-3.020600	3.063900	-9.253800	28.530921	0.000228	20.835756
2221.593314	-3.034500	3.062700	-9.293400	28.495609	0.000230	20.851403
2222.595606	-3.011900	3.062500	-9.222600	28.465004	0.000227	20.823903
2223.595067	-3.031700	3.061700	-9.279100	28.496456	0.000228	20.808161
2224.595226	-3.002700	3.059700	-9.186000	28.510729	0.000226	20.824904
2225.595668	-3.006400	3.060400	-9.199800	28.510115	0.000230	20.835191
2226.598970	-2.978400	3.059600	-9.111700	28.520915	0.000226	20.824257
2227.596807	-3.004700	3.058400	-9.188100	28.566588	0.000227	20.827106
2228.598596	-2.976600	3.058800	-9.102800	28.591594	0.000227	20.821470
2229.597331	-2.994800	3.055500	-9.149200	28.614961	0.000224	20.832676
2230.598931	-3.004500	3.054800	-9.176100	28.596551	0.000227	20.837842
2231.599300	-3.016500	3.052000	-9.204000	28.595884	0.000225	20.830532
2232.599974	-2.980300	3.052900	-9.097100	28.628397	0.000226	20.815863
2233.597933	-2.975900	3.052600	-9.082000	28.624807	0.000225	20.830738
2234.600436	-3.002400	3.051300	-9.159800	28.635238	0.000225	20.818011
2235.599791	-3.002500	3.048800	-9.152700	28.600007	0.000222	20.826149
2236.602946	-3.013100	3.048200	-9.184200	28.554863	0.000223	20.813875
2237.598221	-3.003700	3.047700	-9.152500	28.476509	0.000221	20.827902
2238.603821	-2.979600	3.046800	-9.077000	28.479756	0.000222	20.821688
2239.598531	-2.992500	3.045900	-9.114400	28.470196	0.000222	20.813009
2240.600201	-3.014600	3.042900	-9.171600	28.490716	0.000222	20.797165
2241.601415	-3.014700	3.044500	-9.177300	28.531232	0.000222	20.801457
2242.598368	-2.993000	3.041500	-9.102700	28.595466	0.000223	20.827267
2243.601863	-3.016200	3.041500	-9.172900	28.530663	0.000221	20.807048
2244.614054	-3.007200	3.040800	-9.143800	28.459947	0.000220	20.813595
2245.602075	-3.020400	3.038000	-9.174900	28.427732	0.000220	20.847061
2246.598947	-3.001900	3.037000	-9.115500	28.432638	0.000221	20.819285
2247.602473	-3.030500	3.035900	-9.198800	28.454252	0.000220	20.803592
2248.610240	-3.025100	3.034600	-9.179300	28.498937	0.000221	20.805918
2249.598872	-3.025900	3.034700	-9.181300	28.511998	0.000220	20.830924
2250.599487	-3.003700	3.033700	-9.110800	28.567231	0.000221	20.811158
2251.599863	-2.972300	3.034700	-9.019600	28.598926	0.000221	20.818423
2252.605554	-2.972500	3.032100	-9.011400	28.642115	0.000222	20.793169
2253.601254	-2.989600	3.030100	-9.057200	28.629257	0.000219	20.796340
2254.605091	-3.005200	3.029100	-9.100200	28.626461	0.000219	20.824818
2255.601909	-2.992800	3.029200	-9.064700	28.613328	0.000221	20.828660
2256.602481	-3.004100	3.026700	-9.091400	28.628819	0.000219	20.805856
2257.608228	-2.980300	3.025500	-9.015600	28.648419	0.000218	20.808054
2258.604810	-2.995200	3.025400	-9.061100	28.695078	0.000218	20.810952
2259.603806	-3.004300	3.023300	-9.082400	28.667176	0.000218	20.804186
2260.608091	-3.005900	3.022200	-9.082500	28.650753	0.000218	20.800921
2261.605047	-2.991800	3.020700	-9.037000	28.598643	0.000217	20.785422
2262.606320	-3.004200	3.019500	-9.069000	28.556349	0.000218	20.803993
2263.606094	-2.998000	3.018900	-9.049400	28.522278	0.000218	20.792440
2264.604699	-2.997000	3.017700	-9.043400	28.567927	0.000217	20.800480
2265.609472	-3.005900	3.016600	-9.066800	28.571943	0.000217	20.799783
2266.608027	-3.026700	3.014600	-9.121900	28.636490	0.000217	20.805048
2267.608839	-2.995700	3.015100	-9.031400	28.670664	0.000216	20.817182
2268.609104	-3.003100	3.012900	-9.046600	28.698758	0.000218	20.819400
2269.608499	-3.013500	3.010700	-9.072000	28.707808	0.000218	20.804335
2270.606654	-3.007100	3.009600	-9.049200	28.734685	0.000218	20.794897
2271.609645	-3.001500	3.009500	-9.032400	28.769867	0.000216	20.786239
2272.608853	-3.025100	3.006400	-9.093200	28.760182	0.000218	20.785018
2273.612247	-2.993500	3.006200	-8.998700	28.786002	0.000216	20.810553
2274.606522	-3.004000	3.005600	-9.027800	28.807159	0.000216	20.803890
2275.607665	-2.989800	3.004900	-8.982700	28.828463	0.000218	20.794530
2276.609929	-3.001700	3.001700	-9.009100	28.814985	0.000217	20.793281
2277.608577	-2.985700	3.002800	-8.963700	28.763928	0.000220	20.793533
2278.614750	-3.005500	3.000300	-9.015900	28.722303	0.000220	20.788589
2279.608026	-3.014200	2.998800	-9.038100	28.694304	0.000220	20.775086
2280.611656	-2.966700	3.000300	-8.900300	28.696187	0.000219	20.792630
2281.608218	-2.999000	2.996100	-8.983400	28.710457	0.000217	20.788036
2282.609288	-2.993500	2.994800	-8.963800	28.681712	0.000217	20.806025
2283.611301	-2.992300	2.994100	-8.957900	28.659235	0.000219	20.806145
2284.608783	-2.990300	2.992000	-8.945900	28.655690	0.000218	20.778392
2285.612316	-2.998800	2.991600	-8.969500	28.692204	0.000218	20.795730
2286.611123	-3.005600	2.988200	-8.979000	28.717947	0.000219	20.782305
2287.611495	-2.962900	2.990400	-8.859100	28.742544	0.000218	20.799968
2288.611945	-2.988400	2.987800	-8.927900	28.815455	0.000220	20.789962
2289.613034	-3.002900	2.986500	-8.967300	28.849856	0.000220	20.794744
2290.609102	-2.982300	2.985300	-8.902100	28.795821	0.000219	20.778718
2291.610730	-2.981500	2.983200	-8.893500	28.766682	0.000219	20.790143
2292.611594	-2.986400	2.983000	-8.907600	28.735958	0.000221	20.804240
2293.609826	-3.019000	2.981200	-8.998500	28.717591	0.000220	20.784317
2294.618422	-2.992800	2.978500	-8.913000	28.767709	0.000221	20.785962
2295.611924	-3.007200	2.977000	-8.951500	28.808505	0.000219	20.773003
2296.613622	-3.011800	2.976100	-8.963300	28.810433	0.000219	20.796282
2297.613576	-3.001700	2.974600	-8.927700	28.819446	0.000218	20.786395
2298.611334	-3.002800	2.972200	-8.923500	28.812353	0.000220	20.777353
2299.611949	-2.966200	2.973000	-8.817400	28.753363	0.000219	20.792848
2300.613367	-3.004300	2.970700	-8.924400	28.762622	0.000219	20.779415
2301.612320	-2.987800	2.969900	-8.872500	28.788601	0.000218	20.808429
2302.611668	-2.967000	2.968800	-8.807200	28.823547	0.000218	20.814708
2303.620303	-2.995600	2.966700	-8.884300	28.755663	0.000215	20.799433
2304.611364	-3.008800	2.965000	-8.920500	28.689134	0.000217	20.800699
2305.614994	-3.005500	2.963300	-8.905400	28.696515	0.000216	20.797227
2306.613220	-3.016700	2.960700	-8.931300	28.772270	0.000217	20.808100
2307.615147	-3.023100	2.958900	-8.943600	28.789555	0.000215	20.773354
2308.610837	-3.010900	2.957700	-8.904300	28.790967	0.000214	20.789476
2309.610942	-3.008700	2.956300	-8.893500	28.810553	0.000214	20.806360
2310.614233	-2.993700	2.956700	-8.850100	28.834308	0.000214	20.789039
2311.612085	-2.992500	2.954500	-8.840600	28.843444	0.000215	20.773586
2312.612033	-3.043800	2.951900	-8.982900	28.866180	0.000214	20.798386
2313.613857	-3.023600	2.949700	-8.917600	28.896028	0.000214	20.790524
2314.616827	-3.002200	2.949200	-8.851900	28.863594	0.000216	20.783453
2315.615833	-3.018300	2.947200	-8.893800	28.811520	0.000216	20.803067
2316.618909	-2.988700	2.945500	-8.801700	28.800194	0.000216	20.767950
2317.616410	-3.011500	2.943600	-8.863300	28.817504	0.000215	20.784439
2318.619874	-3.008500	2.942100	-8.850300	28.843138	0.000215	20.782287
2319.618447	-2.971200	2.942900	-8.742800	28.871624	0.000217	20.792492
2320.618306	-2.981600	2.939600	-8.763500	28.924105	0.000215	20.778980
2321.619728	-2.981200	2.937700	-8.756300	28.927940	0.000215	20.807026
2322.619033	-2.958600	2.937200	-8.688600	28.987980	0.000215	20.788806
2323.621249	-2.997400	2.935400	-8.798000	29.007043	0.000215	20.781933
2324.620300	-2.991900	2.935100	-8.779700	28.943431	0.000216	20.789916
2325.620780	-2.998300	2.932100	-8.789100	28.868986	0.000215	20.785566
2326.627158	-3.016500	2.929300	-8.835000	28.803205	0.000214	20.781889
2327.620675	-3.005000	2.928400	-8.799000	28.717232	0.000216	20.789645
2328.621417	-3.003600	2.927400	-8.791700	28.647802	0.000217	20.787044
2329.622134	-3.011500	2.924500	-8.806200	28.641502	0.000216	20.791130
2330.621820	-3.010800	2.923700	-8.800300	28.688325	0.000215	20.779969
2331.622826	-2.973300	2.922500	-8.689100	28.696074	0.000213	20.797732
2332.622337	-3.018700	2.919800	-8.813200	28.743067	0.000217	20.788641
2333.620462	-3.012400	2.916900	-8.786000	28.768928	0.000214	20.789560
2334.625503	-2.974800	2.917900	-8.679500	28.814034	0.000213	20.801806
2335.620048	-3.000100	2.913800	-8.740200	28.784348	0.000214	20.772850
2336.622622	-2.988600	2.914500	-8.708300	28.835502	0.000215	20.780759
2337.626279	-2.987600	2.912700	-8.700900	28.867104	0.000215	20.770868
2338.626669	-3.009400	2.909700	-8.755400	28.887634	0.000213	20.777325
2339.622468	-2.995700	2.908000	-8.710100	28.909501	0.000212	20.783708
2340.624355	-2.999400	2.905000	-8.712100	28.911507	0.000213	20.799479
2341.623443	-2.979600	2.905500	-8.656200	28.914524	0.000213	20.785923
2342.627247	-2.998600	2.902700	-8.701800	28.888687	0.000210	20.805887
2343.629187	-3.002600	2.900000	-8.706700	28.946176	0.000212	20.778931
2344.625411	-2.976500	2.900000	-8.630700	28.934975	0.000213	20.777129
2345.628270	-2.997800	2.897200	-8.684100	28.934824	0.000213	20.790727
2346.627826	-3.024200	2.895700	-8.755800	28.945522	0.000214	20.811937
2347.628722	-2.983500	2.894600	-8.635000	28.954759	0.000213	20.789000
2348.634781	-3.018000	2.890500	-8.722800	28.947548	0.000213	20.786951
2349.629187	-2.994300	2.890400	-8.654600	28.978479	0.000211	20.792510
2350.629698	-2.991400	2.886900	-8.634400	29.005677	0.000210	20.780557
2351.629755	-3.002700	2.885900	-8.664700	28.977763	0.000212	20.800323
2352.629392	-3.003700	2.882800	-8.658200	28.963440	0.000211	20.779729
2353.634459	-2.989900	2.881500	-8.613000	28.949967	0.000212	20.782276
2354.636256	-2.979300	2.882800	-8.587800	28.932992	0.000208	20.785563
2355.630375	-3.009800	2.878200	-8.662000	28.952289	0.000209	20.767071
2356.630427	-2.998500	2.877100	-8.626000	28.962818	0.000209	20.766774
2357.636486	-2.997100	2.875300	-8.616600	28.993679	0.000210	20.789806
2358.633499	-2.990300	2.873000	-8.590300	28.991719	0.000211	20.791625
2359.633935	-3.000300	2.871500	-8.613700	29.004724	0.000209	20.783865
2360.633780	-2.996400	2.869500	-8.597000	29.002371	0.000210	20.770114
2361.630620	-3.020800	2.866800	-8.658900	28.998704	0.000210	20.786335
2362.632363	-3.030100	2.865000	-8.680000	29.003807	0.000211	20.781045
2363.634705	-3.001000	2.863200	-8.590400	29.017999	0.000210	20.755040
2364.639261	-3.040900	2.859900	-8.696600	29.009823	0.000209	20.772407
2365.632463	-3.002900	2.858100	-8.581500	29.057210	0.000209	20.774159
2366.634042	-2.991100	2.856700	-8.543300	29.014652	0.000208	20.781540
2367.636388	-2.982900	2.854800	-8.514300	28.979114	0.000211	20.770864
2368.635802	-3.005900	2.852400	-8.573000	28.896580	0.000209	20.761682
2369.634340	-3.017100	2.849900	-8.596700	28.849243	0.000210	20.756668
2370.634073	-2.985900	2.849100	-8.506100	28.845653	0.000211	20.778657
2371.638838	-2.995900	2.846600	-8.527400	28.875625	0.000210	20.763805
2372.648343	-2.988600	2.844200	-8.498800	28.932132	0.000209	20.767627
2373.634741	-3.001300	2.841500	-8.526700	28.974591	0.000211	20.760143
2374.639909	-2.977900	2.839900	-8.455800	29.031634	0.000208	20.759768
2375.640810	-2.974700	2.838900	-8.443300	29.079388	0.000211	20.766633
2376.634637	-2.993100	2.836300	-8.489200	29.103190	0.000209	20.771651
2377.634594	-3.037200	2.832500	-8.601900	29.099454	0.000209	20.769308
2378.634007	-3.003100	2.830800	-8.499900	29.090190	0.000210	20.775621
2379.636034	-3.004200	2.828800	-8.497700	29.090865	0.000208	20.791474
2380.639165	-2.970500	2.827900	-8.398800	29.089478	0.000209	20.774429
2381.634904	-3.005900	2.823600	-8.485800	29.098197	0.000209	20.757136
2382.636913	-3.023100	2.822500	-8.531100	29.110485	0.000208	20.788484
2383.634814	-3.000400	2.818900	-8.457000	29.072516	0.000208	20.758761
2384.635294	-3.013800	2.816800	-8.487200	29.090872	0.000209	20.770618
2385.639113	-2.984700	2.814900	-8.401200	29.098180	0.000209	20.746687
2386.636549	-2.979900	2.813000	-8.381700	29.140359	0.000208	20.761687
2387.635854	-3.013000	2.809500	-8.464400	29.127977	0.000210	20.761539
2388.636515	-2.984800	2.808100	-8.379800	29.124609	0.000209	20.734911
2389.637323	-3.023000	2.803800	-8.474600	29.142199	0.000209	20.768284
2390.636505	-2.997300	2.801900	-8.395700	29.167187	0.000208	20.775920
2391.637931	-3.021400	2.799700	-8.458500	29.138836	0.000210	20.745453
2392.638040	-3.025500	2.797000	-8.461700	29.159638	0.000208	20.765467
2393.636718	-3.027900	2.793600	-8.456700	29.174379	0.000209	20.738596
2394.635613	-2.971700	2.794500	-8.302300	29.212492	0.000210	20.771314
2395.637171	-3.012300	2.788600	-8.398800	29.209575	0.000208	20.757468
2396.639077	-2.988000	2.786900	-8.326500	29.225969	0.000208	20.752177
2397.636907	-3.000400	2.784300	-8.352900	29.221222	0.000208	20.760196
2398.639853	-3.011400	2.782000	-8.376600	29.210597	0.000208	20.778887
2399.639242	-2.991200	2.779400	-8.312300	29.198416	0.000209	20.757129
2400.638713	-3.009700	2.777100	-8.357000	29.187029	0.000209	20.754188
2401.643125	-3.015000	2.772600	-8.357600	29.220121	0.000210	20.763828
2402.639706	-3.001100	2.771300	-8.315400	29.280271	0.000207	20.754270
2403.639756	-2.990900	2.767700	-8.277400	29.262143	0.000207	20.749277
2404.641669	-3.017400	2.765300	-8.342900	29.273762	0.000208	20.752926
2405.640977	-2.997000	2.762900	-8.279400	29.260420	0.000207	20.765085
2406.644091	-2.989200	2.759500	-8.247900	29.226351	0.000208	20.746398
2407.644796	-3.010500	2.756300	-8.296700	29.191929	0.000209	20.760549
2408.646023	-2.987500	2.754700	-8.228200	29.192625	0.000206	20.752241
2409.646023	-2.996900	2.751400	-8.244800	29.199241	0.000208	20.737570
2410.642039	-2.994900	2.748100	-8.229000	29.233596	0.000205	20.757493
2411.644053	-2.971400	2.744300	-8.153700	29.241149	0.000207	20.743767
2412.647814	-3.031200	2.740500	-8.306300	29.291941	0.000207	20.743746
2413.644510	-2.998100	2.738500	-8.209700	29.338006	0.000208	20.745601
2414.643429	-3.010600	2.733700	-8.228600	29.408618	0.000208	20.750388
2415.643608	-3.000800	2.731600	-8.196000	29.443388	0.000208	20.751295
2416.642954	-3.000700	2.727500	-8.183200	29.491148	0.000210	20.753917
2417.645340	-3.001700	2.725900	-8.181000	29.450775	0.000206	20.753051
2418.646433	-3.025500	2.721600	-8.233400	29.401156	0.000208	20.736702
2419.655778	-3.026400	2.716300	-8.219800	29.382837	0.000207	20.758543
2420.645275	-2.989600	2.714500	-8.113500	29.346792	0.000209	20.751137
2421.650495	-2.978900	2.711500	-8.076200	29.358599	0.000210	20.743122
2422.647389	-2.980900	2.707200	-8.068300	29.383021	0.000209	20.766315
2423.646511	-3.005400	2.705500	-8.129500	29.392851	0.000212	20.752040
2424.645226	-3.007900	2.700700	-8.122900	29.369951	0.000210	20.754089
2425.645629	-2.989800	2.698600	-8.067500	29.402714	0.000209	20.763403
2426.647419	-3.029300	2.693100	-8.156200	29.373150	0.000210	20.739769
2427.646438	-3.025500	2.688300	-8.132700	29.384886	0.000209	20.754444
2428.647175	-3.039800	2.684700	-8.160100	29.363253	0.000209	20.747339
2429.647096	-3.003000	2.682700	-8.055500	29.359416	0.000209	20.738730
2430.650036	-2.985400	2.679400	-7.997500	29.325964	0.000208	20.742474
2431.648821	-2.964200	2.676100	-7.931700	29.307395	0.000208	20.751260
2432.647695	-3.011000	2.670400	-8.039500	29.344018	0.000207	20.740754
2433.656239	-3.026000	2.666500	-8.067700	29.380124	0.000209	20.753437
2434.651720	-2.961900	2.663500	-7.887400	29.411299	0.000208	20.755935
2435.651461	-2.998800	2.658500	-7.971700	29.455543	0.000210	20.757857
2436.649298	-3.029200	2.653500	-8.037300	29.479386	0.000210	20.752967
2437.651509	-2.995000	2.650600	-7.937600	29.517811	0.000209	20.758508
2438.654052	-2.975400	2.645600	-7.870700	29.498603	0.000211	20.757164
2439.653992	-2.957100	2.642200	-7.812700	29.483849	0.000212	20.710995
2440.652122	-3.014700	2.637600	-7.951100	29.490860	0.000210	20.729443
2441.652096	-2.997700	2.631800	-7.888100	29.506730	0.000211	20.745916
2442.653493	-3.002600	2.627500	-7.888200	29.481574	0.000210	20.747586
2443.653846	-3.000600	2.623900	-7.872000	29.388857	0.000211	20.758920
2444.654076	-3.018100	2.617600	-7.899000	29.337430	0.000208	20.734589
2445.656710	-2.989700	2.614700	-7.816200	29.307787	0.000209	20.752603
2446.656095	-3.024200	2.608000	-7.886000	29.306400	0.000212	20.749309
2447.654886	-2.991400	2.603300	-7.786100	29.318338	0.000208	20.740477
2448.666481	-2.991200	2.599000	-7.773700	29.377067	0.000211	20.744192
2449.655277	-2.979700	2.592600	-7.723400	29.382888	0.000210	20.742473
2450.655146	-2.988600	2.587300	-7.731600	29.425596	0.000212	20.752801
2451.655475	-2.988600	2.580900	-7.712300	29.461695	0.000211	20.743668
2452.656739	-3.020900	2.575400	-7.778400	29.531161	0.000211	20.727868
2453.657163	-2.965600	2.571700	-7.625200	29.581515	0.000212	20.743067
2454.661109	-3.000400	2.565300	-7.695700	29.592726	0.000212	20.748678
2455.658114	-2.977700	2.559200	-7.618900	29.633498	0.000211	20.753272
2456.657383	-3.031400	2.554200	-7.740400	29.589327	0.000210	20.770383
2457.657641	-3.036200	2.546200	-7.729000	29.528106	0.000211	20.770309
2458.659532	-3.024500	2.540700	-7.683000	29.536299	0.000212	20.761972
2459.660584	-2.984200	2.537200	-7.569700	29.558947	0.000211	20.759197
2460.661977	-3.004600	2.528600	-7.595500	29.597193	0.000212	20.751759
2461.659369	-2.985000	2.524200	-7.533500	29.619516	0.000211	20.761461
2462.656846	-2.959000	2.519400	-7.453600	29.667264	0.000210	20.747009
2463.657717	-2.980600	2.509900	-7.478600	29.677480	0.000211	20.756361
2464.661017	-2.993400	2.504400	-7.495400	29.663023	0.000211	20.768339
2465.658958	-2.977600	2.498600	-7.438700	29.684850	0.000210	20.763317
