LabVIEW Measurement	
Writer_Version	2
Reader_Version	2
Separator	Tab
Decimal_Separator	.
Multi_Headings	No
X_Columns	One
Time_Pref	Absolute
Operator	admin
Description	Clolumns are: time, Current, Voltage, Power, Battery Temp, and Chamber Temp
Date	2024/08/16
Time	13:06:06.104549407958984375
***End_of_Header***	
	
Channels	6						
Samples	1	1	1	1	1	1	
Date	2024/09/17	2024/09/17	2024/09/17	2024/09/17	2024/09/17	2024/09/17	
Time	04:19:19.0344305038452148438	04:19:19.0404214859008789063	04:19:19.047313690185546875	04:19:19.0147485733032226563	04:19:19.0147485733032226563	04:19:19.0147485733032226563	
X_Dimension	Time	Time	Time	Time	Time	Time	
X0	0.0000000000000000E+0	0.0000000000000000E+0	0.0000000000000000E+0	0.0000000000000000E+0	0.0000000000000000E+0	0.0000000000000000E+0	
Delta_X	1.000000	1.000000	1.000000	1.000000	1.000000	1.000000	
***End_of_Header***							
X_Value	Untitled	Untitled 1	Untitled 2	Untitled 3	Untitled 4	Untitled 5	Comment
0.000000	-0.004457	4.089600	-0.018215	21.039132	0.000945	20.795442
0.995563	-3.008100	3.907400	-11.752000	21.049382	0.000944	20.815177
1.995317	-2.991500	3.902600	-11.673000	21.061616	0.000944	20.800862
2.999652	-3.009200	3.895300	-11.719000	21.056999	0.000942	20.803356
4.001177	-3.003900	3.891300	-11.688000	21.073786	0.000941	20.799759
5.000214	-2.964000	3.890400	-11.529000	21.061314	0.000940	20.809569
5.999852	-2.969800	3.886500	-11.541000	21.081273	0.000940	20.793497
7.001973	-2.978700	3.885100	-11.571000	21.063782	0.000939	20.811089
8.001009	-2.979200	3.881900	-11.564000	21.059042	0.000939	20.798761
9.000509	-2.973700	3.879300	-11.535000	21.074481	0.000937	20.816101
10.005081	-2.994600	3.877900	-11.611000	21.078200	0.000939	20.814130
10.998030	-3.014100	3.873500	-11.674000	21.080104	0.000937	20.818880
12.005053	-3.011000	3.872500	-11.659000	21.104869	0.000936	20.803822
13.007510	-2.987700	3.872600	-11.568000	21.095314	0.000936	20.839309
14.004616	-3.006700	3.870500	-11.637000	21.110687	0.000933	20.813435
15.003376	-3.002600	3.868700	-11.615000	21.102229	0.000934	20.819673
16.003569	-2.984600	3.868500	-11.545000	21.096164	0.000932	20.810762
17.005187	-3.002200	3.867900	-11.611000	21.107794	0.000932	20.802955
18.001226	-3.017500	3.865200	-11.663000	21.117226	0.000932	20.822820
19.000949	-3.011400	3.864700	-11.637000	21.127254	0.000932	20.790652
20.001738	-3.007800	3.864800	-11.624000	21.128725	0.000932	20.832426
21.007592	-2.982600	3.865300	-11.527000	21.159560	0.000932	20.835295
22.004580	-2.995600	3.863000	-11.571000	21.133187	0.000930	20.833570
23.008791	-2.993200	3.862100	-11.559000	21.143599	0.000929	20.814114
24.017002	-2.997100	3.861200	-11.570000	21.157893	0.000930	20.833153
25.005122	-2.996700	3.861600	-11.571000	21.173608	0.000930	20.821847
26.010376	-2.986300	3.860400	-11.528000	21.180964	0.000929	20.830627
27.011405	-3.026400	3.858600	-11.675000	21.176902	0.000929	20.826564
28.008047	-3.017400	3.857100	-11.638000	21.185458	0.000929	20.828959
29.008617	-3.020400	3.856600	-11.647000	21.192765	0.000928	20.818725
30.008257	-3.012800	3.854900	-11.612000	21.177670	0.000928	20.823066
31.007155	-3.001400	3.856600	-11.574000	21.216415	0.000930	20.830055
32.016662	-2.989000	3.856400	-11.526000	21.228191	0.000929	20.834723
33.010773	-2.999100	3.854800	-11.559000	21.208382	0.000929	20.815855
34.011281	-3.007700	3.853300	-11.588000	21.227415	0.000928	20.826360
35.010187	-2.970500	3.854300	-11.448000	21.240465	0.000930	20.828036
36.015324	-3.004600	3.852800	-11.576000	21.232481	0.000930	20.829532
37.008304	-2.993800	3.853800	-11.536000	21.265185	0.000927	20.825739
38.006725	-2.995900	3.852400	-11.541000	21.274215	0.000931	20.817229
39.008599	-2.998200	3.852000	-11.548000	21.244952	0.000927	20.809291
40.008354	-3.009200	3.850600	-11.586000	21.244183	0.000929	20.808048
41.017400	-2.991300	3.852600	-11.523000	21.269050	0.000928	20.814907
42.009385	-3.018200	3.849700	-11.618000	21.285548	0.000927	20.794902
43.009878	-3.016700	3.849500	-11.612000	21.278218	0.000927	20.805113
44.010462	-3.013800	3.850400	-11.604000	21.259603	0.000928	20.799766
45.010590	-2.985400	3.850200	-11.493000	21.291211	0.000926	20.818585
46.011442	-2.972100	3.850000	-11.442000	21.294185	0.000929	20.832466
47.013103	-2.985800	3.849000	-11.491000	21.311419	0.000928	20.790438
48.013063	-2.987600	3.850000	-11.500000	21.318504	0.000928	20.800845
49.012232	-2.979700	3.848100	-11.465000	21.315660	0.000926	20.795155
50.013299	-2.976200	3.848200	-11.451000	21.297552	0.000926	20.816868
51.011822	-3.009200	3.846400	-11.574000	21.343197	0.000929	20.822705
52.011929	-3.011300	3.845800	-11.578000	21.342601	0.000927	20.792237
53.014148	-3.003200	3.846700	-11.551000	21.341098	0.000929	20.773663
54.013336	-2.994200	3.847100	-11.518000	21.347063	0.000928	20.809029
55.017254	-3.009200	3.845000	-11.568000	21.367204	0.000928	20.830602
56.015847	-2.995200	3.845000	-11.515000	21.381495	0.000928	20.796062
57.016632	-2.981700	3.844000	-11.461000	21.378913	0.000929	20.781152
58.023223	-2.979700	3.845700	-11.458000	21.381667	0.000928	20.783906
59.018246	-3.009600	3.844000	-11.568000	21.381413	0.000927	20.801671
60.018017	-2.996000	3.844300	-11.516000	21.400549	0.000926	20.811808
61.018619	-2.998400	3.842800	-11.522000	21.414710	0.000926	20.806061
62.019278	-3.019000	3.842700	-11.599000	21.403156	0.000929	20.785019
63.017198	-3.014200	3.841800	-11.579000	21.425798	0.000928	20.795344
64.019250	-3.004200	3.841100	-11.538000	21.426795	0.000928	20.798712
65.020040	-2.995900	3.842200	-11.509000	21.444729	0.000928	20.767344
66.020613	-2.997000	3.840800	-11.510000	21.456495	0.000928	20.799505
67.021602	-3.012700	3.840500	-11.569000	21.445269	0.000927	20.799653
68.023679	-3.024000	3.839100	-11.608000	21.455564	0.000930	20.788617
69.024602	-3.000900	3.840400	-11.523000	21.483498	0.000928	20.804713
70.019886	-3.005300	3.841100	-11.543000	21.483498	0.000928	20.783851
71.022139	-3.003000	3.840800	-11.533000	21.472436	0.000929	20.772308
72.020082	-3.003000	3.839600	-11.529000	21.503123	0.000929	20.784521
73.019855	-3.016900	3.839200	-11.581000	21.508720	0.000929	20.796286
74.023342	-3.004600	3.839300	-11.535000	21.479839	0.000930	20.775447
75.021870	-2.977300	3.838800	-11.428000	21.518197	0.000929	20.774475
76.021036	-2.991600	3.838900	-11.483000	21.511563	0.000928	20.794389
77.021251	-2.984600	3.838700	-11.456000	21.507961	0.000930	20.760912
78.021007	-2.992400	3.839300	-11.487000	21.535150	0.000930	20.781481
79.024554	-2.995200	3.837400	-11.493000	21.529415	0.000931	20.777639
80.021106	-2.996200	3.837200	-11.496000	21.541735	0.000930	20.761043
81.023152	-2.979300	3.838100	-11.433000	21.536539	0.000930	20.768646
82.023837	-3.000800	3.837900	-11.514000	21.543166	0.000930	20.763897
83.020864	-2.999300	3.836800	-11.506000	21.562748	0.000929	20.782070
84.024804	-3.005400	3.836000	-11.528000	21.569006	0.000930	20.777427
85.022928	-2.977300	3.838600	-11.426000	21.562765	0.000931	20.766914
86.020562	-3.015500	3.834900	-11.563000	21.581596	0.000933	20.762524
87.024736	-2.997400	3.835200	-11.494000	21.588981	0.000929	20.796467
88.023564	-3.003200	3.834400	-11.514000	21.593311	0.000930	20.778040
89.021622	-2.977800	3.835400	-11.419000	21.599120	0.000930	20.799500
90.023129	-3.007700	3.835100	-11.534000	21.616275	0.000932	20.771623
91.022327	-2.994300	3.834500	-11.479000	21.613563	0.000932	20.774599
92.020564	-3.008900	3.833900	-11.534000	21.633170	0.000932	20.778573
93.023571	-3.015000	3.834100	-11.559000	21.671678	0.000932	20.768746
94.025052	-3.017300	3.832300	-11.563000	21.630531	0.000932	20.774984
95.023885	-2.992400	3.835200	-11.475000	21.659123	0.000932	20.771829
96.028283	-3.005900	3.831900	-11.518000	21.644811	0.000934	20.777420
97.024213	-3.007000	3.833100	-11.524000	21.654786	0.000933	20.767488
98.023464	-3.011000	3.832300	-11.538000	21.683581	0.000934	20.750786
99.024360	-3.018000	3.830800	-11.559000	21.714345	0.000931	20.784419
100.026526	-3.011800	3.831200	-11.537000	21.698686	0.000934	20.789610
101.022032	-2.981600	3.833100	-11.428000	21.722546	0.000932	20.764177
102.026093	-2.989800	3.830900	-11.453000	21.724221	0.000932	20.767750
103.024314	-3.018500	3.831100	-11.562000	21.728583	0.000933	20.762632
104.026432	-2.995200	3.830800	-11.473000	21.732267	0.000936	20.757785
105.028109	-3.015900	3.829100	-11.547000	21.740174	0.000935	20.759534
106.029968	-3.014900	3.831000	-11.549000	21.738745	0.000937	20.773751
107.024074	-3.012400	3.830300	-11.536000	21.735421	0.000935	20.750509
108.027644	-3.017100	3.828800	-11.550000	21.742282	0.000936	20.769705
109.031860	-3.008100	3.829400	-11.519000	21.732129	0.000935	20.764759
110.031564	-2.998900	3.828900	-11.482000	21.770471	0.000935	20.747657
111.025886	-3.001300	3.828700	-11.491000	21.766927	0.000937	20.755015
112.032979	-3.003600	3.828300	-11.497000	21.762680	0.000937	20.762618
113.029927	-3.005000	3.828200	-11.503000	21.776271	0.000937	20.759626
114.030516	-3.003800	3.828500	-11.499000	21.788981	0.000937	20.769502
115.028855	-2.997300	3.828400	-11.474000	21.815486	0.000937	20.760468
116.027148	-2.973100	3.828900	-11.382000	21.807033	0.000939	20.752481
117.029990	-2.996600	3.828000	-11.470000	21.813404	0.000937	20.754591
118.031002	-2.984800	3.827700	-11.424000	21.783134	0.000937	20.753218
119.027869	-3.007900	3.827700	-11.511000	21.806381	0.000939	20.770796
120.030149	-2.999100	3.826200	-11.474000	21.800974	0.000938	20.747365
121.030282	-3.008800	3.826700	-11.512000	21.824081	0.000939	20.743940
122.031158	-2.989100	3.826600	-11.437000	21.823371	0.000938	20.768834
123.033102	-3.002800	3.826600	-11.488000	21.814501	0.000939	20.749524
124.030307	-3.000800	3.825100	-11.477000	21.826329	0.000940	20.753302
125.030924	-3.007300	3.826300	-11.505000	21.807183	0.000938	20.748838
126.030665	-3.019700	3.825700	-11.551000	21.840842	0.000941	20.774468
127.030745	-3.004400	3.825300	-11.492000	21.861865	0.000941	20.749516
128.030810	-3.001900	3.825300	-11.482000	21.860584	0.000941	20.754872
129.032295	-3.006500	3.824500	-11.496000	21.838817	0.000943	20.762957
130.030877	-3.007600	3.825000	-11.503000	21.857162	0.000942	20.768043
131.031835	-3.022000	3.823700	-11.555000	21.863998	0.000942	20.764928
132.033778	-3.008900	3.824300	-11.506000	21.862888	0.000944	20.754333
133.030530	-2.978600	3.824700	-11.390000	21.863541	0.000943	20.751668
134.032248	-2.999200	3.823700	-11.467000	21.892634	0.000942	20.737639
135.037665	-2.994500	3.823300	-11.448000	21.926732	0.000944	20.764185
136.034564	-2.994400	3.823700	-11.449000	21.895974	0.000943	20.752363
137.030513	-2.991700	3.822500	-11.435000	21.929967	0.000946	20.759362
138.035800	-3.000700	3.823200	-11.470000	21.944577	0.000947	20.755021
139.032232	-3.002200	3.822200	-11.475000	21.961507	0.000946	20.743518
140.030113	-3.010800	3.822300	-11.507000	21.945787	0.000947	20.742955
141.030274	-2.998100	3.821700	-11.456000	21.961173	0.000946	20.728484
142.030171	-3.007500	3.821000	-11.490000	21.972615	0.000944	20.738989
143.033211	-2.990300	3.822800	-11.430000	21.965411	0.000946	20.722769
144.030864	-3.020700	3.820100	-11.539000	21.992999	0.000948	20.756551
145.032770	-3.002500	3.820900	-11.471000	21.995694	0.000947	20.759248
146.030591	-2.991700	3.819600	-11.426000	22.010468	0.000948	20.756494
147.030826	-2.992200	3.820600	-11.430000	22.025281	0.000947	20.752831
148.032744	-3.009400	3.820200	-11.496000	22.044104	0.000948	20.734216
149.031656	-2.994900	3.818800	-11.436000	22.057359	0.000950	20.721405
150.033142	-2.996600	3.819100	-11.443000	22.074181	0.000950	20.741092
151.031223	-3.000700	3.819100	-11.458000	22.087467	0.000951	20.744910
152.031360	-3.023900	3.818800	-11.547000	22.090709	0.000951	20.741517
153.033450	-2.979100	3.819900	-11.379000	22.100149	0.000950	20.741959
154.033597	-3.003400	3.817500	-11.464000	22.085867	0.000951	20.752791
155.038305	-2.988500	3.817400	-11.407000	22.123331	0.000950	20.759005
156.031917	-3.023200	3.818000	-11.540000	22.121633	0.000952	20.734070
157.034634	-2.992600	3.816900	-11.422000	22.129211	0.000952	20.739286
158.037418	-2.969500	3.818800	-11.339000	22.128215	0.000953	20.756781
159.034153	-2.992300	3.817300	-11.421000	22.101366	0.000955	20.751238
160.033795	-2.977900	3.819000	-11.371000	22.128958	0.000955	20.739981
161.033224	-2.982000	3.817600	-11.382000	22.111280	0.000954	20.758793
162.033604	-2.999800	3.816600	-11.446000	22.133196	0.000955	20.748966
163.036009	-2.998700	3.815400	-11.439000	22.117812	0.000955	20.740676
164.035261	-2.984200	3.816500	-11.388000	22.124394	0.000956	20.721660
165.035169	-2.998900	3.815100	-11.440000	22.109557	0.000955	20.745214
166.036375	-2.992700	3.815800	-11.418000	22.139011	0.000957	20.750046
167.034221	-2.979700	3.816500	-11.370000	22.142407	0.000956	20.734480
168.039725	-2.985400	3.815700	-11.391000	22.156647	0.000958	20.730244
169.038732	-2.998400	3.814900	-11.438000	22.140815	0.000957	20.748059
170.038119	-3.000000	3.814000	-11.441000	22.147543	0.000958	20.727293
171.036999	-2.991900	3.814700	-11.410000	22.161425	0.000958	20.736924
172.040524	-2.982000	3.814000	-11.372000	22.164470	0.000957	20.743767
173.035737	-2.997500	3.814800	-11.434000	22.170219	0.000959	20.740988
174.044619	-2.991500	3.816000	-11.414000	22.202602	0.000958	20.766772
175.040608	-3.017400	3.812800	-11.503000	22.225309	0.000962	20.722650
176.038579	-2.982000	3.813600	-11.372000	22.242708	0.000960	20.736752
177.035242	-3.010000	3.812800	-11.476000	22.230542	0.000960	20.750651
178.039402	-3.008100	3.812200	-11.466000	22.248390	0.000961	20.759038
179.036475	-3.021600	3.811800	-11.517000	22.260818	0.000963	20.755834
180.037028	-2.991500	3.813700	-11.407000	22.256711	0.000963	20.743187
181.040897	-2.994600	3.813000	-11.416000	22.281033	0.000962	20.730082
182.037310	-3.016400	3.810500	-11.493000	22.290953	0.000962	20.728635
183.036560	-3.006500	3.810200	-11.454000	22.304040	0.000962	20.727988
184.039598	-2.997700	3.812600	-11.427000	22.292030	0.000962	20.741094
185.042684	-2.987400	3.811100	-11.383000	22.313266	0.000966	20.739123
186.035650	-2.993500	3.812700	-11.412000	22.302791	0.000965	20.739067
187.039902	-2.999200	3.810400	-11.427000	22.302023	0.000964	20.740194
188.042047	-3.018300	3.809700	-11.498000	22.324973	0.000966	20.729509
189.040752	-2.999600	3.809100	-11.424000	22.334304	0.000966	20.721783
190.043056	-3.006100	3.809400	-11.451000	22.344550	0.000965	20.732991
191.042054	-2.986400	3.809700	-11.375000	22.358829	0.000965	20.733065
192.041862	-2.999900	3.810000	-11.428000	22.363915	0.000967	20.711604
193.038927	-2.996500	3.809200	-11.412000	22.360021	0.000966	20.736155
194.036777	-2.987300	3.808500	-11.377000	22.368144	0.000969	20.736703
195.043790	-3.003500	3.809100	-11.438000	22.374177	0.000968	20.711449
196.041790	-3.017200	3.807200	-11.487000	22.381035	0.000969	20.721635
197.044541	-3.024200	3.806400	-11.511000	22.397133	0.000970	20.719264
198.041113	-2.987600	3.807800	-11.376000	22.387924	0.000968	20.708145
199.050256	-3.004300	3.807700	-11.439000	22.376136	0.000971	20.703452
200.043523	-2.997700	3.807300	-11.410000	22.374323	0.000970	20.697843
201.038886	-3.003800	3.806700	-11.433000	22.392838	0.000970	20.728240
202.041337	-2.987600	3.807100	-11.373000	22.416815	0.000971	20.720955
203.041863	-2.995100	3.807100	-11.402000	22.415875	0.000973	20.729972
204.043544	-2.994000	3.806500	-11.397000	22.430227	0.000975	20.715894
205.040904	-3.006900	3.806500	-11.445000	22.444659	0.000972	20.722761
206.043040	-3.001200	3.804400	-11.416000	22.441468	0.000971	20.704391
207.040026	-2.990900	3.805800	-11.382000	22.447517	0.000974	20.689585
208.040454	-3.017700	3.806100	-11.485000	22.477059	0.000972	20.706843
209.042091	-2.999000	3.804500	-11.408000	22.466512	0.000975	20.732793
210.041173	-3.005100	3.804300	-11.431000	22.485157	0.000976	20.706418
211.041628	-2.991600	3.804400	-11.379000	22.470691	0.000975	20.697620
212.043965	-2.993900	3.804300	-11.388000	22.479532	0.000978	20.701733
213.052551	-2.992300	3.803700	-11.380000	22.489604	0.000976	20.719883
214.045549	-2.993700	3.804500	-11.389000	22.513848	0.000978	20.689158
215.042658	-3.012800	3.803800	-11.459000	22.516844	0.000980	20.694055
216.048033	-3.006100	3.802500	-11.431000	22.510191	0.000979	20.695928
217.045825	-2.999000	3.803400	-11.405000	22.512158	0.000980	20.691259
218.042170	-2.987900	3.803900	-11.365000	22.501661	0.000979	20.711568
219.044275	-2.995800	3.801500	-11.386000	22.513039	0.000979	20.722964
220.044772	-3.011100	3.800500	-11.442000	22.513709	0.000981	20.696606
221.040953	-3.010800	3.801900	-11.446000	22.495245	0.000982	20.722686
222.048534	-3.014800	3.801400	-11.460000	22.540001	0.000982	20.709188
223.043781	-2.990100	3.802500	-11.368000	22.543094	0.000982	20.712286
224.049406	-2.992600	3.801600	-11.376000	22.574463	0.000981	20.706719
225.049237	-2.992800	3.801100	-11.374000	22.588013	0.000982	20.714126
226.051678	-2.969600	3.801700	-11.288000	22.571117	0.000983	20.694358
227.047237	-2.988700	3.801100	-11.359000	22.554260	0.000983	20.703554
228.047739	-2.989600	3.801700	-11.364000	22.587326	0.000984	20.716758
229.050909	-2.995400	3.801200	-11.384000	22.601455	0.000984	20.709097
230.045772	-3.003500	3.800200	-11.412000	22.624970	0.000983	20.671007
231.045480	-2.985400	3.800000	-11.344000	22.648517	0.000987	20.689852
232.045972	-3.000400	3.798600	-11.396000	22.636911	0.000987	20.705255
233.049608	-3.020200	3.798800	-11.472000	22.614808	0.000987	20.703031
234.052425	-3.003200	3.799500	-11.410000	22.624635	0.000987	20.700071
235.048917	-3.002400	3.797700	-11.400000	22.637335	0.000988	20.689083
236.048371	-2.982900	3.798500	-11.330000	22.649251	0.000988	20.704339
237.047459	-2.986300	3.798400	-11.341000	22.633450	0.000988	20.709375
238.050640	-2.990200	3.798400	-11.357000	22.654083	0.000989	20.678830
239.052726	-3.006800	3.797300	-11.417000	22.626455	0.000988	20.700946
240.053026	-2.988300	3.797500	-11.347000	22.656727	0.000989	20.692860
241.047880	-2.993700	3.797000	-11.366000	22.655633	0.000991	20.688919
242.050412	-3.008100	3.796200	-11.417000	22.639734	0.000990	20.692435
243.054234	-3.015400	3.796500	-11.447000	22.630315	0.000991	20.680629
244.053010	-3.024900	3.795300	-11.480000	22.642999	0.000992	20.683376
245.058266	-3.010700	3.795500	-11.426000	22.623296	0.000991	20.672649
246.051824	-3.009300	3.795700	-11.422000	22.637375	0.000992	20.677742
247.052701	-2.983500	3.795800	-11.322000	22.639048	0.000994	20.707870
248.052718	-2.976200	3.795500	-11.294000	22.629637	0.000994	20.685639
249.053485	-2.999000	3.794800	-11.380000	22.650238	0.000994	20.703904
250.052330	-2.994500	3.794400	-11.362000	22.712878	0.000994	20.683195
251.052490	-3.013800	3.794700	-11.434000	22.706202	0.000997	20.685517
252.053256	-2.983200	3.794400	-11.317000	22.718688	0.000995	20.692809
253.056572	-2.990800	3.795600	-11.351000	22.740438	0.000995	20.687094
254.057216	-2.983100	3.793900	-11.316000	22.730637	0.000996	20.685811
255.055856	-2.968700	3.794600	-11.265000	22.758278	0.000999	20.693586
256.056395	-3.025900	3.790700	-11.469000	22.762987	0.000996	20.685026
257.054957	-2.991900	3.793600	-11.348000	22.738716	0.000996	20.685843
258.056968	-2.983300	3.794400	-11.319000	22.756237	0.000999	20.701500
259.062974	-3.006700	3.791900	-11.401000	22.745522	0.000998	20.696930
260.059129	-3.000300	3.792200	-11.377000	22.726188	0.001000	20.679932
261.054675	-2.990800	3.791300	-11.336000	22.748215	0.001000	20.695360
262.057300	-2.995200	3.791300	-11.355000	22.752409	0.000999	20.682490
263.054391	-2.993200	3.791300	-11.346000	22.757788	0.001001	20.689775
264.057507	-2.997800	3.791900	-11.366000	22.764341	0.001001	20.700134
265.054595	-2.991400	3.791300	-11.340000	22.756490	0.001001	20.688950
266.058348	-3.018800	3.792200	-11.446000	22.744713	0.001002	20.694223
267.055682	-3.013700	3.790200	-11.421000	22.758816	0.001002	20.690331
268.057447	-2.989600	3.791700	-11.334000	22.756368	0.001002	20.698785
269.060232	-2.990600	3.789400	-11.331000	22.748483	0.001005	20.714122
270.055295	-3.007900	3.788900	-11.396000	22.754889	0.001003	20.685449
271.059005	-3.012000	3.789100	-11.411000	22.755159	0.001003	20.682874
272.059993	-3.001100	3.788900	-11.369000	22.774436	0.001005	20.686063
273.060354	-2.997800	3.787800	-11.354000	22.772722	0.001006	20.696675
274.064720	-2.990800	3.789000	-11.331000	22.788447	0.001004	20.699152
275.062277	-2.998600	3.787600	-11.357000	22.787500	0.001007	20.696307
276.060105	-3.004300	3.786900	-11.376000	22.828760	0.001006	20.696862
277.064752	-2.993200	3.786200	-11.332000	22.805642	0.001007	20.687452
278.060155	-3.025100	3.785900	-11.451000	22.802851	0.001008	20.688924
279.063738	-3.002000	3.787800	-11.368000	22.814235	0.001007	20.701277
280.064647	-2.993100	3.787500	-11.335000	22.808930	0.001007	20.695963
281.062134	-3.011600	3.786500	-11.403000	22.792960	0.001008	20.678066
282.064128	-3.006200	3.785800	-11.377000	22.806017	0.001010	20.698260
283.062322	-3.008800	3.784700	-11.387000	22.808212	0.001010	20.698562
284.063003	-3.007000	3.785500	-11.382000	22.841613	0.001009	20.684132
285.066281	-2.994400	3.785300	-11.334000	22.834163	0.001009	20.694213
286.063750	-3.009400	3.784000	-11.386000	22.856286	0.001011	20.684607
287.062004	-2.998400	3.784800	-11.346000	22.885075	0.001010	20.680258
288.061612	-3.011200	3.784200	-11.392000	22.897013	0.001012	20.688899
289.069126	-3.013200	3.783000	-11.396000	22.945915	0.001012	20.688580
290.066012	-2.978600	3.785000	-11.273000	22.923573	0.001015	20.700336
291.065355	-3.010600	3.784200	-11.391000	22.939991	0.001011	20.700189
292.066408	-2.990300	3.784300	-11.314000	22.962601	0.001013	20.703403
293.063300	-2.986600	3.784200	-11.301000	22.967856	0.001014	20.705348
294.068856	-3.010800	3.781700	-11.385000	22.975754	0.001014	20.688130
295.067845	-3.014100	3.782900	-11.400000	23.015205	0.001016	20.705847
296.067966	-2.988500	3.782500	-11.303000	23.014111	0.001013	20.692897
297.067808	-2.977700	3.782900	-11.263000	23.012365	0.001015	20.703950
298.069489	-2.997200	3.781100	-11.331000	23.017522	0.001017	20.679243
299.065768	-2.995800	3.781100	-11.326000	23.041534	0.001018	20.700459
300.068601	-2.991100	3.781600	-11.310000	23.041860	0.001017	20.706002
301.069603	-3.017700	3.779800	-11.405000	23.053634	0.001017	20.698358
302.073177	-3.002000	3.781400	-11.350000	23.073345	0.001016	20.683968
303.068893	-3.006200	3.780200	-11.363000	23.075735	0.001019	20.702012
304.071555	-3.005100	3.779400	-11.357000	23.087036	0.001019	20.719500
305.072208	-3.023400	3.777200	-11.418000	23.104071	0.001019	20.696265
306.072733	-3.009900	3.779500	-11.375000	23.082605	0.001018	20.707948
307.066991	-3.026300	3.778000	-11.431000	23.105253	0.001021	20.682276
308.073760	-3.006800	3.779100	-11.363000	23.136557	0.001021	20.689936
309.075008	-3.012500	3.776800	-11.376000	23.112849	0.001021	20.681352
310.066378	-3.005900	3.779100	-11.358000	23.129974	0.001021	20.699936
311.071453	-3.028800	3.777500	-11.440000	23.153934	0.001024	20.697393
312.069350	-3.014400	3.776800	-11.384000	23.162728	0.001022	20.721380
313.069513	-3.002800	3.776300	-11.339000	23.189380	0.001023	20.688342
314.074160	-2.980000	3.777700	-11.256000	23.173300	0.001024	20.706369
315.071966	-2.992800	3.777900	-11.306000	23.148916	0.001024	20.703271
316.072647	-3.012100	3.775600	-11.372000	23.175708	0.001023	20.701194
317.070705	-3.020600	3.775800	-11.403000	23.172509	0.001024	20.708895
318.071176	-2.994300	3.776700	-11.307000	23.180847	0.001026	20.692119
319.068027	-2.998200	3.775400	-11.318000	23.174426	0.001024	20.708445
320.069930	-3.001100	3.775400	-11.329000	23.163421	0.001025	20.697890
321.070839	-3.002500	3.774400	-11.332000	23.177893	0.001026	20.708600
322.071797	-3.006800	3.775200	-11.350000	23.189403	0.001025	20.722981
323.070107	-3.025900	3.773900	-11.418000	23.201681	0.001025	20.687392
324.072515	-3.023400	3.773400	-11.407000	23.213412	0.001028	20.686820
325.076331	-3.005700	3.774100	-11.342000	23.227336	0.001026	20.730649
326.075273	-2.998300	3.772800	-11.311000	23.229001	0.001028	20.721885
327.070989	-2.993400	3.774900	-11.298000	23.211600	0.001027	20.708240
328.071938	-2.986000	3.774400	-11.270000	23.209340	0.001027	20.702181
329.072328	-2.998300	3.773300	-11.313000	23.210686	0.001029	20.717282
330.075274	-3.004900	3.771800	-11.333000	23.173412	0.001029	20.710749
331.077625	-3.005700	3.772200	-11.337000	23.165361	0.001032	20.709319
332.071422	-3.010100	3.771600	-11.352000	23.158247	0.001030	20.727795
333.077922	-3.012200	3.771800	-11.360000	23.155881	0.001028	20.704086
334.076841	-2.994100	3.772500	-11.294000	23.164871	0.001030	20.712621
335.073386	-3.004700	3.771300	-11.330000	23.168738	0.001030	20.719341
336.071651	-2.990700	3.771100	-11.277000	23.176855	0.001031	20.730795
337.076136	-3.006300	3.770500	-11.334000	23.195316	0.001031	20.713258
338.071224	-3.010300	3.770000	-11.347000	23.230802	0.001032	20.699507
339.077092	-3.036100	3.768900	-11.442000	23.245298	0.001032	20.704077
340.074294	-3.012700	3.770300	-11.358000	23.239978	0.001033	20.707281
341.071334	-2.996800	3.770700	-11.299000	23.240925	0.001032	20.703962
342.077750	-2.990300	3.769200	-11.270000	23.265910	0.001034	20.714303
343.082109	-2.990500	3.769600	-11.271000	23.259385	0.001032	20.726256
344.076727	-2.991600	3.768700	-11.273000	23.269018	0.001034	20.731170
345.075864	-2.993500	3.768300	-11.279000	23.295945	0.001035	20.733974
346.079113	-3.010900	3.766700	-11.339000	23.289672	0.001035	20.720100
347.078915	-2.998900	3.767800	-11.297000	23.297747	0.001035	20.732461
348.080726	-2.989600	3.767400	-11.262000	23.326884	0.001034	20.712349
349.078492	-3.004700	3.766000	-11.314000	23.345065	0.001036	20.715872
350.081581	-3.011700	3.766600	-11.342000	23.328833	0.001037	20.711931
351.082346	-2.996000	3.765600	-11.279000	23.321337	0.001035	20.708686
352.082926	-2.996900	3.766300	-11.286000	23.289639	0.001036	20.700150
353.090955	-2.991500	3.765300	-11.263000	23.292306	0.001036	20.722265
354.080843	-2.993700	3.765600	-11.271000	23.279833	0.001038	20.719248
355.079993	-2.984900	3.765900	-11.239000	23.304663	0.001038	20.734651
356.082353	-3.011200	3.763400	-11.331000	23.316768	0.001038	20.722126
357.083021	-2.975800	3.765600	-11.205000	23.349094	0.001039	20.740774
358.079558	-2.972200	3.764400	-11.187000	23.325512	0.001038	20.720458
359.083266	-3.007600	3.763200	-11.317000	23.345897	0.001039	20.723818
360.078137	-2.990500	3.763300	-11.253000	23.316654	0.001041	20.702569
361.079718	-2.990100	3.762800	-11.249000	23.340684	0.001040	20.714800
362.085241	-2.987000	3.762600	-11.238000	23.317330	0.001039	20.718896
363.081233	-2.993000	3.764100	-11.264000	23.330643	0.001039	20.734135
364.083453	-2.983700	3.762600	-11.224000	23.351572	0.001040	20.738991
365.086974	-2.985100	3.763000	-11.232000	23.376425	0.001039	20.743512
366.080873	-2.983000	3.762000	-11.220000	23.397094	0.001042	20.722975
367.082896	-3.001300	3.761100	-11.287000	23.406800	0.001043	20.744084
368.088898	-3.005700	3.761400	-11.305000	23.440378	0.001042	20.724634
369.081233	-2.995300	3.761400	-11.266000	23.466135	0.001042	20.735279
370.084716	-2.995400	3.760700	-11.262000	23.491687	0.001041	20.732442
371.081089	-2.986400	3.760100	-11.227000	23.511562	0.001043	20.735294
372.081361	-3.004500	3.759200	-11.294000	23.500388	0.001041	20.757760
373.085624	-3.003400	3.759500	-11.290000	23.526355	0.001042	20.736847
374.085042	-3.013900	3.758700	-11.326000	23.510949	0.001043	20.761709
375.084392	-3.010200	3.758900	-11.315000	23.525711	0.001046	20.748530
376.086349	-2.994800	3.757900	-11.253000	23.543889	0.001043	20.741622
377.084190	-3.008200	3.757400	-11.302000	23.555437	0.001044	20.747034
378.090830	-3.027800	3.757000	-11.374000	23.515386	0.001044	20.755250
379.082682	-3.005600	3.758400	-11.295000	23.521951	0.001045	20.749977
380.080965	-2.991800	3.757300	-11.240000	23.503788	0.001045	20.740305
381.085576	-2.988200	3.758200	-11.230000	23.526771	0.001046	20.742480
382.088197	-2.976300	3.758400	-11.185000	23.523737	0.001046	20.719523
383.089358	-3.001700	3.755900	-11.273000	23.555828	0.001047	20.725139
384.093006	-3.004200	3.755200	-11.280000	23.554686	0.001045	20.739168
385.088644	-2.999800	3.756200	-11.267000	23.574706	0.001046	20.740272
386.089741	-2.996600	3.754600	-11.250000	23.583294	0.001046	20.743190
387.089644	-3.021300	3.754600	-11.341000	23.605679	0.001046	20.769899
388.086932	-3.028800	3.753500	-11.368000	23.587110	0.001045	20.729471
389.089021	-3.030700	3.753600	-11.375000	23.578898	0.001046	20.747318
390.088814	-3.036900	3.752500	-11.394000	23.556047	0.001049	20.718720
391.087683	-3.014400	3.753300	-11.313000	23.574119	0.001048	20.751537
392.091652	-3.011500	3.753000	-11.300000	23.601405	0.001049	20.744751
393.087243	-3.012300	3.753500	-11.306000	23.606853	0.001049	20.755428
394.087589	-3.020500	3.752400	-11.333000	23.605010	0.001048	20.739830
395.087883	-3.014100	3.751700	-11.306000	23.606910	0.001048	20.759279
396.088262	-3.013000	3.751200	-11.301000	23.626921	0.001050	20.748994
397.088009	-3.001000	3.751400	-11.258000	23.645921	0.001050	20.751447
398.087716	-3.007200	3.750700	-11.278000	23.620528	0.001048	20.740214
399.093113	-3.002900	3.751700	-11.265000	23.599619	0.001051	20.755763
400.088910	-3.017700	3.750100	-11.315000	23.620911	0.001050	20.749133
401.089029	-3.007800	3.751400	-11.283000	23.623961	0.001050	20.734646
402.091022	-3.009700	3.750400	-11.285000	23.642113	0.001050	20.757112
403.089185	-3.026700	3.749500	-11.347000	23.643711	0.001052	20.765827
404.093315	-3.003800	3.749200	-11.261000	23.641167	0.001052	20.761854
405.095267	-3.012300	3.749400	-11.293000	23.617869	0.001052	20.757463
406.094323	-3.014000	3.748000	-11.295000	23.604275	0.001052	20.768492
407.095088	-3.003800	3.748100	-11.258000	23.621131	0.001051	20.753621
408.097353	-2.996500	3.748700	-11.232000	23.609976	0.001052	20.754766
409.096718	-3.024600	3.747200	-11.333000	23.631120	0.001052	20.746565
410.097644	-2.989000	3.747800	-11.201000	23.638908	0.001053	20.765279
411.093285	-2.994400	3.748900	-11.224000	23.664668	0.001053	20.765974
412.092338	-3.010000	3.747600	-11.278000	23.679656	0.001053	20.751127
413.093848	-2.987900	3.748400	-11.198000	23.676598	0.001054	20.765606
414.092381	-3.004700	3.746400	-11.256000	23.722799	0.001055	20.773519
415.096215	-2.982300	3.748100	-11.177000	23.739898	0.001053	20.777386
416.096258	-2.995700	3.746700	-11.222000	23.740379	0.001054	20.784507
417.095311	-2.998700	3.746100	-11.231000	23.780846	0.001053	20.760120
418.099470	-3.010200	3.744400	-11.270000	23.749234	0.001054	20.772522
419.094735	-2.995700	3.745300	-11.219000	23.798196	0.001055	20.754757
420.096187	-3.001500	3.744000	-11.236000	23.769398	0.001054	20.768557
421.093281	-3.004700	3.744900	-11.252000	23.763397	0.001054	20.772497
422.093674	-2.985100	3.746100	-11.182000	23.763201	0.001054	20.768034
423.093149	-3.008900	3.744700	-11.265000	23.750783	0.001055	20.774075
424.099090	-2.996200	3.744100	-11.217000	23.755382	0.001055	20.762090
425.098858	-3.011300	3.742400	-11.268000	23.768477	0.001056	20.777116
426.096178	-3.006900	3.744300	-11.257000	23.796728	0.001056	20.764665
427.096612	-3.017100	3.742400	-11.290000	23.797128	0.001055	20.776446
428.098727	-2.992200	3.743000	-11.199000	23.810581	0.001058	20.775236
429.093499	-3.007700	3.743000	-11.257000	23.788355	0.001058	20.793254
430.097181	-3.009400	3.741600	-11.259000	23.783153	0.001057	20.768124
431.098370	-3.029900	3.740500	-11.332000	23.782656	0.001059	20.760513
432.099256	-2.978300	3.742300	-11.145000	23.783104	0.001057	20.779929
433.095373	-2.995300	3.742500	-11.209000	23.809913	0.001056	20.794006
434.098330	-2.995500	3.740400	-11.204000	23.805029	0.001057	20.798119
435.098718	-3.002200	3.740100	-11.227000	23.825217	0.001057	20.789437
436.098921	-2.985700	3.740900	-11.167000	23.785339	0.001056	20.787385
437.101410	-3.005700	3.738900	-11.237000	23.775261	0.001058	20.799566
438.100229	-2.997700	3.739300	-11.208000	23.773222	0.001057	20.768124
439.097915	-2.977800	3.740300	-11.136000	23.814193	0.001059	20.771745
440.107199	-2.992900	3.740800	-11.194000	23.841580	0.001059	20.781663
441.099902	-2.979000	3.739700	-11.140000	23.853932	0.001059	20.787409
442.097736	-2.996500	3.738300	-11.201000	23.841694	0.001058	20.805010
443.097860	-3.004200	3.736700	-11.224000	23.813884	0.001059	20.792772
444.100771	-2.986200	3.737300	-11.160000	23.826057	0.001057	20.795969
445.097534	-2.984500	3.736800	-11.151000	23.832033	0.001059	20.804332
446.103757	-2.990600	3.737600	-11.175000	23.835498	0.001060	20.802116
447.107269	-2.995200	3.737600	-11.192000	23.855449	0.001059	20.805525
448.100085	-2.995600	3.736800	-11.193000	23.843284	0.001059	20.788586
449.105072	-2.990300	3.736000	-11.172000	23.877086	0.001060	20.794505
450.103022	-2.989300	3.734900	-11.163000	23.900974	0.001059	20.785741
451.103197	-2.990300	3.735800	-11.170000	23.916879	0.001059	20.777509
452.104378	-2.979600	3.735200	-11.128000	23.913822	0.001059	20.789142
453.100974	-2.990200	3.734500	-11.165000	23.888508	0.001059	20.774190
454.102314	-3.007200	3.734900	-11.231000	23.866756	0.001060	20.794579
455.106525	-2.987900	3.734000	-11.155000	23.885548	0.001060	20.794456
456.105223	-2.999200	3.733300	-11.196000	23.900085	0.001060	20.806187
457.102121	-2.974800	3.734100	-11.106000	23.891451	0.001060	20.803219
458.101237	-2.988600	3.732000	-11.152000	23.910088	0.001061	20.788717
459.098882	-2.985300	3.732900	-11.143000	23.923254	0.001061	20.783902
460.104204	-2.985800	3.732100	-11.142000	23.947622	0.001060	20.805966
461.097335	-2.988700	3.732500	-11.154000	23.971655	0.001059	20.789289
462.103858	-2.982300	3.733000	-11.132000	23.976815	0.001063	20.802999
463.110920	-2.987500	3.732300	-11.149000	23.938459	0.001060	20.822382
464.101670	-2.993300	3.730800	-11.165000	23.941597	0.001060	20.805615
465.100669	-3.004000	3.729600	-11.203000	23.937741	0.001061	20.797955
466.101259	-2.979700	3.729900	-11.113000	23.938133	0.001061	20.816839
467.102302	-3.012300	3.730200	-11.236000	23.920792	0.001061	20.821262
468.102551	-2.978900	3.729900	-11.110000	23.951845	0.001062	20.816839
469.102610	-2.995100	3.728300	-11.166000	23.940228	0.001062	20.829845
470.101559	-2.997900	3.729300	-11.180000	23.949676	0.001060	20.814665
471.105227	-2.979300	3.729800	-11.111000	23.952416	0.001062	20.815515
472.103366	-2.993200	3.728400	-11.159000	23.930592	0.001061	20.812122
473.101837	-3.011100	3.727900	-11.224000	23.919545	0.001060	20.811476
474.104181	-3.003700	3.728000	-11.197000	23.912371	0.001062	20.819929
475.101793	-2.981300	3.728400	-11.114000	23.907773	0.001063	20.820534
476.104004	-2.985000	3.728300	-11.128000	23.945445	0.001061	20.831758
477.110358	-2.999700	3.728500	-11.183000	23.955130	0.001062	20.826297
478.105468	-3.001600	3.726700	-11.185000	23.987730	0.001061	20.831014
479.105665	-3.030100	3.725900	-11.288000	24.016173	0.001063	20.813071
480.105956	-2.977100	3.727200	-11.094000	24.033063	0.001061	20.824319
481.106818	-2.996700	3.725500	-11.163000	24.053580	0.001061	20.797006
482.102806	-3.003400	3.726400	-11.190000	24.056115	0.001061	20.833687
483.106853	-3.003200	3.725300	-11.187000	24.090107	0.001061	20.822259
484.108304	-3.011300	3.724600	-11.214000	24.093954	0.001059	20.825644
485.109588	-3.015500	3.723100	-11.227000	24.106271	0.001063	20.823298
486.103938	-3.009800	3.724500	-11.208000	24.123967	0.001062	20.816390
487.105586	-2.987800	3.724500	-11.127000	24.142918	0.001063	20.821172
488.107922	-2.994200	3.724900	-11.153000	24.127080	0.001063	20.827573
489.111344	-3.008400	3.722500	-11.198000	24.123787	0.001063	20.840865
490.110813	-2.973800	3.724400	-11.075000	24.111626	0.001062	20.828194
491.110504	-2.976900	3.723900	-11.085000	24.113990	0.001063	20.839099
492.116640	-3.020800	3.722500	-11.244000	24.123428	0.001062	20.816324
493.109069	-3.007900	3.721800	-11.193000	24.117600	0.001061	20.809531
494.111653	-3.010000	3.721700	-11.201000	24.107224	0.001061	20.809555
495.111281	-3.004200	3.721000	-11.178000	24.083985	0.001063	20.817068
496.113533	-2.980800	3.722100	-11.094000	24.113052	0.001062	20.836262
497.110221	-2.986500	3.721300	-11.113000	24.148582	0.001062	20.827327
498.118334	-3.008800	3.721000	-11.193000	24.125246	0.001062	20.815776
499.113810	-3.003300	3.721100	-11.174000	24.111381	0.001062	20.815621
500.110602	-3.002400	3.718400	-11.162000	24.128254	0.001063	20.815474
501.116040	-3.012000	3.718700	-11.200000	24.155380	0.001063	20.827033
502.114851	-3.008800	3.719000	-11.189000	24.151223	0.001063	20.837088
503.115329	-3.012900	3.718500	-11.202000	24.174142	0.001063	20.814084
504.122809	-2.982100	3.719200	-11.090000	24.127389	0.001063	20.797537
505.114919	-2.995100	3.718300	-11.136000	24.121985	0.001064	20.812032
506.109978	-3.004100	3.718300	-11.168000	24.133665	0.001065	20.800513
507.112477	-2.999100	3.718100	-11.151000	24.137374	0.001061	20.802336
508.109988	-2.991000	3.716800	-11.115000	24.141955	0.001064	20.790335
509.109761	-2.991500	3.717600	-11.120000	24.141303	0.001061	20.812440
510.113472	-2.979500	3.717800	-11.076000	24.133234	0.001064	20.794864
511.117219	-2.983100	3.717000	-11.087000	24.135084	0.001064	20.791030
512.113843	-3.017500	3.715100	-11.210000	24.143520	0.001062	20.820828
513.113742	-2.999600	3.716800	-11.148000	24.133967	0.001064	20.810298
514.117089	-3.023900	3.714100	-11.229000	24.150212	0.001063	20.799090
515.113587	-2.995600	3.715000	-11.127000	24.151059	0.001062	20.810372
516.112494	-2.991300	3.714500	-11.109000	24.173995	0.001064	20.783591
517.115515	-2.982500	3.714300	-11.076000	24.154809	0.001064	20.805598
518.114741	-2.999400	3.714700	-11.142000	24.166807	0.001062	20.803407
519.114947	-3.019200	3.713100	-11.210000	24.149258	0.001061	20.800505
520.125096	-2.990000	3.712700	-11.100000	24.175634	0.001063	20.805148
521.118931	-3.002600	3.712500	-11.146000	24.179090	0.001063	20.774001
522.116678	-2.996800	3.712600	-11.125000	24.212058	0.001064	20.795216
523.119869	-2.973500	3.713100	-11.040000	24.193394	0.001063	20.801625
524.114104	-2.994500	3.711200	-11.113000	24.216957	0.001063	20.806293
525.118518	-3.003500	3.710900	-11.145000	24.200909	0.001062	20.781187
526.117885	-2.979200	3.712300	-11.058000	24.202033	0.001064	20.779945
527.119757	-3.019100	3.710500	-11.200000	24.182823	0.001064	20.792919
528.115131	-2.999000	3.710700	-11.127000	24.179440	0.001063	20.786207
529.114501	-3.023200	3.710400	-11.216000	24.171999	0.001063	20.771631
530.120588	-2.994000	3.711000	-11.109000	24.182448	0.001064	20.785430
531.123553	-3.008100	3.708600	-11.155000	24.200656	0.001064	20.789943
532.121116	-3.021100	3.708800	-11.203000	24.202979	0.001064	20.771884
533.121345	-2.998900	3.709500	-11.122000	24.256623	0.001061	20.788708
534.120520	-3.002800	3.709200	-11.137000	24.229843	0.001062	20.789820
535.120910	-2.989200	3.709600	-11.088000	24.277414	0.001062	20.780165
536.122038	-3.001300	3.709400	-11.132000	24.285751	0.001063	20.781890
537.118950	-3.022700	3.706700	-11.202000	24.273038	0.001062	20.785258
538.128425	-2.989600	3.707900	-11.084000	24.249224	0.001064	20.773225
539.121363	-2.982600	3.707500	-11.057000	24.219940	0.001064	20.761395
540.121064	-3.009700	3.706500	-11.155000	24.202498	0.001063	20.761444
541.129222	-2.996200	3.706500	-11.104000	24.232255	0.001062	20.787025
542.122255	-2.994700	3.706500	-11.099000	24.265173	0.001064	20.776895
543.122563	-2.963700	3.709000	-10.991000	24.260422	0.001063	20.787777
544.126974	-3.008100	3.705200	-11.145000	24.293184	0.001063	20.774173
545.123290	-3.010000	3.704600	-11.149000	24.276021	0.001063	20.780664
546.129336	-3.009300	3.703700	-11.144000	24.280030	0.001063	20.774255
547.130671	-3.001500	3.704600	-11.118000	24.273804	0.001063	20.784131
548.123697	-3.026700	3.704000	-11.210000	24.247700	0.001062	20.751307
549.124338	-3.005500	3.703200	-11.129000	24.232483	0.001060	20.762123
550.128808	-3.014200	3.703200	-11.161000	24.245540	0.001061	20.766211
551.125804	-2.973100	3.702800	-11.008000	24.200216	0.001061	20.766267
552.126588	-2.985800	3.704000	-11.058000	24.198398	0.001060	20.770134
553.127058	-2.994600	3.703400	-11.090000	24.191038	0.001062	20.770339
554.124476	-3.007300	3.701600	-11.130000	24.237381	0.001061	20.769407
555.129069	-3.004800	3.702000	-11.123000	24.275474	0.001062	20.766840
556.127505	-3.028500	3.699900	-11.204000	24.290764	0.001061	20.770797
557.129558	-3.011800	3.701000	-11.145000	24.319679	0.001061	20.758076
558.128525	-3.016400	3.700300	-11.161000	24.328863	0.001060	20.775350
559.126309	-3.000700	3.701600	-11.106000	24.320876	0.001061	20.787253
560.127463	-2.988800	3.699800	-11.057000	24.305547	0.001062	20.768083
561.129737	-2.991900	3.700900	-11.072000	24.336499	0.001062	20.772105
562.130722	-2.968400	3.700800	-10.984000	24.341120	0.001061	20.771050
563.132578	-2.992700	3.701100	-11.076000	24.328782	0.001059	20.770527
564.129182	-3.014200	3.699600	-11.150000	24.353882	0.001061	20.756351
565.129316	-2.997300	3.698900	-11.085000	24.317462	0.001060	20.773871
566.126987	-2.992700	3.699000	-11.069000	24.373155	0.001060	20.773315
567.132601	-2.995100	3.699700	-11.080000	24.389543	0.001059	20.767944
568.128785	-3.009400	3.698300	-11.127000	24.426286	0.001063	20.773512
569.129405	-2.995300	3.698600	-11.078000	24.427574	0.001060	20.765794
570.129985	-3.006800	3.698300	-11.119000	24.389592	0.001061	20.772735
571.129848	-3.015600	3.696300	-11.145000	24.372446	0.001060	20.755060
572.133389	-2.997000	3.696900	-11.079000	24.396233	0.001059	20.762802
573.132652	-2.984900	3.697000	-11.033000	24.403560	0.001060	20.769678
574.138662	-2.999200	3.697100	-11.086000	24.396429	0.001059	20.763947
575.131460	-3.003700	3.695000	-11.098000	24.398010	0.001060	20.764585
576.133667	-2.988300	3.696500	-11.045000	24.414381	0.001061	20.741179
577.135094	-3.017700	3.693900	-11.147000	24.391940	0.001060	20.773668
578.135905	-3.001800	3.695500	-11.092000	24.354127	0.001058	20.744743
579.135180	-2.993300	3.694400	-11.057000	24.362863	0.001061	20.748765
580.137876	-3.005800	3.694300	-11.103000	24.353899	0.001061	20.744515
581.132229	-3.005600	3.694600	-11.103000	24.384801	0.001060	20.765558
582.141970	-2.996100	3.694000	-11.065000	24.365691	0.001060	20.765828
583.134553	-3.038200	3.693100	-11.218000	24.362057	0.001059	20.767872
584.132223	-2.979600	3.694500	-11.006000	24.364388	0.001060	20.756459
585.140192	-3.020700	3.692900	-11.154000	24.377679	0.001057	20.767422
586.132877	-3.006700	3.690900	-11.097000	24.391557	0.001058	20.751472
587.139242	-3.003800	3.691600	-11.088000	24.419035	0.001059	20.747270
588.135937	-3.006900	3.689900	-11.093000	24.460284	0.001058	20.761152
589.135740	-3.016400	3.689900	-11.130000	24.445184	0.001057	20.746003
590.138325	-2.988800	3.691800	-11.032000	24.445209	0.001056	20.751718
591.139289	-3.009100	3.691500	-11.107000	24.436246	0.001056	20.761218
592.140397	-2.984200	3.690000	-11.009000	24.450473	0.001057	20.761741
593.136174	-3.021300	3.689200	-11.145000	24.474535	0.001055	20.742733
594.137360	-2.995000	3.689600	-11.049000	24.491443	0.001060	20.754955
595.139591	-2.987600	3.690700	-11.026000	24.487753	0.001058	20.759313
596.131945	-2.974600	3.689700	-10.975000	24.465866	0.001058	20.762011
597.139227	-2.998700	3.689100	-11.060000	24.450262	0.001056	20.760581
598.136912	-3.021100	3.687400	-11.139000	24.452307	0.001056	20.754097
599.134090	-3.005500	3.687600	-11.082000	24.437729	0.001056	20.740894
600.133245	-3.021500	3.687700	-11.141000	24.402502	0.001056	20.774781
601.143300	-2.989600	3.688300	-11.024000	24.361235	0.001056	20.745710
602.136626	-2.979400	3.687800	-10.986000	24.360958	0.001058	20.762976
603.133165	-3.007500	3.685700	-11.084000	24.368716	0.001054	20.749896
604.136054	-3.029400	3.685400	-11.164000	24.383760	0.001057	20.757875
605.137299	-2.994800	3.686100	-11.038000	24.391379	0.001055	20.743233
606.136544	-2.985300	3.687100	-11.006000	24.414612	0.001057	20.776972
607.138254	-2.992900	3.686000	-11.031000	24.434413	0.001056	20.748473
608.142179	-2.982700	3.684900	-10.990000	24.477837	0.001055	20.751735
609.137960	-3.003600	3.684000	-11.065000	24.478008	0.001054	20.750959
610.135234	-2.982400	3.684900	-10.988000	24.505272	0.001055	20.733267
611.140576	-2.999400	3.684400	-11.051000	24.532910	0.001054	20.755308
612.136856	-2.998200	3.683700	-11.044000	24.566056	0.001056	20.746364
613.136737	-2.970100	3.685000	-10.943000	24.591004	0.001055	20.766181
614.139620	-2.965900	3.684600	-10.928000	24.622037	0.001055	20.749905
615.140229	-2.978600	3.684400	-10.973000	24.603649	0.001055	20.734298
616.139266	-2.982900	3.684700	-10.989000	24.567343	0.001053	20.727741
617.139807	-3.023800	3.680900	-11.129000	24.556744	0.001055	20.746978
618.146201	-3.020000	3.682100	-11.119000	24.561192	0.001055	20.742907
619.145594	-3.032400	3.681300	-11.161000	24.573186	0.001054	20.751148
620.139186	-3.012300	3.680800	-11.087000	24.556915	0.001053	20.746202
621.141037	-3.020600	3.679700	-11.114000	24.530377	0.001054	20.750870
622.141523	-2.990800	3.680800	-11.008000	24.535975	0.001054	20.736097
623.144809	-2.986100	3.680900	-10.990000	24.521601	0.001052	20.749177
624.143052	-3.005200	3.680200	-11.059000	24.492871	0.001053	20.745482
625.145853	-3.015500	3.679500	-11.093000	24.475784	0.001052	20.746831
626.144991	-3.019300	3.679300	-11.107000	24.516648	0.001054	20.757958
627.145435	-3.006800	3.678800	-11.061000	24.525512	0.001052	20.713270
628.147442	-2.983200	3.679700	-10.976000	24.520852	0.001054	20.728036
629.142444	-2.998800	3.679300	-11.032000	24.546347	0.001051	20.731330
630.145216	-3.001600	3.679400	-11.044000	24.564630	0.001051	20.749202
631.147593	-3.014400	3.677000	-11.083000	24.595616	0.001051	20.737617
632.144171	-3.013000	3.676900	-11.077000	24.564704	0.001050	20.730308
633.146390	-3.001300	3.677800	-11.036000	24.552165	0.001050	20.737642
634.152201	-2.968800	3.677500	-10.916000	24.521430	0.001049	20.748531
635.147280	-2.992100	3.678400	-11.005000	24.511082	0.001048	20.743839
636.148883	-2.992600	3.675800	-10.998000	24.495861	0.001048	20.720506
637.148655	-3.006500	3.676000	-11.050000	24.542501	0.001048	20.751654
638.148642	-3.000000	3.676200	-11.028000	24.551480	0.001048	20.741222
639.150956	-3.009500	3.677100	-11.065000	24.546102	0.001051	20.746733
640.147295	-2.984700	3.674900	-10.966000	24.536031	0.001050	20.739473
641.159870	-3.006000	3.674100	-11.042000	24.524844	0.001050	20.734886
642.154733	-3.005600	3.675900	-11.047000	24.537807	0.001050	20.735564
643.147595	-2.986800	3.675000	-10.975000	24.570814	0.001048	20.749716
644.152743	-2.992200	3.674500	-10.992000	24.568777	0.001048	20.714954
645.151501	-3.005800	3.673800	-11.042000	24.544455	0.001049	20.730381
646.152582	-3.004200	3.674000	-11.036000	24.558934	0.001050	20.714561
647.152153	-2.996300	3.672900	-11.004000	24.576174	0.001049	20.752724
648.153772	-2.992000	3.675100	-10.994000	24.583825	0.001047	20.735270
649.148014	-3.021700	3.672600	-11.097000	24.593725	0.001048	20.729081
650.156193	-3.003500	3.672800	-11.030000	24.635137	0.001046	20.720374
651.154799	-3.021400	3.673100	-11.096000	24.660230	0.001045	20.735123
652.152349	-3.012000	3.670700	-11.055000	24.660182	0.001048	20.710416
653.156335	-3.006100	3.670000	-11.030000	24.677714	0.001046	20.717104
654.152929	-3.008400	3.670300	-11.041000	24.685176	0.001045	20.703254
655.154265	-3.007500	3.670300	-11.038000	24.697388	0.001046	20.726416
656.157365	-3.003900	3.671300	-11.025000	24.705942	0.001043	20.734051
657.158324	-3.000000	3.671600	-11.013000	24.671424	0.001044	20.731182
658.154464	-2.999400	3.670800	-11.009000	24.669159	0.001045	20.752144
659.154459	-3.019600	3.670600	-11.083000	24.676475	0.001045	20.726293
660.151511	-2.992400	3.670000	-10.981000	24.663391	0.001046	20.704153
661.155564	-2.985300	3.669000	-10.951000	24.686724	0.001044	20.724723
662.155651	-2.995900	3.668300	-10.989000	24.723302	0.001044	20.716384
663.155150	-3.024400	3.668500	-11.094000	24.701168	0.001043	20.716932
664.152441	-3.004500	3.669100	-11.023000	24.686227	0.001044	20.746985
665.154322	-2.970400	3.669000	-10.898000	24.640864	0.001044	20.730389
666.158268	-3.014200	3.666800	-11.051000	24.633108	0.001041	20.711699
667.160839	-3.026000	3.667100	-11.095000	24.650291	0.001044	20.696697
668.157397	-2.994800	3.668400	-10.985000	24.662332	0.001043	20.724428
669.151961	-3.005600	3.665800	-11.018000	24.666682	0.001041	20.692756
670.157873	-3.022100	3.665500	-11.075000	24.658625	0.001041	20.696525
671.161101	-3.017300	3.665200	-11.057000	24.647243	0.001040	20.708813
672.159627	-2.997300	3.664800	-10.984000	24.634330	0.001041	20.696329
673.158354	-2.998400	3.664500	-10.987000	24.658429	0.001042	20.702967
674.155466	-3.000200	3.664700	-10.994000	24.664849	0.001040	20.707987
675.156781	-3.007200	3.664000	-11.017000	24.643683	0.001039	20.703343
676.157725	-3.015700	3.664200	-11.049000	24.652913	0.001040	20.692216
677.158316	-2.976600	3.664200	-10.906000	24.640897	0.001040	20.705763
678.158242	-2.993000	3.665200	-10.969000	24.663155	0.001038	20.707709
679.155136	-3.004200	3.664100	-11.007000	24.656116	0.001039	20.712026
680.154718	-3.018700	3.661900	-11.054000	24.653028	0.001040	20.720308
681.158720	-2.988300	3.664400	-10.949000	24.698439	0.001040	20.713719
682.160166	-2.972000	3.664100	-10.888000	24.709453	0.001039	20.714814
683.160536	-2.995100	3.663300	-10.970000	24.706594	0.001040	20.718583
684.158110	-3.013100	3.661400	-11.032000	24.716313	0.001038	20.702257
685.155540	-2.974200	3.661800	-10.889000	24.696199	0.001039	20.704832
686.160091	-2.990400	3.661800	-10.949000	24.722634	0.001038	20.701488
687.158939	-2.983800	3.661800	-10.924000	24.738846	0.001039	20.706377
688.159182	-3.009500	3.660300	-11.015000	24.707824	0.001036	20.708438
689.159900	-2.982400	3.660500	-10.916000	24.735636	0.001036	20.715485
690.158356	-3.000500	3.659500	-10.979000	24.752271	0.001037	20.710841
691.155701	-3.019000	3.658600	-11.044000	24.786567	0.001035	20.715861
692.156878	-2.998400	3.660000	-10.973000	24.798542	0.001036	20.696109
693.161107	-2.980700	3.660800	-10.910000	24.800326	0.001035	20.712599
694.159134	-2.988800	3.658700	-10.933000	24.779146	0.001036	20.692291
695.158747	-2.989600	3.659400	-10.938000	24.780034	0.001036	20.700295
696.158247	-2.980700	3.658300	-10.903000	24.787822	0.001035	20.691988
697.160085	-3.011600	3.658100	-11.015000	24.813303	0.001034	20.716140
698.159581	-3.003000	3.657400	-10.982000	24.780034	0.001034	20.702666
699.163445	-2.974200	3.658400	-10.879000	24.754146	0.001033	20.695177
700.158556	-3.002000	3.657800	-10.980000	24.753029	0.001033	20.696902
701.168926	-2.995700	3.657600	-10.954000	24.796693	0.001033	20.706582
702.161229	-3.002400	3.656200	-10.975000	24.800473	0.001034	20.704211
703.162414	-2.986300	3.656600	-10.919000	24.807861	0.001033	20.699772
704.161030	-2.997200	3.656100	-10.957000	24.797809	0.001032	20.702961
705.159081	-3.005000	3.655300	-10.983000	24.786046	0.001034	20.701113
706.159363	-3.010100	3.654400	-10.998000	24.803234	0.001034	20.706983
707.157993	-3.026600	3.654000	-11.058000	24.836835	0.001032	20.711307
708.163757	-3.000400	3.655900	-10.967000	24.797841	0.001031	20.713899
709.167248	-2.997100	3.654000	-10.950000	24.798664	0.001033	20.703819
710.163851	-2.988800	3.654300	-10.921000	24.743384	0.001031	20.682006
711.158416	-3.014500	3.652800	-11.010000	24.739188	0.001032	20.673527
712.163066	-2.975700	3.653100	-10.869000	24.769721	0.001030	20.689470
713.162258	-3.011800	3.652700	-11.000000	24.774340	0.001031	20.684148
714.162455	-2.989900	3.653800	-10.923000	24.771089	0.001030	20.686576
715.167223	-2.994000	3.653500	-10.936000	24.796236	0.001031	20.691424
716.161272	-3.001300	3.651500	-10.958000	24.802231	0.001031	20.698864
717.163947	-2.994300	3.652500	-10.935000	24.795242	0.001030	20.693271
718.159845	-3.025500	3.650500	-11.043000	24.851790	0.001031	20.706876
719.164001	-3.008100	3.651100	-10.982000	24.852637	0.001029	20.679274
720.165155	-3.016300	3.649900	-11.008000	24.848157	0.001028	20.679045
721.165110	-3.004500	3.650800	-10.968000	24.861687	0.001029	20.694996
722.158887	-3.014700	3.650200	-11.003000	24.872577	0.001028	20.685063
723.162251	-3.010200	3.649700	-10.986000	24.856906	0.001028	20.693043
724.161141	-3.008500	3.648300	-10.975000	24.879191	0.001029	20.680795
725.158002	-3.010000	3.649300	-10.983000	24.894488	0.001030	20.670542
726.161153	-3.010300	3.649300	-10.985000	24.877831	0.001025	20.674213
727.159163	-2.995600	3.648600	-10.927000	24.879664	0.001028	20.675579
728.160826	-2.997200	3.648500	-10.933000	24.911520	0.001027	20.672938
729.166510	-2.995300	3.647800	-10.924000	24.889299	0.001028	20.699476
730.161665	-2.988700	3.649000	-10.904000	24.904637	0.001024	20.684997
731.162486	-3.021800	3.645600	-11.014000	24.921326	0.001027	20.671400
732.163954	-3.011300	3.647300	-10.982000	24.929267	0.001026	20.667042
733.159877	-3.020100	3.645300	-11.007000	24.967947	0.001023	20.701602
734.161270	-2.977000	3.647000	-10.856000	24.949173	0.001025	20.700776
735.160911	-2.996200	3.647600	-10.928000	24.998937	0.001024	20.685765
736.160499	-2.981400	3.646400	-10.869000	24.972451	0.001025	20.690474
737.162084	-3.005500	3.645800	-10.956000	24.970691	0.001023	20.675430
738.160782	-3.010300	3.645500	-10.973000	24.956153	0.001023	20.675536
739.161385	-2.994900	3.647000	-10.921000	24.932574	0.001024	20.667990
740.161675	-2.990500	3.644900	-10.899000	24.926367	0.001023	20.691160
741.165345	-3.025200	3.644100	-11.023000	24.903226	0.001024	20.675520
742.171653	-2.996200	3.643000	-10.914000	24.895814	0.001023	20.672347
743.162429	-2.999500	3.643000	-10.927000	24.889925	0.001021	20.687301
744.170499	-2.991200	3.643600	-10.897000	24.910565	0.001021	20.688576
745.173860	-3.006700	3.642700	-10.951000	24.931856	0.001024	20.664424
746.169310	-2.996700	3.643800	-10.918000	24.942119	0.001020	20.691798
747.169379	-2.996600	3.642100	-10.913000	24.956714	0.001021	20.685110
748.170391	-2.980100	3.643200	-10.856000	24.964305	0.001021	20.702687
749.166009	-2.980100	3.644600	-10.861000	24.994041	0.001020	20.680376
750.170584	-3.008300	3.641400	-10.953000	24.994366	0.001020	20.673589
751.167709	-3.012000	3.641200	-10.966000	24.993250	0.001018	20.673892
752.165547	-3.012400	3.640500	-10.964000	24.997746	0.001018	20.699744
753.169457	-3.004200	3.641400	-10.939000	25.043598	0.001020	20.680334
754.167512	-3.013200	3.641900	-10.973000	24.997656	0.001017	20.667408
755.171341	-3.008200	3.640600	-10.950000	24.966144	0.001018	20.690782
756.175339	-2.999500	3.641300	-10.921000	24.968107	0.001019	20.659084
757.173622	-2.988000	3.640100	-10.876000	24.976985	0.001017	20.697871
758.171179	-3.003700	3.641100	-10.935000	24.965770	0.001017	20.689458
759.173272	-3.001800	3.640600	-10.927000	25.008015	0.001018	20.696301
760.175035	-3.000300	3.637900	-10.913000	25.026161	0.001018	20.689858
761.170815	-3.008400	3.639300	-10.947000	25.031870	0.001019	20.679941
762.177941	-3.009100	3.639200	-10.949000	25.027073	0.001018	20.683661
763.174638	-2.995600	3.639200	-10.899000	25.054624	0.001017	20.680496
764.175556	-3.005500	3.637600	-10.931000	25.039736	0.001019	20.677880
765.172147	-3.013700	3.638100	-10.963000	25.027430	0.001015	20.675958
766.181258	-3.014600	3.637300	-10.964000	25.037920	0.001016	20.675108
767.177555	-3.017200	3.636900	-10.972000	25.022886	0.001016	20.671870
768.175362	-2.991700	3.637300	-10.881000	25.039052	0.001018	20.684306
769.175596	-2.992700	3.636800	-10.883000	25.041813	0.001015	20.686603
770.175705	-2.990700	3.636700	-10.875000	25.070944	0.001016	20.706364
771.176653	-2.995800	3.636300	-10.891000	25.084748	0.001014	20.681338
772.173421	-2.986000	3.636200	-10.856000	25.100058	0.001014	20.682008
773.179317	-3.014100	3.634600	-10.954000	25.096605	0.001015	20.699406
774.176673	-2.998300	3.635200	-10.898000	25.101361	0.001012	20.690903
775.180111	-3.016700	3.635500	-10.964000	25.120628	0.001014	20.683692
776.175992	-3.012800	3.634000	-10.947000	25.139073	0.001013	20.683717
777.177519	-3.016300	3.634000	-10.960000	25.141060	0.001013	20.689979
778.178582	-2.997200	3.635000	-10.892000	25.144244	0.001012	20.703134
779.180954	-3.002500	3.633400	-10.908000	25.118365	0.001012	20.679048
780.182616	-3.016500	3.632900	-10.957000	25.116573	0.001013	20.677724
781.182290	-2.994100	3.632200	-10.874000	25.122843	0.001011	20.680225
782.182291	-2.974800	3.633600	-10.808000	25.111019	0.001009	20.685899
783.181546	-2.997800	3.632200	-10.888000	25.067409	0.001010	20.684321
784.180920	-3.000300	3.632800	-10.899000	25.085456	0.001010	20.681574
785.184786	-2.993300	3.632300	-10.872000	25.059533	0.001008	20.704393
786.180430	-3.003100	3.630600	-10.903000	25.067637	0.001009	20.685024
787.187297	-3.002000	3.630100	-10.896000	25.056430	0.001008	20.688000
788.181734	-2.980800	3.631800	-10.823000	25.032381	0.001007	20.706535
789.185773	-3.007200	3.631000	-10.918000	25.027112	0.001008	20.697452
790.185277	-3.000800	3.630800	-10.894000	24.995739	0.001009	20.696781
791.187954	-3.002600	3.630300	-10.899000	25.047423	0.001006	20.701245
792.180951	-3.008700	3.629900	-10.920000	25.027951	0.001009	20.687387
793.181574	-3.005300	3.630000	-10.909000	25.021972	0.001007	20.710786
794.187295	-3.002700	3.630500	-10.900000	25.013974	0.001006	20.693273
795.186186	-3.004800	3.628400	-10.901000	24.980053	0.001005	20.716125
796.183509	-2.995200	3.628800	-10.868000	24.970003	0.001004	20.703191
797.185769	-3.000700	3.628100	-10.886000	24.979483	0.001003	20.720768
798.186419	-2.995400	3.627800	-10.866000	24.989574	0.001006	20.714302
799.183800	-3.026200	3.627500	-10.976000	25.040989	0.001005	20.690044
800.189204	-3.001500	3.627300	-10.887000	25.079323	0.001004	20.700550
801.187037	-3.021500	3.626500	-10.957000	25.099805	0.001004	20.715896
802.190334	-2.973500	3.628500	-10.788000	25.115050	0.001004	20.721243
803.185441	-2.992200	3.628000	-10.854000	25.095806	0.001004	20.687698
804.187290	-2.997500	3.626400	-10.869000	25.090610	0.001004	20.699078
805.188405	-2.978800	3.626300	-10.801000	25.071122	0.001004	20.701327
806.188512	-2.989600	3.625700	-10.838000	25.079372	0.001004	20.710557
807.193480	-2.995700	3.625900	-10.861000	25.112387	0.001005	20.695334
808.190288	-2.999900	3.625500	-10.875000	25.117460	0.001001	20.708014
809.188969	-2.998700	3.624100	-10.867000	25.098445	0.001003	20.698882
810.191770	-3.012400	3.622800	-10.911000	25.074852	0.001001	20.711236
811.191565	-2.997800	3.622900	-10.859000	25.085097	0.001000	20.690224
812.188846	-3.007500	3.624300	-10.899000	25.103860	0.001001	20.720441
813.192058	-2.991900	3.623400	-10.839000	25.120872	0.001001	20.721872
814.188645	-3.007900	3.622700	-10.895000	25.128950	0.001001	20.726663
815.192731	-2.988100	3.623600	-10.825000	25.164089	0.001001	20.700771
816.190665	-3.010400	3.622700	-10.905000	25.150156	0.001001	20.709543
817.193966	-3.006900	3.622200	-10.890000	25.149529	0.001000	20.729778
818.198982	-3.019300	3.620900	-10.931000	25.176548	0.000999	20.710909
819.193609	-3.022600	3.620800	-10.942000	25.174464	0.000998	20.713083
820.203015	-2.973200	3.621400	-10.766000	25.183315	0.000999	20.705373
821.189663	-3.002400	3.620600	-10.869000	25.179757	0.000999	20.726933
822.195014	-2.981100	3.621000	-10.793000	25.209242	0.000997	20.719550
823.193565	-2.997100	3.619400	-10.847000	25.190399	0.000996	20.704425
824.195982	-2.990200	3.620000	-10.824000	25.140091	0.000996	20.703705
825.193021	-2.980600	3.619100	-10.785000	25.141630	0.000996	20.715209
826.198999	-3.007600	3.618700	-10.882000	25.087792	0.000996	20.719484
827.196157	-2.997600	3.619300	-10.848000	25.091856	0.000995	20.710287
828.196382	-2.994000	3.620700	-10.839000	25.117720	0.000996	20.715388
829.195686	-3.007200	3.617900	-10.879000	25.136532	0.000994	20.723842
830.195623	-2.982400	3.617400	-10.787000	25.138730	0.000995	20.717514
831.194064	-2.986100	3.617600	-10.802000	25.115603	0.000995	20.719427
832.192418	-2.995700	3.618100	-10.838000	25.134871	0.000994	20.734029
833.196529	-2.997200	3.616800	-10.839000	25.099894	0.000994	20.730211
834.193863	-3.000200	3.617600	-10.853000	25.082865	0.000992	20.729712
835.194077	-2.977300	3.615900	-10.765000	25.120400	0.000993	20.724717
836.194884	-2.993100	3.616400	-10.823000	25.161499	0.000994	20.718560
837.194983	-2.974900	3.616800	-10.759000	25.174716	0.000994	20.726140
838.194710	-2.975600	3.616600	-10.760000	25.198534	0.000994	20.719705
839.197563	-2.982400	3.616300	-10.784000	25.187321	0.000990	20.721725
840.198676	-3.013300	3.614600	-10.891000	25.207776	0.000990	20.730881
841.195336	-3.005100	3.615600	-10.864000	25.210292	0.000991	20.713017
842.201333	-2.994000	3.616200	-10.826000	25.205171	0.000992	20.709772
843.198631	-3.001600	3.615500	-10.851000	25.192883	0.000992	20.724938
844.198352	-3.019400	3.613800	-10.910000	25.200969	0.000990	20.731159
845.198683	-2.988200	3.613700	-10.797000	25.177330	0.000990	20.725444
846.199327	-3.008500	3.612900	-10.869000	25.170441	0.000989	20.741763
847.194685	-3.009600	3.612200	-10.869000	25.178372	0.000989	20.740716
848.198106	-2.997900	3.612400	-10.828000	25.200765	0.000990	20.746603
849.202053	-2.991100	3.613300	-10.807000	25.248075	0.000989	20.744313
850.197479	-3.035600	3.609500	-10.956000	25.277298	0.000989	20.748998
851.201138	-3.000000	3.612500	-10.836000	25.305617	0.000989	20.733808
852.205023	-3.002700	3.611400	-10.843000	25.315803	0.000988	20.736923
853.202625	-2.993400	3.612000	-10.812000	25.250094	0.000985	20.757721
854.202799	-2.978000	3.611700	-10.755000	25.238483	0.000986	20.750805
855.203849	-2.973900	3.611200	-10.737000	25.194161	0.000986	20.745662
856.201264	-2.994700	3.610900	-10.812000	25.184886	0.000984	20.748679
857.204382	-3.000100	3.608600	-10.825000	25.175440	0.000986	20.742989
858.204695	-2.993900	3.610800	-10.809000	25.174797	0.000984	20.741395
859.202043	-2.979800	3.610300	-10.756000	25.175188	0.000983	20.737994
860.201116	-3.009300	3.608500	-10.858000	25.175139	0.000984	20.746954
861.200750	-3.031100	3.608500	-10.936000	25.187899	0.000982	20.726573
862.202821	-2.995800	3.608000	-10.808000	25.220113	0.000982	20.732361
863.200832	-3.028900	3.607000	-10.923000	25.251202	0.000982	20.760256
864.207774	-3.003800	3.608400	-10.837000	25.250534	0.000984	20.745834
865.207063	-3.015200	3.606900	-10.874000	25.231667	0.000983	20.752023
866.205757	-3.021300	3.607500	-10.898000	25.223753	0.000980	20.748344
867.200754	-3.010400	3.607200	-10.858000	25.235967	0.000981	20.745908
868.204916	-3.017700	3.606500	-10.882000	25.253759	0.000979	20.732001
869.203965	-3.016600	3.606700	-10.879000	25.255102	0.000980	20.751843
870.204625	-2.994100	3.607800	-10.801000	25.264572	0.000979	20.743333
871.207331	-3.028100	3.605000	-10.915000	25.264018	0.000978	20.747993
872.207411	-3.012000	3.604300	-10.855000	25.292769	0.000978	20.764532
873.203139	-3.019600	3.604300	-10.883000	25.323888	0.000978	20.747413
874.204999	-3.006000	3.603700	-10.831000	25.382469	0.000977	20.735583
875.207316	-2.984500	3.604200	-10.756000	25.360617	0.000978	20.754419
876.207553	-2.992000	3.604200	-10.783000	25.346898	0.000978	20.763404
877.213793	-2.970100	3.605200	-10.705000	25.333472	0.000977	20.757510
878.208167	-3.004100	3.604000	-10.825000	25.339481	0.000977	20.757379
879.207784	-3.018400	3.602000	-10.871000	25.330394	0.000975	20.763428
880.209860	-2.987000	3.603700	-10.762000	25.352850	0.000975	20.745672
881.206298	-3.001200	3.602100	-10.809000	25.358118	0.000976	20.765661
882.206176	-3.013700	3.600600	-10.849000	25.388665	0.000975	20.749866
883.204806	-3.019800	3.600800	-10.873000	25.333725	0.000974	20.772937
884.212113	-2.968500	3.602600	-10.694000	25.372350	0.000977	20.746760
885.206443	-3.006700	3.599500	-10.821000	25.366561	0.000974	20.767975
886.209590	-2.982200	3.601700	-10.740000	25.362124	0.000974	20.762571
887.206622	-2.988200	3.600300	-10.757000	25.327847	0.000973	20.760871
888.209507	-3.016900	3.599200	-10.857000	25.344351	0.000972	20.776494
889.211145	-3.012000	3.599700	-10.842000	25.331153	0.000972	20.772251
890.212790	-3.004900	3.600700	-10.818000	25.301003	0.000971	20.755729
891.208134	-3.007800	3.599400	-10.826000	25.318924	0.000972	20.765662
892.207223	-3.003500	3.599000	-10.808000	25.331243	0.000970	20.771867
893.211627	-2.989800	3.599600	-10.761000	25.352224	0.000971	20.778710
894.213490	-2.991000	3.599600	-10.766000	25.357883	0.000970	20.785814
895.212096	-2.994500	3.598100	-10.773000	25.378612	0.000969	20.782920
896.212274	-2.985400	3.598300	-10.740000	25.421061	0.000968	20.763904
897.213959	-2.987000	3.597200	-10.743000	25.416388	0.000969	20.764902
898.209390	-2.999400	3.596200	-10.785000	25.388032	0.000969	20.759662
899.211274	-2.981400	3.598400	-10.727000	25.393771	0.000970	20.774908
900.212110	-2.987300	3.596000	-10.740000	25.340337	0.000967	20.758713
901.222596	-2.978600	3.597000	-10.713000	25.339987	0.000967	20.787760
902.212217	-2.974600	3.596000	-10.696000	25.355367	0.000968	20.788978
903.212283	-3.001500	3.595900	-10.791000	25.388048	0.000967	20.786231
904.214329	-2.969300	3.597600	-10.682000	25.425254	0.000964	20.787081
905.215869	-3.001700	3.594200	-10.787000	25.428552	0.000965	20.787074
906.212877	-2.989600	3.594400	-10.744000	25.432232	0.000965	20.783182
907.220525	-2.997800	3.593900	-10.773000	25.417740	0.000966	20.784752
908.211053	-2.984900	3.593900	-10.727000	25.393455	0.000963	20.773642
909.214389	-2.997600	3.593000	-10.769000	25.369494	0.000964	20.782300
910.223824	-3.029700	3.593100	-10.884000	25.356020	0.000963	20.795323
911.215343	-3.015900	3.592800	-10.835000	25.345484	0.000962	20.798969
912.216851	-2.971600	3.594100	-10.679000	25.376822	0.000959	20.783019
913.215327	-2.986800	3.593100	-10.731000	25.393723	0.000961	20.798094
914.220582	-3.007700	3.592100	-10.803000	25.402891	0.000960	20.791178
915.215586	-2.989800	3.592100	-10.738000	25.436165	0.000961	20.790451
916.216867	-2.987800	3.593200	-10.735000	25.439071	0.000961	20.792421
917.220826	-2.992000	3.591100	-10.743000	25.451991	0.000959	20.788799
918.215956	-2.973800	3.592800	-10.682000	25.405220	0.000962	20.802051
919.220104	-2.997800	3.591100	-10.764000	25.366442	0.000958	20.808632
920.223994	-2.994700	3.589900	-10.750000	25.340445	0.000961	20.794858
921.223862	-3.007200	3.589900	-10.793000	25.321132	0.000957	20.780208
922.222478	-3.022200	3.589400	-10.847000	25.325830	0.000959	20.796779
923.222675	-3.014600	3.588400	-10.816000	25.351998	0.000957	20.804087
924.222655	-3.012800	3.588100	-10.809000	25.384679	0.000957	20.806556
925.223576	-3.015100	3.589200	-10.821000	25.414729	0.000956	20.802117
926.232603	-2.984600	3.588500	-10.709000	25.417775	0.000958	20.819874
927.223693	-2.990300	3.587900	-10.728000	25.462185	0.000957	20.797613
928.225831	-2.980100	3.587400	-10.690000	25.469788	0.000954	20.818525
929.224587	-2.988000	3.588500	-10.722000	25.445137	0.000955	20.814159
930.224373	-3.003200	3.586800	-10.771000	25.448410	0.000955	20.801799
931.221512	-3.004500	3.587200	-10.776000	25.445186	0.000956	20.815157
932.223164	-3.001900	3.587000	-10.767000	25.405262	0.000952	20.804464
933.226060	-2.998600	3.586700	-10.753000	25.431135	0.000953	20.794883
934.225541	-3.006000	3.585400	-10.777000	25.422587	0.000952	20.796257
935.224145	-2.998400	3.585700	-10.749000	25.428221	0.000950	20.812819
936.227026	-3.009700	3.585800	-10.792000	25.407647	0.000951	20.794532
937.224370	-3.017900	3.585900	-10.821000	25.386097	0.000950	20.817463
938.221148	-3.027300	3.583200	-10.847000	25.412467	0.000949	20.810751
939.228499	-2.972100	3.586500	-10.658000	25.419998	0.000949	20.813097
940.225099	-2.980900	3.584600	-10.683000	25.434017	0.000950	20.813898
941.222475	-2.998400	3.583100	-10.742000	25.467640	0.000948	20.815419
942.231001	-2.995900	3.582800	-10.732000	25.498803	0.000947	20.804513
943.230829	-3.015700	3.582100	-10.801000	25.504249	0.000946	20.806189
944.229560	-2.993900	3.583500	-10.726000	25.550039	0.000947	20.818035
945.230966	-2.984000	3.583500	-10.692000	25.546864	0.000948	20.818166
946.226389	-3.004600	3.582000	-10.762000	25.520449	0.000947	20.833837
947.230635	-3.003800	3.581300	-10.756000	25.501139	0.000945	20.830567
948.226314	-2.999700	3.581800	-10.743000	25.488187	0.000948	20.813768
949.234924	-2.999300	3.581900	-10.742000	25.489978	0.000945	20.827894
950.228029	-3.004100	3.580700	-10.756000	25.498803	0.000943	20.827747
951.228055	-2.989500	3.580300	-10.702000	25.498900	0.000944	20.830690
952.234298	-3.014000	3.579100	-10.787000	25.484858	0.000943	20.836976
953.225553	-3.015700	3.577900	-10.789000	25.499226	0.000943	20.820111
954.227625	-3.003000	3.579500	-10.748000	25.456348	0.000945	20.820202
955.227294	-2.989300	3.579600	-10.699000	25.458269	0.000943	20.837777
956.228337	-2.972000	3.579300	-10.636000	25.441295	0.000942	20.805560
957.227623	-2.994300	3.578600	-10.714000	25.392977	0.000942	20.833854
958.230314	-2.998900	3.578900	-10.732000	25.387790	0.000941	20.832913
959.229442	-3.011700	3.576700	-10.771000	25.388214	0.000941	20.838554
960.228745	-2.994700	3.576300	-10.709000	25.369301	0.000941	20.817667
961.229430	-3.005500	3.577300	-10.750000	25.392553	0.000940	20.841015
962.229369	-3.015700	3.577000	-10.786000	25.446880	0.000939	20.830134
963.231551	-2.999600	3.576000	-10.725000	25.468356	0.000940	20.837949
964.228686	-2.987400	3.577200	-10.685000	25.485078	0.000937	20.840990
965.230752	-3.013300	3.575400	-10.772000	25.492502	0.000937	20.847497
966.229771	-3.010700	3.574600	-10.760000	25.516916	0.000938	20.833134
967.230334	-3.013400	3.575100	-10.773000	25.545188	0.000937	20.850146
968.230790	-2.992300	3.575200	-10.696000	25.588551	0.000938	20.823995
969.230798	-3.006900	3.573400	-10.744000	25.630935	0.000935	20.848070
970.230098	-2.967900	3.574900	-10.608000	25.606442	0.000934	20.822523
971.237378	-2.993800	3.573300	-10.697000	25.638814	0.000933	20.864517
972.234800	-2.990600	3.573900	-10.687000	25.648655	0.000933	20.848797
973.234138	-2.973500	3.574600	-10.627000	25.665105	0.000933	20.847775
974.236294	-3.012800	3.572500	-10.763000	25.665545	0.000932	20.838734
975.235744	-3.000900	3.572800	-10.720000	25.680424	0.000933	20.840402
976.233250	-2.982100	3.572800	-10.653000	25.702343	0.000933	20.860520
977.235075	-2.989300	3.573100	-10.681000	25.711914	0.000934	20.860650
978.233248	-2.980800	3.572300	-10.647000	25.708699	0.000932	20.857422
979.232584	-3.007600	3.571500	-10.741000	25.727680	0.000931	20.841400
980.234796	-3.011100	3.570300	-10.749000	25.720794	0.000933	20.845389
981.235966	-2.987200	3.572000	-10.669000	25.727175	0.000931	20.848479
982.235332	-2.975100	3.571000	-10.623000	25.763093	0.000930	20.848046
983.236291	-2.981700	3.572400	-10.649000	25.808107	0.000930	20.844899
984.238502	-2.996800	3.570700	-10.700000	25.832758	0.000929	20.859229
985.236193	-2.985000	3.570400	-10.657000	25.848700	0.000927	20.857701
986.240304	-3.020100	3.568400	-10.776000	25.862958	0.000927	20.848316
987.232677	-3.008600	3.568000	-10.734000	25.849539	0.000927	20.845742
988.237032	-3.002300	3.568600	-10.713000	25.852884	0.000927	20.845783
989.234930	-3.003100	3.568300	-10.714000	25.850329	0.000927	20.845112
990.239295	-2.986200	3.568500	-10.655000	25.859191	0.000925	20.825093
991.237018	-2.981900	3.568100	-10.637000	25.849531	0.000926	20.853794
992.235278	-3.020200	3.566500	-10.771000	25.812560	0.000925	20.870233
993.239189	-2.985600	3.567300	-10.649000	25.751065	0.000925	20.863939
994.237261	-3.015300	3.566700	-10.754000	25.731865	0.000924	20.856034
995.237991	-3.019400	3.564700	-10.762000	25.700554	0.000925	20.842603
996.235976	-2.973600	3.567200	-10.607000	25.697250	0.000924	20.844026
997.239910	-2.987600	3.565100	-10.650000	25.697771	0.000921	20.856876
998.236730	-2.991800	3.566700	-10.670000	25.681321	0.000922	20.838933
999.241682	-3.008000	3.566400	-10.726000	25.660004	0.000923	20.836015
1000.240510	-3.010100	3.563700	-10.726000	25.660574	0.000922	20.838958
1001.237189	-3.000500	3.564400	-10.694000	25.663301	0.000920	20.830317
1002.243217	-2.985300	3.564000	-10.638000	25.682860	0.000920	20.836211
1003.245949	-2.989600	3.563100	-10.652000	25.698267	0.000920	20.828453
1004.241834	-2.989600	3.562800	-10.651000	25.692480	0.000920	20.825011
1005.239675	-2.976300	3.564200	-10.607000	25.666036	0.000918	20.825952
1006.242898	-3.005500	3.562500	-10.706000	25.664579	0.000919	20.833497
1007.242665	-2.995600	3.562400	-10.671000	25.667216	0.000917	20.814335
1008.238544	-2.991900	3.563200	-10.660000	25.681777	0.000916	20.822796
1009.244784	-2.998700	3.560900	-10.678000	25.714976	0.000917	20.824847
1010.245459	-2.994600	3.562400	-10.665000	25.753132	0.000916	20.843731
1011.240014	-3.014200	3.560000	-10.729000	25.759626	0.000917	20.798099
1012.244002	-2.998100	3.561500	-10.676000	25.779298	0.000915	20.809797
1013.244057	-3.008100	3.559200	-10.705000	25.769050	0.000915	20.814677
1014.242023	-2.988400	3.560600	-10.639000	25.788803	0.000915	20.824086
1015.246901	-2.989300	3.559600	-10.640000	25.822813	0.000913	20.816525
1016.250321	-3.007400	3.560000	-10.706000	25.817075	0.000915	20.834468
1017.245631	-2.992500	3.559100	-10.650000	25.834646	0.000913	20.806600
1018.243440	-2.968700	3.558500	-10.564000	25.812591	0.000912	20.801040
1019.248710	-2.990200	3.559500	-10.643000	25.812111	0.000912	20.790601
1020.245531	-3.002300	3.556900	-10.678000	25.755971	0.000912	20.803436
1021.243427	-3.017300	3.557100	-10.731000	25.731001	0.000910	20.808226
1022.246866	-3.019500	3.556200	-10.737000	25.727257	0.000912	20.819638
1023.243589	-2.991600	3.556700	-10.639000	25.699828	0.000909	20.807735
1024.246781	-3.006700	3.557400	-10.695000	25.686585	0.000909	20.799176
1025.246304	-3.023900	3.554200	-10.746000	25.696328	0.000908	20.812755
1026.244005	-3.005100	3.555900	-10.685000	25.722414	0.000911	20.799127
1027.246717	-3.003600	3.555600	-10.678000	25.724351	0.000907	20.809608
1028.246937	-2.992400	3.556500	-10.643000	25.752861	0.000906	20.797941
1029.246842	-3.003400	3.555600	-10.677000	25.781102	0.000905	20.799756
1030.241804	-3.004900	3.555100	-10.681000	25.781558	0.000906	20.810171
1031.245877	-3.005800	3.552100	-10.675000	25.787254	0.000905	20.807358
1032.248753	-2.994000	3.554400	-10.641000	25.797306	0.000905	20.798015
1033.246843	-2.990700	3.554200	-10.629000	25.794009	0.000906	20.795652
1034.248761	-2.993500	3.553900	-10.636000	25.798013	0.000905	20.799674
1035.250928	-3.016700	3.552100	-10.715000	25.789891	0.000904	20.799101
1036.253826	-3.013300	3.552400	-10.704000	25.813273	0.000904	20.802200
1037.253081	-2.988700	3.552000	-10.614000	25.806990	0.000903	20.782612
1038.254783	-2.995200	3.552400	-10.638000	25.773231	0.000902	20.778573
1039.256384	-3.001500	3.550800	-10.657000	25.753584	0.000901	20.795348
1040.254861	-3.004200	3.552100	-10.669000	25.767941	0.000902	20.791752
1041.251369	-2.997700	3.552900	-10.649000	25.750019	0.000901	20.773275
1042.258383	-3.017500	3.551600	-10.716000	25.756595	0.000901	20.778458
1043.250078	-3.009200	3.550500	-10.683000	25.776876	0.000898	20.782709
1044.253526	-3.014700	3.550000	-10.702000	25.749921	0.000898	20.798307
1045.254703	-2.983200	3.550300	-10.589000	25.766947	0.000899	20.773683
1046.252514	-3.039600	3.547700	-10.783000	25.745705	0.000898	20.790279
1047.251706	-3.002400	3.549900	-10.657000	25.754324	0.000899	20.790876
1048.255554	-3.005300	3.547800	-10.661000	25.760444	0.000895	20.773789
1049.254416	-2.995700	3.549600	-10.632000	25.760696	0.000897	20.770249
1050.250764	-3.023400	3.547500	-10.724000	25.728002	0.000894	20.799999
1051.253750	-3.024500	3.546500	-10.726000	25.683855	0.000895	20.784106
1052.249599	-2.993100	3.547400	-10.616000	25.668756	0.000894	20.766096
1053.261697	-3.013800	3.547400	-10.691000	25.656384	0.000893	20.785912
1054.252325	-2.978100	3.547500	-10.563000	25.649051	0.000894	20.788030
1055.252719	-2.969200	3.548500	-10.535000	25.666973	0.000891	20.758141
1056.252617	-2.992100	3.546000	-10.608000	25.683927	0.000893	20.784179
1057.256029	-3.016900	3.543900	-10.690000	25.686508	0.000891	20.767330
1058.258064	-3.001900	3.545400	-10.641000	25.730182	0.000891	20.768998
1059.255365	-2.998700	3.545900	-10.631000	25.755486	0.000891	20.777344
1060.256734	-3.002800	3.545700	-10.646000	25.775490	0.000891	20.779420
1061.259577	-2.987500	3.543300	-10.585000	25.771210	0.000891	20.798354
1062.253409	-2.992600	3.544400	-10.606000	25.778152	0.000891	20.760756
1063.259947	-2.992700	3.544300	-10.606000	25.778274	0.000889	20.781742
1064.253660	-2.981700	3.544000	-10.566000	25.754672	0.000888	20.799760
1065.254129	-3.016700	3.542700	-10.687000	25.698423	0.000887	20.768392
1066.259334	-3.009500	3.541800	-10.659000	25.669162	0.000885	20.768400
1067.258988	-2.992000	3.542900	-10.599000	25.679775	0.000887	20.771473
1068.257656	-3.012800	3.540300	-10.665000	25.678506	0.000887	20.760715
1069.257244	-3.002500	3.541600	-10.633000	25.710338	0.000885	20.768980
1070.254611	-2.997600	3.541400	-10.615000	25.718567	0.000884	20.767762
1071.260638	-3.013900	3.539700	-10.668000	25.719405	0.000886	20.775716
1072.259606	-2.991100	3.540900	-10.591000	25.717525	0.000885	20.768138
1073.257021	-3.010800	3.539300	-10.655000	25.760758	0.000884	20.753716
1074.254803	-2.993800	3.541300	-10.601000	25.756958	0.000884	20.772184
1075.257863	-2.995100	3.540500	-10.602000	25.710004	0.000884	20.764851
1076.261125	-2.993100	3.539600	-10.593000	25.686205	0.000881	20.759913
1077.261633	-3.010800	3.537400	-10.649000	25.679295	0.000882	20.757240
1078.261755	-2.990100	3.538900	-10.580000	25.681638	0.000880	20.739679
1079.259362	-3.012800	3.538000	-10.659000	25.637230	0.000880	20.771890
1080.265364	-3.011300	3.536400	-10.648000	25.595285	0.000879	20.768170
1081.262834	-3.004500	3.538100	-10.630000	25.620763	0.000880	20.742074
1082.263705	-2.992000	3.538400	-10.586000	25.651897	0.000879	20.774293
1083.260513	-2.984700	3.536700	-10.555000	25.684577	0.000879	20.774874
1084.262710	-2.978600	3.536500	-10.533000	25.665384	0.000879	20.763183
1085.264770	-2.995100	3.536000	-10.589000	25.686970	0.000876	20.754517
1086.264857	-3.010600	3.534900	-10.641000	25.727967	0.000877	20.760134
1087.265244	-3.004000	3.535600	-10.620000	25.729432	0.000875	20.765873
1088.265247	-3.000700	3.536500	-10.611000	25.721505	0.000876	20.754591
1089.273169	-2.998900	3.535000	-10.601000	25.733526	0.000873	20.766192
1090.262334	-3.001900	3.534600	-10.609000	25.729180	0.000876	20.759930
1091.262787	-3.015900	3.532800	-10.653000	25.716312	0.000872	20.757910
1092.267769	-3.005600	3.533800	-10.620000	25.736236	0.000872	20.755163
1093.269554	-3.012800	3.531600	-10.639000	25.750072	0.000874	20.767639
1094.266738	-2.974400	3.533800	-10.510000	25.770216	0.000872	20.739034
1095.267560	-2.999300	3.531500	-10.590000	25.824467	0.000872	20.748485
1096.270614	-3.007500	3.532200	-10.623000	25.842411	0.000871	20.750863
1097.268141	-3.011200	3.532000	-10.635000	25.872042	0.000871	20.732264
1098.264898	-2.984900	3.530400	-10.537000	25.859941	0.000871	20.745713
1099.265157	-2.975400	3.532300	-10.507000	25.852316	0.000868	20.739475
1100.269060	-3.010300	3.529300	-10.624000	25.813960	0.000866	20.729869
1101.267722	-2.998900	3.529500	-10.584000	25.824516	0.000868	20.742844
1102.268946	-3.016100	3.529600	-10.643000	25.828309	0.000867	20.757085
1103.269317	-3.005700	3.530700	-10.611000	25.865548	0.000868	20.774106
1104.267148	-3.008200	3.528700	-10.614000	25.886585	0.000867	20.742607
1105.269352	-3.024100	3.528400	-10.670000	25.903829	0.000867	20.751870
1106.267526	-2.989000	3.528200	-10.545000	25.907621	0.000864	20.769431
1107.264553	-2.990200	3.529200	-10.552000	25.853594	0.000865	20.767787
1108.265128	-3.027200	3.527100	-10.675000	25.834486	0.000865	20.747643
1109.266724	-2.979400	3.528200	-10.510000	25.850909	0.000865	20.752287
1110.265155	-2.999800	3.526700	-10.578000	25.818031	0.000864	20.747235
1111.270447	-3.009100	3.526300	-10.610000	25.796790	0.000862	20.740122
1112.268536	-3.025800	3.524800	-10.665000	25.765407	0.000862	20.757438
1113.265754	-3.009700	3.526500	-10.613000	25.719276	0.000862	20.742869
1114.273633	-2.992300	3.527100	-10.553000	25.682080	0.000861	20.730165
1115.266744	-3.004300	3.526300	-10.594000	25.664507	0.000860	20.735274
1116.268862	-3.003700	3.523600	-10.584000	25.668610	0.000860	20.736076
1117.271092	-2.988900	3.524500	-10.534000	25.654699	0.000860	20.731113
1118.269317	-2.984000	3.524700	-10.516000	25.605226	0.000858	20.741169
1119.268002	-3.001500	3.523300	-10.574000	25.624721	0.000857	20.739886
1120.268378	-3.009000	3.523100	-10.599000	25.657321	0.000858	20.761248
1121.266722	-3.013100	3.522300	-10.611000	25.675879	0.000858	20.753809
1122.269519	-2.993600	3.522600	-10.544000	25.663612	0.000857	20.741488
1123.276902	-3.003600	3.522900	-10.580000	25.687925	0.000857	20.765434
1124.275000	-2.997800	3.522600	-10.559000	25.711561	0.000857	20.746974
1125.269391	-2.974300	3.524100	-10.480000	25.727953	0.000853	20.748740
1126.277490	-2.998000	3.523300	-10.562000	25.702087	0.000853	20.746467
1127.277802	-3.008800	3.521600	-10.594000	25.704130	0.000854	20.756580
1128.269626	-3.023700	3.519800	-10.641000	25.702315	0.000853	20.750015
1129.280737	-3.023400	3.519700	-10.640000	25.685695	0.000853	20.722889
1130.284011	-2.998500	3.521100	-10.557000	25.658533	0.000852	20.730222
1131.269118	-3.013700	3.519900	-10.607000	25.619626	0.000854	20.747096
1132.268997	-2.985000	3.520700	-10.508000	25.612446	0.000852	20.758378
1133.271345	-2.978900	3.520200	-10.485000	25.614587	0.000850	20.739665
1134.269040	-3.026900	3.517400	-10.645000	25.590363	0.000848	20.748053
1135.272859	-3.007500	3.517500	-10.577000	25.580766	0.000849	20.736992
1136.272532	-3.016800	3.517000	-10.607000	25.594433	0.000849	20.758305
1137.268996	-2.985600	3.517500	-10.501000	25.652575	0.000848	20.738463
1138.275168	-2.992000	3.517700	-10.523000	25.625340	0.000848	20.743826
1139.268871	-3.010300	3.516100	-10.584000	25.632177	0.000847	20.729356
1140.271020	-2.986400	3.517100	-10.503000	25.641823	0.000844	20.735724
1141.273537	-3.007600	3.515200	-10.571000	25.689357	0.000845	20.712816
1142.273987	-2.977200	3.516000	-10.466000	25.704032	0.000844	20.726609
1143.274828	-2.987100	3.515600	-10.500000	25.688804	0.000844	20.740237
1144.273733	-2.984900	3.514300	-10.487000	25.653674	0.000843	20.719177
1145.275061	-2.973200	3.514500	-10.448000	25.639088	0.000842	20.712587
1146.270955	-2.975100	3.516100	-10.460000	25.650597	0.000842	20.736476
1147.278370	-2.999800	3.513100	-10.537000	25.591502	0.000842	20.713160
1148.270587	-2.998300	3.514000	-10.535000	25.620480	0.000842	20.737523
1149.270976	-2.976000	3.514100	-10.456000	25.635962	0.000841	20.731260
1150.277088	-3.015700	3.510900	-10.587000	25.633056	0.000841	20.700364
1151.277927	-3.027800	3.511500	-10.630000	25.630321	0.000838	20.740294
1152.282797	-2.992000	3.512200	-10.508000	25.656636	0.000839	20.743016
1153.275757	-3.013300	3.510500	-10.577000	25.647683	0.000836	20.731653
1154.276301	-2.994300	3.511200	-10.513000	25.684766	0.000837	20.723853
1155.274614	-3.012600	3.510500	-10.575000	25.699050	0.000837	20.727295
1156.279181	-2.976900	3.511800	-10.453000	25.726357	0.000836	20.711573
1157.273334	-2.979400	3.511000	-10.459000	25.763975	0.000835	20.705261
1158.276686	-2.996000	3.508800	-10.512000	25.774384	0.000837	20.713347
1159.277874	-2.998200	3.509100	-10.520000	25.779658	0.000834	20.710109
1160.278406	-3.001700	3.509000	-10.531000	25.767938	0.000832	20.697388
1161.273889	-3.004500	3.507600	-10.537000	25.770640	0.000835	20.725234
1162.280454	-2.995400	3.508900	-10.509000	25.765968	0.000834	20.722438
1163.277107	-2.982800	3.508600	-10.464000	25.767067	0.000831	20.723542
1164.279547	-2.990300	3.507800	-10.489000	25.748063	0.000832	20.714884
1165.279094	-2.997900	3.507400	-10.513000	25.739818	0.000832	20.725095
1166.274700	-3.014300	3.506200	-10.568000	25.724330	0.000830	20.693889
1167.278304	-2.994300	3.506600	-10.498000	25.719609	0.000830	20.714279
1168.280536	-3.042100	3.505700	-10.664000	25.683529	0.000830	20.724033
1169.277227	-2.982300	3.508000	-10.459000	25.663107	0.000830	20.719642
1170.277851	-2.982400	3.504900	-10.452000	25.697447	0.000828	20.714303
1171.282698	-2.979100	3.505700	-10.442000	25.714637	0.000830	20.684626
1172.278714	-2.979500	3.504900	-10.442000	25.784500	0.000828	20.695058
1173.281506	-2.997800	3.503700	-10.502000	25.799141	0.000828	20.707395
1174.281487	-3.009500	3.502100	-10.539000	25.808500	0.000827	20.731497
1175.280686	-3.009100	3.502900	-10.540000	25.810560	0.000827	20.728349
1176.285973	-3.018200	3.501900	-10.568000	25.810616	0.000825	20.712758
1177.283752	-2.987400	3.503900	-10.465000	25.832622	0.000824	20.712104
1178.283222	-2.981700	3.502500	-10.443000	25.887081	0.000824	20.708490
1179.280767	-3.004200	3.500800	-10.516000	25.914432	0.000826	20.703724
1180.284632	-3.003700	3.500200	-10.512000	25.939667	0.000824	20.717222
1181.280869	-3.004800	3.499700	-10.515000	25.998840	0.000823	20.703650
1182.283104	-2.983500	3.501300	-10.445000	25.954126	0.000822	20.703773
1183.286983	-3.027100	3.497600	-10.584000	25.929560	0.000820	20.707542
1184.286938	-3.009500	3.499200	-10.530000	25.917492	0.000819	20.693995
1185.284522	-3.027000	3.498300	-10.588000	25.866891	0.000820	20.693897
1186.284966	-2.979800	3.499800	-10.427000	25.872034	0.000818	20.704280
1187.285744	-2.985100	3.499700	-10.445000	25.865296	0.000820	20.717901
1188.287920	-2.995200	3.498500	-10.479000	25.874866	0.000819	20.674879
1189.290700	-3.009400	3.497200	-10.524000	25.910013	0.000818	20.713510
1190.287697	-3.014900	3.498000	-10.545000	25.901648	0.000818	20.701312
1191.287176	-3.002400	3.497400	-10.500000	25.931399	0.000818	20.683309
1192.293678	-2.982600	3.497300	-10.430000	25.949422	0.000815	20.691460
1193.288338	-3.005000	3.495500	-10.503000	25.908906	0.000816	20.692956
1194.290388	-3.003800	3.494700	-10.496000	25.884379	0.000815	20.692973
1195.291289	-3.002900	3.494200	-10.491000	25.841330	0.000815	20.692874
1196.289686	-2.999900	3.494200	-10.481000	25.863164	0.000815	20.692523
1197.290031	-3.002900	3.495100	-10.494000	25.884746	0.000813	20.709938
1198.293990	-2.996100	3.494800	-10.469000	25.892053	0.000812	20.697363
1199.292264	-2.979600	3.494600	-10.412000	25.935337	0.000812	20.709079
1200.297038	-2.999800	3.493200	-10.478000	25.934857	0.000813	20.690103
1201.296769	-3.008900	3.491900	-10.505000	25.918142	0.000810	20.707452
1202.292363	-3.016200	3.491200	-10.528000	25.908825	0.000810	20.670113
1203.297099	-3.014500	3.491300	-10.524000	25.936973	0.000810	20.697445
1204.312099	-3.010400	3.490900	-10.509000	25.951620	0.000810	20.705048
1205.290926	-3.021800	3.491000	-10.547000	25.961409	0.000810	20.720100
1206.291176	-2.998100	3.490800	-10.464000	25.930056	0.000809	20.689073
1207.298430	-2.995100	3.489200	-10.449000	25.920869	0.000808	20.707820
1208.293921	-2.990400	3.489500	-10.433000	25.868104	0.000810	20.682312
1209.292546	-2.968500	3.490800	-10.361000	25.862961	0.000807	20.662918
1210.293306	-3.018600	3.487800	-10.527000	25.833420	0.000807	20.696783
1211.289102	-2.988400	3.489700	-10.427000	25.826388	0.000805	20.690667
1212.289999	-2.988500	3.489700	-10.428000	25.848874	0.000807	20.707092
1213.294829	-3.005000	3.489100	-10.483000	25.863799	0.000804	20.703119
1214.293054	-3.015400	3.485800	-10.509000	25.871376	0.000804	20.712153
1215.290581	-3.024700	3.485700	-10.541000	25.886178	0.000804	20.699996
1216.295499	-3.010600	3.487100	-10.497000	25.888612	0.000803	20.690586
1217.291673	-2.992500	3.486600	-10.432000	25.894740	0.000805	20.701010
1218.294394	-3.000900	3.485900	-10.459000	25.901372	0.000803	20.694396
1219.294494	-2.985800	3.486900	-10.410000	25.927502	0.000802	20.700258
1220.294290	-2.993100	3.485100	-10.430000	25.915955	0.000804	20.688183
1221.294861	-2.965000	3.486200	-10.336000	25.927722	0.000801	20.687202
1222.293643	-2.978200	3.485000	-10.378000	25.956007	0.000801	20.679108
1223.292760	-3.002800	3.482700	-10.457000	25.935395	0.000799	20.692541
1224.293840	-3.008200	3.484300	-10.481000	25.897808	0.000799	20.704567
1225.297928	-2.997400	3.483500	-10.440000	25.904286	0.000799	20.701117
1226.297027	-2.987800	3.484900	-10.411000	25.908037	0.000797	20.689238
1227.300319	-3.009300	3.483700	-10.481000	25.925322	0.000799	20.700439
1228.301025	-2.982500	3.483600	-10.389000	25.901747	0.000798	20.704731
1229.300304	-3.010300	3.480800	-10.477000	25.916525	0.000797	20.704879
1230.300191	-2.995400	3.481800	-10.428000	25.891990	0.000796	20.703464
1231.307214	-2.995800	3.481500	-10.430000	25.927210	0.000797	20.698068
1232.297209	-3.044500	3.478900	-10.590000	25.935551	0.000796	20.696490
1233.299726	-3.008600	3.479900	-10.469000	25.940026	0.000795	20.691029
1234.303874	-2.989600	3.479500	-10.401000	25.928845	0.000794	20.688805
1235.300534	-3.015200	3.480000	-10.490000	25.961680	0.000795	20.704723
1236.301829	-2.989800	3.479300	-10.400000	25.977027	0.000794	20.692166
1237.303938	-2.979400	3.478800	-10.362000	25.992552	0.000793	20.694013
1238.302338	-3.024300	3.476900	-10.514000	26.051267	0.000791	20.695632
1239.302834	-3.016500	3.476000	-10.484000	26.032236	0.000793	20.707806
1240.305868	-2.995900	3.477400	-10.417000	25.999704	0.000792	20.683655
1241.302047	-3.006400	3.477800	-10.455000	25.987475	0.000792	20.673264
1242.307625	-3.028600	3.474600	-10.522000	25.996645	0.000789	20.693858
1243.305453	-3.007600	3.476800	-10.456000	25.989461	0.000790	20.708452
1244.302362	-2.997100	3.474700	-10.413000	25.995840	0.000790	20.683565
1245.303277	-2.972400	3.476000	-10.331000	26.026166	0.000790	20.722098
1246.307879	-2.999000	3.474700	-10.419000	25.993993	0.000789	20.691194
1247.306705	-2.963500	3.475800	-10.299000	26.010910	0.000787	20.717201
1248.304650	-3.001400	3.473500	-10.424000	25.997419	0.000786	20.712181
1249.308889	-2.981200	3.474600	-10.357000	26.067435	0.000785	20.713775
1250.307844	-2.993700	3.474800	-10.401000	26.045304	0.000785	20.701496
1251.305833	-2.974500	3.473600	-10.331000	26.045223	0.000784	20.710898
1252.310217	-2.988300	3.473500	-10.378000	26.099590	0.000786	20.693451
1253.306826	-2.992400	3.472900	-10.391000	26.102552	0.000784	20.701169
1254.305497	-2.984200	3.471500	-10.358000	26.091837	0.000783	20.699886
1255.306489	-2.997500	3.470900	-10.404000	26.056338	0.000785	20.715428
1256.308778	-3.010100	3.471000	-10.447000	26.054524	0.000782	20.714079
1257.306862	-2.979600	3.472200	-10.345000	26.051888	0.000782	20.705266
1258.307710	-2.988800	3.470800	-10.373000	26.033434	0.000782	20.718494
1259.308310	-3.000200	3.469200	-10.407000	26.015004	0.000781	20.715624
1260.305779	-2.977600	3.471400	-10.335000	26.027096	0.000780	20.696951
1261.313785	-2.994100	3.469600	-10.386000	26.032580	0.000780	20.704359
1262.310856	-3.003100	3.469700	-10.419000	26.067868	0.000779	20.721323
1263.308274	-2.995800	3.468000	-10.389000	26.079300	0.000781	20.723800
1264.313602	-3.008400	3.468100	-10.433000	26.064858	0.000779	20.698857
1265.309025	-2.988600	3.468600	-10.365000	26.047031	0.000779	20.701334
1266.312133	-3.008900	3.466800	-10.430000	26.036649	0.000776	20.692798
1267.312259	-3.014100	3.465300	-10.444000	26.036795	0.000777	20.717604
1268.315491	-2.984500	3.467300	-10.347000	26.039033	0.000777	20.714636
1269.315390	-2.991700	3.466100	-10.368000	26.089926	0.000775	20.717881
1270.314383	-3.005000	3.463500	-10.406000	26.084035	0.000779	20.709591
1271.314298	-2.985500	3.465700	-10.345000	26.090292	0.000775	20.699756
1272.319357	-3.015900	3.463900	-10.446000	26.125839	0.000774	20.712240
1273.325545	-2.975500	3.465400	-10.310000	26.089275	0.000774	20.703950
1274.315538	-2.996500	3.462800	-10.375000	26.076786	0.000773	20.694720
1275.325686	-2.992700	3.464500	-10.367000	26.073182	0.000774	20.708169
1276.315798	-3.012700	3.461600	-10.428000	26.031751	0.000772	20.719173
1277.319461	-2.988400	3.461700	-10.343000	26.066379	0.000772	20.721724
1278.318939	-3.005800	3.461100	-10.401000	26.095662	0.000771	20.708945
1279.321940	-3.003400	3.461300	-10.395000	26.073531	0.000773	20.708520
1280.321122	-2.994500	3.460900	-10.361000	26.055266	0.000771	20.710557
1281.322624	-3.027500	3.460300	-10.475000	26.040896	0.000771	20.709395
1282.325527	-2.973900	3.460000	-10.288000	26.016282	0.000771	20.742514
1283.322954	-2.997700	3.459800	-10.370000	26.019366	0.000769	20.722378
1284.322981	-2.998400	3.458300	-10.369000	26.014500	0.000772	20.699944
1285.321575	-2.987800	3.459600	-10.336000	26.030171	0.000768	20.720432
1286.323312	-2.997700	3.457800	-10.365000	26.056420	0.000770	20.715510
1287.323965	-3.024200	3.458100	-10.456000	26.083474	0.000767	20.707130
1288.320608	-2.998600	3.457000	-10.366000	26.100763	0.000767	20.724977
1289.322914	-2.995100	3.457100	-10.354000	26.106157	0.000766	20.731820
1290.322804	-3.006600	3.456900	-10.392000	26.089599	0.000765	20.736046
1291.323934	-3.010900	3.454800	-10.401000	26.061879	0.000764	20.742333
1292.320612	-3.001900	3.455800	-10.373000	26.056908	0.000765	20.725958
1293.324538	-2.982400	3.457300	-10.311000	26.068486	0.000764	20.718150
1294.321468	-2.969000	3.456300	-10.259000	26.084954	0.000762	20.746552
1295.324953	-2.984500	3.455700	-10.311000	26.115090	0.000763	20.733209
1296.325534	-2.991200	3.454000	-10.330000	26.113568	0.000763	20.735000
1297.325303	-2.986800	3.454500	-10.317000	26.112503	0.000762	20.742464
1298.326800	-2.996500	3.453700	-10.347000	26.093928	0.000761	20.710048
1299.330575	-2.993600	3.454700	-10.341000	26.079103	0.000759	20.714593
1300.327046	-2.969000	3.455800	-10.258000	26.097158	0.000759	20.727045
1301.329406	-2.988800	3.453500	-10.319000	26.063603	0.000760	20.725099
1302.325729	-3.011500	3.453000	-10.396000	26.073790	0.000759	20.727273
1303.325780	-3.003900	3.451500	-10.367000	26.081243	0.000757	20.715795
1304.329792	-2.993200	3.452200	-10.332000	26.073391	0.000758	20.711699
1305.329457	-3.019800	3.449100	-10.413000	26.046940	0.000757	20.724003
1306.329929	-3.002800	3.450600	-10.361000	26.051610	0.000756	20.715893
1307.331586	-3.013500	3.449500	-10.393000	26.080502	0.000759	20.718844
1308.330164	-2.992000	3.451000	-10.324000	26.059095	0.000756	20.724363
1309.330852	-2.987400	3.449400	-10.303000	26.064156	0.000757	20.732767
1310.330654	-2.987500	3.448600	-10.302000	26.064066	0.000753	20.735048
1311.329662	-2.994500	3.449600	-10.329000	26.016842	0.000754	20.718419
1312.325295	-2.997000	3.446700	-10.328000	26.022009	0.000754	20.744000
1313.331291	-2.991700	3.448900	-10.317000	26.050772	0.000752	20.717896
1314.328137	-2.982000	3.447800	-10.281000	26.069868	0.000753	20.732816
1315.332222	-3.016900	3.445800	-10.395000	26.056882	0.000753	20.732097
1316.332106	-3.025600	3.446100	-10.425000	26.021586	0.000752	20.748317
1317.329753	-3.015800	3.445000	-10.388000	25.999901	0.000752	20.744074
1318.331922	-2.977100	3.444700	-10.254000	26.010951	0.000750	20.730993
1319.344379	-3.018100	3.444400	-10.394000	26.025231	0.000751	20.719736
1320.333210	-3.018700	3.444000	-10.395000	26.051618	0.000749	20.750990
1321.335402	-3.004100	3.444600	-10.346000	26.087126	0.000749	20.732138
1322.336088	-3.010100	3.442400	-10.359000	26.127741	0.000748	20.725532
1323.331178	-2.978600	3.443900	-10.257000	26.140547	0.000748	20.733659
1324.330335	-3.005100	3.442300	-10.344000	26.131638	0.000747	20.733241
1325.331638	-2.981400	3.442100	-10.260000	26.165288	0.000747	20.726276
1326.334991	-3.016000	3.442000	-10.380000	26.163701	0.000744	20.727053
1327.331309	-2.981200	3.442100	-10.261000	26.126024	0.000745	20.756051
1328.338244	-3.029300	3.439800	-10.419000	26.131166	0.000746	20.758373
1329.338990	-3.005100	3.441000	-10.338000	26.115349	0.000744	20.743902
1330.335977	-3.010500	3.439900	-10.355000	26.091405	0.000745	20.745922
1331.341126	-2.996100	3.440100	-10.305000	26.106294	0.000743	20.743812
1332.337820	-2.991900	3.440500	-10.293000	26.092405	0.000742	20.753590
1333.339571	-2.988100	3.438900	-10.275000	26.079346	0.000741	20.726513
1334.338309	-3.031600	3.436700	-10.417000	26.072146	0.000742	20.727044
1335.338990	-3.006500	3.438800	-10.338000	26.058631	0.000742	20.764675
1336.338206	-2.981500	3.438400	-10.250000	26.079224	0.000741	20.761184
1337.339761	-3.005700	3.437900	-10.333000	26.095594	0.000741	20.742544
1338.338786	-3.011800	3.436600	-10.350000	26.101810	0.000740	20.737884
1339.337115	-3.033200	3.434900	-10.417000	26.157013	0.000740	20.728393
1340.338986	-3.006700	3.435500	-10.328000	26.138772	0.000740	20.762696
1341.342129	-2.997800	3.435700	-10.299000	26.154319	0.000739	20.760301
1342.340377	-3.010100	3.434500	-10.336000	26.106033	0.000739	20.749714
1343.340621	-2.974800	3.435000	-10.217000	26.097644	0.000735	20.743181
1344.341105	-2.998400	3.433900	-10.294000	26.063341	0.000736	20.761821
1345.339188	-3.018500	3.433000	-10.362000	26.027011	0.000736	20.746182
1346.343418	-2.985700	3.435400	-10.255000	25.974797	0.000738	20.753466
1347.343356	-3.022200	3.433400	-10.375000	25.980541	0.000736	20.724623
1348.342318	-3.007100	3.433400	-10.324000	25.987669	0.000736	20.753122
1349.338336	-3.009400	3.432600	-10.329000	26.018671	0.000735	20.761036
1350.343019	-3.007500	3.432700	-10.322000	26.028264	0.000734	20.752182
1351.337093	-3.023100	3.431500	-10.373000	26.082429	0.000734	20.751127
1352.344977	-3.023200	3.429800	-10.367000	26.123817	0.000732	20.759997
1353.342899	-3.008800	3.429800	-10.318000	26.120807	0.000732	20.747963
1354.340222	-2.993500	3.430800	-10.269000	26.136688	0.000733	20.752067
1355.347190	-3.011200	3.429200	-10.325000	26.157206	0.000732	20.758934
1356.343005	-2.990600	3.429500	-10.255000	26.155473	0.000732	20.747709
1357.345293	-2.998200	3.429300	-10.280000	26.190757	0.000731	20.778898
1358.344660	-2.994600	3.428300	-10.265000	26.213292	0.000731	20.762187
1359.345647	-2.994500	3.428400	-10.266000	26.193075	0.000730	20.749933
1360.340990	-2.986100	3.428900	-10.238000	26.193978	0.000730	20.761272
1361.344392	-3.014700	3.427700	-10.331000	26.191465	0.000730	20.760642
1362.341776	-3.021000	3.426600	-10.351000	26.193368	0.000729	20.753545
1363.349197	-3.012100	3.427100	-10.321000	26.211924	0.000727	20.761761
1364.346445	-3.012200	3.426900	-10.322000	26.227991	0.000727	20.764157
1365.346762	-3.012400	3.425600	-10.318000	26.223004	0.000727	20.740652
1366.346208	-2.977900	3.427900	-10.206000	26.203561	0.000726	20.757624
1367.346173	-2.985900	3.426500	-10.230000	26.200437	0.000727	20.765391
1368.345960	-2.977600	3.425000	-10.198000	26.180553	0.000725	20.770067
1369.345390	-3.020900	3.424700	-10.344000	26.189022	0.000727	20.762930
1370.345089	-2.962900	3.426200	-10.150000	26.150532	0.000725	20.757918
1371.342649	-2.954100	3.425100	-10.116000	26.138386	0.000726	20.770843
1372.348042	-3.033500	3.422100	-10.380000	26.123098	0.000725	20.741256
1373.348429	-2.986200	3.423200	-10.221000	26.110194	0.000722	20.756266
1374.346318	-2.998700	3.423300	-10.264000	26.145935	0.000724	20.761833
1375.345850	-2.993100	3.422800	-10.244000	26.159522	0.000722	20.753674
1376.344905	-2.985600	3.422200	-10.215000	26.170578	0.000721	20.772371
1377.350960	-2.995300	3.422300	-10.250000	26.200232	0.000721	20.775142
1378.350026	-3.026900	3.418800	-10.347000	26.249783	0.000720	20.758554
1379.349373	-2.990500	3.421000	-10.230000	26.243299	0.000721	20.759625
1380.346985	-2.995900	3.420600	-10.247000	26.253191	0.000718	20.761505
1381.349177	-2.984300	3.419400	-10.203000	26.281566	0.000719	20.765365
1382.347174	-3.002700	3.419000	-10.266000	26.252614	0.000718	20.772779
1383.349931	-2.996600	3.418800	-10.244000	26.231284	0.000719	20.766517
1384.350392	-2.985200	3.419100	-10.204000	26.184123	0.000718	20.771283
1385.348779	-2.996800	3.418300	-10.243000	26.211401	0.000716	20.785892
1386.349082	-2.987000	3.417400	-10.207000	26.224060	0.000715	20.759732
1387.350396	-3.019500	3.416800	-10.315000	26.230714	0.000715	20.782066
1388.348710	-3.021300	3.415800	-10.318000	26.222563	0.000716	20.772452
1389.349869	-3.022700	3.415700	-10.323000	26.184546	0.000716	20.775027
1390.351372	-3.004300	3.415000	-10.258000	26.233350	0.000712	20.776654
1391.349818	-3.017300	3.415500	-10.304000	26.205902	0.000713	20.783211
1392.357856	-2.993900	3.416300	-10.227000	26.210987	0.000713	20.785476
1393.350667	-3.013300	3.413800	-10.286000	26.168275	0.000712	20.777644
1394.350813	-2.995100	3.414000	-10.224000	26.130997	0.000713	20.777170
1395.347509	-3.003600	3.414000	-10.254000	26.134520	0.000713	20.768855
1396.348705	-2.992800	3.412500	-10.212000	26.154933	0.000713	20.790790
1397.354783	-2.989200	3.413300	-10.202000	26.198767	0.000711	20.774619
1398.352610	-2.997700	3.411900	-10.227000	26.247066	0.000710	20.775739
1399.353094	-2.968700	3.415000	-10.137000	26.261287	0.000710	20.771063
1400.354449	-2.988000	3.412200	-10.195000	26.285455	0.000710	20.786817
1401.351135	-2.987600	3.412200	-10.194000	26.284731	0.000710	20.778503
1402.349675	-2.992800	3.410500	-10.206000	26.297446	0.000710	20.771840
1403.354783	-3.003300	3.410300	-10.241000	26.307321	0.000709	20.773704
1404.357138	-3.028800	3.410200	-10.327000	26.293167	0.000708	20.800257
1405.356542	-2.999500	3.409000	-10.224000	26.312389	0.000707	20.781168
1406.361723	-3.006200	3.409600	-10.249000	26.318026	0.000706	20.797265
1407.354181	-3.008900	3.411100	-10.262000	26.308761	0.000706	20.783686
1408.357201	-3.006100	3.408300	-10.243000	26.273871	0.000704	20.796039
1409.359394	-3.016200	3.407800	-10.277000	26.250524	0.000706	20.765464
1410.357903	-2.970200	3.408700	-10.123000	26.208750	0.000705	20.809781
1411.354026	-2.986200	3.408800	-10.179000	26.203413	0.000706	20.799677
1412.358374	-2.998300	3.406900	-10.214000	26.213835	0.000704	20.797821
1413.360002	-2.994900	3.406600	-10.201000	26.205992	0.000704	20.819338
1414.355320	-3.022700	3.404600	-10.290000	26.194367	0.000703	20.802914
1415.360424	-2.969500	3.407700	-10.118000	26.197565	0.000703	20.801386
1416.357794	-2.995300	3.405900	-10.201000	26.193668	0.000703	20.782297
1417.361487	-2.993300	3.405700	-10.193000	26.202055	0.000702	20.798312
1418.360652	-3.016600	3.404700	-10.270000	26.264680	0.000700	20.814303
1419.360287	-3.021200	3.403600	-10.282000	26.282560	0.000699	20.798132
1420.359521	-2.999800	3.403200	-10.207000	26.278949	0.000701	20.795451
1421.364299	-2.990900	3.405000	-10.182000	26.319248	0.000699	20.797544
1422.369407	-3.013600	3.403400	-10.256000	26.336712	0.000697	20.813673
1423.366985	-3.009100	3.402800	-10.239000	26.326838	0.000697	20.806594
1424.369776	-3.016600	3.402500	-10.262000	26.298627	0.000696	20.798632
1425.363481	-3.009800	3.401100	-10.235000	26.331881	0.000698	20.801706
1426.365475	-3.015500	3.400600	-10.253000	26.352030	0.000694	20.816740
1427.364412	-3.003100	3.400600	-10.212000	26.331922	0.000694	20.830670
1428.364311	-3.012100	3.401500	-10.243000	26.396752	0.000695	20.823280
1429.359678	-2.977500	3.400700	-10.125000	26.402129	0.000694	20.802132
1430.369671	-2.994700	3.399600	-10.179000	26.376010	0.000695	20.813339
1431.361168	-2.964600	3.400500	-10.080000	26.355789	0.000694	20.829526
1432.366238	-3.012800	3.400000	-10.243000	26.392913	0.000693	20.818474
1433.369713	-2.994500	3.398000	-10.173000	26.398623	0.000692	20.816152
1434.372375	-3.011000	3.397800	-10.230000	26.425635	0.000692	20.810585
1435.366946	-3.003300	3.397500	-10.202000	26.432110	0.000692	20.834162
1436.368274	-2.993900	3.398300	-10.172000	26.441317	0.000691	20.820183
1437.365991	-2.997100	3.397700	-10.182000	26.431208	0.000690	20.829936
1438.368802	-2.991200	3.397000	-10.159000	26.452468	0.000688	20.841347
1439.368822	-3.016200	3.394500	-10.237000	26.482261	0.000690	20.823404
1440.366611	-2.990200	3.397700	-10.159000	26.497153	0.000689	20.824148
1441.369559	-3.001600	3.394800	-10.189000	26.483668	0.000686	20.847577
1442.370234	-2.972200	3.395700	-10.091000	26.519470	0.000688	20.817183
1443.369397	-3.007200	3.394700	-10.207000	26.529027	0.000687	20.792176
1444.372875	-2.995500	3.394100	-10.166000	26.514648	0.000686	20.829404
1445.370029	-2.984500	3.393600	-10.125000	26.541990	0.000686	20.834603
1446.373006	-3.000600	3.392900	-10.180000	26.544495	0.000686	20.815785
1447.368708	-2.989200	3.393400	-10.141000	26.548237	0.000687	20.848942
1448.372008	-3.004800	3.392300	-10.192000	26.574212	0.000685	20.830483
1449.369521	-2.976100	3.391800	-10.093000	26.601244	0.000683	20.834898
1450.371086	-3.000900	3.392300	-10.179000	26.586964	0.000684	20.828603
1451.373377	-3.014300	3.391200	-10.221000	26.587159	0.000682	20.836860
1452.375302	-3.005000	3.390900	-10.188000	26.597390	0.000683	20.829601
1453.376603	-2.969500	3.392200	-10.072000	26.582337	0.000682	20.840073
1454.378170	-3.013200	3.390200	-10.214000	26.552694	0.000684	20.836828
1455.378023	-2.988700	3.390400	-10.131000	26.556174	0.000681	20.843645
1456.375523	-2.996100	3.389900	-10.155000	26.563592	0.000680	20.834506
1457.375033	-3.006500	3.388600	-10.187000	26.539478	0.000681	20.834449
1458.375108	-2.994800	3.389400	-10.149000	26.523318	0.000679	20.842861
1459.376209	-2.996000	3.389400	-10.153000	26.559705	0.000678	20.853358
1460.376648	-2.989800	3.388000	-10.128000	26.552483	0.000676	20.828081
1461.381999	-2.999000	3.389000	-10.163000	26.518789	0.000680	20.858222
1462.380944	-2.981100	3.388900	-10.101000	26.470746	0.000676	20.849287
1463.384546	-2.989000	3.388200	-10.126000	26.460417	0.000676	20.838905
1464.381251	-2.982900	3.386400	-10.100000	26.429274	0.000677	20.859285
1465.382547	-3.020500	3.386300	-10.227000	26.408378	0.000675	20.844447
1466.382601	-2.991400	3.386400	-10.129000	26.408118	0.000674	20.851298
1467.382472	-3.003500	3.386100	-10.169000	26.403677	0.000677	20.839249
1468.382014	-2.996800	3.385100	-10.143000	26.448835	0.000672	20.862351
1469.379933	-2.996800	3.384100	-10.140000	26.464989	0.000673	20.865784
1470.383245	-2.982400	3.384400	-10.093000	26.489991	0.000673	20.857724
1471.384410	-2.993300	3.383900	-10.128000	26.475619	0.000675	20.848021
1472.379233	-3.002200	3.383700	-10.157000	26.498587	0.000672	20.856408
1473.383244	-2.992800	3.384300	-10.127000	26.496009	0.000672	20.852868
1474.380348	-2.998200	3.383100	-10.143000	26.524003	0.000670	20.848765
1475.383130	-3.011700	3.381100	-10.182000	26.508144	0.000672	20.858901
1476.384520	-2.984700	3.382800	-10.096000	26.499718	0.000673	20.862760
1477.379906	-3.009800	3.380100	-10.172000	26.490861	0.000669	20.859547
1478.379963	-3.001700	3.380200	-10.145000	26.489991	0.000668	20.860569
1479.385014	-3.016200	3.380900	-10.197000	26.491422	0.000668	20.853474
1480.387992	-2.995400	3.381300	-10.127000	26.447876	0.000667	20.843844
1481.380399	-3.002300	3.379100	-10.144000	26.465883	0.000667	20.865261
1482.384021	-3.010400	3.379900	-10.174000	26.516456	0.000667	20.870101
1483.381657	-2.995100	3.379500	-10.121000	26.493740	0.000667	20.864337
1484.385434	-3.021700	3.379000	-10.209000	26.498010	0.000667	20.854405
1485.390235	-2.998300	3.377600	-10.126000	26.472691	0.000667	20.857879
1486.386301	-2.992300	3.377700	-10.106000	26.477652	0.000665	20.853383
1487.382793	-3.004800	3.376700	-10.145000	26.495741	0.000664	20.849280
1488.389244	-2.997800	3.378100	-10.126000	26.474228	0.000663	20.839037
1489.383119	-2.995100	3.377000	-10.113000	26.464769	0.000664	20.845176
1490.387176	-3.006200	3.376000	-10.148000	26.441548	0.000661	20.853130
1491.390014	-2.973500	3.377700	-10.041000	26.438889	0.000661	20.864207
1492.386134	-3.004100	3.376000	-10.140000	26.464859	0.000661	20.842421
1493.396315	-3.016700	3.374000	-10.176000	26.503475	0.000663	20.859424
1494.392458	-2.989900	3.375800	-10.092000	26.526435	0.000662	20.823709
1495.389112	-3.015100	3.374800	-10.172000	26.560422	0.000659	20.816147
1496.390532	-2.999500	3.375500	-10.124000	26.574475	0.000662	20.844972
1497.389401	-3.013400	3.373500	-10.165000	26.590114	0.000662	20.844097
1498.387237	-3.012700	3.374200	-10.164000	26.600921	0.000660	20.849271
1499.388315	-3.003100	3.372700	-10.128000	26.566700	0.000658	20.838579
1500.392107	-3.026700	3.371800	-10.204000	26.533917	0.000658	20.819850
1501.390816	-3.023000	3.370900	-10.188000	26.465566	0.000660	20.820373
1502.394097	-2.996300	3.372100	-10.103000	26.424028	0.000658	20.816556
1503.399500	-3.023500	3.370500	-10.190000	26.377722	0.000657	20.829758
1504.392407	-3.014200	3.371600	-10.161000	26.367562	0.000656	20.816229
1505.397242	-3.005400	3.371100	-10.130000	26.386637	0.000657	20.824019
1506.390597	-2.994700	3.370200	-10.092000	26.415813	0.000655	20.812566
1507.392232	-3.016400	3.369500	-10.163000	26.397309	0.000656	20.836167
1508.390557	-2.998300	3.369400	-10.101000	26.380959	0.000655	20.822580
1509.394848	-3.001600	3.370100	-10.115000	26.337400	0.000657	20.814365
1510.392720	-3.002400	3.369500	-10.116000	26.364984	0.000655	20.821224
1511.390942	-2.982800	3.369100	-10.048000	26.371694	0.000654	20.828442
1512.395092	-2.988600	3.369600	-10.069000	26.364089	0.000651	20.803255
1513.391078	-3.003900	3.367800	-10.116000	26.346633	0.000653	20.819850
1514.391128	-2.993300	3.367900	-10.080000	26.360136	0.000652	20.799282
1515.393951	-3.001800	3.367000	-10.106000	26.399895	0.000651	20.819327
1516.392657	-3.001200	3.366600	-10.103000	26.428046	0.000651	20.803051
1517.391259	-3.004300	3.366300	-10.113000	26.498010	0.000651	20.811733
1518.399089	-2.999800	3.367700	-10.102000	26.512617	0.000648	20.812190
1519.396183	-3.022800	3.365100	-10.171000	26.523483	0.000649	20.807940
1520.394618	-3.007700	3.364500	-10.118000	26.490487	0.000647	20.806542
1521.399133	-3.017400	3.363700	-10.149000	26.474570	0.000647	20.806190
1522.398392	-3.031500	3.363500	-10.194000	26.444266	0.000646	20.796593
1523.396531	-3.010800	3.363400	-10.125000	26.415651	0.000647	20.792963
1524.402969	-2.998800	3.364300	-10.086000	26.386572	0.000645	20.812575
1525.399989	-3.013200	3.363900	-10.135000	26.340712	0.000647	20.792563
1526.399214	-2.998600	3.363100	-10.084000	26.336531	0.000646	20.795948
1527.403982	-3.005200	3.363400	-10.107000	26.359991	0.000644	20.827585
1528.399721	-3.011400	3.361200	-10.121000	26.389997	0.000645	20.797525
1529.398694	-2.993200	3.362800	-10.065000	26.425721	0.000644	20.807352
1530.402375	-2.991200	3.361900	-10.054000	26.490569	0.000643	20.788132
1531.401361	-3.026300	3.360600	-10.169000	26.526290	0.000643	20.800330
1532.399798	-3.005100	3.360600	-10.098000	26.537017	0.000641	20.788827
1533.400963	-3.008300	3.360600	-10.109000	26.580836	0.000641	20.784985
1534.402628	-2.985000	3.359700	-10.027000	26.589196	0.000639	20.803821
1535.401753	-3.003600	3.359600	-10.090000	26.628394	0.000640	20.795809
1536.406641	-3.014700	3.359800	-10.127000	26.641470	0.000639	20.824602
1537.404882	-2.988400	3.359900	-10.040000	26.603314	0.000639	20.797624
1538.401872	-2.999900	3.358500	-10.074000	26.606990	0.000640	20.779982
1539.404810	-2.986800	3.359500	-10.033000	26.626963	0.000637	20.793423
1540.403625	-3.009900	3.357000	-10.103000	26.648432	0.000636	20.811686
1541.406066	-3.011100	3.356700	-10.106000	26.679959	0.000636	20.788379
1542.406700	-3.000200	3.357900	-10.074000	26.678048	0.000637	20.780294
1543.405633	-2.996200	3.357400	-10.059000	26.715544	0.000636	20.784325
1544.404778	-3.013300	3.355100	-10.109000	26.710413	0.000635	20.788175
1545.408085	-3.011200	3.355200	-10.102000	26.664680	0.000634	20.788666
1546.406992	-2.999900	3.356500	-10.068000	26.614262	0.000635	20.819061
1547.409543	-2.979200	3.355500	-9.995600	26.572729	0.000635	20.780155
1548.409190	-2.996000	3.356000	-10.053000	26.566313	0.000635	20.791724
1549.405441	-2.992300	3.355500	-10.040000	26.555765	0.000633	20.794397
1550.407572	-3.007500	3.352300	-10.081000	26.572641	0.000634	20.790498
1551.416772	-2.994900	3.354700	-10.046000	26.593118	0.000633	20.775047
1552.404662	-3.009300	3.354200	-10.092000	26.618239	0.000631	20.789394
1553.409846	-2.973100	3.353500	-9.968800	26.627673	0.000630	20.787972
1554.411148	-3.004200	3.352600	-10.070000	26.625331	0.000630	20.791782
1555.410608	-3.003800	3.351200	-10.065000	26.601276	0.000629	20.777557
1556.412446	-2.986800	3.354000	-10.016000	26.580246	0.000628	20.795297
1557.407065	-3.003600	3.351000	-10.064000	26.556165	0.000628	20.780100
1558.404938	-2.976400	3.352400	-9.977200	26.523219	0.000626	20.792502
1559.409821	-3.013700	3.349800	-10.093000	26.499699	0.000626	20.785455
1560.412881	-3.015800	3.350600	-10.103000	26.468491	0.000626	20.787752
1561.411652	-2.974100	3.350600	-9.964700	26.441724	0.000625	20.797832
1562.416008	-2.998200	3.349300	-10.040000	26.447580	0.000626	20.789494
1563.411169	-3.006900	3.348400	-10.066000	26.483506	0.000625	20.794783
1564.413115	-2.995200	3.348900	-10.029000	26.500236	0.000624	20.788366
1565.413332	-2.992400	3.348900	-10.020000	26.556687	0.000623	20.776357
1566.409674	-3.006900	3.348200	-10.067000	26.612289	0.000623	20.775352
1567.409009	-2.960000	3.349400	-9.913000	26.642451	0.000623	20.767741
1568.411804	-2.984000	3.348000	-9.989300	26.657617	0.000620	20.773504
1569.412311	-2.984400	3.346300	-9.984600	26.691893	0.000623	20.785203
1570.414892	-2.970100	3.347800	-9.942200	26.728502	0.000620	20.787395
1571.411677	-2.982100	3.347800	-9.981300	26.745065	0.000621	20.787926
1572.413390	-3.004700	3.346000	-10.053000	26.715516	0.000619	20.777658
1573.413478	-2.992400	3.346800	-10.014000	26.669743	0.000619	20.778582
1574.412833	-3.001100	3.345200	-10.038000	26.641915	0.000620	20.776211
1575.415344	-3.002100	3.344000	-10.037000	26.600799	0.000618	20.809321
1576.411870	-2.990500	3.345500	-10.002000	26.602710	0.000617	20.776628
1577.413509	-2.990200	3.343600	-9.997200	26.615600	0.000617	20.780103
1578.412566	-3.008800	3.343300	-10.058000	26.618300	0.000616	20.800835
1579.416126	-2.989900	3.343400	-9.995900	26.563235	0.000615	20.761128
1580.416538	-2.993500	3.343600	-10.008000	26.568644	0.000614	20.786006
1581.416324	-2.993100	3.344000	-10.008000	26.526890	0.000616	20.794769
1582.419600	-3.000600	3.342100	-10.027000	26.545628	0.000614	20.774724
1583.416314	-2.983700	3.343700	-9.975700	26.568416	0.000613	20.759698
1584.420284	-3.015000	3.342100	-10.076000	26.593587	0.000612	20.766508
1585.416274	-3.023700	3.339500	-10.096000	26.591781	0.000611	20.795039
1586.427928	-3.006800	3.341200	-10.045000	26.592147	0.000612	20.771225
1587.420080	-2.997400	3.341400	-10.015000	26.633508	0.000611	20.774871
1588.420561	-3.003400	3.339100	-10.027000	26.665109	0.000609	20.780087
1589.424290	-3.000100	3.339600	-10.017000	26.677542	0.000610	20.759396
1590.422698	-2.982200	3.341100	-9.962500	26.691017	0.000607	20.780055
1591.421530	-3.000900	3.337700	-10.015000	26.686032	0.000610	20.766508
1592.420137	-3.003000	3.338400	-10.024000	26.697815	0.000610	20.781200
1593.423480	-3.021900	3.336200	-10.080000	26.742375	0.000608	20.778109
1594.438779	-3.025300	3.336900	-10.094000	26.764419	0.000607	20.767555
1595.424644	-3.008800	3.337600	-10.041000	26.751133	0.000606	20.775534
1596.424481	-2.993600	3.337000	-9.989000	26.770615	0.000607	20.754818
1597.425139	-3.019600	3.335200	-10.069000	26.791756	0.000604	20.759004
1598.425396	-3.004100	3.336400	-10.022000	26.772079	0.000607	20.756290
1599.425601	-3.003400	3.336200	-10.018000	26.779446	0.000605	20.753739
1600.427994	-3.018300	3.335300	-10.065000	26.787065	0.000606	20.777521
1601.422272	-3.012700	3.335100	-10.047000	26.811091	0.000603	20.773229
1602.428606	-3.009500	3.335400	-10.037000	26.846232	0.000604	20.767311
1603.428162	-3.007400	3.335300	-10.029000	26.855412	0.000603	20.768480
1604.426226	-3.018300	3.331500	-10.055000	26.869729	0.000600	20.765807
1605.425846	-3.007400	3.333400	-10.024000	26.878120	0.000602	20.771873
1606.426890	-3.002600	3.332900	-10.006000	26.887331	0.000600	20.783980
1607.427022	-3.012900	3.331700	-10.037000	26.892591	0.000600	20.769829
1608.428280	-2.994500	3.332500	-9.978100	26.899933	0.000600	20.756348
1609.432240	-2.970600	3.333700	-9.901300	26.852240	0.000599	20.771930
1610.431204	-3.012900	3.332400	-10.039000	26.881501	0.000599	20.779067
1611.427948	-2.999000	3.332800	-9.994200	26.838809	0.000598	20.763640
1612.428536	-3.014300	3.330800	-10.039000	26.820222	0.000597	20.770556
1613.426507	-3.005500	3.331400	-10.011000	26.825881	0.000596	20.760599
1614.426259	-2.991300	3.330400	-9.961400	26.843175	0.000598	20.765185
1615.433112	-2.997700	3.330400	-9.982000	26.829573	0.000597	20.779484
1616.427672	-2.994700	3.329000	-9.968000	26.787350	0.000594	20.748410
1617.427558	-3.004700	3.329600	-10.002000	26.788691	0.000594	20.760191
1618.433638	-2.997300	3.329200	-9.977600	26.812279	0.000593	20.782484
1619.428004	-3.040700	3.326400	-10.113000	26.787081	0.000594	20.758572
1620.429237	-2.995100	3.327400	-9.964300	26.749101	0.000593	20.758793
1621.432474	-3.008700	3.326900	-10.009000	26.746150	0.000591	20.750609
1622.431581	-2.994700	3.327700	-9.964200	26.695515	0.000592	20.752808
1623.434422	-2.996700	3.325900	-9.965600	26.709233	0.000591	20.778929
1624.436835	-2.995300	3.326600	-9.962700	26.727155	0.000590	20.763281
1625.429413	-3.001400	3.325400	-9.979300	26.767462	0.000589	20.770615
1626.435753	-2.977000	3.326600	-9.901600	26.813686	0.000590	20.769200
1627.434369	-2.990700	3.327000	-9.949100	26.843248	0.000589	20.763837
1628.431369	-3.004100	3.325800	-9.990800	26.872656	0.000588	20.753103
1629.430752	-2.976700	3.326400	-9.899900	26.870282	0.000585	20.774897
1630.436073	-2.985400	3.325600	-9.927700	26.826914	0.000588	20.753577
1631.431142	-2.998000	3.324000	-9.964700	26.759379	0.000586	20.749211
1632.438630	-3.013800	3.324000	-10.017000	26.721178	0.000585	20.786196
1633.440269	-3.019600	3.321800	-10.030000	26.720284	0.000584	20.738354
1634.436452	-2.992300	3.322500	-9.940400	26.691783	0.000586	20.730563
1635.432794	-2.997700	3.321600	-9.954800	26.690693	0.000585	20.768350
1636.436706	-2.993100	3.322400	-9.942800	26.706355	0.000584	20.750904
1637.436588	-2.967900	3.322000	-9.858100	26.756891	0.000583	20.758090
1638.432250	-3.012400	3.320900	-10.003000	26.804970	0.000584	20.743840
1639.434065	-2.963800	3.320700	-9.840200	26.792188	0.000582	20.761335
1640.436998	-2.982900	3.320800	-9.903600	26.795489	0.000582	20.745214
1641.436004	-2.985800	3.319200	-9.909400	26.785212	0.000580	20.762856
1642.440506	-2.985200	3.319600	-9.909200	26.758208	0.000578	20.744241
1643.440399	-3.016600	3.318800	-10.010000	26.714917	0.000577	20.743865
1644.434180	-3.019100	3.318700	-10.017000	26.682643	0.000577	20.744135
1645.433963	-2.983600	3.319500	-9.902000	26.695150	0.000577	20.740113
1646.436920	-2.993500	3.319900	-9.937400	26.712999	0.000577	20.743832
1647.441490	-3.011100	3.317300	-9.986800	26.725757	0.000575	20.758556
1648.439481	-2.998600	3.316200	-9.942800	26.767731	0.000577	20.742434
1649.438283	-2.985800	3.315900	-9.898400	26.814557	0.000575	20.741626
1650.435530	-2.978100	3.316000	-9.873900	26.836753	0.000574	20.732174
1651.437027	-2.993600	3.317700	-9.930600	26.825086	0.000573	20.736091
1652.443781	-3.004700	3.316300	-9.964200	26.782838	0.000572	20.745771
1653.441705	-3.020400	3.314300	-10.010000	26.733466	0.000573	20.734063
1654.448167	-2.976700	3.316300	-9.867500	26.687645	0.000571	20.757224
1655.437877	-2.994400	3.315100	-9.925600	26.628713	0.000572	20.748240
1656.443196	-2.986800	3.314000	-9.897600	26.600234	0.000569	20.767501
1657.446900	-2.999000	3.313400	-9.936100	26.568241	0.000569	20.745296
1658.441682	-3.011600	3.314500	-9.981000	26.563044	0.000571	20.750030
1659.438653	-3.028700	3.312100	-10.030000	26.593948	0.000570	20.753121
1660.441567	-3.005800	3.313100	-9.956400	26.622647	0.000567	20.727916
1661.438888	-2.989500	3.313700	-9.905300	26.635992	0.000567	20.754609
1662.445002	-2.990900	3.312400	-9.906200	26.667032	0.000569	20.738397
1663.446863	-3.026100	3.311000	-10.018000	26.699592	0.000566	20.720869
1664.443032	-3.024100	3.311500	-10.013000	26.714310	0.000565	20.747047
1665.449578	-2.972600	3.311200	-9.842100	26.692883	0.000565	20.745421
1666.445558	-2.990300	3.310700	-9.898500	26.734013	0.000567	20.714697
1667.444630	-3.002000	3.310900	-9.938900	26.768408	0.000566	20.716087
1668.445881	-3.024400	3.309300	-10.008000	26.805461	0.000564	20.735325
1669.446994	-2.997000	3.309900	-9.918100	26.845724	0.000563	20.735504
1670.445377	-2.993800	3.310000	-9.908300	26.856692	0.000564	20.737524
1671.448302	-2.981400	3.308900	-9.864100	26.882522	0.000560	20.723193
1672.445528	-2.975200	3.308900	-9.843900	26.886766	0.000562	20.713709
1673.445829	-3.014200	3.307600	-9.968800	26.883636	0.000561	20.735219
1674.444779	-2.994000	3.308300	-9.904000	26.893368	0.000560	20.729357
1675.453065	-3.024100	3.305200	-9.994000	26.925230	0.000560	20.719669
1676.451535	-3.005100	3.306300	-9.933600	26.878913	0.000558	20.709605
1677.446457	-3.013400	3.306500	-9.963200	26.902198	0.000558	20.742978
1678.449858	-2.996400	3.305700	-9.904500	26.901775	0.000559	20.731647
1679.446895	-3.003800	3.304500	-9.925000	26.826196	0.000558	20.726774
1680.454769	-2.990600	3.305700	-9.884200	26.809966	0.000557	20.722784
1681.446182	-2.990500	3.304600	-9.882100	26.783037	0.000557	20.713252
1682.453339	-2.998700	3.304100	-9.906900	26.765612	0.000555	20.733192
1683.451690	-2.988000	3.303600	-9.870400	26.774003	0.000553	20.712704
1684.451176	-3.013100	3.303000	-9.950500	26.781329	0.000555	20.702999
1685.457482	-2.989600	3.303200	-9.874400	26.790111	0.000553	20.736961
1686.453381	-2.992200	3.302800	-9.881600	26.768921	0.000554	20.728458
1687.451906	-3.020300	3.301200	-9.969500	26.772474	0.000553	20.735824
1688.448454	-2.987600	3.301700	-9.863200	26.838496	0.000551	20.713537
1689.455874	-2.993800	3.303200	-9.887300	26.872124	0.000551	20.703252
1690.453761	-2.994000	3.301000	-9.882600	26.927156	0.000550	20.723503
1691.453770	-2.978100	3.301300	-9.830900	26.953561	0.000550	20.702164
1692.452325	-2.996300	3.300800	-9.889500	26.978397	0.000548	20.728089
1693.452179	-2.963500	3.301300	-9.781300	27.002078	0.000548	20.703063
1694.449086	-3.002400	3.298800	-9.903200	27.006874	0.000547	20.744873
1695.451424	-2.994100	3.299700	-9.878200	26.952975	0.000546	20.718171
1696.447838	-3.010600	3.298800	-9.930100	26.971039	0.000545	20.715948
1697.451000	-2.995900	3.299000	-9.882600	26.979681	0.000545	20.708516
1698.454779	-2.992500	3.297600	-9.867100	27.017108	0.000545	20.704428
1699.454947	-2.994600	3.299100	-9.878600	27.005792	0.000544	20.719602
1700.452863	-2.989000	3.297800	-9.856800	27.033041	0.000545	20.715236
1701.453920	-3.003100	3.297200	-9.900700	27.038340	0.000545	20.714875
1702.457942	-3.019600	3.295300	-9.949900	27.038535	0.000544	20.700372
1703.450813	-2.996100	3.296600	-9.876200	26.992053	0.000544	20.718113
1704.451077	-3.000200	3.295200	-9.885300	27.001263	0.000543	20.726902
1705.453929	-3.015800	3.296200	-9.939400	26.992256	0.000541	20.712153
1706.459536	-2.998300	3.295200	-9.878800	27.004539	0.000539	20.719764
1707.456636	-2.996400	3.294200	-9.870100	27.011587	0.000540	20.714998
1708.458399	-3.001000	3.294300	-9.884600	27.028837	0.000539	20.713379
1709.455672	-2.985400	3.294500	-9.834600	27.012066	0.000537	20.699357
1710.454661	-3.032500	3.291000	-9.979300	26.999230	0.000538	20.723909
1711.455231	-3.010500	3.292100	-9.909600	26.990280	0.000536	20.708743
1712.464025	-3.002000	3.292700	-9.883500	26.985841	0.000536	20.710443
1713.455017	-3.005000	3.292500	-9.892100	26.923218	0.000537	20.688721
1714.454148	-3.009900	3.291900	-9.908000	26.901056	0.000536	20.701998
1715.453137	-3.005300	3.291800	-9.891800	26.950169	0.000535	20.693537
1716.455431	-2.997200	3.290600	-9.861800	26.950811	0.000534	20.722160
1717.455712	-3.008500	3.291000	-9.900200	26.933348	0.000532	20.688950
1718.458339	-2.995600	3.289900	-9.853800	26.921706	0.000532	20.701900
1719.454929	-2.983400	3.290100	-9.814600	26.946526	0.000532	20.712160
1720.456851	-3.008400	3.290300	-9.897700	26.949485	0.000532	20.694746
1721.460951	-3.040000	3.288700	-9.995700	26.965338	0.000532	20.706895
1722.457514	-3.005900	3.289000	-9.885000	26.983857	0.000529	20.701335
1723.464527	-3.007900	3.289800	-9.894100	26.964200	0.000529	20.690576
1724.458733	-2.990800	3.287800	-9.831500	26.932852	0.000529	20.700780
1725.459027	-3.016300	3.286800	-9.912800	26.922104	0.000528	20.707043
1726.462048	-2.990200	3.288700	-9.832800	26.939893	0.000527	20.714499
1727.462214	-2.971500	3.288300	-9.769300	26.929380	0.000527	20.704402
1728.460085	-2.987500	3.287500	-9.820500	26.935559	0.000525	20.683112
1729.465238	-3.000900	3.285700	-9.857700	26.948982	0.000526	20.689023
1730.458067	-2.999900	3.285400	-9.852800	26.926876	0.000526	20.710893
1731.457944	-2.994400	3.287500	-9.842300	26.909446	0.000525	20.720393
1732.463570	-2.989600	3.285900	-9.822300	26.910389	0.000526	20.718971
1733.462466	-2.988600	3.285000	-9.816500	26.933299	0.000524	20.700281
1734.457248	-3.008000	3.285200	-9.881200	26.994775	0.000522	20.707574
1735.461212	-2.991800	3.284200	-9.823900	26.984751	0.000524	20.715038
1736.462078	-3.018800	3.282600	-9.908000	27.002514	0.000520	20.687854
1737.461415	-2.974700	3.283400	-9.766700	27.037006	0.000520	20.715431
1738.462911	-3.000400	3.281700	-9.844700	27.044086	0.000520	20.719232
1739.461530	-2.996000	3.282900	-9.834100	27.046045	0.000519	20.700812
1740.464997	-3.004300	3.281500	-9.855900	27.027657	0.000518	20.715512
1741.459687	-3.013200	3.280900	-9.884800	27.026560	0.000518	20.704451
1742.461129	-2.993500	3.280900	-9.820500	27.056865	0.000517	20.699365
1743.460919	-2.982500	3.280900	-9.784500	27.094558	0.000517	20.706928
1744.463411	-3.016200	3.280500	-9.893300	27.078577	0.000516	20.717409
1745.462334	-2.990900	3.281100	-9.812400	27.087770	0.000516	20.726655
1746.463206	-3.010600	3.280600	-9.874300	27.103548	0.000513	20.699847
1747.463741	-3.016800	3.278100	-9.888000	27.043654	0.000516	20.706469
1748.464094	-2.998800	3.278000	-9.829300	27.053848	0.000515	20.708660
1749.461267	-3.000200	3.277400	-9.831400	27.056458	0.000514	20.711758
1750.463070	-2.989100	3.277400	-9.794500	27.053165	0.000512	20.711766
1751.465514	-3.009300	3.276400	-9.858500	27.069813	0.000513	20.712388
1752.460633	-2.998800	3.277700	-9.827700	27.071073	0.000510	20.712707
1753.465534	-2.964000	3.277000	-9.712000	27.089956	0.000510	20.724586
1754.464363	-3.003400	3.275800	-9.837600	27.120283	0.000510	20.719051
1755.464052	-2.976800	3.277300	-9.754000	27.120560	0.000509	20.733080
1756.464494	-2.989000	3.276100	-9.791400	27.150285	0.000509	20.698015
1757.467132	-2.991600	3.275100	-9.796500	27.177750	0.000508	20.706199
1758.460368	-3.016800	3.274300	-9.876800	27.136044	0.000509	20.715461
1759.468485	-2.982000	3.275700	-9.766100	27.127111	0.000508	20.717857
1760.460242	-3.005500	3.275400	-9.842900	27.090264	0.000508	20.712567
1761.460567	-2.999100	3.274500	-9.819900	27.041817	0.000505	20.722166
1762.461768	-2.983300	3.274400	-9.767400	27.015145	0.000505	20.719051
1763.464273	-2.988500	3.272900	-9.780000	26.981100	0.000504	20.712314
1764.466023	-2.976000	3.272400	-9.736600	26.970897	0.000505	20.700157
1765.465319	-2.994500	3.273100	-9.800500	26.949249	0.000503	20.709208
1766.466160	-2.996900	3.272400	-9.804400	26.897436	0.000502	20.719223
1767.464004	-3.019300	3.270900	-9.874000	26.896022	0.000501	20.726810
1768.469487	-2.997400	3.270900	-9.803100	26.946598	0.000501	20.694688
1769.466231	-2.993400	3.271600	-9.791700	26.966930	0.000502	20.723670
1770.470086	-2.998400	3.269700	-9.803200	26.999285	0.000501	20.700255
1771.465233	-2.987800	3.269100	-9.767100	27.050775	0.000501	20.716950
1772.464157	-2.988200	3.269500	-9.768300	27.072788	0.000499	20.718699
1773.465510	-2.990000	3.269600	-9.774700	27.089907	0.000499	20.727382
1774.470570	-2.997400	3.268100	-9.795100	27.099337	0.000499	20.736866
1775.469419	-3.028300	3.268300	-9.895500	27.124243	0.000497	20.735836
1776.469427	-2.994500	3.268800	-9.787400	27.192136	0.000498	20.722567
1777.468283	-3.003500	3.268200	-9.815000	27.210399	0.000496	20.715331
1778.467355	-2.985800	3.268100	-9.757000	27.231507	0.000495	20.739408
1779.470864	-2.989300	3.267100	-9.764600	27.237619	0.000495	20.735598
1780.472115	-2.984800	3.266100	-9.748000	27.275947	0.000495	20.703027
1781.472212	-3.012200	3.266800	-9.838900	27.309715	0.000491	20.720874
1782.472661	-3.003900	3.265800	-9.809200	27.353998	0.000493	20.727962
1783.471626	-2.981900	3.265900	-9.738000	27.372981	0.000492	20.715290
1784.471689	-2.984100	3.264800	-9.741900	27.316119	0.000492	20.713090
1785.476359	-3.020100	3.263500	-9.855400	27.311064	0.000491	20.726498
1786.474059	-2.997900	3.264500	-9.785600	27.300173	0.000491	20.734984
1787.473156	-3.018000	3.263000	-9.846000	27.298711	0.000491	20.724029
1788.477245	-3.012400	3.263200	-9.829200	27.321531	0.000489	20.737977
1789.484717	-3.005500	3.261800	-9.802800	27.312607	0.000488	20.727577
1790.474110	-2.997900	3.263400	-9.781300	27.280603	0.000488	20.719091
1791.477478	-3.010000	3.261800	-9.816600	27.279888	0.000486	20.726432
1792.477560	-2.997100	3.262200	-9.776400	27.287210	0.000486	20.736643
1793.475191	-2.985300	3.262500	-9.737500	27.273938	0.000486	20.740363
1794.475704	-2.991700	3.261200	-9.755600	27.288128	0.000484	20.736619
1795.472354	-2.995200	3.260700	-9.765500	27.232236	0.000486	20.737771
1796.478958	-3.004800	3.259400	-9.792900	27.261235	0.000483	20.724740
1797.476897	-2.986700	3.261300	-9.739400	27.255684	0.000483	20.712517
1798.473042	-3.013000	3.258500	-9.815600	27.299888	0.000482	20.727585
1799.475453	-2.991100	3.259300	-9.747600	27.322416	0.000482	20.735073
1800.476633	-2.982700	3.258300	-9.717100	27.353566	0.000481	20.735589
1801.477676	-3.008000	3.256800	-9.795300	27.352590	0.000480	20.738874
1802.479553	-3.003700	3.258600	-9.787100	27.387933	0.000480	20.737918
1803.477210	-3.004700	3.256500	-9.783000	27.394832	0.000480	20.745333
1804.477964	-3.012600	3.256100	-9.808100	27.367665	0.000479	20.743134
1805.473162	-2.993200	3.256900	-9.746300	27.368689	0.000478	20.728990
1806.478043	-2.991800	3.256600	-9.741900	27.329592	0.000476	20.743714
1807.476113	-2.998800	3.255200	-9.759500	27.352981	0.000478	20.753967
1808.472939	-3.000000	3.254400	-9.762100	27.380870	0.000478	20.753100
1809.480010	-3.015500	3.254700	-9.813400	27.396180	0.000477	20.729145
1810.475554	-3.018800	3.254500	-9.823900	27.420730	0.000475	20.739145
1811.475465	-2.987000	3.255400	-9.721000	27.438445	0.000475	20.726145
1812.478849	-2.996500	3.254000	-9.750000	27.446213	0.000473	20.747238
1813.476089	-2.998600	3.253700	-9.755300	27.420347	0.000473	20.737337
1814.478549	-2.998800	3.252100	-9.751300	27.374970	0.000472	20.762338
1815.476671	-3.007700	3.252900	-9.782400	27.338677	0.000472	20.712075
1816.475832	-3.033900	3.250800	-9.861800	27.307494	0.000471	20.741875
1817.479849	-2.990600	3.251600	-9.721400	27.259869	0.000470	20.741858
1818.499633	-2.990800	3.251400	-9.722400	27.260462	0.000469	20.746722
1819.479174	-2.991300	3.252300	-9.727500	27.288647	0.000468	20.735244
1820.478802	-2.983500	3.251300	-9.697400	27.290533	0.000470	20.767962
1821.478951	-3.013100	3.249800	-9.791500	27.306762	0.000468	20.754415
1822.482814	-3.006800	3.249300	-9.769400	27.315889	0.000467	20.738465
1823.485387	-3.001900	3.249000	-9.752000	27.317669	0.000466	20.735514
1824.481634	-2.963600	3.249800	-9.629900	27.340106	0.000465	20.745757
1825.483101	-3.014500	3.248200	-9.790200	27.346925	0.000466	20.758781
1826.483860	-3.017600	3.247300	-9.798600	27.333264	0.000466	20.745986
1827.489144	-3.010000	3.247800	-9.774500	27.337271	0.000464	20.756181
1828.490973	-3.006400	3.248200	-9.765200	27.364885	0.000462	20.739389
1829.487225	-3.014400	3.246800	-9.785700	27.413285	0.000463	20.754889
1830.488210	-3.005400	3.246200	-9.754300	27.395018	0.000463	20.753107
1831.489732	-2.996000	3.247700	-9.728700	27.377684	0.000461	20.732350
1832.496074	-3.001500	3.245800	-9.741000	27.362894	0.000461	20.748292
1833.492725	-3.011800	3.245800	-9.775300	27.356425	0.000460	20.747000
1834.484260	-2.996900	3.245000	-9.724100	27.361285	0.000459	20.749992
1835.491523	-2.998600	3.245400	-9.729900	27.366836	0.000459	20.744671
1836.484219	-2.997300	3.244600	-9.724100	27.322187	0.000457	20.748594
1837.488141	-3.009300	3.242300	-9.754900	27.291549	0.000455	20.760923
1838.487344	-2.989900	3.243800	-9.697300	27.270759	0.000455	20.746649
1839.486664	-3.004500	3.242400	-9.740900	27.279935	0.000456	20.729799
1840.488576	-2.999100	3.242300	-9.722900	27.308811	0.000455	20.751734
1841.489822	-3.016400	3.241700	-9.777100	27.345821	0.000453	20.767627
1842.488765	-2.987400	3.242400	-9.684500	27.366194	0.000453	20.755405
1843.484964	-3.002400	3.240800	-9.729500	27.369501	0.000453	20.746877
1844.490455	-2.987100	3.241100	-9.680700	27.367217	0.000451	20.760702
1845.486764	-2.992900	3.239800	-9.695800	27.379098	0.000453	20.753213
1846.496392	-2.983800	3.240600	-9.667000	27.365300	0.000452	20.768730
1847.489940	-3.003300	3.239800	-9.727900	27.374084	0.000451	20.776619
1848.490064	-2.989300	3.238300	-9.678600	27.377628	0.000449	20.761692
1849.493952	-2.989900	3.238600	-9.681700	27.386510	0.000446	20.766834
1850.490581	-2.991100	3.239500	-9.688900	27.427434	0.000448	20.773391
1851.488533	-3.013500	3.238700	-9.758500	27.470127	0.000445	20.785997
1852.486217	-3.019000	3.237200	-9.772400	27.538447	0.000445	20.774601
1853.486509	-3.006100	3.237300	-9.730800	27.531085	0.000444	20.770039
1854.491866	-3.037200	3.235000	-9.822700	27.492692	0.000445	20.794949
1855.492809	-2.997600	3.235800	-9.698100	27.540657	0.000445	20.770187
1856.493093	-3.003600	3.235500	-9.716400	27.508237	0.000443	20.753689
1857.492935	-2.993500	3.235200	-9.683800	27.511975	0.000442	20.771675
1858.492446	-2.998300	3.235400	-9.698300	27.528379	0.000440	20.779171
1859.493138	-3.004300	3.233900	-9.714900	27.559255	0.000442	20.776097
1860.495853	-2.996600	3.234700	-9.691500	27.589334	0.000441	20.761317
1861.491332	-2.989200	3.234500	-9.666800	27.593007	0.000440	20.769754
1862.495485	-2.971100	3.234000	-9.606700	27.591959	0.000439	20.772019
1863.491998	-2.995700	3.233600	-9.686400	27.598263	0.000439	20.772672
1864.490981	-2.991700	3.231400	-9.666300	27.586946	0.000439	20.789260
1865.495627	-3.005100	3.231600	-9.710500	27.574840	0.000439	20.789882
1866.497995	-3.006000	3.232000	-9.714400	27.601652	0.000438	20.777979
1867.495411	-3.004900	3.230500	-9.706400	27.628016	0.000437	20.777006
1868.492336	-2.987500	3.230400	-9.650600	27.639521	0.000436	20.790953
1869.496621	-3.008100	3.229900	-9.715000	27.637448	0.000436	20.790290
1870.493319	-3.010600	3.230800	-9.725700	27.578261	0.000433	20.779099
1871.501134	-3.035100	3.227800	-9.795800	27.561540	0.000433	20.794992
1872.499921	-3.026200	3.229100	-9.771200	27.502949	0.000434	20.783457
1873.501046	-3.011100	3.228700	-9.720400	27.497440	0.000431	20.777914
1874.498584	-2.996600	3.228800	-9.675100	27.462906	0.000429	20.775413
1875.498700	-2.992900	3.228500	-9.661600	27.490964	0.000429	20.783727
1876.504027	-3.002700	3.228800	-9.694400	27.473543	0.000430	20.797020
1877.498693	-2.996400	3.227200	-9.668600	27.521541	0.000428	20.759488
1878.497422	-2.988300	3.227500	-9.642300	27.516405	0.000428	20.802685
1879.496193	-3.010200	3.226500	-9.711600	27.525408	0.000424	20.776656
1880.499593	-2.999400	3.227200	-9.678800	27.507476	0.000424	20.794649
1881.502197	-2.997700	3.225900	-9.669100	27.498099	0.000425	20.816509
1882.501810	-3.002800	3.225400	-9.684700	27.479938	0.000424	20.803454
1883.498218	-2.996500	3.225900	-9.664800	27.468351	0.000424	20.784684
1884.500690	-3.002300	3.224000	-9.677300	27.493403	0.000424	20.785706
1885.497213	-3.004700	3.224700	-9.687900	27.514488	0.000422	20.810240
1886.498919	-3.000800	3.223100	-9.671600	27.527213	0.000421	20.789377
1887.502145	-2.967900	3.224600	-9.568900	27.503048	0.000421	20.787350
1888.495731	-2.968400	3.224100	-9.569300	27.484067	0.000419	20.779159
1889.499860	-3.014100	3.221400	-9.708800	27.453213	0.000418	20.820663
1890.498414	-2.992100	3.222900	-9.641800	27.404319	0.000420	20.798975
1891.500029	-3.003800	3.221400	-9.674300	27.385393	0.000419	20.812178
1892.501890	-3.010100	3.220800	-9.694100	27.408935	0.000416	20.808834
1893.501289	-2.994500	3.221500	-9.645300	27.408285	0.000416	20.793482
1894.504769	-2.993600	3.218900	-9.634800	27.433712	0.000416	20.815742
1895.501641	-2.983500	3.219100	-9.603000	27.500879	0.000415	20.823100
1896.504972	-2.992100	3.221700	-9.638400	27.459430	0.000413	20.803684
1897.501827	-3.007500	3.218900	-9.680500	27.429210	0.000412	20.814533
1898.501726	-2.999700	3.218700	-9.653800	27.428666	0.000412	20.791226
1899.503963	-2.990800	3.218700	-9.626300	27.483466	0.000412	20.816960
1900.500433	-2.979500	3.219600	-9.592100	27.519479	0.000410	20.818105
1901.502573	-2.981000	3.217200	-9.589500	27.540686	0.000412	20.815260
1902.500358	-2.997200	3.214900	-9.635000	27.578483	0.000411	20.798763
1903.506126	-2.984300	3.216600	-9.597800	27.604328	0.000409	20.802957
1904.501803	-3.016000	3.216400	-9.699800	27.633764	0.000407	20.809342
1905.505010	-3.006800	3.214800	-9.664800	27.652783	0.000408	20.812833
1906.501596	-3.013200	3.214000	-9.683300	27.651792	0.000406	20.814680
1907.505105	-3.023400	3.212900	-9.712400	27.623299	0.000406	20.838166
1908.508261	-3.004700	3.217000	-9.664700	27.629881	0.000406	20.802116
1909.502638	-3.008600	3.213100	-9.665100	27.595936	0.000404	20.829600
1910.504625	-3.003800	3.212600	-9.648300	27.565679	0.000405	20.821441
1911.502210	-2.993000	3.214000	-9.618900	27.547674	0.000404	20.819446
1912.503082	-3.009400	3.212300	-9.664900	27.517317	0.000401	20.818776
1913.503828	-2.997100	3.214100	-9.632300	27.539045	0.000400	20.823566
1914.502929	-2.998900	3.211600	-9.629300	27.566182	0.000401	20.830482
1915.503310	-3.013300	3.210500	-9.673100	27.602119	0.000400	20.826812
1916.503160	-3.009800	3.211000	-9.662500	27.640012	0.000399	20.837913
1917.506122	-2.974500	3.210000	-9.546500	27.624161	0.000399	20.839982
1918.508195	-2.999900	3.210400	-9.629200	27.607009	0.000399	20.804706
1919.512741	-3.014100	3.209900	-9.673700	27.613265	0.000397	20.819535
1920.510217	-3.005500	3.209000	-9.642900	27.675580	0.000396	20.817754
1921.510056	-2.996000	3.208700	-9.612900	27.686059	0.000394	20.831143
1922.505632	-3.001000	3.209600	-9.630400	27.772804	0.000393	20.839253
1923.510866	-3.015500	3.206800	-9.669100	27.764933	0.000394	20.824694
1924.508336	-3.002000	3.208200	-9.630400	27.777337	0.000393	20.829116
1925.507988	-3.011800	3.207900	-9.660900	27.781431	0.000391	20.823279
1926.508299	-2.987000	3.207200	-9.578400	27.774372	0.000392	20.837037
1927.509920	-3.022600	3.205500	-9.687600	27.764111	0.000391	20.852315
1928.507092	-3.006500	3.206700	-9.638800	27.730463	0.000391	20.827464
1929.510650	-3.002600	3.206600	-9.627800	27.713054	0.000388	20.851195
1930.511286	-2.999000	3.206300	-9.614300	27.744290	0.000387	20.836637
1931.513779	-2.982400	3.205500	-9.558200	27.744298	0.000387	20.829532
1932.509149	-2.982700	3.204300	-9.556000	27.772771	0.000386	20.839219
1933.510725	-2.971900	3.204300	-9.522300	27.800715	0.000384	20.856909
1934.509359	-3.008500	3.202700	-9.634700	27.852637	0.000386	20.833775
1935.510642	-3.003700	3.203900	-9.622300	27.883016	0.000384	20.850598
1936.509873	-2.990500	3.202300	-9.575300	27.899602	0.000383	20.825093
1937.508310	-3.026100	3.202000	-9.687800	27.896231	0.000381	20.851097
1938.507288	-3.007700	3.201400	-9.626700	27.893786	0.000379	20.847213
1939.509850	-3.005100	3.200900	-9.617600	27.933983	0.000381	20.841679
1940.513045	-2.993100	3.201500	-9.581100	27.941740	0.000381	20.843322
1941.506834	-3.004200	3.199400	-9.609800	27.961330	0.000381	20.830798
1942.509604	-2.999600	3.198800	-9.593500	27.982633	0.000379	20.831852
1943.505243	-3.005400	3.198900	-9.612800	27.979458	0.000375	20.839561
1944.506158	-2.998400	3.198100	-9.588300	27.987864	0.000376	20.842807
1945.508382	-3.000700	3.197500	-9.594300	27.936898	0.000376	20.837501
1946.510829	-3.005600	3.197200	-9.608800	27.941065	0.000376	20.842642
1947.510978	-3.016300	3.196800	-9.641300	27.961963	0.000375	20.843288
1948.508224	-3.010800	3.195300	-9.619400	27.965463	0.000374	20.834010
1949.509513	-3.028100	3.195200	-9.674100	27.945134	0.000374	20.830617
1950.514749	-2.998700	3.195600	-9.582000	27.943550	0.000373	20.855574
1951.513301	-3.007000	3.195700	-9.609300	27.966860	0.000372	20.839683
1952.514573	-3.045500	3.194200	-9.725900	27.983347	0.000372	20.855803
1953.508123	-3.006900	3.196200	-9.609500	28.003732	0.000371	20.853089
1954.511421	-3.004100	3.194400	-9.595700	27.989998	0.000372	20.845903
1955.508963	-2.983800	3.194500	-9.530500	27.943719	0.000368	20.834883
1956.512219	-3.006000	3.194200	-9.600600	27.910889	0.000368	20.833608
1957.521351	-3.022500	3.192200	-9.647000	27.909378	0.000368	20.843941
1958.514112	-3.010100	3.192200	-9.608100	27.919466	0.000369	20.838922
1959.512847	-3.009900	3.194400	-9.613000	27.894774	0.000366	20.853897
1960.509646	-3.000400	3.192600	-9.578300	27.935564	0.000364	20.842796
1961.511745	-2.997800	3.191600	-9.565200	27.963512	0.000364	20.823037
1962.510916	-3.009100	3.192600	-9.605800	28.009481	0.000366	20.844177
1963.510838	-3.010200	3.190400	-9.603400	28.059062	0.000364	20.852360
1964.509741	-2.989500	3.189900	-9.534600	28.043965	0.000363	20.868930
1965.511718	-3.007500	3.188600	-9.589000	27.989550	0.000362	20.841659
1966.513941	-2.993300	3.189500	-9.546800	27.944652	0.000361	20.818753
1967.518012	-3.001400	3.187900	-9.567700	27.954569	0.000360	20.855760
1968.517389	-3.011100	3.188500	-9.599400	27.943044	0.000359	20.831359
1969.520372	-3.008600	3.187100	-9.588100	27.947186	0.000359	20.830312
1970.516212	-2.979600	3.187400	-9.496600	27.911757	0.000357	20.853446
1971.519155	-3.014000	3.184700	-9.597200	27.917507	0.000357	20.849277
1972.515625	-3.010100	3.185000	-9.585600	27.915062	0.000355	20.846342
1973.518454	-2.997800	3.187300	-9.553700	27.935636	0.000355	20.834334
1974.516934	-3.011400	3.184100	-9.587200	27.953147	0.000355	20.853381
1975.515630	-3.015400	3.185800	-9.606200	27.928058	0.000355	20.839034
1976.516828	-3.002100	3.182700	-9.553600	27.882881	0.000353	20.839083
1977.522206	-3.015800	3.182400	-9.596200	27.845045	0.000352	20.826608
1978.528930	-3.006200	3.182900	-9.567700	27.807054	0.000354	20.832470
1979.520573	-3.010600	3.182300	-9.579900	27.781905	0.000352	20.841299
1980.518611	-2.976600	3.183300	-9.474900	27.760004	0.000349	20.814518
1981.517290	-2.981100	3.183600	-9.489100	27.746965	0.000349	20.838854
1982.523337	-3.002800	3.180600	-9.549100	27.800677	0.000348	20.819889
1983.521962	-3.009800	3.181500	-9.575200	27.838320	0.000347	20.817943
1984.516554	-2.970300	3.182300	-9.451900	27.801344	0.000345	20.826723
1985.520051	-2.974800	3.180300	-9.459700	27.808963	0.000346	20.818270
1986.513546	-3.006100	3.179600	-9.557000	27.817492	0.000345	20.823535
1987.520888	-2.973600	3.179600	-9.454000	27.855475	0.000344	20.850855
1988.522908	-2.974200	3.177500	-9.448100	27.888656	0.000345	20.820240
1989.520994	-3.006000	3.179400	-9.556200	27.899889	0.000342	20.814477
1990.519542	-3.007100	3.179000	-9.558800	27.943108	0.000344	20.817199
1991.519907	-3.009400	3.177400	-9.561200	27.987340	0.000344	20.829477
1992.520104	-3.010500	3.177200	-9.563800	27.962918	0.000341	20.810111
1993.523355	-2.989700	3.175300	-9.492100	27.965029	0.000342	20.799434
1994.516766	-2.981800	3.175100	-9.465500	27.952813	0.000339	20.816062
1995.520793	-2.993900	3.174900	-9.504400	27.964046	0.000338	20.824523
1996.519389	-3.004500	3.175500	-9.539500	28.000188	0.000338	20.817280
1997.521855	-3.018900	3.173600	-9.579200	27.970511	0.000336	20.802582
1998.524476	-3.003400	3.172300	-9.527100	27.957199	0.000334	20.819054
1999.524812	-2.999900	3.172900	-9.517800	27.863012	0.000336	20.797275
2000.523352	-2.958500	3.173400	-9.386800	27.848302	0.000333	20.804756
2001.528041	-3.016500	3.172700	-9.569400	27.786842	0.000334	20.777516
2002.524339	-3.001600	3.172000	-9.520300	27.816800	0.000332	20.809088
2003.524578	-2.992100	3.171400	-9.487700	27.851217	0.000332	20.808164
2004.523277	-3.008300	3.170200	-9.535900	27.915515	0.000332	20.793694
2005.524316	-2.978900	3.171200	-9.446000	27.971054	0.000331	20.803602
2006.534341	-2.982500	3.168500	-9.449400	28.007968	0.000329	20.795714
2007.523302	-2.985300	3.171100	-9.464100	28.030529	0.000329	20.808466
2008.534308	-3.013600	3.168300	-9.546700	28.079768	0.000327	20.807771
2009.529461	-2.981700	3.168100	-9.445100	28.119560	0.000327	20.809423
2010.526368	-3.020700	3.168000	-9.568600	28.092388	0.000327	20.799139
2011.525093	-2.998800	3.167200	-9.497100	28.055575	0.000326	20.788159
2012.524421	-3.001300	3.166100	-9.501400	28.078355	0.000326	20.793073
2013.525581	-3.014200	3.164800	-9.538800	28.018160	0.000325	20.781317
2014.524642	-3.001400	3.164500	-9.497100	28.025778	0.000323	20.792304
2015.527658	-2.993600	3.167900	-9.482700	27.962112	0.000323	20.808352
2016.534066	-2.978700	3.164500	-9.424900	27.983334	0.000322	20.814066
2017.526837	-2.996400	3.164600	-9.481300	28.008974	0.000320	20.811899
2018.529235	-2.979500	3.165600	-9.430900	28.056566	0.000321	20.793424
2019.530540	-2.989600	3.164100	-9.458100	28.094597	0.000323	20.805629
2020.531069	-3.029400	3.162000	-9.577900	28.114736	0.000317	20.796031
2021.530336	-2.995700	3.162300	-9.471800	28.150922	0.000317	20.787415
2022.529661	-2.990100	3.162500	-9.454700	28.150695	0.000317	20.800937
2023.527925	-3.010900	3.161200	-9.515700	28.138335	0.000317	20.790865
2024.529035	-2.988600	3.160400	-9.444000	28.127348	0.000314	20.781227
2025.529583	-3.024000	3.159200	-9.552300	28.171443	0.000316	20.792901
2026.526745	-3.008000	3.159600	-9.503000	28.176112	0.000315	20.784325
2027.527429	-2.975000	3.160600	-9.401700	28.185458	0.000314	20.796105
2028.527499	-2.991900	3.162400	-9.460800	28.201893	0.000314	20.774245
2029.532081	-3.022500	3.156700	-9.539200	28.252497	0.000314	20.792476
2030.532256	-2.989900	3.159400	-9.444900	28.276864	0.000311	20.785715
2031.537507	-2.998000	3.157000	-9.463900	28.255843	0.000310	20.768817
2032.532870	-3.020900	3.154900	-9.528600	28.227415	0.000308	20.794724
2033.534688	-2.966300	3.157700	-9.365700	28.180562	0.000311	20.797340
2034.535670	-3.006400	3.153900	-9.480800	28.131823	0.000309	20.769136
2035.535635	-2.988900	3.153600	-9.424200	28.060595	0.000310	20.812652
2036.534366	-2.978900	3.154900	-9.397000	27.991578	0.000309	20.786329
2037.534799	-2.984900	3.153300	-9.410900	27.926943	0.000308	20.771531
2038.535157	-2.995100	3.152500	-9.441800	27.884171	0.000306	20.779690
2039.533742	-2.979800	3.152700	-9.393700	27.874643	0.000305	20.787171
2040.536744	-2.979100	3.154200	-9.394100	27.901123	0.000306	20.778734
2041.537667	-2.982300	3.152300	-9.399500	27.922891	0.000302	20.780255
2042.539416	-3.005900	3.151600	-9.472500	27.940744	0.000303	20.774042
2043.535926	-2.996800	3.149000	-9.436000	27.966401	0.000303	20.798445
2044.540260	-2.989800	3.150200	-9.417300	27.987599	0.000302	20.768099
2045.536801	-2.979700	3.149600	-9.383600	28.020565	0.000301	20.766194
2046.541151	-2.971500	3.149700	-9.358300	28.049470	0.000298	20.780591
2047.536792	-3.004300	3.148400	-9.457300	28.054749	0.000299	20.790646
2048.538129	-2.992200	3.147300	-9.415000	28.028143	0.000298	20.777615
2049.542363	-3.021300	3.145400	-9.502200	28.046441	0.000296	20.796508
2050.540514	-3.013200	3.144700	-9.474700	28.024521	0.000296	20.786298
2051.540972	-2.996300	3.145100	-9.423100	28.029322	0.000295	20.767896
2052.542330	-2.987000	3.145200	-9.393100	28.056845	0.000294	20.780428
2053.541805	-3.019100	3.144300	-9.492400	28.055505	0.000294	20.779553
2054.543793	-2.997200	3.142900	-9.419200	28.052995	0.000294	20.794571
2055.544968	-3.001900	3.143600	-9.435800	28.065210	0.000295	20.775099
2056.542738	-2.995800	3.143800	-9.417100	28.079666	0.000292	20.758830
2057.548615	-3.015200	3.141900	-9.472800	28.091904	0.000292	20.767831
2058.540394	-2.981100	3.142900	-9.368700	28.109332	0.000290	20.772099
2059.542797	-3.007100	3.140500	-9.442400	28.111687	0.000291	20.772099
2060.542984	-2.951100	3.142600	-9.272400	28.133272	0.000289	20.759215
2061.541883	-3.047100	3.138200	-9.561000	28.125265	0.000288	20.784820
2062.546002	-2.996100	3.141100	-9.409900	28.180290	0.000287	20.767194
2063.549798	-2.999000	3.138400	-9.410600	28.192081	0.000286	20.798506
2064.545874	-2.978600	3.138900	-9.348900	28.176693	0.000287	20.775901
2065.542534	-2.977600	3.138400	-9.343700	28.151374	0.000287	20.784551
2066.545797	-2.990400	3.137300	-9.381200	28.156733	0.000284	20.752487
2067.546232	-3.022500	3.135300	-9.475500	28.177774	0.000283	20.776515
2068.546800	-2.985700	3.135000	-9.359100	28.205983	0.000284	20.772672
2069.543977	-3.001000	3.135100	-9.406800	28.255872	0.000283	20.777382
2070.544662	-3.012400	3.133800	-9.439200	28.271762	0.000281	20.767302
2071.548193	-3.035500	3.133800	-9.511600	28.248833	0.000282	20.775984
2072.551177	-2.997300	3.132300	-9.387400	28.238935	0.000280	20.754639
2073.551769	-2.990400	3.134000	-9.370100	28.214680	0.000280	20.781902
2074.548112	-2.998500	3.131900	-9.390100	28.200170	0.000277	20.779622
2075.547886	-2.998100	3.131200	-9.385000	28.167226	0.000278	20.750723
2076.548079	-2.986300	3.131000	-9.349300	28.109066	0.000278	20.780841
2077.548175	-2.990500	3.129900	-9.358500	28.093150	0.000277	20.761024
2078.549131	-2.999500	3.129400	-9.386100	28.074406	0.000277	20.768709
2079.550468	-3.005600	3.128900	-9.403600	28.060949	0.000276	20.785034
2080.551953	-3.000500	3.126900	-9.380900	28.127323	0.000275	20.782149
2081.548225	-2.984700	3.127600	-9.333000	28.174105	0.000273	20.771399
2082.552363	-3.000600	3.126500	-9.380500	28.187909	0.000272	20.766330
2083.553189	-2.984600	3.126700	-9.331200	28.207561	0.000271	20.758139
2084.554802	-2.976200	3.125300	-9.300600	28.229744	0.000271	20.755817
2085.556911	-2.984700	3.125500	-9.328800	28.254307	0.000271	20.767745
2086.551924	-2.984600	3.123700	-9.322000	28.285015	0.000270	20.760257
2087.551966	-2.976900	3.124500	-9.300500	28.259885	0.000270	20.756291
2088.554708	-3.000300	3.122100	-9.366000	28.257352	0.000270	20.769388
2089.554136	-2.992000	3.121600	-9.338500	28.274752	0.000267	20.748026
2090.550231	-3.020400	3.121500	-9.427100	28.288288	0.000268	20.768767
2091.563296	-3.004600	3.120200	-9.374500	28.254007	0.000267	20.749424
2092.553914	-2.966100	3.121200	-9.257300	28.232887	0.000267	20.744282
2093.554463	-3.005100	3.119600	-9.373100	28.197111	0.000263	20.768482
2094.556036	-2.993300	3.119200	-9.335400	28.179644	0.000265	20.771759
2095.555577	-2.994200	3.117900	-9.333900	28.191313	0.000265	20.756006
2096.555135	-3.004000	3.117000	-9.362700	28.240959	0.000262	20.773272
2097.556102	-2.990200	3.116400	-9.317600	28.270003	0.000262	20.749409
2098.555402	-3.003100	3.116700	-9.358100	28.277229	0.000260	20.755262
2099.555394	-3.010700	3.115700	-9.379200	28.306549	0.000262	20.773403
2100.557221	-2.992300	3.114200	-9.317300	28.325629	0.000261	20.777442
2101.553403	-3.000700	3.113300	-9.341000	28.390767	0.000259	20.770010
2102.558969	-3.002700	3.113200	-9.347100	28.441118	0.000260	20.769029
2103.555490	-2.993600	3.113100	-9.318700	28.476018	0.000258	20.771931
2104.558661	-3.016900	3.110800	-9.383000	28.513921	0.000259	20.768850
2105.560741	-2.980800	3.111200	-9.272600	28.552098	0.000257	20.773159
2106.555428	-2.995500	3.111500	-9.319200	28.558283	0.000256	20.751411
2107.559058	-2.969600	3.109700	-9.232800	28.561620	0.000256	20.763307
2108.558186	-2.992900	3.108600	-9.302300	28.581369	0.000257	20.750480
2109.558864	-2.994700	3.108500	-9.306800	28.557724	0.000254	20.760332
2110.556637	-3.016200	3.106900	-9.368900	28.570241	0.000255	20.751126
2111.555714	-3.006800	3.107900	-9.343700	28.527470	0.000255	20.734604
2112.562733	-3.018500	3.104900	-9.370100	28.473023	0.000254	20.764174
2113.556477	-3.006400	3.105900	-9.335200	28.432530	0.000252	20.742362
2114.557874	-3.004100	3.105900	-9.329000	28.447029	0.000253	20.740842
2115.562900	-2.983300	3.104900	-9.261300	28.421205	0.000251	20.728112
2116.557565	-3.026700	3.104400	-9.394200	28.432205	0.000252	20.753890
2117.560275	-3.000800	3.101700	-9.306900	28.433635	0.000251	20.759597
2118.562379	-3.018500	3.102300	-9.363000	28.415993	0.000251	20.742306
2119.557090	-2.990800	3.100300	-9.271500	28.386523	0.000248	20.760046
2120.558904	-3.010100	3.100700	-9.330600	28.350240	0.000251	20.739158
2121.562142	-2.990500	3.100200	-9.270500	28.300120	0.000250	20.752231
2122.557719	-2.983000	3.099000	-9.243300	28.323691	0.000249	20.742772
2123.559677	-3.021700	3.098100	-9.359700	28.340392	0.000247	20.736355
2124.560264	-2.998500	3.097800	-9.287600	28.382521	0.000246	20.737524
2125.563421	-2.997900	3.097200	-9.283400	28.399002	0.000246	20.754120
2126.561624	-3.003600	3.096500	-9.299000	28.459346	0.000245	20.750400
2127.564794	-2.966900	3.095200	-9.181900	28.472676	0.000244	20.749125
2128.566586	-3.006800	3.092400	-9.297100	28.383797	0.000243	20.747818
2129.562400	-2.986300	3.093400	-9.236800	28.306527	0.000242	20.737819
2130.558910	-3.016800	3.092900	-9.330200	28.278784	0.000241	20.761569
2131.562405	-3.009900	3.091300	-9.303000	28.252980	0.000242	20.750287
2132.564802	-2.986400	3.091300	-9.230200	28.249529	0.000242	20.745390
2133.561542	-2.993300	3.091700	-9.253700	28.320640	0.000240	20.738752
2134.565275	-3.000100	3.089600	-9.268300	28.352873	0.000241	20.746552
2135.564323	-3.011500	3.087300	-9.296500	28.375971	0.000238	20.747999
2136.563366	-3.018100	3.086500	-9.314000	28.416264	0.000241	20.737837
2137.565286	-3.032600	3.086400	-9.358500	28.457124	0.000237	20.749586
2138.565093	-3.020600	3.086000	-9.320800	28.443445	0.000239	20.739603
2139.561913	-2.993000	3.084700	-9.231200	28.467183	0.000237	20.736006
2140.564088	-2.996100	3.084700	-9.241400	28.482299	0.000237	20.734159
2141.561253	-2.997700	3.082400	-9.238900	28.494038	0.000235	20.718004
2142.566525	-2.995100	3.083400	-9.234200	28.434435	0.000237	20.735271
2143.561072	-2.980600	3.082600	-9.185600	28.416940	0.000236	20.739465
2144.564488	-2.999800	3.080900	-9.241200	28.418596	0.000234	20.746349
2145.564837	-2.990900	3.081500	-9.215400	28.413165	0.000234	20.735664
2146.569485	-3.014700	3.080100	-9.283900	28.395094	0.000233	20.737381
2147.568369	-2.989100	3.078600	-9.201000	28.378239	0.000232	20.712822
2148.569382	-2.990200	3.076800	-9.198600	28.381267	0.000230	20.751435
2149.566981	-3.011100	3.077300	-9.265600	28.418832	0.000231	20.745639
2150.564245	-2.983100	3.076700	-9.177300	28.487050	0.000232	20.713812
2151.573024	-2.982400	3.075500	-9.170900	28.504000	0.000230	20.726141
2152.567957	-2.983400	3.075100	-9.172100	28.559111	0.000232	20.737546
2153.569630	-3.001200	3.073500	-9.223700	28.542827	0.000230	20.726836
2154.573071	-2.993000	3.073000	-9.196400	28.554541	0.000230	20.735315
2155.573755	-3.009300	3.072900	-9.246900	28.558462	0.000229	20.734521
2156.575920	-3.008600	3.070600	-9.237200	28.562594	0.000230	20.727777
2157.571795	-3.003700	3.070100	-9.220900	28.552902	0.000229	20.732715
2158.574904	-3.007200	3.068100	-9.224400	28.508637	0.000229	20.719430
2159.576029	-2.986500	3.068000	-9.161200	28.476206	0.000226	20.740825
2160.572721	-3.007100	3.068500	-9.226200	28.437288	0.000229	20.727713
2161.571469	-3.026500	3.066100	-9.278400	28.403905	0.000227	20.712588
2162.574748	-2.988000	3.065400	-9.158600	28.366722	0.000226	20.705492
2163.575187	-3.031400	3.063200	-9.283900	28.365212	0.000226	20.719619
2164.572909	-2.996700	3.063900	-9.180400	28.387936	0.000225	20.729700
2165.578730	-3.011200	3.062200	-9.219900	28.463446	0.000226	20.727501
2166.576338	-2.990800	3.062700	-9.158700	28.480745	0.000223	20.711256
2167.576549	-2.966400	3.061200	-9.079400	28.534420	0.000224	20.699875
2168.575074	-2.987500	3.060300	-9.142100	28.524898	0.000222	20.723479
2169.580608	-2.994700	3.058900	-9.159000	28.564098	0.000223	20.716489
2170.576629	-3.014500	3.056700	-9.213500	28.608475	0.000225	20.725147
2171.578122	-2.994100	3.058300	-9.156000	28.604538	0.000223	20.713595
2172.583851	-3.004800	3.055600	-9.180500	28.566915	0.000221	20.701781
2173.579518	-2.988000	3.054700	-9.126600	28.572484	0.000223	20.711658
2174.586017	-3.000000	3.053500	-9.159200	28.621844	0.000222	20.730552
2175.580816	-3.003200	3.052800	-9.166900	28.634385	0.000222	20.711887
2176.583727	-2.996100	3.052100	-9.143700	28.619020	0.000220	20.723913
2177.586557	-2.995100	3.051800	-9.139100	28.573516	0.000222	20.716016
2178.583129	-2.998700	3.050200	-9.146200	28.516499	0.000219	20.714545
2179.585879	-3.020500	3.047700	-9.204000	28.522351	0.000221	20.707636
2180.585337	-3.014100	3.048100	-9.186400	28.544967	0.000221	20.712869
2181.580799	-3.011400	3.047300	-9.175800	28.505865	0.000218	20.711422
2182.581852	-3.041000	3.045200	-9.259000	28.528627	0.000219	20.710164
2183.584313	-3.010200	3.046200	-9.167800	28.531509	0.000222	20.704530
2184.584112	-2.988700	3.044200	-9.097100	28.554749	0.000220	20.719402
2185.589008	-2.990200	3.043100	-9.098800	28.562314	0.000216	20.705683
2186.585659	-2.979900	3.042600	-9.065900	28.486577	0.000217	20.722819
2187.579497	-3.014100	3.040600	-9.162700	28.434159	0.000217	20.698481
2188.580902	-3.031900	3.039100	-9.213600	28.397755	0.000218	20.706869
2189.586119	-3.025600	3.038200	-9.191700	28.396538	0.000218	20.691891
2190.585194	-3.001400	3.038300	-9.118500	28.405589	0.000217	20.709542
2191.585701	-3.004400	3.036600	-9.122800	28.400978	0.000215	20.711537
2192.587328	-2.994800	3.036000	-9.089900	28.379042	0.000216	20.713156
2193.585987	-3.005200	3.034900	-9.120200	28.399233	0.000215	20.713574
2194.586131	-2.993400	3.034000	-9.080700	28.485726	0.000214	20.694933
2195.583984	-2.995900	3.032700	-9.084500	28.561521	0.000215	20.720057
2196.585792	-2.993500	3.031100	-9.072900	28.565790	0.000216	20.712503
2197.588445	-3.005100	3.030200	-9.103900	28.526412	0.000215	20.734487
2198.586962	-3.003000	3.029600	-9.095900	28.519057	0.000215	20.720441
2199.585493	-3.005600	3.027000	-9.096600	28.539571	0.000215	20.715021
2200.588327	-2.995000	3.026800	-9.064100	28.487853	0.000215	20.707508
2201.584095	-3.030500	3.025900	-9.168300	28.468572	0.000213	20.717964
2202.587549	-2.973500	3.025400	-8.994900	28.473954	0.000215	20.703943
2203.583683	-3.018900	3.022200	-9.122600	28.501336	0.000214	20.714923
2204.585219	-3.006900	3.021900	-9.085800	28.535106	0.000213	20.705308
2205.585086	-2.971200	3.023500	-8.982100	28.569954	0.000213	20.723335
2206.584546	-3.003800	3.019600	-9.069600	28.598770	0.000213	20.711579
2207.586082	-2.991000	3.019300	-9.029400	28.582853	0.000213	20.722102
2208.586816	-2.986000	3.017700	-9.010000	28.594996	0.000212	20.718684
2209.586714	-3.035300	3.015100	-9.149200	28.613608	0.000211	20.720360
2210.585783	-2.987100	3.016000	-9.007400	28.616750	0.000211	20.696495
2211.593047	-2.988500	3.013800	-9.006100	28.622009	0.000212	20.690412
2212.584682	-3.002700	3.011600	-9.041000	28.646814	0.000210	20.694532
2213.598356	-3.021000	3.010500	-9.093300	28.692600	0.000212	20.688965
2214.587051	-3.018000	3.009700	-9.081800	28.729196	0.000210	20.715397
2215.584872	-3.021400	3.008100	-9.087900	28.768509	0.000210	20.699046
2216.589427	-3.002100	3.008900	-9.031600	28.806961	0.000212	20.715021
2217.587242	-2.989300	3.007200	-8.988200	28.821033	0.000210	20.718291
2218.588423	-3.001100	3.006300	-9.019800	28.823931	0.000209	20.708881
2219.586731	-3.032800	3.002500	-9.104400	28.826998	0.000208	20.712920
2220.587717	-3.016300	3.001500	-9.052500	28.867006	0.000211	20.711497
2221.585687	-3.009600	3.001400	-9.031400	28.869465	0.000208	20.717294
2222.593550	-2.994200	3.000900	-8.984400	28.831096	0.000209	20.701400
2223.588436	-2.979300	3.000500	-8.939000	28.799503	0.000208	20.699920
2224.586886	-3.012700	2.996100	-9.025800	28.815685	0.000210	20.718119
2225.594429	-3.014100	2.996800	-9.031700	28.840778	0.000209	20.719689
2226.585889	-2.991500	2.995800	-8.960200	28.852650	0.000209	20.692766
2227.596381	-2.968000	2.994900	-8.887600	28.890125	0.000207	20.688793
2228.589814	-2.991300	2.993300	-8.952300	28.873928	0.000208	20.720367
2229.590163	-2.999400	2.992000	-8.971800	28.895951	0.000209	20.702250
2230.593066	-2.989900	2.990500	-8.940600	28.879941	0.000208	20.707933
2231.591354	-3.007500	2.988700	-8.987500	28.911978	0.000206	20.715552
2232.589051	-3.012600	2.987300	-8.998500	28.925780	0.000209	20.698162
2233.587981	-2.991300	2.986100	-8.931100	28.956908	0.000208	20.709608
2234.591930	-3.026600	2.984200	-9.031300	28.995207	0.000209	20.712633
2235.592137	-2.998300	2.984900	-8.948900	28.987506	0.000206	20.704874
2236.592565	-2.996500	2.982400	-8.935800	28.980520	0.000207	20.700680
2237.588947	-2.991300	2.980300	-8.913700	29.027776	0.000207	20.709412
2238.591345	-2.987600	2.979700	-8.900700	29.034065	0.000206	20.696781
2239.591765	-3.001100	2.978600	-8.937800	29.058260	0.000208	20.720687
2240.592170	-3.003900	2.975400	-8.937000	29.036588	0.000206	20.699798
2241.590893	-3.009600	2.973800	-8.948600	29.029951	0.000206	20.704490
2242.594766	-2.997600	2.973700	-8.912700	29.014746	0.000206	20.704817
2243.592247	-3.005300	2.971200	-8.926900	28.972285	0.000205	20.708979
2244.592144	-2.991500	2.970300	-8.884700	28.980310	0.000206	20.705210
2245.593596	-2.999500	2.969100	-8.904700	28.933571	0.000206	20.709331
2246.592733	-2.988200	2.967600	-8.866800	28.878075	0.000204	20.713166
2247.594628	-3.015200	2.967800	-8.946000	28.822333	0.000204	20.720549
2248.591201	-2.989700	2.964900	-8.862200	28.793401	0.000204	20.704205
2249.592604	-2.997400	2.963700	-8.881700	28.735495	0.000207	20.720320
2250.592822	-2.967400	2.963100	-8.791000	28.719522	0.000204	20.732207
2251.594813	-3.007400	2.959600	-8.899600	28.671903	0.000204	20.721701
2252.590715	-2.996500	2.960100	-8.868900	28.633391	0.000204	20.705195
2253.597533	-2.978200	2.958500	-8.809400	28.636142	0.000204	20.695163
2254.599308	-2.995800	2.956000	-8.853400	28.666620	0.000206	20.703102
2255.596194	-3.005900	2.954800	-8.880400	28.657205	0.000205	20.715431
2256.596007	-2.988100	2.952600	-8.820800	28.656312	0.000205	20.688451
2257.593021	-3.011500	2.951000	-8.885700	28.672318	0.000205	20.711686
2258.598835	-3.030800	2.948100	-8.933900	28.719344	0.000206	20.702154
2259.595628	-3.004200	2.949200	-8.857300	28.740007	0.000205	20.717753
2260.597215	-3.046400	2.945200	-8.971200	28.715180	0.000206	20.738739
2261.598902	-2.990600	2.944900	-8.806200	28.715797	0.000204	20.695262
2262.596697	-2.960900	2.944800	-8.717700	28.750680	0.000204	20.728504
2263.596519	-2.995500	2.942300	-8.812300	28.832485	0.000204	20.682883
2264.608787	-3.008300	2.938600	-8.839600	28.882304	0.000204	20.719323
2265.600035	-2.997900	2.939700	-8.812200	28.924712	0.000205	20.717001
2266.599405	-2.940200	2.938900	-8.638900	28.869077	0.000203	20.717851
2267.600886	-2.993700	2.935500	-8.787500	28.844796	0.000202	20.733695
2268.595208	-2.945800	2.936400	-8.648900	28.867291	0.000204	20.716052
2269.600405	-3.005100	2.933100	-8.812900	28.860378	0.000204	20.728054
2270.598592	-2.996700	2.929700	-8.778400	28.832039	0.000204	20.708040
2271.600815	-2.991600	2.929700	-8.763700	28.863380	0.000203	20.712111
2272.596426	-2.994900	2.928100	-8.767800	28.923397	0.000203	20.732273
2273.599535	-3.011500	2.925900	-8.810800	28.960529	0.000203	20.721318
2274.603146	-2.983000	2.925100	-8.725000	29.002244	0.000204	20.726362
2275.600030	-2.994500	2.922900	-8.751600	29.028995	0.000203	20.716330
2276.601726	-2.978800	2.922600	-8.704600	29.034366	0.000205	20.719372
2277.600282	-2.995900	2.920400	-8.748000	29.067810	0.000201	20.740268
2278.600545	-2.965000	2.918300	-8.651700	29.086431	0.000204	20.738167
2279.602967	-3.003600	2.916400	-8.758000	29.069968	0.000203	20.720630
2280.601848	-3.045000	2.912400	-8.867800	29.094828	0.000203	20.720549
2281.604411	-3.005300	2.911000	-8.747000	29.106778	0.000201	20.724055
2282.601483	-3.007800	2.909600	-8.750900	29.073555	0.000203	20.734676
2283.601241	-2.999900	2.908600	-8.723800	29.018795	0.000203	20.726917
2284.602939	-3.006500	2.906200	-8.736800	28.964885	0.000204	20.713377
2285.605378	-3.038800	2.904000	-8.823900	28.891878	0.000201	20.719011
2286.602705	-2.991200	2.903200	-8.682900	28.940404	0.000201	20.715741
2287.604086	-2.972900	2.902600	-8.627200	28.980188	0.000201	20.741125
2288.603242	-3.008200	2.899600	-8.721000	29.035801	0.000202	20.726507
2289.602204	-3.000200	2.897900	-8.693100	29.086275	0.000201	20.726156
2290.603649	-3.003400	2.895200	-8.693700	29.158400	0.000203	20.725338
2291.602182	-2.989800	2.896300	-8.658400	29.160014	0.000201	20.731706
2292.603453	-3.006200	2.891500	-8.690200	29.175939	0.000202	20.716933
2293.605984	-2.985600	2.891500	-8.631600	29.218506	0.000203	20.742285
2294.607609	-2.976400	2.889100	-8.598100	29.227965	0.000199	20.738541
2295.611989	-2.979400	2.887800	-8.602900	29.202338	0.000202	20.737372
2296.617120	-3.020600	2.884100	-8.711400	29.200853	0.000201	20.723547
2297.609275	-2.998100	2.883200	-8.643200	29.198678	0.000201	20.719459
2298.610127	-3.004100	2.881200	-8.653600	29.205088	0.000198	20.730185
2299.605878	-2.986200	2.878900	-8.596300	29.216907	0.000202	20.729294
2300.610886	-3.053000	2.875200	-8.775400	29.222699	0.000204	20.725648
2301.613974	-2.990200	2.875200	-8.596500	29.202816	0.000202	20.728370
2302.610013	-3.003700	2.872800	-8.628500	29.209841	0.000201	20.722173
2303.611332	-3.005200	2.872100	-8.629600	29.237382	0.000201	20.733807
2304.610419	-3.000700	2.869600	-8.610600	29.251449	0.000203	20.736129
2305.613978	-2.977800	2.868100	-8.539300	29.258158	0.000200	20.741467
2306.613839	-3.008700	2.865900	-8.621600	29.219154	0.000201	20.747207
2307.612107	-2.989900	2.863200	-8.559800	29.189187	0.000201	20.726964
2308.609856	-3.012300	2.861100	-8.617700	29.175890	0.000202	20.732057
2309.609077	-2.999600	2.860100	-8.577500	29.143552	0.000201	20.731714
2310.621058	-3.005600	2.857600	-8.588000	29.127546	0.000203	20.731232
2311.613733	-3.021100	2.856100	-8.626600	29.038210	0.000201	20.737470
2312.613567	-3.015600	2.853500	-8.604000	29.021715	0.000199	20.735549
2313.612882	-2.999200	2.850800	-8.548900	28.998679	0.000202	20.745057
2314.612407	-3.014200	2.848600	-8.585600	29.006502	0.000198	20.742981
2315.615173	-2.992200	2.847400	-8.518200	29.032343	0.000200	20.750052
2316.614258	-3.012000	2.844900	-8.567900	29.107985	0.000199	20.764154
2317.614393	-2.981800	2.844800	-8.481700	29.141597	0.000199	20.721682
2318.617050	-2.976100	2.842400	-8.457900	29.167696	0.000199	20.753199
2319.620414	-3.007400	2.838500	-8.535700	29.224232	0.000201	20.755169
2320.621641	-3.000600	2.836400	-8.509500	29.280717	0.000198	20.752349
2321.612426	-2.983200	2.833200	-8.450700	29.235232	0.000201	20.743020
2322.615575	-3.016600	2.831500	-8.540300	29.210717	0.000201	20.750558
2323.619429	-3.004000	2.830500	-8.500500	29.220444	0.000200	20.755619
2324.614784	-3.029400	2.827800	-8.565600	29.252641	0.000202	20.731640
2325.615878	-2.999600	2.824500	-8.471600	29.260583	0.000199	20.743912
2326.615363	-3.035500	2.821200	-8.562600	29.288844	0.000199	20.736357
2327.615424	-2.985600	2.821900	-8.424100	29.335251	0.000199	20.750411
2328.614905	-2.999400	2.818700	-8.453900	29.317795	0.000198	20.739455
2329.624625	-3.006700	2.815500	-8.464300	29.331365	0.000200	20.760719
2330.622701	-2.980800	2.813300	-8.385000	29.295268	0.000200	20.760850
2331.613619	-3.016000	2.811300	-8.477500	29.315540	0.000202	20.749511
2332.619181	-3.017800	2.807700	-8.471700	29.321858	0.000202	20.767260
2333.620466	-2.982500	2.806700	-8.369900	29.322336	0.000201	20.762051
2334.616457	-3.001800	2.804800	-8.418300	29.299300	0.000201	20.759697
2335.621002	-3.025200	2.800000	-8.467800	29.289727	0.000200	20.757636
2336.615086	-2.977800	2.800600	-8.338200	29.224920	0.000200	20.757285
2337.618986	-3.015900	2.795400	-8.429600	29.194361	0.000201	20.763000
2338.620061	-2.998700	2.794900	-8.378100	29.203033	0.000201	20.747556
2339.619320	-3.019600	2.791100	-8.425400	29.222851	0.000202	20.740500
2340.619401	-2.983200	2.789200	-8.319700	29.283448	0.000200	20.752256
2341.616903	-3.024100	2.785400	-8.422600	29.320023	0.000201	20.745495
2342.620100	-2.992300	2.783000	-8.326100	29.381410	0.000202	20.765639
2343.619196	-3.005500	2.780500	-8.354900	29.400917	0.000202	20.756376
2344.617505	-2.984600	2.777800	-8.289300	29.426247	0.000201	20.754880
2345.617812	-3.016500	2.773100	-8.364000	29.474066	0.000199	20.769889
2346.621206	-3.025600	2.773100	-8.389400	29.517447	0.000201	20.759089
2347.617631	-3.026800	2.769500	-8.381700	29.561832	0.000199	20.778228
2348.620759	-3.006900	2.766300	-8.317000	29.556934	0.000200	20.760487
2349.622394	-3.005800	2.764000	-8.307000	29.612913	0.000200	20.767133
2350.621170	-3.009500	2.762100	-8.311700	29.599225	0.000198	20.779412
2351.620870	-3.031100	2.756200	-8.353200	29.607966	0.000199	20.749818
2352.620111	-2.962600	2.757200	-8.167700	29.581449	0.000199	20.758647
2353.627365	-2.972700	2.752800	-8.182400	29.523991	0.000201	20.770428
2354.622755	-3.017200	2.748700	-8.292300	29.517737	0.000200	20.775978
2355.626060	-3.018400	2.744900	-8.284200	29.482304	0.000200	20.759227
2356.627175	-2.980100	2.742200	-8.171100	29.395950	0.000199	20.744258
2357.621106	-3.026200	2.738800	-8.287200	29.348313	0.000199	20.795345
2358.632610	-2.994700	2.736700	-8.194900	29.299733	0.000198	20.771988
2359.624302	-3.020400	2.732400	-8.251800	29.244581	0.000200	20.783262
2360.632969	-2.993600	2.729000	-8.167500	29.212789	0.000199	20.767345
2361.625591	-3.009200	2.726000	-8.201800	29.186123	0.000198	20.771293
2362.628063	-3.008100	2.722800	-8.189200	29.162020	0.000199	20.780196
2363.623304	-2.992100	2.721000	-8.140600	29.102560	0.000201	20.766274
2364.629436	-2.979300	2.716300	-8.091800	29.106527	0.000199	20.789238
2365.634617	-2.998500	2.713100	-8.134700	29.180176	0.000200	20.769568
2366.626416	-2.994800	2.710200	-8.115500	29.206404	0.000200	20.768023
2367.626093	-3.008200	2.705500	-8.137300	29.244986	0.000199	20.775610
2368.626830	-3.016100	2.701500	-8.146500	29.250315	0.000201	20.769126
2369.630588	-2.999500	2.698300	-8.092300	29.287338	0.000200	20.784152
2370.628770	-3.022700	2.694400	-8.143000	29.307617	0.000199	20.778986
2371.632694	-2.961900	2.691200	-7.970000	29.358379	0.000201	20.775617
2372.632810	-2.946800	2.688300	-7.920700	29.392729	0.000200	20.775625
2373.630945	-2.983900	2.683800	-8.007200	29.415083	0.000201	20.756904
2374.627760	-3.019900	2.679700	-8.090900	29.430014	0.000200	20.788076
2375.629469	-3.016200	2.675600	-8.069000	29.447347	0.000199	20.788951
2376.635029	-2.971100	2.672500	-7.939200	29.459083	0.000200	20.787978
2377.639980	-2.988400	2.668100	-7.971900	29.500105	0.000198	20.780489
2378.633355	-2.994000	2.663200	-7.971700	29.515481	0.000200	20.786980
2379.631313	-2.990800	2.659600	-7.951700	29.488442	0.000198	20.774898
2380.630768	-2.974800	2.655700	-7.899500	29.459424	0.000199	20.765088
2381.631326	-2.999000	2.650500	-7.947800	29.423097	0.000200	20.776836
2382.632814	-3.019600	2.646200	-7.988600	29.459772	0.000201	20.765913
2383.633645	-3.011800	2.641800	-7.955400	29.511484	0.000200	20.787692
2384.634222	-2.992700	2.637100	-7.891000	29.550898	0.000199	20.794232
2385.633205	-2.997900	2.635300	-7.898000	29.590781	0.000199	20.797453
2386.636461	-3.015600	2.629500	-7.928600	29.588948	0.000200	20.795606
2387.635243	-2.965700	2.626300	-7.787700	29.598567	0.000198	20.805776
2388.633560	-2.959600	2.621400	-7.757800	29.602288	0.000200	20.788191
2389.634577	-2.998300	2.615100	-7.839800	29.584756	0.000200	20.796595
2390.634613	-2.987800	2.610400	-7.798100	29.546479	0.000201	20.780295
2391.635752	-2.990500	2.604200	-7.787400	29.514566	0.000199	20.797438
2392.638147	-2.981900	2.600200	-7.751900	29.515783	0.000201	20.785862
2393.639450	-3.008500	2.593700	-7.802300	29.565140	0.000200	20.793890
2394.636278	-3.012200	2.588700	-7.795800	29.588082	0.000199	20.794259
2395.636928	-3.005100	2.583800	-7.763300	29.576372	0.000200	20.794782
2396.638244	-3.005600	2.578600	-7.749500	29.586420	0.000201	20.776462
2397.640820	-2.995300	2.571800	-7.702500	29.617577	0.000199	20.804552
2398.639018	-2.972300	2.567600	-7.631000	29.591911	0.000199	20.814239
2399.643289	-3.028800	2.559900	-7.751900	29.591660	0.000199	20.821572
2400.639917	-3.028700	2.554800	-7.736700	29.596014	0.000202	20.805100
2401.642064	-3.016000	2.548000	-7.683900	29.625370	0.000200	20.801977
2402.649395	-3.003400	2.543100	-7.636600	29.613052	0.000200	20.803783
2403.640440	-3.026900	2.535000	-7.671700	29.643511	0.000200	20.805092
2404.643939	-3.006300	2.530900	-7.607700	29.703038	0.000199	20.819587
2405.645494	-3.010500	2.523100	-7.594300	29.754024	0.000198	20.817887
2406.679394	-3.034700	2.517600	-7.638800	29.795659	0.000201	20.800596
2407.646265	-2.991000	2.512500	-7.513900	29.843982	0.000200	20.817552
2408.644021	-3.017300	2.505200	-7.557900	29.841143	0.000201	20.802362
2409.646537	-3.020900	2.499300	-7.548500	29.924591	0.000201	20.803058
