LabVIEW Measurement	
Writer_Version	2
Reader_Version	2
Separator	Tab
Decimal_Separator	.
Multi_Headings	No
X_Columns	One
Time_Pref	Absolute
Operator	admin
Description	Clolumns are: time, Current, Voltage, Power, Battery Temp, and Chamber Temp
Date	2024/08/16
Time	13:06:06.104549407958984375
***End_of_Header***	
	
Channels	6						
Samples	1	1	1	1	1	1	
Date	2024/09/08	2024/09/08	2024/09/08	2024/09/08	2024/09/08	2024/09/08	
Time	16:35:17.6993594169616699219	16:35:17.7052273750305175781	16:35:17.7138190269470214844	16:35:17.6824502944946289062	16:35:17.6824502944946289062	16:35:17.6824502944946289062	
X_Dimension	Time	Time	Time	Time	Time	Time	
X0	0.0000000000000000E+0	0.0000000000000000E+0	0.0000000000000000E+0	0.0000000000000000E+0	0.0000000000000000E+0	0.0000000000000000E+0	
Delta_X	1.000000	1.000000	1.000000	1.000000	1.000000	1.000000	
***End_of_Header***							
X_Value	Untitled	Untitled 1	Untitled 2	Untitled 3	Untitled 4	Untitled 5	Comment
0.000000	-0.003294	4.097500	-0.013504	21.040210	0.000914	20.779925
1.000710	-3.002300	3.924500	-11.781000	21.023045	0.000917	20.788835
2.001158	-3.010600	3.917300	-11.793000	21.015806	0.000915	20.794396
3.001653	-2.994900	3.914300	-11.721000	20.998467	0.000914	20.783693
4.000089	-2.990800	3.909700	-11.693000	21.033099	0.000914	20.797943
5.001015	-3.000500	3.904400	-11.713000	21.026185	0.000912	20.814261
5.999957	-3.001000	3.903700	-11.714000	21.022175	0.000911	20.791284
7.002113	-3.002900	3.899800	-11.709000	21.042629	0.000913	20.791354
8.002060	-3.011800	3.897600	-11.737000	21.029682	0.000910	20.791206
9.004889	-2.994200	3.895500	-11.663000	21.031508	0.000910	20.796826
10.001903	-2.992200	3.894400	-11.652000	21.032931	0.000909	20.811999
11.003941	-2.987900	3.892200	-11.629000	21.041735	0.000910	20.780028
12.003613	-3.001000	3.891400	-11.677000	21.030536	0.000906	20.798224
13.004433	-3.005200	3.888300	-11.684000	21.044886	0.000907	20.799300
14.003403	-3.014300	3.888200	-11.720000	21.047458	0.000904	20.788123
15.006062	-3.020100	3.884900	-11.731000	21.045932	0.000904	20.795606
16.005530	-3.003000	3.884500	-11.663000	21.049478	0.000905	20.789669
17.005657	-3.003400	3.883700	-11.664000	21.061433	0.000903	20.798782
18.005600	-2.988300	3.883300	-11.604000	21.055472	0.000902	20.780492
19.007078	-2.993900	3.882100	-11.621000	21.079219	0.000903	20.784804
20.012341	-3.010800	3.881000	-11.684000	21.081722	0.000903	20.812438
21.006873	-2.962500	3.880800	-11.495000	21.095642	0.000904	20.782739
22.007600	-2.991300	3.880700	-11.608000	21.067995	0.000900	20.790647
23.008445	-3.001300	3.877900	-11.637000	21.073812	0.000902	20.792672
24.012816	-3.002900	3.878600	-11.646000	21.102530	0.000900	20.792000
25.008410	-2.991200	3.876700	-11.595000	21.101207	0.000900	20.795418
26.010980	-2.990400	3.876600	-11.592000	21.100585	0.000900	20.781519
27.008941	-3.001900	3.875300	-11.632000	21.111438	0.000899	20.774831
28.008197	-2.980100	3.875900	-11.550000	21.130098	0.000898	20.775004
29.012127	-2.989400	3.874700	-11.581000	21.124810	0.000898	20.777775
30.009729	-2.985300	3.873900	-11.564000	21.127427	0.000897	20.779445
31.007553	-2.973800	3.873300	-11.518000	21.138655	0.000896	20.784038
32.015561	-2.974400	3.872200	-11.515000	21.151957	0.000897	20.780748
33.009391	-3.000400	3.871500	-11.615000	21.142047	0.000898	20.778896
34.008334	-2.991900	3.871800	-11.583000	21.156292	0.000897	20.768015
35.010930	-2.997200	3.872000	-11.603000	21.162780	0.000896	20.798213
36.010169	-3.002300	3.869200	-11.616000	21.151453	0.000894	20.766020
37.014504	-2.997200	3.869500	-11.597000	21.191170	0.000894	20.786310
38.011361	-3.004300	3.869600	-11.624000	21.214969	0.000895	20.770287
39.010739	-3.001400	3.867200	-11.607000	21.200996	0.000894	20.780018
40.015730	-3.008000	3.868100	-11.634000	21.204289	0.000894	20.756285
41.011929	-2.992000	3.867800	-11.572000	21.201421	0.000893	20.764321
42.015704	-2.989400	3.867900	-11.561000	21.216914	0.000892	20.782191
43.011676	-3.040400	3.866700	-11.755000	21.218089	0.000892	20.778151
44.013422	-2.995600	3.866900	-11.583000	21.221283	0.000892	20.769966
45.011468	-2.986700	3.865400	-11.543000	21.215398	0.000891	20.764553
46.015066	-3.009600	3.865900	-11.634000	21.243234	0.000891	20.761580
47.012986	-3.007900	3.864600	-11.624000	21.237477	0.000891	20.768148
48.013792	-3.025600	3.863200	-11.687000	21.238001	0.000892	20.781474
49.014456	-3.019200	3.864500	-11.667000	21.231563	0.000892	20.770292
50.014695	-2.986400	3.864400	-11.539000	21.230471	0.000890	20.764459
51.021961	-3.012300	3.862800	-11.635000	21.237581	0.000892	20.764933
52.014919	-3.014200	3.861700	-11.639000	21.251553	0.000890	20.762315
53.015714	-2.999800	3.862200	-11.585000	21.269539	0.000890	20.791214
54.015500	-2.988900	3.862200	-11.542000	21.277478	0.000891	20.758378
55.017178	-3.016400	3.860700	-11.644000	21.268546	0.000891	20.765565
56.017548	-3.010300	3.863000	-11.626000	21.289425	0.000889	20.744726
57.020491	-3.026400	3.861600	-11.685000	21.287352	0.000889	20.755928
58.019406	-3.013000	3.861000	-11.632000	21.295261	0.000891	20.768583
59.018769	-3.002300	3.860200	-11.589000	21.300128	0.000889	20.749270
60.018191	-3.007300	3.860600	-11.608000	21.320730	0.000890	20.761347
61.019608	-2.998600	3.861100	-11.576000	21.319960	0.000890	20.751093
62.020385	-3.018800	3.860100	-11.652000	21.357006	0.000890	20.745007
63.020334	-3.016900	3.857800	-11.636000	21.353313	0.000888	20.763125
64.021999	-3.001900	3.858400	-11.582000	21.329019	0.000888	20.768691
65.019965	-3.011100	3.858400	-11.617000	21.367960	0.000890	20.770667
66.019895	-2.992700	3.859000	-11.548000	21.343943	0.000890	20.749956
67.021968	-2.996900	3.857700	-11.560000	21.363922	0.000890	20.768523
68.020339	-2.979700	3.859100	-11.496000	21.366247	0.000891	20.753779
69.022420	-3.027300	3.855900	-11.671000	21.397570	0.000889	20.751927
70.020291	-2.985500	3.856400	-11.511000	21.393210	0.000889	20.758946
71.020213	-3.004800	3.858000	-11.592000	21.398552	0.000888	20.746271
72.020730	-2.983200	3.857600	-11.507000	21.410024	0.000888	20.754431
73.024833	-2.993000	3.857400	-11.544000	21.408755	0.000889	20.763593
74.022950	-3.006800	3.856100	-11.594000	21.402723	0.000887	20.753764
75.023985	-2.990300	3.856200	-11.530000	21.435244	0.000890	20.755957
76.024430	-3.024600	3.853900	-11.655000	21.441637	0.000891	20.760457
77.023420	-3.009200	3.855000	-11.599000	21.443083	0.000889	20.741040
78.029546	-2.993200	3.854700	-11.538000	21.463959	0.000888	20.769041
79.028465	-2.993400	3.854900	-11.538000	21.446652	0.000889	20.746034
80.029166	-3.013400	3.854100	-11.612000	21.475307	0.000889	20.758111
81.028382	-3.004400	3.854500	-11.580000	21.484315	0.000890	20.748158
82.028215	-3.015000	3.854500	-11.620000	21.489079	0.000889	20.751976
83.031878	-3.004900	3.853600	-11.579000	21.483545	0.000888	20.755922
84.027306	-3.020700	3.853500	-11.640000	21.483442	0.000888	20.758664
85.028404	-2.981400	3.854200	-11.490000	21.502549	0.000890	20.748859
86.029081	-3.012700	3.851900	-11.602000	21.532077	0.000890	20.748533
87.029135	-3.011300	3.853300	-11.603000	21.525566	0.000890	20.738699
88.030498	-2.968200	3.853600	-11.438000	21.518340	0.000890	20.749012
89.030488	-3.001500	3.852500	-11.562000	21.551509	0.000890	20.747115
90.030250	-3.010400	3.852400	-11.596000	21.557418	0.000890	20.758718
91.031513	-3.004500	3.851300	-11.571000	21.550986	0.000889	20.738057
92.031234	-3.019400	3.850200	-11.624000	21.556021	0.000890	20.763010
93.029320	-3.004400	3.852600	-11.573000	21.574950	0.000892	20.759666
94.033325	-3.002900	3.852100	-11.566000	21.585897	0.000890	20.749284
95.031748	-2.996500	3.851500	-11.539000	21.587521	0.000890	20.749012
96.031754	-2.991400	3.850600	-11.517000	21.602856	0.000889	20.731641
97.032636	-2.998300	3.849500	-11.541000	21.607224	0.000890	20.753082
98.031457	-2.983800	3.851500	-11.491000	21.613557	0.000891	20.757522
99.033343	-2.996800	3.849500	-11.534000	21.613112	0.000891	20.753284
100.034077	-3.003800	3.850900	-11.566000	21.604628	0.000891	20.762812
101.036504	-2.984200	3.849900	-11.488000	21.633585	0.000891	20.747693
102.033380	-2.978900	3.850100	-11.467000	21.650193	0.000891	20.754356
103.035698	-2.994900	3.849900	-11.529000	21.655879	0.000892	20.762891
104.036224	-2.975300	3.849900	-11.454000	21.644784	0.000891	20.757004
105.036843	-3.011500	3.847100	-11.585000	21.651269	0.000891	20.741208
106.034674	-3.003500	3.848400	-11.558000	21.679598	0.000891	20.761498
107.035991	-2.999500	3.848500	-11.543000	21.663242	0.000892	20.768364
108.036393	-3.003300	3.847500	-11.554000	21.696279	0.000892	20.758752
109.038331	-3.008500	3.847800	-11.574000	21.676153	0.000891	20.762793
110.037445	-2.998200	3.846800	-11.532000	21.685436	0.000894	20.752168
111.037839	-2.997400	3.847800	-11.532000	21.699423	0.000892	20.756683
112.043328	-2.986800	3.847000	-11.490000	21.708183	0.000890	20.763553
113.036650	-2.989800	3.847000	-11.501000	21.698155	0.000893	20.753042
114.039649	-2.996700	3.846900	-11.527000	21.691699	0.000895	20.760333
115.040028	-2.998300	3.845600	-11.528000	21.730771	0.000893	20.766719
116.037018	-2.999300	3.845100	-11.532000	21.735839	0.000893	20.754721
117.039367	-3.004000	3.844700	-11.549000	21.749524	0.000893	20.767470
118.038146	-2.991600	3.845300	-11.502000	21.747782	0.000894	20.761933
119.038153	-2.993500	3.845800	-11.510000	21.741821	0.000895	20.755492
120.040951	-2.981800	3.846600	-11.468000	21.745561	0.000894	20.769668
121.038610	-3.000900	3.845100	-11.538000	21.766654	0.000895	20.750000
122.040670	-3.005300	3.844900	-11.554000	21.779573	0.000895	20.758189
123.040508	-2.987500	3.846300	-11.490000	21.771144	0.000895	20.754969
124.040869	-3.012900	3.844400	-11.582000	21.777056	0.000895	20.758515
125.044345	-3.012300	3.844200	-11.578000	21.798074	0.000894	20.766274
126.042093	-3.018700	3.842700	-11.599000	21.793539	0.000895	20.766951
127.042036	-3.000100	3.844000	-11.531000	21.816229	0.000896	20.758367
128.042644	-2.984500	3.845100	-11.475000	21.817522	0.000896	20.773412
129.044019	-2.991500	3.841900	-11.492000	21.830964	0.000897	20.766477
130.044466	-2.993300	3.842800	-11.501000	21.821633	0.000897	20.773733
131.046446	-3.009100	3.842000	-11.560000	21.844228	0.000897	20.778331
132.045272	-2.977900	3.843200	-11.444000	21.844376	0.000896	20.776583
133.045233	-2.979500	3.842400	-11.447000	21.848146	0.000899	20.764234
134.044893	-2.973500	3.842600	-11.424000	21.855203	0.000896	20.767504
135.046582	-3.009500	3.841400	-11.560000	21.866355	0.000897	20.765864
136.047484	-3.004200	3.840600	-11.537000	21.864677	0.000898	20.783152
137.044973	-3.000700	3.842200	-11.528000	21.876421	0.000900	20.764086
138.046023	-2.983500	3.841100	-11.459000	21.888960	0.000899	20.768576
139.043802	-3.013800	3.841400	-11.576000	21.901725	0.000899	20.769500
140.044850	-3.030200	3.839000	-11.632000	21.891856	0.000900	20.769104
141.048313	-2.997600	3.841100	-11.513000	21.920949	0.000900	20.770725
142.047431	-3.006800	3.840900	-11.548000	21.927354	0.000900	20.777610
143.050385	-3.004400	3.839200	-11.533000	21.941964	0.000902	20.774691
144.045933	-3.007400	3.840400	-11.548000	21.949069	0.000900	20.785122
145.046104	-3.008400	3.839700	-11.550000	21.962608	0.000901	20.764536
146.044804	-2.994700	3.840700	-11.501000	21.964474	0.000902	20.772093
147.047051	-2.996900	3.839800	-11.507000	21.967138	0.000902	20.771441
148.046069	-3.029000	3.838900	-11.627000	21.983519	0.000903	20.775511
149.048105	-3.019200	3.838100	-11.586000	21.973597	0.000900	20.792605
150.047211	-3.017900	3.837000	-11.579000	21.972329	0.000904	20.788965
151.046224	-3.001200	3.838800	-11.519000	21.979853	0.000903	20.770893
152.050870	-3.002700	3.838800	-11.526000	21.998198	0.000902	20.774558
153.048327	-3.013500	3.838400	-11.565000	22.004558	0.000904	20.782821
154.051859	-2.979000	3.839000	-11.434000	22.017647	0.000905	20.798769
155.049645	-2.995600	3.838400	-11.497000	22.018644	0.000906	20.777481
156.050308	-2.994700	3.837000	-11.490000	22.027791	0.000905	20.752973
157.049693	-2.985900	3.837500	-11.457000	22.018442	0.000904	20.796245
158.054848	-3.012000	3.836200	-11.553000	22.026069	0.000905	20.791553
159.053336	-3.002700	3.837300	-11.520000	22.041103	0.000906	20.762980
160.054134	-2.999700	3.836800	-11.507000	22.028936	0.000906	20.799638
161.052395	-2.979800	3.838500	-11.436000	22.031452	0.000908	20.786510
162.053329	-3.019100	3.835000	-11.576000	22.060546	0.000909	20.774385
163.056381	-2.988900	3.835000	-11.461000	22.058800	0.000910	20.784490
164.056442	-2.993600	3.836800	-11.485000	22.054438	0.000907	20.782969
165.058746	-2.998100	3.835900	-11.500000	22.097884	0.000909	20.796591
166.056467	-3.003500	3.835600	-11.518000	22.089961	0.000910	20.786288
167.056283	-2.991600	3.835400	-11.473000	22.104120	0.000912	20.789558
168.062266	-2.995500	3.836000	-11.489000	22.091204	0.000912	20.778524
169.056584	-2.996800	3.837100	-11.497000	22.093168	0.000910	20.782860
170.058355	-2.981900	3.835000	-11.435000	22.096784	0.000912	20.800705
171.055366	-2.994300	3.834500	-11.480000	22.093069	0.000912	20.782287
172.056329	-3.001600	3.834300	-11.506000	22.108072	0.000911	20.784979
173.062125	-2.979300	3.835000	-11.424000	22.144988	0.000911	20.778791
174.058291	-2.989400	3.834800	-11.462000	22.135718	0.000912	20.791795
175.058593	-3.012200	3.833900	-11.547000	22.139029	0.000912	20.801274
176.057606	-3.011900	3.833000	-11.542000	22.124046	0.000911	20.776790
177.058922	-3.006600	3.831900	-11.520000	22.134140	0.000913	20.785473
178.061097	-3.009500	3.832600	-11.533000	22.149118	0.000914	20.805684
179.065474	-2.974200	3.835300	-11.406000	22.157075	0.000916	20.802271
180.061506	-3.012600	3.831900	-11.543000	22.157445	0.000916	20.792210
181.060472	-2.998500	3.832400	-11.491000	22.155822	0.000914	20.785370
182.061084	-2.991400	3.832000	-11.462000	22.193240	0.000915	20.785375
183.060494	-3.002800	3.832400	-11.506000	22.179704	0.000915	20.790788
184.064354	-3.009100	3.830900	-11.527000	22.182249	0.000916	20.801397
185.062268	-2.998300	3.831000	-11.485000	22.187952	0.000917	20.796201
186.066869	-2.996500	3.830600	-11.477000	22.201636	0.000918	20.809428
187.063962	-3.004000	3.830500	-11.506000	22.209815	0.000918	20.801496
188.062476	-3.002200	3.829000	-11.495000	22.174149	0.000919	20.798029
189.063408	-2.996500	3.829400	-11.473000	22.245032	0.000919	20.820635
190.063396	-2.991300	3.830200	-11.456000	22.204576	0.000918	20.797673
191.062151	-2.986400	3.831000	-11.440000	22.224866	0.000921	20.808979
192.063562	-3.005300	3.828600	-11.505000	22.243014	0.000919	20.795855
193.061807	-3.000900	3.830300	-11.493000	22.239596	0.000920	20.804287
194.063091	-2.999000	3.829000	-11.482000	22.250512	0.000921	20.790561
195.064935	-2.996900	3.828400	-11.473000	22.261502	0.000922	20.799669
196.065305	-3.031200	3.827400	-11.601000	22.274737	0.000921	20.802963
197.064061	-3.011400	3.826700	-11.522000	22.277332	0.000921	20.795604
198.064945	-3.003500	3.827400	-11.494000	22.279423	0.000924	20.792956
199.064939	-3.010200	3.827900	-11.522000	22.308057	0.000922	20.814041
200.067439	-2.993900	3.828200	-11.460000	22.303100	0.000922	20.819035
201.064368	-3.018600	3.826100	-11.548000	22.290591	0.000924	20.806035
202.067667	-3.023900	3.827100	-11.572000	22.326056	0.000924	20.814046
203.067307	-3.010300	3.827400	-11.520000	22.332335	0.000921	20.798997
204.066226	-2.984600	3.827200	-11.422000	22.365930	0.000926	20.802765
205.068139	-2.987600	3.827200	-11.433000	22.366231	0.000923	20.821084
206.069472	-3.004600	3.826400	-11.495000	22.381255	0.000924	20.807206
207.065960	-3.001700	3.826500	-11.485000	22.390927	0.000928	20.802192
208.067937	-2.983500	3.826300	-11.415000	22.365284	0.000925	20.813972
209.067406	-2.990900	3.826600	-11.444000	22.373654	0.000927	20.817138
210.065451	-2.986300	3.824900	-11.422000	22.376450	0.000927	20.794334
211.066538	-2.980800	3.825600	-11.402000	22.374606	0.000929	20.818565
212.066719	-2.975300	3.825800	-11.381000	22.394468	0.000927	20.809058
213.069964	-3.000800	3.825900	-11.479000	22.401847	0.000929	20.812179
214.066696	-3.011000	3.823100	-11.510000	22.414710	0.000929	20.834069
215.068255	-3.006800	3.824200	-11.498000	22.403992	0.000928	20.804844
216.070591	-3.055300	3.823000	-11.678000	22.430630	0.000929	20.831994
217.068036	-2.993700	3.825000	-11.450000	22.438709	0.000929	20.799308
218.068170	-2.996600	3.824200	-11.459000	22.451961	0.000928	20.804993
219.067339	-2.993800	3.824200	-11.448000	22.436445	0.000931	20.815058
220.067463	-3.002800	3.823000	-11.479000	22.444691	0.000930	20.830903
221.068116	-3.004200	3.824100	-11.485000	22.418408	0.000932	20.825445
222.074852	-2.983800	3.824100	-11.409000	22.462437	0.000931	20.807422
223.069093	-2.989100	3.824400	-11.429000	22.470614	0.000934	20.833155
224.068261	-3.003400	3.824100	-11.484000	22.468542	0.000933	20.821597
225.067788	-2.989000	3.823200	-11.426000	22.489256	0.000933	20.829065
226.067602	-2.998900	3.821800	-11.460000	22.492846	0.000935	20.840721
227.073977	-3.005100	3.822700	-11.487000	22.509516	0.000934	20.810001
228.070645	-3.004500	3.822400	-11.483000	22.474214	0.000936	20.835337
229.071958	-2.986500	3.823500	-11.418000	22.473868	0.000936	20.825509
230.071469	-2.994200	3.822500	-11.444000	22.495347	0.000936	20.827578
231.071527	-3.012000	3.820200	-11.505000	22.505067	0.000937	20.831149
232.073864	-3.022700	3.820700	-11.548000	22.513140	0.000937	20.815527
233.071740	-3.008300	3.821300	-11.494000	22.528488	0.000937	20.816673
234.072859	-3.010800	3.818900	-11.497000	22.542622	0.000939	20.823242
235.075241	-2.989500	3.820900	-11.421000	22.543371	0.000937	20.827311
236.071827	-2.999800	3.821800	-11.464000	22.576018	0.000939	20.841516
237.072809	-2.993800	3.820400	-11.436000	22.562560	0.000939	20.842736
238.072237	-3.006500	3.819500	-11.481000	22.574222	0.000941	20.841140
239.075497	-3.012500	3.820300	-11.508000	22.584421	0.000942	20.804888
240.073266	-3.000700	3.818600	-11.457000	22.574775	0.000941	20.820357
241.074117	-2.995500	3.818300	-11.437000	22.610266	0.000942	20.837411
242.078428	-3.007200	3.818000	-11.480000	22.589529	0.000943	20.853152
243.074182	-2.971500	3.819700	-11.348000	22.586866	0.000940	20.830571
244.079360	-3.006600	3.818400	-11.478000	22.596039	0.000942	20.838335
245.074820	-2.988300	3.816700	-11.404000	22.615350	0.000943	20.837762
246.075164	-2.993700	3.818800	-11.432000	22.631228	0.000943	20.852717
247.077185	-2.982200	3.817600	-11.382000	22.641820	0.000944	20.845783
248.078764	-2.992900	3.817800	-11.424000	22.659557	0.000946	20.833677
249.078222	-2.992200	3.817000	-11.420000	22.647299	0.000946	20.845106
250.077404	-2.964800	3.818600	-11.320000	22.652683	0.000946	20.840068
251.076957	-3.011200	3.816300	-11.490000	22.637737	0.000947	20.829366
252.077520	-3.011100	3.815900	-11.487000	22.629093	0.000946	20.838251
253.080597	-2.989800	3.816400	-11.409000	22.625656	0.000947	20.856618
254.078288	-2.994800	3.816100	-11.426000	22.656229	0.000949	20.834137
255.080061	-3.009400	3.815900	-11.482000	22.650302	0.000949	20.831993
256.078074	-2.997800	3.814200	-11.434000	22.678078	0.000949	20.831366
257.077304	-2.992300	3.816100	-11.418000	22.714207	0.000950	20.852381
258.078001	-2.991300	3.816400	-11.413000	22.684982	0.000949	20.843970
259.076627	-2.989300	3.814200	-11.401000	22.720435	0.000951	20.861937
260.078979	-3.003100	3.814300	-11.453000	22.732500	0.000951	20.839885
261.077423	-3.003700	3.815000	-11.458000	22.719744	0.000953	20.853186
262.080594	-3.008100	3.813600	-11.471000	22.736164	0.000956	20.835495
263.079953	-2.998300	3.814200	-11.435000	22.745231	0.000953	20.854534
264.085116	-3.002400	3.813800	-11.449000	22.743693	0.000955	20.854416
265.080847	-2.995600	3.814100	-11.425000	22.746410	0.000955	20.848128
266.080281	-2.971800	3.814600	-11.335000	22.769026	0.000955	20.848973
267.082484	-3.011600	3.812300	-11.480000	22.751419	0.000954	20.855991
268.082163	-3.014800	3.811200	-11.489000	22.785268	0.000957	20.826837
269.086108	-3.002700	3.811900	-11.445000	22.781461	0.000956	20.847205
270.084303	-3.005900	3.812200	-11.457000	22.786145	0.000959	20.848104
271.084328	-2.993500	3.811900	-11.410000	22.808091	0.000955	20.825518
272.083429	-2.978000	3.812300	-11.351000	22.793694	0.000957	20.861829
273.084461	-2.985800	3.811400	-11.379000	22.811202	0.000957	20.860401
274.085856	-3.009600	3.810800	-11.468000	22.797426	0.000958	20.867938
275.085439	-3.009700	3.810900	-11.469000	22.819795	0.000961	20.857157
276.083722	-2.979500	3.811100	-11.354000	22.837614	0.000959	20.859359
277.084356	-2.984100	3.812000	-11.374000	22.829138	0.000961	20.878369
278.086348	-2.999900	3.811100	-11.432000	22.837259	0.000960	20.863271
279.085985	-2.994300	3.809900	-11.407000	22.815333	0.000963	20.861221
280.089007	-3.020000	3.808600	-11.502000	22.822009	0.000962	20.852262
281.089723	-2.982300	3.810000	-11.360000	22.840192	0.000963	20.870003
282.090793	-3.000600	3.810100	-11.430000	22.861964	0.000963	20.846296
283.088634	-3.003800	3.808900	-11.440000	22.857601	0.000963	20.867054
284.089036	-2.989800	3.809200	-11.388000	22.869630	0.000967	20.861562
285.090623	-3.002300	3.809400	-11.435000	22.878850	0.000965	20.882651
286.089082	-3.009900	3.807100	-11.458000	22.889011	0.000965	20.838305
287.088614	-3.019800	3.807800	-11.498000	22.872569	0.000963	20.892953
288.088678	-2.998400	3.807900	-11.416000	22.909431	0.000965	20.868719
289.089993	-3.019100	3.807600	-11.495000	22.896475	0.000965	20.884187
290.090743	-3.013000	3.808400	-11.474000	22.902351	0.000964	20.862575
291.092997	-3.009900	3.807500	-11.459000	22.937640	0.000968	20.878962
292.090786	-2.998700	3.806600	-11.413000	22.936797	0.000967	20.886177
293.098958	-3.007800	3.806500	-11.447000	22.936141	0.000968	20.862288
294.091332	-3.027400	3.806200	-11.521000	22.953553	0.000969	20.881629
295.090603	-3.009100	3.805800	-11.451000	22.971409	0.000968	20.893827
296.096958	-2.990200	3.806100	-11.380000	22.978158	0.000968	20.880676
297.093196	-3.016800	3.806600	-11.483000	22.989116	0.000969	20.873638
298.096164	-3.007800	3.806600	-11.449000	22.973918	0.000969	20.867894
299.091501	-3.006300	3.804700	-11.437000	22.989530	0.000970	20.884483
300.092432	-3.004200	3.804800	-11.428000	22.987913	0.000970	20.901828
301.093976	-3.005900	3.804200	-11.434000	22.986711	0.000971	20.879288
302.094547	-2.974100	3.805600	-11.316000	22.992291	0.000974	20.887249
303.101339	-3.001200	3.803800	-11.414000	22.998438	0.000972	20.900994
304.095726	-2.992200	3.803900	-11.381000	22.997783	0.000972	20.864304
305.096883	-2.990400	3.803600	-11.373000	22.993474	0.000973	20.878952
306.105114	-3.003700	3.803700	-11.424000	23.013099	0.000974	20.882019
307.097285	-2.980500	3.803500	-11.335000	23.027646	0.000974	20.897542
308.098837	-2.995800	3.803300	-11.393000	23.008465	0.000973	20.865050
309.100997	-2.991000	3.803700	-11.376000	23.010230	0.000974	20.879145
310.103295	-2.988900	3.802500	-11.364000	22.994357	0.000974	20.867510
311.100260	-2.993700	3.802900	-11.384000	22.987732	0.000977	20.880785
312.103892	-3.003900	3.802200	-11.420000	23.005365	0.000975	20.888968
313.100706	-3.019000	3.800100	-11.471000	23.032438	0.000975	20.871999
314.102818	-2.998400	3.800800	-11.394000	23.031984	0.000976	20.873441
315.102369	-3.006400	3.801500	-11.427000	23.059209	0.000977	20.885072
316.102619	-3.008700	3.801300	-11.435000	23.058115	0.000977	20.869278
317.107207	-2.993200	3.800000	-11.373000	23.048074	0.000977	20.904733
318.104259	-2.992400	3.801300	-11.373000	23.062270	0.000977	20.881027
319.106392	-3.004600	3.799600	-11.416000	23.061624	0.000977	20.885595
320.105419	-2.989200	3.799400	-11.356000	23.078906	0.000980	20.867352
321.117528	-3.004900	3.800400	-11.419000	23.054526	0.000978	20.869001
322.106638	-2.997100	3.800000	-11.388000	23.062467	0.000978	20.866527
323.106126	-2.982000	3.798300	-11.324000	23.073701	0.000978	20.870196
324.107980	-2.990400	3.798800	-11.359000	23.073780	0.000980	20.879284
325.108068	-2.993400	3.798200	-11.369000	23.058736	0.000980	20.869900
326.106984	-3.003400	3.798700	-11.406000	23.062551	0.000981	20.864714
327.106680	-2.992700	3.797200	-11.363000	23.070374	0.000981	20.865914
328.107733	-2.994900	3.797300	-11.372000	23.084964	0.000982	20.862516
329.106940	-3.002200	3.797800	-11.400000	23.083850	0.000982	20.855236
330.106206	-2.999700	3.796800	-11.389000	23.099791	0.000982	20.875476
331.106830	-3.012800	3.796800	-11.437000	23.121533	0.000983	20.851271
332.104936	-3.010600	3.795300	-11.424000	23.127142	0.000982	20.875382
333.110847	-2.998900	3.795200	-11.380000	23.125501	0.000984	20.860936
334.108611	-2.991100	3.796600	-11.353000	23.131603	0.000985	20.857093
335.109379	-3.011900	3.796900	-11.435000	23.117215	0.000985	20.859271
336.107624	-3.014900	3.794300	-11.438000	23.135743	0.000985	20.843225
337.107205	-3.014900	3.793900	-11.437000	23.116022	0.000986	20.851912
338.114175	-3.016600	3.794800	-11.446000	23.120207	0.000987	20.836192
339.112451	-2.991400	3.794800	-11.351000	23.107012	0.000988	20.847625
340.109591	-3.006800	3.794500	-11.407000	23.095009	0.000988	20.850297
341.106783	-2.993700	3.794600	-11.360000	23.104872	0.000987	20.851171
342.107368	-3.025900	3.793300	-11.477000	23.136605	0.000989	20.852149
343.109315	-3.002700	3.793900	-11.391000	23.156947	0.000990	20.850722
344.107529	-2.994100	3.795400	-11.362000	23.165045	0.000989	20.848880
345.108244	-3.014000	3.791500	-11.425000	23.165715	0.000991	20.831060
346.109381	-3.008500	3.793900	-11.413000	23.179215	0.000991	20.832734
347.109336	-3.002200	3.792300	-11.383000	23.177816	0.000991	20.829435
348.108575	-3.002700	3.793300	-11.389000	23.165267	0.000991	20.835352
349.109833	-3.018600	3.791300	-11.444000	23.158647	0.000992	20.837253
350.109754	-3.001600	3.791000	-11.378000	23.166563	0.000990	20.843763
351.110420	-2.998700	3.791200	-11.366000	23.167933	0.000993	20.856515
352.111984	-2.989700	3.791500	-11.335000	23.202124	0.000991	20.847630
353.111036	-3.010300	3.791500	-11.412000	23.215870	0.000995	20.837698
354.115202	-2.990100	3.791000	-11.335000	23.238058	0.000994	20.848554
355.112667	-3.016800	3.789600	-11.431000	23.199955	0.000995	20.830285
356.114375	-3.006000	3.791800	-11.396000	23.213672	0.000993	20.825538
357.112258	-3.007300	3.789100	-11.393000	23.217334	0.000995	20.824467
358.112712	-3.011900	3.789300	-11.412000	23.203864	0.000995	20.837046
359.113869	-3.006700	3.790300	-11.395000	23.211356	0.000995	20.830329
360.114884	-3.003300	3.789800	-11.381000	23.217433	0.000996	20.818401
361.111920	-3.012000	3.789000	-11.412000	23.251370	0.000998	20.833446
362.112976	-3.012000	3.787900	-11.408000	23.219823	0.000997	20.834547
363.113425	-3.009300	3.788900	-11.401000	23.219448	0.000996	20.816154
364.113029	-2.999700	3.788700	-11.364000	23.226693	0.000997	20.822466
365.125117	-2.996500	3.788600	-11.352000	23.257196	0.000996	20.827904
366.113396	-2.990300	3.786500	-11.321000	23.261479	0.000996	20.821765
367.119749	-2.990800	3.787600	-11.326000	23.266131	0.001000	20.839229
368.113720	-3.013900	3.787500	-11.414000	23.282621	0.000998	20.829203
369.112885	-2.986800	3.785900	-11.305000	23.299077	0.001000	20.816298
370.115747	-2.989200	3.787100	-11.319000	23.305631	0.000995	20.816703
371.116864	-3.004100	3.785200	-11.368000	23.319371	0.000999	20.806291
372.114437	-2.983800	3.786600	-11.296000	23.333017	0.001000	20.810010
373.114596	-2.991400	3.785400	-11.322000	23.309884	0.000998	20.817172
374.114050	-3.004200	3.784900	-11.370000	23.346466	0.001003	20.812109
375.114697	-2.985800	3.786700	-11.306000	23.333919	0.001001	20.808069
376.116343	-2.979800	3.785400	-11.278000	23.372909	0.001001	20.829603
377.116457	-2.995600	3.786000	-11.341000	23.363226	0.001001	20.796665
378.115753	-2.980400	3.785900	-11.282000	23.364689	0.001003	20.815675
379.115327	-2.996500	3.784300	-11.337000	23.380828	0.001004	20.810988
380.116157	-2.988400	3.785000	-11.309000	23.358372	0.001002	20.804128
381.119809	-3.000700	3.783200	-11.352000	23.368755	0.001002	20.810267
382.118621	-2.988900	3.783800	-11.307000	23.380607	0.001002	20.829257
383.120657	-2.995100	3.783800	-11.331000	23.386885	0.001003	20.801411
384.116513	-3.015900	3.782200	-11.406000	23.387707	0.001004	20.816935
385.116071	-2.981500	3.783400	-11.279000	23.389930	0.001004	20.814420
386.119723	-3.012600	3.781400	-11.391000	23.402925	0.001004	20.797573
387.118071	-2.989200	3.783000	-11.307000	23.373697	0.001002	20.805263
388.117384	-2.992400	3.781900	-11.315000	23.366552	0.001003	20.779136
389.116879	-2.998800	3.781200	-11.338000	23.371012	0.001007	20.803046
390.118103	-3.014400	3.781200	-11.397000	23.392029	0.001003	20.803248
391.119442	-3.003100	3.780300	-11.352000	23.406502	0.001003	20.801159
392.120404	-3.018100	3.780300	-11.408000	23.401545	0.001005	20.781017
393.121094	-3.003800	3.780400	-11.355000	23.384317	0.001005	20.788880
394.124219	-2.977200	3.782100	-11.258000	23.439049	0.001006	20.818134
395.121763	-2.995900	3.780200	-11.323000	23.445544	0.001006	20.795247
396.121426	-3.007300	3.778900	-11.363000	23.448564	0.001006	20.807283
397.123065	-2.999400	3.779000	-11.333000	23.419782	0.001008	20.823478
398.121008	-3.004100	3.779100	-11.351000	23.412243	0.001007	20.793162
399.121885	-2.994000	3.778000	-11.311000	23.443893	0.001007	20.800230
400.122240	-3.000900	3.778600	-11.338000	23.454398	0.001008	20.812183
401.122617	-2.998500	3.778300	-11.327000	23.466973	0.001007	20.795864
402.122396	-2.988700	3.778600	-11.292000	23.492626	0.001010	20.793128
403.129458	-3.011500	3.776800	-11.372000	23.511295	0.001010	20.785289
404.126726	-3.000500	3.778000	-11.336000	23.521983	0.001011	20.803114
405.124784	-3.011500	3.776800	-11.372000	23.529457	0.001009	20.788322
406.124202	-3.015300	3.776300	-11.386000	23.534237	0.001011	20.800699
407.125062	-3.014800	3.775500	-11.380000	23.540612	0.001010	20.811832
408.128789	-3.005400	3.775000	-11.344000	23.543997	0.001011	20.789147
409.125162	-2.998200	3.775100	-11.317000	23.524313	0.001012	20.773682
410.127734	-2.994900	3.775300	-11.306000	23.529166	0.001010	20.796091
411.126576	-3.007000	3.774000	-11.347000	23.533847	0.001012	20.790352
412.126817	-3.016900	3.773900	-11.384000	23.523815	0.001013	20.762277
413.127274	-3.021300	3.771700	-11.393000	23.521130	0.001010	20.795148
414.126182	-3.008000	3.774900	-11.353000	23.512015	0.001012	20.790752
415.128932	-2.992700	3.775200	-11.296000	23.492074	0.001014	20.776927
416.126659	-2.996900	3.774300	-11.310000	23.497780	0.001010	20.795923
417.126602	-3.006900	3.773400	-11.344000	23.496907	0.001011	20.801687
418.126197	-3.006700	3.771500	-11.339000	23.500568	0.001013	20.790658
419.127924	-2.991900	3.772600	-11.286000	23.518322	0.001012	20.777159
420.124148	-2.994400	3.771800	-11.293000	23.544933	0.001013	20.782024
421.127682	-3.005800	3.771500	-11.335000	23.562040	0.001014	20.765982
422.127140	-2.988500	3.771900	-11.271000	23.581206	0.001014	20.766703
423.125777	-2.988900	3.772000	-11.273000	23.575131	0.001014	20.753026
424.134065	-2.989500	3.770900	-11.272000	23.588759	0.001016	20.764317
425.126936	-2.999000	3.770600	-11.307000	23.586168	0.001016	20.781160
426.128479	-3.020400	3.769600	-11.384000	23.590376	0.001016	20.780636
427.126431	-2.994800	3.770500	-11.291000	23.597396	0.001015	20.767760
428.125991	-2.992600	3.769500	-11.280000	23.581891	0.001014	20.776873
429.129344	-2.986000	3.770000	-11.256000	23.555581	0.001016	20.783215
430.128569	-2.984200	3.770000	-11.250000	23.561587	0.001017	20.771217
431.124781	-2.987900	3.769000	-11.261000	23.545707	0.001016	20.754350
432.126425	-3.022100	3.767700	-11.385000	23.551629	0.001014	20.782099
433.126920	-3.005600	3.769400	-11.328000	23.573836	0.001016	20.767375
434.125402	-2.992200	3.768400	-11.275000	23.563159	0.001016	20.775638
435.128252	-3.003200	3.768600	-11.317000	23.557783	0.001016	20.756024
436.126924	-2.994400	3.767700	-11.281000	23.602348	0.001017	20.764663
437.126948	-2.993400	3.767900	-11.278000	23.611335	0.001017	20.760396
438.124619	-2.987900	3.767000	-11.254000	23.608122	0.001016	20.758598
439.127475	-3.013300	3.767300	-11.351000	23.610093	0.001017	20.772428
440.128308	-2.980100	3.766200	-11.223000	23.627992	0.001018	20.755758
441.125872	-3.005000	3.765800	-11.316000	23.639417	0.001019	20.766738
442.125748	-3.013600	3.764200	-11.343000	23.607930	0.001017	20.778320
443.128424	-3.027000	3.765200	-11.395000	23.610098	0.001016	20.765320
444.130379	-2.995400	3.765100	-11.277000	23.594391	0.001020	20.757161
445.128197	-2.997800	3.765400	-11.287000	23.603329	0.001019	20.754740
446.131162	-2.993900	3.764000	-11.268000	23.593746	0.001018	20.747504
447.128101	-3.001700	3.764400	-11.299000	23.584508	0.001020	20.753891
448.129036	-3.003200	3.764500	-11.305000	23.607309	0.001019	20.761576
449.128144	-2.987200	3.763800	-11.241000	23.627076	0.001019	20.763848
450.130901	-2.989000	3.764600	-11.251000	23.612842	0.001020	20.759536
451.131261	-2.997400	3.762800	-11.278000	23.616774	0.001018	20.763952
452.133310	-2.988000	3.763400	-11.243000	23.676047	0.001020	20.762683
453.130185	-3.006900	3.762100	-11.311000	23.657153	0.001020	20.765552
454.130789	-3.006300	3.762100	-11.308000	23.681895	0.001020	20.732983
455.132988	-2.996000	3.761300	-11.268000	23.663997	0.001020	20.763878
456.133435	-3.009000	3.762000	-11.319000	23.677614	0.001021	20.752399
457.131935	-3.017400	3.761300	-11.349000	23.678983	0.001021	20.759462
458.134510	-3.011800	3.760700	-11.326000	23.663578	0.001018	20.751130
459.134418	-3.012100	3.759600	-11.323000	23.665396	0.001022	20.745840
460.134415	-2.997200	3.760600	-11.271000	23.683915	0.001021	20.737379
461.134764	-2.985400	3.760300	-11.225000	23.692546	0.001019	20.752671
462.133777	-3.000400	3.759200	-11.278000	23.695339	0.001023	20.745514
463.135880	-2.983000	3.759800	-11.214000	23.717223	0.001021	20.750384
464.134798	-3.013700	3.759700	-11.329000	23.720035	0.001021	20.754153
465.133321	-3.001000	3.758400	-11.277000	23.735568	0.001021	20.759294
466.137572	-3.021400	3.756200	-11.348000	23.717400	0.001022	20.738707
467.133785	-3.023500	3.757200	-11.358000	23.684742	0.001020	20.737260
468.134212	-3.020000	3.758600	-11.350000	23.710454	0.001020	20.764461
469.133420	-3.019000	3.756100	-11.338000	23.705079	0.001022	20.744373
470.134153	-3.021200	3.755900	-11.347000	23.703261	0.001020	20.749189
471.134649	-2.997600	3.757800	-11.263000	23.712099	0.001021	20.740031
472.136749	-2.970500	3.758000	-11.162000	23.737992	0.001023	20.742284
473.135001	-3.002700	3.756600	-11.279000	23.728982	0.001024	20.731353
474.135644	-2.990700	3.755800	-11.231000	23.721114	0.001025	20.744328
475.133929	-2.985100	3.756800	-11.213000	23.746327	0.001022	20.757753
476.136416	-3.007400	3.756500	-11.297000	23.746411	0.001020	20.734603
477.139615	-2.965900	3.757300	-11.142000	23.747830	0.001022	20.751199
478.137164	-2.988900	3.756700	-11.227000	23.725652	0.001022	20.752197
479.138489	-2.979800	3.754400	-11.186000	23.739490	0.001024	20.742837
480.136262	-2.982000	3.753800	-11.192000	23.753983	0.001024	20.729866
481.137037	-2.992600	3.753700	-11.232000	23.761968	0.001022	20.735028
482.139379	-2.999700	3.753400	-11.257000	23.766426	0.001022	20.732385
483.137665	-3.023200	3.753600	-11.347000	23.747436	0.001022	20.755072
484.139675	-3.007300	3.753900	-11.288000	23.743229	0.001026	20.725248
485.138543	-2.987800	3.753500	-11.213000	23.717646	0.001024	20.730419
486.138158	-2.994700	3.753200	-11.238000	23.704926	0.001023	20.742323
487.146189	-2.994700	3.753000	-11.238000	23.665918	0.001024	20.725026
488.139321	-2.985100	3.751900	-11.198000	23.691837	0.001024	20.726829
489.143511	-2.993300	3.751400	-11.228000	23.685644	0.001023	20.744329
490.141287	-3.001700	3.751700	-11.260000	23.693236	0.001023	20.732973
491.142937	-3.013200	3.750800	-11.302000	23.638694	0.001024	20.718595
492.141605	-2.993200	3.751400	-11.227000	23.661455	0.001025	20.726715
493.144533	-2.998500	3.749400	-11.242000	23.655607	0.001024	20.737923
494.142023	-2.994000	3.750100	-11.227000	23.662529	0.001025	20.736801
495.142971	-3.003000	3.747900	-11.254000	23.681693	0.001025	20.709546
496.142228	-2.979100	3.749100	-11.168000	23.703281	0.001024	20.717913
497.142367	-2.999900	3.748100	-11.243000	23.708439	0.001024	20.743949
498.147276	-3.009800	3.749500	-11.283000	23.709932	0.001026	20.735962
499.142908	-3.014900	3.746800	-11.296000	23.758974	0.001026	20.706419
500.144399	-3.005600	3.749100	-11.267000	23.773555	0.001025	20.732420
501.146513	-3.015800	3.748300	-11.303000	23.796309	0.001026	20.710662
502.144253	-2.980800	3.747600	-11.170000	23.806589	0.001025	20.715755
503.146326	-2.997400	3.747200	-11.231000	23.777600	0.001024	20.742166
504.144537	-3.004200	3.747400	-11.258000	23.837209	0.001026	20.722275
505.144127	-3.018900	3.746000	-11.308000	23.850233	0.001026	20.726326
506.145360	-3.007300	3.746700	-11.266000	23.833953	0.001025	20.725649
507.144102	-2.982300	3.746600	-11.173000	23.855503	0.001026	20.729714
508.145004	-3.009200	3.745800	-11.270000	23.835825	0.001026	20.729423
509.145786	-2.998600	3.746500	-11.232000	23.862355	0.001026	20.720463
510.145180	-2.990800	3.744500	-11.198000	23.855385	0.001025	20.727699
511.146416	-3.003600	3.743600	-11.244000	23.853972	0.001025	20.731497
512.145503	-2.986500	3.745400	-11.184000	23.886009	0.001025	20.723318
513.148354	-2.979000	3.744000	-11.152000	23.911981	0.001028	20.719964
514.151496	-2.995800	3.743300	-11.213000	23.926472	0.001026	20.717899
515.145939	-2.993800	3.743700	-11.206000	23.923063	0.001025	20.720646
516.148340	-3.010600	3.743100	-11.268000	23.916394	0.001028	20.727235
517.145871	-3.004000	3.742800	-11.242000	23.909878	0.001024	20.722597
518.145786	-3.020900	3.741400	-11.301000	23.941337	0.001025	20.724745
519.149674	-3.015200	3.741200	-11.279000	23.942184	0.001024	20.729863
520.150892	-3.017900	3.741200	-11.288000	23.945198	0.001026	20.711547
521.148622	-2.974700	3.742400	-11.131000	23.924891	0.001026	20.724849
522.148309	-2.979200	3.743000	-11.148000	23.930343	0.001027	20.751655
523.147071	-2.988700	3.740000	-11.177000	23.910415	0.001026	20.705591
524.147249	-2.995600	3.739500	-11.201000	23.926940	0.001027	20.708885
525.151466	-3.008400	3.740200	-11.251000	23.928763	0.001028	20.732051
526.148857	-2.992300	3.739900	-11.190000	23.931723	0.001027	20.709414
527.152794	-2.992700	3.740000	-11.191000	23.938348	0.001026	20.712264
528.148210	-2.990200	3.740100	-11.183000	23.953897	0.001026	20.710787
529.149148	-2.994900	3.738400	-11.193000	23.978390	0.001025	20.699787
530.152261	-2.995600	3.738500	-11.198000	23.972441	0.001026	20.722746
531.148700	-2.986600	3.740400	-11.171000	23.963107	0.001026	20.706747
532.149388	-3.010700	3.737600	-11.251000	23.964334	0.001026	20.731212
533.149838	-3.014600	3.736500	-11.263000	23.937038	0.001026	20.723279
534.151209	-2.997500	3.739100	-11.205000	23.927404	0.001027	20.724050
535.151553	-2.989800	3.738500	-11.176000	23.922252	0.001026	20.701338
536.153035	-2.992900	3.737300	-11.185000	23.948159	0.001027	20.733958
537.150671	-3.004100	3.736800	-11.224000	23.977327	0.001026	20.708204
538.149665	-2.994800	3.735600	-11.186000	23.985419	0.001027	20.717742
539.151133	-3.001900	3.736900	-11.217000	23.971234	0.001029	20.706836
540.150181	-3.016300	3.736200	-11.268000	23.976692	0.001027	20.725112
541.152033	-3.012500	3.734100	-11.247000	23.999092	0.001027	20.729084
542.150959	-3.009900	3.734900	-11.241000	23.978583	0.001028	20.720370
543.153965	-2.999000	3.734400	-11.198000	23.997378	0.001027	20.703655
544.151506	-2.998900	3.734100	-11.197000	23.989488	0.001027	20.730358
545.152093	-2.982400	3.733600	-11.134000	23.980362	0.001029	20.729267
546.153266	-3.000600	3.734600	-11.205000	23.978795	0.001028	20.724377
547.154138	-2.983700	3.735100	-11.144000	23.935871	0.001028	20.723058
548.156882	-3.014500	3.733700	-11.254000	23.933857	0.001025	20.723883
549.151861	-3.018300	3.733700	-11.268000	23.939753	0.001026	20.734063
550.153607	-2.996700	3.732600	-11.185000	23.963030	0.001028	20.739388
551.152710	-2.988200	3.733100	-11.154000	23.973211	0.001027	20.710241
552.156461	-2.989300	3.732200	-11.156000	24.012853	0.001027	20.731505
553.153183	-2.986000	3.732400	-11.143000	24.018035	0.001027	20.724847
554.155789	-2.978500	3.731700	-11.114000	24.009051	0.001029	20.729114
555.153524	-2.995400	3.731800	-11.177000	24.030209	0.001028	20.732315
556.153698	-2.999100	3.730200	-11.186000	24.013484	0.001026	20.712222
557.156498	-3.008600	3.729500	-11.219000	23.999655	0.001028	20.735338
558.153690	-2.998300	3.730100	-11.184000	24.025162	0.001027	20.740055
559.156058	-2.971400	3.729100	-11.079000	24.047334	0.001029	20.724832
560.155264	-2.985400	3.729600	-11.133000	24.044398	0.001026	20.708611
561.153807	-2.989300	3.728500	-11.145000	24.085831	0.001027	20.725509
562.156382	-3.031000	3.728300	-11.298000	24.092253	0.001027	20.745227
563.158549	-3.023700	3.727300	-11.269000	24.112907	0.001030	20.731328
564.157307	-2.992500	3.729600	-11.159000	24.090608	0.001030	20.742629
565.156992	-2.992500	3.727300	-11.153000	24.078616	0.001027	20.714954
566.158024	-3.005400	3.727300	-11.201000	24.081748	0.001030	20.731372
567.157905	-2.984400	3.727400	-11.122000	24.079838	0.001028	20.719498
568.158409	-2.990000	3.728500	-11.148000	24.094169	0.001027	20.726285
569.157406	-2.993600	3.729100	-11.163000	24.133733	0.001029	20.720446
570.160688	-2.998700	3.726100	-11.173000	24.149112	0.001029	20.729708
571.156463	-3.012000	3.725700	-11.220000	24.149560	0.001029	20.718303
572.156909	-3.004700	3.726300	-11.196000	24.204122	0.001027	20.722294
573.159562	-2.980100	3.725900	-11.103000	24.171351	0.001027	20.737314
574.159024	-2.988000	3.725800	-11.132000	24.191102	0.001028	20.731994
575.160698	-3.004900	3.725000	-11.192000	24.231810	0.001028	20.747223
576.162788	-3.001100	3.723600	-11.173000	24.219864	0.001029	20.732395
577.162018	-2.989700	3.725300	-11.136000	24.226906	0.001026	20.730448
578.161582	-2.986200	3.724400	-11.120000	24.236660	0.001027	20.750191
579.162221	-2.998600	3.724500	-11.167000	24.211803	0.001027	20.750863
580.163310	-3.011400	3.722600	-11.210000	24.226127	0.001026	20.742945
581.167485	-2.970900	3.723700	-11.062000	24.198513	0.001027	20.726151
582.164427	-3.000000	3.722600	-11.167000	24.215900	0.001026	20.727944
583.166116	-3.006700	3.723700	-11.195000	24.197666	0.001027	20.730043
584.169756	-2.998400	3.723600	-11.162000	24.186616	0.001027	20.734607
585.166189	-2.999800	3.723200	-11.168000	24.173551	0.001029	20.735728
586.169224	-2.991200	3.722800	-11.135000	24.178431	0.001028	20.755797
587.166400	-3.002600	3.720700	-11.170000	24.203407	0.001027	20.745760
588.167527	-3.001500	3.721100	-11.168000	24.206041	0.001028	20.748876
589.171460	-2.986500	3.720800	-11.111000	24.196292	0.001028	20.753796
590.169093	-2.978300	3.722000	-11.085000	24.216092	0.001028	20.727188
591.167586	-3.011400	3.721100	-11.205000	24.187103	0.001028	20.740786
592.170060	-3.014000	3.718400	-11.207000	24.205446	0.001028	20.763927
593.171584	-3.015500	3.718900	-11.214000	24.203230	0.001028	20.748427
594.171157	-3.001700	3.718500	-11.161000	24.218130	0.001030	20.747726
595.171106	-2.989700	3.718800	-11.117000	24.218529	0.001027	20.721572
596.167474	-3.006700	3.719000	-11.181000	24.212354	0.001025	20.746673
597.171027	-2.970500	3.719400	-11.047000	24.190584	0.001028	20.768935
598.169922	-2.993200	3.717400	-11.126000	24.162643	0.001027	20.754660
599.172770	-3.000500	3.716900	-11.152000	24.186679	0.001027	20.759328
600.169266	-2.998700	3.716200	-11.143000	24.164382	0.001028	20.749291
601.170785	-3.005500	3.716000	-11.167000	24.165824	0.001025	20.761170
602.169939	-3.021200	3.717500	-11.230000	24.172664	0.001027	20.743374
603.174484	-2.999500	3.715900	-11.145000	24.176318	0.001026	20.778808
604.170973	-2.971800	3.717400	-11.045000	24.185600	0.001025	20.760617
605.172832	-3.004100	3.715200	-11.159000	24.190623	0.001026	20.764706
606.171352	-3.013900	3.716000	-11.199000	24.206573	0.001026	20.766954
607.170954	-2.986600	3.716700	-11.100000	24.177042	0.001027	20.747290
608.171947	-3.016100	3.713800	-11.200000	24.206248	0.001026	20.767102
609.171822	-2.995400	3.716000	-11.129000	24.215874	0.001025	20.766326
610.174984	-3.000100	3.715200	-11.145000	24.194848	0.001025	20.754245
611.177756	-2.976200	3.715700	-11.057000	24.203608	0.001026	20.772041
612.178193	-2.994000	3.714500	-11.120000	24.211817	0.001026	20.760360
613.172176	-2.999700	3.711700	-11.133000	24.217937	0.001024	20.762231
614.172346	-3.007000	3.713300	-11.165000	24.239357	0.001025	20.761431
615.174422	-3.008600	3.713200	-11.171000	24.221320	0.001024	20.770366
616.175598	-3.005400	3.712300	-11.156000	24.219104	0.001024	20.756289
617.173435	-3.025500	3.710700	-11.225000	24.195124	0.001023	20.756418
618.172783	-3.002500	3.712000	-11.144000	24.202338	0.001023	20.738997
619.172560	-3.010700	3.711300	-11.172000	24.171733	0.001024	20.747656
620.172614	-3.004100	3.711500	-11.149000	24.158822	0.001023	20.775009
621.173085	-2.986500	3.710700	-11.081000	24.176165	0.001022	20.770120
622.172810	-2.994000	3.710800	-11.110000	24.181464	0.001022	20.768796
623.176233	-3.014600	3.709700	-11.182000	24.212614	0.001022	20.762582
624.174794	-3.009900	3.710300	-11.166000	24.236354	0.001023	20.771695
625.175840	-3.022300	3.709800	-11.211000	24.262352	0.001023	20.762686
626.188996	-3.003300	3.710700	-11.143000	24.306588	0.001023	20.766756
627.176770	-3.023100	3.709400	-11.213000	24.321369	0.001022	20.761195
628.177866	-3.022400	3.708700	-11.207000	24.351197	0.001021	20.775943
629.177609	-3.001800	3.708600	-11.131000	24.359532	0.001021	20.778141
630.182385	-3.006100	3.708500	-11.147000	24.353939	0.001020	20.782488
631.178333	-2.978300	3.708600	-11.045000	24.386099	0.001020	20.773498
632.182340	-3.004500	3.706700	-11.135000	24.397177	0.001020	20.770387
633.178897	-3.003500	3.707000	-11.132000	24.370635	0.001021	20.785486
634.179356	-2.999400	3.707700	-11.121000	24.394292	0.001021	20.773657
635.179112	-2.992000	3.708500	-11.094000	24.390811	0.001023	20.778700
636.181614	-2.995200	3.705900	-11.099000	24.400791	0.001022	20.764055
637.182401	-2.972200	3.707300	-11.017000	24.395045	0.001021	20.776783
638.181697	-3.004600	3.706500	-11.135000	24.391338	0.001021	20.756943
639.182218	-3.011700	3.705500	-11.159000	24.414325	0.001019	20.784745
640.183173	-2.981800	3.706600	-11.051000	24.396193	0.001022	20.769874
641.183663	-3.009300	3.706000	-11.152000	24.392037	0.001020	20.780404
642.183910	-3.012900	3.704200	-11.158000	24.400993	0.001022	20.785121
643.182182	-3.024900	3.704900	-11.204000	24.412582	0.001020	20.764030
644.181048	-3.003000	3.705200	-11.126000	24.396739	0.001019	20.778483
645.182277	-2.975200	3.705300	-11.022000	24.407738	0.001019	20.783353
646.182801	-2.977200	3.704400	-11.027000	24.404178	0.001019	20.771721
647.187222	-3.003900	3.703000	-11.122000	24.394400	0.001019	20.797474
648.184175	-3.017700	3.703400	-11.175000	24.394307	0.001023	20.768456
649.182209	-2.991900	3.702200	-11.075000	24.372063	0.001018	20.788341
650.186073	-3.002000	3.702600	-11.113000	24.373954	0.001019	20.779806
651.183958	-2.996400	3.702100	-11.092000	24.394652	0.001018	20.771647
652.182511	-3.017700	3.702200	-11.171000	24.394977	0.001018	20.787146
653.187020	-3.014600	3.702600	-11.160000	24.393534	0.001017	20.786173
654.183780	-2.983200	3.702300	-11.044000	24.403484	0.001019	20.776240
655.184525	-2.962800	3.702700	-10.969000	24.421021	0.001017	20.802368
656.184482	-2.996000	3.701700	-11.089000	24.438656	0.001017	20.775964
657.186148	-2.995500	3.700600	-11.083000	24.423985	0.001015	20.777841
658.185713	-2.994900	3.700500	-11.081000	24.413508	0.001017	20.769701
659.187850	-3.003000	3.700000	-11.110000	24.402563	0.001018	20.809456
660.185271	-2.999800	3.700700	-11.100000	24.399107	0.001017	20.800773
661.184521	-3.005500	3.700000	-11.120000	24.422488	0.001017	20.806211
662.189465	-2.999400	3.698500	-11.092000	24.440792	0.001017	20.789487
663.187622	-3.006100	3.698100	-11.116000	24.451239	0.001017	20.788114
664.189441	-3.010300	3.697400	-11.128000	24.469892	0.001015	20.791181
665.188990	-2.977400	3.699700	-11.014000	24.475288	0.001016	20.810345
666.188494	-3.002300	3.698100	-11.102000	24.491277	0.001014	20.796515
667.188764	-3.003000	3.697800	-11.104000	24.488840	0.001012	20.786958
668.187336	-3.004400	3.697100	-11.106000	24.464590	0.001017	20.774482
669.189880	-2.986000	3.697200	-11.039000	24.472147	0.001017	20.794865
670.188376	-2.989900	3.696200	-11.050000	24.474012	0.001015	20.797685
671.190361	-2.989900	3.697200	-11.053000	24.485257	0.001017	20.801380
672.189655	-3.000700	3.697300	-11.094000	24.497140	0.001014	20.814725
673.188122	-2.988300	3.697800	-11.049000	24.460922	0.001014	20.788820
674.189855	-2.997500	3.696000	-11.078000	24.440531	0.001014	20.809613
675.190464	-3.003100	3.695200	-11.096000	24.426032	0.001015	20.804077
676.189593	-3.006200	3.695800	-11.108000	24.439536	0.001015	20.800555
677.191857	-3.010300	3.694300	-11.119000	24.410681	0.001013	20.801005
678.191360	-2.990100	3.694400	-11.046000	24.413020	0.001013	20.793393
679.191358	-2.996100	3.694400	-11.067000	24.471526	0.001013	20.807993
680.193902	-3.006000	3.691800	-11.097000	24.468893	0.001011	20.819575
681.191318	-3.012100	3.691800	-11.119000	24.465013	0.001011	20.789131
682.194363	-3.005800	3.692600	-11.097000	24.450737	0.001012	20.820326
683.192481	-3.004000	3.692400	-11.091000	24.434914	0.001013	20.812039
684.191508	-2.996300	3.692600	-11.063000	24.458146	0.001013	20.812587
685.194915	-3.008100	3.690800	-11.102000	24.463798	0.001012	20.811619
686.194140	-2.996300	3.691500	-11.059000	24.477503	0.001013	20.813041
687.192536	-2.987000	3.693300	-11.031000	24.459470	0.001011	20.824347
688.192983	-3.004100	3.690500	-11.086000	24.464521	0.001011	20.814242
689.196506	-3.004700	3.690400	-11.086000	24.489747	0.001010	20.823428
690.194715	-3.004600	3.691200	-11.090000	24.455842	0.001010	20.818336
691.201468	-3.016400	3.689800	-11.128000	24.497904	0.001012	20.834931
692.197352	-2.997300	3.689700	-11.058000	24.500813	0.001011	20.815565
693.197229	-3.021400	3.690300	-11.148000	24.501862	0.001012	20.830368
694.193680	-3.017700	3.689500	-11.134000	24.486842	0.001010	20.837584
695.194005	-3.001900	3.690300	-11.077000	24.507637	0.001009	20.829049
696.198810	-2.993000	3.689600	-11.042000	24.524226	0.001010	20.845219
697.195905	-3.000400	3.689600	-11.069000	24.510202	0.001011	20.815027
698.197220	-3.010600	3.686700	-11.098000	24.505451	0.001011	20.833968
699.194696	-2.975200	3.687700	-10.971000	24.482313	0.001009	20.824505
700.196048	-2.980500	3.688600	-10.993000	24.467047	0.001010	20.821043
701.196196	-2.992500	3.688100	-11.035000	24.451304	0.001008	20.805722
702.197857	-3.046100	3.685200	-11.224000	24.440955	0.001010	20.828057
703.195896	-3.006500	3.686600	-11.082000	24.447099	0.001009	20.829953
704.197545	-3.013800	3.686200	-11.108000	24.430238	0.001007	20.834374
705.197287	-2.994900	3.687500	-11.040000	24.440089	0.001007	20.825765
706.197113	-2.994900	3.686700	-11.040000	24.477868	0.001006	20.834270
707.198521	-3.004000	3.686900	-11.075000	24.476253	0.001008	20.817951
708.197649	-3.000800	3.685300	-11.056000	24.525758	0.001008	20.812143
709.197554	-2.995900	3.685600	-11.040000	24.540580	0.001008	20.842661
710.201238	-3.009400	3.684400	-11.086000	24.566129	0.001007	20.821829
711.199053	-2.992500	3.684500	-11.025000	24.565110	0.001005	20.833608
712.205437	-2.993400	3.684400	-11.027000	24.583338	0.001008	20.842414
713.208398	-3.006800	3.683000	-11.074000	24.573611	0.001007	20.825069
714.207431	-2.993300	3.683500	-11.025000	24.570781	0.001006	20.843565
715.200296	-3.017300	3.683400	-11.112000	24.599208	0.001005	20.827993
716.200381	-3.014500	3.681600	-11.097000	24.590648	0.001005	20.830783
717.202968	-2.980700	3.684000	-10.978000	24.567222	0.001007	20.839046
718.203439	-2.988600	3.681700	-11.001000	24.553739	0.001004	20.840217
719.204180	-2.973700	3.682500	-10.949000	24.543268	0.001005	20.846780
720.202563	-3.000600	3.681200	-11.045000	24.578834	0.001005	20.850223
721.202307	-2.981800	3.681700	-10.976000	24.591612	0.001006	20.865889
722.207345	-3.002300	3.681100	-11.049000	24.619941	0.001004	20.836468
723.205133	-2.990100	3.681400	-11.007000	24.631336	0.001005	20.852169
724.206949	-3.006300	3.679300	-11.060000	24.631828	0.001004	20.827059
725.205760	-3.015000	3.679600	-11.092000	24.649582	0.001003	20.841080
726.204279	-3.005300	3.680400	-11.060000	24.632793	0.001005	20.840354
727.204958	-3.031900	3.678500	-11.151000	24.614492	0.001003	20.853759
728.206577	-3.004200	3.679500	-11.053000	24.582402	0.001002	20.859967
729.206001	-3.017800	3.678700	-11.100000	24.619704	0.001002	20.864204
730.205997	-3.023000	3.678100	-11.117000	24.642514	0.001003	20.870022
731.205770	-3.022400	3.677600	-11.114000	24.657782	0.001003	20.846464
732.206377	-3.005300	3.678200	-11.053000	24.649302	0.001004	20.871143
733.210509	-2.974900	3.679300	-10.944000	24.669246	0.001002	20.839475
734.207526	-2.984300	3.678300	-10.976000	24.695480	0.001003	20.849679
735.210048	-2.998200	3.677800	-11.025000	24.706122	0.001002	20.874106
736.208190	-2.948600	3.679600	-10.848000	24.703735	0.001002	20.871711
737.206490	-2.990600	3.679100	-10.999000	24.692340	0.001002	20.857906
738.206969	-3.000400	3.676600	-11.029000	24.711959	0.001002	20.868584
739.206623	-3.003500	3.676300	-11.041000	24.685449	0.001001	20.851466
740.206827	-3.015600	3.674200	-11.078000	24.705319	0.001000	20.851965
741.207295	-3.005600	3.675600	-11.046000	24.725538	0.001001	20.854237
742.209627	-2.997100	3.676100	-11.017000	24.685621	0.001000	20.867285
743.206394	-3.013500	3.674400	-11.072000	24.677657	0.001002	20.877311
744.210218	-2.997500	3.677200	-11.022000	24.658136	0.001001	20.875740
745.207181	-2.993200	3.675500	-10.999000	24.665574	0.001000	20.867557
746.209146	-2.998800	3.675900	-11.022000	24.635479	0.001000	20.887618
747.209390	-3.016500	3.673400	-11.080000	24.620309	0.001000	20.853432
748.212114	-2.986300	3.674200	-10.971000	24.643881	0.000998	20.859067
749.211351	-3.005000	3.674100	-11.039000	24.655124	0.000998	20.877933
750.209923	-2.998300	3.673500	-11.013000	24.696878	0.000999	20.875261
751.213880	-3.008200	3.673400	-11.048000	24.712150	0.000997	20.857397
752.210874	-3.003300	3.673000	-11.030000	24.706382	0.000997	20.863462
753.208950	-3.000400	3.673000	-11.019000	24.706726	0.000997	20.885618
754.212484	-2.993900	3.671300	-10.991000	24.724485	0.001000	20.871671
755.218291	-2.974000	3.672400	-10.920000	24.757259	0.000995	20.878007
756.208628	-3.011400	3.671600	-11.056000	24.755600	0.000997	20.888670
757.209768	-3.002100	3.670800	-11.019000	24.769819	0.000997	20.879232
758.210629	-3.004200	3.672200	-11.030000	24.789687	0.000996	20.876412
759.209759	-3.017100	3.669700	-11.071000	24.783556	0.000996	20.870258
760.212769	-2.980600	3.670800	-10.939000	24.770400	0.000997	20.893564
761.210051	-3.015500	3.668900	-11.062000	24.772334	0.000996	20.882230
762.213026	-2.985500	3.670700	-10.957000	24.788649	0.000996	20.889119
763.210175	-2.978700	3.670500	-10.933000	24.804295	0.000996	20.873528
764.210014	-2.975600	3.670200	-10.920000	24.789004	0.000994	20.889001
765.215998	-3.027700	3.669400	-11.109000	24.772615	0.000994	20.871607
766.211824	-3.013000	3.669500	-11.056000	24.740265	0.000995	20.878496
767.211339	-2.997900	3.669300	-11.000000	24.775578	0.000993	20.868891
768.213792	-3.014100	3.667600	-11.054000	24.770809	0.000993	20.881174
769.213358	-2.990500	3.669200	-10.972000	24.784216	0.000995	20.869973
770.213687	-3.002700	3.667200	-11.011000	24.821092	0.000994	20.895126
771.215599	-2.997500	3.667600	-10.993000	24.807224	0.000993	20.854183
772.215372	-3.012200	3.666800	-11.044000	24.828332	0.000994	20.860194
773.214341	-2.991900	3.667500	-10.972000	24.811274	0.000992	20.870101
774.217568	-2.990500	3.666500	-10.963000	24.787331	0.000993	20.871203
775.216981	-3.003400	3.666400	-11.011000	24.835773	0.000990	20.841584
776.215304	-3.013900	3.666600	-11.049000	24.834828	0.000993	20.849645
777.215635	-2.995700	3.666800	-10.984000	24.819120	0.000990	20.865173
778.217045	-2.978300	3.667500	-10.921000	24.795767	0.000991	20.861177
779.216290	-3.006600	3.665700	-11.019000	24.824051	0.000991	20.846889
780.218334	-3.000000	3.666100	-10.997000	24.793267	0.000992	20.857720
781.216830	-3.003500	3.663900	-11.003000	24.780210	0.000990	20.870695
782.216542	-2.974100	3.665500	-10.900000	24.771982	0.000991	20.842998
783.215799	-3.010000	3.664600	-11.028000	24.713969	0.000989	20.862541
784.217222	-2.998300	3.664800	-10.988000	24.715834	0.000992	20.862042
785.218693	-3.007100	3.663300	-11.016000	24.718098	0.000990	20.845823
786.216271	-3.009200	3.662800	-11.021000	24.763236	0.000990	20.845127
787.219153	-3.003600	3.662700	-11.000000	24.778036	0.000988	20.864719
788.216306	-3.016900	3.662700	-11.049000	24.763935	0.000990	20.836820
789.224984	-2.984500	3.662700	-10.930000	24.756129	0.000989	20.865969
790.219256	-2.961500	3.663400	-10.847000	24.759609	0.000987	20.880839
791.219023	-2.980300	3.663000	-10.915000	24.753349	0.000989	20.844213
792.219850	-3.005800	3.660500	-11.001000	24.782313	0.000987	20.844356
793.219629	-2.992600	3.660100	-10.952000	24.815415	0.000989	20.863826
794.218838	-2.992500	3.660500	-10.952000	24.831208	0.000989	20.854546
795.218792	-2.986500	3.660400	-10.930000	24.848615	0.000988	20.855420
796.219455	-2.967200	3.661800	-10.863000	24.855573	0.000986	20.844860
797.222369	-2.989900	3.659200	-10.939000	24.878600	0.000988	20.849952
798.223518	-3.008900	3.660000	-11.012000	24.847694	0.000987	20.845488
799.220584	-2.999400	3.659900	-10.976000	24.857113	0.000986	20.858259
800.220011	-2.999400	3.660000	-10.977000	24.868147	0.000988	20.854160
801.222258	-3.002000	3.659600	-10.986000	24.846425	0.000985	20.834257
802.224403	-3.002400	3.658800	-10.984000	24.857359	0.000987	20.839541
803.221695	-2.994800	3.660500	-10.961000	24.870593	0.000985	20.841443
804.223242	-3.015700	3.656700	-11.027000	24.899731	0.000985	20.824220
805.222973	-3.027100	3.657700	-11.072000	24.908190	0.000984	20.838400
806.222101	-3.015000	3.657700	-11.027000	24.892669	0.000985	20.852693
807.223448	-3.010100	3.657000	-11.007000	24.898146	0.000985	20.814096
808.223897	-2.988000	3.657700	-10.928000	24.922057	0.000984	20.833827
809.222166	-3.006000	3.656400	-10.990000	24.880661	0.000982	20.828789
810.222666	-3.002300	3.655600	-10.975000	24.863895	0.000982	20.858427
811.225290	-2.994500	3.655900	-10.946000	24.848137	0.000984	20.848777
812.224358	-2.981400	3.657200	-10.901000	24.855145	0.000982	20.821672
813.227204	-3.014600	3.654400	-11.015000	24.851119	0.000981	20.831382
814.227969	-3.009700	3.656200	-11.004000	24.860292	0.000982	20.840114
815.226302	-3.009500	3.654900	-10.998000	24.889755	0.000980	20.830330
816.226551	-3.011900	3.655300	-11.009000	24.887571	0.000980	20.840939
817.227423	-2.990600	3.656900	-10.936000	24.919892	0.000979	20.821222
818.230830	-2.989800	3.654200	-10.924000	24.934089	0.000981	20.810342
819.227329	-2.985500	3.654800	-10.910000	24.908505	0.000981	20.828285
820.232333	-2.989800	3.654900	-10.926000	24.852610	0.000982	20.823870
821.228622	-3.001500	3.653900	-10.966000	24.853496	0.000978	20.832345
822.228961	-2.978600	3.654100	-10.883000	24.845469	0.000981	20.840410
823.231236	-2.982600	3.654000	-10.897000	24.838737	0.000979	20.813740
824.232451	-3.001000	3.653100	-10.962000	24.847482	0.000979	20.810663
825.230334	-3.001700	3.653300	-10.965000	24.873515	0.000978	20.807867
826.230685	-3.006500	3.652100	-10.978000	24.875834	0.000978	20.832952
827.229982	-2.996700	3.652200	-10.944000	24.900700	0.000978	20.857435
828.237525	-3.018400	3.651500	-11.020000	24.901842	0.000979	20.833451
829.236479	-3.022900	3.651500	-11.037000	24.900100	0.000976	20.816056
830.235911	-3.006800	3.651300	-10.977000	24.891276	0.000976	20.810994
831.237199	-3.000900	3.650300	-10.954000	24.883939	0.000976	20.826863
832.233005	-3.005100	3.649700	-10.967000	24.868506	0.000975	20.821331
833.232691	-3.012600	3.651000	-10.997000	24.887649	0.000975	20.825846
834.234753	-3.005300	3.650400	-10.970000	24.856248	0.000975	20.809502
835.233746	-2.985100	3.650000	-10.894000	24.835440	0.000974	20.825130
836.233910	-2.985400	3.649500	-10.893000	24.843251	0.000976	20.800252
837.233479	-3.007100	3.649000	-10.972000	24.822463	0.000973	20.830123
838.233791	-2.998800	3.649600	-10.943000	24.838777	0.000973	20.823263
839.233460	-2.997600	3.649200	-10.936000	24.878787	0.000973	20.814106
840.236697	-2.994700	3.648800	-10.926000	24.869713	0.000974	20.832025
841.237526	-2.986100	3.649100	-10.896000	24.865294	0.000974	20.822849
842.234634	-2.994800	3.650000	-10.930000	24.861820	0.000972	20.826000
843.232818	-3.016000	3.646400	-10.997000	24.876318	0.000972	20.824430
844.233644	-3.010300	3.647600	-10.978000	24.858641	0.000974	20.815223
845.236553	-3.017500	3.646700	-11.003000	24.846210	0.000972	20.802273
846.235023	-3.012600	3.646100	-10.982000	24.809615	0.000972	20.804427
847.237115	-3.013700	3.645800	-10.986000	24.852884	0.000972	20.825566
848.236613	-3.009800	3.646400	-10.974000	24.851870	0.000971	20.810325
849.236496	-3.011300	3.645900	-10.978000	24.883312	0.000970	20.788776
850.235518	-3.017900	3.644900	-10.999000	24.904522	0.000970	20.802952
851.235765	-3.008500	3.645300	-10.965000	24.908026	0.000968	20.809787
852.235946	-3.002600	3.644800	-10.942000	24.913356	0.000970	20.801861
853.235757	-3.022600	3.643500	-11.011000	24.921791	0.000970	20.808904
854.236094	-3.007500	3.644600	-10.960000	24.862295	0.000970	20.815572
855.235778	-3.006600	3.644600	-10.957000	24.829879	0.000970	20.812910
856.237407	-2.988700	3.643800	-10.889000	24.829682	0.000969	20.796592
857.236426	-2.996300	3.643900	-10.917000	24.843531	0.000970	20.797688
858.237960	-3.008000	3.643300	-10.958000	24.857464	0.000967	20.787015
859.236265	-2.998200	3.642400	-10.920000	24.890244	0.000968	20.792889
860.235562	-2.979700	3.643800	-10.856000	24.897877	0.000967	20.795333
861.242293	-3.018400	3.642300	-10.992000	24.914269	0.000965	20.805148
862.238184	-3.000600	3.642400	-10.929000	24.917379	0.000967	20.812063
863.242605	-3.000200	3.642200	-10.925000	24.928845	0.000965	20.783268
864.238711	-3.027500	3.641700	-11.025000	24.904009	0.000966	20.805282
865.239133	-2.987100	3.641400	-10.876000	24.900102	0.000967	20.796618
866.243178	-2.986300	3.641600	-10.873000	24.923064	0.000965	20.790742
867.240623	-2.989500	3.640800	-10.883000	24.969930	0.000964	20.808384
868.240660	-2.989800	3.640800	-10.884000	24.959966	0.000963	20.797909
869.240395	-2.997000	3.640800	-10.910000	24.957580	0.000964	20.784133
870.240293	-2.971900	3.641900	-10.822000	24.978897	0.000963	20.787038
871.243677	-3.008800	3.640300	-10.952000	24.995977	0.000964	20.791380
872.241560	-3.006900	3.639700	-10.943000	25.026632	0.000962	20.778528
873.241765	-3.005500	3.639900	-10.938000	25.049182	0.000961	20.789785
874.242185	-3.001100	3.637500	-10.914000	25.040128	0.000963	20.775480
875.242341	-3.001200	3.638900	-10.920000	25.069744	0.000961	20.779131
876.243370	-2.988500	3.637900	-10.871000	25.057340	0.000963	20.776637
877.242630	-3.013300	3.637400	-10.959000	25.042520	0.000964	20.787839
878.243489	-2.989400	3.638800	-10.876000	24.997940	0.000962	20.791454
879.247338	-2.998800	3.637600	-10.907000	24.966718	0.000961	20.781927
880.245049	-2.997500	3.637500	-10.903000	24.995460	0.000961	20.771421
881.244803	-3.011300	3.635200	-10.946000	24.959264	0.000960	20.787246
882.247070	-3.026200	3.635700	-11.001000	24.949319	0.000958	20.771100
883.244877	-3.002400	3.636200	-10.916000	24.934000	0.000959	20.789390
884.244890	-3.003600	3.636100	-10.920000	24.948295	0.000961	20.779082
885.245667	-3.003200	3.634000	-10.913000	24.942681	0.000958	20.779611
886.246440	-2.964200	3.637300	-10.781000	24.983921	0.000960	20.779279
887.247443	-3.009400	3.633700	-10.935000	25.006767	0.000959	20.778503
888.248529	-2.996600	3.634500	-10.890000	25.021908	0.000957	20.775209
889.245689	-2.979500	3.636500	-10.833000	25.037226	0.000958	20.771144
890.246624	-2.996500	3.633900	-10.888000	25.047337	0.000956	20.781768
891.246591	-3.003400	3.632900	-10.910000	25.071481	0.000956	20.780400
892.246495	-2.987000	3.634100	-10.853000	25.039306	0.000955	20.777500
893.250908	-2.986800	3.635900	-10.858000	25.049201	0.000959	20.773208
894.249769	-2.996200	3.634400	-10.888000	25.033362	0.000956	20.788604
895.252048	-3.007900	3.632500	-10.925000	25.054771	0.000956	20.783067
896.249303	-2.977200	3.633600	-10.817000	25.022547	0.000955	20.754513
897.251000	-3.003300	3.632600	-10.909000	25.029485	0.000957	20.770013
898.252726	-3.004700	3.631700	-10.911000	24.998830	0.000956	20.764846
899.250611	-2.982500	3.633300	-10.835000	25.021160	0.000954	20.776355
900.249444	-2.992700	3.632200	-10.868000	25.037092	0.000956	20.765794
901.249819	-2.997200	3.631500	-10.883000	25.040000	0.000954	20.771558
902.249979	-2.978000	3.630900	-10.811000	25.055637	0.000955	20.764021
903.254486	-2.996900	3.631000	-10.880000	25.059937	0.000954	20.769761
904.252522	-3.005600	3.629300	-10.907000	25.044344	0.000955	20.777816
905.252042	-3.003000	3.630800	-10.902000	25.077881	0.000955	20.772600
906.254041	-2.977400	3.632200	-10.813000	25.058791	0.000953	20.759126
907.253821	-2.988200	3.630500	-10.848000	25.058662	0.000952	20.758523
908.253008	-2.999300	3.629200	-10.885000	25.071441	0.000952	20.767557
909.255781	-3.003900	3.628600	-10.899000	25.078152	0.000950	20.773820
910.252965	-2.998200	3.629900	-10.882000	25.122060	0.000952	20.762421
911.253361	-3.011000	3.627700	-10.921000	25.127422	0.000951	20.769226
912.254945	-3.005900	3.628200	-10.906000	25.137636	0.000950	20.777109
913.257129	-2.982900	3.627200	-10.819000	25.168882	0.000949	20.777183
914.255112	-2.979000	3.627600	-10.805000	25.178058	0.000948	20.764109
915.257738	-3.003300	3.626700	-10.891000	25.186406	0.000950	20.769172
916.256598	-2.997800	3.626600	-10.871000	25.201765	0.000949	20.759461
917.255920	-3.007400	3.625200	-10.901000	25.174293	0.000948	20.757011
918.258434	-3.015300	3.625700	-10.932000	25.191429	0.000949	20.760464
919.257797	-2.996600	3.626300	-10.865000	25.193564	0.000948	20.758814
920.262544	-3.006100	3.624800	-10.896000	25.174471	0.000948	20.744860
921.258720	-2.997200	3.627000	-10.870000	25.170539	0.000946	20.771260
922.260386	-2.988900	3.625900	-10.835000	25.158166	0.000947	20.776383
923.260114	-2.991900	3.624500	-10.843000	25.199601	0.000947	20.755865
924.261378	-2.988000	3.626200	-10.834000	25.186308	0.000948	20.766228
925.262986	-3.022300	3.622900	-10.949000	25.199429	0.000946	20.772288
926.260038	-3.027300	3.624500	-10.971000	25.209297	0.000945	20.765126
927.261970	-3.036400	3.623100	-10.999000	25.222276	0.000946	20.757293
928.261199	-2.981300	3.624900	-10.806000	25.232169	0.000946	20.757742
929.262146	-3.000100	3.625000	-10.875000	25.216283	0.000946	20.756018
930.265504	-3.004600	3.622200	-10.883000	25.205451	0.000943	20.747987
931.265602	-3.013800	3.622200	-10.916000	25.199262	0.000943	20.755999
932.262556	-2.979600	3.623400	-10.796000	25.152460	0.000943	20.760223
933.263697	-2.985200	3.622900	-10.814000	25.148283	0.000941	20.761245
934.263708	-2.974400	3.622900	-10.774000	25.135132	0.000941	20.756577
935.262362	-3.006300	3.622000	-10.888000	25.168125	0.000942	20.755560
936.266825	-3.006400	3.619500	-10.881000	25.156519	0.000941	20.739641
937.263624	-2.968500	3.621600	-10.749000	25.169690	0.000939	20.756657
938.265837	-2.997700	3.619700	-10.850000	25.182496	0.000941	20.746754
939.266782	-2.988300	3.620700	-10.819000	25.195671	0.000940	20.773732
940.264432	-2.994900	3.620300	-10.842000	25.216034	0.000940	20.743914
941.267277	-3.021000	3.617400	-10.928000	25.227989	0.000939	20.773935
942.267264	-2.990900	3.619400	-10.824000	25.203607	0.000939	20.764629
943.265667	-3.010200	3.619900	-10.896000	25.212826	0.000940	20.746383
944.267593	-2.998400	3.618700	-10.849000	25.219842	0.000937	20.741573
945.265587	-2.985100	3.619800	-10.805000	25.247982	0.000938	20.750859
946.265020	-3.006100	3.619200	-10.879000	25.258648	0.000940	20.755403
947.268148	-3.002400	3.619400	-10.866000	25.228545	0.000938	20.753156
948.266273	-2.995400	3.617800	-10.836000	25.193817	0.000938	20.721608
949.268765	-3.016400	3.615100	-10.903000	25.142017	0.000938	20.744996
950.266036	-3.019000	3.615300	-10.914000	25.179850	0.000937	20.739830
951.265184	-3.001400	3.616600	-10.854000	25.174188	0.000938	20.740783
952.266681	-3.011200	3.617100	-10.890000	25.183653	0.000936	20.752657
953.270129	-3.013800	3.616300	-10.897000	25.157529	0.000934	20.742077
954.274000	-2.995800	3.617700	-10.837000	25.154720	0.000934	20.750163
955.266279	-3.004400	3.615700	-10.862000	25.127503	0.000933	20.734693
956.266662	-3.001400	3.615400	-10.849000	25.133496	0.000933	20.738813
957.269425	-3.012500	3.615200	-10.889000	25.116314	0.000933	20.740057
958.267332	-2.999500	3.615800	-10.844000	25.139961	0.000932	20.737242
959.268621	-3.004100	3.613900	-10.855000	25.110155	0.000933	20.741934
960.268814	-2.988600	3.614500	-10.801000	25.111266	0.000931	20.739731
961.269248	-2.977100	3.615100	-10.762000	25.114854	0.000932	20.737168
962.269253	-2.977100	3.614500	-10.759000	25.106273	0.000933	20.749417
963.274277	-2.980000	3.613000	-10.765000	25.116645	0.000929	20.736121
964.270639	-2.998600	3.613000	-10.833000	25.149958	0.000931	20.746805
965.272672	-3.001700	3.613800	-10.846000	25.127784	0.000930	20.741614
966.271548	-2.992500	3.614000	-10.814000	25.110185	0.000928	20.747655
967.272332	-2.991700	3.611900	-10.804000	25.074814	0.000929	20.720207
968.275159	-2.988900	3.611900	-10.794000	25.057809	0.000928	20.759089
969.275421	-2.983200	3.613300	-10.777000	25.055920	0.000928	20.741071
970.276586	-3.006800	3.611100	-10.856000	25.028922	0.000928	20.722504
971.275632	-3.006700	3.610300	-10.854000	25.033449	0.000927	20.722306
972.274242	-3.002600	3.611300	-10.842000	24.996014	0.000926	20.747794
973.275684	-2.998200	3.609800	-10.822000	25.006928	0.000928	20.750214
974.273165	-3.009900	3.609800	-10.863000	25.007848	0.000926	20.727429
975.273067	-2.982600	3.610400	-10.768000	25.015234	0.000926	20.742904
976.275220	-3.004500	3.608600	-10.841000	25.050434	0.000926	20.739358
977.275509	-3.009000	3.609600	-10.860000	25.048924	0.000925	20.745428
978.274433	-2.976600	3.609800	-10.744000	25.069462	0.000925	20.756562
979.276477	-3.007900	3.608400	-10.853000	25.064438	0.000923	20.733974
980.276440	-3.019800	3.607000	-10.890000	25.106285	0.000923	20.736627
981.276081	-3.010400	3.608400	-10.862000	25.096238	0.000923	20.736024
982.275616	-3.032000	3.607700	-10.938000	25.100538	0.000921	20.727538
983.276763	-2.995500	3.607900	-10.806000	25.154359	0.000922	20.747429
984.280454	-2.998100	3.607900	-10.816000	25.166442	0.000922	20.744861
985.276350	-2.994000	3.607800	-10.800000	25.184163	0.000921	20.741314
986.278596	-2.975600	3.606300	-10.729000	25.227018	0.000923	20.758735
987.277248	-2.983600	3.606400	-10.759000	25.267112	0.000920	20.753470
988.276572	-3.011500	3.605400	-10.857000	25.277630	0.000921	20.745538
989.277052	-3.019800	3.605600	-10.887000	25.257967	0.000920	20.735279
990.281475	-2.992300	3.605500	-10.787000	25.292068	0.000921	20.735377
991.279157	-2.994600	3.605000	-10.793000	25.291847	0.000921	20.747010
992.278008	-2.997500	3.605000	-10.805000	25.332012	0.000919	20.741344
993.280585	-3.016300	3.604800	-10.872000	25.361236	0.000918	20.746031
994.277936	-3.012600	3.604800	-10.859000	25.355574	0.000919	20.737976
995.282069	-2.992000	3.603800	-10.781000	25.387729	0.000918	20.736597
996.280716	-3.017900	3.603500	-10.874000	25.377670	0.000919	20.717487
997.283991	-3.023100	3.603000	-10.891000	25.379633	0.000918	20.743641
998.281076	-2.995500	3.603700	-10.793000	25.391138	0.000916	20.738598
999.280839	-3.007100	3.603800	-10.836000	25.420966	0.000915	20.737729
1000.282146	-3.001700	3.602900	-10.814000	25.416489	0.000918	20.750304
1001.281252	-3.010800	3.602300	-10.845000	25.408811	0.000916	20.737378
1002.285158	-3.018900	3.602000	-10.873000	25.412362	0.000917	20.717235
1003.281265	-3.025600	3.599800	-10.890000	25.396387	0.000916	20.748610
1004.282592	-2.999200	3.600200	-10.796000	25.375530	0.000915	20.744263
1005.282530	-2.998100	3.600400	-10.793000	25.385944	0.000913	20.734805
1006.286582	-3.016700	3.601000	-10.861000	25.382663	0.000913	20.756641
1007.282814	-2.970300	3.600400	-10.694000	25.398693	0.000914	20.750452
1008.283129	-2.991900	3.600300	-10.770000	25.414429	0.000913	20.744916
1009.283646	-3.005600	3.599700	-10.818000	25.422549	0.000912	20.755441
1010.283803	-3.004700	3.599500	-10.813000	25.452376	0.000912	20.748882
1011.290023	-3.007700	3.599400	-10.825000	25.428619	0.000910	20.733086
1012.284276	-2.993400	3.598400	-10.771000	25.423051	0.000911	20.730814
1013.286749	-3.018700	3.598300	-10.861000	25.404267	0.000912	20.734237
1014.285246	-2.991800	3.598000	-10.763000	25.387267	0.000908	20.757946
1015.284575	-3.005700	3.598700	-10.816000	25.357930	0.000910	20.758360
1016.288933	-2.999400	3.596100	-10.785000	25.332484	0.000909	20.742293
1017.286618	-3.011400	3.596300	-10.830000	25.340094	0.000909	20.762737
1018.284995	-3.020000	3.597600	-10.864000	25.350306	0.000909	20.764455
1019.286035	-3.015500	3.596400	-10.843000	25.368201	0.000909	20.765354
1020.284542	-2.982600	3.597900	-10.729000	25.388157	0.000907	20.758839
1021.285713	-3.008600	3.595200	-10.815000	25.396332	0.000906	20.753297
1022.285553	-2.991000	3.596800	-10.757000	25.387961	0.000907	20.745365
1023.285279	-3.017200	3.596000	-10.848000	25.393450	0.000905	20.746610
1024.286771	-3.015100	3.594200	-10.836000	25.426927	0.000908	20.730912
1025.287161	-2.978500	3.595800	-10.709000	25.424768	0.000905	20.763833
1026.287138	-2.975500	3.595600	-10.697000	25.436966	0.000906	20.748580
1027.289682	-3.000600	3.593700	-10.782000	25.460255	0.000903	20.741621
1028.288811	-2.989500	3.594500	-10.745000	25.454196	0.000905	20.758771
1029.294997	-2.987500	3.594000	-10.735000	25.451977	0.000904	20.757017
1030.288593	-2.981400	3.593500	-10.713000	25.484514	0.000902	20.753654
1031.287283	-3.017100	3.592700	-10.839000	25.473801	0.000902	20.764707
1032.291346	-2.991600	3.594300	-10.752000	25.483294	0.000901	20.761912
1033.290978	-2.999200	3.591100	-10.769000	25.517958	0.000899	20.761161
1034.292423	-3.004200	3.591700	-10.789000	25.529418	0.000900	20.748961
1035.291268	-3.000900	3.592400	-10.780000	25.536273	0.000901	20.764381
1036.291883	-3.012600	3.590000	-10.814000	25.512647	0.000902	20.755353
1037.295000	-2.989500	3.591400	-10.736000	25.514707	0.000899	20.768802
1038.295684	-3.006700	3.591100	-10.795000	25.530859	0.000901	20.790712
1039.291478	-3.000400	3.590600	-10.771000	25.511801	0.000901	20.770151
1040.292458	-2.999100	3.590400	-10.766000	25.534709	0.000899	20.760914
1041.291716	-2.978000	3.588800	-10.687000	25.524401	0.000898	20.742501
1042.291576	-2.987400	3.588500	-10.719000	25.549204	0.000899	20.758875
1043.296315	-2.987400	3.589500	-10.721000	25.528479	0.000896	20.776468
1044.292138	-3.001300	3.588200	-10.767000	25.502161	0.000897	20.763315
1045.293561	-2.975800	3.588500	-10.677000	25.505417	0.000898	20.773223
1046.292616	-3.005400	3.588400	-10.784000	25.479975	0.000896	20.769010
1047.293370	-3.012500	3.586600	-10.803000	25.492570	0.000896	20.752261
1048.295305	-3.012700	3.586300	-10.803000	25.505914	0.000897	20.772299
1049.293858	-3.000500	3.585400	-10.756000	25.490234	0.000896	20.759398
1050.293941	-2.993300	3.587000	-10.736000	25.463369	0.000894	20.750438
1051.292253	-3.035700	3.584700	-10.881000	25.420646	0.000893	20.758272
1052.293697	-3.000700	3.585600	-10.759000	25.431182	0.000893	20.771697
1053.294388	-2.989500	3.585700	-10.718000	25.424773	0.000894	20.765735
1054.295608	-2.996100	3.586200	-10.743000	25.430410	0.000894	20.775188
1055.296106	-2.999100	3.585800	-10.753000	25.414385	0.000892	20.784702
1056.296677	-3.026000	3.584300	-10.844000	25.422382	0.000891	20.769024
1057.297236	-2.997600	3.583400	-10.740000	25.462936	0.000893	20.762331
1058.297453	-2.989700	3.583700	-10.712000	25.442957	0.000890	20.783521
1059.296266	-2.986400	3.584800	-10.704000	25.463255	0.000889	20.774032
1060.297349	-2.977600	3.584900	-10.673000	25.438923	0.000891	20.766667
1061.297641	-2.988700	3.583600	-10.710000	25.430975	0.000892	20.777653
1062.300946	-2.994600	3.582300	-10.727000	25.451352	0.000891	20.760657
1063.298534	-2.998900	3.581900	-10.740000	25.471424	0.000889	20.782235
1064.299973	-2.990900	3.583500	-10.717000	25.487827	0.000888	20.779741
1065.298409	-2.983000	3.583100	-10.687000	25.510191	0.000888	20.776121
1066.301219	-2.984400	3.581700	-10.688000	25.537575	0.000889	20.777069
1067.299074	-3.006100	3.580600	-10.762000	25.578032	0.000887	20.794465
1068.298569	-3.005200	3.581500	-10.762000	25.589215	0.000885	20.759229
1069.305556	-3.011600	3.581500	-10.785000	25.566744	0.000885	20.785026
1070.305561	-3.010400	3.579300	-10.774000	25.556712	0.000885	20.798658
1071.302226	-2.986600	3.580800	-10.692000	25.525772	0.000884	20.774698
1072.302620	-3.018900	3.579200	-10.805000	25.556210	0.000884	20.783929
1073.300519	-3.011700	3.579400	-10.778000	25.534270	0.000886	20.779440
1074.307664	-3.022500	3.578500	-10.814000	25.524006	0.000884	20.791891
1075.308047	-3.025900	3.577000	-10.823000	25.518070	0.000883	20.776921
1076.307858	-3.043500	3.576900	-10.886000	25.468872	0.000883	20.789630
1077.309551	-2.982000	3.580500	-10.676000	25.472576	0.000883	20.783392
1078.308808	-2.994900	3.578200	-10.714000	25.466113	0.000881	20.793971
1079.306948	-3.002000	3.576900	-10.736000	25.439474	0.000881	20.767221
1080.311764	-3.015000	3.577400	-10.786000	25.415540	0.000880	20.795819
1081.307245	-3.004900	3.578200	-10.751000	25.390243	0.000880	20.777055
1082.312062	-3.024500	3.576200	-10.815000	25.438254	0.000881	20.789230
1083.308533	-2.994700	3.575800	-10.707000	25.457551	0.000881	20.787744
1084.312460	-2.997600	3.576900	-10.721000	25.455760	0.000879	20.794007
1085.308827	-2.995400	3.576100	-10.710000	25.476438	0.000879	20.799598
1086.308017	-3.017800	3.575700	-10.789000	25.523108	0.000876	20.799998
1087.306106	-3.031100	3.573800	-10.831000	25.513984	0.000877	20.788939
1088.306406	-2.997600	3.576400	-10.719000	25.521997	0.000876	20.808840
1089.307259	-2.995600	3.576600	-10.713000	25.496176	0.000877	20.800927
1090.311454	-3.022900	3.574000	-10.803000	25.475853	0.000876	20.813236
1091.311647	-2.987900	3.573700	-10.677000	25.458156	0.000875	20.786456
1092.310915	-3.008300	3.574200	-10.751000	25.455648	0.000876	20.787730
1093.312449	-2.987100	3.573700	-10.674000	25.453298	0.000872	20.808604
1094.308681	-2.994800	3.574000	-10.703000	25.461227	0.000872	20.807082
1095.308850	-3.008000	3.572800	-10.746000	25.464163	0.000870	20.792962
1096.315031	-3.010400	3.572500	-10.753000	25.487275	0.000871	20.791515
1097.311108	-2.984200	3.573500	-10.662000	25.473435	0.000870	20.801324
1098.312266	-2.996400	3.571800	-10.701000	25.516131	0.000873	20.793466
1099.311020	-2.993300	3.572900	-10.694000	25.517504	0.000871	20.798164
1100.312239	-3.005700	3.571500	-10.732000	25.510225	0.000873	20.799389
1101.316185	-3.001800	3.571800	-10.720000	25.513904	0.000870	20.808299
1102.317247	-3.010300	3.569900	-10.746000	25.481055	0.000870	20.814192
1103.312368	-3.008300	3.570500	-10.740000	25.470500	0.000868	20.795058
1104.311241	-2.994000	3.570000	-10.688000	25.471524	0.000868	20.801302
1105.312506	-3.003700	3.569900	-10.721000	25.468243	0.000868	20.804171
1106.313400	-3.008800	3.569900	-10.740000	25.479182	0.000868	20.804251
1107.314756	-2.989100	3.569300	-10.668000	25.514250	0.000868	20.792052
1108.314322	-3.019000	3.568000	-10.771000	25.539403	0.000866	20.788861
1109.314133	-3.002900	3.567700	-10.712000	25.562316	0.000869	20.813769
1110.315048	-3.006600	3.570200	-10.731000	25.601011	0.000866	20.812802
1111.314383	-3.010500	3.566300	-10.735000	25.564540	0.000865	20.805572
1112.315161	-3.026500	3.566200	-10.790000	25.605438	0.000865	20.793540
1113.315650	-2.992800	3.566900	-10.674000	25.603683	0.000863	20.804105
1114.315540	-3.008100	3.567300	-10.729000	25.612113	0.000864	20.798821
1115.315619	-2.996000	3.566000	-10.683000	25.623247	0.000861	20.806684
1116.314290	-2.994100	3.566800	-10.679000	25.647373	0.000863	20.790612
1117.315228	-2.971400	3.566900	-10.597000	25.639653	0.000862	20.806092
1118.315389	-2.995000	3.565600	-10.678000	25.683686	0.000863	20.815230
1119.319578	-3.005300	3.565700	-10.715000	25.698778	0.000861	20.806207
1120.315895	-2.999600	3.564500	-10.691000	25.667223	0.000860	20.787789
1121.315166	-3.013500	3.564000	-10.738000	25.651398	0.000861	20.807931
1122.317665	-2.996200	3.565100	-10.681000	25.624690	0.000859	20.806237
1123.319930	-3.025800	3.563200	-10.780000	25.657541	0.000859	20.794660
1124.317334	-2.995000	3.565300	-10.677000	25.693547	0.000859	20.804272
1125.319374	-2.999100	3.563300	-10.685000	25.674394	0.000857	20.812062
1126.319219	-3.011300	3.562700	-10.727000	25.626718	0.000857	20.830084
1127.317409	-3.020300	3.562100	-10.757000	25.629231	0.000857	20.816014
1128.320010	-3.017300	3.563200	-10.751000	25.646434	0.000857	20.824282
1129.321270	-2.994100	3.562900	-10.665000	25.677371	0.000857	20.812681
1130.324756	-2.998400	3.563700	-10.685000	25.687536	0.000857	20.788751
1131.320390	-2.994700	3.561600	-10.664000	25.668211	0.000853	20.840464
1132.318798	-2.985600	3.563100	-10.636000	25.643716	0.000854	20.828665
1133.320029	-2.979400	3.561800	-10.611000	25.604684	0.000852	20.800844
1134.322278	-2.987500	3.561000	-10.638000	25.590944	0.000851	20.818338
1135.319001	-3.024500	3.559600	-10.764000	25.551089	0.000854	20.835210
1136.323233	-2.994200	3.559500	-10.657000	25.510416	0.000851	20.836564
1137.317732	-3.014400	3.559600	-10.730000	25.515787	0.000851	20.812086
1138.321438	-2.982400	3.560000	-10.616000	25.529534	0.000851	20.802184
1139.319905	-3.012400	3.558700	-10.719000	25.565717	0.000851	20.813865
1140.320594	-2.988900	3.559700	-10.639000	25.590568	0.000852	20.813218
1141.321713	-3.006200	3.558000	-10.695000	25.577072	0.000849	20.843761
1142.324366	-3.008200	3.558400	-10.703000	25.549926	0.000849	20.833094
1143.324242	-3.002100	3.557000	-10.677000	25.566126	0.000849	20.826604
1144.324154	-3.020000	3.556900	-10.741000	25.567548	0.000847	20.815230
1145.327306	-3.010000	3.557600	-10.706000	25.560343	0.000847	20.832176
1146.324511	-2.998500	3.557000	-10.665000	25.549820	0.000845	20.811651
1147.324649	-2.995700	3.556900	-10.654000	25.584157	0.000845	20.825747
1148.324756	-3.004400	3.556200	-10.684000	25.615396	0.000846	20.827249
1149.325533	-2.994400	3.556400	-10.648000	25.624396	0.000846	20.839132
1150.326252	-2.982800	3.555300	-10.603000	25.668552	0.000845	20.837014
1151.325033	-2.998600	3.555800	-10.661000	25.654040	0.000843	20.836189
1152.326585	-2.977400	3.554800	-10.583000	25.678870	0.000843	20.824144
1153.325390	-2.999500	3.553600	-10.658000	25.653800	0.000843	20.823620
1154.324544	-2.993100	3.554600	-10.638000	25.635345	0.000843	20.827844
1155.327702	-2.994200	3.553300	-10.639000	25.638006	0.000844	20.822930
1156.326791	-2.975000	3.554300	-10.573000	25.622309	0.000840	20.829924
1157.325155	-2.993300	3.554900	-10.640000	25.633296	0.000840	20.822941
1158.324271	-2.965200	3.553600	-10.536000	25.616723	0.000841	20.845650
1159.326396	-2.995600	3.554300	-10.646000	25.639985	0.000839	20.834400
1160.326261	-2.998600	3.551900	-10.650000	25.617949	0.000838	20.840717
1161.329359	-3.000800	3.551800	-10.657000	25.631290	0.000839	20.819030
1162.325634	-3.006400	3.551600	-10.676000	25.663319	0.000839	20.832232
1163.329566	-3.013900	3.550300	-10.700000	25.671754	0.000836	20.831221
1164.327781	-3.006100	3.552600	-10.679000	25.663055	0.000836	20.852828
1165.325125	-3.015800	3.550700	-10.707000	25.682961	0.000835	20.851959
1166.329583	-2.976500	3.550700	-10.567000	25.707883	0.000837	20.842852
1167.328063	-2.966500	3.551600	-10.535000	25.735882	0.000836	20.833043
1168.327418	-3.002600	3.550700	-10.660000	25.701924	0.000836	20.847772
1169.328881	-2.998700	3.548200	-10.639000	25.666144	0.000837	20.859250
1170.330584	-2.995600	3.549900	-10.633000	25.634691	0.000835	20.848997
1171.331006	-3.003400	3.548900	-10.657000	25.614789	0.000833	20.840863
1172.332196	-3.000900	3.549100	-10.650000	25.600110	0.000834	20.837974
1173.330233	-2.999000	3.548500	-10.641000	25.577792	0.000832	20.854440
1174.332890	-2.979100	3.548700	-10.571000	25.575933	0.000833	20.849255
1175.331211	-2.977700	3.547700	-10.564000	25.619147	0.000833	20.845240
1176.333797	-2.998100	3.547600	-10.635000	25.632887	0.000831	20.840548
1177.332376	-2.997600	3.546300	-10.629000	25.625885	0.000831	20.851532
1178.332350	-2.989500	3.547300	-10.602000	25.598852	0.000828	20.849513
1179.330994	-3.003100	3.545500	-10.646000	25.577140	0.000831	20.840036
1180.331399	-2.976400	3.545600	-10.551000	25.575301	0.000829	20.852412
1181.333333	-3.022500	3.544600	-10.712000	25.558536	0.000827	20.859283
1182.332466	-3.014000	3.544200	-10.682000	25.567629	0.000830	20.868415
1183.332848	-3.004000	3.543600	-10.644000	25.585251	0.000828	20.860509
1184.331823	-3.005300	3.545200	-10.653000	25.603246	0.000829	20.869572
1185.333241	-2.989100	3.546300	-10.599000	25.623394	0.000827	20.846186
1186.333371	-2.986300	3.543800	-10.581000	25.665122	0.000827	20.850637
1187.336412	-3.002900	3.544400	-10.642000	25.667703	0.000826	20.841376
1188.333700	-3.002700	3.542000	-10.634000	25.699908	0.000826	20.861394
1189.336144	-3.020300	3.542500	-10.697000	25.682938	0.000825	20.848617
1190.335350	-3.014400	3.541300	-10.674000	25.709631	0.000825	20.843660
1191.335176	-2.997100	3.542700	-10.615000	25.718778	0.000825	20.860907
1192.340716	-2.980100	3.542800	-10.558000	25.733308	0.000822	20.856061
1193.334372	-2.982100	3.542900	-10.564000	25.729090	0.000823	20.863203
1194.337452	-2.996800	3.541100	-10.611000	25.757260	0.000824	20.842188
1195.335451	-3.019900	3.540100	-10.690000	25.798308	0.000820	20.869194
1196.336219	-2.994000	3.539900	-10.598000	25.774008	0.000821	20.866122
1197.340500	-2.990400	3.541100	-10.588000	25.768497	0.000821	20.868646
1198.339088	-3.007500	3.539600	-10.644000	25.725491	0.000822	20.877605
1199.339153	-2.995400	3.540900	-10.606000	25.715160	0.000819	20.862962
1200.337775	-3.025200	3.539000	-10.706000	25.730732	0.000820	20.868646
1201.338545	-3.038100	3.537500	-10.746000	25.733767	0.000818	20.852255
1202.339066	-2.995000	3.538800	-10.598000	25.768674	0.000820	20.867402
1203.341566	-2.988800	3.539000	-10.576000	25.765370	0.000817	20.858394
1204.339115	-2.979100	3.539200	-10.543000	25.774792	0.000817	20.870702
1205.342601	-2.976000	3.539200	-10.532000	25.790020	0.000816	20.862765
1206.338356	-3.016100	3.537400	-10.668000	25.778268	0.000816	20.868504
1207.338835	-3.001400	3.537800	-10.618000	25.793250	0.000816	20.857950
1208.343641	-2.962100	3.538900	-10.481000	25.808980	0.000816	20.867112
1209.339331	-2.972700	3.537400	-10.514000	25.829571	0.000815	20.881631
1210.339701	-3.005100	3.537100	-10.628000	25.817201	0.000816	20.868257
1211.342143	-2.989100	3.537800	-10.574000	25.832955	0.000814	20.869384
1212.341528	-3.000300	3.535400	-10.606000	25.828388	0.000813	20.885658
1213.342771	-3.009700	3.534600	-10.637000	25.834947	0.000812	20.872807
1214.346546	-3.000800	3.534200	-10.604000	25.817089	0.000813	20.871939
1215.344436	-2.990000	3.535700	-10.571000	25.855819	0.000812	20.881446
1216.343175	-3.014000	3.534200	-10.651000	25.829283	0.000813	20.882764
1217.347975	-3.014700	3.532000	-10.646000	25.825880	0.000814	20.898785
1218.344344	-2.994200	3.534400	-10.582000	25.866822	0.000811	20.883964
1219.346771	-2.988500	3.533600	-10.559000	25.863690	0.000809	20.875603
1220.345112	-3.010000	3.532100	-10.631000	25.865357	0.000808	20.858786
1221.346324	-2.994000	3.533100	-10.577000	25.845784	0.000808	20.877055
1222.345141	-3.031700	3.531600	-10.706000	25.820994	0.000807	20.871593
1223.345420	-3.019800	3.531000	-10.662000	25.818511	0.000807	20.845867
1224.348042	-3.006300	3.531400	-10.615000	25.849836	0.000805	20.864531
1225.347551	-3.001500	3.532900	-10.603000	25.854409	0.000805	20.877184
1226.348386	-3.016100	3.532600	-10.654000	25.865240	0.000808	20.870522
1227.347974	-3.025400	3.530700	-10.681000	25.832377	0.000805	20.872122
1228.347605	-3.017100	3.530700	-10.651000	25.841768	0.000806	20.866858
1229.347084	-3.003900	3.530100	-10.603000	25.831758	0.000805	20.880509
1230.348251	-2.997800	3.529300	-10.579000	25.854665	0.000805	20.863693
1231.348357	-2.996400	3.530000	-10.576000	25.881280	0.000804	20.866247
1232.349037	-2.989500	3.528700	-10.548000	25.902441	0.000803	20.867590
1233.349709	-2.995000	3.530100	-10.571000	25.879141	0.000802	20.844185
1234.349127	-2.997900	3.527600	-10.574000	25.895508	0.000800	20.853988
1235.352330	-3.017300	3.527200	-10.640000	25.846671	0.000800	20.860404
1236.350346	-2.987700	3.528200	-10.540000	25.838224	0.000800	20.863772
1237.355581	-2.996100	3.526100	-10.564000	25.802878	0.000800	20.871413
1238.350408	-3.005100	3.525400	-10.592000	25.773887	0.000798	20.853673
1239.351328	-2.999100	3.525800	-10.573000	25.797642	0.000799	20.854775
1240.355642	-3.011800	3.527000	-10.621000	25.800002	0.000800	20.847189
1241.352242	-3.012100	3.525200	-10.617000	25.822114	0.000797	20.844270
1242.351777	-2.993200	3.526900	-10.555000	25.826435	0.000796	20.850982
1243.352547	-3.003400	3.524500	-10.585000	25.816804	0.000797	20.829929
1244.352781	-2.982800	3.526300	-10.517000	25.766990	0.000796	20.858124
1245.353882	-3.002000	3.525500	-10.582000	25.747819	0.000795	20.842188
1246.352345	-3.010500	3.523200	-10.606000	25.765702	0.000795	20.835969
1247.353223	-3.007000	3.524700	-10.598000	25.763918	0.000795	20.841289
1248.355079	-2.999200	3.524200	-10.568000	25.753956	0.000795	20.838395
1249.355515	-2.975900	3.524700	-10.488000	25.752864	0.000793	20.841092
1250.357036	-2.999100	3.522900	-10.565000	25.757989	0.000792	20.838179
1251.356734	-2.995900	3.521700	-10.551000	25.791706	0.000792	20.846442
1252.355562	-3.002600	3.522000	-10.575000	25.752575	0.000792	20.838905
1253.356772	-3.003000	3.520700	-10.571000	25.731830	0.000791	20.860740
1254.356940	-2.999900	3.521300	-10.562000	25.744526	0.000792	20.841725
1255.356785	-2.997500	3.520500	-10.552000	25.748259	0.000791	20.832199
1256.359316	-3.011200	3.518900	-10.595000	25.757381	0.000789	20.833775
1257.358233	-3.025500	3.520200	-10.649000	25.786549	0.000789	20.836995
1258.359124	-2.984400	3.521000	-10.508000	25.802304	0.000787	20.839544
1259.358262	-2.993500	3.519100	-10.533000	25.809979	0.000788	20.844409
1260.358593	-3.016400	3.519900	-10.617000	25.833316	0.000787	20.851256
1261.363444	-2.973400	3.520500	-10.465000	25.837135	0.000788	20.836127
1262.363326	-3.001800	3.520200	-10.566000	25.839378	0.000788	20.838380
1263.364056	-3.014500	3.517900	-10.604000	25.864119	0.000788	20.848060
1264.361770	-2.993000	3.519700	-10.533000	25.885113	0.000788	20.828374
1265.361796	-3.005500	3.517700	-10.571000	25.884175	0.000787	20.835966
1266.362598	-2.978300	3.517600	-10.475000	25.863653	0.000787	20.827204
1267.366453	-2.993100	3.518900	-10.531000	25.841198	0.000785	20.836415
1268.362998	-3.001900	3.516200	-10.554000	25.837147	0.000786	20.840406
1269.368928	-3.025700	3.515100	-10.634000	25.861746	0.000785	20.808693
1270.365278	-3.011500	3.515400	-10.586000	25.859779	0.000784	20.830424
1271.364325	-2.994600	3.515500	-10.526000	25.843406	0.000782	20.835787
1272.368357	-3.017400	3.515000	-10.605000	25.826885	0.000784	20.836262
1273.364779	-3.034900	3.513200	-10.660000	25.834958	0.000785	20.831569
1274.366109	-3.011100	3.514000	-10.580000	25.832844	0.000783	20.813799
1275.365093	-3.006700	3.514600	-10.565000	25.829166	0.000781	20.842346
1276.364874	-3.005000	3.514900	-10.561000	25.791532	0.000780	20.817345
1277.364264	-3.001600	3.512200	-10.541000	25.780817	0.000780	20.839772
1278.369528	-2.979600	3.514500	-10.471000	25.763977	0.000780	20.820012
1279.369142	-2.987000	3.512500	-10.490000	25.755750	0.000779	20.815067
1280.368535	-2.996000	3.512700	-10.523000	25.763308	0.000780	20.824082
1281.368277	-2.990400	3.512900	-10.503000	25.763701	0.000779	20.841071
1282.369820	-3.016600	3.509600	-10.586000	25.768789	0.000778	20.830536
1283.369001	-3.001600	3.511800	-10.539000	25.760936	0.000778	20.827863
1284.368435	-2.986200	3.511200	-10.484000	25.773381	0.000779	20.827562
1285.368636	-2.973100	3.512800	-10.442000	25.784539	0.000777	20.841613
1286.371658	-3.008600	3.509600	-10.558000	25.793507	0.000777	20.814113
1287.367267	-2.975700	3.509700	-10.442000	25.797504	0.000776	20.834249
1288.367670	-2.992300	3.510800	-10.504000	25.774350	0.000774	20.819052
1289.368723	-3.003800	3.508700	-10.538000	25.777280	0.000774	20.812513
1290.375074	-3.001100	3.507500	-10.525000	25.801550	0.000775	20.818874
1291.370274	-3.001300	3.509200	-10.531000	25.752188	0.000772	20.821922
1292.369556	-3.006500	3.507400	-10.544000	25.767815	0.000773	20.831454
1293.372444	-2.998900	3.507300	-10.516000	25.797480	0.000772	20.829009
1294.370039	-2.994200	3.508200	-10.502000	25.794323	0.000772	20.825838
1295.370004	-3.006600	3.506900	-10.543000	25.785231	0.000771	20.814335
1296.370264	-3.013200	3.505800	-10.563000	25.800637	0.000771	20.810369
1297.370179	-2.976100	3.507200	-10.436000	25.821479	0.000771	20.814237
1298.370576	-2.997100	3.506500	-10.508000	25.802366	0.000771	20.833443
1299.373474	-2.988100	3.506000	-10.475000	25.814222	0.000771	20.825438
1300.369761	-3.015800	3.505200	-10.569000	25.799613	0.000772	20.800807
1301.371929	-2.994300	3.505200	-10.494000	25.782044	0.000770	20.822039
1302.370027	-3.007000	3.503800	-10.534000	25.772014	0.000770	20.819077
1303.372506	-3.005100	3.503400	-10.527000	25.816208	0.000769	20.817950
1304.375833	-2.994700	3.504300	-10.494000	25.817348	0.000767	20.825734
1305.374117	-3.010500	3.501300	-10.539000	25.830472	0.000768	20.814261
1306.373663	-3.004400	3.502800	-10.523000	25.834095	0.000766	20.829754
1307.372244	-3.003900	3.501100	-10.516000	25.792459	0.000765	20.808793
1308.373933	-3.000900	3.503000	-10.511000	25.779641	0.000765	20.820573
1309.377690	-3.009500	3.500600	-10.534000	25.747468	0.000766	20.807697
1310.375040	-2.999400	3.500100	-10.497000	25.721357	0.000764	20.798066
1311.374759	-3.030000	3.499200	-10.601000	25.692242	0.000763	20.826669
1312.375059	-2.989500	3.501800	-10.468000	25.683622	0.000763	20.825597
1313.376358	-2.998400	3.500700	-10.494000	25.712290	0.000763	20.804132
1314.378683	-3.013300	3.499400	-10.544000	25.741987	0.000762	20.802666
1315.375876	-2.986500	3.500900	-10.455000	25.772124	0.000763	20.839101
1316.375223	-3.001300	3.499000	-10.501000	25.787879	0.000760	20.798977
1317.377279	-3.004400	3.498600	-10.510000	25.783183	0.000762	20.790941
1318.375703	-3.008100	3.497400	-10.520000	25.774411	0.000760	20.804414
1319.379418	-3.002400	3.497800	-10.501000	25.747253	0.000758	20.810326
1320.375870	-2.997100	3.498300	-10.484000	25.752445	0.000760	20.818386
1321.387425	-3.003700	3.497600	-10.503000	25.759305	0.000757	20.805837
1322.376600	-3.008000	3.497000	-10.518000	25.754082	0.000759	20.792056
1323.375701	-3.000300	3.496500	-10.490000	25.756915	0.000758	20.805332
1324.379865	-3.002100	3.496300	-10.495000	25.738382	0.000758	20.790036
1325.378685	-2.991700	3.496300	-10.459000	25.792937	0.000757	20.799790
1326.378160	-2.997700	3.495300	-10.476000	25.769562	0.000756	20.796699
1327.382353	-2.990300	3.495900	-10.453000	25.754928	0.000755	20.806656
1328.379220	-2.987000	3.495700	-10.441000	25.717783	0.000755	20.797795
1329.379806	-3.003400	3.493200	-10.490000	25.727721	0.000753	20.800665
1330.381337	-2.989900	3.493900	-10.444000	25.769954	0.000754	20.808947
1331.385891	-3.000800	3.495300	-10.487000	25.778053	0.000755	20.784839
1332.384403	-3.007100	3.494200	-10.507000	25.789076	0.000754	20.796860
1333.381858	-3.001600	3.493100	-10.484000	25.818268	0.000752	20.814804
1334.382441	-3.007500	3.493400	-10.505000	25.844597	0.000753	20.812329
1335.388500	-3.011700	3.492100	-10.515000	25.871206	0.000751	20.799231
1336.383431	-2.992800	3.493000	-10.452000	25.878685	0.000751	20.802002
1337.384961	-2.999300	3.491200	-10.469000	25.870336	0.000750	20.802624
1338.383313	-3.000000	3.490600	-10.470000	25.864519	0.000752	20.792039
1339.383619	-3.012700	3.489400	-10.512000	25.887990	0.000750	20.781478
1340.384002	-2.996200	3.490800	-10.458000	25.911271	0.000751	20.794908
1341.386347	-2.993700	3.489700	-10.446000	25.916083	0.000749	20.785518
1342.384814	-2.995700	3.489500	-10.453000	25.909352	0.000747	20.803413
1343.383229	-2.999600	3.490800	-10.470000	25.893428	0.000749	20.784096
1344.385989	-3.017200	3.488600	-10.524000	25.869907	0.000750	20.802667
1345.384159	-2.995500	3.489500	-10.452000	25.901323	0.000747	20.817631
1346.389993	-3.021900	3.487400	-10.537000	25.885895	0.000747	20.804029
1347.384032	-3.000300	3.487000	-10.461000	25.843985	0.000747	20.797489
1348.385925	-2.991100	3.487700	-10.429000	25.839958	0.000745	20.790599
1349.386147	-2.994600	3.486300	-10.438000	25.808725	0.000748	20.802847
1350.385900	-3.005400	3.488100	-10.482000	25.791983	0.000747	20.807841
1351.390637	-2.997700	3.485800	-10.448000	25.822138	0.000747	20.786923
1352.384852	-3.010300	3.484500	-10.488000	25.847376	0.000745	20.774343
1353.386170	-2.995300	3.485600	-10.438000	25.877982	0.000745	20.771898
1354.386221	-2.992800	3.486800	-10.435000	25.849577	0.000745	20.787460
1355.388795	-2.991100	3.486400	-10.427000	25.831065	0.000744	20.789252
1356.389012	-3.013300	3.485400	-10.502000	25.790790	0.000742	20.789099
1357.388159	-3.019800	3.485200	-10.522000	25.770615	0.000742	20.789696
1358.390005	-3.026100	3.483000	-10.538000	25.796571	0.000743	20.795380
1359.387919	-2.988400	3.484300	-10.412000	25.807152	0.000741	20.772818
1360.388894	-2.985900	3.485200	-10.406000	25.792219	0.000740	20.803811
1361.391870	-2.999100	3.482600	-10.443000	25.770402	0.000742	20.779524
1362.391017	-2.994800	3.481900	-10.426000	25.776366	0.000741	20.778404
1363.389046	-3.006200	3.482400	-10.468000	25.767613	0.000742	20.789051
1364.390468	-3.021100	3.481200	-10.516000	25.766841	0.000738	20.806768
1365.392449	-2.979500	3.480500	-10.368000	25.828799	0.000738	20.784606
1366.391555	-3.016600	3.480300	-10.496000	25.831675	0.000738	20.780856
1367.393704	-2.994700	3.479900	-10.421000	25.855698	0.000736	20.779384
1368.391253	-2.986000	3.480200	-10.390000	25.881279	0.000736	20.782796
1369.395866	-2.999600	3.479900	-10.437000	25.871440	0.000737	20.805630
1370.392412	-3.003300	3.479100	-10.447000	25.895935	0.000737	20.784243
1371.391649	-2.977600	3.479300	-10.359000	25.902586	0.000735	20.793770
1372.397748	-2.977100	3.478700	-10.355000	25.917965	0.000735	20.776029
1373.391464	-3.012500	3.478000	-10.476000	25.876253	0.000735	20.789601
1374.392346	-2.995400	3.477700	-10.416000	25.860977	0.000734	20.787058
1375.392597	-3.001500	3.475500	-10.430000	25.837696	0.000733	20.778370
1376.393136	-2.973100	3.477800	-10.338000	25.849540	0.000733	20.787896
1377.395811	-2.980000	3.478000	-10.363000	25.880814	0.000732	20.785175
1378.394010	-3.016600	3.476300	-10.485000	25.900117	0.000732	20.784177
1379.400454	-2.993600	3.475900	-10.404000	25.910451	0.000733	20.781283
1380.394017	-3.006700	3.475700	-10.450000	25.911758	0.000731	20.773586
1381.393794	-2.994400	3.475900	-10.407000	25.947431	0.000730	20.753000
1382.398076	-2.982300	3.477200	-10.369000	25.950509	0.000732	20.772213
1383.398761	-2.998500	3.474500	-10.417000	25.977189	0.000730	20.768672
1384.393698	-2.983700	3.474700	-10.366000	26.007909	0.000729	20.768716
1385.394118	-3.018300	3.473500	-10.483000	26.039970	0.000729	20.778643
1386.394184	-2.999300	3.474100	-10.418000	26.016398	0.000728	20.775348
1387.395909	-3.005900	3.472000	-10.435000	26.042619	0.000728	20.769450
1388.397687	-3.009800	3.471200	-10.447000	26.061195	0.000728	20.781477
1389.397209	-3.005100	3.471800	-10.431000	26.059608	0.000729	20.777037
1390.400186	-3.000700	3.471100	-10.414000	26.024227	0.000728	20.760928
1391.396931	-3.002800	3.471200	-10.422000	26.002512	0.000726	20.777993
1392.398426	-2.976600	3.473300	-10.337000	25.987429	0.000727	20.778486
1393.401122	-2.991900	3.470500	-10.382000	25.927166	0.000726	20.788591
1394.397919	-3.003800	3.469300	-10.420000	25.895788	0.000725	20.779355
1395.397984	-3.007900	3.469300	-10.434000	25.846916	0.000725	20.765346
1396.398722	-2.995100	3.470300	-10.391000	25.838867	0.000722	20.778124
1397.400553	-3.002300	3.469500	-10.415000	25.852648	0.000725	20.763044
1398.399724	-3.005200	3.469700	-10.425000	25.843546	0.000724	20.791833
1399.403035	-3.015600	3.468400	-10.457000	25.901449	0.000723	20.766549
1400.400657	-2.999100	3.467600	-10.399000	25.894939	0.000723	20.781821
1401.400652	-2.990300	3.469200	-10.373000	25.892647	0.000722	20.756758
1402.399202	-3.013400	3.466700	-10.445000	25.913587	0.000723	20.775424
1403.400054	-3.027800	3.466400	-10.494000	25.888590	0.000724	20.770227
1404.402274	-3.015500	3.467200	-10.454000	25.856391	0.000721	20.760639
1405.401477	-3.026700	3.465900	-10.489000	25.845308	0.000720	20.771318
1406.401769	-3.006800	3.465500	-10.419000	25.854124	0.000720	20.765474
1407.401717	-3.021500	3.464400	-10.466000	25.877535	0.000720	20.752008
1408.403402	-3.008500	3.464400	-10.422000	25.907467	0.000719	20.765008
1409.407043	-2.982500	3.465600	-10.335000	25.891468	0.000718	20.777386
1410.407148	-2.993000	3.464900	-10.370000	25.960696	0.000717	20.781974
1411.407440	-3.005800	3.463600	-10.409000	25.953949	0.000719	20.778989
1412.407173	-3.011600	3.463600	-10.429000	25.949750	0.000717	20.758649
1413.411082	-2.998000	3.463200	-10.382000	25.907985	0.000718	20.769322
1414.406804	-2.981800	3.463100	-10.325000	25.891386	0.000716	20.779200
1415.406781	-3.000200	3.462500	-10.388000	25.882462	0.000716	20.791572
1416.407032	-3.010800	3.462100	-10.422000	25.887629	0.000715	20.765942
1417.409562	-3.012800	3.461700	-10.428000	25.897437	0.000714	20.762993
1418.406603	-2.994700	3.460100	-10.362000	25.900681	0.000715	20.772416
1419.407165	-3.009300	3.461900	-10.416000	25.918758	0.000713	20.793896
1420.412797	-2.994900	3.459900	-10.361000	25.934751	0.000713	20.777245
1421.408494	-2.998900	3.460400	-10.377000	25.960654	0.000713	20.780510
1422.422052	-2.996100	3.459300	-10.363000	25.946373	0.000713	20.771851
1423.408219	-3.003700	3.458700	-10.388000	25.922646	0.000713	20.782154
1424.408584	-2.997100	3.459700	-10.368000	25.905478	0.000714	20.770596
1425.409850	-3.009300	3.458400	-10.406000	25.891037	0.000710	20.759408
1426.411474	-2.996700	3.458200	-10.362000	25.886587	0.000712	20.772956
1427.410826	-3.005300	3.457600	-10.390000	25.894960	0.000710	20.772359
1428.412342	-3.025700	3.456400	-10.457000	25.880151	0.000710	20.776922
1429.410941	-3.001100	3.455200	-10.369000	25.890052	0.000710	20.774066
1430.410682	-3.000100	3.455000	-10.365000	25.891866	0.000706	20.762138
1431.412744	-2.995000	3.456400	-10.351000	25.918690	0.000708	20.765378
1432.410810	-3.007600	3.454300	-10.389000	25.946458	0.000707	20.779049
1433.414935	-2.999900	3.455700	-10.365000	25.959899	0.000705	20.784018
1434.409888	-3.016000	3.454300	-10.416000	25.987739	0.000707	20.781642
1435.412290	-2.994400	3.454700	-10.343000	25.999753	0.000705	20.784229
1436.413079	-2.983100	3.454600	-10.303000	26.010957	0.000705	20.772726
1437.410776	-2.997800	3.453700	-10.352000	26.046670	0.000704	20.761193
1438.411733	-3.009300	3.453100	-10.390000	26.054338	0.000704	20.784070
1439.411532	-3.012000	3.451200	-10.393000	26.058758	0.000704	20.761957
1440.411867	-3.001500	3.451800	-10.360000	26.059303	0.000702	20.757290
1441.414064	-2.995700	3.451200	-10.338000	26.055817	0.000702	20.777969
1442.412401	-3.024200	3.450300	-10.433000	26.016991	0.000702	20.765512
1443.416081	-2.981700	3.451200	-10.290000	26.022581	0.000700	20.798155
1444.415281	-2.976900	3.450800	-10.271000	26.009110	0.000701	20.773242
1445.414316	-3.003700	3.450400	-10.362000	26.036335	0.000701	20.786844
1446.415324	-3.015200	3.448400	-10.395000	26.042287	0.000700	20.780022
1447.418753	-2.984400	3.450400	-10.296000	26.055550	0.000700	20.754467
1448.414503	-3.007400	3.449400	-10.373000	26.051125	0.000699	20.769462
1449.415625	-3.001800	3.448400	-10.349000	26.044469	0.000699	20.786008
1450.415071	-2.993400	3.447300	-10.318000	26.046082	0.000697	20.750643
1451.415196	-3.010300	3.448600	-10.381000	25.991283	0.000698	20.775720
1452.418849	-3.005300	3.445800	-10.354000	26.000918	0.000697	20.770701
1453.415696	-2.986100	3.447800	-10.294000	26.013715	0.000695	20.760324
1454.419055	-3.011600	3.445300	-10.375000	25.981598	0.000697	20.764567
1455.415890	-3.019700	3.445600	-10.403000	25.983083	0.000695	20.784076
1456.417072	-2.997900	3.445500	-10.328000	25.982911	0.000693	20.765885
1457.418878	-3.017000	3.444900	-10.392000	26.004197	0.000694	20.782531
1458.419662	-3.006800	3.444100	-10.354000	26.021733	0.000693	20.754629
1459.421394	-3.005500	3.444600	-10.352000	26.018950	0.000693	20.772222
1460.416614	-3.029100	3.444600	-10.432000	26.054625	0.000693	20.765866
1461.416581	-2.996900	3.444700	-10.322000	26.074244	0.000690	20.773250
1462.416721	-3.010300	3.443800	-10.366000	26.058327	0.000692	20.779069
1463.421423	-2.984400	3.442900	-10.274000	26.066423	0.000691	20.776772
1464.418282	-3.006200	3.443800	-10.352000	26.038427	0.000693	20.777093
1465.424879	-2.980600	3.442600	-10.259000	26.020475	0.000690	20.789876
1466.421457	-2.962300	3.444000	-10.201000	25.990773	0.000689	20.779474
1467.421797	-3.001000	3.440800	-10.324000	25.988413	0.000691	20.774259
1468.426389	-2.996800	3.442000	-10.314000	25.974205	0.000690	20.781796
1469.421700	-2.982100	3.443300	-10.267000	25.982872	0.000688	20.807099
1470.422660	-3.001200	3.441300	-10.327000	25.971098	0.000687	20.780571
1471.424368	-3.008700	3.439200	-10.346000	25.969167	0.000688	20.780527
1472.423402	-3.005800	3.440400	-10.341000	25.971428	0.000687	20.771419
1473.425406	-3.017900	3.439200	-10.378000	25.989215	0.000688	20.770797
1474.429216	-3.013700	3.439200	-10.364000	25.986757	0.000687	20.770224
1475.426018	-3.008600	3.439200	-10.347000	25.971158	0.000686	20.776363
1476.426283	-2.966900	3.439800	-10.204000	25.950195	0.000684	20.788968
1477.425859	-3.004800	3.438900	-10.332000	25.932462	0.000683	20.786326
1478.427737	-2.988300	3.438500	-10.274000	25.906681	0.000683	20.765167
1479.431806	-2.997100	3.437100	-10.300000	25.905118	0.000684	20.777347
1480.430269	-3.001400	3.438400	-10.319000	25.907748	0.000682	20.798481
1481.428007	-2.997500	3.438300	-10.305000	25.918933	0.000681	20.766570
1482.425009	-3.006100	3.435800	-10.327000	25.927724	0.000684	20.779669
1483.428651	-2.996300	3.435600	-10.294000	25.937861	0.000682	20.796966
1484.427360	-3.008700	3.435200	-10.334000	25.952571	0.000682	20.781872
1485.428252	-2.994400	3.436400	-10.289000	25.954808	0.000680	20.785542
1486.427957	-3.006000	3.434800	-10.324000	25.967502	0.000679	20.796873
1487.428473	-3.010100	3.434700	-10.338000	25.955881	0.000678	20.773343
1488.430334	-3.009300	3.434600	-10.335000	25.913035	0.000679	20.771550
1489.428419	-3.013100	3.434200	-10.347000	25.922745	0.000679	20.791262
1490.431397	-2.996800	3.434900	-10.292000	25.957223	0.000680	20.785597
1491.430654	-2.985700	3.434000	-10.252000	25.951786	0.000678	20.789618
1492.429648	-2.993300	3.432600	-10.273000	25.944859	0.000678	20.786926
1493.429902	-3.009300	3.431800	-10.327000	25.949333	0.000677	20.769610
1494.431807	-2.972000	3.431200	-10.195000	25.978324	0.000678	20.777399
1495.430493	-2.998200	3.431100	-10.286000	25.974180	0.000675	20.775132
1496.431308	-3.013500	3.431100	-10.337000	25.979121	0.000676	20.782941
1497.430341	-2.990200	3.429200	-10.253000	25.952348	0.000676	20.763629
1498.429896	-2.995400	3.430500	-10.275000	25.981461	0.000674	20.797146
1499.435248	-2.991300	3.429500	-10.258000	26.011420	0.000675	20.790262
1500.431496	-2.996100	3.429800	-10.276000	26.013155	0.000675	20.791531
1501.432147	-3.027500	3.428100	-10.378000	26.011115	0.000673	20.782368
1502.431167	-3.013600	3.428300	-10.330000	26.028317	0.000674	20.773573
1503.432421	-3.004500	3.427900	-10.298000	26.005653	0.000672	20.785890
1504.434176	-3.004400	3.427500	-10.296000	26.012885	0.000674	20.786992
1505.433610	-3.018600	3.426900	-10.344000	26.060078	0.000671	20.790785
1506.432418	-2.988700	3.428800	-10.247000	26.070490	0.000673	20.811678
1507.433654	-3.013600	3.425100	-10.321000	26.050964	0.000670	20.799646
1508.432893	-2.984600	3.427900	-10.231000	26.085891	0.000670	20.796332
1509.434789	-3.007300	3.424800	-10.299000	26.091234	0.000669	20.796960
1510.435912	-3.020700	3.424500	-10.343000	26.112219	0.000670	20.795760
1511.435877	-3.008400	3.425500	-10.304000	26.098111	0.000671	20.793438
1512.436760	-3.016500	3.425800	-10.333000	26.108144	0.000666	20.785027
1513.435853	-2.991600	3.424800	-10.243000	26.099532	0.000668	20.797711
1514.437160	-3.026400	3.423600	-10.360000	26.141757	0.000668	20.808844
1515.440931	-2.999200	3.424000	-10.268000	26.163182	0.000666	20.809510
1516.438611	-2.985800	3.423700	-10.221000	26.149031	0.000666	20.782963
1517.440492	-3.012300	3.423000	-10.310000	26.145954	0.000666	20.796941
1518.439497	-2.983800	3.422100	-10.210000	26.132575	0.000664	20.793929
1519.441094	-2.991000	3.422700	-10.236000	26.092686	0.000666	20.813591
1520.442897	-2.981100	3.422600	-10.202000	26.072055	0.000665	20.801397
1521.440773	-3.013000	3.420000	-10.303000	26.068354	0.000665	20.801945
1522.439344	-2.991600	3.420000	-10.229000	26.087947	0.000664	20.815942
1523.439372	-2.998100	3.421400	-10.255000	26.132035	0.000662	20.794808
1524.439382	-3.004100	3.420600	-10.275000	26.099161	0.000662	20.801606
1525.441028	-3.001600	3.420600	-10.266000	26.074751	0.000661	20.783716
1526.449247	-2.975900	3.421300	-10.180000	26.100405	0.000662	20.803329
1527.443108	-3.004700	3.419600	-10.274000	26.125514	0.000661	20.812911
1528.447417	-2.983800	3.420700	-10.206000	26.137218	0.000661	20.805232
1529.442994	-2.991700	3.418400	-10.226000	26.151055	0.000663	20.796850
1530.443629	-2.976300	3.419500	-10.177000	26.135385	0.000659	20.810976
1531.447959	-3.013000	3.416300	-10.292000	26.137995	0.000659	20.788469
1532.444010	-2.983300	3.416600	-10.192000	26.125432	0.000659	20.793863
1533.446370	-2.998100	3.418100	-10.246000	26.117115	0.000659	20.794041
1534.444723	-2.960900	3.418700	-10.121000	26.152427	0.000658	20.802496
1535.445046	-2.984200	3.417000	-10.196000	26.144883	0.000659	20.805821
1536.448182	-3.002600	3.415000	-10.253000	26.154718	0.000659	20.813333
1537.451133	-2.982700	3.415600	-10.187000	26.173544	0.000658	20.794792
1538.449255	-3.016900	3.415000	-10.302000	26.191027	0.000656	20.826111
1539.449338	-2.991600	3.416100	-10.218000	26.215716	0.000656	20.810143
1540.450543	-2.983200	3.414900	-10.187000	26.248726	0.000656	20.812495
1541.449064	-2.992400	3.415200	-10.218000	26.253543	0.000654	20.802162
1542.450606	-3.011000	3.413100	-10.276000	26.229111	0.000655	20.804163
1543.449516	-2.993100	3.415200	-10.221000	26.252004	0.000655	20.805358
1544.452552	-2.995000	3.413500	-10.222000	26.190321	0.000654	20.798849
1545.449904	-2.995500	3.413000	-10.223000	26.205445	0.000656	20.805985
1546.452590	-3.007000	3.411200	-10.257000	26.216475	0.000652	20.822285
1547.453252	-2.957800	3.413900	-10.097000	26.191516	0.000653	20.800523
1548.450602	-3.016100	3.411700	-10.288000	26.190946	0.000653	20.800899
1549.450706	-2.995700	3.410400	-10.215000	26.211634	0.000651	20.787548
1550.453477	-2.992800	3.410300	-10.205000	26.222137	0.000650	20.821810
1551.453216	-3.004500	3.411200	-10.248000	26.238455	0.000652	20.813079
1552.455035	-2.991600	3.409900	-10.200000	26.272200	0.000650	20.784876
1553.454081	-3.005000	3.409800	-10.245000	26.236764	0.000650	20.793361
1554.452428	-2.982600	3.409800	-10.169000	26.264444	0.000649	20.808849
1555.454403	-2.989900	3.409700	-10.194000	26.273261	0.000651	20.826719
1556.453570	-2.971000	3.409100	-10.127000	26.290773	0.000647	20.839101
1557.454761	-3.017400	3.407800	-10.281000	26.300626	0.000648	20.807279
1558.458393	-2.984700	3.407900	-10.171000	26.314426	0.000647	20.809768
1559.457375	-2.996000	3.408000	-10.209000	26.320835	0.000646	20.808622
1560.455904	-3.009700	3.406800	-10.253000	26.346361	0.000647	20.835697
1561.457022	-2.991800	3.405200	-10.187000	26.373842	0.000645	20.814479
1562.455968	-3.009900	3.405300	-10.248000	26.366146	0.000646	20.819547
1563.461527	-2.984300	3.404800	-10.159000	26.373536	0.000647	20.821758
1564.459316	-2.996700	3.406400	-10.206000	26.383541	0.000645	20.822331
1565.458854	-3.014400	3.404600	-10.262000	26.360615	0.000644	20.839118
1566.456020	-3.005100	3.405400	-10.232000	26.345714	0.000644	20.816082
1567.456564	-3.008900	3.403900	-10.241000	26.325305	0.000643	20.801734
1568.459588	-3.006400	3.403300	-10.229000	26.325722	0.000643	20.840085
1569.461489	-2.992000	3.404200	-10.185000	26.317371	0.000642	20.811779
1570.457160	-3.009200	3.403600	-10.241000	26.305950	0.000641	20.828750
1571.458679	-3.006700	3.403500	-10.232000	26.305767	0.000641	20.822876
1572.456880	-2.997600	3.403100	-10.200000	26.296876	0.000640	20.849028
1573.457956	-2.991000	3.402500	-10.176000	26.276220	0.000641	20.834434
1574.461352	-2.976100	3.402100	-10.124000	26.290541	0.000641	20.844084
1575.457035	-2.989900	3.402500	-10.172000	26.296399	0.000640	20.825316
1576.461525	-2.988700	3.400900	-10.163000	26.275266	0.000641	20.833475
1577.458021	-3.003700	3.400600	-10.213000	26.256344	0.000639	20.836744
1578.457421	-2.981200	3.400700	-10.137000	26.249953	0.000640	20.851659
1579.460635	-3.022600	3.398200	-10.270000	26.245235	0.000639	20.834116
1580.457986	-2.990100	3.399100	-10.162000	26.255015	0.000638	20.825927
1581.458169	-2.979700	3.399400	-10.128000	26.284287	0.000638	20.834481
1582.458397	-3.010500	3.397700	-10.226000	26.297076	0.000637	20.837849
1583.459021	-2.982400	3.399300	-10.138000	26.284784	0.000637	20.859634
1584.460829	-2.992200	3.399200	-10.170000	26.292499	0.000635	20.833724
1585.463518	-3.013200	3.397200	-10.235000	26.292837	0.000635	20.845918
1586.458987	-2.993900	3.397200	-10.170000	26.281735	0.000635	20.840924
1587.460456	-2.995700	3.396300	-10.173000	26.276092	0.000636	20.849952
1588.459024	-3.015900	3.395700	-10.241000	26.284315	0.000634	20.838301
1589.459764	-2.991500	3.397300	-10.161000	26.303108	0.000635	20.861454
1590.461759	-2.985400	3.397800	-10.143000	26.304494	0.000634	20.862847
1591.461372	-3.003600	3.395200	-10.197000	26.316583	0.000632	20.835169
1592.461626	-2.998100	3.394800	-10.177000	26.313826	0.000634	20.852312
1593.459963	-2.993200	3.395300	-10.162000	26.298595	0.000630	20.841747
1594.460767	-3.000700	3.393100	-10.180000	26.248833	0.000633	20.825404
1595.462149	-2.988800	3.395000	-10.146000	26.245481	0.000631	20.872294
1596.462366	-2.970800	3.395600	-10.087000	26.254509	0.000631	20.850073
1597.461621	-2.985900	3.394000	-10.132000	26.209935	0.000629	20.845584
1598.459933	-3.020400	3.391800	-10.244000	26.207772	0.000629	20.853841
1599.464276	-2.987200	3.393500	-10.137000	26.259792	0.000630	20.853011
1600.461516	-2.998000	3.391900	-10.168000	26.267335	0.000629	20.860591
1601.463398	-2.996500	3.392700	-10.166000	26.310290	0.000627	20.847809
1602.465028	-2.988700	3.393200	-10.141000	26.286748	0.000629	20.865875
1603.467403	-3.000900	3.390800	-10.173000	26.290021	0.000627	20.852570
1604.464306	-3.008500	3.389300	-10.196000	26.301364	0.000626	20.856856
1605.463321	-2.977300	3.391700	-10.096000	26.292099	0.000626	20.847546
1606.467882	-3.031700	3.389000	-10.273000	26.291150	0.000626	20.857498
1607.464025	-2.985400	3.391100	-10.122000	26.285710	0.000627	20.865306
1608.464405	-3.002200	3.390200	-10.177000	26.298424	0.000626	20.869074
1609.465714	-2.982700	3.391400	-10.115000	26.329037	0.000625	20.858589
1610.464426	-3.001800	3.389800	-10.174000	26.339043	0.000623	20.846834
1611.465058	-3.002700	3.389900	-10.178000	26.355353	0.000624	20.874605
1612.466994	-2.994600	3.389300	-10.148000	26.388373	0.000623	20.870332
1613.465024	-2.998000	3.388300	-10.157000	26.393685	0.000619	20.886102
1614.466712	-3.017600	3.387000	-10.220000	26.400835	0.000622	20.859625
1615.466228	-3.015400	3.386500	-10.211000	26.372425	0.000622	20.883227
1616.468102	-3.000800	3.386400	-10.161000	26.304040	0.000618	20.886096
1617.469607	-2.985500	3.388700	-10.115000	26.243028	0.000618	20.861768
1618.467448	-2.998700	3.385600	-10.151000	26.223401	0.000619	20.884718
1619.469543	-2.998100	3.386100	-10.149000	26.202498	0.000616	20.862766
1620.467429	-2.981600	3.385800	-10.095000	26.233640	0.000618	20.858499
1621.467467	-3.011100	3.384000	-10.189000	26.263267	0.000618	20.867882
1622.468732	-2.995000	3.385300	-10.138000	26.293139	0.000617	20.871823
1623.466293	-2.993500	3.384100	-10.128000	26.312060	0.000616	20.878036
1624.467628	-3.016400	3.383500	-10.205000	26.316017	0.000616	20.854988
1625.467442	-3.020500	3.383600	-10.219000	26.342389	0.000616	20.890497
1626.469033	-3.009700	3.382800	-10.180000	26.373448	0.000615	20.858178
1627.467041	-3.021100	3.382800	-10.219000	26.396472	0.000615	20.886058
1628.468848	-3.005200	3.381300	-10.161000	26.421322	0.000613	20.872629
1629.470274	-2.990700	3.382400	-10.115000	26.446159	0.000612	20.884315
1630.468333	-3.027000	3.381200	-10.232000	26.442036	0.000613	20.883964
1631.470389	-2.999700	3.381600	-10.143000	26.442311	0.000612	20.872388
1632.470899	-2.992500	3.380200	-10.114000	26.429456	0.000611	20.876537
1633.476790	-2.986800	3.380800	-10.097000	26.464158	0.000609	20.872062
1634.469818	-3.012000	3.380400	-10.181000	26.428660	0.000610	20.885693
1635.470769	-3.013400	3.380800	-10.187000	26.402934	0.000611	20.875010
1636.473630	-3.020400	3.377900	-10.202000	26.369935	0.000610	20.886414
1637.472225	-2.998700	3.380800	-10.137000	26.387445	0.000610	20.885046
1638.477235	-3.002200	3.379000	-10.144000	26.386202	0.000611	20.880004
1639.474449	-2.984600	3.380400	-10.089000	26.326639	0.000608	20.900747
1640.474343	-2.997800	3.377100	-10.123000	26.316363	0.000607	20.861973
1641.473117	-2.980700	3.378900	-10.070000	26.306725	0.000608	20.877890
1642.474746	-2.991900	3.377800	-10.105000	26.327387	0.000606	20.914773
1643.475722	-3.006800	3.378100	-10.156000	26.338631	0.000605	20.890039
1644.474203	-3.003700	3.378600	-10.147000	26.345486	0.000607	20.881283
1645.475934	-3.002900	3.375700	-10.135000	26.374118	0.000606	20.896781
1646.475844	-2.979900	3.377200	-10.062000	26.383254	0.000605	20.886997
1647.475992	-3.002900	3.375500	-10.136000	26.391077	0.000605	20.886326
1648.478456	-3.011800	3.374600	-10.163000	26.360368	0.000607	20.902876
1649.478287	-2.993900	3.374600	-10.102000	26.339806	0.000605	20.892169
1650.478181	-3.011100	3.374700	-10.160000	26.377977	0.000603	20.887384
1651.479334	-2.986500	3.375100	-10.079000	26.357753	0.000603	20.888395
1652.480654	-3.003800	3.373700	-10.133000	26.376763	0.000602	20.913188
1653.479650	-2.993500	3.374700	-10.101000	26.374178	0.000602	20.895893
1654.480098	-3.017300	3.373100	-10.176000	26.393049	0.000600	20.882144
1655.478775	-3.022500	3.371400	-10.189000	26.418627	0.000603	20.899790
1656.481876	-2.973900	3.372700	-10.028000	26.423168	0.000602	20.906724
1657.480871	-2.961800	3.374100	-9.992500	26.410706	0.000601	20.897992
1658.480500	-2.976600	3.373400	-10.040000	26.371947	0.000601	20.903133
1659.483863	-3.011300	3.371700	-10.152000	26.384140	0.000599	20.914438
1660.484932	-3.005700	3.370500	-10.129000	26.393526	0.000599	20.920078
1661.483039	-3.016500	3.371300	-10.169000	26.399866	0.000599	20.899425
1662.495029	-3.000000	3.370600	-10.111000	26.418810	0.000598	20.893336
1663.482199	-2.999800	3.371100	-10.112000	26.424599	0.000599	20.893939
1664.483282	-3.001000	3.370300	-10.114000	26.414122	0.000596	20.900004
1665.485607	-2.966100	3.371700	-9.998800	26.434206	0.000596	20.895534
1666.482930	-2.994100	3.368800	-10.086000	26.442084	0.000596	20.906770
1667.489726	-2.991500	3.370200	-10.081000	26.457185	0.000594	20.904879
1668.487740	-3.006800	3.368400	-10.127000	26.469229	0.000595	20.901812
1669.485469	-3.006000	3.368000	-10.123000	26.469377	0.000595	20.918080
1670.493261	-3.005800	3.368700	-10.124000	26.464665	0.000594	20.908129
1671.487292	-3.011300	3.368100	-10.142000	26.500944	0.000594	20.901922
1672.486823	-3.012800	3.367100	-10.143000	26.492998	0.000592	20.901522
1673.487174	-2.997100	3.367500	-10.092000	26.508025	0.000591	20.891497
1674.487031	-3.025200	3.366100	-10.182000	26.485903	0.000592	20.899132
1675.489176	-3.005100	3.366200	-10.115000	26.465924	0.000592	20.901809
1676.490288	-3.019000	3.367200	-10.164000	26.470145	0.000591	20.890406
1677.488481	-2.972500	3.367300	-10.008000	26.450210	0.000589	20.897868
1678.488074	-3.016800	3.364700	-10.150000	26.461439	0.000590	20.896827
1679.487022	-3.012100	3.366200	-10.139000	26.493664	0.000591	20.892708
1680.488456	-3.032200	3.364100	-10.200000	26.463208	0.000590	20.892916
1681.489356	-2.980900	3.364500	-10.028000	26.478647	0.000590	20.865762
1682.488373	-3.005500	3.365100	-10.113000	26.467203	0.000588	20.886026
1683.488311	-3.026400	3.362800	-10.176000	26.483768	0.000589	20.900779
1684.491855	-3.005200	3.364000	-10.109000	26.517108	0.000588	20.899203
1685.488200	-3.004900	3.363900	-10.108000	26.530615	0.000588	20.881014
1686.489831	-2.992600	3.364100	-10.066000	26.522572	0.000587	20.887153
1687.489249	-2.995900	3.362200	-10.072000	26.510656	0.000585	20.884659
1688.488220	-2.999200	3.363300	-10.086000	26.535038	0.000587	20.877873
1689.488700	-2.983900	3.362900	-10.033000	26.522921	0.000584	20.893667
1690.488905	-3.012400	3.361400	-10.123000	26.483842	0.000583	20.863397
1691.489041	-2.987800	3.361700	-10.042000	26.461321	0.000586	20.879641
1692.492091	-3.017100	3.360000	-10.136000	26.471999	0.000584	20.874727
1693.489483	-3.017600	3.359500	-10.136000	26.452707	0.000582	20.859604
1694.488562	-3.006900	3.359600	-10.100000	26.429267	0.000583	20.870183
1695.489950	-2.993900	3.360100	-10.059000	26.429935	0.000581	20.906413
1696.489032	-3.025000	3.358600	-10.159000	26.445650	0.000582	20.874795
1697.491656	-2.993400	3.359500	-10.055000	26.459055	0.000582	20.858873
1698.493096	-2.996800	3.358400	-10.062000	26.494484	0.000579	20.879783
1699.491776	-3.017200	3.358300	-10.131000	26.509855	0.000582	20.848768
1700.490064	-3.014200	3.357600	-10.119000	26.501811	0.000578	20.837364
1701.490001	-3.003000	3.358000	-10.083000	26.507570	0.000577	20.877289
1702.494122	-2.993200	3.359000	-10.052000	26.502779	0.000577	20.882905
1703.490912	-3.010400	3.355400	-10.100000	26.508611	0.000577	20.861742
1704.493297	-2.982700	3.356000	-10.009000	26.504660	0.000576	20.873891
1705.492448	-2.984300	3.357900	-10.020000	26.506798	0.000578	20.871298
1706.491398	-3.001200	3.356100	-10.072000	26.481129	0.000575	20.850714
1707.491158	-2.984100	3.356100	-10.014000	26.486484	0.000576	20.870320
1708.497088	-2.996300	3.355800	-10.054000	26.466180	0.000575	20.865085
1709.492481	-3.005100	3.353600	-10.077000	26.471473	0.000572	20.871827
1710.493285	-2.989400	3.355900	-10.031000	26.494411	0.000574	20.861218
1711.501487	-2.983500	3.354200	-10.006000	26.507354	0.000573	20.852418
1712.493707	-3.015300	3.352400	-10.108000	26.530414	0.000573	20.859475
1713.498071	-3.001300	3.352300	-10.060000	26.539853	0.000571	20.843835
1714.494693	-3.004700	3.353400	-10.076000	26.564411	0.000573	20.842916
1715.493978	-2.970400	3.353300	-9.958900	26.569398	0.000571	20.847929
1716.496277	-2.995200	3.352800	-10.039000	26.590109	0.000570	20.855945
1717.496097	-3.013200	3.352100	-10.099000	26.604805	0.000570	20.844166
1718.496795	-3.011700	3.351900	-10.093000	26.613398	0.000571	20.853753
1719.495621	-3.001400	3.352600	-10.061000	26.607070	0.000569	20.841702
1720.495289	-2.994100	3.352200	-10.036000	26.616902	0.000566	20.842576
1721.497731	-2.996700	3.351200	-10.041000	26.602910	0.000568	20.837994
1722.498600	-3.012600	3.350800	-10.094000	26.590125	0.000567	20.838419
1723.499028	-3.005800	3.350400	-10.070000	26.608330	0.000565	20.842020
1724.501175	-2.988700	3.350300	-10.011000	26.620740	0.000567	20.834582
1725.497441	-3.004700	3.349900	-10.064000	26.621365	0.000565	20.864132
1726.499203	-2.995000	3.348900	-10.029000	26.602056	0.000568	20.841403
1727.500561	-3.006400	3.348300	-10.065000	26.591753	0.000564	20.838158
1728.499429	-3.015500	3.348000	-10.095000	26.557772	0.000563	20.841458
1729.502042	-3.009900	3.346900	-10.074000	26.532281	0.000564	20.844284
1730.500206	-3.021800	3.347300	-10.113000	26.510509	0.000561	20.836624
1731.504605	-3.022900	3.346300	-10.114000	26.500529	0.000563	20.837972
1732.502728	-3.010000	3.348100	-10.078000	26.480049	0.000563	20.842990
1733.516382	-3.003200	3.345800	-10.047000	26.484398	0.000561	20.834086
1734.502318	-3.010700	3.346100	-10.073000	26.472531	0.000562	20.828796
1735.502858	-2.999000	3.345400	-10.032000	26.476452	0.000560	20.829418
1736.500861	-3.000100	3.345400	-10.036000	26.458158	0.000559	20.832367
1737.501816	-2.985100	3.345300	-9.985100	26.442934	0.000559	20.830342
1738.505597	-2.986200	3.345900	-9.990800	26.462109	0.000559	20.839184
1739.504501	-2.998500	3.344500	-10.027000	26.495877	0.000558	20.831400
1740.505200	-3.001200	3.344900	-10.038000	26.511641	0.000559	20.814054
1741.501930	-2.984300	3.343900	-9.978400	26.522662	0.000558	20.831296
1742.505103	-2.975300	3.343500	-9.947000	26.561611	0.000558	20.840576
1743.501828	-2.963200	3.344000	-9.907800	26.568643	0.000557	20.805445
1744.500829	-2.955200	3.344200	-9.881500	26.609453	0.000556	20.832718
1745.505775	-2.980300	3.343700	-9.964500	26.609061	0.000557	20.829005
1746.504460	-2.995800	3.341600	-10.010000	26.623407	0.000555	20.822090
1747.503773	-2.994300	3.341200	-10.004000	26.635027	0.000554	20.806745
1748.503141	-3.013400	3.340100	-10.063000	26.630384	0.000555	20.835267
1749.502684	-2.968600	3.342300	-9.920600	26.602378	0.000555	20.800002
1750.503938	-2.998200	3.340000	-10.013000	26.587958	0.000553	20.822490
1751.505278	-2.969500	3.341000	-9.920600	26.592473	0.000554	20.830822
1752.503597	-2.992500	3.339000	-9.991200	26.568968	0.000552	20.814780
1753.503788	-3.000200	3.340300	-10.020000	26.568270	0.000554	20.835415
1754.504766	-3.010700	3.340100	-10.055000	26.522858	0.000552	20.809208
1755.504482	-2.993500	3.339000	-9.994100	26.486345	0.000551	20.817077
1756.506598	-2.996200	3.338300	-10.002000	26.463323	0.000551	20.822860
1757.503334	-2.993700	3.337200	-9.989300	26.435288	0.000550	20.829769
1758.505589	-3.003900	3.338000	-10.026000	26.419696	0.000550	20.815520
1759.503825	-3.017900	3.336400	-10.067000	26.413165	0.000548	20.828870
1760.504992	-2.998500	3.337000	-10.004000	26.400102	0.000549	20.839449
1761.507653	-2.995400	3.336200	-9.991300	26.400004	0.000548	20.822282
1762.509168	-2.997400	3.337000	-10.001000	26.399423	0.000549	20.845879
1763.506088	-2.983800	3.336300	-9.953900	26.426565	0.000546	20.807726
1764.507026	-2.966800	3.335700	-9.895400	26.472256	0.000546	20.826623
1765.506584	-2.982200	3.334600	-9.943700	26.511954	0.000545	20.826697
1766.509192	-3.001200	3.333400	-10.004000	26.531436	0.000546	20.808822
1767.506475	-3.001600	3.334400	-10.008000	26.553361	0.000546	20.814265
1768.508905	-2.958700	3.334700	-9.865000	26.581019	0.000545	20.833058
1769.506442	-3.018900	3.334300	-10.064000	26.596530	0.000545	20.815934
1770.508224	-2.992400	3.333400	-9.973400	26.540532	0.000545	20.812275
1771.517439	-3.007100	3.332300	-10.019000	26.473622	0.000543	20.815668
1772.507126	-3.002900	3.333000	-10.008000	26.428801	0.000544	20.802387
1773.508888	-2.991200	3.333300	-9.969100	26.412486	0.000543	20.804481
1774.510389	-2.996700	3.331500	-9.982100	26.437990	0.000541	20.815416
1775.507975	-2.992100	3.333300	-9.972500	26.445372	0.000544	20.807663
1776.509765	-3.001600	3.330900	-9.996900	26.459440	0.000544	20.825595
1777.510053	-3.030300	3.329200	-10.088000	26.426112	0.000542	20.799684
1778.509832	-3.009600	3.331200	-10.024000	26.476447	0.000540	20.816611
1779.509247	-2.983800	3.331400	-9.939000	26.500229	0.000539	20.793101
1780.509917	-3.018100	3.328300	-10.043000	26.518596	0.000543	20.813459
1781.510405	-3.022600	3.329200	-10.062000	26.538831	0.000540	20.798237
1782.510785	-3.026400	3.327900	-10.070000	26.543032	0.000539	20.806254
1783.512087	-2.994800	3.329000	-9.968500	26.490937	0.000538	20.813158
1784.509139	-2.995400	3.328600	-9.969700	26.517726	0.000537	20.809740
1785.511140	-3.000100	3.326800	-9.979500	26.554318	0.000538	20.818546
1786.509773	-3.009000	3.328700	-10.013000	26.582300	0.000535	20.810165
1787.512299	-3.011000	3.328300	-10.020000	26.560744	0.000535	20.798454
1788.511199	-3.024300	3.327500	-10.061000	26.553123	0.000536	20.801225
1789.512857	-3.004700	3.328400	-9.999900	26.529661	0.000534	20.815572
1790.510113	-3.025200	3.324700	-10.056000	26.530255	0.000534	20.810006
1791.511073	-3.015400	3.326300	-10.029000	26.507490	0.000536	20.802770
1792.511076	-3.007800	3.326600	-10.004000	26.503908	0.000533	20.805807
1793.511859	-3.007300	3.326000	-10.001000	26.503809	0.000531	20.816614
1794.512089	-3.005000	3.325400	-9.992000	26.530544	0.000532	20.805555
1795.511821	-2.982400	3.325800	-9.917000	26.561971	0.000535	20.795894
1796.513630	-3.005300	3.322700	-9.984200	26.549928	0.000532	20.788529
1797.512831	-2.983300	3.324400	-9.916700	26.520363	0.000533	20.791054
1798.513896	-2.988100	3.323200	-9.928100	26.482694	0.000530	20.804398
1799.514349	-2.996200	3.323400	-9.956800	26.460375	0.000528	20.802354
1800.515671	-3.019800	3.322600	-10.032000	26.479362	0.000531	20.809584
1801.513429	-2.982400	3.323300	-9.910800	26.476463	0.000530	20.826110
1802.511749	-3.008200	3.321600	-9.991700	26.480330	0.000528	20.808660
1803.515996	-2.961000	3.322800	-9.837900	26.475160	0.000529	20.793507
1804.516685	-3.000900	3.320700	-9.963700	26.462325	0.000529	20.788192
1805.512756	-2.988700	3.322100	-9.928500	26.441317	0.000528	20.784147
1806.514565	-2.958600	3.323400	-9.831400	26.434113	0.000525	20.796820
1807.514585	-2.985000	3.321900	-9.913400	26.447420	0.000526	20.811143
1808.514630	-2.972900	3.320800	-9.870600	26.478358	0.000527	20.782497
1809.520761	-3.021800	3.319300	-10.028000	26.490250	0.000527	20.797769
1810.513260	-3.011000	3.320300	-9.995400	26.478868	0.000525	20.800079
1811.519403	-3.003500	3.318900	-9.967600	26.461965	0.000524	20.788779
1812.514413	-2.994000	3.319900	-9.938400	26.442692	0.000523	20.804969
1813.513846	-3.017000	3.317700	-10.009000	26.407973	0.000523	20.788565
1814.518239	-2.979900	3.319900	-9.891300	26.414430	0.000524	20.798374
1815.513985	-3.011800	3.317800	-9.991500	26.419314	0.000522	20.791429
1816.514582	-3.007100	3.317300	-9.974500	26.473437	0.000521	20.794620
1817.515768	-3.010400	3.317100	-9.984800	26.492955	0.000520	20.811393
1818.514637	-2.997600	3.316100	-9.939500	26.538602	0.000520	20.782360
1819.515311	-3.022900	3.315600	-10.022000	26.541500	0.000520	20.788593
1820.517677	-2.985000	3.317200	-9.900100	26.541893	0.000517	20.778556
1821.525622	-3.015300	3.316400	-9.998600	26.542286	0.000518	20.781322
1822.514694	-3.006600	3.315800	-9.968200	26.558054	0.000517	20.784369
1823.515878	-3.007400	3.315200	-9.968500	26.565148	0.000517	20.780121
1824.516759	-2.992400	3.313600	-9.914100	26.562509	0.000517	20.792641
1825.515698	-3.008000	3.313400	-9.965400	26.549100	0.000518	20.788171
1826.516989	-2.982400	3.314300	-9.883000	26.505659	0.000516	20.790024
1827.519436	-3.000000	3.311900	-9.934100	26.478190	0.000513	20.787543
1828.517304	-2.997100	3.312700	-9.926600	26.510420	0.000514	20.765411
1829.517935	-3.003500	3.312200	-9.946800	26.533725	0.000515	20.785518
1830.521552	-2.966800	3.315100	-9.834200	26.548740	0.000513	20.780223
1831.519608	-3.004300	3.311400	-9.947400	26.565446	0.000513	20.776627
1832.523008	-3.010400	3.311400	-9.967200	26.496129	0.000514	20.788506
1833.520698	-3.040500	3.309700	-10.062000	26.470558	0.000513	20.791726
1834.522480	-3.015000	3.311600	-9.981800	26.471349	0.000512	20.791099
1835.522944	-3.007800	3.309800	-9.954600	26.525027	0.000510	20.763498
1836.524702	-3.006500	3.310500	-9.951800	26.552656	0.000510	20.768986
1837.522441	-3.024300	3.309800	-10.008000	26.592553	0.000510	20.783487
1838.522184	-3.008800	3.311700	-9.962700	26.630856	0.000512	20.774103
1839.522543	-3.007400	3.310800	-9.955200	26.671978	0.000509	20.772768
1840.522547	-2.995600	3.309100	-9.911200	26.671536	0.000507	20.769479
1841.526433	-3.002600	3.308300	-9.932000	26.684742	0.000508	20.787971
1842.521522	-2.994500	3.309100	-9.908700	26.703657	0.000506	20.770003
1843.523487	-3.013800	3.307300	-9.966200	26.709861	0.000508	20.790940
1844.525355	-2.990600	3.308300	-9.892200	26.729217	0.000506	20.775786
1845.523734	-3.003200	3.307100	-9.930300	26.721445	0.000505	20.772239
1846.525156	-2.996300	3.308600	-9.912900	26.746539	0.000503	20.780399
1847.525364	-2.972400	3.308700	-9.833800	26.761434	0.000505	20.775934
1848.528380	-2.951300	3.308200	-9.762200	26.782504	0.000504	20.795695
1849.526246	-2.997900	3.306200	-9.910400	26.783948	0.000503	20.763957
1850.526423	-2.964500	3.308200	-9.805400	26.775577	0.000504	20.766920
1851.527681	-3.001300	3.305800	-9.920100	26.782332	0.000502	20.744787
1852.526562	-2.997100	3.305000	-9.904300	26.795580	0.000501	20.775178
1853.527515	-3.007000	3.303400	-9.932800	26.797589	0.000502	20.768189
1854.530860	-2.996200	3.304600	-9.899900	26.763836	0.000499	20.790203
1855.527268	-2.983700	3.305600	-9.862200	26.740771	0.000500	20.796885
1856.530498	-3.026800	3.303800	-9.998100	26.778298	0.000499	20.785302
1857.531438	-3.007000	3.302900	-9.929000	26.752586	0.000499	20.763718
1858.530888	-2.991600	3.304100	-9.883700	26.767416	0.000497	20.782896
1859.534546	-3.004400	3.302400	-9.920800	26.738407	0.000497	20.795931
1860.530364	-3.023500	3.301700	-9.981300	26.756618	0.000496	20.765876
1861.531893	-2.997500	3.302100	-9.896200	26.749838	0.000498	20.767594
1862.536542	-2.997300	3.302200	-9.897100	26.780989	0.000494	20.762877
1863.533237	-3.003900	3.301200	-9.915600	26.785552	0.000495	20.776949
1864.532776	-2.984900	3.299900	-9.848300	26.775300	0.000495	20.752416
1865.535623	-3.009600	3.299100	-9.927400	26.769458	0.000494	20.779734
1866.534086	-3.015700	3.299200	-9.948100	26.809985	0.000492	20.774488
1867.535863	-3.021400	3.298100	-9.964200	26.784091	0.000495	20.785438
1868.533514	-3.014600	3.299200	-9.944600	26.743057	0.000494	20.773104
1869.535648	-3.009800	3.298300	-9.926000	26.741917	0.000491	20.765320
1870.534884	-2.989700	3.298200	-9.858900	26.732774	0.000493	20.751386
1871.532676	-3.011600	3.298400	-9.932300	26.726446	0.000492	20.770629
1872.536512	-3.014000	3.297100	-9.936000	26.736822	0.000492	20.781535
1873.533920	-2.982700	3.297700	-9.833900	26.746843	0.000493	20.772170
1874.538733	-2.988600	3.298300	-9.855100	26.740830	0.000492	20.780349
1875.533496	-3.006400	3.297200	-9.911600	26.747727	0.000491	20.762153
1876.536232	-3.008900	3.296800	-9.917700	26.761747	0.000490	20.773404
1877.540781	-3.016700	3.296300	-9.943200	26.783332	0.000490	20.765708
1878.535718	-2.996500	3.295400	-9.873800	26.771916	0.000488	20.776515
1879.536399	-2.986500	3.295300	-9.839600	26.774765	0.000488	20.763258
1880.538560	-2.993200	3.294400	-9.859800	26.762002	0.000488	20.789307
1881.535707	-3.009300	3.295200	-9.915500	26.787861	0.000487	20.763149
1882.537498	-3.010000	3.293200	-9.911300	26.777009	0.000485	20.774997
1883.540656	-3.004500	3.294200	-9.896900	26.780035	0.000486	20.779936
1884.537451	-2.995400	3.293200	-9.863600	26.764737	0.000484	20.762659
1885.538661	-3.008000	3.294700	-9.910200	26.725966	0.000486	20.792432
1886.541892	-2.984200	3.293000	-9.826200	26.735123	0.000482	20.781250
1887.537509	-3.010300	3.292600	-9.910700	26.721485	0.000484	20.778444
1888.539255	-3.009100	3.290600	-9.900300	26.729969	0.000484	20.773697
1889.541385	-3.004800	3.292400	-9.891700	26.713168	0.000481	20.780987
1890.539154	-2.998000	3.291700	-9.867400	26.757887	0.000481	20.766678
1891.539035	-3.026700	3.291200	-9.960400	26.749197	0.000482	20.750828
1892.539742	-2.990300	3.289700	-9.836500	26.745070	0.000480	20.799784
1893.540534	-2.976200	3.292400	-9.797300	26.740697	0.000480	20.787802
1894.540596	-3.004000	3.289500	-9.880800	26.737690	0.000480	20.772451
1895.539962	-2.981600	3.290600	-9.810100	26.740632	0.000480	20.777780
1896.540580	-2.998200	3.289500	-9.862300	26.786054	0.000479	20.771764
1897.539981	-3.004300	3.289500	-9.881900	26.793226	0.000478	20.784190
1898.539504	-2.976600	3.289800	-9.790700	26.788652	0.000477	20.778169
1899.543712	-2.985300	3.288400	-9.815600	26.771522	0.000477	20.777068
1900.540826	-3.014700	3.287500	-9.909500	26.791545	0.000478	20.774914
1901.546030	-3.013300	3.286300	-9.901600	26.782757	0.000475	20.791682
1902.541204	-3.017400	3.286700	-9.916400	26.748300	0.000476	20.784066
1903.540576	-2.976300	3.288100	-9.784000	26.703815	0.000475	20.801456
1904.551322	-3.004600	3.286200	-9.872100	26.713316	0.000476	20.779240
1905.546260	-3.010600	3.285800	-9.890700	26.719668	0.000474	20.771875
1906.543763	-3.014000	3.286500	-9.905200	26.681883	0.000473	20.781778
1907.545041	-2.996000	3.285700	-9.842800	26.685150	0.000472	20.767992
1908.543156	-3.004000	3.285200	-9.868000	26.687931	0.000472	20.796393
1909.542962	-2.997100	3.285500	-9.845300	26.721264	0.000471	20.779644
1910.548082	-2.992700	3.285800	-9.832600	26.731703	0.000471	20.794881
1911.544027	-2.988200	3.285700	-9.817100	26.737436	0.000469	20.786420
1912.546501	-2.993400	3.283900	-9.829000	26.747757	0.000470	20.792055
1913.545691	-2.998400	3.283700	-9.844700	26.767486	0.000469	20.785812
1914.545605	-2.993600	3.283300	-9.827700	26.744514	0.000469	20.795907
1915.550034	-3.013300	3.282800	-9.890100	26.762657	0.000469	20.770525
1916.546457	-2.998200	3.282800	-9.841900	26.808347	0.000467	20.800342
1917.548444	-3.003600	3.282100	-9.856200	26.821247	0.000466	20.795768
1918.547465	-3.017600	3.282200	-9.903300	26.859365	0.000467	20.782413
1919.546975	-3.011000	3.281300	-9.879200	26.861222	0.000465	20.808936
1920.553807	-2.996200	3.281200	-9.830600	26.891666	0.000466	20.785969
1921.547881	-3.025600	3.280300	-9.924300	26.900174	0.000465	20.798790
1922.547885	-3.002400	3.280000	-9.847400	26.890020	0.000465	20.800909
1923.548435	-3.012900	3.279600	-9.879100	26.903347	0.000465	20.784437
1924.548301	-3.001600	3.279900	-9.843500	26.912394	0.000463	20.778836
1925.547892	-3.003300	3.279200	-9.847400	26.927006	0.000462	20.803961
1926.548957	-3.015600	3.278200	-9.884300	26.916230	0.000462	20.774158
1927.548373	-3.001900	3.278900	-9.841200	26.902850	0.000462	20.783463
1928.549355	-3.005700	3.277300	-9.849700	26.816598	0.000460	20.781137
1929.549524	-2.991800	3.278200	-9.806700	26.788789	0.000458	20.802963
1930.547988	-2.990900	3.277500	-9.801700	26.769925	0.000459	20.793954
1931.551651	-3.010300	3.278000	-9.866200	26.712481	0.000459	20.823445
1932.546660	-3.002100	3.276600	-9.835100	26.727268	0.000457	20.799905
1933.551405	-3.001100	3.276900	-9.831500	26.714701	0.000456	20.793435
1934.548997	-2.978700	3.277400	-9.761700	26.721220	0.000457	20.807575
1935.549865	-3.011600	3.274800	-9.859800	26.709582	0.000455	20.784969
1936.552639	-3.011800	3.275400	-9.862900	26.758552	0.000454	20.798640
1937.554857	-2.989600	3.275600	-9.791200	26.801590	0.000453	20.807773
1938.553357	-2.992000	3.274000	-9.795000	26.863980	0.000453	20.802700
1939.552738	-3.015100	3.275600	-9.875600	26.864397	0.000451	20.800275
1940.553998	-2.997600	3.273200	-9.810300	26.840421	0.000452	20.800349
1941.553726	-3.014300	3.273200	-9.865500	26.818552	0.000451	20.796378
1942.554933	-2.974900	3.273200	-9.735600	26.842126	0.000449	20.804908
1943.554202	-3.008300	3.273300	-9.845300	26.846267	0.000448	20.823770
1944.554976	-2.998100	3.272900	-9.810200	26.836260	0.000447	20.821295
1945.553516	-3.008100	3.271700	-9.840200	26.822536	0.000447	20.806547
1946.554095	-3.001600	3.271200	-9.818000	26.874997	0.000446	20.804295
1947.557078	-2.994700	3.272600	-9.799700	26.866357	0.000445	20.806987
1948.555304	-3.006000	3.270900	-9.831200	26.868666	0.000445	20.805989
1949.558375	-3.000800	3.271600	-9.815600	26.886354	0.000444	20.814292
1950.554738	-3.006000	3.270100	-9.828700	26.901492	0.000444	20.812919
1951.556521	-3.020100	3.267700	-9.867500	26.955591	0.000444	20.789557
1952.560790	-3.002700	3.270300	-9.817700	26.954230	0.000444	20.825172
1953.557781	-3.008600	3.267800	-9.830700	26.978327	0.000441	20.792980
1954.563266	-3.024400	3.268400	-9.883600	26.964525	0.000443	20.799963
1955.558603	-3.003900	3.267200	-9.813300	26.954599	0.000441	20.828862
1956.559345	-3.004700	3.268200	-9.819400	26.940374	0.000441	20.804127
1957.561346	-2.976800	3.269300	-9.731200	26.935856	0.000439	20.832773
1958.562706	-2.976200	3.268100	-9.725200	26.956902	0.000438	20.810316
1959.561634	-3.014500	3.265300	-9.841800	26.940148	0.000440	20.808641
1960.561798	-3.013300	3.266400	-9.841700	26.968813	0.000437	20.831301
1961.560803	-2.994400	3.265700	-9.777900	27.003852	0.000438	20.810113
1962.562543	-2.981800	3.265700	-9.737300	27.016356	0.000437	20.798032
1963.563425	-2.977200	3.267300	-9.726700	27.048521	0.000434	20.797188
1964.559188	-2.995200	3.266100	-9.781500	27.044420	0.000437	20.814874
1965.568028	-2.995000	3.265800	-9.779100	27.083233	0.000435	20.821191
1966.560617	-3.024600	3.262700	-9.867300	27.059134	0.000433	20.820189
1967.561988	-2.990600	3.265800	-9.765800	27.071696	0.000433	20.808167
1968.566007	-3.024500	3.261700	-9.863800	27.107424	0.000430	20.828926
1969.562082	-3.004900	3.262600	-9.802700	27.096979	0.000431	20.809886
1970.561211	-2.994800	3.262900	-9.769800	27.109880	0.000431	20.828076
1971.563167	-2.976900	3.263300	-9.713400	27.146225	0.000429	20.839026
1972.565156	-2.995100	3.262800	-9.771500	27.135485	0.000428	20.823009
1973.566032	-2.963500	3.263100	-9.669500	27.099950	0.000430	20.835633
1974.565363	-2.997800	3.263200	-9.780900	27.069152	0.000430	20.840695
1975.565061	-3.016800	3.259700	-9.833000	27.063647	0.000428	20.821409
1976.563624	-3.006100	3.260400	-9.800500	27.054635	0.000427	20.812820
1977.563756	-2.977600	3.260700	-9.707600	27.054011	0.000426	20.824520
1978.563081	-3.008500	3.259300	-9.804200	27.045102	0.000425	20.836423
1979.565114	-3.014700	3.258000	-9.820100	26.999515	0.000426	20.819502
1980.564786	-3.009600	3.257900	-9.804000	27.026636	0.000427	20.817853
1981.565143	-2.957500	3.259900	-9.638900	27.049341	0.000424	20.813185
1982.565293	-2.988100	3.258600	-9.735500	27.073160	0.000423	20.825286
1983.564634	-3.000400	3.258400	-9.775000	27.088414	0.000423	20.810281
1984.566397	-2.982600	3.258900	-9.718700	27.085791	0.000422	20.815704
1985.567498	-2.990000	3.256900	-9.737300	27.105563	0.000421	20.838433
1986.566023	-2.998000	3.256200	-9.759900	27.128880	0.000420	20.815418
1987.567903	-2.996100	3.256500	-9.755700	27.130122	0.000420	20.839426
1988.568479	-3.009200	3.256900	-9.800600	27.100868	0.000419	20.819961
1989.567506	-2.984400	3.256200	-9.716600	27.068534	0.000419	20.833909
1990.568653	-2.967700	3.256900	-9.664800	27.059050	0.000416	20.847131
1991.567249	-3.008600	3.254500	-9.791100	27.081582	0.000417	20.840868
1992.570827	-3.005500	3.255100	-9.782100	27.146024	0.000418	20.837401
1993.567182	-3.004100	3.253800	-9.774200	27.126744	0.000415	20.850252
1994.569081	-3.009800	3.253500	-9.791500	27.179245	0.000414	20.849002
1995.573536	-3.027500	3.253900	-9.849800	27.179638	0.000416	20.813837
1996.571774	-2.991000	3.253100	-9.729200	27.191276	0.000414	20.850672
1997.573417	-3.014200	3.252400	-9.802300	27.212681	0.000414	20.839485
1998.569172	-3.035900	3.250700	-9.868300	27.197370	0.000411	20.849215
1999.570214	-3.012100	3.249800	-9.787800	27.193009	0.000411	20.840562
2000.571064	-2.966600	3.252400	-9.646400	27.197178	0.000410	20.838117
2001.572861	-3.030300	3.251000	-9.849700	27.228689	0.000411	20.850845
2002.572699	-3.004100	3.251200	-9.763900	27.221343	0.000410	20.839189
2003.570978	-3.007600	3.249900	-9.773000	27.196609	0.000409	20.833751
2004.572784	-3.016600	3.249000	-9.800200	27.162637	0.000408	20.845575
2005.574641	-2.987300	3.250000	-9.707700	27.122795	0.000407	20.839643
2006.577299	-3.003400	3.249500	-9.758100	27.096890	0.000406	20.843461
2007.572658	-3.008900	3.247100	-9.768100	27.057189	0.000406	20.856638
2008.572653	-2.999000	3.248600	-9.741100	27.037883	0.000405	20.842913
2009.573220	-2.995100	3.247800	-9.726400	26.997884	0.000404	20.835406
2010.574132	-2.999300	3.247600	-9.739600	27.006347	0.000403	20.870467
2011.574679	-2.982600	3.246900	-9.682800	27.003665	0.000404	20.837426
2012.574564	-2.998400	3.246200	-9.732600	27.036891	0.000402	20.857087
2013.574931	-2.992100	3.246500	-9.712900	27.071608	0.000400	20.822777
2014.574098	-2.978200	3.246600	-9.668400	27.106349	0.000401	20.839698
2015.574846	-3.010500	3.246000	-9.770900	27.146819	0.000400	20.860011
2016.579200	-2.996500	3.245300	-9.723500	27.179795	0.000400	20.854771
2017.577232	-3.024200	3.242600	-9.804700	27.130172	0.000400	20.846113
2018.575046	-2.993100	3.243900	-9.707800	27.094886	0.000400	20.858515
2019.575132	-3.000100	3.242600	-9.726300	27.056575	0.000397	20.857917
2020.576431	-2.991600	3.245100	-9.706800	27.047243	0.000398	20.855645
2021.577207	-2.996400	3.242000	-9.712600	27.043344	0.000398	20.860258
2022.580052	-2.999000	3.242700	-9.723400	27.081656	0.000396	20.867019
2023.575408	-3.005100	3.242000	-9.741100	27.088428	0.000397	20.852020
2024.579747	-3.003500	3.242500	-9.737500	27.111628	0.000393	20.855912
2025.576501	-2.997900	3.241900	-9.717300	27.133015	0.000394	20.845654
2026.574891	-2.994900	3.241900	-9.708600	27.108500	0.000393	20.858930
2027.582197	-2.992200	3.240300	-9.694200	27.129067	0.000392	20.854485
2028.582013	-3.012000	3.240300	-9.758600	27.136011	0.000391	20.858623
2029.575404	-2.980200	3.240600	-9.656000	27.174344	0.000392	20.865409
2030.576365	-3.024400	3.238500	-9.793600	27.219870	0.000389	20.862362
2031.577018	-3.011900	3.239900	-9.756800	27.259590	0.000390	20.861063
2032.578850	-2.972300	3.239500	-9.627600	27.282933	0.000388	20.854198
2033.576223	-3.002700	3.236600	-9.717000	27.297840	0.000390	20.867770
2034.577380	-2.968800	3.239800	-9.617500	27.304709	0.000387	20.849551
2035.578913	-3.002700	3.237900	-9.721300	27.287308	0.000387	20.870452
2036.578629	-2.970900	3.239400	-9.623000	27.335814	0.000386	20.859977
2037.579673	-3.000100	3.237000	-9.709500	27.356106	0.000387	20.858105
2038.583091	-2.981900	3.237800	-9.654100	27.302018	0.000385	20.876714
2039.581342	-2.993000	3.235100	-9.681600	27.281175	0.000384	20.878981
2040.582573	-2.957700	3.235200	-9.567500	27.269788	0.000385	20.866580
2041.582097	-2.997000	3.233800	-9.690700	27.272759	0.000383	20.886636
2042.580620	-3.015800	3.235300	-9.755700	27.303349	0.000384	20.868570
2043.586549	-3.003700	3.233900	-9.712100	27.315006	0.000382	20.876502
2044.582758	-3.025000	3.232700	-9.777700	27.317461	0.000380	20.876601
2045.586162	-2.983300	3.233700	-9.645900	27.338348	0.000382	20.871060
2046.583257	-2.991400	3.234500	-9.674400	27.357177	0.000381	20.855389
2047.584375	-3.016200	3.233400	-9.751900	27.400878	0.000381	20.886073
2048.587435	-2.996000	3.233100	-9.685800	27.420517	0.000381	20.884019
2049.586634	-2.998200	3.232000	-9.689100	27.422579	0.000378	20.871396
2050.586297	-2.984000	3.230600	-9.638300	27.452065	0.000379	20.897265
2051.586411	-3.001200	3.231400	-9.696700	27.476425	0.000378	20.880048
2052.586287	-3.006100	3.230900	-9.711100	27.429167	0.000375	20.884661
2053.589826	-2.984200	3.230900	-9.640500	27.389150	0.000376	20.885654
2054.587776	-3.010200	3.230000	-9.720500	27.340950	0.000375	20.882686
2055.588403	-3.002600	3.229600	-9.696300	27.267015	0.000374	20.882755
2056.589118	-3.012800	3.228500	-9.725600	27.249451	0.000374	20.866986
2057.589421	-3.023300	3.227500	-9.756600	27.247855	0.000374	20.875337
2058.588740	-3.008600	3.228000	-9.711200	27.268792	0.000374	20.895922
2059.590775	-3.007900	3.228300	-9.708800	27.263632	0.000372	20.899265
2060.590123	-3.013900	3.224900	-9.718900	27.300193	0.000369	20.889102
2061.588325	-3.007500	3.225800	-9.700900	27.288359	0.000370	20.883837
2062.588732	-3.012500	3.226100	-9.717400	27.275799	0.000370	20.896806
2063.591037	-3.000500	3.225900	-9.678500	27.252201	0.000369	20.886820
2064.590821	-3.026700	3.223500	-9.755300	27.241035	0.000370	20.896925
2065.588233	-2.992200	3.225200	-9.649900	27.221354	0.000367	20.905103
2066.591722	-3.007500	3.226100	-9.702100	27.222400	0.000369	20.897147
2067.588213	-2.999700	3.224600	-9.670800	27.269515	0.000366	20.910397
2068.589186	-2.998900	3.224100	-9.668200	27.278633	0.000365	20.893019
2069.599877	-3.035900	3.221400	-9.777800	27.303665	0.000363	20.904921
2070.591167	-3.022100	3.222000	-9.735800	27.314084	0.000364	20.886006
2071.589377	-3.031500	3.221700	-9.764900	27.298598	0.000362	20.901247
2072.588741	-3.009200	3.221400	-9.692300	27.317997	0.000360	20.895631
2073.589770	-2.994400	3.220700	-9.642500	27.346721	0.000362	20.892757
2074.588120	-2.998100	3.221900	-9.658400	27.365840	0.000360	20.895395
2075.592732	-2.996400	3.220200	-9.648300	27.410096	0.000360	20.907198
2076.589604	-2.989200	3.221400	-9.627400	27.396771	0.000358	20.898536
2077.594079	-2.997500	3.220800	-9.653100	27.412698	0.000356	20.920246
2078.591046	-3.006600	3.219000	-9.676000	27.446799	0.000358	20.911880
2079.590639	-2.982400	3.220600	-9.603400	27.492210	0.000357	20.897825
2080.593052	-3.003700	3.218500	-9.666500	27.478027	0.000354	20.923856
2081.592465	-2.988600	3.219800	-9.622100	27.485087	0.000355	20.914839
2082.593275	-2.986300	3.218200	-9.608800	27.527055	0.000354	20.913441
2083.595256	-3.012200	3.218300	-9.693400	27.551139	0.000354	20.907801
2084.596231	-3.005300	3.217700	-9.668900	27.578094	0.000354	20.903628
2085.593432	-2.990000	3.217100	-9.617400	27.581289	0.000355	20.916800
2086.595654	-2.989700	3.216800	-9.616500	27.610702	0.000353	20.926954
2087.590901	-3.001000	3.215500	-9.648900	27.665437	0.000349	20.919916
2088.593813	-2.996800	3.219000	-9.645900	27.629350	0.000352	20.915847
2089.592883	-2.991000	3.214800	-9.614600	27.631231	0.000351	20.933384
2090.593468	-3.012700	3.213700	-9.681100	27.566377	0.000350	20.924554
2091.597932	-2.979100	3.213100	-9.570900	27.547021	0.000347	20.903659
2092.593807	-3.012500	3.211300	-9.672700	27.500263	0.000346	20.905452
2093.595196	-3.002200	3.212600	-9.643100	27.514828	0.000346	20.932905
2094.595162	-2.998500	3.212800	-9.632900	27.503365	0.000346	20.926589
2095.596378	-3.022700	3.212700	-9.710600	27.480223	0.000345	20.938392
2096.596426	-3.000900	3.212900	-9.640500	27.459379	0.000344	20.907467
2097.595909	-2.998800	3.212400	-9.631800	27.478501	0.000344	20.922910
2098.599122	-3.005300	3.210000	-9.645800	27.520425	0.000345	20.922416
2099.596090	-3.017900	3.211000	-9.689100	27.516178	0.000340	20.916722
2100.598269	-3.002500	3.209400	-9.636100	27.482943	0.000343	20.934965
2101.598349	-2.999800	3.211000	-9.632200	27.485393	0.000342	20.931740
2102.600385	-2.988800	3.210600	-9.595100	27.496508	0.000342	20.930594
2103.596650	-2.988700	3.208500	-9.588300	27.535024	0.000339	20.935207
2104.599732	-3.006300	3.208900	-9.645600	27.554297	0.000340	20.944640
2105.600844	-2.981100	3.208600	-9.563900	27.574585	0.000337	20.932338
2106.596696	-2.989000	3.206400	-9.583000	27.596979	0.000339	20.953445
2107.601509	-3.022200	3.205400	-9.686400	27.639586	0.000338	20.932308
2108.598192	-2.997100	3.205800	-9.606900	27.605039	0.000337	20.928841
2109.601480	-2.993500	3.205700	-9.595300	27.562829	0.000337	20.941370
2110.600566	-3.018300	3.204700	-9.671700	27.507288	0.000336	20.928639
2111.601158	-3.002200	3.205000	-9.621100	27.505879	0.000333	20.928644
2112.601381	-2.994400	3.203700	-9.592300	27.487872	0.000334	20.935182
2113.603925	-3.009300	3.203700	-9.640200	27.531127	0.000334	20.918959
2114.600739	-2.991000	3.205000	-9.585200	27.542786	0.000334	20.932585
2115.598685	-2.967900	3.203900	-9.507700	27.567173	0.000332	20.950956
2116.600832	-2.983100	3.202400	-9.552700	27.569328	0.000331	20.935582
2117.599680	-2.986800	3.202900	-9.566000	27.593361	0.000330	20.938427
2118.603763	-3.002300	3.202600	-9.613900	27.608593	0.000330	20.930046
2119.604978	-3.002500	3.202300	-9.614100	27.595271	0.000330	20.923755
2120.602905	-2.996600	3.201200	-9.591500	27.619181	0.000329	20.925527
2121.601631	-3.011700	3.200600	-9.638100	27.668540	0.000327	20.898385
2122.602815	-3.027100	3.199600	-9.684700	27.675137	0.000327	20.906919
2123.602449	-2.993600	3.201200	-9.582600	27.646226	0.000326	20.918603
2124.601638	-2.974400	3.200500	-9.518000	27.599673	0.000326	20.906849
2125.602880	-3.016800	3.199100	-9.649300	27.596920	0.000323	20.913087
2126.602089	-2.989600	3.199600	-9.564800	27.619244	0.000324	20.910420
2127.603357	-2.994200	3.198700	-9.576600	27.653839	0.000322	20.902083
2128.603617	-2.982700	3.199000	-9.540500	27.671426	0.000322	20.924993
2129.604834	-3.007800	3.197100	-9.615500	27.687898	0.000321	20.915966
2130.606130	-3.006000	3.197100	-9.609200	27.686534	0.000320	20.897525
2131.605561	-2.995000	3.197600	-9.576400	27.684826	0.000318	20.909081
2132.604793	-3.003900	3.198000	-9.605500	27.702711	0.000320	20.897208
2133.608048	-2.993200	3.195500	-9.564200	27.669011	0.000319	20.901228
2134.610400	-2.996700	3.195800	-9.574500	27.657378	0.000317	20.904221
2135.608727	-2.996600	3.194600	-9.572400	27.656165	0.000318	20.895890
2136.608832	-2.987800	3.195300	-9.545400	27.665692	0.000316	20.910691
2137.608838	-3.012600	3.192100	-9.615500	27.654585	0.000314	20.898092
2138.606242	-3.006800	3.191800	-9.596400	27.655674	0.000315	20.881646
2139.610401	-3.025600	3.191200	-9.654200	27.675509	0.000315	20.896862
2140.610754	-3.012100	3.190900	-9.610000	27.685336	0.000312	20.906749
2141.608174	-2.989400	3.192500	-9.542700	27.679014	0.000313	20.870519
2142.609877	-3.012600	3.192400	-9.616500	27.676859	0.000313	20.905332
2143.610005	-3.001000	3.192000	-9.577900	27.715693	0.000311	20.902685
2144.609260	-3.015400	3.190200	-9.618800	27.767222	0.000310	20.895272
2145.613159	-2.984500	3.189800	-9.517900	27.768793	0.000308	20.883103
2146.608806	-3.007700	3.189700	-9.592600	27.822577	0.000308	20.890763
2147.610814	-2.993600	3.188800	-9.545800	27.842443	0.000309	20.888945
2148.609292	-3.000600	3.187800	-9.563800	27.829247	0.000308	20.877087
2149.609930	-3.000500	3.188700	-9.567300	27.803368	0.000308	20.894664
2150.613196	-3.021300	3.186300	-9.625700	27.795977	0.000305	20.880115
2151.610742	-2.998900	3.186700	-9.555200	27.800217	0.000305	20.877744
2152.610368	-3.014800	3.185100	-9.601600	27.817306	0.000304	20.894941
2153.609420	-3.021300	3.184900	-9.621200	27.779487	0.000305	20.876322
2154.610928	-3.016600	3.184700	-9.605800	27.740434	0.000304	20.883962
2155.610173	-2.991100	3.186800	-9.529300	27.780454	0.000304	20.868286
2156.609299	-2.994000	3.185200	-9.535800	27.795560	0.000301	20.882539
2157.610612	-3.042300	3.181700	-9.678900	27.781229	0.000303	20.873333
2158.621148	-2.980900	3.184100	-9.490800	27.775207	0.000302	20.884816
2159.611475	-2.983900	3.185700	-9.504300	27.777685	0.000302	20.883043
2160.611698	-3.004500	3.182400	-9.560500	27.785867	0.000301	20.869941
2161.613628	-3.022900	3.181400	-9.615600	27.764841	0.000300	20.861584
2162.612455	-2.987100	3.181100	-9.501500	27.768036	0.000301	20.855317
2163.613498	-3.009300	3.180300	-9.569500	27.798539	0.000300	20.865624
2164.616448	-3.021000	3.179400	-9.603700	27.797027	0.000298	20.878801
2165.615381	-3.007300	3.180900	-9.564400	27.795187	0.000298	20.872682
2166.620533	-2.994400	3.179200	-9.518800	27.809895	0.000296	20.865673
2167.615606	-2.985500	3.179000	-9.489700	27.821522	0.000296	20.854615
2168.617445	-2.987800	3.178200	-9.495300	27.789685	0.000295	20.883265
2169.616486	-3.001000	3.179200	-9.539600	27.775521	0.000294	20.878495
2170.616660	-2.997700	3.176100	-9.519600	27.782216	0.000296	20.862947
2171.618425	-3.003100	3.176500	-9.538900	27.812418	0.000293	20.868212
2172.616424	-3.014800	3.175300	-9.571800	27.806220	0.000294	20.861500
2173.621815	-3.009200	3.175300	-9.553800	27.813925	0.000292	20.873522
2174.617640	-2.991200	3.174300	-9.493600	27.824683	0.000291	20.866331
2175.619214	-2.993300	3.177400	-9.510100	27.868026	0.000291	20.871072
2176.619175	-2.994100	3.173500	-9.500800	27.850001	0.000291	20.864785
2177.623960	-2.975300	3.175800	-9.447900	27.804448	0.000288	20.861140
2178.619549	-2.975900	3.173800	-9.444300	27.789465	0.000289	20.874510
2179.620862	-3.030600	3.173300	-9.616000	27.768533	0.000289	20.869566
2180.621370	-2.976700	3.173600	-9.445600	27.741034	0.000290	20.873186
2181.621519	-2.997900	3.171000	-9.504800	27.765657	0.000287	20.864775
2182.623396	-3.009400	3.170200	-9.540100	27.724984	0.000285	20.848502
2183.626831	-2.986800	3.173100	-9.476400	27.714618	0.000287	20.865571
2184.625101	-3.001600	3.170100	-9.515000	27.759949	0.000284	20.865195
2185.621855	-3.000900	3.169800	-9.511400	27.751861	0.000283	20.856108
2186.624575	-2.996100	3.168200	-9.491200	27.767660	0.000285	20.880066
2187.626492	-2.987400	3.168700	-9.465300	27.782388	0.000284	20.866440
2188.624761	-2.983900	3.168900	-9.454600	27.752951	0.000281	20.861946
2189.625381	-3.007600	3.168000	-9.526800	27.735517	0.000283	20.865265
2190.632628	-2.962600	3.167600	-9.383100	27.772612	0.000281	20.856602
2191.633616	-2.998500	3.166200	-9.492900	27.789151	0.000281	20.862341
2192.626585	-2.992500	3.165900	-9.472200	27.781888	0.000282	20.846497
2193.628466	-3.019900	3.165800	-9.559200	27.816061	0.000280	20.854809
2194.625442	-2.997600	3.164200	-9.483900	27.843632	0.000280	20.864065
2195.626368	-2.997600	3.164600	-9.485400	27.859404	0.000278	20.845327
2196.625764	-3.011700	3.161900	-9.521600	27.864636	0.000276	20.872875
2197.625663	-3.022100	3.164800	-9.563200	27.840088	0.000277	20.851490
2198.629179	-2.999500	3.162400	-9.484700	27.802049	0.000276	20.848295
2199.627802	-2.997300	3.161700	-9.474500	27.773755	0.000277	20.855856
2200.627393	-2.968100	3.161600	-9.382600	27.768970	0.000276	20.838713
2201.629358	-3.010000	3.158300	-9.505400	27.744097	0.000274	20.848295
2202.628192	-2.975600	3.161400	-9.405600	27.744867	0.000273	20.826786
2203.632064	-3.010700	3.158400	-9.508000	27.748739	0.000271	20.836372
2204.629803	-2.991600	3.159300	-9.450500	27.753746	0.000270	20.848522
2205.629356	-3.016300	3.158100	-9.524200	27.795978	0.000271	20.841237
2206.630609	-2.994700	3.158000	-9.456300	27.856430	0.000269	20.844704
2207.628833	-3.001800	3.156200	-9.472600	27.910632	0.000270	20.841884
2208.628724	-3.003000	3.157000	-9.479200	27.948398	0.000269	20.842437
2209.628520	-2.997000	3.155200	-9.455600	27.935478	0.000268	20.844605
2210.629230	-3.010700	3.154800	-9.497000	27.889158	0.000268	20.834495
2211.630309	-3.013600	3.155700	-9.509100	27.788440	0.000268	20.840289
2212.629893	-3.014000	3.153100	-9.502300	27.769117	0.000266	20.827956
2213.628887	-3.024900	3.153000	-9.535800	27.772568	0.000267	20.845178
2214.631733	-3.024300	3.150500	-9.527100	27.785191	0.000264	20.846028
2215.630274	-2.993500	3.151100	-9.432000	27.804478	0.000263	20.854059
2216.630861	-2.986800	3.152300	-9.414300	27.798103	0.000263	20.839583
2217.630464	-3.014700	3.151000	-9.497700	27.832918	0.000263	20.845223
2218.631278	-3.007400	3.150300	-9.472300	27.781441	0.000263	20.813806
2219.631441	-3.000200	3.149500	-9.447600	27.761230	0.000262	20.820494
2220.635176	-2.996900	3.148600	-9.435000	27.779405	0.000262	20.852058
2221.632315	-3.005500	3.149200	-9.464200	27.791777	0.000261	20.842699
2222.631817	-2.982600	3.149400	-9.392200	27.807129	0.000260	20.838709
2223.632628	-2.992600	3.149700	-9.423600	27.829989	0.000260	20.843697
2224.633582	-3.002300	3.148100	-9.450600	27.868891	0.000257	20.832115
2225.633205	-3.004500	3.145600	-9.450100	27.897182	0.000259	20.834511
2226.634789	-3.015700	3.146000	-9.486300	27.901029	0.000257	20.850236
2227.634335	-2.997100	3.145100	-9.424300	27.902983	0.000257	20.853150
2228.636586	-3.016100	3.145200	-9.485200	27.854655	0.000256	20.820158
2229.636082	-3.020800	3.143500	-9.495000	27.825469	0.000255	20.828243
2230.639327	-3.014700	3.143900	-9.476900	27.809102	0.000258	20.842117
2231.636753	-3.016100	3.141300	-9.473900	27.811286	0.000254	20.838151
2232.638587	-3.003600	3.141200	-9.433800	27.845718	0.000255	20.813061
2233.640263	-3.018600	3.140000	-9.477100	27.905726	0.000253	20.831256
2234.637101	-2.973000	3.141800	-9.339800	27.945494	0.000255	20.824342
2235.641913	-2.980700	3.138700	-9.353000	27.965324	0.000255	20.815378
2236.640641	-3.000300	3.138500	-9.415200	28.003181	0.000253	20.828827
2237.636578	-2.978500	3.138000	-9.345000	28.034687	0.000251	20.840152
2238.639989	-2.999300	3.137400	-9.409300	28.062007	0.000252	20.817867
2239.640926	-3.000600	3.137100	-9.412500	28.052807	0.000250	20.823305
2240.637933	-3.004700	3.135600	-9.420300	28.029526	0.000251	20.823103
2241.641381	-2.993800	3.136000	-9.388200	28.070162	0.000250	20.835085
2242.641601	-2.992500	3.135700	-9.382000	28.060388	0.000251	20.816712
2243.637916	-2.989500	3.134300	-9.367800	28.065594	0.000248	20.833806
2244.640990	-3.010200	3.134700	-9.435600	28.083145	0.000250	20.825869
2245.640864	-2.983500	3.135100	-9.352700	28.089837	0.000246	20.826916
2246.638813	-3.010600	3.132100	-9.427700	28.090210	0.000250	20.814015
2247.641820	-2.966300	3.132100	-9.288500	28.106568	0.000247	20.834275
2248.641178	-2.992300	3.131700	-9.368300	28.073175	0.000247	20.823419
2249.638935	-3.008600	3.129700	-9.415700	28.014668	0.000246	20.833278
2250.641418	-2.984900	3.131100	-9.344800	27.978377	0.000244	20.825197
2251.643486	-3.010300	3.129300	-9.418400	27.933100	0.000245	20.793849
2252.639145	-3.013800	3.128200	-9.427000	27.966227	0.000243	20.825770
2253.643867	-2.985100	3.128700	-9.337000	27.938360	0.000245	20.810049
2254.641065	-3.004800	3.128300	-9.398400	27.951845	0.000245	20.810346
2255.643533	-2.990200	3.127400	-9.350000	27.945505	0.000243	20.828620
2256.642232	-2.965200	3.127100	-9.269800	27.949440	0.000244	20.803658
2257.642502	-3.006700	3.126100	-9.398000	27.977390	0.000243	20.801919
2258.639866	-2.973800	3.125800	-9.293600	28.007161	0.000239	20.818134
2259.642742	-2.996100	3.123800	-9.357100	28.039712	0.000242	20.818658
2260.643709	-3.004200	3.124000	-9.381800	28.069142	0.000242	20.805135
2261.643376	-2.987000	3.122300	-9.325500	28.057312	0.000241	20.814564
2262.644383	-3.020100	3.121800	-9.426900	28.087610	0.000239	20.800018
2263.644560	-2.986600	3.122200	-9.323800	28.130270	0.000239	20.808824
2264.643420	-3.014200	3.120400	-9.401800	28.135971	0.000239	20.818357
2265.646425	-3.006600	3.118400	-9.374600	28.143708	0.000238	20.798171
2266.645615	-3.011900	3.118400	-9.390700	28.130496	0.000238	20.806681
2267.643455	-3.001300	3.118100	-9.357900	28.093924	0.000237	20.809694
2268.647240	-2.999000	3.117200	-9.347300	28.118073	0.000237	20.811245
2269.646365	-2.983100	3.118500	-9.301200	28.147648	0.000236	20.818258
2270.645810	-3.022100	3.114000	-9.409500	28.167381	0.000234	20.826743
2271.648408	-3.001300	3.113900	-9.345500	28.205476	0.000235	20.800611
2272.647150	-2.988600	3.113900	-9.305700	28.221567	0.000234	20.794052
2273.645037	-2.984300	3.114200	-9.293000	28.217372	0.000234	20.811166
2274.647348	-3.013400	3.112300	-9.377500	28.224408	0.000234	20.821093
2275.647073	-3.001000	3.112800	-9.340100	28.220169	0.000234	20.813033
2276.645171	-3.004600	3.111500	-9.347800	28.125899	0.000233	20.793519
2277.645777	-3.001300	3.108500	-9.328900	28.102570	0.000233	20.797060
2278.647852	-2.990900	3.110500	-9.301000	28.053284	0.000231	20.793914
2279.646450	-3.012900	3.107100	-9.360600	28.047033	0.000229	20.797105
2280.648797	-2.981100	3.107600	-9.262700	28.030895	0.000229	20.818792
2281.648086	-2.985400	3.107900	-9.277800	28.034909	0.000229	20.779210
2282.648750	-2.990700	3.105800	-9.287400	28.071969	0.000229	20.824576
2283.654371	-3.001300	3.105200	-9.317700	28.107864	0.000229	20.802864
2284.648141	-2.989900	3.105000	-9.281300	28.159772	0.000228	20.802489
2285.648426	-3.013500	3.102300	-9.348000	28.167877	0.000229	20.795475
2286.647963	-3.027300	3.101200	-9.386700	28.134138	0.000230	20.780949
2287.649170	-3.014600	3.102400	-9.351400	28.086095	0.000226	20.804657
2288.649580	-3.017100	3.101000	-9.355600	28.040621	0.000229	20.805349
2289.648263	-3.020900	3.099600	-9.361400	27.976156	0.000230	20.798306
2290.650259	-2.979400	3.100600	-9.235500	27.968369	0.000228	20.777666
2291.651213	-3.011400	3.098100	-9.328200	28.007913	0.000227	20.806090
2292.650369	-2.993400	3.098800	-9.274100	28.039920	0.000227	20.805117
2293.651281	-3.011300	3.096700	-9.323800	28.055714	0.000226	20.805843
2294.650846	-2.993800	3.097600	-9.272700	28.074654	0.000224	20.788398
2295.652203	-3.021700	3.095300	-9.351800	28.084668	0.000226	20.793263
2296.652683	-3.029900	3.092700	-9.368800	28.062128	0.000224	20.804713
2297.651728	-3.016300	3.094000	-9.330600	28.059453	0.000225	20.788744
2298.651769	-3.007200	3.095100	-9.306900	28.043365	0.000224	20.800050
2299.653096	-3.001500	3.093400	-9.284400	28.049807	0.000225	20.780931
2300.657161	-3.014300	3.091300	-9.316800	28.065552	0.000223	20.795358
2301.653326	-3.002400	3.090700	-9.278700	28.086989	0.000222	20.782798
2302.654626	-2.985400	3.089800	-9.223600	28.098372	0.000222	20.787618
2303.653373	-2.995200	3.089500	-9.251900	28.082897	0.000223	20.804757
2304.654891	-3.012700	3.087800	-9.301400	28.055205	0.000223	20.786364
2305.653557	-2.998300	3.087200	-9.255900	28.039484	0.000221	20.785712
2306.653432	-2.997000	3.087400	-9.252200	28.109863	0.000222	20.786384
2307.656391	-3.005500	3.084900	-9.270100	28.107017	0.000220	20.768346
2308.655980	-2.995500	3.083700	-9.236300	28.133168	0.000220	20.770016
2309.654684	-2.995100	3.084800	-9.238100	28.132197	0.000221	20.796065
2310.655596	-3.011900	3.081200	-9.279300	28.168135	0.000220	20.790519
2311.655653	-3.006900	3.082200	-9.266900	28.155644	0.000220	20.789323
2312.655973	-2.993600	3.081200	-9.222900	28.193543	0.000222	20.785752
2313.654209	-3.005500	3.080700	-9.257500	28.145277	0.000221	20.791689
2314.656154	-2.991200	3.080200	-9.212900	28.108858	0.000219	20.784898
2315.654822	-2.999700	3.078200	-9.232700	28.091799	0.000219	20.807554
2316.655454	-2.989900	3.078100	-9.202800	28.090558	0.000221	20.794925
2317.659757	-2.998400	3.077200	-9.225800	28.134509	0.000221	20.797444
2318.659172	-3.003500	3.075700	-9.236200	28.168317	0.000221	20.801134
2319.657500	-3.021700	3.072600	-9.283900	28.190424	0.000219	20.794941
2320.656035	-2.985500	3.074400	-9.177300	28.135736	0.000219	20.775920
2321.659169	-2.999100	3.073900	-9.218100	28.161145	0.000219	20.792017
2322.654949	-3.009200	3.070100	-9.237300	28.186308	0.000218	20.801702
2323.657279	-3.002500	3.071900	-9.222500	28.219119	0.000217	20.781156
2324.658741	-2.988000	3.069400	-9.169200	28.241897	0.000216	20.763785
2325.661273	-2.999300	3.068700	-9.203000	28.281431	0.000215	20.788417
2326.660872	-2.993900	3.069700	-9.189700	28.264625	0.000217	20.769599
2327.659410	-2.982700	3.067800	-9.149000	28.264252	0.000217	20.780129
2328.659235	-2.973700	3.067100	-9.119700	28.181540	0.000216	20.774617
2329.658188	-2.985600	3.065600	-9.151600	28.161033	0.000216	20.777679
2330.660537	-2.996000	3.063900	-9.178900	28.196135	0.000217	20.798794
2331.659321	-2.982500	3.065800	-9.142400	28.224090	0.000216	20.789479
2332.659144	-3.009800	3.061900	-9.214600	28.216702	0.000216	20.796740
2333.659989	-2.996000	3.061900	-9.172800	28.221460	0.000216	20.795367
2334.662578	-2.988900	3.061000	-9.147700	28.251949	0.000217	20.792873
2335.662123	-2.993600	3.059200	-9.157100	28.280819	0.000213	20.775472
2336.662594	-3.020100	3.058500	-9.236100	28.235535	0.000216	20.792468
2337.662473	-3.027400	3.055900	-9.251200	28.243959	0.000215	20.783879
2338.663269	-2.988900	3.054700	-9.128200	28.221525	0.000217	20.788794
2339.663110	-2.995100	3.055400	-9.150700	28.186816	0.000216	20.806955
2340.663424	-3.012800	3.054700	-9.202700	28.159725	0.000214	20.794380
2341.665030	-2.986900	3.053500	-9.119100	28.122438	0.000213	20.788137
2342.665443	-3.018900	3.051200	-9.210000	28.124817	0.000214	20.782946
2343.662093	-3.017900	3.050200	-9.203900	28.119181	0.000214	20.796238
2344.661676	-2.984800	3.050800	-9.105200	28.085219	0.000216	20.772481
2345.661411	-2.989100	3.049800	-9.114500	28.094983	0.000214	20.769034
2346.662992	-2.982100	3.048600	-9.090100	28.106430	0.000213	20.793359
2347.663722	-3.004800	3.047600	-9.155400	28.077006	0.000215	20.804043
2348.663982	-2.982200	3.045600	-9.081200	28.130147	0.000213	20.780726
2349.666313	-2.997000	3.045500	-9.126900	28.138949	0.000212	20.789586
2350.662344	-2.984700	3.045100	-9.087400	28.199480	0.000213	20.787937
2351.662518	-3.006400	3.043000	-9.147400	28.225428	0.000212	20.759058
2352.662885	-2.999700	3.040900	-9.121400	28.237251	0.000213	20.797040
2353.663301	-2.979200	3.041000	-9.058900	28.238286	0.000211	20.772478
2354.663121	-2.997600	3.038700	-9.108100	28.223687	0.000213	20.776271
2355.662552	-2.994600	3.037400	-9.095100	28.239371	0.000212	20.769303
2356.661662	-2.988600	3.036200	-9.072200	28.251689	0.000211	20.786921
2357.662681	-2.993700	3.036900	-9.090700	28.261104	0.000211	20.805883
2358.666987	-2.985100	3.034700	-9.058400	28.301202	0.000211	20.796469
2359.667347	-2.994000	3.033100	-9.080300	28.344723	0.000210	20.792874
2360.664429	-2.979900	3.032700	-9.036000	28.369082	0.000209	20.771408
2361.669143	-3.003500	3.031200	-9.103400	28.388560	0.000210	20.796238
2362.665961	-2.980000	3.030100	-9.028700	28.398871	0.000208	20.797136
2363.665252	-2.978500	3.028900	-9.021300	28.378520	0.000210	20.804619
2364.665263	-2.995500	3.027600	-9.069100	28.330017	0.000210	20.792292
2365.667385	-3.001900	3.027200	-9.085100	28.298334	0.000210	20.806383
2366.665005	-3.005400	3.024800	-9.089700	28.297122	0.000208	20.800422
2367.664567	-2.994100	3.025300	-9.057400	28.292629	0.000208	20.793527
2368.667521	-2.996000	3.023100	-9.056000	28.334742	0.000208	20.800368
2369.664812	-3.011300	3.020800	-9.095700	28.387061	0.000210	20.791408
2370.665417	-2.991200	3.019900	-9.031500	28.416005	0.000208	20.792105
2371.673485	-2.992300	3.020100	-9.036600	28.392158	0.000209	20.798437
2372.666533	-3.014000	3.016500	-9.090900	28.376447	0.000208	20.789256
2373.667141	-2.969100	3.018500	-8.959900	28.338971	0.000208	20.807471
2374.666045	-3.019700	3.014700	-9.101900	28.262416	0.000208	20.820954
2375.667132	-3.003100	3.013900	-9.049900	28.256158	0.000207	20.797584
2376.665552	-3.010400	3.011300	-9.064300	28.252394	0.000208	20.797588
2377.667545	-3.011700	3.012200	-9.070900	28.238614	0.000208	20.793197
2378.667226	-2.990800	3.012100	-9.007300	28.208567	0.000208	20.793291
2379.668073	-2.992300	3.009200	-9.003300	28.246493	0.000207	20.810613
2380.669544	-3.010900	3.008800	-9.057900	28.292420	0.000207	20.791894
2381.670116	-3.041100	3.005500	-9.139000	28.348307	0.000208	20.805491
2382.679236	-3.014200	3.004100	-9.054600	28.370664	0.000207	20.811408
2383.669746	-3.000800	3.004300	-9.014400	28.381691	0.000207	20.814451
2384.671977	-2.996400	3.003600	-8.998200	28.338545	0.000208	20.792343
2385.676492	-3.017500	3.002000	-9.056700	28.343421	0.000207	20.801995
2386.671845	-2.985900	3.000500	-8.958700	28.369022	0.000204	20.801694
2387.677080	-2.978800	2.998700	-8.931900	28.387882	0.000206	20.809305
2388.693326	-3.006800	2.997300	-9.011300	28.395838	0.000207	20.786970
2389.673314	-2.992600	2.996300	-8.965400	28.442793	0.000207	20.822399
2390.675689	-3.005800	2.994000	-8.998600	28.423767	0.000205	20.804662
2391.678734	-3.011900	2.993300	-9.014200	28.421830	0.000204	20.820729
2392.674962	-2.987200	2.992000	-8.936400	28.385469	0.000205	20.794073
2393.678373	-2.964500	2.993300	-8.872100	28.347081	0.000205	20.782447
2394.676352	-2.993900	2.989500	-8.949300	28.257356	0.000205	20.826291
2395.675250	-3.003300	2.987900	-8.972500	28.276419	0.000203	20.811345
2396.680392	-3.019300	2.986200	-9.015200	28.306186	0.000203	20.820927
2397.676684	-3.025300	2.984800	-9.028800	28.349436	0.000203	20.818008
2398.677181	-3.001900	2.984100	-8.957300	28.407355	0.000205	20.806628
2399.678541	-2.985400	2.983400	-8.905500	28.420564	0.000205	20.812343
2400.677889	-2.973700	2.982300	-8.867300	28.418955	0.000205	20.820680
2401.680612	-2.986900	2.980900	-8.903100	28.431022	0.000208	20.815761
2402.679005	-3.005100	2.978300	-8.949100	28.470152	0.000206	20.796844
2403.683263	-2.996300	2.977200	-8.918500	28.515127	0.000204	20.826489
2404.678630	-2.955700	2.978500	-8.802300	28.519942	0.000206	20.819958
2405.677253	-2.975400	2.974800	-8.849300	28.594277	0.000204	20.806154
2406.680471	-2.993500	2.973200	-8.899700	28.575494	0.000203	20.818057
2407.679389	-2.962000	2.973400	-8.805800	28.579309	0.000204	20.827116
2408.678621	-2.980400	2.968900	-8.845900	28.583321	0.000204	20.830208
2409.681539	-3.033200	2.968700	-9.003900	28.590010	0.000202	20.814186
2410.679052	-2.969800	2.968200	-8.813800	28.606022	0.000206	20.819880
2411.678570	-3.001000	2.965500	-8.898700	28.564567	0.000204	20.816062
2412.679573	-3.008100	2.964900	-8.917800	28.534386	0.000203	20.818383
2413.678135	-3.011700	2.963200	-8.923000	28.545509	0.000205	20.814887
2414.678369	-3.006900	2.961900	-8.904300	28.563420	0.000204	20.811114
2415.677737	-3.013000	2.960800	-8.919200	28.594718	0.000204	20.823668
2416.681028	-2.994800	2.959000	-8.859300	28.642537	0.000203	20.804974
2417.678828	-3.027100	2.956300	-8.948200	28.666424	0.000202	20.826187
2418.678514	-2.997900	2.957100	-8.864300	28.686294	0.000203	20.820122
2419.684824	-3.011300	2.953000	-8.891100	28.753634	0.000203	20.822518
2420.679783	-2.997400	2.953600	-8.852600	28.763764	0.000202	20.836989
2421.688028	-2.990000	2.951600	-8.824600	28.761312	0.000203	20.827408
2422.680882	-2.999000	2.949200	-8.843600	28.743719	0.000203	20.836713
2423.681108	-2.990300	2.948800	-8.816900	28.667037	0.000201	20.832495
2424.679996	-2.992800	2.948300	-8.821900	28.617754	0.000204	20.830747
2425.683940	-3.001800	2.944400	-8.837600	28.589236	0.000204	20.841854
2426.678433	-3.001700	2.943700	-8.834800	28.536080	0.000202	20.845218
2427.680361	-2.998800	2.941600	-8.819300	28.519204	0.000202	20.829646
2428.681197	-3.010600	2.939500	-8.849300	28.505628	0.000205	20.835888
2429.681293	-3.031300	2.938300	-8.905300	28.514995	0.000202	20.839632
2430.683812	-2.988300	2.937000	-8.775500	28.527732	0.000202	20.817846
2431.682076	-3.025600	2.934900	-8.879100	28.561091	0.000201	20.822044
2432.681342	-2.998300	2.933400	-8.794000	28.545898	0.000203	20.839459
2433.684114	-3.001100	2.933000	-8.800600	28.578928	0.000203	20.812981
2434.681724	-2.992300	2.931300	-8.770000	28.603806	0.000201	20.829028
2435.687660	-3.015700	2.928800	-8.832100	28.595606	0.000203	20.826934
2436.681400	-2.990300	2.928500	-8.755900	28.599966	0.000201	20.823264
2437.681506	-2.981100	2.927600	-8.726000	28.603585	0.000202	20.843978
2438.684456	-2.986100	2.923900	-8.730100	28.627153	0.000201	20.838317
2439.682359	-3.008700	2.922000	-8.790400	28.637682	0.000201	20.838016
2440.682969	-3.001100	2.921100	-8.765200	28.656243	0.000201	20.845805
2441.680455	-2.988000	2.921300	-8.727000	28.666850	0.000200	20.828513
2442.683670	-3.005300	2.918000	-8.768800	28.710355	0.000202	20.826340
2443.683357	-3.001600	2.915900	-8.751300	28.702279	0.000202	20.832430
2444.685137	-2.991300	2.914700	-8.718000	28.729258	0.000202	20.827363
2445.689469	-2.968200	2.914400	-8.649700	28.769843	0.000203	20.842638
2446.689374	-2.974400	2.912700	-8.661100	28.794340	0.000202	20.846926
2447.684894	-2.988200	2.910800	-8.697500	28.822435	0.000202	20.850097
2448.686845	-3.004200	2.907500	-8.734100	28.862860	0.000202	20.837241
2449.688137	-3.003500	2.906400	-8.728400	28.874386	0.000201	20.837472
2450.685684	-3.003900	2.903600	-8.720600	28.910127	0.000202	20.863520
2451.687716	-2.999500	2.903400	-8.708600	28.888207	0.000202	20.858033
2452.687174	-3.016100	2.900700	-8.747600	28.878098	0.000202	20.846901
2453.686206	-3.022200	2.898700	-8.759600	28.876735	0.000200	20.838890
2454.691245	-2.997700	2.898400	-8.687500	28.865659	0.000202	20.828208
2455.689452	-2.982600	2.896600	-8.638600	28.900935	0.000202	20.836243
2456.688241	-2.987100	2.892600	-8.639600	28.897243	0.000201	20.838688
2457.690974	-3.010700	2.890500	-8.701600	28.877250	0.000201	20.843203
2458.690073	-3.010300	2.890000	-8.699100	28.863105	0.000203	20.868781
2459.689221	-2.998100	2.886100	-8.651100	28.840292	0.000201	20.860972
2460.687858	-2.982600	2.885700	-8.604600	28.852873	0.000200	20.856577
2461.689328	-2.962900	2.886200	-8.550000	28.807712	0.000202	20.840955
2462.690672	-3.013800	2.882100	-8.685200	28.817993	0.000203	20.855105
2463.690409	-2.970800	2.880400	-8.556900	28.784078	0.000201	20.847020
2464.695330	-2.988200	2.879100	-8.602400	28.734726	0.000202	20.855629
2465.692214	-3.003900	2.875700	-8.637200	28.686363	0.000200	20.852434
2466.693884	-3.007700	2.875100	-8.646200	28.699740	0.000200	20.845045
2467.702152	-3.019800	2.871500	-8.669900	28.694586	0.000202	20.855501
2468.696478	-3.027500	2.869900	-8.686600	28.731779	0.000201	20.854083
2469.697177	-2.995600	2.869300	-8.594200	28.765765	0.000200	20.862237
2470.697393	-2.985700	2.866800	-8.558900	28.762078	0.000201	20.868480
2471.696003	-2.994000	2.864800	-8.575700	28.753605	0.000202	20.871324
2472.695168	-2.988000	2.863600	-8.555400	28.742209	0.000201	20.863640
2473.698797	-2.998900	2.862600	-8.583500	28.711538	0.000199	20.855505
2474.695648	-2.940000	2.860000	-8.406600	28.691746	0.000200	20.837942
2475.695617	-3.008500	2.857000	-8.594600	28.670362	0.000203	20.832998
2476.697618	-2.999300	2.854900	-8.561900	28.681733	0.000200	20.865788
2477.696456	-2.967400	2.853100	-8.463500	28.699376	0.000202	20.865541
2478.694739	-3.013400	2.850200	-8.587500	28.751432	0.000201	20.858231
2479.698144	-3.006100	2.848400	-8.561400	28.745906	0.000201	20.865466
2480.697303	-3.011200	2.847000	-8.572100	28.750122	0.000201	20.871136
2481.698052	-2.988600	2.846400	-8.505200	28.780817	0.000200	20.884510
2482.701000	-3.035000	2.841100	-8.621200	28.787255	0.000201	20.858754
2483.704547	-2.990700	2.840900	-8.495700	28.795610	0.000201	20.858635
2484.698574	-3.003800	2.838900	-8.526300	28.799846	0.000202	20.892772
2485.703269	-3.009500	2.837800	-8.539800	28.837055	0.000200	20.857238
2486.700670	-2.980700	2.836600	-8.454400	28.870723	0.000201	20.870291
2487.701223	-3.007900	2.832500	-8.519200	28.892673	0.000201	20.891453
2488.702845	-3.018100	2.830400	-8.541100	28.931835	0.000199	20.877803
2489.700887	-2.983400	2.827600	-8.434600	28.982270	0.000200	20.875511
2490.699986	-2.999000	2.826300	-8.473800	28.998791	0.000198	20.872241
2491.701406	-3.008600	2.822700	-8.491400	29.031537	0.000201	20.859242
2492.700710	-3.011200	2.821800	-8.496100	29.049649	0.000201	20.877016
2493.702218	-2.998200	2.819600	-8.452900	29.086056	0.000202	20.876241
2494.702454	-3.010400	2.817400	-8.481400	29.039742	0.000202	20.875569
2495.703611	-3.007100	2.814400	-8.460900	28.991868	0.000200	20.864792
2496.702868	-3.021000	2.810600	-8.490200	28.989245	0.000199	20.868313
2497.702860	-3.005000	2.809700	-8.442300	29.028207	0.000200	20.882912
2498.701629	-2.978200	2.807500	-8.360000	29.040296	0.000200	20.879919
2499.712598	-2.984100	2.804600	-8.367900	29.034972	0.000200	20.880245
2500.704874	-2.988400	2.802500	-8.373600	29.048996	0.000200	20.879677
2501.705248	-2.989300	2.800900	-8.371800	29.039015	0.000201	20.875311
2502.707009	-2.989800	2.796800	-8.361100	29.028167	0.000199	20.887139
2503.705844	-2.990100	2.795800	-8.358600	29.048927	0.000199	20.884822
2504.707987	-2.993200	2.792800	-8.358700	29.088628	0.000199	20.872668
2505.707442	-2.976100	2.790200	-8.303100	29.120131	0.000201	20.858420
2506.706013	-3.009100	2.785900	-8.382600	29.155672	0.000198	20.889489
2507.709858	-3.013800	2.784500	-8.390800	29.140644	0.000199	20.885251
2508.705665	-2.987700	2.782000	-8.310900	29.130733	0.000199	20.872895
2509.706968	-2.988700	2.778200	-8.302700	29.128733	0.000201	20.885103
2510.705668	-2.996800	2.777700	-8.322300	29.101837	0.000201	20.879340
2511.710907	-2.961300	2.775000	-8.216200	29.098764	0.000201	20.874821
2512.708153	-2.979400	2.770800	-8.254100	29.124101	0.000200	20.888970
2513.706726	-3.002400	2.768100	-8.309300	29.109312	0.000202	20.878812
2514.709776	-3.015400	2.764600	-8.335100	29.086451	0.000199	20.892759
2515.709700	-3.019400	2.761700	-8.336700	29.124439	0.000198	20.885993
2516.709805	-3.030900	2.758700	-8.360000	29.129993	0.000200	20.889217
2517.713346	-2.982400	2.756200	-8.218400	29.121690	0.000199	20.893653
2518.709345	-2.993900	2.753400	-8.242800	29.154109	0.000199	20.893604
2519.709776	-2.989900	2.751100	-8.224600	29.160843	0.000201	20.915561
2520.712236	-3.001400	2.747300	-8.244500	29.187115	0.000200	20.898414
2521.714058	-2.997800	2.744100	-8.223900	29.204848	0.000201	20.881198
2522.711340	-2.996500	2.741500	-8.214500	29.162922	0.000201	20.901061
2523.714990	-2.974700	2.738900	-8.146300	29.124778	0.000200	20.885860
2524.714375	-3.004800	2.732800	-8.211000	29.099442	0.000200	20.903003
2525.711470	-3.027100	2.731000	-8.266200	29.095878	0.000197	20.888981
2526.716318	-3.011400	2.726900	-8.210400	29.054016	0.000200	20.908440
2527.716542	-2.993500	2.724000	-8.153100	29.019516	0.000201	20.900232
2528.714594	-2.960400	2.723000	-8.059800	28.954345	0.000200	20.917547
2529.714489	-3.007100	2.718200	-8.172900	28.905173	0.000199	20.912579
2530.713330	-2.970000	2.715000	-8.063300	28.874903	0.000198	20.914801
2531.716041	-3.041200	2.710900	-8.242400	28.832346	0.000200	20.914130
2532.715016	-3.025700	2.707300	-8.189900	28.833734	0.000198	20.883288
2533.720453	-3.010400	2.704700	-8.140700	28.831155	0.000199	20.882112
2534.715310	-3.010300	2.699800	-8.126800	28.881713	0.000199	20.918343
2535.714172	-3.035200	2.697300	-8.185600	28.919096	0.000198	20.915700
2536.717859	-3.017400	2.692100	-8.122100	28.919395	0.000200	20.909364
2537.717482	-3.027000	2.689200	-8.139000	28.951075	0.000200	20.913779
2538.714595	-3.015200	2.686000	-8.098300	28.961851	0.000201	20.917048
2539.714802	-3.022200	2.681700	-8.102400	28.981445	0.000201	20.896014
2540.714330	-3.014500	2.678800	-8.074900	29.005647	0.000199	20.905225
2541.718661	-2.972900	2.675900	-7.954000	29.067193	0.000201	20.908914
2542.715625	-2.984800	2.670900	-7.971500	29.105956	0.000199	20.921419
2543.714984	-2.987900	2.667500	-7.968800	29.094065	0.000202	20.928876
2544.715522	-2.970900	2.663400	-7.911300	29.122381	0.000202	20.935123
2545.716327	-3.017800	2.657600	-8.019100	29.148703	0.000200	20.934145
2546.717894	-2.981600	2.654900	-7.915000	29.223002	0.000201	20.917033
2547.719183	-2.989000	2.652200	-7.926000	29.245635	0.000200	20.928935
2548.716568	-3.019800	2.646200	-7.989100	29.257026	0.000200	20.920974
2549.717219	-3.001400	2.643000	-7.931300	29.320193	0.000201	20.923468
2550.716934	-3.011900	2.637500	-7.942800	29.361246	0.000200	20.926910
2551.718506	-2.974500	2.633100	-7.830300	29.394872	0.000201	20.920974
2552.719836	-2.998500	2.628800	-7.881500	29.387145	0.000200	20.926935
2553.719608	-3.020000	2.622400	-7.918500	29.319624	0.000200	20.898715
2554.718889	-2.965800	2.621400	-7.773600	29.277522	0.000201	20.916026
2555.720127	-3.009000	2.614600	-7.866100	29.278271	0.000203	20.924367
2556.720947	-2.996500	2.609000	-7.817500	29.295896	0.000200	20.905620
2557.720676	-3.001900	2.604200	-7.816700	29.308623	0.000200	20.924609
2558.720355	-3.006900	2.599500	-7.815600	29.331504	0.000202	20.923014
2559.723417	-3.018500	2.593200	-7.826500	29.384587	0.000199	20.938581
2560.721220	-3.002800	2.589200	-7.773400	29.404792	0.000199	20.935237
2561.723422	-3.005800	2.583900	-7.765200	29.363912	0.000202	20.919641
2562.723214	-3.006100	2.578800	-7.751000	29.309441	0.000201	20.939183
2563.723543	-2.991500	2.574100	-7.699300	29.283262	0.000202	20.941722
2564.723384	-3.008100	2.567700	-7.723000	29.284825	0.000200	20.939504
2565.722359	-2.993500	2.561900	-7.668100	29.357052	0.000202	20.923158
2566.723997	-3.010900	2.556500	-7.696300	29.365197	0.000202	20.929943
2567.724129	-2.990600	2.550100	-7.625200	29.397902	0.000202	20.915019
2568.725204	-3.016500	2.543900	-7.673500	29.404145	0.000202	20.922733
2569.723256	-3.009200	2.537400	-7.634800	29.447620	0.000202	20.924353
2570.722936	-3.033000	2.532300	-7.679700	29.492039	0.000200	20.930719
2571.724850	-3.008400	2.527600	-7.603300	29.521174	0.000203	20.920259
2572.721717	-3.023200	2.520200	-7.617900	29.521203	0.000203	20.926926
2573.722447	-3.033300	2.512200	-7.619100	29.528205	0.000204	20.918338
2574.728513	-2.986700	2.506400	-7.485500	29.484042	0.000203	20.939726
2575.725668	-3.001500	2.500800	-7.505500	29.493205	0.000201	20.903447
2576.725412	-2.989700	2.494900	-7.457000	29.514417	0.000201	20.908708
