LabVIEW Measurement	
Writer_Version	2
Reader_Version	2
Separator	Tab
Decimal_Separator	.
Multi_Headings	No
X_Columns	One
Time_Pref	Absolute
Operator	admin
Description	Clolumns are: time, Current, Voltage, Power, Battery Temp, and Chamber Temp
Date	2024/08/16
Time	13:06:06.104549407958984375
***End_of_Header***	
	
Channels	6						
Samples	1	1	1	1	1	1	
Date	2024/09/15	2024/09/15	2024/09/15	2024/09/15	2024/09/15	2024/09/15	
Time	11:11:47.1372880935668945312	11:11:47.1442790031433105469	11:11:47.1522774696350097656	11:11:47.1159081459045410156	11:11:47.1159081459045410156	11:11:47.1159081459045410156	
X_Dimension	Time	Time	Time	Time	Time	Time	
X0	0.0000000000000000E+0	0.0000000000000000E+0	0.0000000000000000E+0	0.0000000000000000E+0	0.0000000000000000E+0	0.0000000000000000E+0	
Delta_X	1.000000	1.000000	1.000000	1.000000	1.000000	1.000000	
***End_of_Header***							
X_Value	Untitled	Untitled 1	Untitled 2	Untitled 3	Untitled 4	Untitled 5	Comment
0.000000	0.015696	4.090600	0.064096	21.004737	0.000940	20.789964
1.001431	-2.987600	3.912000	-11.687000	21.004662	0.000937	20.791786
1.995196	-3.002200	3.903300	-11.718000	21.017036	0.000940	20.812222
2.998581	-2.988200	3.899200	-11.650000	21.009279	0.000937	20.791662
3.999863	-2.995600	3.894200	-11.664000	21.013270	0.000938	20.803714
4.998483	-3.023500	3.889600	-11.759000	21.011749	0.000936	20.806934
5.998650	-3.001800	3.889100	-11.672000	21.009904	0.000934	20.800822
6.995414	-3.009400	3.886300	-11.694000	21.005037	0.000931	20.795480
7.996714	-2.995300	3.884400	-11.633000	20.996903	0.000931	20.807733
8.994586	-2.990100	3.882900	-11.609000	21.008532	0.000931	20.804665
9.997362	-3.012000	3.879800	-11.685000	20.980462	0.000930	20.785599
10.999016	-3.013700	3.878400	-11.687000	21.020236	0.000930	20.782233
12.001132	-2.970100	3.876700	-11.514000	21.019814	0.000929	20.798880
12.997864	-3.008200	3.874300	-11.653000	21.011457	0.000928	20.787676
14.000226	-2.988600	3.874200	-11.576000	21.019967	0.000928	20.809465
15.005679	-3.002100	3.873600	-11.628000	21.021342	0.000926	20.788554
16.002306	-3.009600	3.871300	-11.649000	21.029128	0.000926	20.781643
17.000738	-3.010000	3.869300	-11.644000	21.019274	0.000925	20.798814
18.002873	-2.996500	3.870900	-11.597000	21.032749	0.000925	20.768669
19.006180	-3.013000	3.868200	-11.654000	21.053011	0.000926	20.785142
20.004360	-2.986400	3.868500	-11.551000	21.048148	0.000925	20.796874
21.001687	-2.995300	3.865900	-11.578000	21.061722	0.000923	20.783898
22.000597	-2.978700	3.867300	-11.519000	21.048202	0.000924	20.775591
23.002498	-2.998400	3.864300	-11.586000	21.065144	0.000923	20.782105
24.002573	-3.013100	3.863200	-11.640000	21.069363	0.000923	20.794386
25.002096	-3.000500	3.863400	-11.591000	21.077521	0.000924	20.795908
26.000941	-2.995600	3.863000	-11.570000	21.073706	0.000924	20.775022
27.002842	-3.004100	3.861200	-11.599000	21.085708	0.000923	20.769957
28.003386	-2.980900	3.861800	-11.511000	21.113254	0.000924	20.768113
29.005025	-3.015500	3.859200	-11.637000	21.091252	0.000920	20.775977
30.004116	-2.989000	3.860800	-11.539000	21.098739	0.000922	20.779199
31.008048	-2.991100	3.860000	-11.545000	21.104976	0.000921	20.770264
32.005898	-2.966500	3.859100	-11.446000	21.115332	0.000922	20.761657
33.004289	-3.026300	3.857200	-11.672000	21.088243	0.000921	20.772019
34.010487	-2.982500	3.857000	-11.502000	21.102911	0.000921	20.769147
35.004364	-2.992800	3.858600	-11.547000	21.133749	0.000920	20.787192
36.007982	-2.974500	3.858200	-11.475000	21.129262	0.000919	20.774642
37.007203	-2.991000	3.856700	-11.534000	21.135352	0.000920	20.785950
38.006378	-2.991000	3.855600	-11.531000	21.146155	0.000917	20.770677
39.007785	-2.996100	3.856700	-11.554000	21.149202	0.000919	20.763768
40.008567	-2.996100	3.856200	-11.553000	21.149829	0.000920	20.763922
41.006801	-3.022500	3.854300	-11.649000	21.180292	0.000918	20.756936
42.006443	-3.007800	3.855200	-11.595000	21.179473	0.000918	20.758013
43.007955	-3.006900	3.853000	-11.584000	21.177728	0.000919	20.761957
44.005361	-3.019500	3.852300	-11.631000	21.189409	0.000917	20.777909
45.008924	-3.009000	3.852500	-11.591000	21.189585	0.000921	20.769077
46.011209	-3.000900	3.852300	-11.559000	21.209871	0.000920	20.758550
47.007790	-3.004200	3.852100	-11.571000	21.217128	0.000921	20.745894
48.008417	-2.993900	3.850500	-11.525000	21.217306	0.000921	20.745124
49.008101	-3.006700	3.849800	-11.574000	21.227039	0.000919	20.756283
50.012387	-2.982000	3.850200	-11.479000	21.220130	0.000920	20.756010
51.007663	-2.991700	3.849100	-11.514000	21.250191	0.000922	20.734399
52.015115	-2.997400	3.848900	-11.536000	21.263413	0.000920	20.740514
53.009367	-2.996500	3.849700	-11.535000	21.266110	0.000921	20.728987
54.012507	-3.006000	3.848600	-11.568000	21.293450	0.000920	20.738795
55.013165	-3.002700	3.849100	-11.556000	21.274968	0.000919	20.753971
56.013508	-2.999100	3.847600	-11.538000	21.281408	0.000921	20.742395
57.008981	-3.002700	3.847500	-11.550000	21.287095	0.000918	20.758042
58.008417	-2.993700	3.848100	-11.518000	21.295753	0.000917	20.740625
59.011327	-2.992700	3.847000	-11.511000	21.301517	0.000918	20.748288
60.011017	-2.960700	3.849600	-11.396000	21.317559	0.000918	20.759122
61.013997	-3.004000	3.845100	-11.548000	21.345124	0.000919	20.750664
62.009977	-2.984200	3.847100	-11.479000	21.343704	0.000918	20.748295
63.013067	-2.999800	3.846100	-11.537000	21.334752	0.000917	20.732225
64.018116	-3.002100	3.846600	-11.547000	21.350443	0.000919	20.750296
65.010754	-3.007300	3.844100	-11.559000	21.360698	0.000919	20.741115
66.011380	-3.002600	3.844800	-11.544000	21.354165	0.000919	20.744536
67.012643	-3.001400	3.845300	-11.539000	21.380208	0.000920	20.746885
68.011347	-2.996900	3.845000	-11.522000	21.396048	0.000920	20.730489
69.013872	-3.008300	3.843600	-11.561000	21.392210	0.000919	20.712423
70.018984	-3.006900	3.844400	-11.559000	21.393033	0.000920	20.745017
71.014208	-2.983100	3.844600	-11.468000	21.386252	0.000920	20.735387
72.015141	-3.014000	3.841600	-11.578000	21.430851	0.000918	20.743026
73.014320	-3.001700	3.843500	-11.536000	21.412920	0.000920	20.727929
74.016349	-3.015700	3.841900	-11.585000	21.403467	0.000922	20.735541
75.015250	-3.027800	3.839600	-11.625000	21.474652	0.000922	20.730427
76.014411	-3.026400	3.842000	-11.626000	21.437490	0.000920	20.754411
77.015660	-2.991400	3.840600	-11.488000	21.466948	0.000922	20.743108
78.017634	-3.025300	3.839700	-11.615000	21.474684	0.000923	20.731407
79.019889	-2.989000	3.840900	-11.480000	21.494981	0.000921	20.742234
80.016207	-2.997600	3.839600	-11.508000	21.473959	0.000920	20.722147
81.019305	-3.011600	3.840700	-11.566000	21.484682	0.000922	20.739516
82.022383	-3.006300	3.838900	-11.540000	21.501466	0.000924	20.726437
83.020678	-3.014700	3.840000	-11.574000	21.519624	0.000923	20.745082
84.022177	-3.007300	3.838700	-11.544000	21.517853	0.000923	20.728135
85.020442	-3.017100	3.839300	-11.581000	21.536259	0.000923	20.740389
86.022240	-3.000400	3.839100	-11.518000	21.532867	0.000923	20.732728
87.022649	-3.013700	3.837900	-11.565000	21.547378	0.000924	20.735395
88.020848	-2.995800	3.839400	-11.500000	21.543091	0.000924	20.736795
89.022965	-2.997700	3.837800	-11.503000	21.555384	0.000924	20.739612
90.025325	-3.016600	3.836700	-11.573000	21.560398	0.000927	20.725188
91.022558	-2.965200	3.840300	-11.386000	21.573988	0.000924	20.732624
92.019685	-2.984900	3.838000	-11.456000	21.607453	0.000927	20.722016
93.021538	-2.982900	3.838800	-11.450000	21.592690	0.000926	20.739960
94.022205	-2.987600	3.837500	-11.464000	21.610095	0.000924	20.732721
95.019301	-2.992000	3.836300	-11.477000	21.616751	0.000927	20.728002
96.022753	-2.998400	3.836600	-11.503000	21.619470	0.000926	20.733093
97.022980	-2.992900	3.836200	-11.481000	21.619991	0.000927	20.763014
98.023772	-3.007600	3.835200	-11.533000	21.626575	0.000927	20.728349
99.023466	-3.010500	3.834000	-11.540000	21.642134	0.000929	20.745817
100.024068	-2.995200	3.835000	-11.486000	21.640884	0.000927	20.748359
101.021186	-2.985800	3.834900	-11.449000	21.644600	0.000928	20.753501
102.025785	-3.008100	3.834100	-11.532000	21.678562	0.000930	20.738650
103.024041	-3.009000	3.833400	-11.533000	21.677587	0.000928	20.757589
104.025501	-2.979000	3.835300	-11.424000	21.672276	0.000926	20.732359
105.026569	-3.021600	3.832300	-11.579000	21.680229	0.000927	20.746008
106.025181	-3.018500	3.832800	-11.568000	21.679133	0.000926	20.713141
107.025677	-3.002700	3.832600	-11.507000	21.674891	0.000928	20.754891
108.028488	-2.994800	3.833700	-11.480000	21.693639	0.000926	20.750894
109.026896	-2.987700	3.832600	-11.450000	21.727605	0.000928	20.761654
110.022714	-2.979800	3.833100	-11.421000	21.736728	0.000927	20.736644
111.025725	-3.007400	3.832500	-11.524000	21.739048	0.000926	20.740862
112.028513	-2.980800	3.833600	-11.427000	21.739395	0.000926	20.757332
113.026160	-3.002100	3.831200	-11.500000	21.748994	0.000925	20.759827
114.026154	-3.005700	3.831800	-11.515000	21.741861	0.000926	20.741781
115.026264	-3.004700	3.832100	-11.513000	21.767444	0.000926	20.751739
116.025710	-2.996300	3.832300	-11.481000	21.760261	0.000928	20.745023
117.023890	-2.990700	3.831400	-11.458000	21.765844	0.000927	20.764363
118.023913	-2.987800	3.830900	-11.445000	21.778437	0.000930	20.746620
119.028628	-2.995500	3.831200	-11.473000	21.768262	0.000928	20.766309
120.027647	-3.008300	3.830200	-11.521000	21.765321	0.000928	20.755304
121.028706	-3.015500	3.828100	-11.543000	21.794643	0.000929	20.741503
122.031722	-2.990000	3.830600	-11.451000	21.800777	0.000929	20.750962
123.031641	-2.994700	3.830000	-11.469000	21.814689	0.000930	20.755403
124.031882	-3.017100	3.829100	-11.552000	21.846953	0.000930	20.755927
125.034027	-2.997200	3.830100	-11.478000	21.831694	0.000931	20.744447
126.033636	-2.975400	3.830700	-11.396000	21.820300	0.000932	20.762915
127.029790	-2.997400	3.828500	-11.474000	21.849770	0.000933	20.726503
128.032651	-2.990600	3.829000	-11.450000	21.848324	0.000933	20.776741
129.030127	-2.990500	3.827700	-11.446000	21.878019	0.000932	20.769005
130.031515	-3.002800	3.828000	-11.493000	21.882853	0.000935	20.767205
131.032921	-3.012200	3.826000	-11.522000	21.888364	0.000932	20.751384
132.037684	-3.008200	3.825900	-11.508000	21.891479	0.000933	20.739803
133.028365	-3.018900	3.826100	-11.550000	21.915263	0.000935	20.746541
134.033673	-2.988100	3.826900	-11.434000	21.888912	0.000934	20.767106
135.034177	-2.981000	3.826500	-11.405000	21.891827	0.000935	20.758643
136.029592	-2.990900	3.827600	-11.448000	21.909304	0.000935	20.755748
137.033103	-3.009200	3.825000	-11.510000	21.914587	0.000935	20.763881
138.035047	-2.990600	3.827100	-11.444000	21.912843	0.000934	20.769723
139.033105	-3.010400	3.825500	-11.516000	21.919048	0.000935	20.750329
140.034076	-3.008400	3.824400	-11.504000	21.939518	0.000935	20.771768
141.034150	-2.986200	3.826800	-11.427000	21.925732	0.000935	20.745165
142.029380	-3.006500	3.824800	-11.499000	21.923589	0.000936	20.781902
143.034901	-2.983800	3.824300	-11.410000	21.914787	0.000936	20.756022
144.036436	-2.999300	3.824700	-11.470000	21.929894	0.000935	20.771143
145.032129	-3.011300	3.825000	-11.517000	21.933187	0.000938	20.760689
146.035719	-3.008100	3.824700	-11.505000	21.953332	0.000938	20.766155
147.034864	-3.003300	3.823400	-11.482000	21.985941	0.000937	20.774616
148.034636	-3.017000	3.822500	-11.531000	21.962681	0.000937	20.761764
149.038273	-3.002900	3.822200	-11.477000	22.007260	0.000938	20.765611
150.038318	-2.994500	3.822800	-11.445000	22.005241	0.000937	20.759323
151.033836	-3.001900	3.822700	-11.473000	21.991282	0.000937	20.762419
152.039649	-3.023200	3.821400	-11.552000	21.998241	0.000939	20.778394
153.039957	-3.002200	3.821900	-11.474000	22.001606	0.000940	20.771331
154.039030	-3.014600	3.821800	-11.520000	22.024991	0.000939	20.778619
155.039217	-3.007000	3.822000	-11.491000	22.010136	0.000940	20.765646
156.038746	-2.995600	3.821300	-11.446000	22.046257	0.000943	20.770037
157.041032	-3.002900	3.823100	-11.480000	22.067050	0.000939	20.759084
158.039608	-3.011700	3.819600	-11.503000	22.079840	0.000940	20.756716
159.039735	-2.997400	3.820400	-11.450000	22.070070	0.000942	20.760211
160.036289	-3.003100	3.819100	-11.468000	22.080468	0.000942	20.786742
161.051759	-3.013800	3.818800	-11.508000	22.097969	0.000944	20.742622
162.036915	-2.992500	3.820800	-11.433000	22.108939	0.000946	20.767355
163.040711	-2.998500	3.820900	-11.456000	22.140648	0.000943	20.779661
164.039462	-2.999300	3.819300	-11.454000	22.148027	0.000947	20.770928
165.040789	-2.995600	3.820300	-11.444000	22.138729	0.000947	20.774895
166.045085	-2.993700	3.819500	-11.433000	22.157631	0.000947	20.763947
167.042937	-2.982800	3.819400	-11.391000	22.174953	0.000947	20.764694
168.042318	-2.977600	3.819700	-11.373000	22.169173	0.000949	20.775029
169.044889	-2.990100	3.817900	-11.415000	22.174781	0.000948	20.776851
170.048395	-3.027800	3.816800	-11.555000	22.171392	0.000949	20.775828
171.039503	-3.002700	3.817700	-11.462000	22.158134	0.000950	20.773460
172.042448	-3.000200	3.818500	-11.455000	22.155168	0.000952	20.767645
173.045606	-3.006700	3.815900	-11.472000	22.160727	0.000950	20.758986
174.044470	-2.987800	3.817700	-11.405000	22.152252	0.000952	20.777054
175.042507	-2.986100	3.817200	-11.398000	22.136224	0.000952	20.769068
176.045298	-2.987100	3.818400	-11.405000	22.158263	0.000952	20.769795
177.043357	-2.987100	3.817900	-11.403000	22.178525	0.000955	20.773487
178.042546	-2.991400	3.816600	-11.416000	22.183336	0.000954	20.777829
179.045013	-3.013900	3.815700	-11.500000	22.209878	0.000954	20.791602
180.044567	-2.994500	3.815000	-11.421000	22.204324	0.000953	20.767074
181.043284	-2.976200	3.815400	-11.353000	22.237221	0.000956	20.775830
182.045745	-3.005300	3.814100	-11.460000	22.232959	0.000956	20.771089
183.047669	-2.982600	3.816600	-11.382000	22.231340	0.000956	20.783692
184.046888	-3.008500	3.813600	-11.472000	22.228771	0.000958	20.775905
185.046371	-3.005500	3.814500	-11.463000	22.226175	0.000955	20.790850
186.045817	-3.020700	3.813000	-11.517000	22.224504	0.000958	20.776848
187.050677	-3.038200	3.813100	-11.583000	22.256233	0.000958	20.782064
188.046760	-3.023400	3.813700	-11.529000	22.248279	0.000958	20.775049
189.046514	-2.996500	3.813400	-11.426000	22.234920	0.000959	20.765466
190.048145	-2.981500	3.813300	-11.368000	22.258147	0.000960	20.783981
191.048442	-3.004400	3.813800	-11.458000	22.278259	0.000961	20.777566
192.048230	-2.988700	3.814200	-11.398000	22.272750	0.000962	20.771102
193.045902	-2.995400	3.813200	-11.420000	22.291439	0.000962	20.793608
194.054340	-3.000200	3.813000	-11.439000	22.309208	0.000961	20.796701
195.050370	-2.993200	3.812700	-11.412000	22.311077	0.000963	20.793357
196.047119	-2.998800	3.811800	-11.430000	22.319598	0.000962	20.781027
197.051672	-3.005100	3.812100	-11.454000	22.333853	0.000963	20.782499
198.047990	-2.975700	3.813200	-11.346000	22.331283	0.000963	20.781822
199.049219	-2.986800	3.812300	-11.385000	22.363506	0.000963	20.799864
200.052354	-3.008300	3.812600	-11.468000	22.371427	0.000965	20.795468
201.049253	-3.009400	3.810100	-11.465000	22.378081	0.000962	20.815407
202.052248	-2.993700	3.810700	-11.407000	22.399614	0.000965	20.796193
203.052770	-3.010500	3.811400	-11.473000	22.405717	0.000966	20.788554
204.051752	-3.004200	3.810600	-11.447000	22.415489	0.000966	20.805927
205.052931	-3.004100	3.809600	-11.444000	22.415688	0.000964	20.805651
206.058155	-2.995700	3.809100	-11.410000	22.420747	0.000965	20.780846
207.052086	-3.017400	3.808700	-11.491000	22.420249	0.000966	20.784140
208.055317	-3.017100	3.808400	-11.489000	22.399490	0.000965	20.814086
209.050142	-2.999500	3.807100	-11.418000	22.410382	0.000965	20.803657
210.051249	-3.012600	3.808300	-11.472000	22.394433	0.000967	20.809496
211.052486	-3.004700	3.808800	-11.443000	22.415266	0.000966	20.803332
212.050624	-3.010400	3.808100	-11.463000	22.415268	0.000967	20.786265
213.055737	-2.980700	3.809700	-11.355000	22.451007	0.000967	20.803563
214.051690	-2.999100	3.807300	-11.417000	22.460675	0.000968	20.804236
215.056726	-2.978500	3.806900	-11.338000	22.487290	0.000969	20.798173
216.054982	-3.008800	3.805900	-11.449000	22.472315	0.000971	20.786970
217.053575	-3.003400	3.806200	-11.431000	22.477749	0.000967	20.790989
218.053358	-3.013000	3.806200	-11.466000	22.468257	0.000968	20.799027
219.055384	-3.007900	3.807100	-11.450000	22.464222	0.000971	20.818219
220.050195	-2.994700	3.805700	-11.396000	22.456599	0.000970	20.804896
221.056750	-3.022800	3.804700	-11.499000	22.473421	0.000971	20.793293
222.053810	-2.989400	3.805800	-11.376000	22.477533	0.000974	20.805946
223.054217	-2.999100	3.805400	-11.412000	22.506067	0.000972	20.779520
224.059742	-3.018200	3.804100	-11.481000	22.525830	0.000973	20.791726
225.061555	-3.005600	3.804900	-11.435000	22.515788	0.000974	20.828136
226.057686	-2.990700	3.804800	-11.378000	22.518155	0.000975	20.801110
227.057368	-2.988700	3.805600	-11.372000	22.489577	0.000977	20.807576
228.059288	-3.018000	3.804300	-11.479000	22.503109	0.000976	20.808800
229.059465	-2.998800	3.804700	-11.409000	22.502413	0.000977	20.797197
230.063417	-2.973700	3.804000	-11.311000	22.499622	0.000978	20.810523
231.059810	-3.027900	3.801600	-11.509000	22.502338	0.000979	20.806132
232.061076	-2.989100	3.803800	-11.369000	22.472962	0.000978	20.799945
233.059817	-2.993900	3.803300	-11.385000	22.503112	0.000980	20.814492
234.064650	-3.024200	3.801800	-11.496000	22.516941	0.000979	20.800841
235.060256	-2.984600	3.804300	-11.353000	22.514675	0.000981	20.809478
236.060365	-2.995800	3.802900	-11.391000	22.516495	0.000981	20.816516
237.061522	-2.999200	3.802800	-11.404000	22.537475	0.000980	20.827096
238.061199	-3.003900	3.801100	-11.417000	22.554520	0.000980	20.813822
239.069020	-3.001600	3.801300	-11.409000	22.563290	0.000983	20.824027
240.067553	-3.002100	3.801500	-11.412000	22.579884	0.000982	20.816940
241.062022	-3.008800	3.800100	-11.432000	22.583124	0.000982	20.807857
242.059103	-2.993400	3.801800	-11.379000	22.637469	0.000983	20.823881
243.061388	-2.990500	3.799600	-11.362000	22.641605	0.000983	20.813800
244.060951	-2.986100	3.800400	-11.348000	22.647462	0.000984	20.808760
245.063233	-3.001700	3.800700	-11.408000	22.664580	0.000984	20.823536
246.062530	-3.009800	3.799300	-11.434000	22.652696	0.000983	20.815900
247.057467	-3.021800	3.798500	-11.478000	22.651876	0.000986	20.803699
248.057330	-3.005400	3.800200	-11.421000	22.680353	0.000985	20.844075
249.062172	-2.988500	3.799200	-11.353000	22.667574	0.000984	20.811836
250.057449	-3.020700	3.798100	-11.471000	22.680705	0.000987	20.820247
251.068253	-2.996200	3.798300	-11.380000	22.679785	0.000985	20.813636
252.058697	-2.983300	3.800400	-11.337000	22.677570	0.000987	20.823744
253.059422	-3.019200	3.797400	-11.462000	22.676677	0.000985	20.826170
254.066090	-3.035300	3.797400	-11.525000	22.682782	0.000987	20.824223
255.064468	-3.032900	3.796600	-11.513000	22.716093	0.000988	20.814917
256.062240	-2.987800	3.797200	-11.344000	22.725887	0.000989	20.821882
257.066101	-3.008800	3.797500	-11.424000	22.751624	0.000987	20.810679
258.068434	-2.967200	3.798700	-11.270000	22.750355	0.000988	20.838331
259.063372	-2.985600	3.797300	-11.336000	22.759426	0.000990	20.827503
260.064263	-2.997900	3.796100	-11.379000	22.759180	0.000990	20.820145
261.063614	-2.983000	3.797200	-11.326000	22.794432	0.000990	20.829853
262.064017	-2.992300	3.796100	-11.358000	22.777398	0.000992	20.836022
263.063596	-2.991800	3.795500	-11.354000	22.814020	0.000990	20.816759
264.061265	-3.003600	3.795100	-11.397000	22.795065	0.000995	20.832857
265.063578	-2.997600	3.796600	-11.380000	22.822420	0.000993	20.848407
266.063836	-3.004900	3.793800	-11.398000	22.801198	0.000996	20.825251
267.062704	-2.999900	3.795600	-11.386000	22.803765	0.000995	20.830668
268.069109	-2.992300	3.793800	-11.351000	22.786428	0.000993	20.825629
269.066301	-3.006600	3.793200	-11.404000	22.807483	0.000996	20.823486
270.064179	-2.987400	3.793800	-11.332000	22.812615	0.000997	20.825309
271.067126	-3.004100	3.792700	-11.392000	22.854464	0.000998	20.811283
272.071711	-2.993100	3.793600	-11.354000	22.842659	0.000998	20.816526
273.067619	-3.011900	3.791100	-11.417000	22.865801	0.001000	20.845873
274.064539	-3.010700	3.792700	-11.417000	22.864805	0.000998	20.842978
275.070086	-2.980300	3.792200	-11.301000	22.877611	0.001001	20.818825
276.064057	-3.024100	3.792100	-11.466000	22.898785	0.001003	20.833399
277.066110	-2.988400	3.792400	-11.332000	22.901375	0.001003	20.825088
278.070403	-3.003200	3.792200	-11.388000	22.910967	0.001001	20.847499
279.066961	-2.996400	3.790300	-11.355000	22.906132	0.001001	20.842182
280.069696	-2.996700	3.790400	-11.358000	22.895470	0.001002	20.841931
281.070822	-2.988000	3.791300	-11.327000	22.901474	0.001003	20.828032
282.066668	-3.011500	3.790700	-11.414000	22.901298	0.001003	20.836390
283.066142	-3.003100	3.789800	-11.380000	22.924887	0.001002	20.840583
284.074022	-3.003200	3.790000	-11.380000	22.932583	0.001002	20.844974
285.070005	-3.013500	3.789300	-11.417000	22.934523	0.001005	20.846918
286.075494	-3.021200	3.790000	-11.448000	22.951214	0.001007	20.838036
287.070256	-3.017000	3.788200	-11.428000	22.951861	0.001005	20.820666
288.068817	-3.013100	3.788500	-11.415000	22.954378	0.001006	20.860171
289.075403	-2.998100	3.788600	-11.358000	22.955946	0.001006	20.847519
290.074386	-2.974500	3.788500	-11.267000	22.950416	0.001008	20.840081
291.075814	-3.001700	3.788600	-11.370000	22.970191	0.001008	20.836661
292.078988	-2.983600	3.788600	-11.303000	22.998638	0.001008	20.848092
293.076925	-2.999900	3.788600	-11.365000	22.985459	0.001010	20.859069
294.074386	-3.003500	3.786400	-11.372000	22.997714	0.001009	20.853330
295.077017	-3.005300	3.787300	-11.381000	22.995917	0.001009	20.829720
296.078243	-3.005100	3.787600	-11.381000	22.987800	0.001010	20.848613
297.074850	-2.999200	3.786200	-11.355000	22.993526	0.001010	20.848186
298.076359	-3.009900	3.785600	-11.392000	23.011534	0.001012	20.852004
299.085070	-3.016000	3.784900	-11.413000	23.019502	0.001013	20.873263
300.081859	-3.007400	3.785900	-11.384000	23.026623	0.001012	20.849105
301.074597	-2.981000	3.785500	-11.284000	23.039449	0.001013	20.842042
302.079377	-2.994800	3.785200	-11.335000	23.024328	0.001012	20.843013
303.075340	-3.007400	3.784800	-11.380000	23.047690	0.001012	20.868315
304.079844	-3.026600	3.784600	-11.453000	23.060115	0.001012	20.846627
305.083789	-3.014200	3.783100	-11.402000	23.065895	0.001012	20.865220
306.079926	-2.988300	3.785400	-11.309000	23.086763	0.001011	20.860526
307.080647	-2.979800	3.784800	-11.277000	23.119763	0.001014	20.870832
308.079339	-3.008200	3.783200	-11.380000	23.118665	0.001012	20.855983
309.079700	-3.001700	3.782400	-11.353000	23.134929	0.001012	20.852840
310.077029	-2.991400	3.783800	-11.317000	23.146082	0.001014	20.877291
311.077878	-3.013200	3.783200	-11.399000	23.149595	0.001012	20.855683
312.078747	-3.026100	3.781800	-11.443000	23.118839	0.001014	20.875596
313.087201	-2.993200	3.781500	-11.317000	23.149419	0.001015	20.874946
314.082107	-3.007600	3.781900	-11.373000	23.135323	0.001015	20.861769
315.083754	-2.991400	3.783200	-11.316000	23.135824	0.001018	20.877917
316.080819	-3.008900	3.780800	-11.373000	23.161623	0.001017	20.876743
317.082022	-3.020400	3.779300	-11.413000	23.159582	0.001016	20.874223
318.082117	-3.003700	3.780200	-11.352000	23.161051	0.001017	20.874273
319.081631	-2.992900	3.781100	-11.314000	23.155370	0.001018	20.864788
320.088017	-2.991900	3.781600	-11.312000	23.127254	0.001019	20.883554
321.080050	-2.995500	3.780400	-11.322000	23.121281	0.001020	20.882785
322.082280	-3.006600	3.780900	-11.367000	23.115999	0.001019	20.882234
323.084097	-2.976900	3.780300	-11.251000	23.112489	0.001020	20.875871
324.079988	-2.994300	3.778900	-11.314000	23.145433	0.001021	20.891339
325.084626	-3.007900	3.779100	-11.366000	23.144289	0.001021	20.875494
326.088422	-3.003800	3.778500	-11.349000	23.140828	0.001020	20.881983
327.082288	-2.999400	3.778000	-11.330000	23.157191	0.001020	20.889370
328.083995	-3.022900	3.778000	-11.420000	23.122894	0.001020	20.884875
329.081444	-3.026300	3.777000	-11.429000	23.156143	0.001021	20.878838
330.079626	-2.974600	3.778200	-11.237000	23.167400	0.001022	20.888221
331.085851	-3.028600	3.775300	-11.433000	23.178682	0.001024	20.881983
332.085760	-2.998100	3.777300	-11.324000	23.190786	0.001023	20.891267
333.084851	-3.015000	3.775200	-11.381000	23.212449	0.001026	20.891165
334.080132	-3.003500	3.776400	-11.342000	23.195938	0.001025	20.904016
335.086350	-3.015700	3.775200	-11.383000	23.233716	0.001025	20.871701
336.084236	-2.982400	3.776700	-11.262000	23.220619	0.001026	20.888447
337.083921	-3.001800	3.774900	-11.331000	23.245145	0.001026	20.872724
338.083641	-2.986500	3.776600	-11.278000	23.233441	0.001027	20.896080
339.082250	-3.016000	3.774400	-11.382000	23.269949	0.001028	20.866287
340.083741	-2.986600	3.775400	-11.275000	23.238422	0.001026	20.874047
341.084669	-2.996500	3.775100	-11.311000	23.245222	0.001025	20.862844
342.088041	-3.020400	3.773500	-11.395000	23.266461	0.001028	20.889817
343.083983	-3.005200	3.773700	-11.339000	23.270444	0.001025	20.869628
344.092927	-2.969700	3.775500	-11.211000	23.242455	0.001025	20.862442
345.085890	-2.983000	3.774900	-11.260000	23.237374	0.001028	20.854980
346.086089	-2.998600	3.773800	-11.316000	23.237151	0.001026	20.866610
347.091821	-3.001300	3.772000	-11.319000	23.246636	0.001027	20.876589
348.089573	-2.978900	3.775200	-11.244000	23.213841	0.001028	20.874543
349.090903	-3.013000	3.772100	-11.364000	23.260711	0.001030	20.853238
350.086975	-2.971000	3.772600	-11.207000	23.252567	0.001027	20.858351
351.089605	-3.007200	3.771600	-11.341000	23.267206	0.001027	20.880608
352.090121	-2.982800	3.772900	-11.252000	23.286882	0.001029	20.855757
353.092958	-3.007100	3.771100	-11.339000	23.302571	0.001031	20.872429
354.086736	-3.013900	3.770100	-11.362000	23.303966	0.001027	20.849171
355.089430	-3.019800	3.769400	-11.381000	23.273538	0.001030	20.849023
356.089757	-2.996500	3.771300	-11.298000	23.282304	0.001031	20.855911
357.092819	-3.010100	3.768700	-11.343000	23.272671	0.001029	20.863800
358.091183	-3.013400	3.769500	-11.357000	23.256832	0.001032	20.840816
359.087995	-2.988500	3.770400	-11.267000	23.244261	0.001031	20.864252
360.086640	-2.997300	3.769000	-11.295000	23.266672	0.001031	20.840719
361.091812	-2.997900	3.767900	-11.294000	23.262166	0.001030	20.847583
362.091136	-3.006400	3.768500	-11.328000	23.248745	0.001033	20.841720
363.089690	-2.977800	3.768800	-11.222000	23.292698	0.001033	20.840250
364.091938	-2.998600	3.767300	-11.296000	23.283635	0.001032	20.835434
365.090805	-3.021600	3.766800	-11.380000	23.279753	0.001032	20.855725
366.089808	-3.027800	3.765900	-11.401000	23.293129	0.001031	20.838786
367.090877	-2.998900	3.766400	-11.295000	23.305155	0.001034	20.863165
368.097163	-3.017500	3.765400	-11.361000	23.344150	0.001033	20.842030
369.096227	-3.000800	3.765000	-11.297000	23.337802	0.001035	20.851788
370.090455	-3.000300	3.765900	-11.298000	23.342709	0.001036	20.841534
371.094970	-3.009100	3.765600	-11.330000	23.360565	0.001035	20.853265
372.089885	-2.984100	3.767500	-11.241000	23.370475	0.001035	20.840913
373.088847	-2.998000	3.765800	-11.289000	23.414597	0.001034	20.836298
374.094038	-3.001000	3.765500	-11.300000	23.401202	0.001037	20.836624
375.095016	-3.001600	3.764100	-11.297000	23.383377	0.001036	20.837723
376.091141	-2.996200	3.764300	-11.278000	23.395055	0.001039	20.844687
377.100926	-2.988200	3.764500	-11.248000	23.400286	0.001038	20.834757
378.094675	-2.995400	3.764600	-11.276000	23.385073	0.001037	20.826148
379.090551	-3.005500	3.761900	-11.306000	23.381566	0.001037	20.850133
380.099705	-2.994200	3.763200	-11.267000	23.375741	0.001036	20.818217
381.092734	-3.005400	3.763500	-11.309000	23.361402	0.001037	20.836562
382.098138	-2.991800	3.763500	-11.259000	23.340834	0.001037	20.843448
383.092931	-2.979900	3.763200	-11.213000	23.356124	0.001037	20.823686
384.092333	-3.004500	3.760800	-11.298000	23.391209	0.001039	20.815703
385.092239	-3.013700	3.761100	-11.334000	23.418449	0.001040	20.815030
386.094982	-2.988200	3.763500	-11.245000	23.434659	0.001040	20.827010
387.093487	-3.016800	3.760000	-11.342000	23.437076	0.001041	20.838442
388.093670	-3.007200	3.759600	-11.305000	23.448955	0.001039	20.829485
389.098648	-2.983900	3.761800	-11.224000	23.436708	0.001042	20.837598
390.093257	-3.005900	3.760200	-11.303000	23.423586	0.001042	20.814015
391.096040	-3.012700	3.759400	-11.325000	23.439620	0.001042	20.822026
392.103638	-3.003200	3.760400	-11.292000	23.440566	0.001042	20.817284
393.097192	-3.006500	3.759200	-11.301000	23.459243	0.001042	20.825573
394.095255	-3.009400	3.759900	-11.315000	23.469727	0.001041	20.820909
395.104178	-3.027400	3.757500	-11.374000	23.465467	0.001042	20.829441
396.097509	-2.988900	3.758900	-11.233000	23.463922	0.001044	20.809874
397.099069	-2.997400	3.758200	-11.264000	23.451551	0.001043	20.814070
398.099670	-2.996400	3.757600	-11.258000	23.447120	0.001043	20.821957
399.098626	-2.992800	3.757800	-11.245000	23.492336	0.001043	20.807536
400.101257	-3.014900	3.758000	-11.328000	23.473786	0.001044	20.803167
401.097046	-2.993000	3.757800	-11.246000	23.477246	0.001045	20.807583
402.101075	-2.980700	3.757300	-11.198000	23.516185	0.001044	20.808683
403.104811	-3.017000	3.756000	-11.330000	23.524004	0.001047	20.831219
404.104481	-3.005900	3.754800	-11.285000	23.526391	0.001045	20.796628
405.100585	-2.983900	3.756000	-11.206000	23.568115	0.001046	20.802417
406.104626	-2.989500	3.755100	-11.224000	23.565750	0.001047	20.810004
407.104455	-2.991400	3.756800	-11.236000	23.542397	0.001045	20.811250
408.104379	-2.994100	3.756000	-11.245000	23.558954	0.001048	20.800821
409.103096	-2.987600	3.753900	-11.215000	23.572894	0.001046	20.814795
410.108326	-2.998400	3.753600	-11.254000	23.595397	0.001047	20.804162
411.103823	-3.016900	3.753500	-11.322000	23.578515	0.001048	20.794826
412.100931	-3.010700	3.754200	-11.300000	23.567042	0.001048	20.805135
413.102960	-2.995100	3.752800	-11.238000	23.603861	0.001046	20.827820
414.101365	-2.989400	3.752100	-11.215000	23.577671	0.001047	20.812945
415.105474	-2.992000	3.753600	-11.230000	23.590615	0.001048	20.808377
416.102722	-3.000700	3.751700	-11.257000	23.572837	0.001049	20.805254
417.105767	-2.988200	3.751400	-11.209000	23.599525	0.001048	20.794076
418.105009	-2.985100	3.750700	-11.195000	23.584089	0.001047	20.804681
419.104922	-3.002200	3.751800	-11.263000	23.603182	0.001050	20.813863
420.105403	-3.001700	3.750200	-11.255000	23.614286	0.001047	20.809822
421.103721	-3.005800	3.749100	-11.268000	23.626135	0.001047	20.816959
422.106314	-2.989400	3.752500	-11.216000	23.652198	0.001050	20.786663
423.106190	-2.997500	3.750700	-11.241000	23.683613	0.001047	20.805356
424.105038	-2.995000	3.749100	-11.228000	23.688887	0.001048	20.793574
425.101894	-3.010800	3.749400	-11.288000	23.703304	0.001048	20.790958
426.106627	-2.989900	3.750000	-11.210000	23.685277	0.001050	20.798489
427.104868	-2.998400	3.749200	-11.240000	23.711118	0.001047	20.795473
428.103158	-3.000900	3.747200	-11.244000	23.717093	0.001050	20.812369
429.106067	-3.007200	3.748400	-11.271000	23.725705	0.001049	20.800140
430.103693	-3.020700	3.747200	-11.318000	23.764633	0.001046	20.778478
431.101550	-2.995400	3.749000	-11.228000	23.763041	0.001048	20.784469
432.108512	-3.018300	3.746400	-11.306000	23.756896	0.001049	20.812920
433.101849	-3.003300	3.746800	-11.252000	23.765232	0.001051	20.785717
434.103924	-3.002000	3.746600	-11.246000	23.778924	0.001051	20.804661
435.105263	-3.015100	3.745100	-11.290000	23.751746	0.001051	20.779308
436.105483	-2.998000	3.747000	-11.232000	23.737707	0.001050	20.796526
437.107158	-3.004200	3.746300	-11.254000	23.733626	0.001051	20.789116
438.106789	-2.998900	3.745000	-11.230000	23.709479	0.001050	20.779605
439.104477	-3.016000	3.744700	-11.292000	23.699875	0.001052	20.805538
440.106429	-2.976500	3.745200	-11.146000	23.709606	0.001051	20.779732
441.105038	-2.994900	3.745200	-11.216000	23.727926	0.001052	20.779608
442.106870	-3.011000	3.742700	-11.268000	23.730568	0.001052	20.806913
443.113515	-2.996000	3.745000	-11.219000	23.725812	0.001053	20.795032
444.104406	-2.997600	3.742400	-11.217000	23.705181	0.001050	20.786202
445.104671	-3.010000	3.742800	-11.264000	23.698684	0.001052	20.805766
446.109074	-2.980700	3.743700	-11.157000	23.713248	0.001050	20.802351
447.107830	-3.014600	3.740800	-11.276000	23.750085	0.001051	20.784755
448.104934	-3.022300	3.741900	-11.307000	23.770249	0.001052	20.778420
449.108350	-3.002500	3.741800	-11.233000	23.795313	0.001051	20.797386
450.107064	-2.997300	3.740600	-11.210000	23.833969	0.001052	20.790152
451.110188	-3.005700	3.739900	-11.239000	23.835116	0.001053	20.774706
452.110034	-2.967300	3.740700	-11.098000	23.828097	0.001052	20.789479
453.111530	-2.971800	3.742200	-11.120000	23.821031	0.001051	20.777653
454.112266	-3.019100	3.738800	-11.287000	23.812345	0.001052	20.763728
455.113140	-2.987200	3.739200	-11.169000	23.820835	0.001053	20.804010
456.112557	-2.996700	3.739300	-11.203000	23.802667	0.001053	20.771094
457.110730	-2.992400	3.738400	-11.186000	23.764340	0.001053	20.775340
458.112074	-2.970000	3.739000	-11.104000	23.758767	0.001054	20.768329
459.110049	-2.990700	3.739100	-11.182000	23.751970	0.001054	20.774317
460.112868	-2.991500	3.737700	-11.180000	23.776537	0.001055	20.775240
461.110901	-2.985600	3.738600	-11.162000	23.767079	0.001056	20.781405
462.111873	-2.989500	3.737600	-11.173000	23.788359	0.001057	20.780456
463.111125	-3.008100	3.737500	-11.242000	23.815661	0.001056	20.757570
464.113573	-2.975500	3.736900	-11.118000	23.815092	0.001055	20.762689
465.111164	-2.990300	3.736400	-11.172000	23.842692	0.001055	20.785622
466.114133	-2.964800	3.737100	-11.079000	23.836468	0.001056	20.785545
467.112539	-3.015900	3.734400	-11.261000	23.894906	0.001054	20.758319
468.112911	-2.994300	3.735400	-11.183000	23.879923	0.001053	20.754201
469.116184	-2.991000	3.735100	-11.171000	23.857475	0.001056	20.778160
470.113256	-3.015200	3.734000	-11.258000	23.896970	0.001055	20.785520
471.117904	-3.017500	3.732700	-11.263000	23.887461	0.001051	20.767924
472.115891	-3.018100	3.733400	-11.267000	23.878229	0.001056	20.782849
473.115092	-2.994500	3.735000	-11.183000	23.901174	0.001055	20.794003
474.114913	-3.009900	3.733600	-11.237000	23.882435	0.001057	20.770471
475.112988	-3.011200	3.734500	-11.245000	23.872604	0.001054	20.775786
476.117325	-3.019800	3.732600	-11.272000	23.847842	0.001052	20.776087
477.119258	-2.999800	3.732700	-11.196000	23.862130	0.001054	20.752006
478.117859	-3.000800	3.733200	-11.202000	23.852175	0.001055	20.762887
479.116449	-3.001300	3.731900	-11.199000	23.874949	0.001055	20.744472
480.123738	-2.998500	3.731800	-11.189000	23.837419	0.001056	20.764213
481.120218	-2.969600	3.732800	-11.084000	23.857404	0.001053	20.766234
482.116933	-2.985100	3.732800	-11.141000	23.863999	0.001057	20.770951
483.121266	-3.002200	3.730300	-11.198000	23.885973	0.001055	20.761217
484.120693	-3.001100	3.730100	-11.194000	23.908822	0.001056	20.777964
485.117147	-3.017800	3.729600	-11.255000	23.926738	0.001059	20.769851
486.126967	-2.990400	3.729100	-11.151000	23.935922	0.001058	20.762465
487.115664	-3.006000	3.729300	-11.209000	23.966409	0.001057	20.760795
488.116000	-2.992700	3.730000	-11.162000	23.972578	0.001056	20.752756
489.122745	-2.985100	3.728600	-11.130000	23.991567	0.001056	20.786973
490.121644	-3.003800	3.727300	-11.195000	24.024414	0.001056	20.781506
491.120656	-3.038900	3.727000	-11.325000	24.032776	0.001056	20.768081
492.125703	-2.979200	3.728500	-11.107000	24.054175	0.001059	20.761567
493.118604	-2.994300	3.727700	-11.161000	24.049521	0.001059	20.766383
494.117317	-2.978000	3.728000	-11.101000	24.085524	0.001057	20.761239
495.126642	-2.998300	3.726900	-11.174000	24.077512	0.001060	20.777859
496.122516	-2.962700	3.727200	-11.042000	24.061264	0.001056	20.748287
497.121724	-3.021000	3.726400	-11.256000	24.047353	0.001057	20.761363
498.126259	-3.026300	3.724600	-11.271000	24.048073	0.001057	20.756869
499.125062	-3.006000	3.725900	-11.198000	24.020700	0.001056	20.760712
500.128181	-2.999000	3.725400	-11.172000	23.979167	0.001056	20.742294
501.126902	-3.027300	3.723200	-11.270000	23.980236	0.001057	20.757118
502.127194	-3.021600	3.724800	-11.253000	23.995889	0.001055	20.775660
503.126924	-3.026800	3.723800	-11.270000	24.005818	0.001054	20.741045
504.132337	-2.996100	3.724700	-11.159000	24.022421	0.001057	20.748213
505.125642	-2.996600	3.723400	-11.156000	24.000994	0.001059	20.768451
506.126253	-3.019400	3.722700	-11.240000	24.014730	0.001058	20.756621
507.124700	-2.968400	3.724100	-11.054000	23.985465	0.001055	20.758093
508.124210	-3.000700	3.723100	-11.171000	24.014381	0.001056	20.757694
509.125397	-2.990200	3.723100	-11.131000	23.996142	0.001056	20.764059
510.126270	-2.995200	3.720800	-11.144000	24.009232	0.001056	20.741150
511.133101	-2.979700	3.723100	-11.093000	23.987386	0.001056	20.754804
512.126074	-3.005300	3.720000	-11.178000	23.976536	0.001055	20.758148
513.128146	-3.010000	3.719700	-11.195000	23.968899	0.001056	20.747645
514.127733	-2.986700	3.720500	-11.110000	23.975294	0.001055	20.747419
515.128364	-3.008700	3.720000	-11.191000	23.978304	0.001056	20.751860
516.129017	-3.007000	3.719400	-11.183000	23.945857	0.001055	20.731650
517.125993	-2.998200	3.720900	-11.154000	23.955613	0.001056	20.738114
518.126122	-2.992500	3.720500	-11.132000	23.959517	0.001057	20.750564
519.133206	-3.016900	3.718900	-11.219000	24.009941	0.001055	20.749448
520.128295	-2.995400	3.718700	-11.138000	24.011332	0.001059	20.750843
521.131292	-2.981500	3.719500	-11.089000	24.030368	0.001057	20.751441
522.128676	-3.004200	3.718800	-11.170000	24.031764	0.001056	20.747625
523.130357	-2.991400	3.718900	-11.124000	24.027734	0.001058	20.738368
524.127862	-3.014300	3.718000	-11.206000	23.997672	0.001055	20.739989
525.131359	-2.988400	3.717100	-11.108000	23.991353	0.001059	20.736970
526.128174	-3.008600	3.716000	-11.179000	24.019149	0.001057	20.750622
527.128542	-3.002000	3.717000	-11.158000	24.034254	0.001058	20.744907
528.129593	-3.006000	3.716100	-11.169000	24.041445	0.001055	20.747377
529.128702	-3.004000	3.715200	-11.159000	24.078845	0.001056	20.722770
530.131767	-2.997300	3.716900	-11.140000	24.090342	0.001057	20.748527
531.131974	-3.000800	3.715800	-11.148000	24.097209	0.001057	20.747827
532.134695	-3.016100	3.714600	-11.203000	24.079367	0.001057	20.735622
533.132066	-3.033100	3.714600	-11.266000	24.089095	0.001057	20.749646
534.139923	-3.007700	3.713800	-11.169000	24.041965	0.001055	20.744579
535.135432	-2.992400	3.714000	-11.112000	24.039326	0.001058	20.735768
536.135378	-2.998000	3.714000	-11.134000	24.015961	0.001057	20.740312
537.129548	-3.009800	3.712300	-11.171000	24.017080	0.001055	20.748072
538.133540	-3.002300	3.712500	-11.144000	24.009512	0.001055	20.735741
539.134309	-3.020700	3.712900	-11.214000	24.010634	0.001055	20.741133
540.133035	-3.007000	3.711600	-11.159000	24.025161	0.001054	20.735314
541.136938	-3.004600	3.711900	-11.152000	24.035340	0.001055	20.747419
542.135825	-3.008500	3.711300	-11.164000	24.076695	0.001054	20.738633
543.133430	-2.996800	3.710800	-11.119000	24.074777	0.001054	20.732441
544.136285	-2.990200	3.710900	-11.096000	24.125140	0.001053	20.727950
545.134425	-3.007400	3.711300	-11.160000	24.113792	0.001054	20.741224
546.133562	-2.996900	3.710700	-11.119000	24.124789	0.001053	20.748461
547.138824	-3.014100	3.710400	-11.182000	24.128299	0.001053	20.744869
548.132806	-3.020300	3.709600	-11.202000	24.134939	0.001050	20.744891
549.133605	-2.996900	3.710600	-11.119000	24.149768	0.001053	20.737952
550.142101	-3.012200	3.708900	-11.170000	24.196865	0.001052	20.747733
551.138069	-2.992900	3.710500	-11.105000	24.192265	0.001051	20.736006
552.138164	-3.019100	3.707800	-11.194000	24.191938	0.001052	20.735678
553.137444	-3.001700	3.708800	-11.132000	24.213537	0.001054	20.732212
554.134374	-2.994700	3.708400	-11.104000	24.187710	0.001051	20.713893
555.132602	-3.011600	3.708200	-11.165000	24.168477	0.001053	20.743915
556.138326	-2.994100	3.707800	-11.099000	24.189950	0.001054	20.739849
557.138522	-2.982400	3.708000	-11.059000	24.167309	0.001053	20.743218
558.134525	-3.009000	3.705600	-11.149000	24.159297	0.001053	20.738975
559.137850	-2.980000	3.707900	-11.048000	24.180471	0.001053	20.736031
560.134178	-3.001500	3.706700	-11.124000	24.188010	0.001052	20.730316
561.143035	-2.999400	3.705500	-11.112000	24.186320	0.001052	20.740949
562.138240	-2.994700	3.706900	-11.100000	24.199432	0.001053	20.746041
563.138539	-3.014900	3.705200	-11.170000	24.197041	0.001051	20.741271
564.134797	-3.007300	3.706300	-11.144000	24.186542	0.001053	20.746862
565.138067	-2.988200	3.704900	-11.070000	24.167583	0.001054	20.722629
566.137682	-2.988600	3.704700	-11.071000	24.194109	0.001053	20.747813
567.137681	-2.981300	3.704900	-11.044000	24.200227	0.001054	20.731189
568.137746	-3.005800	3.704400	-11.133000	24.203863	0.001052	20.730095
569.137103	-2.999300	3.704400	-11.110000	24.213141	0.001052	20.745566
570.143711	-3.008300	3.703000	-11.139000	24.197195	0.001052	20.740951
571.142855	-2.993400	3.701300	-11.078000	24.207323	0.001052	20.763439
572.144119	-2.994300	3.702900	-11.087000	24.220982	0.001053	20.733042
573.142501	-2.999900	3.702400	-11.106000	24.213518	0.001052	20.733615
574.145616	-3.009000	3.702300	-11.139000	24.204539	0.001052	20.717496
575.143208	-2.993000	3.701900	-11.079000	24.199833	0.001053	20.732692
576.145141	-3.003800	3.700600	-11.115000	24.191302	0.001052	20.724609
577.141643	-3.011200	3.700700	-11.142000	24.222252	0.001054	20.721038
578.142406	-3.011800	3.701100	-11.144000	24.248053	0.001053	20.737436
579.141047	-2.983500	3.700400	-11.039000	24.262435	0.001053	20.745698
580.140667	-2.997500	3.699400	-11.088000	24.265815	0.001051	20.723484
581.143421	-3.003900	3.699000	-11.110000	24.298730	0.001051	20.730897
582.146091	-3.013300	3.698600	-11.144000	24.280545	0.001053	20.741106
583.155790	-3.011200	3.698900	-11.138000	24.308409	0.001053	20.721165
584.142947	-3.000800	3.699200	-11.099000	24.324302	0.001050	20.725728
585.144022	-3.005700	3.697000	-11.111000	24.300967	0.001052	20.739780
586.146110	-2.965900	3.698700	-10.969000	24.328707	0.001053	20.737734
587.144855	-2.985200	3.698400	-11.039000	24.317533	0.001052	20.717041
588.140354	-2.979400	3.698600	-11.019000	24.315494	0.001052	20.729221
589.142302	-3.002100	3.697600	-11.099000	24.320221	0.001052	20.744869
590.148544	-2.990800	3.697600	-11.057000	24.320416	0.001053	20.745065
591.142082	-3.005800	3.697600	-11.114000	24.350716	0.001053	20.744640
592.149093	-2.991700	3.697000	-11.058000	24.345687	0.001051	20.746234
593.144173	-2.992500	3.696000	-11.060000	24.373599	0.001051	20.736775
594.147192	-3.010100	3.695800	-11.124000	24.368224	0.001053	20.736124
595.147433	-2.998400	3.694500	-11.076000	24.381878	0.001051	20.745082
596.147312	-2.995100	3.695100	-11.067000	24.388792	0.001051	20.761975
597.144341	-2.995100	3.694500	-11.064000	24.374712	0.001053	20.753540
598.152069	-3.006000	3.693800	-11.102000	24.369161	0.001053	20.750342
599.146694	-3.032300	3.692500	-11.195000	24.353215	0.001052	20.747147
600.156698	-2.996600	3.694300	-11.070000	24.346097	0.001048	20.736213
601.148752	-2.999900	3.692900	-11.077000	24.363459	0.001050	20.746518
602.149685	-3.004600	3.692500	-11.093000	24.373308	0.001049	20.754028
603.148752	-3.010300	3.692000	-11.112000	24.375792	0.001050	20.756994
604.148270	-3.013400	3.691800	-11.122000	24.383058	0.001049	20.742946
605.147360	-3.010500	3.691600	-11.111000	24.405943	0.001046	20.745989
606.148331	-2.992800	3.693300	-11.052000	24.398823	0.001048	20.744063
607.149796	-2.984100	3.692800	-11.019000	24.411211	0.001050	20.750800
608.147408	-2.979300	3.691900	-10.999000	24.430962	0.001049	20.766349
609.153372	-2.995200	3.692300	-11.059000	24.424541	0.001050	20.748052
610.151424	-2.986000	3.692800	-11.025000	24.446902	0.001048	20.757684
611.149700	-3.004200	3.691300	-11.089000	24.405284	0.001048	20.750070
612.153409	-2.982700	3.692900	-11.014000	24.422148	0.001049	20.761299
613.149816	-2.979200	3.691200	-10.996000	24.435156	0.001047	20.764392
614.150761	-2.996900	3.689200	-11.055000	24.417020	0.001049	20.758051
615.150673	-2.978400	3.688500	-10.984000	24.435552	0.001048	20.765737
616.147801	-3.006500	3.688200	-11.086000	24.408285	0.001050	20.760668
617.152955	-3.027900	3.687500	-11.164000	24.407513	0.001048	20.761316
618.149844	-2.994900	3.688500	-11.046000	24.405994	0.001047	20.765481
619.151695	-3.005800	3.687100	-11.082000	24.378457	0.001045	20.754451
620.150471	-3.012400	3.687800	-11.108000	24.375618	0.001047	20.735482
621.150593	-3.027600	3.685800	-11.159000	24.404947	0.001045	20.763957
622.152165	-2.984300	3.688500	-11.006000	24.401336	0.001047	20.761757
623.151675	-2.986000	3.687300	-11.009000	24.431384	0.001044	20.761082
624.151957	-2.996900	3.687100	-11.048000	24.435116	0.001045	20.758661
625.153844	-3.005100	3.685500	-11.074000	24.475436	0.001045	20.760707
626.153890	-2.997900	3.685300	-11.047000	24.471106	0.001046	20.757785
627.152931	-3.017100	3.683800	-11.112000	24.478319	0.001046	20.776876
628.153202	-3.014400	3.684600	-11.106000	24.495882	0.001044	20.771737
629.152251	-3.004400	3.683800	-11.067000	24.491329	0.001044	20.762902
630.152390	-2.999100	3.684000	-11.048000	24.462921	0.001044	20.770910
631.156806	-2.993900	3.684700	-11.030000	24.460011	0.001044	20.774629
632.157876	-3.003100	3.682800	-11.059000	24.483641	0.001045	20.757559
633.157502	-3.016600	3.684100	-11.112000	24.470010	0.001044	20.784661
634.157473	-3.011300	3.682800	-11.088000	24.439015	0.001044	20.777747
635.156063	-2.992200	3.685400	-11.026000	24.449064	0.001042	20.781190
636.158216	-3.007300	3.681700	-11.070000	24.458041	0.001042	20.771705
637.154990	-2.988900	3.682800	-11.006000	24.470826	0.001044	20.775997
638.157883	-3.001400	3.681600	-11.049000	24.475951	0.001043	20.774500
639.159140	-2.983400	3.683000	-10.986000	24.459805	0.001041	20.770155
640.158162	-2.978400	3.682900	-10.968000	24.482142	0.001041	20.773124
641.156339	-3.009200	3.680300	-11.073000	24.485376	0.001042	20.759773
642.156466	-2.997700	3.680700	-11.033000	24.480598	0.001043	20.777739
643.161158	-2.995900	3.681200	-11.028000	24.483458	0.001041	20.778238
644.160771	-2.992800	3.681800	-11.018000	24.471390	0.001042	20.769450
645.160465	-3.026700	3.678900	-11.133000	24.483653	0.001042	20.787443
646.157730	-2.996000	3.679500	-11.021000	24.477908	0.001040	20.775989
647.162139	-2.995600	3.678700	-11.019000	24.492083	0.001041	20.784996
648.160948	-2.992200	3.680100	-11.009000	24.464271	0.001039	20.776059
649.158757	-3.007300	3.679300	-11.063000	24.452629	0.001040	20.774810
650.159008	-2.985000	3.679600	-10.983000	24.464096	0.001039	20.786788
651.158351	-2.994000	3.677600	-11.010000	24.451088	0.001038	20.780376
652.160166	-3.017300	3.677700	-11.094000	24.461134	0.001039	20.774333
653.157697	-3.008200	3.676900	-11.059000	24.491207	0.001036	20.784591
654.159979	-2.996600	3.677900	-11.020000	24.483794	0.001036	20.779050
655.157993	-3.007800	3.675500	-11.054000	24.515159	0.001039	20.811940
656.159705	-2.991800	3.677400	-11.001000	24.541376	0.001038	20.786088
657.163125	-3.016700	3.674500	-11.083000	24.545129	0.001039	20.787957
658.163574	-3.012300	3.675100	-11.069000	24.525880	0.001038	20.789980
659.160753	-2.996400	3.675100	-11.011000	24.516601	0.001039	20.789680
660.161742	-2.987400	3.674500	-10.976000	24.511625	0.001040	20.792748
661.164258	-3.024100	3.674200	-11.111000	24.478620	0.001039	20.789980
662.161283	-3.015300	3.674000	-11.077000	24.457875	0.001037	20.773909
663.164193	-3.006300	3.676200	-11.048000	24.447378	0.001038	20.792776
664.160702	-3.002700	3.674400	-11.032000	24.475856	0.001040	20.798113
665.164946	-2.987700	3.673300	-10.973000	24.496554	0.001038	20.775257
666.161962	-2.985800	3.671700	-10.962000	24.505306	0.001040	20.783563
667.165270	-2.989500	3.673400	-10.981000	24.498165	0.001040	20.787304
668.166590	-2.996500	3.672800	-11.005000	24.530875	0.001037	20.774604
669.165524	-3.007400	3.672900	-11.044000	24.532068	0.001039	20.796663
670.167254	-3.012800	3.673300	-11.066000	24.532963	0.001040	20.802303
671.167749	-3.020200	3.672300	-11.090000	24.537613	0.001036	20.792269
672.162866	-3.010300	3.670700	-11.047000	24.501646	0.001037	20.815927
673.164265	-3.048500	3.670200	-11.188000	24.519328	0.001036	20.811856
674.167400	-3.038600	3.670000	-11.151000	24.524697	0.001038	20.808708
675.164896	-3.005100	3.671000	-11.030000	24.500894	0.001038	20.796206
676.166205	-2.997700	3.671400	-11.005000	24.494077	0.001036	20.803118
677.163797	-2.995400	3.669600	-10.990000	24.479526	0.001036	20.808907
678.167012	-3.015100	3.668900	-11.060000	24.500543	0.001035	20.803440
679.168609	-2.988900	3.671200	-10.971000	24.524343	0.001037	20.799818
680.169897	-2.993000	3.669200	-10.981000	24.535482	0.001034	20.796770
681.171061	-3.014700	3.668400	-11.057000	24.531204	0.001036	20.812392
682.168777	-3.028200	3.668400	-11.107000	24.549085	0.001034	20.784814
683.170187	-3.014800	3.667000	-11.054000	24.572862	0.001032	20.806300
684.166130	-3.023000	3.666900	-11.082000	24.597208	0.001034	20.797063
685.169734	-3.013300	3.666700	-11.047000	24.647471	0.001034	20.814306
686.170094	-3.022600	3.666800	-11.082000	24.657394	0.001033	20.799133
687.167525	-3.008700	3.667000	-11.031000	24.638292	0.001033	20.826907
688.172141	-2.981900	3.665900	-10.930000	24.614042	0.001034	20.785504
689.170461	-3.012900	3.665600	-11.042000	24.648089	0.001032	20.801651
690.171365	-3.021500	3.666100	-11.076000	24.668855	0.001031	20.816798
691.171412	-3.002600	3.665400	-11.005000	24.657042	0.001035	20.808264
692.172787	-2.999100	3.666100	-10.994000	24.689894	0.001032	20.803296
693.180432	-3.021500	3.664200	-11.070000	24.688053	0.001032	20.823734
694.171819	-2.999400	3.665700	-10.994000	24.717000	0.001031	20.814376
695.171577	-3.009100	3.663600	-11.023000	24.726450	0.001030	20.819117
696.175994	-2.999800	3.664400	-10.992000	24.748756	0.001029	20.822061
697.174163	-2.981500	3.665200	-10.926000	24.724807	0.001032	20.810831
698.173989	-3.011400	3.664100	-11.033000	24.716624	0.001031	20.820636
699.174406	-2.997300	3.664100	-10.981000	24.692301	0.001030	20.813298
700.170437	-3.009900	3.662700	-11.023000	24.671513	0.001029	20.811878
701.178526	-3.012300	3.662800	-11.032000	24.629554	0.001029	20.828570
702.172850	-2.998300	3.663400	-10.983000	24.634306	0.001029	20.814373
703.175917	-3.000300	3.662600	-10.988000	24.628260	0.001028	20.823953
704.174826	-3.011100	3.660500	-11.021000	24.629306	0.001026	20.811253
705.178049	-2.997300	3.661700	-10.974000	24.664348	0.001027	20.811327
706.175834	-2.988900	3.661500	-10.942000	24.693224	0.001027	20.825130
707.178545	-2.990100	3.661200	-10.946000	24.698545	0.001026	20.807236
708.179006	-2.999900	3.662200	-10.984000	24.703792	0.001025	20.824829
709.174110	-2.996100	3.661800	-10.971000	24.737861	0.001027	20.815396
710.181035	-3.007600	3.660700	-11.009000	24.724931	0.001025	20.825653
711.177024	-3.028500	3.658800	-11.080000	24.714588	0.001026	20.814800
712.178821	-2.988600	3.659300	-10.935000	24.724011	0.001025	20.833264
713.179760	-3.010300	3.657900	-11.010000	24.716901	0.001026	20.831345
714.177363	-2.997600	3.658000	-10.964000	24.731029	0.001026	20.825609
715.179442	-3.010200	3.657300	-11.008000	24.731251	0.001026	20.833418
716.181730	-3.028200	3.658300	-11.076000	24.757115	0.001025	20.836613
717.182247	-3.007900	3.656600	-10.998000	24.770470	0.001023	20.834369
718.181289	-3.012600	3.657600	-11.017000	24.797676	0.001026	20.805248
719.183102	-2.976300	3.658600	-10.887000	24.781963	0.001024	20.817928
720.180573	-2.992200	3.658300	-10.945000	24.784424	0.001026	20.818501
721.183267	-2.993000	3.656100	-10.941000	24.788056	0.001026	20.844904
722.188367	-2.988700	3.656000	-10.925000	24.792706	0.001027	20.842933
723.181629	-2.985600	3.655000	-10.911000	24.794423	0.001025	20.838018
724.196012	-2.995600	3.657300	-10.955000	24.761226	0.001026	20.828885
725.184185	-2.968700	3.656100	-10.853000	24.749416	0.001028	20.837422
726.182769	-2.970200	3.657300	-10.862000	24.742329	0.001025	20.835526
727.181970	-2.992200	3.655400	-10.937000	24.718828	0.001024	20.845133
728.185048	-3.008900	3.654600	-10.994000	24.726138	0.001023	20.841089
729.180253	-2.988600	3.654500	-10.921000	24.706642	0.001023	20.832430
730.190453	-2.976700	3.655500	-10.880000	24.741035	0.001022	20.834227
731.186356	-3.015600	3.654000	-11.017000	24.743447	0.001021	20.827540
732.186518	-2.989800	3.653300	-10.922000	24.813648	0.001021	20.838346
733.182902	-2.980600	3.655200	-10.894000	24.814172	0.001023	20.840294
734.185294	-2.982600	3.653700	-10.897000	24.873352	0.001023	20.838996
735.186450	-3.017100	3.651900	-11.015000	24.869026	0.001021	20.853146
736.185918	-3.000700	3.652200	-10.958000	24.920245	0.001020	20.832008
737.189869	-2.988800	3.651900	-10.914000	24.932355	0.001020	20.837524
738.185916	-2.998600	3.652000	-10.949000	24.924274	0.001022	20.832259
739.184589	-3.002600	3.651700	-10.963000	24.873827	0.001019	20.857964
740.191382	-2.983900	3.652200	-10.897000	24.869822	0.001018	20.847307
741.185746	-3.011500	3.651100	-10.994000	24.889963	0.001020	20.844289
742.186637	-3.002200	3.650600	-10.959000	24.879694	0.001020	20.836826
743.190705	-3.009300	3.650200	-10.983000	24.876862	0.001017	20.846312
744.189592	-3.014300	3.648700	-10.998000	24.879345	0.001017	20.843114
745.186547	-2.990600	3.649400	-10.914000	24.895286	0.001018	20.855794
746.193871	-3.015400	3.648800	-11.001000	24.903043	0.001017	20.848881
747.183619	-2.997800	3.649600	-10.938000	24.932657	0.001019	20.845413
748.188003	-3.013800	3.648900	-10.996000	24.957471	0.001018	20.853724
749.193100	-3.015000	3.647900	-10.997000	24.941536	0.001018	20.856221
750.187216	-3.001200	3.648700	-10.949000	24.914134	0.001017	20.849581
751.189206	-3.002500	3.647200	-10.949000	24.900859	0.001017	20.851430
752.189847	-2.999300	3.647700	-10.940000	24.891062	0.001016	20.854399
753.187741	-2.993800	3.646800	-10.916000	24.893174	0.001014	20.854623
754.187665	-3.003700	3.647200	-10.952000	24.913916	0.001014	20.861690
755.191694	-3.002600	3.646100	-10.946000	24.910955	0.001017	20.853029
756.184682	-3.008400	3.645500	-10.966000	24.899669	0.001014	20.856400
757.184596	-3.007000	3.646300	-10.963000	24.880648	0.001015	20.851060
758.190502	-3.020100	3.644900	-11.005000	24.881766	0.001016	20.856924
759.185389	-3.000400	3.645000	-10.935000	24.894497	0.001015	20.848365
760.187649	-2.987100	3.645400	-10.887000	24.905116	0.001012	20.876090
761.190827	-2.995200	3.644600	-10.915000	24.917995	0.001014	20.847292
762.195611	-3.019900	3.642600	-10.999000	24.952881	0.001016	20.853858
763.191490	-2.992600	3.644300	-10.905000	24.964243	0.001014	20.857676
764.190875	-3.013900	3.643200	-10.979000	24.984034	0.001013	20.863316
765.187915	-3.003700	3.643900	-10.943000	25.015656	0.001015	20.870400
766.191873	-2.992600	3.644700	-10.907000	24.998947	0.001014	20.863112
767.198106	-3.020900	3.641700	-11.000000	25.027787	0.001014	20.873094
768.193928	-3.014100	3.642600	-10.978000	25.022789	0.001016	20.865232
769.195184	-3.007800	3.642000	-10.953000	25.004863	0.001010	20.859093
770.194645	-3.014900	3.642700	-10.981000	25.013913	0.001012	20.866280
771.193748	-2.987200	3.642600	-10.881000	25.011823	0.001014	20.858493
772.196146	-3.012500	3.641900	-10.970000	25.022111	0.001013	20.877827
773.197412	-3.005500	3.642200	-10.945000	25.026090	0.001012	20.866650
774.191350	-2.996100	3.642500	-10.912000	25.032330	0.001010	20.872912
775.197112	-3.015600	3.639900	-10.975000	25.004111	0.001010	20.868295
776.191703	-3.006400	3.639900	-10.940000	25.019796	0.001011	20.859858
777.197197	-2.990500	3.641100	-10.888000	24.999981	0.001010	20.868891
778.193748	-3.019500	3.639700	-10.989000	25.019670	0.001013	20.868740
779.193648	-2.986100	3.640300	-10.869000	25.032347	0.001010	20.880042
780.193070	-3.000700	3.640800	-10.923000	25.027399	0.001013	20.872704
781.195704	-2.990300	3.638300	-10.879000	24.990529	0.001010	20.880265
782.196245	-3.005900	3.637600	-10.933000	24.990400	0.001011	20.873024
783.190854	-3.008900	3.638600	-10.947000	24.979981	0.001010	20.876790
784.196262	-2.990600	3.638700	-10.879000	24.970830	0.001012	20.873295
785.194002	-2.995700	3.638700	-10.900000	24.970231	0.001009	20.875539
786.200375	-2.986600	3.639200	-10.867000	24.985320	0.001009	20.892106
787.200318	-3.001400	3.637100	-10.916000	24.971495	0.001009	20.882971
788.198157	-2.987300	3.636700	-10.863000	24.945140	0.001010	20.894449
789.198899	-2.999600	3.637100	-10.909000	24.950259	0.001010	20.901958
790.204062	-3.015000	3.636200	-10.962000	24.963036	0.001010	20.893920
791.200114	-3.008200	3.635900	-10.936000	25.000229	0.001008	20.893794
792.196872	-3.008500	3.636800	-10.939000	25.016584	0.001009	20.895986
793.197461	-3.027000	3.635200	-11.003000	25.041694	0.001008	20.900801
794.200504	-2.991800	3.635900	-10.877000	25.055090	0.001009	20.880112
795.200761	-3.034700	3.633800	-11.026000	25.056183	0.001008	20.891639
796.200950	-3.009900	3.635900	-10.942000	25.046660	0.001008	20.914794
797.201830	-3.023100	3.633400	-10.982000	25.045413	0.001007	20.900742
798.200415	-2.994600	3.633700	-10.879000	25.059681	0.001007	20.908425
799.202186	-2.999900	3.634900	-10.902000	25.035714	0.001008	20.888162
800.201517	-2.994100	3.634100	-10.878000	25.042698	0.001006	20.893750
801.201573	-3.017600	3.634500	-10.966000	25.075437	0.001006	20.885836
802.204712	-2.985000	3.634000	-10.845000	25.063403	0.001004	20.875180
803.203482	-2.982500	3.633000	-10.835000	25.073567	0.001004	20.891546
804.204255	-3.014500	3.630500	-10.942000	25.047986	0.001007	20.885782
805.204414	-2.966700	3.632900	-10.778000	25.062476	0.001005	20.880887
806.204543	-2.999700	3.631400	-10.892000	25.077341	0.001005	20.883007
807.206087	-2.984700	3.631600	-10.838000	25.082683	0.001004	20.884102
808.204154	-2.983900	3.631100	-10.833000	25.084249	0.001002	20.898000
809.207599	-2.987600	3.632800	-10.852000	25.083351	0.001002	20.871497
810.203252	-2.996300	3.631900	-10.881000	25.091801	0.001003	20.900840
811.206127	-3.017400	3.630300	-10.953000	25.073180	0.001001	20.889735
812.207528	-2.994700	3.631500	-10.874000	25.080908	0.001001	20.877579
813.209986	-3.016800	3.628100	-10.943000	25.062907	0.001002	20.892699
814.204943	-3.010700	3.628500	-10.923000	25.057088	0.001003	20.880220
815.208257	-3.011800	3.627600	-10.924000	25.071007	0.001002	20.872381
816.206864	-3.010500	3.627200	-10.918000	25.091812	0.001002	20.881886
817.203680	-3.019200	3.627800	-10.952000	25.107374	0.001002	20.878543
818.208426	-3.009100	3.628100	-10.916000	25.112518	0.001001	20.884180
819.211681	-2.993100	3.627600	-10.857000	25.121787	0.001001	20.875468
820.206958	-3.005200	3.627900	-10.901000	25.153156	0.001000	20.860018
821.208250	-3.012900	3.626500	-10.925000	25.161502	0.001001	20.894947
822.205562	-3.005700	3.628900	-10.906000	25.180520	0.000999	20.893177
823.205644	-2.991500	3.627900	-10.852000	25.206618	0.000999	20.863429
824.208704	-3.014700	3.625800	-10.930000	25.188419	0.001000	20.880245
825.209765	-3.001600	3.626400	-10.884000	25.136364	0.000998	20.875402
826.208115	-3.003300	3.625800	-10.889000	25.160946	0.000997	20.884433
827.208004	-3.009000	3.624400	-10.905000	25.175759	0.000999	20.881286
828.205125	-2.990100	3.624800	-10.838000	25.195418	0.000998	20.876840
829.210018	-3.016400	3.623900	-10.930000	25.205833	0.000998	20.877339
830.207434	-3.004200	3.625800	-10.890000	25.196556	0.000996	20.878931
831.208031	-3.009400	3.623100	-10.902000	25.202072	0.000998	20.864556
832.210308	-3.026200	3.623300	-10.964000	25.186064	0.000996	20.870295
833.209535	-3.000400	3.623000	-10.870000	25.195829	0.000996	20.871090
834.209861	-3.010100	3.622500	-10.903000	25.214941	0.000995	20.862777
835.208027	-2.987300	3.623900	-10.824000	25.192717	0.000991	20.878396
836.212461	-3.001400	3.622300	-10.871000	25.174023	0.000993	20.853940
837.216569	-2.980200	3.623100	-10.796000	25.175413	0.000995	20.877619
838.213694	-2.978500	3.624100	-10.793000	25.171432	0.000994	20.868408
839.214380	-3.010600	3.621300	-10.901000	25.171801	0.000993	20.869726
840.214577	-3.002900	3.620900	-10.872000	25.152882	0.000993	20.863536
841.212293	-3.021600	3.620500	-10.939000	25.165906	0.000993	20.869973
842.213852	-2.997800	3.621500	-10.856000	25.132221	0.000991	20.874563
843.215079	-3.011300	3.621300	-10.903000	25.120013	0.000990	20.863256
844.211378	-2.978400	3.622300	-10.787000	25.141164	0.000989	20.875479
845.214733	-3.002700	3.620300	-10.870000	25.163882	0.000991	20.874579
846.216709	-3.010200	3.619400	-10.894000	25.158811	0.000988	20.868065
847.215645	-2.985000	3.621400	-10.809000	25.215956	0.000990	20.861425
848.215977	-3.006400	3.618600	-10.878000	25.212797	0.000989	20.872003
849.217262	-2.982500	3.619900	-10.795000	25.213890	0.000987	20.869307
850.217146	-2.987200	3.619900	-10.812000	25.215480	0.000988	20.882757
851.217497	-2.995600	3.618600	-10.837000	25.226887	0.000988	20.860545
852.222042	-2.993900	3.617300	-10.829000	25.200090	0.000985	20.866833
853.214309	-2.990900	3.617500	-10.819000	25.203169	0.000985	20.841476
854.218319	-2.988100	3.618400	-10.810000	25.224150	0.000984	20.857798
855.215826	-3.007000	3.618200	-10.878000	25.181097	0.000985	20.867206
856.220909	-2.983100	3.619300	-10.796000	25.169261	0.000986	20.866228
857.218962	-3.009500	3.615700	-10.880000	25.157307	0.000985	20.878883
858.222149	-3.018400	3.615800	-10.912000	25.170927	0.000985	20.854626
859.216723	-3.010100	3.615900	-10.883000	25.191661	0.000984	20.854578
860.226089	-2.987800	3.616400	-10.804000	25.194965	0.000984	20.863110
861.223909	-3.002300	3.614600	-10.851000	25.161654	0.000984	20.852903
862.220362	-2.999500	3.616700	-10.845000	25.154021	0.000984	20.868947
863.221409	-3.009500	3.613700	-10.874000	25.164909	0.000984	20.864230
864.230052	-2.999400	3.615600	-10.844000	25.167046	0.000984	20.854522
865.224098	-2.998600	3.613500	-10.835000	25.164907	0.000983	20.851901
866.223716	-2.988800	3.614300	-10.801000	25.127020	0.000983	20.858437
867.229554	-3.003800	3.613300	-10.853000	25.137189	0.000982	20.860110
868.225773	-3.013200	3.612200	-10.883000	25.098483	0.000983	20.854445
869.221743	-3.008000	3.612400	-10.865000	25.128287	0.000981	20.848329
870.226057	-3.004400	3.613000	-10.854000	25.126074	0.000982	20.838996
871.224346	-3.028800	3.611400	-10.937000	25.142378	0.000982	20.868638
872.224026	-3.010000	3.613100	-10.874000	25.158958	0.000980	20.853041
873.226980	-3.046000	3.611100	-10.998000	25.192861	0.000982	20.852938
874.225135	-3.002500	3.611800	-10.843000	25.207923	0.000981	20.850041
875.225815	-2.990500	3.611900	-10.801000	25.213714	0.000980	20.830726
876.231329	-2.996800	3.611200	-10.820000	25.211823	0.000979	20.844474
877.225800	-2.986200	3.611500	-10.783000	25.199890	0.000980	20.840554
878.230594	-2.973200	3.611600	-10.736000	25.191733	0.000978	20.860814
879.227370	-2.997400	3.611800	-10.824000	25.181194	0.000979	20.837432
880.235037	-3.008900	3.609400	-10.858000	25.225909	0.000978	20.837753
881.232697	-3.005400	3.609100	-10.846000	25.243505	0.000976	20.846410
882.230891	-3.015500	3.607500	-10.878000	25.254317	0.000974	20.854894
883.230399	-3.015500	3.608900	-10.881000	25.259883	0.000976	20.842940
884.235229	-3.010200	3.608000	-10.860000	25.271016	0.000975	20.857435
885.233042	-2.986700	3.607800	-10.774000	25.256349	0.000975	20.837968
886.233199	-2.995900	3.608200	-10.807000	25.256248	0.000974	20.842134
887.232006	-2.990100	3.607500	-10.786000	25.274117	0.000973	20.855808
888.234957	-2.973000	3.607500	-10.724000	25.260422	0.000973	20.833049
889.231490	-3.004000	3.606300	-10.832000	25.224104	0.000972	20.843054
890.241413	-2.996600	3.606900	-10.808000	25.226066	0.000970	20.828428
891.233826	-2.986500	3.608700	-10.776000	25.197403	0.000971	20.852282
892.238551	-2.982300	3.606800	-10.756000	25.179977	0.000971	20.843797
893.232030	-2.994300	3.606400	-10.798000	25.158598	0.000971	20.836559
894.236423	-3.007700	3.606200	-10.845000	25.182858	0.000972	20.831517
895.236461	-2.998300	3.605500	-10.809000	25.199686	0.000971	20.848884
896.235201	-2.987400	3.606300	-10.773000	25.226008	0.000971	20.844491
897.235143	-3.007700	3.604900	-10.842000	25.198465	0.000972	20.862831
898.233066	-2.984700	3.605000	-10.759000	25.150439	0.000971	20.839747
899.240421	-3.002200	3.604000	-10.819000	25.112403	0.000970	20.829066
900.235797	-3.001500	3.602700	-10.812000	25.080060	0.000971	20.831211
901.234202	-2.987500	3.603600	-10.764000	25.044355	0.000970	20.852268
902.232260	-2.983100	3.603100	-10.747000	25.060964	0.000971	20.831008
903.232790	-2.993800	3.602600	-10.784000	25.082017	0.000969	20.848348
904.237736	-3.011000	3.601800	-10.844000	25.084251	0.000969	20.851065
905.233794	-3.004500	3.602600	-10.823000	25.098075	0.000968	20.836967
906.235608	-3.014700	3.601000	-10.855000	25.128028	0.000967	20.836216
907.235484	-2.986500	3.602900	-10.759000	25.117286	0.000969	20.841079
908.236110	-3.007200	3.600400	-10.825000	25.103884	0.000965	20.835686
909.236929	-3.002800	3.600000	-10.808000	25.109725	0.000966	20.829222
910.236283	-3.011400	3.599600	-10.839000	25.125980	0.000966	20.847910
911.233232	-2.981400	3.602400	-10.739000	25.128839	0.000965	20.847461
912.236003	-3.035000	3.599000	-10.919000	25.180989	0.000964	20.820632
913.233963	-3.009500	3.599300	-10.831000	25.219763	0.000965	20.817359
914.239260	-3.000300	3.598900	-10.797000	25.214419	0.000965	20.851822
915.235745	-2.987800	3.601200	-10.759000	25.232562	0.000963	20.825467
916.235040	-2.980600	3.599000	-10.726000	25.247398	0.000964	20.824716
917.235062	-2.998200	3.598600	-10.787000	25.266139	0.000960	20.816504
918.233198	-2.995300	3.597800	-10.776000	25.266162	0.000963	20.824113
919.243601	-3.011200	3.597400	-10.831000	25.231061	0.000961	20.815900
920.232813	-3.002500	3.596200	-10.796000	25.209113	0.000960	20.853607
921.236147	-2.989000	3.596900	-10.750000	25.196731	0.000959	20.829323
922.242227	-2.987100	3.596700	-10.742000	25.219622	0.000958	20.841398
923.239173	-3.006500	3.596000	-10.810000	25.215421	0.000959	20.847612
924.234188	-3.015100	3.595100	-10.838000	25.245719	0.000958	20.831564
925.239623	-2.997700	3.596000	-10.778000	25.290037	0.000958	20.847136
926.247620	-2.985600	3.595800	-10.735000	25.308004	0.000956	20.831510
927.239465	-3.018700	3.594700	-10.849000	25.328135	0.000956	20.819481
928.242476	-3.018100	3.594000	-10.845000	25.279221	0.000956	20.827268
929.239148	-3.021800	3.594000	-10.860000	25.240244	0.000953	20.814214
930.238676	-3.018500	3.592800	-10.843000	25.255406	0.000955	20.832281
931.243869	-3.021300	3.593900	-10.857000	25.261919	0.000955	20.838820
932.252856	-3.031500	3.591800	-10.886000	25.284909	0.000952	20.836772
933.238314	-2.984400	3.593100	-10.721000	25.315232	0.000953	20.832604
934.242310	-2.981300	3.592400	-10.708000	25.336807	0.000953	20.833403
935.244103	-2.990800	3.593200	-10.746000	25.350275	0.000951	20.824167
936.240032	-3.007200	3.593000	-10.803000	25.360416	0.000952	20.813962
937.244284	-3.014400	3.591200	-10.823000	25.360191	0.000953	20.826064
938.245605	-3.010600	3.590300	-10.808000	25.371923	0.000951	20.811765
939.238689	-2.988900	3.591200	-10.733000	25.347491	0.000949	20.851243
940.241954	-3.014200	3.590600	-10.821000	25.313762	0.000951	20.836344
941.243476	-3.001800	3.590500	-10.777000	25.280257	0.000951	20.815032
942.238412	-2.995900	3.591400	-10.759000	25.243866	0.000949	20.833497
943.244989	-3.021700	3.590400	-10.848000	25.233452	0.000950	20.823989
944.242565	-2.993100	3.589200	-10.742000	25.227337	0.000948	20.821169
945.241672	-2.988900	3.589000	-10.726000	25.260270	0.000948	20.826259
946.240509	-2.999100	3.590200	-10.767000	25.268150	0.000948	20.808566
947.243003	-3.004400	3.589300	-10.783000	25.301307	0.000947	20.826209
948.238800	-3.026600	3.588400	-10.859000	25.314332	0.000947	20.812260
949.243522	-2.997600	3.588600	-10.756000	25.344431	0.000947	20.821619
950.242393	-2.996000	3.587700	-10.746000	25.360361	0.000945	20.833820
951.241865	-3.013800	3.587700	-10.811000	25.371172	0.000945	20.798684
952.245955	-2.991200	3.587800	-10.729000	25.387153	0.000944	20.807144
953.243681	-2.988000	3.586500	-10.716000	25.363493	0.000945	20.810887
954.240856	-3.016100	3.584800	-10.811000	25.342889	0.000943	20.819596
955.246947	-2.991700	3.586900	-10.729000	25.351490	0.000942	20.815430
956.245782	-3.003800	3.585400	-10.768000	25.387749	0.000942	20.837139
957.239792	-3.014900	3.586400	-10.811000	25.389591	0.000942	20.803427
958.239769	-3.016500	3.585300	-10.813000	25.389987	0.000942	20.812360
959.243384	-3.003300	3.584400	-10.764000	25.381237	0.000941	20.789824
960.243610	-3.009600	3.583800	-10.785000	25.414490	0.000940	20.808515
961.244200	-3.010500	3.584600	-10.790000	25.400002	0.000941	20.818149
962.244445	-3.029600	3.584200	-10.857000	25.433180	0.000939	20.788402
963.243508	-3.009400	3.583100	-10.781000	25.393066	0.000938	20.823986
964.252614	-2.994600	3.584300	-10.732000	25.409618	0.000942	20.805993
965.245537	-2.991900	3.581800	-10.715000	25.358569	0.000939	20.813530
966.244825	-3.011500	3.581600	-10.785000	25.327427	0.000939	20.801701
967.246025	-2.970200	3.582500	-10.639000	25.301301	0.000937	20.800126
968.244193	-2.984200	3.583100	-10.692000	25.322628	0.000937	20.791193
969.247117	-2.996500	3.582400	-10.734000	25.330879	0.000937	20.790943
970.247076	-2.986400	3.582400	-10.697000	25.316933	0.000937	20.814398
971.247552	-2.985900	3.581600	-10.692000	25.363933	0.000937	20.797105
972.247476	-2.987000	3.582700	-10.700000	25.377055	0.000936	20.803168
973.249638	-2.983600	3.582400	-10.687000	25.358587	0.000936	20.800745
974.249445	-3.008900	3.581200	-10.774000	25.350161	0.000936	20.802242
975.251195	-3.018200	3.578400	-10.799000	25.351427	0.000936	20.794031
976.246197	-2.991900	3.580200	-10.710000	25.371308	0.000937	20.804984
977.251669	-3.025200	3.578900	-10.825000	25.369195	0.000934	20.806181
978.248973	-3.015600	3.578600	-10.791000	25.390791	0.000936	20.789460
979.253784	-2.985600	3.579100	-10.684000	25.394816	0.000935	20.781648
980.251122	-3.012700	3.576900	-10.775000	25.394592	0.000931	20.780948
981.249730	-2.988800	3.580400	-10.700000	25.419963	0.000932	20.807373
982.255743	-3.007700	3.577400	-10.757000	25.392002	0.000933	20.786883
983.252653	-3.017500	3.577700	-10.794000	25.396673	0.000932	20.805323
984.250877	-3.000900	3.577500	-10.734000	25.403035	0.000932	20.788003
985.254715	-2.990200	3.577900	-10.697000	25.380441	0.000932	20.788076
986.251110	-3.011800	3.576400	-10.769000	25.425971	0.000931	20.802025
987.249853	-2.989200	3.576100	-10.689000	25.409964	0.000932	20.795909
988.255147	-2.987900	3.576300	-10.684000	25.455591	0.000930	20.798104
989.250091	-2.975700	3.575600	-10.639000	25.499899	0.000931	20.782855
990.253407	-2.984200	3.576400	-10.671000	25.492093	0.000930	20.780232
991.253059	-2.995300	3.575700	-10.709000	25.508170	0.000928	20.784997
992.254114	-3.008800	3.573900	-10.752000	25.421560	0.000931	20.797597
993.253605	-3.005400	3.575100	-10.743000	25.426233	0.000929	20.768623
994.254405	-3.028200	3.572800	-10.817000	25.371628	0.000928	20.779227
995.253851	-2.967800	3.575000	-10.607000	25.342994	0.000928	20.786986
996.252310	-3.011500	3.572500	-10.757000	25.298576	0.000928	20.786958
997.258811	-2.999100	3.572200	-10.712000	25.293332	0.000926	20.794969
998.256495	-3.034500	3.571600	-10.837000	25.330687	0.000924	20.795491
999.257211	-3.014100	3.570500	-10.760000	25.352284	0.000924	20.780192
1000.258178	-3.028500	3.571500	-10.815000	25.366077	0.000924	20.780765
1001.257113	-3.025200	3.569500	-10.798000	25.369754	0.000924	20.780664
1002.256917	-3.015100	3.571800	-10.768000	25.369406	0.000923	20.779840
1003.258759	-2.994800	3.572600	-10.698000	25.411231	0.000922	20.756878
1004.258563	-3.011300	3.570800	-10.752000	25.441375	0.000922	20.803269
1005.258983	-3.003500	3.571100	-10.725000	25.418360	0.000923	20.813823
1006.260261	-3.009500	3.570400	-10.745000	25.385679	0.000921	20.773895
1007.256680	-3.008500	3.569400	-10.737000	25.390572	0.000920	20.791611
1008.260705	-3.002900	3.569500	-10.718000	25.380456	0.000921	20.795678
1009.262097	-3.012600	3.569800	-10.752000	25.390498	0.000920	20.779208
1010.261902	-2.998700	3.568800	-10.701000	25.354781	0.000918	20.794554
1011.257843	-3.007100	3.568000	-10.728000	25.347896	0.000919	20.779580
1012.267549	-3.004500	3.566700	-10.716000	25.304401	0.000917	20.780004
1013.260458	-3.022000	3.566800	-10.778000	25.306511	0.000917	20.775010
1014.259822	-3.002000	3.567100	-10.707000	25.301964	0.000917	20.780876
1015.262975	-3.001800	3.566600	-10.705000	25.299153	0.000915	20.805081
1016.260719	-2.986900	3.566600	-10.653000	25.295177	0.000915	20.787813
1017.260149	-3.017100	3.565800	-10.756000	25.305664	0.000916	20.780798
1018.260371	-2.999900	3.566200	-10.697000	25.327414	0.000914	20.770867
1019.261598	-2.996600	3.565300	-10.682000	25.357288	0.000916	20.767672
1020.261834	-2.982800	3.565900	-10.635000	25.359126	0.000913	20.766673
1021.265871	-2.982600	3.565100	-10.632000	25.384873	0.000913	20.792526
1022.261034	-2.975300	3.564500	-10.602000	25.379878	0.000914	20.787985
1023.263118	-2.979400	3.563400	-10.615000	25.395930	0.000915	20.764748
1024.260817	-2.996600	3.564300	-10.679000	25.415416	0.000912	20.780047
1025.261491	-2.999200	3.563800	-10.686000	25.430227	0.000912	20.764100
1026.267568	-2.988000	3.564000	-10.648000	25.417575	0.000911	20.784586
1027.264075	-3.010600	3.562800	-10.725000	25.457264	0.000910	20.766119
1028.264787	-2.985500	3.562600	-10.635000	25.448340	0.000910	20.762848
1029.270364	-2.992200	3.564200	-10.664000	25.462753	0.000911	20.758355
1030.267969	-2.987500	3.561800	-10.640000	25.500775	0.000909	20.776622
1031.263468	-2.996100	3.560300	-10.666000	25.518915	0.000907	20.760699
1032.263170	-3.019700	3.560100	-10.749000	25.525376	0.000909	20.782362
1033.265062	-2.978000	3.560200	-10.600000	25.544756	0.000906	20.780487
1034.262976	-3.007000	3.560300	-10.705000	25.507256	0.000907	20.782657
1035.273769	-2.972200	3.560600	-10.582000	25.537599	0.000906	20.772351
1036.268237	-2.995800	3.559400	-10.662000	25.558520	0.000906	20.770128
1037.267688	-2.969800	3.560000	-10.571000	25.569006	0.000905	20.773547
1038.267360	-2.980400	3.558900	-10.606000	25.579441	0.000903	20.786397
1039.264309	-3.010200	3.558400	-10.710000	25.611992	0.000904	20.773096
1040.265481	-3.012200	3.560200	-10.723000	25.586795	0.000905	20.783352
1041.272604	-2.993100	3.558500	-10.649000	25.588160	0.000904	20.776188
1042.269872	-2.988300	3.558000	-10.631000	25.550091	0.000905	20.777310
1043.268777	-3.003000	3.558500	-10.684000	25.565967	0.000904	20.792306
1044.272735	-3.000400	3.557100	-10.670000	25.589102	0.000904	20.767650
1045.268762	-3.004700	3.556600	-10.685000	25.629926	0.000903	20.760761
1046.270346	-3.022900	3.556100	-10.748000	25.629079	0.000903	20.775084
1047.271013	-2.981300	3.555300	-10.598000	25.626070	0.000903	20.760682
1048.271577	-3.005500	3.556300	-10.687000	25.645699	0.000900	20.796043
1049.271812	-3.017100	3.555700	-10.727000	25.650915	0.000900	20.766668
1050.267474	-3.029900	3.555000	-10.771000	25.672058	0.000900	20.763722
1051.273914	-3.017100	3.554000	-10.722000	25.663709	0.000900	20.792795
1052.268389	-2.999200	3.556100	-10.664000	25.638215	0.000897	20.773353
1053.273240	-3.026300	3.553300	-10.752000	25.588417	0.000897	20.794464
1054.271601	-2.990500	3.555500	-10.631000	25.601065	0.000897	20.787726
1055.273422	-2.992300	3.554400	-10.635000	25.619228	0.000896	20.797433
1056.273252	-3.003500	3.553800	-10.672000	25.649514	0.000896	20.790866
1057.277187	-3.026600	3.552200	-10.750000	25.656569	0.000893	20.776615
1058.275984	-2.986000	3.553900	-10.610000	25.674259	0.000895	20.773520
1059.271037	-2.995900	3.552600	-10.642000	25.664468	0.000893	20.797825
1060.277270	-2.985500	3.552300	-10.605000	25.621408	0.000892	20.780656
1061.276594	-3.002600	3.551400	-10.662000	25.629729	0.000894	20.789487
1062.276001	-3.017300	3.552200	-10.717000	25.590419	0.000892	20.780827
1063.276056	-2.994800	3.551200	-10.634000	25.570439	0.000891	20.796797
1064.277909	-3.000400	3.550900	-10.654000	25.581373	0.000892	20.778854
1065.277447	-3.011200	3.550500	-10.690000	25.600530	0.000892	20.792878
1066.273061	-2.990800	3.550200	-10.616000	25.625971	0.000890	20.782868
1067.272914	-3.002900	3.550600	-10.660000	25.659964	0.000892	20.772438
1068.277066	-2.985900	3.551400	-10.603000	25.679914	0.000891	20.774457
1069.274693	-3.005500	3.549100	-10.666000	25.685977	0.000889	20.789556
1070.279860	-3.001100	3.548200	-10.647000	25.717703	0.000888	20.780171
1071.278539	-3.013700	3.548000	-10.691000	25.721305	0.000888	20.798487
1072.277572	-3.001200	3.548400	-10.647000	25.707689	0.000887	20.775328
1073.281243	-2.998600	3.548100	-10.638000	25.710470	0.000886	20.787131
1074.278358	-2.988500	3.548900	-10.604000	25.727511	0.000887	20.782436
1075.274776	-3.014900	3.547300	-10.694000	25.734369	0.000886	20.785057
1076.279534	-3.008500	3.547700	-10.672000	25.740481	0.000886	20.786929
1077.279191	-3.010200	3.545600	-10.671000	25.728330	0.000884	20.769034
1078.275331	-2.981400	3.546400	-10.572000	25.720653	0.000887	20.776970
1079.278460	-3.002800	3.545000	-10.643000	25.733323	0.000883	20.780687
1080.279286	-3.003900	3.545900	-10.651000	25.704006	0.000882	20.801026
1081.280070	-3.004500	3.544500	-10.648000	25.678835	0.000882	20.791392
1082.277656	-3.024800	3.543200	-10.716000	25.645813	0.000883	20.790467
1083.281326	-3.013300	3.543500	-10.676000	25.577356	0.000881	20.776243
1084.282316	-2.997700	3.544200	-10.623000	25.539759	0.000881	20.787323
1085.281517	-2.986800	3.544400	-10.586000	25.500618	0.000881	20.799699
1086.281979	-2.985300	3.543600	-10.578000	25.510334	0.000881	20.793809
1087.279369	-3.003900	3.543200	-10.643000	25.480141	0.000878	20.789092
1088.284915	-2.993200	3.543900	-10.606000	25.477927	0.000878	20.809628
1089.284666	-2.997300	3.541300	-10.613000	25.495273	0.000880	20.789115
1090.284130	-3.007700	3.540900	-10.648000	25.516418	0.000879	20.800393
1091.290584	-2.985800	3.541000	-10.571000	25.563334	0.000877	20.803412
1092.283907	-3.000700	3.542000	-10.627000	25.579410	0.000877	20.792055
1093.290909	-3.021300	3.541100	-10.698000	25.585149	0.000879	20.795449
1094.292115	-3.022900	3.539700	-10.699000	25.613575	0.000877	20.808351
1095.286022	-3.002400	3.540500	-10.630000	25.600901	0.000876	20.817907
1096.281507	-2.995700	3.540500	-10.604000	25.592029	0.000876	20.788608
1097.288823	-2.997400	3.539000	-10.607000	25.598016	0.000874	20.787509
1098.286139	-2.999800	3.539500	-10.617000	25.539721	0.000874	20.808147
1099.286382	-3.004500	3.539400	-10.633000	25.545013	0.000871	20.779796
1100.287997	-3.004700	3.537700	-10.628000	25.551548	0.000871	20.787782
1101.286429	-3.004400	3.538600	-10.630000	25.549384	0.000871	20.774229
1102.285201	-3.002200	3.538300	-10.621000	25.583601	0.000871	20.810963
1103.288550	-3.007300	3.537100	-10.636000	25.589390	0.000869	20.793070
1104.285915	-3.010600	3.537400	-10.649000	25.638960	0.000869	20.797336
1105.288586	-3.008500	3.537000	-10.640000	25.619702	0.000867	20.812133
1106.294666	-3.026100	3.535300	-10.697000	25.605191	0.000865	20.802301
1107.290820	-3.010200	3.536000	-10.642000	25.598382	0.000865	20.803523
1108.293634	-3.035400	3.533400	-10.724000	25.568265	0.000865	20.803623
1109.294318	-2.995400	3.535500	-10.590000	25.532829	0.000866	20.798855
1110.294755	-3.018600	3.534400	-10.668000	25.509794	0.000865	20.804172
1111.295053	-3.029200	3.534000	-10.704000	25.491851	0.000864	20.804170
1112.298572	-2.997400	3.535200	-10.595000	25.456885	0.000863	20.792766
1113.295082	-3.000100	3.534200	-10.602000	25.445031	0.000864	20.801251
1114.294533	-3.002300	3.533900	-10.607000	25.450646	0.000864	20.818269
1115.297513	-3.002500	3.534000	-10.610000	25.486481	0.000864	20.808261
1116.296545	-2.982000	3.534300	-10.537000	25.517916	0.000863	20.809483
1117.298053	-3.040500	3.532300	-10.739000	25.555514	0.000861	20.806938
1118.302256	-3.004700	3.532000	-10.612000	25.555313	0.000859	20.817641
1119.297749	-2.987000	3.532200	-10.550000	25.568234	0.000863	20.789366
1120.297515	-3.002600	3.531800	-10.604000	25.578868	0.000860	20.825651
1121.301896	-2.990500	3.530400	-10.556000	25.567537	0.000860	20.797202
1122.299040	-3.012700	3.529300	-10.632000	25.604635	0.000860	20.804588
1123.299554	-3.004900	3.528500	-10.601000	25.609677	0.000860	20.798746
1124.296254	-2.985000	3.530900	-10.538000	25.616435	0.000858	20.810749
1125.298521	-2.985300	3.531000	-10.540000	25.614747	0.000858	20.815691
1126.299139	-3.017700	3.529100	-10.647000	25.624734	0.000859	20.812919
1127.303718	-3.001900	3.529100	-10.593000	25.630846	0.000857	20.824274
1128.303345	-3.010800	3.529200	-10.625000	25.655668	0.000856	20.812220
1129.301273	-2.998500	3.529200	-10.581000	25.663767	0.000855	20.833629
1130.302726	-2.992800	3.528600	-10.560000	25.645281	0.000855	20.823598
1131.301271	-2.986000	3.527500	-10.532000	25.632881	0.000853	20.821576
1132.303376	-3.002600	3.528000	-10.592000	25.645626	0.000852	20.842436
1133.304607	-2.998100	3.527900	-10.575000	25.655764	0.000853	20.831282
1134.303761	-3.017900	3.526600	-10.642000	25.670596	0.000852	20.820575
1135.306406	-2.999700	3.527400	-10.580000	25.689156	0.000852	20.835422
1136.310218	-3.013000	3.526500	-10.624000	25.688684	0.000849	20.823569
1137.306705	-3.000300	3.525300	-10.575000	25.724959	0.000850	20.813063
1138.307084	-2.996300	3.524500	-10.558000	25.718177	0.000848	20.813363
1139.305753	-2.992400	3.525100	-10.546000	25.692683	0.000846	20.832327
1140.306355	-2.999800	3.523600	-10.569000	25.684859	0.000848	20.828262
1141.307962	-3.037600	3.522700	-10.699000	25.683293	0.000848	20.832379
1142.304195	-3.010200	3.525400	-10.611000	25.681627	0.000847	20.809844
1143.309025	-3.013400	3.522200	-10.612000	25.692138	0.000846	20.827039
1144.306960	-3.031600	3.522100	-10.676000	25.698200	0.000844	20.826488
1145.308293	-3.018800	3.522200	-10.631000	25.725756	0.000844	20.812915
1146.310862	-3.005800	3.521600	-10.585000	25.708314	0.000843	20.820052
1147.311329	-3.000500	3.521900	-10.566000	25.701060	0.000844	20.826990
1148.309842	-2.984800	3.523400	-10.515000	25.688512	0.000845	20.827189
1149.313131	-3.000800	3.520800	-10.564000	25.667294	0.000844	20.826267
1150.311763	-2.984500	3.521200	-10.508000	25.674029	0.000844	20.833031
1151.308528	-3.001000	3.520900	-10.565000	25.669134	0.000842	20.830486
1152.314863	-3.006400	3.521100	-10.584000	25.616036	0.000841	20.824098
1153.310805	-3.016600	3.517500	-10.610000	25.600656	0.000843	20.832833
1154.309822	-3.002000	3.518800	-10.563000	25.608309	0.000841	20.825821
1155.314478	-3.028500	3.518800	-10.655000	25.611763	0.000842	20.833556
1156.311097	-3.008200	3.518400	-10.583000	25.615166	0.000840	20.814690
1157.312070	-3.017800	3.518600	-10.617000	25.603737	0.000843	20.843039
1158.311726	-3.004400	3.517900	-10.568000	25.631540	0.000840	20.831609
1159.314610	-2.992100	3.518000	-10.525000	25.654128	0.000840	20.850501
1160.312919	-3.005600	3.517700	-10.572000	25.669532	0.000838	20.832308
1161.318357	-3.014400	3.516900	-10.600000	25.716738	0.000840	20.838470
1162.316421	-2.991000	3.517200	-10.520000	25.703247	0.000838	20.834402
1163.316634	-3.017800	3.515000	-10.606000	25.694601	0.000837	20.825244
1164.312234	-3.013200	3.514300	-10.588000	25.688538	0.000836	20.830060
1165.314575	-3.011400	3.515700	-10.586000	25.698651	0.000836	20.843062
1166.314955	-3.000700	3.515100	-10.547000	25.670151	0.000835	20.838146
1167.316102	-3.018200	3.513000	-10.602000	25.721036	0.000834	20.832356
1168.316897	-2.983800	3.515200	-10.488000	25.689159	0.000834	20.836373
1169.313638	-3.013500	3.513600	-10.585000	25.688115	0.000834	20.835326
1170.316040	-2.991600	3.514300	-10.512000	25.697582	0.000831	20.844359
1171.318726	-3.009800	3.512700	-10.571000	25.732440	0.000832	20.838595
1172.319285	-3.005700	3.513200	-10.557000	25.737608	0.000834	20.838096
1173.319446	-3.005500	3.512100	-10.554000	25.750826	0.000832	20.837622
1174.318501	-3.016200	3.511700	-10.590000	25.762678	0.000833	20.845733
1175.314794	-2.963000	3.514200	-10.412000	25.750502	0.000834	20.850573
1176.320795	-2.995900	3.512000	-10.521000	25.765310	0.000829	20.839843
1177.318132	-3.003100	3.511000	-10.543000	25.790876	0.000829	20.844186
1178.316601	-2.983500	3.511100	-10.474000	25.814849	0.000829	20.849301
1179.327365	-3.007900	3.510800	-10.558000	25.747846	0.000829	20.842689
1180.318009	-2.989800	3.511000	-10.495000	25.770305	0.000829	20.853394
1181.321158	-3.008400	3.509800	-10.558000	25.779225	0.000830	20.837225
1182.320693	-3.008600	3.509000	-10.555000	25.793236	0.000829	20.865996
1183.321488	-2.995000	3.508500	-10.507000	25.814850	0.000824	20.860207
1184.322878	-2.995300	3.508000	-10.507000	25.833855	0.000828	20.828565
1185.327668	-2.994000	3.507400	-10.500000	25.867044	0.000825	20.847205
1186.323912	-3.012100	3.506700	-10.561000	25.895040	0.000825	20.841665
1187.320070	-2.986100	3.506900	-10.470000	25.930614	0.000823	20.848952
1188.346475	-3.006000	3.507100	-10.541000	25.963575	0.000824	20.840816
1189.323668	-2.987700	3.507400	-10.477000	25.946535	0.000822	20.845034
1190.320415	-2.992100	3.505200	-10.487000	25.913324	0.000823	20.863825
1191.336438	-2.978800	3.506600	-10.444000	25.868062	0.000822	20.846332
1192.322421	-2.997700	3.505600	-10.507000	25.838301	0.000823	20.857212
1193.326856	-3.010000	3.504400	-10.547000	25.834450	0.000824	20.844808
1194.327510	-3.002300	3.504300	-10.520000	25.771770	0.000822	20.852495
1195.326019	-2.987800	3.504600	-10.470000	25.804489	0.000821	20.843636
1196.325367	-3.015200	3.502800	-10.561000	25.806402	0.000820	20.859307
1197.323719	-2.993400	3.504500	-10.489000	25.821880	0.000821	20.853518
1198.329082	-3.003200	3.501500	-10.515000	25.845033	0.000818	20.862077
1199.327313	-2.999700	3.502600	-10.506000	25.828562	0.000818	20.856912
1200.334656	-3.017900	3.501400	-10.566000	25.806924	0.000818	20.849875
1201.328674	-2.985500	3.502500	-10.456000	25.812887	0.000818	20.852071
1202.329744	-3.011500	3.500200	-10.540000	25.810278	0.000817	20.881691
1203.328050	-3.014000	3.500200	-10.548000	25.841754	0.000816	20.832232
1204.331758	-2.994900	3.503100	-10.489000	25.861503	0.000817	20.853966
1205.324557	-3.005300	3.499600	-10.517000	25.916280	0.000813	20.869639
1206.332156	-3.019800	3.499500	-10.567000	25.913200	0.000814	20.866071
1207.326499	-3.016200	3.498700	-10.552000	25.938588	0.000814	20.868816
1208.328793	-3.018500	3.499600	-10.562000	25.955776	0.000813	20.841516
1209.329213	-2.983700	3.499100	-10.439000	25.966186	0.000814	20.862404
1210.329750	-2.995000	3.500000	-10.480000	25.983300	0.000810	20.865373
1211.330287	-2.990800	3.497800	-10.460000	25.989783	0.000811	20.863826
1212.331315	-3.007900	3.497800	-10.521000	25.968272	0.000812	20.874456
1213.330014	-3.015000	3.497100	-10.542000	25.961939	0.000811	20.852922
1214.326803	-3.011000	3.496400	-10.526000	25.919687	0.000810	20.874009
1215.330245	-2.986100	3.498400	-10.446000	25.886201	0.000811	20.853173
1216.328782	-3.015800	3.496900	-10.543000	25.864191	0.000810	20.861882
1217.335257	-3.006600	3.494800	-10.507000	25.884586	0.000811	20.877154
1218.333254	-3.012000	3.496600	-10.531000	25.866923	0.000808	20.872686
1219.332307	-3.007900	3.495000	-10.512000	25.859421	0.000810	20.847607
1220.332991	-3.007700	3.494500	-10.510000	25.853707	0.000810	20.875531
1221.334410	-2.988900	3.495000	-10.445000	25.875891	0.000810	20.853247
1222.333426	-3.020100	3.493700	-10.550000	25.869729	0.000806	20.873608
1223.330960	-2.998600	3.493900	-10.476000	25.876040	0.000807	20.872836
1224.332414	-2.994500	3.492700	-10.458000	25.895018	0.000805	20.874358
1225.333055	-2.989100	3.492200	-10.437000	25.906195	0.000807	20.865671
1226.335718	-2.997600	3.492900	-10.468000	25.919461	0.000808	20.877101
1227.333570	-3.015700	3.491800	-10.529000	25.927582	0.000803	20.855390
1228.332699	-3.030400	3.491100	-10.578000	25.922044	0.000804	20.868317
1229.335044	-2.998700	3.491100	-10.466000	25.943654	0.000806	20.879121
1230.336112	-3.011500	3.491900	-10.514000	25.963947	0.000805	20.901877
1231.333835	-3.020800	3.489500	-10.539000	25.991419	0.000803	20.877797
1232.332381	-3.010500	3.489700	-10.505000	25.951800	0.000800	20.879244
1233.336362	-3.001500	3.489600	-10.473000	25.964616	0.000802	20.903971
1234.338365	-3.008700	3.490100	-10.498000	25.969434	0.000803	20.865193
1235.337829	-2.995300	3.488700	-10.449000	25.995689	0.000799	20.865966
1236.340889	-2.986200	3.490200	-10.421000	26.033467	0.000800	20.869783
1237.339362	-2.974100	3.488900	-10.376000	26.035827	0.000798	20.865515
1238.338649	-3.009900	3.487700	-10.496000	26.053088	0.000799	20.874323
1239.342099	-2.990600	3.488700	-10.432000	26.038010	0.000798	20.857278
1240.340276	-2.974300	3.488000	-10.374000	26.022437	0.000795	20.889045
1241.337224	-3.003000	3.487100	-10.471000	26.004627	0.000798	20.891540
1242.347125	-2.988300	3.486900	-10.418000	25.986518	0.000799	20.892312
1243.343110	-2.999900	3.486200	-10.457000	25.992057	0.000797	20.879860
1244.340282	-3.014000	3.484500	-10.500000	26.000005	0.000796	20.895905
1245.343697	-2.965000	3.486500	-10.337000	26.027625	0.000796	20.893783
1246.340379	-2.991700	3.485200	-10.426000	26.033212	0.000795	20.898921
1247.341097	-2.974600	3.485100	-10.366000	26.001468	0.000795	20.904486
1248.347462	-2.999600	3.484600	-10.452000	26.000523	0.000793	20.885046
1249.346149	-2.981300	3.482800	-10.383000	26.020467	0.000791	20.911245
1250.338490	-3.004500	3.483300	-10.464000	26.024069	0.000791	20.880254
1251.343307	-2.996000	3.483300	-10.435000	26.058244	0.000793	20.895149
1252.337659	-3.015900	3.481800	-10.499000	26.033704	0.000791	20.901787
1253.342154	-2.961900	3.484500	-10.319000	26.046072	0.000790	20.900937
1254.347181	-3.016700	3.480900	-10.500000	25.986782	0.000789	20.905852
1255.341478	-2.974200	3.482800	-10.357000	25.952999	0.000786	20.908422
1256.342177	-3.014600	3.481000	-10.492000	25.949198	0.000786	20.913611
1257.345916	-2.987200	3.480200	-10.395000	25.958512	0.000786	20.906373
1258.343960	-2.987100	3.481800	-10.399000	25.937199	0.000787	20.912936
1259.342186	-2.996400	3.478900	-10.423000	25.896112	0.000784	20.906748
1260.345643	-3.015900	3.477700	-10.486000	25.900459	0.000786	20.911115
1261.343170	-2.976000	3.479600	-10.353000	25.893353	0.000785	20.913459
1262.342699	-2.998100	3.478800	-10.429000	25.921847	0.000783	20.913160
1263.348957	-2.975700	3.480100	-10.354000	25.956175	0.000786	20.910664
1264.344366	-2.984400	3.479000	-10.379000	25.938936	0.000783	20.900932
1265.345320	-3.003900	3.476500	-10.442000	25.913175	0.000785	20.900657
1266.353955	-2.975800	3.478700	-10.350000	25.894147	0.000781	20.903352
1267.350003	-2.997700	3.477800	-10.424000	25.912554	0.000781	20.896713
1268.348035	-3.007700	3.476100	-10.454000	25.923211	0.000781	20.928753
1269.351046	-3.000700	3.474800	-10.425000	25.948821	0.000782	20.908966
1270.354484	-2.990900	3.476600	-10.396000	25.968048	0.000781	20.910737
1271.351376	-3.003500	3.475900	-10.439000	25.916504	0.000782	20.927706
1272.352691	-2.987700	3.473900	-10.378000	25.921348	0.000780	20.922615
1273.351992	-2.982700	3.475200	-10.365000	25.928005	0.000779	20.911286
1274.352321	-2.998800	3.475100	-10.421000	25.941021	0.000778	20.939532
1275.350275	-2.991500	3.473600	-10.391000	25.950187	0.000777	20.917450
1276.358409	-2.995200	3.474400	-10.406000	25.933842	0.000777	20.919520
1277.354699	-3.019400	3.472200	-10.483000	25.936004	0.000777	20.948715
1278.352433	-2.978800	3.474100	-10.346000	25.953814	0.000775	20.924412
1279.351150	-3.004200	3.471900	-10.429000	25.954783	0.000777	20.939134
1280.355425	-3.001600	3.472600	-10.422000	25.937395	0.000776	20.907444
1281.356699	-3.004800	3.471600	-10.430000	25.902120	0.000774	20.941229
1282.356147	-2.985300	3.471000	-10.361000	25.915286	0.000777	20.929327
1283.356490	-2.993500	3.470500	-10.388000	25.938439	0.000775	20.921293
1284.359709	-2.998900	3.468900	-10.402000	25.972519	0.000772	20.910963
1285.357723	-3.008300	3.469500	-10.436000	25.982529	0.000774	20.914381
1286.353017	-3.022300	3.468100	-10.480000	25.956646	0.000773	20.922990
1287.357372	-2.993900	3.468700	-10.384000	25.985536	0.000771	20.930676
1288.353797	-2.977100	3.470200	-10.330000	25.992963	0.000772	20.915854
1289.356779	-2.991300	3.468400	-10.373000	25.951383	0.000772	20.930977
1290.354815	-2.966200	3.467700	-10.284000	25.983997	0.000770	20.915856
1291.357693	-3.015600	3.466800	-10.453000	26.017703	0.000770	20.926011
1292.357950	-3.002000	3.466300	-10.405000	26.030496	0.000769	20.911365
1293.358108	-3.012200	3.465600	-10.438000	26.083674	0.000769	20.902681
1294.358036	-3.011300	3.465600	-10.433000	26.076224	0.000769	20.919376
1295.356865	-3.024000	3.464800	-10.476000	26.120979	0.000769	20.914085
1296.355129	-2.996700	3.464700	-10.381000	26.145095	0.000768	20.916032
1297.356799	-2.994600	3.464700	-10.374000	26.137496	0.000767	20.912190
1298.358352	-3.020300	3.462400	-10.456000	26.097757	0.000769	20.931053
1299.355860	-2.990600	3.464900	-10.360000	26.075504	0.000765	20.887362
1300.357353	-2.995600	3.464100	-10.375000	26.019122	0.000768	20.888559
1301.359520	-3.003900	3.464600	-10.406000	26.001833	0.000767	20.925239
1302.360487	-3.015900	3.462100	-10.440000	25.945199	0.000767	20.892526
1303.360305	-2.990900	3.462600	-10.355000	25.945795	0.000763	20.880323
1304.361040	-3.018600	3.461500	-10.448000	25.956402	0.000766	20.882445
1305.358622	-3.022300	3.460400	-10.456000	25.985191	0.000767	20.906151
1306.356361	-2.991600	3.461500	-10.354000	25.995673	0.000766	20.905776
1307.361135	-2.975200	3.461700	-10.298000	25.957518	0.000764	20.904427
1308.361310	-3.004400	3.460000	-10.395000	25.903764	0.000762	20.886936
1309.362805	-3.000500	3.460100	-10.381000	25.917700	0.000764	20.883392
1310.364205	-2.996800	3.461100	-10.372000	25.937721	0.000761	20.901608
1311.363344	-3.017400	3.458100	-10.434000	25.991399	0.000762	20.883465
1312.365126	-2.996400	3.459300	-10.365000	26.005136	0.000762	20.883517
1313.366901	-3.006300	3.456200	-10.389000	26.037871	0.000758	20.894120
1314.362940	-2.980600	3.457700	-10.305000	26.054859	0.000759	20.893171
1315.365351	-3.005200	3.457700	-10.390000	26.070731	0.000760	20.878773
1316.364009	-3.013200	3.457900	-10.418000	26.035536	0.000759	20.888456
1317.364767	-3.023700	3.455300	-10.446000	26.048450	0.000758	20.877250
1318.366940	-3.019600	3.456900	-10.436000	26.016011	0.000756	20.886856
1319.371390	-3.015500	3.456000	-10.421000	26.001358	0.000756	20.886359
1320.366030	-3.017700	3.454300	-10.424000	25.998525	0.000756	20.893469
1321.365230	-3.007200	3.454600	-10.388000	25.941270	0.000758	20.895216
1322.368569	-2.984500	3.455100	-10.310000	25.927233	0.000755	20.904822
1323.367353	-3.002300	3.455500	-10.374000	25.899635	0.000757	20.874728
1324.370456	-2.988400	3.455300	-10.325000	25.924575	0.000755	20.863748
1325.371033	-2.989700	3.453600	-10.324000	25.951800	0.000754	20.881141
1326.366998	-3.008200	3.451900	-10.382000	25.968766	0.000755	20.881116
1327.370983	-2.998200	3.452100	-10.349000	26.016903	0.000751	20.890123
1328.367314	-3.009800	3.452800	-10.390000	26.055180	0.000750	20.864571
1329.370174	-3.005900	3.451400	-10.374000	26.088711	0.000749	20.887355
1330.371838	-2.998900	3.452500	-10.352000	26.104184	0.000749	20.881091
1331.370324	-2.991300	3.451300	-10.322000	26.127778	0.000749	20.879669
1332.366752	-3.011300	3.451100	-10.392000	26.120403	0.000749	20.866569
1333.371278	-2.994900	3.451800	-10.336000	26.089010	0.000748	20.885285
1334.373725	-2.987400	3.450000	-10.305000	26.078479	0.000746	20.883239
1335.373899	-3.000600	3.450500	-10.352000	26.019590	0.000749	20.862953
1336.378778	-2.985200	3.449800	-10.298000	25.975749	0.000747	20.860632
1337.369423	-2.993400	3.449100	-10.324000	25.964473	0.000746	20.869217
1338.372938	-3.009200	3.447500	-10.373000	25.978308	0.000745	20.866522
1339.371761	-2.980100	3.449300	-10.277000	26.005806	0.000747	20.841518
1340.375562	-3.001100	3.447700	-10.346000	26.060575	0.000744	20.881371
1341.371943	-3.028200	3.446700	-10.437000	26.067107	0.000746	20.882718
1342.375338	-3.002800	3.446500	-10.348000	26.079104	0.000746	20.864427
1343.380809	-3.007100	3.444600	-10.357000	26.063258	0.000743	20.868895
1344.376485	-3.003900	3.446000	-10.350000	26.058465	0.000743	20.876880
1345.379347	-3.002600	3.444700	-10.343000	26.029479	0.000743	20.856768
1346.378251	-3.014300	3.445800	-10.386000	25.995972	0.000743	20.868621
1347.375270	-3.000600	3.444000	-10.333000	26.030745	0.000743	20.875108
1348.377315	-3.005100	3.443600	-10.347000	26.031466	0.000740	20.859238
1349.381549	-2.991700	3.444100	-10.303000	26.043663	0.000742	20.873388
1350.374057	-3.015100	3.443700	-10.382000	26.064875	0.000743	20.855347
1351.379702	-2.976000	3.444000	-10.248000	26.063061	0.000741	20.863956
1352.377458	-2.991900	3.443000	-10.300000	26.068327	0.000741	20.871616
1353.374914	-3.009800	3.441100	-10.356000	26.069643	0.000739	20.868198
1354.379126	-2.982400	3.443800	-10.270000	26.070338	0.000737	20.853724
1355.379492	-3.008700	3.440200	-10.349000	26.063683	0.000737	20.850356
1356.377559	-3.028900	3.440100	-10.417000	26.048730	0.000741	20.861411
1357.380894	-2.982500	3.441200	-10.262000	26.046296	0.000739	20.868448
1358.381497	-2.987500	3.441400	-10.280000	26.025358	0.000736	20.849783
1359.372511	-3.000700	3.439600	-10.321000	26.007549	0.000736	20.851330
1360.379665	-2.993500	3.439400	-10.295000	26.000892	0.000733	20.857444
1361.378504	-3.012400	3.438300	-10.356000	26.030078	0.000734	20.841248
1362.377054	-3.003500	3.439000	-10.327000	26.054841	0.000735	20.852377
1363.380969	-3.008500	3.439400	-10.347000	26.038821	0.000735	20.870895
1364.382903	-2.996500	3.438000	-10.301000	26.044831	0.000732	20.870295
1365.379674	-2.985900	3.437800	-10.264000	26.049527	0.000733	20.865056
1366.384732	-2.979100	3.437300	-10.239000	26.075680	0.000732	20.857669
1367.385121	-2.985200	3.437800	-10.261000	26.054569	0.000731	20.857795
1368.376907	-2.982700	3.437300	-10.251000	26.059389	0.000731	20.845094
1369.383924	-2.997300	3.436800	-10.299000	26.046126	0.000730	20.849311
1370.383429	-2.984800	3.436900	-10.257000	26.095876	0.000729	20.843348
1371.382062	-3.022900	3.434600	-10.379000	26.066295	0.000729	20.836386
1372.383291	-2.997500	3.434100	-10.293000	26.086117	0.000727	20.842077
1373.383962	-2.991300	3.435000	-10.274000	26.105615	0.000730	20.847443
1374.384485	-3.029200	3.433000	-10.398000	26.104001	0.000728	20.842503
1375.387702	-3.007000	3.434000	-10.325000	26.126901	0.000726	20.835641
1376.385258	-3.009700	3.433000	-10.331000	26.098488	0.000727	20.831749
1377.383365	-3.023100	3.431400	-10.372000	26.070696	0.000725	20.855980
1378.386748	-2.975400	3.432600	-10.213000	26.042754	0.000724	20.850665
1379.385242	-3.003200	3.431100	-10.303000	25.994369	0.000725	20.849468
1380.389151	-2.997700	3.430800	-10.283000	25.953659	0.000722	20.836544
1381.381993	-3.007400	3.431000	-10.317000	25.935054	0.000724	20.842034
1382.389880	-2.998200	3.431000	-10.285000	25.973184	0.000722	20.839564
1383.384248	-2.975500	3.430600	-10.207000	25.975172	0.000721	20.842984
1384.383731	-2.995700	3.430500	-10.275000	25.986451	0.000721	20.841039
1385.390234	-2.995900	3.429500	-10.274000	26.021698	0.000720	20.844683
1386.383574	-3.013300	3.428700	-10.331000	26.036032	0.000720	20.845334
1387.388677	-2.986500	3.429200	-10.239000	26.073438	0.000719	20.841666
1388.388856	-2.981500	3.428600	-10.220000	26.115488	0.000720	20.845985
1389.386212	-2.991600	3.428300	-10.255000	26.123362	0.000721	20.834456
1390.386977	-2.988100	3.426300	-10.236000	26.136651	0.000719	20.842120
1391.392071	-3.004000	3.427900	-10.297000	26.139931	0.000719	20.822656
1392.390017	-2.994600	3.427100	-10.262000	26.117604	0.000718	20.831516
1393.394459	-2.985100	3.426900	-10.228000	26.068973	0.000718	20.825801
1394.393557	-2.983300	3.425900	-10.220000	26.077520	0.000716	20.839604
1395.388456	-3.016400	3.425600	-10.332000	26.096147	0.000716	20.832241
1396.390907	-3.015200	3.424800	-10.326000	26.147434	0.000715	20.820713
1397.394283	-2.981500	3.424900	-10.210000	26.170260	0.000716	20.830373
1398.387335	-2.997300	3.424900	-10.264000	26.205377	0.000714	20.830573
1399.388384	-2.998600	3.425200	-10.269000	26.257453	0.000715	20.829799
1400.390731	-2.991600	3.423900	-10.241000	26.264532	0.000712	20.849240
1401.392054	-2.976600	3.424900	-10.193000	26.270071	0.000711	20.833470
1402.398949	-2.978600	3.422700	-10.194000	26.257182	0.000709	20.834742
1403.393915	-2.985000	3.421600	-10.213000	26.266445	0.000710	20.838835
1404.392168	-2.983400	3.421000	-10.205000	26.246232	0.000711	20.829903
1405.393578	-2.996900	3.421800	-10.252000	26.243154	0.000709	20.837240
1406.395923	-2.990000	3.421200	-10.229000	26.176029	0.000706	20.820996
1407.392486	-2.991500	3.420800	-10.233000	26.150896	0.000710	20.817079
1408.393105	-2.991400	3.419800	-10.229000	26.150326	0.000710	20.816032
1409.394062	-2.991700	3.418800	-10.227000	26.183332	0.000706	20.809369
1410.392121	-2.991800	3.420400	-10.232000	26.188326	0.000708	20.805853
1411.393847	-3.011000	3.418200	-10.290000	26.222301	0.000706	20.807751
1412.394553	-2.994100	3.419100	-10.237000	26.223195	0.000706	20.810072
1413.393434	-3.014500	3.417100	-10.300000	26.234420	0.000707	20.818981
1414.396453	-3.036300	3.416500	-10.372000	26.239488	0.000705	20.802263
1415.396449	-3.014400	3.416300	-10.297000	26.267873	0.000705	20.814667
1416.394068	-3.004900	3.418200	-10.271000	26.270953	0.000707	20.814917
1417.398369	-2.994800	3.417100	-10.231000	26.263132	0.000704	20.811798
1418.393693	-3.003800	3.416000	-10.260000	26.244607	0.000704	20.815467
1419.390454	-3.009000	3.416000	-10.278000	26.224594	0.000705	20.817168
1420.396026	-3.015700	3.414800	-10.297000	26.235620	0.000701	20.812600
1421.402701	-3.021300	3.414000	-10.313000	26.239248	0.000704	20.814349
1422.395497	-3.026100	3.412900	-10.327000	26.250075	0.000702	20.814324
1423.398496	-3.011200	3.413400	-10.277000	26.204854	0.000700	20.802547
1424.401400	-2.985100	3.413100	-10.187000	26.185486	0.000700	20.795887
1425.393312	-3.028300	3.412200	-10.332000	26.164699	0.000698	20.800129
1426.392249	-3.039200	3.412500	-10.371000	26.137951	0.000700	20.807391
1427.393727	-3.016000	3.412000	-10.290000	26.148634	0.000698	20.799159
1428.392330	-3.014200	3.411000	-10.281000	26.173544	0.000698	20.808542
1429.395085	-2.991600	3.410400	-10.202000	26.176822	0.000699	20.809940
1430.397871	-2.992800	3.412900	-10.213000	26.189069	0.000697	20.781469
1431.398115	-2.994500	3.410800	-10.212000	26.213010	0.000697	20.810742
1432.397635	-3.006400	3.409600	-10.250000	26.239235	0.000697	20.784465
1433.396551	-3.013000	3.409500	-10.272000	26.238888	0.000694	20.809246
1434.393022	-3.016900	3.408900	-10.284000	26.260170	0.000696	20.810244
1435.397636	-3.013300	3.409400	-10.273000	26.270179	0.000695	20.810820
1436.393453	-3.025700	3.408400	-10.312000	26.288208	0.000694	20.787213
1437.394427	-3.033900	3.408600	-10.340000	26.312843	0.000694	20.801539
1438.396649	-2.998400	3.408000	-10.218000	26.303631	0.000693	20.786591
1439.395020	-3.024000	3.406500	-10.299000	26.254216	0.000694	20.800942
1440.394946	-3.012800	3.406300	-10.261000	26.221236	0.000694	20.790560
1441.397374	-3.020300	3.407200	-10.289000	26.235494	0.000693	20.786395
1442.396171	-3.018000	3.403900	-10.271000	26.281782	0.000693	20.787867
1443.395426	-3.004300	3.406300	-10.232000	26.253524	0.000690	20.781755
1444.398806	-3.015900	3.404200	-10.265000	26.297479	0.000690	20.805064
1445.394816	-3.011700	3.405600	-10.256000	26.262515	0.000689	20.778936
1446.396329	-3.014600	3.404900	-10.264000	26.247740	0.000688	20.812452
1447.397130	-2.997400	3.403600	-10.201000	26.222411	0.000689	20.808809
1448.400074	-2.978900	3.404500	-10.140000	26.201552	0.000687	20.788323
1449.399794	-2.987400	3.403800	-10.167000	26.215135	0.000687	20.775420
1450.401378	-2.995600	3.403600	-10.194000	26.228548	0.000688	20.788898
1451.403971	-2.983300	3.404400	-10.155000	26.260159	0.000685	20.796957
1452.406103	-2.987900	3.403700	-10.169000	26.265824	0.000687	20.777520
1453.401056	-3.004900	3.402200	-10.222000	26.275434	0.000684	20.790022
1454.403555	-3.003200	3.402000	-10.216000	26.288348	0.000684	20.809164
1455.399922	-3.008900	3.401000	-10.232000	26.251920	0.000685	20.793893
1456.405809	-2.991600	3.402000	-10.176000	26.239304	0.000682	20.785008
1457.405251	-2.998000	3.401300	-10.196000	26.212211	0.000681	20.779120
1458.400832	-2.993100	3.400900	-10.178000	26.209505	0.000684	20.802005
1459.404342	-2.981600	3.400000	-10.136000	26.213107	0.000682	20.763424
1460.402962	-2.986700	3.399500	-10.151000	26.193886	0.000683	20.763076
1461.400659	-2.982800	3.399200	-10.138000	26.192421	0.000681	20.773458
1462.404250	-2.981900	3.400100	-10.138000	26.195925	0.000680	20.772237
1463.403277	-3.014200	3.397200	-10.238000	26.224310	0.000680	20.781321
1464.401747	-2.965300	3.399400	-10.079000	26.219790	0.000679	20.781046
1465.404627	-3.008000	3.396800	-10.217000	26.202978	0.000678	20.774583
1466.409433	-2.979000	3.398200	-10.122000	26.192127	0.000679	20.770791
1467.403757	-3.012100	3.396600	-10.230000	26.205240	0.000676	20.763105
1468.405269	-2.991100	3.396800	-10.160000	26.218330	0.000678	20.763457
1469.410961	-3.045700	3.394700	-10.338000	26.254661	0.000677	20.756818
1470.405229	-2.997500	3.396000	-10.178000	26.264720	0.000676	20.766927
1471.410031	-2.995500	3.396000	-10.172000	26.266137	0.000677	20.763609
1472.410720	-3.016800	3.395400	-10.242000	26.257768	0.000676	20.758044
1473.404477	-3.004700	3.395300	-10.200000	26.246744	0.000676	20.763087
1474.405058	-3.014900	3.393000	-10.228000	26.291219	0.000676	20.765582
1475.406958	-3.031100	3.391700	-10.279000	26.296064	0.000676	20.751010
1476.407094	-3.019000	3.394100	-10.245000	26.250299	0.000675	20.743425
1477.410232	-3.010600	3.393600	-10.216000	26.219804	0.000674	20.756878
1478.408026	-2.981800	3.392800	-10.115000	26.216178	0.000674	20.752285
1479.405612	-3.004400	3.390500	-10.184000	26.229169	0.000673	20.755856
1480.414629	-3.001200	3.392300	-10.180000	26.201107	0.000674	20.757529
1481.409846	-2.980100	3.392100	-10.108000	26.230835	0.000675	20.749944
1482.401752	-3.015800	3.388700	-10.217000	26.264310	0.000673	20.770309
1483.407005	-2.982300	3.390000	-10.109000	26.310424	0.000672	20.777297
1484.408601	-2.992900	3.390600	-10.146000	26.323165	0.000671	20.757858
1485.405475	-2.985100	3.390300	-10.119000	26.337493	0.000673	20.765620
1486.411028	-2.984500	3.388800	-10.113000	26.325675	0.000668	20.761329
1487.420299	-2.983700	3.389400	-10.112000	26.334816	0.000672	20.748704
1488.409285	-2.969900	3.389200	-10.065000	26.323122	0.000669	20.748805
1489.408510	-2.978100	3.389800	-10.093000	26.307453	0.000671	20.742541
1490.414714	-2.987100	3.388300	-10.120000	26.303680	0.000668	20.756294
1491.407408	-2.982000	3.388600	-10.104000	26.261913	0.000670	20.768848
1492.410374	-2.985300	3.387600	-10.112000	26.263429	0.000669	20.724851
1493.408934	-3.004700	3.387100	-10.175000	26.262015	0.000669	20.751407
1494.408143	-3.019000	3.385700	-10.220000	26.255929	0.000667	20.749084
1495.406838	-2.994100	3.385600	-10.135000	26.273837	0.000666	20.786047
1496.413413	-2.992400	3.386300	-10.132000	26.253275	0.000665	20.747364
1497.407767	-3.003500	3.385100	-10.167000	26.267854	0.000665	20.762490
1498.409821	-3.000000	3.385600	-10.156000	26.257919	0.000666	20.750609
1499.409562	-3.016800	3.384300	-10.209000	26.259213	0.000666	20.738158
1500.410637	-3.003300	3.384200	-10.162000	26.236789	0.000666	20.747867
1501.409264	-3.018000	3.382700	-10.208000	26.254819	0.000665	20.742752
1502.413503	-3.015900	3.382000	-10.198000	26.214985	0.000665	20.748716
1503.409129	-3.007100	3.384000	-10.176000	26.186674	0.000666	20.734016
1504.413343	-2.994700	3.384000	-10.133000	26.125529	0.000663	20.740854
1505.410841	-3.010500	3.382600	-10.183000	26.109785	0.000662	20.750165
1506.411888	-2.977800	3.382700	-10.072000	26.077471	0.000663	20.734766
1507.408370	-2.984700	3.381300	-10.091000	26.098359	0.000660	20.758599
1508.410176	-2.997800	3.380900	-10.134000	26.146118	0.000663	20.739257
1509.414813	-2.981100	3.381800	-10.081000	26.178479	0.000662	20.759448
1510.412928	-2.991600	3.381500	-10.115000	26.222187	0.000660	20.760220
1511.407135	-3.007400	3.380400	-10.164000	26.213123	0.000660	20.774346
1512.409292	-3.005300	3.380100	-10.157000	26.191690	0.000660	20.743798
1513.410021	-2.989000	3.379800	-10.102000	26.152178	0.000660	20.762891
1514.412634	-2.986200	3.378700	-10.089000	26.144402	0.000658	20.748439
1515.412307	-3.019600	3.379200	-10.202000	26.158907	0.000656	20.753530
1516.416670	-2.992400	3.380000	-10.113000	26.177682	0.000655	20.734938
1517.416157	-2.998300	3.377000	-10.124000	26.217044	0.000658	20.765484
1518.419349	-3.001400	3.377800	-10.138000	26.223403	0.000656	20.753855
1519.413305	-2.999800	3.377600	-10.132000	26.201274	0.000658	20.737307
1520.417085	-2.992600	3.377000	-10.106000	26.183543	0.000657	20.754578
1521.420099	-2.991300	3.376500	-10.098000	26.179618	0.000656	20.746841
1522.421560	-3.005700	3.374600	-10.140000	26.217961	0.000654	20.747913
1523.416972	-3.006700	3.374800	-10.146000	26.222480	0.000656	20.738703
1524.416267	-3.011900	3.375700	-10.167000	26.239938	0.000654	20.745816
1525.417557	-3.006700	3.375600	-10.148000	26.253597	0.000653	20.743894
1526.417478	-3.005800	3.374100	-10.140000	26.276988	0.000656	20.747961
1527.417893	-2.991100	3.375300	-10.095000	26.297176	0.000654	20.751654
1528.413763	-3.007400	3.373300	-10.144000	26.323524	0.000651	20.744468
1529.413936	-2.991500	3.373800	-10.092000	26.344009	0.000651	20.746564
1530.417655	-3.006600	3.372900	-10.140000	26.371198	0.000647	20.745440
1531.417914	-3.017000	3.371700	-10.171000	26.340656	0.000649	20.755522
1532.419203	-2.999900	3.372500	-10.117000	26.362183	0.000649	20.754872
1533.420089	-2.992200	3.373800	-10.094000	26.353318	0.000647	20.753549
1534.419260	-2.989600	3.371900	-10.079000	26.353765	0.000647	20.744514
1535.415326	-2.984500	3.371900	-10.062000	26.332310	0.000647	20.762782
1536.415333	-2.988400	3.371500	-10.074000	26.356522	0.000646	20.754872
1537.420197	-2.986600	3.370500	-10.065000	26.309961	0.000646	20.746958
1538.415486	-2.999900	3.371500	-10.113000	26.298190	0.000644	20.755992
1539.420813	-3.011200	3.368200	-10.141000	26.294342	0.000643	20.741693
1540.418206	-2.998100	3.369300	-10.101000	26.274425	0.000643	20.743488
1541.418741	-2.967100	3.368900	-9.993500	26.226248	0.000645	20.754819
1542.423581	-2.983900	3.370000	-10.055000	26.235834	0.000642	20.754019
1543.424047	-2.963000	3.368700	-9.981000	26.177646	0.000642	20.755291
1544.421580	-2.990000	3.368800	-10.072000	26.165031	0.000642	20.766323
1545.419711	-3.020400	3.366400	-10.167000	26.151794	0.000638	20.747331
1546.422354	-3.000800	3.367200	-10.103000	26.121468	0.000637	20.747205
1547.417787	-2.991700	3.367400	-10.074000	26.094620	0.000638	20.755316
1548.423916	-2.989000	3.365500	-10.059000	26.079867	0.000638	20.762304
1549.424769	-2.993800	3.366700	-10.078000	26.073060	0.000639	20.764948
1550.427196	-2.980300	3.365200	-10.028000	26.105199	0.000636	20.770688
1551.422458	-2.971100	3.366500	-10.001000	26.081208	0.000635	20.769342
1552.421853	-2.991200	3.365300	-10.065000	26.085579	0.000635	20.745758
1553.422597	-3.008600	3.364700	-10.122000	26.072267	0.000635	20.773634
1554.425677	-2.999300	3.364800	-10.091000	26.068841	0.000633	20.755493
1555.417902	-3.006300	3.364000	-10.112000	26.075770	0.000633	20.742066
1556.420530	-3.017800	3.363700	-10.151000	26.112256	0.000634	20.767822
1557.423934	-2.998800	3.362900	-10.084000	26.166448	0.000635	20.754945
1558.419169	-2.978900	3.363700	-10.019000	26.205712	0.000632	20.759786
1559.426326	-2.997900	3.363100	-10.081000	26.238544	0.000632	20.776658
1560.421396	-2.998300	3.362700	-10.081000	26.266381	0.000631	20.774286
1561.423939	-3.007800	3.360500	-10.107000	26.322577	0.000631	20.767699
1562.420790	-3.015200	3.362100	-10.135000	26.343958	0.000631	20.745090
1563.424729	-3.006000	3.360600	-10.101000	26.370032	0.000632	20.740948
1564.427495	-2.986100	3.359100	-10.030000	26.387636	0.000630	20.770496
1565.426941	-2.987000	3.360400	-10.037000	26.372763	0.000631	20.753651
1566.429686	-3.011300	3.359500	-10.116000	26.394986	0.000627	20.764607
1567.426966	-2.998900	3.360100	-10.075000	26.395608	0.000631	20.758120
1568.428453	-3.000700	3.359000	-10.078000	26.387786	0.000628	20.739352
1569.431304	-3.020900	3.357800	-10.143000	26.359730	0.000628	20.741974
1570.425165	-2.997600	3.358800	-10.067000	26.381531	0.000629	20.761515
1571.424981	-3.012900	3.356700	-10.112000	26.399283	0.000629	20.771771
1572.427700	-3.009000	3.356800	-10.100000	26.405142	0.000629	20.795204
1573.425185	-2.967600	3.357400	-9.961200	26.396751	0.000628	20.772071
1574.434598	-3.009600	3.356700	-10.101000	26.389897	0.000627	20.772295
1575.430425	-2.984800	3.357800	-10.021000	26.409662	0.000629	20.769874
1576.430418	-3.020200	3.354900	-10.131000	26.434987	0.000625	20.753127
1577.429101	-3.015700	3.356600	-10.121000	26.455420	0.000626	20.766079
1578.428017	-2.968300	3.356900	-9.962800	26.432306	0.000623	20.775564
1579.429517	-2.998500	3.354000	-10.054000	26.403900	0.000624	20.765031
1580.433729	-3.006300	3.353300	-10.080000	26.367673	0.000623	20.758967
1581.430138	-2.988100	3.354700	-10.023000	26.369235	0.000622	20.780926
1582.430312	-2.993500	3.352700	-10.035000	26.355877	0.000622	20.778880
1583.427662	-2.990700	3.353600	-10.029000	26.379987	0.000621	20.774662
1584.430170	-3.000400	3.352800	-10.059000	26.397094	0.000620	20.778580
1585.435146	-2.986500	3.353400	-10.013000	26.419788	0.000619	20.770095
1586.431389	-2.977500	3.353500	-9.984400	26.408491	0.000620	20.755895
1587.434155	-3.003400	3.352900	-10.069000	26.392004	0.000619	20.776309
1588.430497	-3.022200	3.350900	-10.126000	26.382367	0.000619	20.768520
1589.433665	-2.988800	3.352200	-10.017000	26.400743	0.000619	20.760436
1590.431180	-3.001500	3.351600	-10.059000	26.387657	0.000620	20.773362
1591.436158	-3.004100	3.351700	-10.068000	26.387185	0.000619	20.767198
1592.429288	-2.965100	3.350200	-9.932200	26.363719	0.000619	20.775856
1593.433040	-2.998500	3.349800	-10.044000	26.330395	0.000618	20.784091
1594.438037	-2.978800	3.349500	-9.976400	26.342215	0.000618	20.772262
1595.433948	-2.997000	3.348200	-10.032000	26.364438	0.000619	20.798864
1596.434705	-3.011700	3.347700	-10.082000	26.364486	0.000619	20.785162
1597.433434	-2.984300	3.347400	-9.988600	26.422612	0.000615	20.785735
1598.441447	-2.981200	3.348700	-9.981000	26.441507	0.000615	20.792398
1599.434331	-2.996100	3.347100	-10.027000	26.470009	0.000615	20.787856
1600.437595	-2.995100	3.347100	-10.023000	26.501193	0.000613	20.777000
1601.439279	-2.996100	3.346700	-10.026000	26.539029	0.000613	20.778996
1602.433971	-2.975800	3.347100	-9.959000	26.542332	0.000613	20.778523
1603.434509	-2.986900	3.346900	-9.995700	26.564972	0.000611	20.767142
1604.437735	-3.000700	3.346000	-10.040000	26.575475	0.000614	20.791450
1605.430032	-2.996900	3.344800	-10.023000	26.590544	0.000611	20.796167
1606.435205	-2.994500	3.345000	-10.016000	26.628103	0.000611	20.787456
1607.437793	-2.994200	3.343600	-10.010000	26.622194	0.000612	20.800008
1608.437683	-2.996000	3.345100	-10.020000	26.612340	0.000611	20.782516
1609.435373	-2.998400	3.344000	-10.026000	26.582697	0.000609	20.798236
1610.435805	-2.991800	3.344800	-10.006000	26.579073	0.000608	20.794593
1611.436596	-3.007000	3.343100	-10.052000	26.568921	0.000609	20.781068
1612.442576	-3.018700	3.343100	-10.091000	26.601541	0.000610	20.793471
1613.440234	-3.003600	3.342100	-10.037000	26.594242	0.000608	20.814582
1614.441681	-3.002100	3.341100	-10.028000	26.568822	0.000607	20.819375
1615.439690	-2.986000	3.340400	-9.973500	26.563880	0.000606	20.788804
1616.436382	-3.010000	3.339700	-10.052000	26.568150	0.000604	20.795941
1617.442269	-2.996800	3.342200	-10.015000	26.562962	0.000604	20.798312
1618.438322	-2.982000	3.342100	-9.964800	26.557823	0.000606	20.800258
1619.441075	-2.997800	3.340700	-10.014000	26.532324	0.000603	20.805922
1620.439357	-3.019200	3.337900	-10.077000	26.498610	0.000603	20.774404
1621.443999	-3.005700	3.339300	-10.034000	26.453025	0.000602	20.809191
1622.446978	-3.000500	3.339300	-10.019000	26.421022	0.000600	20.807845
1623.445410	-3.005900	3.337900	-10.032000	26.392692	0.000600	20.819674
1624.450433	-3.000400	3.337000	-10.012000	26.367912	0.000598	20.835546
1625.446795	-2.976200	3.339600	-9.937600	26.337419	0.000598	20.815806
1626.445730	-2.986600	3.337900	-9.966800	26.301463	0.000597	20.781567
1627.443971	-3.002700	3.336800	-10.018000	26.302905	0.000599	20.824742
1628.450881	-3.019800	3.337100	-10.077000	26.279662	0.000595	20.828885
1629.444821	-2.988300	3.335800	-9.967100	26.282294	0.000594	20.798813
1630.452458	-3.015500	3.333900	-10.052000	26.301019	0.000594	20.822847
1631.446938	-2.993600	3.334900	-9.981800	26.306061	0.000593	20.804680
1632.449112	-2.976500	3.336400	-9.929000	26.309537	0.000592	20.813389
1633.454726	-2.979700	3.335100	-9.936400	26.348897	0.000592	20.801737
1634.453030	-3.026400	3.333200	-10.087000	26.367097	0.000593	20.819080
1635.447376	-2.995500	3.333900	-9.986000	26.430465	0.000593	20.784620
1636.447035	-2.997200	3.333200	-9.989300	26.467238	0.000589	20.812097
1637.449615	-3.004700	3.333600	-10.015000	26.430094	0.000590	20.801316
1638.446511	-3.012400	3.331800	-10.036000	26.436254	0.000589	20.821731
1639.453197	-2.984900	3.333200	-9.948500	26.478090	0.000587	20.801668
1640.453885	-2.994000	3.333300	-9.978000	26.510169	0.000590	20.834385
1641.454021	-3.016500	3.331700	-10.048000	26.544059	0.000587	20.810131
1642.451412	-3.000300	3.332400	-9.997000	26.567024	0.000587	20.824680
1643.449932	-3.014300	3.331300	-10.041000	26.577947	0.000587	20.818591
1644.454284	-3.009700	3.331600	-10.026000	26.567425	0.000586	20.808962
1645.454088	-2.991000	3.329900	-9.959000	26.540936	0.000587	20.820267
1646.453209	-2.995600	3.329600	-9.972400	26.540715	0.000586	20.814830
1647.449327	-2.981300	3.330700	-9.929000	26.553179	0.000583	20.837789
1648.453546	-3.012200	3.327600	-10.023000	26.600644	0.000586	20.817225
1649.457676	-2.993400	3.328100	-9.960500	26.617849	0.000587	20.819347
1650.453998	-2.982000	3.328600	-9.925400	26.662211	0.000584	20.828383
1651.449467	-2.983500	3.328700	-9.930000	26.670180	0.000583	20.813634
1652.453480	-3.008200	3.328500	-10.012000	26.672960	0.000584	20.824490
1653.452043	-2.999600	3.325900	-9.976000	26.676090	0.000584	20.820525
1654.459714	-3.037600	3.326100	-10.101000	26.667724	0.000584	20.810218
1655.456601	-3.004000	3.326500	-9.991500	26.671623	0.000583	20.799438
1656.457441	-3.002000	3.326200	-9.984300	26.645929	0.000581	20.820549
1657.458138	-3.019000	3.324700	-10.037000	26.610705	0.000582	20.830657
1658.452847	-3.000600	3.325800	-9.978800	26.575749	0.000580	20.843408
1659.461463	-2.986400	3.324200	-9.926600	26.574657	0.000583	20.828086
1660.454474	-3.031300	3.322800	-10.072000	26.578009	0.000580	20.820075
1661.456444	-3.013700	3.323600	-10.015000	26.607873	0.000578	20.832552
1662.458980	-3.006300	3.323200	-9.989500	26.646203	0.000579	20.828885
1663.458381	-2.986200	3.324300	-9.926600	26.682246	0.000577	20.841412
1664.456932	-2.981500	3.323200	-9.906600	26.649157	0.000577	20.833277
1665.462872	-2.981900	3.322800	-9.906200	26.631730	0.000575	20.828560
1666.461398	-2.994700	3.322700	-9.949000	26.633392	0.000574	20.819800
1667.459832	-2.989800	3.322200	-9.931400	26.598289	0.000573	20.834298
1668.461053	-2.980900	3.321900	-9.900100	26.572324	0.000575	20.828111
1669.457655	-2.984100	3.321100	-9.909700	26.554648	0.000573	20.833577
1670.460299	-2.982400	3.323000	-9.909400	26.591465	0.000572	20.835972
1671.458418	-2.996000	3.321300	-9.950000	26.597273	0.000572	20.824742
1672.464942	-3.021400	3.319800	-10.029000	26.610035	0.000571	20.806751
1673.460070	-2.992500	3.320300	-9.935100	26.585831	0.000572	20.826042
1674.460232	-3.002600	3.319800	-9.966900	26.557429	0.000568	20.833053
1675.461911	-3.007500	3.318500	-9.978200	26.556910	0.000574	20.837746
1676.465957	-2.990100	3.316800	-9.916600	26.527639	0.000570	20.838196
1677.459667	-2.984000	3.318900	-9.902600	26.457951	0.000571	20.839746
1678.465270	-3.003700	3.317100	-9.962300	26.470711	0.000570	20.820329
1679.460198	-2.980600	3.318400	-9.889400	26.455269	0.000570	20.822352
1680.459726	-2.992000	3.316800	-9.922800	26.410504	0.000569	20.832360
1681.462819	-2.991100	3.316700	-9.919800	26.390715	0.000569	20.834282
1682.461261	-2.969100	3.316800	-9.845300	26.432726	0.000569	20.851375
1683.466492	-3.010200	3.316100	-9.980000	26.447375	0.000569	20.851874
1684.462739	-2.998600	3.315200	-9.939700	26.463241	0.000568	20.851700
1685.462770	-3.011700	3.315400	-9.983800	26.480024	0.000569	20.843914
1686.463816	-3.004800	3.314900	-9.959400	26.518608	0.000567	20.849980
1687.463693	-2.987800	3.314800	-9.902900	26.577072	0.000568	20.847582
1688.465315	-3.013500	3.312600	-9.981800	26.609221	0.000566	20.839122
1689.469766	-3.003800	3.314800	-9.956300	26.605596	0.000566	20.839746
1690.467695	-2.999000	3.313300	-9.935300	26.642386	0.000568	20.845435
1691.468275	-2.998700	3.313300	-9.935200	26.677860	0.000566	20.854545
1692.469682	-2.997800	3.311900	-9.926900	26.711270	0.000563	20.860158
1693.468462	-2.982900	3.312000	-9.878400	26.702855	0.000564	20.860233
1694.470042	-3.005500	3.310700	-9.949300	26.662267	0.000563	20.866844
1695.471643	-2.984000	3.312000	-9.881900	26.648415	0.000562	20.853393
1696.470553	-2.999200	3.310800	-9.928200	26.630988	0.000563	20.844883
1697.466705	-3.012200	3.309600	-9.967500	26.591615	0.000559	20.855089
1698.467116	-3.011600	3.310900	-9.970200	26.601446	0.000559	20.856436
1699.473416	-2.983400	3.309900	-9.873600	26.628280	0.000562	20.852118
1700.467949	-3.013100	3.309600	-9.970400	26.622694	0.000560	20.866416
1701.472709	-3.015900	3.309400	-9.979800	26.653301	0.000558	20.850244
1702.474030	-3.014400	3.309300	-9.974400	26.669436	0.000559	20.862197
1703.473450	-2.989100	3.308700	-9.888400	26.654965	0.000558	20.865667
1704.472272	-2.996500	3.308900	-9.913300	26.648632	0.000557	20.855508
1705.469303	-2.997500	3.309500	-9.919100	26.597293	0.000555	20.870279
1706.473344	-3.015000	3.306200	-9.966500	26.588803	0.000555	20.869330
1707.472934	-2.977400	3.307100	-9.845400	26.595876	0.000556	20.870277
1708.472480	-3.002300	3.307700	-9.929900	26.612881	0.000553	20.872672
1709.470839	-2.990300	3.307200	-9.887800	26.605580	0.000553	20.853480
1710.480661	-3.016000	3.306600	-9.971200	26.577479	0.000552	20.864112
1711.473428	-3.007100	3.305400	-9.938300	26.542796	0.000551	20.861965
1712.471008	-3.002200	3.304300	-9.917900	26.532069	0.000550	20.880578
1713.481124	-2.983600	3.304900	-9.858600	26.553866	0.000549	20.853178
1714.475116	-2.996500	3.304800	-9.901700	26.605677	0.000548	20.862112
1715.476699	-2.995500	3.304300	-9.896800	26.635343	0.000548	20.877234
1716.476652	-2.979800	3.304500	-9.846200	26.646984	0.000547	20.891781
1717.476307	-3.003200	3.303400	-9.919400	26.661159	0.000547	20.873315
1718.475982	-3.007600	3.302300	-9.931000	26.686380	0.000548	20.865481
1719.476386	-3.005700	3.302500	-9.925100	26.700828	0.000542	20.877634
1720.473768	-2.996900	3.302600	-9.895900	26.707976	0.000545	20.877234
1721.476470	-3.012600	3.301600	-9.944800	26.724434	0.000545	20.881926
1722.485857	-3.035400	3.300000	-10.016000	26.714952	0.000544	20.881402
1723.476995	-3.002400	3.301100	-9.910700	26.735059	0.000542	20.885021
1724.481941	-2.989800	3.302400	-9.871300	26.743350	0.000540	20.885296
1725.478396	-2.997800	3.300300	-9.892000	26.746776	0.000542	20.890163
1726.479671	-2.977200	3.301000	-9.825500	26.735136	0.000541	20.869927
1727.476807	-3.009400	3.300000	-9.930100	26.730669	0.000540	20.863540
1728.475545	-3.005000	3.299000	-9.912200	26.731515	0.000540	20.884303
1729.476560	-3.033000	3.297400	-9.999800	26.770538	0.000537	20.881812
1730.476912	-2.994500	3.300200	-9.881800	26.775203	0.000537	20.881286
1731.480906	-3.028600	3.297000	-9.984700	26.795185	0.000536	20.903745
1732.481795	-3.018200	3.297700	-9.952200	26.779251	0.000536	20.891994
1733.481989	-3.009600	3.297000	-9.921900	26.812711	0.000535	20.888178
1734.478496	-3.011100	3.297200	-9.927300	26.806805	0.000534	20.885559
1735.482912	-2.996800	3.297500	-9.880100	26.827558	0.000536	20.879873
1736.479014	-3.015200	3.296800	-9.939600	26.842251	0.000535	20.891326
1737.479671	-3.006000	3.297000	-9.909200	26.797801	0.000534	20.892152
1738.484121	-3.018800	3.295200	-9.946000	26.785490	0.000533	20.886887
1739.479921	-3.001000	3.295800	-9.890100	26.785069	0.000531	20.891205
1740.479025	-2.995900	3.295300	-9.871200	26.806715	0.000532	20.896847
1741.480301	-2.990000	3.295500	-9.852700	26.777773	0.000529	20.899041
1742.483243	-2.988500	3.295100	-9.845700	26.809474	0.000530	20.888241
1743.485084	-3.029000	3.293400	-9.974300	26.846652	0.000532	20.892432
1744.488881	-3.000100	3.293800	-9.879500	26.824094	0.000529	20.892510
1745.482650	-3.023300	3.291900	-9.951300	26.801358	0.000527	20.890513
1746.483437	-2.978500	3.293200	-9.807800	26.762985	0.000528	20.912622
1747.481264	-3.014200	3.292100	-9.922100	26.716174	0.000529	20.904914
1748.483008	-3.018700	3.291300	-9.934000	26.691873	0.000527	20.914147
1749.483047	-2.985300	3.292300	-9.827400	26.666904	0.000526	20.906590
1750.484997	-2.976900	3.292600	-9.799700	26.628626	0.000523	20.903196
1751.483617	-2.996900	3.291500	-9.863400	26.606111	0.000521	20.899530
1752.489102	-2.968100	3.290700	-9.765900	26.610208	0.000525	20.915500
1753.486208	-3.001600	3.290600	-9.875500	26.631384	0.000521	20.906442
1754.493417	-2.991700	3.290000	-9.840400	26.676491	0.000519	20.893469
1755.496194	-3.006600	3.288600	-9.886800	26.711841	0.000521	20.896765
1756.487450	-3.015300	3.288800	-9.914900	26.752773	0.000521	20.900933
1757.483725	-3.006500	3.288100	-9.884400	26.769279	0.000520	20.931749
1758.486429	-3.025200	3.287700	-9.944800	26.816269	0.000521	20.886539
1759.485924	-3.016100	3.287800	-9.915800	26.878491	0.000521	20.905953
1760.485649	-3.001900	3.288400	-9.870200	26.873925	0.000519	20.901837
1761.488206	-3.005000	3.288500	-9.880600	26.866903	0.000518	20.888139
1762.498375	-3.003100	3.287800	-9.872100	26.870527	0.000520	20.902687
1763.489185	-2.990200	3.286000	-9.824400	26.864399	0.000517	20.906956
1764.488842	-2.993100	3.286200	-9.835100	26.893116	0.000519	20.924924
1765.490007	-3.004400	3.286400	-9.872900	26.868000	0.000517	20.924800
1766.491673	-3.009600	3.285400	-9.885400	26.852612	0.000518	20.903639
1767.490468	-3.008600	3.285800	-9.885100	26.865842	0.000516	20.920259
1768.490714	-2.999400	3.285500	-9.853500	26.880063	0.000516	20.898051
1769.486732	-2.995100	3.284500	-9.837000	26.841792	0.000517	20.919785
1770.489097	-3.008000	3.284200	-9.877700	26.857902	0.000515	20.920336
1771.493303	-3.011700	3.281800	-9.882700	26.893913	0.000514	20.892537
1772.489087	-3.004700	3.282800	-9.863200	26.917292	0.000512	20.892339
1773.490775	-2.995400	3.284400	-9.836300	26.939977	0.000512	20.908036
1774.489282	-3.005100	3.280800	-9.858200	26.975639	0.000513	20.905491
1775.494101	-3.071300	3.280300	-10.072000	27.009960	0.000512	20.911555
1776.499026	-2.987000	3.281700	-9.801400	26.998222	0.000511	20.912553
1777.492470	-3.006400	3.281300	-9.863900	27.013510	0.000511	20.904694
1778.495721	-2.992100	3.281000	-9.815100	27.038029	0.000512	20.902325
1779.494793	-3.022000	3.278300	-9.906200	27.069840	0.000510	20.896386
1780.489464	-2.975800	3.281100	-9.763600	27.081057	0.000512	20.896760
1781.489016	-2.985800	3.280200	-9.792600	27.126839	0.000512	20.892071
1782.497171	-3.011200	3.279600	-9.874900	27.156787	0.000509	20.907491
1783.492273	-2.992400	3.278600	-9.810200	27.168175	0.000511	20.887179
1784.491917	-2.990100	3.278800	-9.803300	27.175794	0.000508	20.898160
1785.493813	-2.988400	3.278800	-9.796700	27.167854	0.000509	20.901079
1786.492460	-3.001600	3.278600	-9.840700	27.128698	0.000508	20.872605
1787.499109	-2.987000	3.276700	-9.786400	27.152643	0.000507	20.901427
1788.495743	-3.005800	3.277000	-9.848300	27.157853	0.000506	20.886280
1789.492653	-2.978400	3.276700	-9.758900	27.119020	0.000506	20.897957
1790.492554	-3.015100	3.276000	-9.876800	27.135051	0.000506	20.878520
1791.501147	-3.002000	3.277700	-9.838300	27.129269	0.000505	20.891195
1792.495800	-2.993500	3.276500	-9.806900	27.098550	0.000506	20.877845
1793.496618	-3.018400	3.275600	-9.885000	27.068179	0.000505	20.887129
1794.497215	-2.994500	3.273800	-9.802500	27.011650	0.000502	20.873903
1795.497146	-3.007100	3.273800	-9.843500	27.007755	0.000503	20.881839
1796.500772	-3.001100	3.272200	-9.818500	27.025622	0.000501	20.868988
1797.499573	-3.010400	3.273300	-9.852400	27.044059	0.000501	20.887054
1798.495000	-2.985700	3.274300	-9.774100	27.081034	0.000501	20.890100
1799.501297	-2.994100	3.272100	-9.796400	27.065799	0.000500	20.870986
1800.497173	-2.991700	3.272500	-9.789400	27.078827	0.000500	20.869864
1801.499162	-3.006000	3.271500	-9.833200	27.010762	0.000498	20.880122
1802.504054	-3.008300	3.272200	-9.841300	27.039299	0.000495	20.873733
1803.504589	-3.007100	3.271500	-9.836400	27.040787	0.000495	20.858161
1804.502976	-3.007200	3.272000	-9.838600	27.040143	0.000494	20.889279
1805.501216	-3.028900	3.268100	-9.897400	27.010365	0.000495	20.868818
1806.502170	-2.991400	3.270700	-9.782500	27.019869	0.000491	20.861780
1807.502816	-3.017600	3.269600	-9.866300	27.026175	0.000493	20.889931
1808.501334	-3.006600	3.268200	-9.824200	27.034689	0.000494	20.868623
1809.499921	-3.006300	3.268500	-9.824900	27.022603	0.000491	20.870693
1810.500721	-3.006700	3.267100	-9.822300	27.041314	0.000490	20.890457
1811.502389	-2.994600	3.266900	-9.781400	27.083598	0.000491	20.859016
1812.504129	-2.997700	3.267400	-9.793300	27.075808	0.000487	20.863034
1813.504717	-3.009300	3.267800	-9.832900	27.093029	0.000490	20.868974
1814.500045	-3.006700	3.267000	-9.822200	27.129755	0.000487	20.874142
1815.514470	-3.030400	3.264400	-9.890900	27.084792	0.000486	20.877285
1816.502485	-2.999100	3.266300	-9.794900	27.110899	0.000486	20.889790
1817.507725	-2.992100	3.265300	-9.768200	27.126605	0.000486	20.858647
1818.504343	-2.985400	3.264900	-9.745300	27.128443	0.000485	20.868082
1819.506639	-3.013100	3.264300	-9.835300	27.127649	0.000484	20.844998
1820.507917	-3.018700	3.262500	-9.845700	27.099909	0.000486	20.837963
1821.510553	-3.001200	3.264000	-9.793700	27.121126	0.000481	20.873999
1822.508354	-2.996400	3.264200	-9.779200	27.135568	0.000483	20.871928
1823.511879	-2.987600	3.264500	-9.752400	27.137728	0.000482	20.869833
1824.513932	-2.993300	3.262500	-9.763900	27.188471	0.000480	20.844532
1825.508818	-2.999800	3.262700	-9.786500	27.170011	0.000481	20.840190
1826.512897	-2.988100	3.263400	-9.750500	27.199241	0.000482	20.832132
1827.512508	-3.001200	3.262300	-9.790000	27.188524	0.000478	20.866870
1828.513894	-3.047100	3.262600	-9.940300	27.228497	0.000476	20.856815
1829.513103	-2.998500	3.260000	-9.774200	27.235173	0.000479	20.848358
1830.511703	-2.984400	3.261500	-9.732200	27.253211	0.000476	20.854647
1831.512080	-2.991300	3.260800	-9.751800	27.253882	0.000476	20.840624
1832.510526	-3.005100	3.260300	-9.796000	27.244357	0.000476	20.845268
1833.514984	-3.008900	3.259800	-9.807400	27.234112	0.000477	20.836386
1834.512813	-2.991000	3.260900	-9.752200	27.244013	0.000473	20.849664
1835.512589	-3.023100	3.259900	-9.854400	27.254882	0.000472	20.847794
1836.512808	-3.005800	3.257600	-9.790500	27.242107	0.000474	20.837789
1837.522793	-3.008200	3.261000	-9.808300	27.202635	0.000473	20.847398
1838.515280	-2.984900	3.258800	-9.726300	27.225935	0.000472	20.845704
1839.517282	-3.010500	3.257100	-9.805000	27.234297	0.000472	20.826615
1840.515680	-3.028800	3.256000	-9.860900	27.194353	0.000472	20.841439
1841.516091	-3.001600	3.256100	-9.772900	27.118454	0.000474	20.848079
1842.514657	-2.993400	3.256200	-9.745000	27.123196	0.000470	20.835304
1843.518105	-3.008500	3.255100	-9.791100	27.126596	0.000470	20.835880
1844.521274	-3.015900	3.254100	-9.812800	27.121835	0.000470	20.837729
1845.517612	-2.980800	3.256600	-9.706500	27.163494	0.000468	20.829842
1846.515752	-3.005300	3.255900	-9.782900	27.159179	0.000470	20.844942
1847.520998	-3.015000	3.255200	-9.813100	27.121143	0.000468	20.848886
1848.517676	-3.026700	3.253200	-9.845800	27.090698	0.000467	20.841027
1849.515000	-3.004700	3.253700	-9.775300	27.090922	0.000468	20.836985
1850.519882	-2.993300	3.252400	-9.733600	27.139830	0.000465	20.825007
1851.521694	-2.999700	3.252400	-9.755300	27.129583	0.000463	20.834142
1852.520693	-2.995100	3.251900	-9.737900	27.127947	0.000465	20.824436
1853.519261	-3.010900	3.252600	-9.791000	27.147251	0.000464	20.841954
1854.520086	-3.001800	3.252300	-9.761800	27.148245	0.000464	20.837265
1855.518541	-3.017800	3.250700	-9.809400	27.186009	0.000464	20.838737
1856.519817	-3.019300	3.248600	-9.806100	27.194272	0.000463	20.823815
1857.520236	-2.997700	3.250300	-9.742200	27.191246	0.000461	20.809866
1858.521324	-3.015200	3.249800	-9.798200	27.210078	0.000461	20.828807
1859.519229	-3.015600	3.248800	-9.796200	27.222410	0.000462	20.833625
1860.520123	-3.021700	3.248700	-9.815600	27.218092	0.000460	20.824065
1861.532209	-3.007100	3.249300	-9.769900	27.225735	0.000460	20.811839
1862.523561	-2.985200	3.249200	-9.698800	27.244689	0.000459	20.835171
1863.519905	-3.028300	3.246500	-9.830400	27.261659	0.000458	20.841809
1864.521485	-3.017000	3.248300	-9.799300	27.218686	0.000460	20.833198
1865.518767	-3.016000	3.248800	-9.796000	27.196656	0.000459	20.830954
1866.531786	-3.002400	3.247300	-9.748000	27.218166	0.000458	20.826985
1867.519402	-2.980400	3.248200	-9.679600	27.220673	0.000456	20.805325
1868.526267	-3.019400	3.244200	-9.794300	27.193477	0.000455	20.819697
1869.523985	-2.992500	3.245400	-9.711500	27.207992	0.000453	20.832399
1870.520380	-2.985700	3.245100	-9.687800	27.223944	0.000452	20.800081
1871.526796	-3.008100	3.243500	-9.755300	27.243718	0.000452	20.811909
1872.527092	-2.995800	3.243900	-9.715300	27.297781	0.000451	20.828357
1873.527863	-2.987600	3.243600	-9.689800	27.307852	0.000449	20.840385
1874.524654	-2.992600	3.243200	-9.705000	27.298773	0.000450	20.822243
1875.529466	-2.969500	3.244100	-9.631800	27.273193	0.000448	20.837289
1876.525252	-3.006500	3.243000	-9.749100	27.265083	0.000446	20.814433
1877.528250	-2.999000	3.241900	-9.720700	27.251511	0.000448	20.825438
1878.526226	-3.002700	3.241400	-9.732200	27.223648	0.000444	20.823964
1879.531378	-3.010000	3.241300	-9.755600	27.176037	0.000444	20.829181
1880.527328	-3.006200	3.239700	-9.738200	27.135148	0.000444	20.821721
1881.524781	-3.007500	3.240500	-9.745200	27.078919	0.000443	20.812586
1882.529629	-2.992300	3.239100	-9.691600	27.064133	0.000440	20.832329
1883.526954	-2.989700	3.240700	-9.687800	27.043262	0.000440	20.819875
1884.526635	-2.991300	3.239700	-9.689800	27.059095	0.000439	20.809719
1885.526601	-3.005900	3.239300	-9.735200	27.110186	0.000439	20.810841
1886.526130	-2.996600	3.238400	-9.701300	27.159514	0.000439	20.795494
1887.528674	-2.989700	3.239300	-9.682700	27.206308	0.000438	20.828335
1888.531907	-2.998400	3.238000	-9.707900	27.209262	0.000437	20.819926
1889.527107	-3.014600	3.236900	-9.756900	27.187579	0.000436	20.813290
1890.528920	-2.986100	3.237100	-9.664200	27.200505	0.000437	20.801635
1891.530923	-2.994400	3.235500	-9.687100	27.196312	0.000435	20.824444
1892.531304	-2.990400	3.236000	-9.674800	27.210481	0.000436	20.826842
1893.538345	-2.984300	3.236700	-9.658400	27.223878	0.000432	20.818980
1894.529625	-2.995900	3.235500	-9.692100	27.266703	0.000433	20.820804
1895.531015	-2.988200	3.234700	-9.664700	27.307416	0.000433	20.803911
1896.532941	-2.993100	3.234200	-9.678700	27.289502	0.000431	20.823823
1897.529198	-2.990500	3.233200	-9.668200	27.297739	0.000432	20.813143
1898.536722	-2.985400	3.234400	-9.655700	27.286103	0.000432	20.820879
1899.530333	-2.996000	3.232700	-9.684200	27.286325	0.000430	20.825844
1900.539345	-2.974800	3.234700	-9.621100	27.291165	0.000427	20.785193
1901.533065	-3.005900	3.232000	-9.713200	27.288139	0.000427	20.823401
1902.534296	-2.983500	3.234000	-9.647200	27.284319	0.000428	20.818135
1903.534492	-3.010000	3.230800	-9.723700	27.248817	0.000427	20.808503
1904.536077	-2.965300	3.231800	-9.582000	27.248493	0.000425	20.813394
1905.532427	-2.986600	3.230700	-9.647900	27.250480	0.000425	20.814444
1906.534747	-2.998900	3.229400	-9.684000	27.266731	0.000424	20.823204
1907.533117	-3.010900	3.230100	-9.723500	27.294715	0.000423	20.810576
1908.531287	-2.986700	3.231500	-9.650900	27.321686	0.000423	20.797877
1909.539454	-3.011600	3.228800	-9.722900	27.329897	0.000423	20.818464
1910.534361	-3.025900	3.227500	-9.764800	27.296058	0.000423	20.783951
1911.537131	-3.005400	3.227900	-9.699800	27.286533	0.000422	20.811828
1912.532907	-2.999100	3.228200	-9.680500	27.276534	0.000421	20.801296
1913.539232	-3.032600	3.226300	-9.782100	27.226023	0.000421	20.803594
1914.539174	-2.995300	3.227100	-9.665000	27.236270	0.000420	20.794935
1915.538244	-3.020000	3.226000	-9.740800	27.267829	0.000419	20.803919
1916.541328	-2.988800	3.225900	-9.640800	27.330123	0.000417	20.789295
1917.535601	-3.042000	3.224000	-9.806600	27.346176	0.000419	20.778890
1918.539642	-2.982800	3.226500	-9.621800	27.377608	0.000416	20.807191
1919.541671	-2.985900	3.227000	-9.634300	27.404224	0.000413	20.796035
1920.539266	-2.985300	3.225600	-9.628000	27.426998	0.000414	20.785280
1921.538278	-3.008500	3.224700	-9.700700	27.447414	0.000414	20.790173
1922.538784	-3.000200	3.223600	-9.671300	27.492732	0.000414	20.794515
1923.540310	-2.996700	3.224000	-9.659900	27.474278	0.000410	20.788276
1924.538748	-2.992400	3.222300	-9.641200	27.452625	0.000411	20.823864
1925.538035	-2.994400	3.223700	-9.651500	27.407826	0.000410	20.816253
1926.536801	-3.004100	3.220600	-9.673300	27.372550	0.000411	20.793569
1927.540184	-2.982700	3.221800	-9.608300	27.328717	0.000412	20.791674
1928.540104	-2.987900	3.221200	-9.624600	27.309665	0.000406	20.804277
1929.543474	-3.023700	3.220100	-9.735300	27.340032	0.000410	20.818229
1930.543763	-2.992000	3.220700	-9.635400	27.378931	0.000408	20.779599
1931.541693	-2.993700	3.221700	-9.644000	27.400911	0.000408	20.807400
1932.539840	-2.995200	3.220100	-9.643400	27.394956	0.000408	20.789082
1933.543055	-3.005600	3.219300	-9.674400	27.356928	0.000406	20.811518
1934.541416	-2.971000	3.219800	-9.565200	27.323613	0.000406	20.789858
1935.548425	-2.989900	3.219900	-9.625500	27.342391	0.000403	20.771289
1936.555387	-3.000500	3.218700	-9.656100	27.349389	0.000402	20.791606
1937.540651	-3.012300	3.217900	-9.692100	27.358569	0.000398	20.784719
1938.538650	-3.027900	3.216300	-9.737300	27.363356	0.000401	20.777681
1939.544680	-3.006000	3.217000	-9.669400	27.357602	0.000402	20.790384
1940.544500	-3.004500	3.216800	-9.663700	27.371419	0.000400	20.793852
1941.544262	-3.018400	3.216000	-9.706500	27.394985	0.000400	20.799068
1942.544866	-3.023200	3.214900	-9.718200	27.422548	0.000398	20.768001
1943.545953	-3.012700	3.215100	-9.684900	27.464245	0.000400	20.763483
1944.548220	-3.009400	3.213900	-9.671200	27.516434	0.000399	20.773791
1945.541733	-2.981800	3.214700	-9.583200	27.526306	0.000397	20.772343
1946.544206	-3.006700	3.213200	-9.659800	27.549200	0.000395	20.778783
1947.547497	-3.016500	3.213600	-9.693100	27.553145	0.000396	20.796503
1948.549507	-3.000300	3.212800	-9.638400	27.494910	0.000394	20.782481
1949.551270	-2.999600	3.211700	-9.632600	27.493918	0.000392	20.789070
1950.548296	-2.999100	3.213000	-9.635300	27.507215	0.000392	20.800077
1951.551497	-3.014300	3.211100	-9.678300	27.569843	0.000393	20.788173
1952.548471	-3.008800	3.210400	-9.658800	27.603950	0.000391	20.786929
1953.549536	-3.022500	3.212000	-9.706200	27.596930	0.000392	20.776547
1954.547696	-2.990600	3.211200	-9.601500	27.585376	0.000392	20.787206
1955.544421	-3.004300	3.209400	-9.641000	27.553553	0.000391	20.790275
1956.544857	-2.997800	3.209100	-9.619400	27.485544	0.000390	20.787757
1957.548102	-3.008500	3.209400	-9.654500	27.454737	0.000388	20.798489
1958.552218	-2.986500	3.208800	-9.582100	27.493931	0.000390	20.781022
1959.546638	-3.003700	3.209200	-9.638800	27.526327	0.000389	20.772839
1960.549625	-2.988500	3.208200	-9.586100	27.535481	0.000387	20.755970
1961.547098	-3.010700	3.206600	-9.653600	27.563857	0.000388	20.785944
1962.553879	-2.997600	3.206900	-9.611800	27.584197	0.000387	20.792659
1963.549248	-2.989200	3.206100	-9.582800	27.600468	0.000383	20.767305
1964.553542	-3.023800	3.206200	-9.692700	27.636111	0.000384	20.782780
1965.547399	-3.014700	3.204800	-9.660500	27.641568	0.000383	20.794435
1966.548098	-2.991200	3.206500	-9.590100	27.660865	0.000383	20.778291
1967.550440	-3.000300	3.205100	-9.615200	27.636513	0.000384	20.772279
1968.548051	-3.006800	3.204200	-9.633100	27.611464	0.000383	20.766988
1969.552691	-3.021500	3.204600	-9.681600	27.524608	0.000379	20.782963
1970.549094	-2.985900	3.204000	-9.565700	27.496580	0.000378	20.767566
1971.554053	-2.991000	3.204500	-9.582700	27.491473	0.000378	20.761479
1972.553433	-3.004400	3.203500	-9.623900	27.516527	0.000377	20.761555
1973.558484	-2.999700	3.201700	-9.602900	27.521488	0.000376	20.763703
1974.555977	-2.994800	3.204100	-9.594800	27.508394	0.000375	20.745786
1975.551343	-2.995100	3.201200	-9.585100	27.534414	0.000376	20.768648
1976.551097	-3.006200	3.200900	-9.620600	27.573257	0.000373	20.768848
1977.557003	-3.007700	3.201700	-9.628400	27.608452	0.000374	20.770596
1978.558940	-2.999800	3.200600	-9.600200	27.625073	0.000371	20.757448
1979.556230	-3.006600	3.197900	-9.613900	27.662249	0.000373	20.743647
1980.552912	-3.001400	3.199300	-9.601000	27.702501	0.000372	20.769454
1981.553189	-2.992200	3.198400	-9.569300	27.714505	0.000370	20.775843
1982.552951	-2.995200	3.200500	-9.584900	27.714579	0.000369	20.751735
1983.554211	-2.992300	3.198300	-9.569600	27.732560	0.000370	20.756554
1984.555666	-2.982200	3.196600	-9.531700	27.741537	0.000369	20.776020
1985.553096	-2.991500	3.198200	-9.566200	27.736132	0.000367	20.778167
1986.554805	-3.014700	3.197500	-9.638000	27.750171	0.000368	20.770009
1987.553873	-2.966200	3.197800	-9.482700	27.757238	0.000367	20.760526
1988.557427	-2.996100	3.195900	-9.574100	27.763660	0.000367	20.756556
1989.562341	-2.991500	3.194800	-9.556600	27.767379	0.000364	20.765516
1990.556686	-3.007100	3.194200	-9.604800	27.761676	0.000365	20.744603
1991.557602	-2.991100	3.193600	-9.551000	27.754784	0.000364	20.737192
1992.557389	-3.003200	3.194300	-9.592200	27.736630	0.000366	20.744528
1993.558481	-2.984500	3.193500	-9.530100	27.749551	0.000362	20.762273
1994.560021	-2.989800	3.196300	-9.554400	27.773036	0.000364	20.754612
1995.555790	-3.010900	3.190600	-9.605600	27.742210	0.000363	20.744453
1996.560092	-3.015600	3.192200	-9.625500	27.678773	0.000360	20.756956
1997.555595	-2.983100	3.191600	-9.520200	27.627559	0.000360	20.749044
1998.556846	-3.022900	3.192400	-9.648100	27.597178	0.000359	20.773951
1999.561097	-3.007300	3.190000	-9.592100	27.579419	0.000357	20.769359
2000.560360	-2.998300	3.189400	-9.561900	27.629940	0.000357	20.759501
2001.561266	-2.993200	3.190400	-9.547700	27.640827	0.000358	20.755283
2002.560793	-2.994600	3.189900	-9.551400	27.636016	0.000357	20.758977
2003.560498	-3.000300	3.187700	-9.563400	27.629964	0.000355	20.760948
2004.560748	-2.984500	3.188200	-9.513600	27.607420	0.000354	20.758177
2005.565040	-2.962500	3.189400	-9.447500	27.606776	0.000353	20.736192
2006.558696	-2.987700	3.187600	-9.522600	27.618927	0.000352	20.773549
2007.562146	-3.002800	3.186500	-9.567700	27.666320	0.000353	20.778090
2008.559453	-3.005600	3.186800	-9.576400	27.677779	0.000351	20.773026
2009.560396	-3.001500	3.187300	-9.564500	27.684252	0.000351	20.752512
2010.565700	-2.983500	3.184800	-9.500600	27.685789	0.000348	20.747895
2011.559858	-3.036700	3.182300	-9.661100	27.696800	0.000347	20.769880
2012.561209	-2.980800	3.183800	-9.488300	27.701559	0.000346	20.754754
2013.563429	-2.996100	3.183200	-9.535600	27.737817	0.000346	20.761844
2014.563869	-3.020000	3.183700	-9.613800	27.741634	0.000344	20.758098
2015.562355	-2.988000	3.185100	-9.515600	27.753637	0.000343	20.757376
2016.562457	-3.036300	3.181200	-9.658300	27.746819	0.000342	20.770903
2017.559585	-3.010100	3.182600	-9.578200	27.755697	0.000343	20.773674
2018.562503	-2.970700	3.181600	-9.451100	27.755524	0.000340	20.778716
2019.565867	-3.000900	3.180500	-9.543700	27.785256	0.000340	20.787774
2020.566347	-2.977600	3.181800	-9.473100	27.803185	0.000340	20.769781
2021.567931	-2.960600	3.182000	-9.419100	27.855332	0.000339	20.768209
2022.565981	-3.012000	3.179200	-9.575000	27.873980	0.000338	20.792193
2023.568539	-3.004900	3.178800	-9.550500	27.886922	0.000338	20.774398
2024.569576	-3.005600	3.184300	-9.569600	27.930339	0.000338	20.764044
2025.566251	-3.001600	3.178900	-9.539900	27.939216	0.000335	20.758279
2026.570405	-3.005300	3.177500	-9.548200	27.884420	0.000335	20.766665
2027.564593	-3.007500	3.177300	-9.554600	27.825530	0.000334	20.769510
2028.564770	-3.010500	3.177900	-9.566900	27.752055	0.000335	20.761474
2029.564029	-2.991700	3.176000	-9.500600	27.687827	0.000332	20.766541
2030.568250	-2.989500	3.176500	-9.495000	27.692191	0.000331	20.790847
2031.569076	-3.015200	3.176500	-9.576400	27.654694	0.000333	20.773030
2032.567805	-3.003300	3.175600	-9.536200	27.649459	0.000332	20.767288
2033.567373	-3.003500	3.173600	-9.531100	27.633117	0.000334	20.772181
2034.570568	-2.990600	3.175000	-9.494000	27.621139	0.000330	20.779095
2035.570609	-2.992900	3.172300	-9.492500	27.646136	0.000332	20.787178
2036.570642	-3.011700	3.172900	-9.555300	27.691892	0.000330	20.762571
2037.567307	-2.983200	3.173400	-9.465500	27.758008	0.000328	20.784534
2038.569841	-3.019300	3.170300	-9.571200	27.828406	0.000327	20.772879
2039.570672	-3.009400	3.170600	-9.540600	27.821562	0.000328	20.773102
2040.566493	-2.998700	3.169800	-9.504900	27.840111	0.000326	20.793667
2041.570724	-2.997000	3.171500	-9.504500	27.831330	0.000325	20.785304
2042.570304	-3.012300	3.168500	-9.543100	27.825180	0.000326	20.790969
2043.571427	-3.026800	3.168000	-9.588300	27.865995	0.000322	20.801701
2044.570017	-2.998200	3.169100	-9.500600	27.913104	0.000322	20.778939
2045.570713	-3.002300	3.168100	-9.510000	27.943256	0.000321	20.756656
2046.573035	-3.005800	3.166900	-9.518200	27.989295	0.000323	20.785453
2047.574498	-3.016700	3.166400	-9.550900	28.025815	0.000318	20.759625
2048.571542	-2.979700	3.167100	-9.436400	28.045723	0.000320	20.778241
2049.567570	-3.009300	3.164700	-9.522600	28.016047	0.000320	20.772077
2050.570408	-3.023800	3.164600	-9.568400	28.024375	0.000320	20.785202
2051.570898	-3.002700	3.166200	-9.506200	28.066867	0.000320	20.792888
2052.573156	-3.008900	3.164800	-9.522100	28.064115	0.000316	20.770203
2053.574944	-3.010400	3.164400	-9.524900	28.064191	0.000317	20.787824
2054.573775	-2.983200	3.164900	-9.439100	28.024499	0.000315	20.786275
2055.572881	-3.009400	3.163300	-9.517600	27.981581	0.000315	20.793335
2056.580329	-2.976900	3.164600	-9.419000	27.924013	0.000313	20.797506
2057.570604	-3.017400	3.160800	-9.535700	27.876654	0.000314	20.780660
2058.579645	-2.968700	3.162600	-9.387100	27.836508	0.000313	20.805214
2059.573727	-3.008200	3.160200	-9.505500	27.838343	0.000312	20.784776
2060.573252	-2.975900	3.162100	-9.409300	27.865643	0.000312	20.768155
2061.573246	-2.973600	3.161200	-9.399500	27.904519	0.000313	20.783100
2062.571955	-2.992400	3.157900	-9.448600	27.894899	0.000311	20.787169
2063.573593	-3.032500	3.159000	-9.578700	27.886072	0.000308	20.791087
2064.572978	-2.986700	3.158100	-9.431700	27.924677	0.000309	20.788691
2065.574129	-2.976000	3.157800	-9.396400	27.945528	0.000308	20.792608
2066.573646	-2.989500	3.156300	-9.433900	27.935734	0.000309	20.796027
2067.573801	-2.979700	3.156700	-9.405200	27.914113	0.000307	20.782326
2068.577165	-3.000300	3.156600	-9.469400	27.968263	0.000305	20.801741
2069.575862	-3.011400	3.153800	-9.496700	27.978129	0.000305	20.800292
2070.577026	-2.988300	3.154200	-9.424600	27.980879	0.000305	20.810172
2071.574715	-3.004900	3.153300	-9.474300	28.043803	0.000304	20.801913
2072.574883	-2.989900	3.153700	-9.428400	28.055576	0.000305	20.813290
2073.581832	-2.999000	3.152500	-9.453200	28.068294	0.000305	20.811394
2074.581013	-3.005300	3.152700	-9.474100	28.037502	0.000303	20.819278
2075.577223	-3.017500	3.151200	-9.507000	28.024833	0.000300	20.801310
2076.578486	-3.003600	3.151900	-9.465800	27.949784	0.000300	20.820599
2077.576297	-2.981700	3.150400	-9.391900	27.908451	0.000300	20.804128
2078.578571	-2.983700	3.150600	-9.397700	27.905995	0.000298	20.806872
2079.577314	-2.988400	3.150100	-9.411400	27.924592	0.000298	20.811839
2080.580418	-3.004100	3.147900	-9.456300	27.954492	0.000297	20.808743
2081.588821	-2.972400	3.148700	-9.358200	27.982187	0.000297	20.816704
2082.579206	-3.018900	3.147600	-9.501100	28.023739	0.000296	20.804002
2083.580941	-3.015700	3.146900	-9.488500	28.068462	0.000294	20.826262
2084.585182	-2.988000	3.147500	-9.404000	28.104085	0.000293	20.816129
2085.583794	-2.990000	3.145800	-9.405100	28.143947	0.000294	20.811688
2086.581813	-2.992400	3.146500	-9.414700	28.140973	0.000292	20.836194
2087.584201	-2.989200	3.144500	-9.397400	28.181554	0.000292	20.804977
2088.581165	-2.966600	3.144200	-9.325900	28.163854	0.000293	20.796167
2089.589336	-2.987200	3.146200	-9.397000	28.124441	0.000289	20.809594
2090.585025	-2.986300	3.144700	-9.389000	28.103569	0.000290	20.809445
2091.587375	-3.016100	3.142800	-9.477500	28.116387	0.000290	20.807176
2092.586367	-3.013300	3.141700	-9.466000	28.145315	0.000287	20.793625
2093.583138	-3.004200	3.141500	-9.436800	28.157442	0.000286	20.808678
2094.584093	-2.994500	3.140400	-9.402100	28.139320	0.000287	20.834530
2095.589091	-2.991100	3.142200	-9.396900	28.080222	0.000285	20.809177
2096.585990	-2.993000	3.141000	-9.399800	28.039913	0.000283	20.825499
2097.582990	-2.983200	3.140100	-9.365600	28.029801	0.000284	20.821010
2098.585989	-2.991000	3.138100	-9.385500	28.061684	0.000282	20.831766
2099.588991	-2.986100	3.139000	-9.372500	28.115182	0.000282	20.824455
2100.586990	-2.977900	3.137300	-9.341900	28.135238	0.000281	20.823783
2101.582990	-3.014200	3.135800	-9.450900	28.149467	0.000282	20.827675
2102.582047	-3.008100	3.134600	-9.427300	28.137174	0.000280	20.814826
2103.582045	-3.015900	3.134400	-9.451600	28.115261	0.000278	20.828327
2104.582046	-3.018000	3.134800	-9.459000	28.141615	0.000281	20.817400
2105.585087	-2.986700	3.135500	-9.363400	28.152248	0.000278	20.820044
2106.581935	-2.993600	3.132000	-9.375600	28.130883	0.000282	20.813708
2107.582543	-3.009300	3.132600	-9.426000	28.098235	0.000277	20.815456
2108.583052	-3.011800	3.131300	-9.428100	28.117620	0.000278	20.811737
2109.583052	-2.994200	3.134500	-9.385000	28.118412	0.000276	20.848094
2110.585715	-3.004800	3.132000	-9.409700	28.134875	0.000278	20.817253
2112.843741	-3.002100	3.130500	-9.396500	28.130044	0.000276	20.827562
2113.846781	-3.011500	3.128800	-9.421700	28.178035	0.000276	20.808547
2114.844743	-2.994800	3.128300	-9.368100	28.211970	0.000274	20.816632
2115.845741	-3.000600	3.129900	-9.390600	28.215836	0.000272	20.814835
2116.847754	-3.004400	3.127300	-9.393800	28.180491	0.000273	20.831881
2117.851772	-3.013200	3.127100	-9.422100	28.182698	0.000274	20.832681
2118.848333	-2.986300	3.127500	-9.338700	28.210709	0.000272	20.837174
2119.853126	-3.005800	3.124800	-9.390400	28.247792	0.000272	20.841791
2120.849080	-2.994000	3.124900	-9.355800	28.267349	0.000273	20.829240
2121.851494	-2.972400	3.124300	-9.284500	28.283235	0.000272	20.826268
2122.851657	-3.007600	3.122500	-9.389500	28.245513	0.000269	20.830488
2123.853520	-3.004300	3.123200	-9.381400	28.221571	0.000271	20.840996
2124.857233	-3.026800	3.120800	-9.444800	28.234654	0.000268	20.843737
2125.857913	-3.024600	3.120000	-9.436100	28.215298	0.000268	20.833259
2126.854043	-3.008600	3.119900	-9.385400	28.203425	0.000266	20.838375
2127.859740	-3.027700	3.119200	-9.442000	28.209299	0.000268	20.837650
2128.856729	-3.024400	3.118400	-9.430300	28.217056	0.000265	20.837399
2129.853187	-2.994800	3.120100	-9.341100	28.260285	0.000265	20.835878
2130.856421	-2.991000	3.117700	-9.324400	28.264526	0.000265	20.825923
2131.851348	-3.027200	3.114900	-9.428000	28.277887	0.000264	20.848384
2132.855997	-3.001000	3.117800	-9.354500	28.211335	0.000263	20.832114
2133.862566	-2.986800	3.116900	-9.308800	28.156330	0.000263	20.829368
2134.853376	-2.992500	3.116300	-9.324300	28.165328	0.000261	20.839849
2135.854980	-2.995500	3.115600	-9.331900	28.198471	0.000260	20.861835
2136.858277	-3.003700	3.113900	-9.352100	28.225738	0.000262	20.846139
2137.858250	-2.998800	3.114400	-9.338600	28.234883	0.000260	20.830691
2138.855893	-2.995700	3.113700	-9.326400	28.233744	0.000260	20.841398
2139.852503	-3.020100	3.112400	-9.399400	28.187668	0.000261	20.840529
2140.866565	-3.010800	3.110800	-9.364500	28.137344	0.000258	20.839179
2141.854947	-3.019400	3.108800	-9.385300	28.148352	0.000257	20.859268
2142.857498	-3.014000	3.109000	-9.369800	28.167862	0.000257	20.838133
2143.859663	-2.970200	3.109300	-9.232900	28.192375	0.000257	20.847639
2144.856542	-3.000600	3.108500	-9.325800	28.207646	0.000259	20.861589
2145.858861	-2.963500	3.108600	-9.210700	28.201844	0.000259	20.858119
2146.859893	-2.997200	3.107400	-9.311200	28.181817	0.000258	20.841276
2147.856726	-2.983100	3.107400	-9.268400	28.204995	0.000255	20.854653
2148.858353	-2.990500	3.106800	-9.288800	28.211936	0.000258	20.834616
2149.861238	-3.010300	3.104000	-9.342800	28.211786	0.000256	20.854378
2150.862848	-3.002600	3.104800	-9.321400	28.217068	0.000255	20.842152
2151.865112	-2.998000	3.104000	-9.305200	28.268894	0.000254	20.847390
2152.866058	-2.985700	3.103800	-9.265700	28.281834	0.000253	20.857099
2153.862278	-2.999500	3.102200	-9.304100	28.251198	0.000252	20.875091
2154.863686	-2.971400	3.101200	-9.213000	28.255461	0.000251	20.854728
2155.862319	-3.014600	3.099600	-9.343100	28.292838	0.000251	20.834988
2156.860886	-3.016000	3.099300	-9.346000	28.315763	0.000253	20.860914
2157.863286	-2.992000	3.098300	-9.268700	28.305726	0.000250	20.856024
2158.867474	-2.985900	3.097300	-9.246700	28.292120	0.000251	20.876937
2159.869067	-2.971100	3.098600	-9.204800	28.322459	0.000248	20.865285
2160.877694	-3.001500	3.094800	-9.288900	28.327661	0.000249	20.851558
2161.871533	-3.000600	3.095800	-9.287400	28.369249	0.000247	20.864508
2162.863664	-2.972100	3.095000	-9.197200	28.358694	0.000248	20.853881
2163.858971	-2.976700	3.096000	-9.214900	28.325704	0.000247	20.880879
2164.860190	-2.992400	3.092600	-9.253300	28.271648	0.000249	20.852059
2165.867487	-3.029000	3.092400	-9.365400	28.239400	0.000246	20.857049
2166.876437	-3.022900	3.092200	-9.346100	28.230923	0.000245	20.853730
2167.873137	-3.024300	3.090000	-9.344300	28.220586	0.000244	20.862289
2168.871655	-2.993800	3.090800	-9.252700	28.220663	0.000244	20.871374
2169.863481	-2.983200	3.089200	-9.214700	28.255831	0.000243	20.878807
2170.874025	-3.011200	3.086800	-9.293900	28.301514	0.000242	20.861266
2171.878067	-3.002600	3.087200	-9.268800	28.305506	0.000242	20.874294
2172.879925	-2.977500	3.087200	-9.191000	28.313411	0.000242	20.864709
2173.867973	-2.974000	3.088100	-9.182700	28.313980	0.000241	20.871921
2174.874133	-2.994300	3.084400	-9.234400	28.372821	0.000240	20.889441
2175.870160	-3.001400	3.084900	-9.256800	28.436042	0.000240	20.878660
2176.867238	-2.999500	3.083000	-9.246100	28.413341	0.000239	20.879035
2177.877036	-2.969700	3.084100	-9.157700	28.392053	0.000239	20.900271
2178.883366	-2.979800	3.083000	-9.185700	28.393044	0.000239	20.873770
2179.872682	-3.001100	3.083100	-9.251500	28.394257	0.000239	20.872146
2180.868671	-2.980900	3.080700	-9.182400	28.411608	0.000238	20.855954
2181.872860	-2.991400	3.078400	-9.207000	28.439241	0.000236	20.890416
2182.868293	-2.974900	3.077900	-9.155800	28.458421	0.000236	20.887445
2183.871678	-2.991600	3.077800	-9.206500	28.528181	0.000235	20.875669
2184.870636	-3.009900	3.076000	-9.257100	28.555565	0.000237	20.874323
2185.869565	-2.995100	3.076200	-9.212400	28.558316	0.000234	20.877093
2186.875198	-2.990700	3.075900	-9.197400	28.560448	0.000236	20.901998
2187.880909	-2.979900	3.074700	-9.161700	28.554054	0.000234	20.877543
2188.872069	-3.002100	3.073000	-9.224500	28.515198	0.000235	20.885826
2189.874404	-2.982900	3.073600	-9.167500	28.450571	0.000234	20.867688
2190.874732	-2.989400	3.071100	-9.180000	28.395504	0.000235	20.875298
2191.877244	-3.018800	3.069400	-9.265000	28.349902	0.000234	20.883433
2192.876038	-2.991400	3.068700	-9.179000	28.366632	0.000235	20.889847
2193.876460	-2.994100	3.069900	-9.189000	28.369827	0.000236	20.888323
2194.883608	-2.973000	3.068100	-9.120300	28.376371	0.000234	20.890644
2195.875297	-2.994900	3.067500	-9.185700	28.428589	0.000235	20.902921
2196.876586	-2.996100	3.067200	-9.188400	28.467793	0.000236	20.884555
2197.880643	-3.013200	3.065600	-9.236300	28.519583	0.000233	20.882656
2198.877669	-2.996000	3.064300	-9.180000	28.544958	0.000235	20.891141
2199.881315	-3.002900	3.063400	-9.197200	28.568077	0.000234	20.910155
2200.876163	-2.997400	3.063000	-9.180100	28.566862	0.000231	20.889493
2201.879386	-2.999600	3.061900	-9.183500	28.563766	0.000232	20.872151
2202.886138	-2.987500	3.061100	-9.144100	28.598282	0.000234	20.909281
2203.879105	-3.015100	3.058600	-9.220500	28.547758	0.000232	20.893961
2204.882635	-2.979300	3.058600	-9.110700	28.535739	0.000231	20.912674
2205.879454	-3.001200	3.057400	-9.174900	28.481694	0.000230	20.902820
2206.883490	-3.015600	3.056200	-9.215500	28.425364	0.000232	20.908209
2207.881667	-2.992500	3.054600	-9.140200	28.435474	0.000231	20.903691
2208.884002	-3.002000	3.055700	-9.171800	28.447446	0.000231	20.917167
2209.882530	-3.006700	3.053100	-9.179200	28.428411	0.000229	20.897054
2210.882126	-3.003400	3.052400	-9.166400	28.460060	0.000231	20.922283
2211.883328	-2.979200	3.052700	-9.093300	28.514330	0.000229	20.925726
2212.883113	-3.005900	3.049800	-9.166500	28.531078	0.000231	20.902291
2213.885436	-3.008700	3.048300	-9.170700	28.521316	0.000229	20.897202
2214.884017	-2.989000	3.047800	-9.107700	28.498963	0.000231	20.907407
2215.889510	-2.982300	3.048700	-9.091200	28.453291	0.000230	20.906459
2216.884359	-2.994800	3.045700	-9.119800	28.435773	0.000232	20.897828
2217.885116	-2.965300	3.046600	-9.032800	28.421174	0.000229	20.915842
2218.888400	-3.001500	3.043900	-9.134800	28.438867	0.000229	20.911374
2219.886953	-3.005600	3.043700	-9.147000	28.464293	0.000227	20.915167
2220.886989	-3.030800	3.041000	-9.215800	28.504611	0.000228	20.897923
2221.884762	-3.000000	3.041500	-9.122700	28.550379	0.000228	20.914616
2222.889100	-3.010200	3.040100	-9.150800	28.583161	0.000229	20.932456
2223.888569	-2.992300	3.039000	-9.092800	28.610590	0.000228	20.927839
2224.892124	-2.986600	3.037600	-9.071600	28.637843	0.000227	20.923994
2225.888239	-3.032000	3.035200	-9.202300	28.641831	0.000226	20.927062
2226.888476	-2.985400	3.036000	-9.062600	28.642995	0.000227	20.925863
2227.886814	-2.995000	3.034800	-9.088300	28.602432	0.000225	20.928631
2228.889294	-3.026800	3.034400	-9.183600	28.603521	0.000226	20.921194
2229.891032	-3.006800	3.031800	-9.115200	28.561667	0.000228	20.922664
2230.887377	-3.018300	3.031700	-9.149700	28.538674	0.000225	20.918948
2231.889223	-3.030000	3.029000	-9.176400	28.528537	0.000226	20.909215
2232.890379	-3.006700	3.028900	-9.105600	28.496741	0.000226	20.931719
2233.888761	-2.989700	3.027900	-9.051300	28.528508	0.000227	20.910608
2234.887918	-3.005300	3.027300	-9.096000	28.583369	0.000227	20.911331
2235.887053	-2.996900	3.026500	-9.068800	28.604776	0.000229	20.936208
2236.888105	-2.997300	3.024600	-9.064100	28.650021	0.000226	20.931990
2237.888333	-3.003900	3.023300	-9.080500	28.683590	0.000228	20.901320
2238.889704	-2.996900	3.021700	-9.054300	28.710968	0.000226	20.918937
2239.890945	-2.998300	3.020800	-9.056300	28.683290	0.000227	20.910500
2240.890190	-2.998700	3.019800	-9.054500	28.657349	0.000226	20.921829
2241.890774	-3.000300	3.018900	-9.056600	28.676847	0.000224	20.895003
2242.892425	-2.974700	3.018100	-8.977100	28.668620	0.000225	20.902363
2243.891048	-2.991300	3.016700	-9.022200	28.684326	0.000223	20.903483
2244.891683	-2.991700	3.016100	-9.021800	28.695301	0.000226	20.896995
2245.893218	-2.998700	3.013400	-9.035400	28.711255	0.000224	20.897417
2246.890386	-2.997400	3.012000	-9.027900	28.709892	0.000225	20.897466
2247.891014	-3.009700	3.012000	-9.064400	28.727925	0.000223	20.902354
2248.892567	-2.999400	3.010200	-9.028500	28.750296	0.000223	20.895491
2249.892752	-3.014600	3.007800	-9.065500	28.733449	0.000224	20.902228
2250.894842	-2.992400	3.007900	-9.000000	28.756339	0.000224	20.913431
2251.897515	-3.009800	3.007100	-9.049700	28.742738	0.000224	20.889775
2252.898409	-2.985500	3.006300	-8.974300	28.716845	0.000223	20.913004
2253.895173	-3.012300	3.004700	-9.050000	28.692835	0.000222	20.895460
2254.898829	-2.989800	3.004800	-8.983500	28.732974	0.000222	20.925455
2255.898355	-2.996200	3.001700	-8.992800	28.758415	0.000223	20.895609
2256.895708	-3.017900	3.000200	-9.053200	28.729726	0.000219	20.902271
2257.895778	-3.017100	2.998800	-9.045800	28.751056	0.000220	20.901946
2258.896029	-3.000200	2.998500	-8.995500	28.793790	0.000222	20.885725
2259.896795	-2.968200	2.998700	-8.899000	28.757200	0.000219	20.883954
2260.898641	-3.002300	2.996300	-8.995300	28.725933	0.000220	20.881383
2261.895709	-3.008200	2.995300	-9.010000	28.760072	0.000220	20.885424
2262.900192	-3.007100	2.993600	-9.001000	28.773451	0.000222	20.885151
2263.897685	-3.008800	2.992400	-9.002800	28.838778	0.000219	20.908281
2264.898610	-3.010900	2.990600	-9.003500	28.860478	0.000220	20.879159
2265.900010	-3.011100	2.989500	-9.001400	28.923618	0.000220	20.897498
2266.900779	-3.000600	2.986400	-8.959500	28.956686	0.000220	20.879132
2267.896893	-3.008300	2.986400	-8.983100	28.976699	0.000221	20.904983
2268.900633	-3.010000	2.985100	-8.984700	28.956785	0.000219	20.873542
2269.901941	-3.014000	2.983200	-8.988900	28.896888	0.000219	20.889536
2270.900708	-2.996200	2.981400	-8.931700	28.857302	0.000218	20.889012
2271.902216	-3.011200	2.980900	-8.974500	28.850587	0.000217	20.884144
2272.899155	-2.968800	2.980000	-8.846100	28.882024	0.000218	20.892105
2273.907927	-3.018900	2.978500	-8.989800	28.881479	0.000219	20.872592
2274.898265	-3.034900	2.973200	-9.022000	28.942960	0.000216	20.875734
2275.902902	-2.993900	2.975900	-8.908200	28.937783	0.000217	20.876683
2276.902304	-2.990500	2.974000	-8.891600	28.901193	0.000218	20.879175
2277.898022	-2.988700	2.972500	-8.883400	28.816176	0.000217	20.882670
2278.899134	-2.989900	2.972000	-8.885200	28.801634	0.000215	20.886039
2279.898729	-2.997700	2.970100	-8.903300	28.855366	0.000216	20.878527
2280.899700	-3.017500	2.966900	-8.951600	28.872680	0.000217	20.891701
2281.900969	-3.007100	2.966600	-8.919900	28.897798	0.000215	20.875281
2282.905985	-2.996400	2.965000	-8.883500	28.907014	0.000218	20.878401
2283.903112	-3.039500	2.961700	-9.000900	28.955761	0.000218	20.881993
2284.904300	-2.987000	2.962800	-8.848900	28.980828	0.000217	20.862204
2285.902648	-2.978500	2.962100	-8.821900	29.019046	0.000216	20.884587
2286.906498	-2.984100	2.959600	-8.830400	29.018351	0.000216	20.873457
2287.903576	-3.012400	2.957100	-8.907400	28.991376	0.000219	20.880417
2288.903780	-2.997400	2.957200	-8.863200	28.981666	0.000219	20.859730
2289.905336	-2.997400	2.954600	-8.854700	28.967944	0.000217	20.886206
2290.908456	-3.015600	2.952600	-8.902900	28.920087	0.000219	20.876399
2291.906061	-3.012100	2.951800	-8.890200	28.927218	0.000218	20.884057
2292.907121	-3.021100	2.948700	-8.905600	28.911687	0.000217	20.872678
2293.905872	-3.003300	2.948600	-8.854500	28.916541	0.000218	20.865715
2294.903265	-2.991300	2.948000	-8.817400	28.913121	0.000218	20.864166
2295.906821	-3.002200	2.944500	-8.838800	28.888399	0.000219	20.868657
2296.906608	-2.991700	2.942900	-8.803400	28.842941	0.000219	20.869804
2297.909276	-2.995500	2.941500	-8.809800	28.844998	0.000217	20.885626
2298.906742	-3.016000	2.940300	-8.867000	28.893574	0.000217	20.880508
2299.908923	-3.016900	2.937000	-8.858800	28.896496	0.000218	20.894357
2300.907460	-2.960200	2.938500	-8.697700	28.870659	0.000217	20.873071
2301.906670	-2.987100	2.936400	-8.769400	28.854432	0.000215	20.857673
2302.906769	-2.996000	2.933200	-8.787300	28.788957	0.000214	20.865684
2303.907962	-2.992400	2.933900	-8.778700	28.773397	0.000216	20.864234
2304.905849	-3.001300	2.931300	-8.795900	28.736680	0.000217	20.858071
2305.905932	-2.982800	2.929600	-8.738000	28.720850	0.000215	20.852557
2306.911229	-3.007400	2.927000	-8.802000	28.718743	0.000215	20.862288
2307.907345	-2.987500	2.926700	-8.742500	28.738982	0.000213	20.836209
2308.915541	-2.979700	2.924500	-8.712800	28.743492	0.000216	20.845493
2309.908078	-3.000100	2.921200	-8.762800	28.728552	0.000217	20.838031
2310.910997	-3.003400	2.921400	-8.773300	28.689505	0.000216	20.848487
2311.909242	-2.972500	2.919800	-8.678000	28.699120	0.000217	20.849162
2312.907601	-3.019700	2.916500	-8.805500	28.751098	0.000215	20.865955
2313.910917	-2.999300	2.916500	-8.746300	28.793240	0.000215	20.871895
2314.909033	-2.976400	2.914500	-8.673300	28.803892	0.000217	20.853228
2315.908727	-3.001500	2.912300	-8.739900	28.853388	0.000216	20.859466
2316.908427	-2.986800	2.912100	-8.696700	28.906103	0.000217	20.854725
2317.907383	-3.030700	2.908500	-8.813200	28.944397	0.000215	20.856321
2318.909006	-2.994200	2.907300	-8.703700	28.993119	0.000215	20.855621
2319.909781	-3.007100	2.906200	-8.737900	29.042507	0.000215	20.885466
2320.907027	-3.001600	2.904200	-8.715900	29.093579	0.000216	20.862485
2321.910664	-3.012700	2.902800	-8.744400	29.108090	0.000217	20.853874
2322.926919	-3.026500	2.898100	-8.769600	29.066456	0.000217	20.865027
2323.908103	-3.024400	2.898200	-8.764000	29.088127	0.000216	20.862682
2324.911483	-2.995600	2.895500	-8.671900	29.078915	0.000217	20.858615
2325.916807	-3.007700	2.893600	-8.702100	29.035274	0.000217	20.865377
2326.909100	-3.005900	2.893200	-8.694700	29.002155	0.000217	20.863777
2327.910540	-2.987400	2.891900	-8.637500	28.979220	0.000216	20.823602
2328.910083	-3.020500	2.888100	-8.722100	29.018256	0.000215	20.843965
2329.910351	-2.986700	2.886300	-8.618800	29.025784	0.000217	20.837325
2330.913539	-2.952700	2.886800	-8.522800	29.061549	0.000216	20.872410
2331.911670	-3.006200	2.882700	-8.664700	29.093077	0.000217	20.863876
2332.911355	-3.001200	2.880400	-8.643800	29.148650	0.000217	20.846381
2333.910746	-2.979500	2.879600	-8.578900	29.169229	0.000214	20.838668
2334.910104	-2.985000	2.877700	-8.588900	29.176410	0.000215	20.834525
2335.915438	-3.008200	2.876100	-8.650300	29.105431	0.000216	20.850720
2336.912103	-3.005000	2.874500	-8.636600	29.049605	0.000213	20.851369
2337.912883	-2.974300	2.872300	-8.542400	28.995013	0.000214	20.875073
2338.911774	-2.990800	2.868500	-8.577800	28.985381	0.000214	20.836921
2339.916565	-3.005100	2.869100	-8.621000	28.944087	0.000215	20.855060
2340.913500	-3.015200	2.865200	-8.638500	28.946514	0.000213	20.844230
2341.913345	-3.013000	2.862800	-8.624000	28.910151	0.000212	20.844579
2342.920341	-2.986900	2.861300	-8.545400	28.853201	0.000212	20.841261
2343.911513	-2.997400	2.860800	-8.574300	28.806230	0.000214	20.835670
2344.913091	-3.022200	2.857900	-8.636100	28.747813	0.000214	20.836569
2345.914481	-3.008500	2.855400	-8.589000	28.700293	0.000212	20.837068
2346.913851	-3.007600	2.853600	-8.581300	28.672544	0.000213	20.849420
2347.913953	-2.996200	2.851400	-8.542300	28.647420	0.000213	20.844031
2348.915767	-3.008600	2.849900	-8.573800	28.646033	0.000213	20.832676
2349.915470	-3.013700	2.846100	-8.575800	28.635180	0.000212	20.844505
2350.912899	-3.008500	2.844900	-8.557100	28.638799	0.000212	20.832502
2351.919588	-2.991500	2.844100	-8.506600	28.627350	0.000213	20.840886
2352.913784	-2.988700	2.842000	-8.492100	28.665359	0.000212	20.852141
2353.914124	-2.992800	2.839700	-8.497300	28.670266	0.000212	20.824842
2354.913890	-3.019500	2.837100	-8.565900	28.705969	0.000212	20.832353
2355.918283	-2.992500	2.834600	-8.481800	28.672149	0.000212	20.833376
2356.916150	-3.002700	2.831800	-8.502100	28.668432	0.000211	20.839590
2357.917180	-3.012300	2.829500	-8.522400	28.658324	0.000212	20.833202
2358.914302	-3.003400	2.827200	-8.490100	28.707731	0.000212	20.833654
2359.916503	-3.005300	2.826100	-8.492300	28.781016	0.000212	20.838246
2360.917735	-2.993900	2.824400	-8.454700	28.818004	0.000213	20.841366
2361.916431	-3.013300	2.820400	-8.497100	28.810175	0.000211	20.825419
2362.923977	-2.986300	2.819800	-8.419600	28.820929	0.000211	20.820606
2363.921312	-3.010900	2.815800	-8.477300	28.853881	0.000211	20.834360
2364.921033	-3.020100	2.813600	-8.496500	28.905504	0.000214	20.802915
2365.917075	-3.027700	2.810300	-8.507900	28.944568	0.000212	20.847010
2366.919691	-3.033700	2.810000	-8.524000	28.984549	0.000211	20.839402
2367.919460	-3.005700	2.806000	-8.433100	29.006148	0.000213	20.856895
2368.918153	-3.007300	2.804300	-8.432700	29.018137	0.000210	20.843845
2369.918549	-3.018600	2.801300	-8.455400	29.027845	0.000212	20.828496
2370.918618	-2.988700	2.801200	-8.368800	29.071217	0.000211	20.838058
2371.918317	-3.008000	2.795200	-8.406000	29.098583	0.000212	20.844768
2372.919181	-2.967700	2.794800	-8.292400	29.148885	0.000213	20.826229
2373.924049	-2.990100	2.793400	-8.351900	29.163570	0.000211	20.823010
2374.916922	-3.019100	2.788400	-8.418100	29.094473	0.000210	20.833041
2375.923251	-3.015300	2.785600	-8.398500	29.069705	0.000210	20.830844
2376.918773	-3.050800	2.782700	-8.488000	29.052493	0.000213	20.823459
2377.918917	-2.987200	2.782500	-8.309700	29.095909	0.000215	20.796083
2378.929428	-3.011000	2.777500	-8.362300	29.134148	0.000213	20.821337
2379.923223	-2.997600	2.776200	-8.320700	29.180857	0.000213	20.811032
2380.921018	-2.983200	2.773000	-8.271800	29.220753	0.000213	20.804768
2381.921497	-3.014100	2.769400	-8.346000	29.220849	0.000213	20.819090
2382.920023	-3.009700	2.766400	-8.325400	29.212329	0.000212	20.825202
2383.920402	-2.991000	2.765100	-8.270000	29.256458	0.000212	20.827474
2384.926775	-2.990100	2.762400	-8.258300	29.304694	0.000213	20.831989
2385.922150	-3.003400	2.758800	-8.284300	29.340497	0.000214	20.824925
2386.924224	-2.982800	2.756600	-8.221200	29.370556	0.000214	20.820134
2387.923240	-3.016500	2.752300	-8.301300	29.327819	0.000215	20.805035
2388.924297	-2.978500	2.751200	-8.194000	29.282826	0.000213	20.809477
2389.923517	-2.994800	2.747300	-8.224800	29.235873	0.000214	20.827117
2390.925475	-3.016900	2.742600	-8.272000	29.281807	0.000214	20.805131
2391.925222	-3.013800	2.739400	-8.255200	29.320285	0.000213	20.823521
2392.922262	-2.992600	2.738200	-8.193200	29.331823	0.000213	20.810019
2393.923585	-2.998600	2.734600	-8.198300	29.336626	0.000213	20.812015
2394.924447	-3.005900	2.729900	-8.204900	29.367923	0.000211	20.819376
2395.923639	-2.987700	2.728900	-8.152200	29.456363	0.000214	20.820798
2396.923813	-2.999200	2.725700	-8.173700	29.451953	0.000212	20.828206
2397.926389	-3.023500	2.720400	-8.224200	29.403896	0.000212	20.830976
2398.927974	-3.002800	2.716900	-8.157700	29.401642	0.000211	20.817326
2399.926855	-2.984600	2.713500	-8.097300	29.458610	0.000213	20.827330
2400.932974	-3.019300	2.711300	-8.184800	29.502429	0.000212	20.818868
2401.937259	-3.013000	2.706700	-8.153700	29.555138	0.000213	20.821266
2402.931756	-3.017800	2.704700	-8.160600	29.608288	0.000210	20.806567
2403.926546	-2.979300	2.701100	-8.045700	29.649380	0.000212	20.805793
2404.930563	-3.036700	2.696000	-8.185800	29.640466	0.000212	20.795859
2405.937062	-2.985900	2.692200	-8.037700	29.643980	0.000214	20.805565
2406.928538	-3.034800	2.688200	-8.156000	29.640986	0.000213	20.812503
2407.930190	-3.020300	2.686000	-8.111700	29.608432	0.000213	20.799600
2408.928674	-3.010900	2.680500	-8.070000	29.643534	0.000214	20.803219
2409.930493	-2.998300	2.676700	-8.024600	29.676802	0.000214	20.814473
2410.933062	-3.020300	2.673200	-8.073300	29.663310	0.000212	20.794707
2411.932307	-2.988200	2.670100	-7.977300	29.613256	0.000213	20.790239
2412.929759	-2.998600	2.667000	-7.995800	29.556642	0.000212	20.805712
2413.931661	-3.001600	2.663000	-7.992400	29.503859	0.000211	20.818887
2414.934051	-2.996200	2.657900	-7.962700	29.497274	0.000212	20.821258
2415.932837	-2.993600	2.654200	-7.944500	29.435724	0.000213	20.798573
2416.933223	-3.002300	2.650200	-7.956000	29.386650	0.000212	20.792732
2417.933257	-2.979000	2.644900	-7.878000	29.385658	0.000211	20.823500
2418.933253	-3.012200	2.639700	-7.950600	29.464021	0.000212	20.804335
2419.934784	-3.009800	2.635300	-7.931000	29.478035	0.000210	20.794279
2420.931426	-3.003400	2.631500	-7.903100	29.431959	0.000211	20.796674
2421.936741	-3.008900	2.626900	-7.902100	29.413935	0.000209	20.813595
2422.935945	-2.991000	2.622900	-7.844300	29.393583	0.000213	20.784073
2423.937997	-3.002400	2.617600	-7.858000	29.423763	0.000211	20.796948
2424.935143	-2.990500	2.613100	-7.813700	29.456965	0.000212	20.813344
2425.935643	-2.998300	2.608200	-7.818600	29.490612	0.000211	20.797948
2426.940486	-3.005800	2.601400	-7.818500	29.552725	0.000211	20.816936
2427.935902	-2.997000	2.597100	-7.782800	29.599144	0.000211	20.803039
2428.936246	-3.010300	2.591800	-7.801400	29.617066	0.000211	20.801192
2429.937508	-3.040700	2.585200	-7.859900	29.608699	0.000210	20.796076
2430.935711	-3.004900	2.580800	-7.753700	29.567234	0.000211	20.798846
2431.939566	-3.003100	2.575900	-7.734700	29.545425	0.000210	20.787767
2432.940012	-2.995200	2.570000	-7.697300	29.559708	0.000209	20.793156
2433.942115	-2.983500	2.566300	-7.655200	29.620706	0.000211	20.790637
2434.938725	-3.007000	2.557800	-7.689700	29.644719	0.000212	20.783077
2435.950329	-2.991300	2.551700	-7.632600	29.588870	0.000212	20.777509
2436.941702	-3.010100	2.547400	-7.666400	29.519135	0.000211	20.802517
2437.945856	-3.005300	2.541200	-7.635100	29.487644	0.000213	20.775041
2438.939770	-2.989700	2.534100	-7.575500	29.490589	0.000212	20.777062
2439.944230	-2.985500	2.527900	-7.545800	29.485191	0.000214	20.806234
2440.941409	-2.992600	2.522500	-7.547200	29.499675	0.000214	20.779582
2441.939488	-3.006300	2.514900	-7.560000	29.492245	0.000213	20.787266
2442.943106	-2.984300	2.508400	-7.484900	29.457561	0.000216	20.787866
2443.940877	-3.033500	2.501700	-7.587500	29.483977	0.000212	20.750956
2444.939250	-2.985300	2.495100	-7.447700	29.541413	0.000213	20.774714
