LabVIEW Measurement	
Writer_Version	2
Reader_Version	2
Separator	Tab
Decimal_Separator	.
Multi_Headings	No
X_Columns	One
Time_Pref	Absolute
Operator	admin
Description	Clolumns are: time, Current, Voltage, Power, Battery Temp, and Chamber Temp
Date	2024/08/16
Time	13:06:06.104549407958984375
***End_of_Header***	
	
Channels	6						
Samples	1	1	1	1	1	1	
Date	2024/09/07	2024/09/07	2024/09/07	2024/09/07	2024/09/07	2024/09/07	
Time	13:55:33.6613359451293945312	13:55:33.6670031547546386719	13:55:33.6754136085510253906	13:55:33.6418237686157226562	13:55:33.6418237686157226562	13:55:33.6418237686157226562	
X_Dimension	Time	Time	Time	Time	Time	Time	
X0	0.0000000000000000E+0	0.0000000000000000E+0	0.0000000000000000E+0	0.0000000000000000E+0	0.0000000000000000E+0	0.0000000000000000E+0	
Delta_X	1.000000	1.000000	1.000000	1.000000	1.000000	1.000000	
***End_of_Header***							
X_Value	Untitled	Untitled 1	Untitled 2	Untitled 3	Untitled 4	Untitled 5	Comment
0.000000	0.024768	4.099500	0.101530	20.962220	0.000915	20.792959
0.995784	-3.006500	3.926400	-11.804000	20.979841	0.000917	20.794461
1.998027	-2.999600	3.919300	-11.755000	20.986275	0.000916	20.807535
3.002501	-3.005700	3.914200	-11.764000	20.967416	0.000913	20.796733
3.997442	-2.984500	3.909800	-11.667000	21.006789	0.000913	20.817146
4.999654	-3.010400	3.907100	-11.761000	20.992522	0.000914	20.815205
5.996787	-3.000700	3.904400	-11.715000	20.998088	0.000912	20.809392
6.998347	-3.000300	3.902000	-11.707000	20.994123	0.000912	20.785038
7.997408	-3.003800	3.898500	-11.709000	20.969520	0.000911	20.799786
9.002899	-2.991300	3.898400	-11.660000	20.984014	0.000910	20.814756
10.001066	-3.004700	3.896800	-11.707000	20.976883	0.000908	20.798141
11.003618	-2.982700	3.894100	-11.614000	20.977505	0.000908	20.810143
12.005117	-3.010500	3.891900	-11.716000	20.986641	0.000908	20.796521
13.001725	-2.990900	3.890600	-11.636000	20.983071	0.000906	20.772087
14.003891	-3.005100	3.888000	-11.682000	20.959841	0.000906	20.799588
15.001702	-3.009500	3.888100	-11.700000	20.996394	0.000906	20.818129
16.007065	-3.007000	3.886500	-11.686000	20.998592	0.000904	20.802784
17.004201	-2.979900	3.887900	-11.583000	21.005955	0.000905	20.798294
18.006190	-3.000600	3.886700	-11.661000	21.017881	0.000904	20.798843
19.007571	-3.018200	3.886300	-11.729000	20.999940	0.000900	20.804132
20.006490	-2.983100	3.882400	-11.580000	21.016083	0.000901	20.790407
21.008213	-3.013500	3.882300	-11.699000	21.030236	0.000901	20.803614
22.009958	-2.997300	3.881100	-11.632000	21.023328	0.000901	20.792437
23.005095	-3.005700	3.880300	-11.661000	21.028389	0.000900	20.794180
24.005620	-3.010700	3.878400	-11.675000	21.039426	0.000900	20.800478
25.009399	-2.993400	3.879500	-11.613000	21.026473	0.000899	20.803170
26.019877	-3.023700	3.876000	-11.718000	21.047984	0.000900	20.786278
27.009591	-3.004700	3.876900	-11.648000	21.054324	0.000897	20.790723
28.007167	-3.002100	3.877000	-11.638000	21.065529	0.000899	20.781542
29.007904	-3.006600	3.876500	-11.654000	21.074787	0.000897	20.788906
30.012204	-3.021600	3.874100	-11.705000	21.063238	0.000897	20.772138
31.011148	-3.010700	3.875800	-11.668000	21.061495	0.000896	20.778929
32.008878	-3.013800	3.873700	-11.673000	21.075464	0.000898	20.788635
33.010310	-2.990900	3.875100	-11.589000	21.090367	0.000896	20.795481
34.020483	-3.008300	3.872600	-11.648000	21.098826	0.000896	20.781656
35.008681	-2.985700	3.873200	-11.564000	21.099626	0.000895	20.770128
36.009160	-3.016200	3.872900	-11.680000	21.104420	0.000894	20.779666
37.011581	-3.002200	3.871300	-11.622000	21.129475	0.000893	20.790977
38.014831	-2.992100	3.872900	-11.586000	21.117471	0.000895	20.787504
39.010324	-3.004200	3.870000	-11.626000	21.125559	0.000893	20.772835
40.012751	-3.010500	3.870000	-11.650000	21.128803	0.000895	20.784141
41.013844	-2.999600	3.870400	-11.609000	21.137741	0.000894	20.791185
42.014194	-3.002100	3.869600	-11.616000	21.135795	0.000894	20.788290
43.018530	-2.988900	3.869600	-11.565000	21.133381	0.000893	20.782082
44.014878	-2.994100	3.868700	-11.583000	21.161397	0.000893	20.760320
45.013379	-2.989000	3.867100	-11.557000	21.167890	0.000893	20.770135
46.016469	-2.979800	3.870100	-11.532000	21.157684	0.000893	20.776995
47.015616	-3.000300	3.868400	-11.604000	21.181587	0.000893	20.776723
48.016750	-2.991400	3.865500	-11.562000	21.187927	0.000892	20.759357
49.015968	-2.986700	3.867300	-11.549000	21.188204	0.000893	20.775756
50.017508	-2.995400	3.866200	-11.580000	21.197990	0.000892	20.768002
51.019091	-2.988900	3.866000	-11.554000	21.227081	0.000893	20.762490
52.015103	-3.011200	3.864500	-11.635000	21.210319	0.000892	20.766110
53.019845	-2.996000	3.865300	-11.580000	21.228804	0.000893	20.772748
54.018289	-3.008300	3.863800	-11.622000	21.242905	0.000892	20.781639
55.022248	-3.001900	3.865200	-11.602000	21.235045	0.000892	20.767612
56.016176	-2.995400	3.864700	-11.574000	21.234226	0.000891	20.750196
57.015229	-3.002200	3.863000	-11.596000	21.226168	0.000891	20.761576
58.021142	-2.997300	3.863100	-11.578000	21.250143	0.000892	20.779871
59.022750	-2.999300	3.862500	-11.583000	21.273545	0.000891	20.757764
60.016169	-2.990300	3.864300	-11.553000	21.282827	0.000890	20.760411
61.021693	-2.972600	3.863700	-11.484000	21.276775	0.000890	20.771900
62.021115	-3.000700	3.863400	-11.592000	21.280339	0.000890	20.759819
63.017573	-2.992800	3.861700	-11.555000	21.290544	0.000891	20.731620
64.020213	-3.006100	3.862100	-11.608000	21.303642	0.000890	20.735715
65.018916	-2.992100	3.861400	-11.552000	21.302650	0.000890	20.755587
66.016134	-3.006800	3.860800	-11.607000	21.304097	0.000891	20.750870
67.020096	-3.004200	3.861000	-11.598000	21.290807	0.000890	20.757014
68.018735	-2.995600	3.862100	-11.567000	21.301258	0.000889	20.761307
69.018981	-2.968900	3.861900	-11.464000	21.311567	0.000889	20.748386
70.023464	-2.998100	3.859200	-11.569000	21.299724	0.000892	20.744124
71.017476	-3.003400	3.858900	-11.587000	21.314964	0.000887	20.759845
72.019256	-2.992400	3.859900	-11.549000	21.320755	0.000891	20.742879
73.021491	-3.002900	3.860300	-11.591000	21.325618	0.000889	20.767185
74.021827	-2.999500	3.859900	-11.576000	21.360319	0.000890	20.759702
75.018862	-2.986300	3.858900	-11.522000	21.348895	0.000889	20.772456
76.026157	-3.011100	3.859000	-11.619000	21.361499	0.000889	20.753771
77.019796	-3.003900	3.858500	-11.589000	21.384050	0.000889	20.765428
78.019235	-2.986000	3.857600	-11.517000	21.358088	0.000889	20.757471
79.021752	-2.978400	3.858800	-11.492000	21.379070	0.000890	20.757600
80.023343	-2.999300	3.858100	-11.571000	21.385808	0.000889	20.736840
81.019747	-3.019300	3.856700	-11.644000	21.404093	0.000889	20.738065
82.028506	-2.994000	3.857700	-11.548000	21.399710	0.000891	20.721825
83.024098	-3.012200	3.857100	-11.617000	21.415453	0.000889	20.754647
84.022231	-2.993600	3.856100	-11.542000	21.405772	0.000891	20.723149
85.026206	-2.994200	3.855900	-11.544000	21.415428	0.000890	20.741820
86.024671	-3.003100	3.856300	-11.580000	21.433264	0.000890	20.731215
87.026240	-2.994700	3.856200	-11.547000	21.441745	0.000891	20.737804
88.029598	-3.002700	3.854800	-11.574000	21.438685	0.000890	20.753709
89.024986	-2.986200	3.854700	-11.510000	21.451307	0.000890	20.743579
90.023196	-3.000900	3.853900	-11.565000	21.446272	0.000890	20.746602
91.026237	-3.005400	3.854200	-11.583000	21.487075	0.000891	20.725788
92.027595	-2.989500	3.854400	-11.522000	21.474354	0.000890	20.734871
93.026154	-2.988600	3.855200	-11.521000	21.479794	0.000892	20.719451
94.030898	-3.007000	3.855000	-11.591000	21.488151	0.000891	20.740142
95.031927	-2.975100	3.854000	-11.465000	21.503918	0.000890	20.727468
96.026674	-2.993200	3.853300	-11.533000	21.485831	0.000893	20.733078
97.028707	-3.036500	3.851200	-11.693000	21.522220	0.000892	20.713064
98.026633	-2.991100	3.853900	-11.527000	21.525340	0.000892	20.718083
99.024342	-3.005900	3.851600	-11.576000	21.527709	0.000892	20.741318
100.029297	-3.004900	3.852600	-11.576000	21.537315	0.000892	20.743817
101.029631	-3.002300	3.853500	-11.568000	21.527443	0.000892	20.734887
102.026402	-3.018400	3.852600	-11.628000	21.548811	0.000893	20.741096
103.031833	-2.982000	3.852900	-11.487000	21.536219	0.000893	20.738927
104.031187	-2.983800	3.852400	-11.493000	21.548668	0.000892	20.721511
105.028711	-2.983700	3.851000	-11.490000	21.554152	0.000893	20.731741
106.031716	-2.981700	3.852500	-11.485000	21.559068	0.000897	20.733341
107.030645	-3.001500	3.850300	-11.555000	21.585529	0.000894	20.714300
108.029410	-3.012200	3.848800	-11.593000	21.576101	0.000893	20.723359
109.032268	-2.995100	3.849900	-11.529000	21.578243	0.000895	20.707957
110.033339	-3.003800	3.850000	-11.563000	21.570539	0.000895	20.721111
111.030884	-3.018700	3.849600	-11.618000	21.594833	0.000894	20.725033
112.033701	-2.988600	3.849600	-11.503000	21.600415	0.000895	20.734413
113.033913	-3.002300	3.849900	-11.558000	21.609447	0.000895	20.709785
114.029632	-3.016300	3.848200	-11.607000	21.618297	0.000894	20.714848
115.037690	-3.011000	3.848300	-11.586000	21.643211	0.000893	20.720815
116.034014	-3.009700	3.847900	-11.580000	21.636331	0.000894	20.722465
117.030914	-3.010300	3.847600	-11.581000	21.639396	0.000895	20.715100
118.036987	-3.012900	3.848200	-11.593000	21.630147	0.000895	20.728131
119.037927	-2.997300	3.849000	-11.535000	21.644663	0.000894	20.725587
120.033823	-3.019500	3.847900	-11.617000	21.673417	0.000897	20.718800
121.035892	-3.012700	3.847200	-11.589000	21.661799	0.000895	20.723295
122.032688	-3.003700	3.846700	-11.554000	21.673373	0.000893	20.737724
123.030122	-3.019700	3.847200	-11.616000	21.664968	0.000895	20.708922
124.031995	-2.985800	3.847400	-11.487000	21.703172	0.000895	20.717285
125.033710	-3.023600	3.846800	-11.630000	21.688988	0.000895	20.728221
126.034517	-3.005500	3.845700	-11.556000	21.708512	0.000895	20.717887
127.035356	-2.995600	3.846700	-11.522000	21.691253	0.000895	20.717685
128.033050	-2.993900	3.846400	-11.514000	21.681309	0.000896	20.703464
129.036502	-3.011400	3.844800	-11.577000	21.702931	0.000896	20.706137
130.036790	-3.004400	3.846700	-11.556000	21.730810	0.000897	20.712701
131.036500	-3.006700	3.844500	-11.557000	21.721192	0.000899	20.713033
132.036332	-2.997900	3.845600	-11.527000	21.722490	0.000897	20.704848
133.034630	-3.006800	3.844800	-11.560000	21.721967	0.000896	20.709067
134.036063	-3.011600	3.845200	-11.579000	21.738874	0.000898	20.716980
135.035666	-3.019900	3.844200	-11.608000	21.750373	0.000899	20.707151
136.039683	-3.003000	3.844100	-11.542000	21.747605	0.000898	20.718131
137.034374	-3.010700	3.843800	-11.570000	21.770449	0.000899	20.699268
138.033592	-3.013500	3.844700	-11.584000	21.774970	0.000900	20.689567
139.040360	-3.009700	3.842500	-11.564000	21.757614	0.000899	20.712975
140.034865	-3.014300	3.842300	-11.581000	21.767390	0.000900	20.705690
141.034897	-3.016000	3.843500	-11.590000	21.768945	0.000902	20.720049
142.037610	-2.990200	3.842500	-11.488000	21.765106	0.000900	20.687281
143.038172	-2.997400	3.843400	-11.518000	21.772563	0.000901	20.686683
144.040131	-3.015600	3.841000	-11.583000	21.765709	0.000901	20.683142
145.034859	-3.015600	3.842000	-11.585000	21.791696	0.000901	20.702515
146.041457	-2.987900	3.842100	-11.478000	21.800845	0.000901	20.701715
147.041498	-3.002400	3.840600	-11.530000	21.793720	0.000904	20.690315
148.039730	-2.979700	3.842200	-11.447000	21.802129	0.000903	20.712010
149.038353	-2.976800	3.842900	-11.437000	21.809641	0.000902	20.681593
150.038771	-2.982200	3.841600	-11.456000	21.833278	0.000903	20.702882
151.046101	-3.010100	3.840500	-11.560000	21.840014	0.000904	20.714841
152.042951	-3.007300	3.840400	-11.548000	21.859461	0.000903	20.709650
153.039960	-3.008800	3.840500	-11.555000	21.883177	0.000900	20.687867
154.042226	-3.002100	3.841600	-11.531000	21.889267	0.000902	20.723363
155.041950	-2.996800	3.839700	-11.506000	21.905693	0.000903	20.688593
156.041074	-3.004000	3.840200	-11.534000	21.876501	0.000904	20.693988
157.041849	-2.999400	3.839000	-11.514000	21.893757	0.000905	20.690871
158.042190	-2.986900	3.839000	-11.466000	21.904505	0.000905	20.702578
159.043992	-2.978500	3.840700	-11.439000	21.928441	0.000905	20.703304
160.042922	-2.985700	3.841000	-11.467000	21.906805	0.000905	20.690180
161.045114	-2.992100	3.839300	-11.487000	21.932285	0.000907	20.698617
162.047900	-2.969100	3.840900	-11.403000	21.931086	0.000908	20.705478
163.045303	-2.989600	3.839300	-11.477000	21.962675	0.000908	20.688733
164.048627	-3.000700	3.839200	-11.520000	21.944749	0.000908	20.676478
165.046478	-2.989900	3.838600	-11.476000	21.970831	0.000910	20.682198
166.048562	-3.006600	3.838400	-11.538000	21.970511	0.000907	20.685671
167.050849	-2.993500	3.839000	-11.491000	21.981706	0.000908	20.696879
168.048062	-2.984400	3.838500	-11.455000	21.979086	0.000909	20.712750
169.049375	-2.959100	3.839200	-11.359000	22.001299	0.000907	20.699423
170.052180	-3.010000	3.837200	-11.548000	22.007714	0.000909	20.680238
171.048911	-2.996400	3.837800	-11.498000	21.998635	0.000910	20.683953
172.051437	-2.987000	3.837000	-11.461000	21.990262	0.000910	20.683632
173.051003	-3.005800	3.836600	-11.531000	22.016043	0.000912	20.694267
174.047733	-3.018500	3.835900	-11.578000	22.024563	0.000912	20.697581
175.053760	-2.999200	3.836600	-11.505000	22.020557	0.000912	20.683613
176.053693	-3.011800	3.835600	-11.551000	22.048601	0.000915	20.695566
177.054419	-3.005500	3.836100	-11.529000	22.036040	0.000913	20.716658
178.053770	-2.979200	3.837300	-11.431000	22.082905	0.000914	20.709046
179.053866	-3.018000	3.835300	-11.573000	22.092728	0.000913	20.709397
180.052490	-2.996800	3.835200	-11.492000	22.069851	0.000915	20.703090
181.053024	-3.002400	3.835500	-11.515000	22.096522	0.000915	20.701816
182.055110	-2.990900	3.834100	-11.465000	22.100765	0.000917	20.686622
183.052962	-2.989600	3.834800	-11.463000	22.117213	0.000915	20.692658
184.053762	-2.988900	3.834600	-11.459000	22.094307	0.000915	20.698176
185.054142	-3.025300	3.834200	-11.599000	22.083474	0.000916	20.706771
186.053974	-2.988500	3.833600	-11.455000	22.074002	0.000918	20.719574
187.057671	-3.001100	3.834100	-11.505000	22.092147	0.000917	20.712610
188.056206	-2.991300	3.835100	-11.471000	22.100174	0.000918	20.690298
189.060842	-3.010100	3.833900	-11.539000	22.114339	0.000919	20.702109
190.060548	-2.988600	3.834100	-11.456000	22.110974	0.000917	20.697318
191.056240	-3.001200	3.832300	-11.500000	22.117254	0.000919	20.710718
192.055812	-2.997500	3.831900	-11.485000	22.119924	0.000920	20.701536
193.060174	-3.000500	3.831500	-11.495000	22.119001	0.000919	20.701087
194.059557	-3.000100	3.831600	-11.494000	22.134512	0.000920	20.706185
195.057108	-3.010700	3.832000	-11.536000	22.153106	0.000918	20.693505
196.061417	-2.990700	3.830900	-11.456000	22.142656	0.000920	20.714339
197.058002	-2.999200	3.830500	-11.487000	22.151236	0.000922	20.700643
198.057143	-2.982400	3.830900	-11.424000	22.177160	0.000922	20.713797
199.058731	-2.983700	3.831100	-11.430000	22.197524	0.000922	20.719487
200.063724	-3.010000	3.830300	-11.528000	22.224917	0.000922	20.690487
201.060451	-3.008200	3.830200	-11.520000	22.219856	0.000924	20.710077
202.060561	-2.996200	3.830200	-11.475000	22.216270	0.000922	20.712177
203.067151	-2.994600	3.829100	-11.466000	22.229511	0.000924	20.715003
204.061368	-3.002900	3.829300	-11.497000	22.199720	0.000922	20.715046
205.061464	-2.997900	3.829900	-11.481000	22.228865	0.000925	20.724788
206.062290	-2.999100	3.828500	-11.481000	22.232702	0.000924	20.713931
207.062099	-2.994300	3.830300	-11.467000	22.250052	0.000926	20.707120
208.064043	-2.983600	3.829200	-11.424000	22.245913	0.000926	20.735694
209.067275	-2.986000	3.828700	-11.432000	22.249504	0.000926	20.724590
210.064713	-2.987500	3.828600	-11.437000	22.260322	0.000927	20.698910
211.064031	-2.996300	3.827700	-11.467000	22.260401	0.000927	20.720328
212.068867	-2.998900	3.827100	-11.476000	22.280862	0.000927	20.724695
213.063848	-2.992500	3.828700	-11.456000	22.274780	0.000928	20.711017
214.065942	-3.004800	3.826500	-11.496000	22.305210	0.000929	20.702131
215.067948	-3.007200	3.826900	-11.507000	22.298832	0.000929	20.721351
216.065069	-2.998100	3.828100	-11.476000	22.307608	0.000929	20.715438
217.064666	-2.999500	3.826100	-11.476000	22.324230	0.000929	20.727817
218.069199	-3.008100	3.826800	-11.510000	22.337040	0.000929	20.721203
219.067642	-2.987200	3.826900	-11.431000	22.342175	0.000931	20.717335
220.066724	-2.994300	3.827100	-11.458000	22.347561	0.000932	20.704710
221.076088	-3.009100	3.825900	-11.510000	22.348281	0.000931	20.709225
222.070659	-3.002900	3.826400	-11.490000	22.358772	0.000933	20.731111
223.067044	-2.984700	3.825700	-11.417000	22.364011	0.000934	20.718338
224.072067	-3.007200	3.824500	-11.499000	22.326505	0.000933	20.724404
225.072016	-2.995500	3.824800	-11.455000	22.330742	0.000932	20.722957
226.070628	-3.027400	3.823700	-11.573000	22.348790	0.000932	20.715899
227.070411	-3.001700	3.824700	-11.479000	22.332464	0.000935	20.712352
228.071970	-2.984000	3.825200	-11.413000	22.339241	0.000935	20.736684
229.069430	-2.989100	3.824800	-11.432000	22.362196	0.000934	20.711305
230.075375	-3.008700	3.823000	-11.501000	22.381990	0.000934	20.731128
231.075200	-2.988200	3.824700	-11.427000	22.380170	0.000934	20.722192
232.074563	-2.996300	3.824000	-11.457000	22.406760	0.000935	20.725586
233.075566	-2.995100	3.823300	-11.451000	22.426228	0.000938	20.729908
234.072667	-2.996400	3.823200	-11.455000	22.407214	0.000937	20.738369
235.071301	-2.983800	3.823000	-11.407000	22.413049	0.000938	20.744687
236.074788	-2.995100	3.822000	-11.446000	22.394386	0.000940	20.734058
237.073331	-3.010900	3.822200	-11.508000	22.384867	0.000939	20.726896
238.074718	-2.984200	3.822300	-11.404000	22.401470	0.000940	20.715546
239.076141	-2.991500	3.822300	-11.434000	22.411536	0.000940	20.739378
240.077328	-2.990100	3.821000	-11.424000	22.418397	0.000941	20.739611
241.071221	-2.998300	3.822000	-11.458000	22.418293	0.000940	20.725756
242.075045	-3.012900	3.819500	-11.506000	22.424301	0.000943	20.727504
243.070918	-2.994700	3.821800	-11.444000	22.424657	0.000942	20.733551
244.072091	-3.005600	3.821400	-11.483000	22.419646	0.000944	20.751293
245.074292	-3.025300	3.819400	-11.554000	22.396617	0.000943	20.725386
246.074331	-3.006300	3.820700	-11.484000	22.432558	0.000943	20.719178
247.074910	-3.001300	3.820300	-11.465000	22.437496	0.000945	20.734080
248.075750	-2.995200	3.819700	-11.440000	22.468504	0.000944	20.740003
249.074700	-2.996200	3.821000	-11.447000	22.464894	0.000945	20.723585
250.075438	-3.000300	3.818300	-11.455000	22.448870	0.000943	20.719866
251.075418	-3.005800	3.819600	-11.480000	22.480617	0.000946	20.742651
252.079449	-3.005600	3.819200	-11.478000	22.530734	0.000947	20.739738
253.074714	-2.983300	3.818400	-11.390000	22.525176	0.000945	20.714255
254.076613	-3.014400	3.818000	-11.508000	22.542195	0.000947	20.766864
255.076788	-2.982900	3.818400	-11.388000	22.539507	0.000948	20.727661
256.078128	-3.017600	3.816700	-11.516000	22.543092	0.000947	20.749270
257.076882	-3.005100	3.817300	-11.470000	22.543670	0.000950	20.722821
258.077742	-3.026700	3.817200	-11.552000	22.555683	0.000949	20.739121
259.077130	-2.998000	3.816800	-11.441000	22.572535	0.000952	20.742723
260.077490	-2.983600	3.817100	-11.386000	22.575450	0.000951	20.737107
261.077083	-2.985700	3.816600	-11.394000	22.610611	0.000950	20.731071
262.078355	-3.003200	3.817300	-11.463000	22.601413	0.000952	20.733713
263.080041	-3.018000	3.814500	-11.512000	22.633555	0.000950	20.719913
264.078717	-2.996800	3.815900	-11.433000	22.640041	0.000953	20.744428
265.078612	-3.000800	3.814700	-11.446000	22.652496	0.000952	20.748369
266.078116	-3.002400	3.815400	-11.455000	22.650283	0.000952	20.721494
267.080291	-3.023500	3.813800	-11.529000	22.685515	0.000954	20.753941
268.079120	-3.005800	3.813700	-11.462000	22.675525	0.000952	20.747728
269.080103	-2.964900	3.816200	-11.313000	22.683504	0.000953	20.720631
270.081099	-3.021500	3.811500	-11.514000	22.698001	0.000952	20.747481
271.081277	-3.016300	3.813200	-11.501000	22.705408	0.000954	20.762013
272.082391	-2.995500	3.812600	-11.420000	22.721379	0.000956	20.740078
273.081804	-2.990700	3.814700	-11.407000	22.719836	0.000956	20.737110
274.079482	-2.995800	3.813600	-11.424000	22.727286	0.000956	20.739357
275.081035	-2.989100	3.812100	-11.393000	22.720769	0.000955	20.744209
276.083342	-3.014600	3.811900	-11.490000	22.713349	0.000957	20.739621
277.081800	-3.004000	3.812700	-11.450000	22.737711	0.000956	20.741740
278.082080	-3.005900	3.810900	-11.454000	22.740256	0.000958	20.732908
279.086260	-2.989600	3.812500	-11.396000	22.738516	0.000960	20.752029
280.086304	-3.026100	3.810700	-11.530000	22.719286	0.000960	20.738930
281.085921	-2.994000	3.812700	-11.414000	22.716772	0.000957	20.757275
282.086294	-3.003100	3.812300	-11.448000	22.700180	0.000961	20.763889
283.088648	-2.986200	3.811900	-11.382000	22.723380	0.000960	20.758204
284.086162	-2.997600	3.812000	-11.426000	22.717694	0.000959	20.748241
285.089500	-3.020400	3.809900	-11.506000	22.711828	0.000963	20.733356
286.088295	-2.992300	3.810300	-11.400000	22.745658	0.000963	20.749700
287.089105	-2.990800	3.811600	-11.399000	22.766509	0.000963	20.763949
288.089050	-2.984300	3.810300	-11.369000	22.754632	0.000964	20.726446
289.088520	-2.989000	3.810000	-11.387000	22.766810	0.000964	20.744336
290.090770	-3.008600	3.809200	-11.460000	22.765888	0.000965	20.769017
291.088630	-2.984700	3.810100	-11.371000	22.764572	0.000966	20.766277
292.097005	-2.997800	3.807800	-11.414000	22.762039	0.000966	20.758997
293.089978	-3.014500	3.807400	-11.477000	22.774143	0.000968	20.742198
294.091787	-3.003300	3.809000	-11.437000	22.786800	0.000966	20.755826
295.089931	-2.964400	3.810000	-11.293000	22.785607	0.000968	20.739932
296.089537	-3.011000	3.807500	-11.462000	22.821475	0.000967	20.746466
297.090693	-2.987500	3.807500	-11.373000	22.796789	0.000968	20.753979
298.096150	-3.027100	3.807300	-11.523000	22.814929	0.000968	20.769306
299.089771	-3.008900	3.808800	-11.459000	22.817867	0.000970	20.767033
300.094070	-3.003800	3.807300	-11.435000	22.807085	0.000969	20.763818
301.089763	-3.007200	3.805900	-11.443000	22.797268	0.000970	20.762993
302.090994	-2.988700	3.807300	-11.378000	22.806912	0.000971	20.769336
303.091522	-2.986300	3.806700	-11.366000	22.777388	0.000970	20.761571
304.092291	-2.997200	3.806400	-11.408000	22.793131	0.000972	20.764065
305.090111	-2.977600	3.806200	-11.332000	22.749609	0.000972	20.769306
306.090783	-3.000300	3.804400	-11.413000	22.761897	0.000971	20.761700
307.091771	-3.028200	3.805800	-11.522000	22.767602	0.000971	20.757457
308.090902	-2.992100	3.805700	-11.386000	22.763090	0.000972	20.762421
309.093272	-2.976800	3.805700	-11.328000	22.782674	0.000973	20.779669
310.095963	-2.993700	3.805800	-11.391000	22.792393	0.000973	20.769015
311.091604	-2.992400	3.803800	-11.381000	22.800064	0.000973	20.772433
312.093810	-2.997700	3.805200	-11.405000	22.828217	0.000975	20.767919
313.093943	-2.993600	3.804200	-11.387000	22.847992	0.000976	20.786781
314.092019	-3.002000	3.804600	-11.420000	22.859332	0.000973	20.772537
315.093915	-2.976300	3.804100	-11.321000	22.868774	0.000977	20.774883
316.093374	-2.973900	3.803700	-11.310000	22.904669	0.000975	20.788560
317.093335	-3.002400	3.802600	-11.416000	22.908155	0.000976	20.774034
318.095449	-2.986800	3.802500	-11.356000	22.908885	0.000977	20.767179
319.094807	-2.995700	3.802900	-11.392000	22.911498	0.000977	20.783073
320.095261	-2.998000	3.802400	-11.398000	22.904153	0.000977	20.775240
321.096591	-3.001500	3.801700	-11.410000	22.941916	0.000980	20.782254
322.095847	-2.980600	3.801900	-11.331000	22.952979	0.000981	20.793338
323.101653	-2.958600	3.803500	-11.252000	22.934872	0.000980	20.778041
324.100068	-3.003200	3.801500	-11.415000	22.973433	0.000981	20.776846
325.097998	-2.995400	3.800900	-11.384000	22.970919	0.000979	20.796139
326.099178	-3.005000	3.799600	-11.417000	22.976032	0.000980	20.780873
327.099632	-2.990400	3.800100	-11.363000	22.985294	0.000982	20.785412
328.096577	-3.004600	3.799300	-11.415000	22.974686	0.000982	20.786637
329.102527	-3.022300	3.797800	-11.477000	22.969209	0.000981	20.784943
330.099273	-2.981000	3.799900	-11.327000	22.945872	0.000982	20.779105
331.098829	-2.987200	3.800400	-11.351000	22.969437	0.000983	20.789912
332.098293	-2.979100	3.798600	-11.315000	22.960045	0.000981	20.768649
333.102314	-2.996200	3.798900	-11.381000	22.980247	0.000983	20.768027
334.102782	-2.996400	3.797400	-11.378000	22.984058	0.000983	20.784647
335.099874	-2.995600	3.797500	-11.374000	22.992380	0.000984	20.768803
336.103614	-2.993500	3.798500	-11.370000	23.017879	0.000986	20.790559
337.100864	-2.999500	3.797900	-11.391000	23.021873	0.000985	20.768482
338.101618	-3.024600	3.795900	-11.479000	23.050341	0.000986	20.782307
339.102768	-3.029900	3.796600	-11.502000	23.023766	0.000986	20.795035
340.100781	-3.006800	3.796700	-11.414000	23.043475	0.000986	20.795342
341.100446	-3.010800	3.795700	-11.427000	23.041300	0.000987	20.799801
342.101716	-3.005600	3.794500	-11.404000	23.066140	0.000986	20.785810
343.104046	-2.997600	3.795100	-11.375000	23.065962	0.000988	20.791796
344.100993	-3.026600	3.793300	-11.479000	23.065194	0.000988	20.794345
345.102366	-3.006100	3.794700	-11.406000	23.068186	0.000988	20.793550
346.101481	-2.997700	3.794200	-11.373000	23.054537	0.000987	20.770864
347.102481	-2.994000	3.795600	-11.363000	23.065341	0.000988	20.789751
348.107800	-2.972200	3.794200	-11.276000	23.046099	0.000992	20.801764
349.102391	-3.025000	3.793000	-11.472000	23.065599	0.000990	20.781000
350.103693	-3.002000	3.793300	-11.386000	23.066975	0.000989	20.795181
351.104115	-3.002300	3.794100	-11.390000	23.066502	0.000990	20.788543
352.108645	-2.998900	3.794100	-11.376000	23.068874	0.000991	20.812256
353.104267	-3.035800	3.792600	-11.513000	23.083340	0.000992	20.805415
354.116440	-2.996800	3.792900	-11.366000	23.078357	0.000989	20.821284
355.103653	-3.010700	3.792500	-11.416000	23.105285	0.000993	20.803697
356.106299	-2.995900	3.792400	-11.359000	23.102274	0.000993	20.806369
357.113788	-3.008400	3.792100	-11.407000	23.130819	0.000994	20.797514
358.106505	-2.993700	3.792000	-11.351000	23.164261	0.000992	20.804473
359.107723	-3.000800	3.790800	-11.374000	23.129798	0.000992	20.788905
360.113381	-3.008000	3.790600	-11.400000	23.145985	0.000994	20.791375
361.110430	-3.001800	3.791200	-11.379000	23.140085	0.000995	20.805377
362.107436	-2.969500	3.792300	-11.258000	23.169698	0.000996	20.801387
363.111371	-3.023500	3.788900	-11.455000	23.183666	0.000996	20.807797
364.111629	-2.999700	3.790200	-11.368000	23.188121	0.000995	20.835969
365.110556	-3.009600	3.790400	-11.407000	23.203864	0.000997	20.818555
366.115522	-2.987800	3.790500	-11.324000	23.223294	0.000998	20.816689
367.112178	-2.988300	3.790400	-11.326000	23.241519	0.000998	20.820254
368.109718	-3.004100	3.789700	-11.384000	23.216418	0.001000	20.805531
369.111574	-2.999400	3.789300	-11.365000	23.227626	0.000999	20.822927
370.113590	-3.021200	3.787100	-11.440000	23.235945	0.001001	20.810876
371.109816	-2.999900	3.788300	-11.363000	23.262816	0.000998	20.815519
372.114278	-3.015600	3.787700	-11.421000	23.256271	0.001001	20.798529
373.112503	-3.003200	3.787900	-11.375000	23.255374	0.001001	20.811380
374.109690	-2.991800	3.788900	-11.334000	23.258336	0.001002	20.816245
375.110286	-3.009300	3.788000	-11.398000	23.258607	0.001000	20.820783
376.112059	-2.994400	3.787100	-11.340000	23.244664	0.001002	20.807760
377.109531	-3.021400	3.786800	-11.440000	23.221959	0.001004	20.822938
378.114053	-3.013300	3.786000	-11.406000	23.204877	0.001002	20.793017
379.114283	-2.978400	3.787100	-11.278000	23.193177	0.001003	20.814009
380.112257	-2.980300	3.787200	-11.285000	23.197312	0.001004	20.815308
381.112320	-3.010600	3.785100	-11.395000	23.184912	0.001005	20.825641
382.111898	-2.989900	3.785200	-11.316000	23.198387	0.001005	20.814963
383.111311	-2.985400	3.787700	-11.307000	23.202173	0.001004	20.820179
384.113193	-2.999400	3.785700	-11.353000	23.221454	0.001004	20.819587
385.112005	-2.997300	3.785700	-11.346000	23.229172	0.001004	20.807407
386.112741	-2.999000	3.784200	-11.348000	23.254998	0.001002	20.839926
387.112499	-3.009900	3.784200	-11.389000	23.254371	0.001005	20.823177
388.113421	-2.998000	3.784400	-11.345000	23.286771	0.001005	20.819612
389.112378	-2.984000	3.786000	-11.297000	23.274500	0.001004	20.820590
390.113451	-3.006000	3.782700	-11.369000	23.304859	0.001005	20.841058
391.116749	-3.002400	3.782600	-11.355000	23.301148	0.001007	20.798933
392.116107	-3.000700	3.782700	-11.350000	23.291145	0.001006	20.813564
393.114117	-3.019500	3.783300	-11.422000	23.312711	0.001008	20.838496
394.112388	-2.997100	3.782600	-11.336000	23.316250	0.001006	20.822129
395.112944	-2.997400	3.782500	-11.337000	23.313343	0.001006	20.848612
396.113734	-3.010300	3.781800	-11.384000	23.301841	0.001006	20.813378
397.116501	-3.010200	3.781700	-11.383000	23.317128	0.001006	20.832966
398.117394	-3.008400	3.781200	-11.375000	23.275439	0.001007	20.832911
399.113684	-3.001700	3.780300	-11.346000	23.305429	0.001008	20.832621
400.113615	-2.979000	3.782000	-11.266000	23.320544	0.001010	20.820742
401.115283	-2.982200	3.781300	-11.276000	23.346072	0.001008	20.832577
402.115304	-3.007200	3.780000	-11.366000	23.364891	0.001008	20.834369
403.114411	-2.966400	3.782000	-11.218000	23.406257	0.001008	20.804707
404.114705	-2.996100	3.780100	-11.324000	23.408721	0.001009	20.816185
405.113871	-3.009200	3.778200	-11.368000	23.430334	0.001011	20.838796
406.114179	-2.987500	3.780000	-11.292000	23.437559	0.001009	20.824227
407.115367	-3.001700	3.778800	-11.341000	23.432459	0.001010	20.809158
408.115683	-2.978500	3.778600	-11.254000	23.437786	0.001011	20.827773
409.117337	-2.979900	3.778900	-11.259000	23.448316	0.001010	20.816517
410.115680	-2.973000	3.780200	-11.237000	23.448770	0.001012	20.807489
411.115510	-3.014200	3.777000	-11.384000	23.432741	0.001012	20.805648
412.115801	-3.012000	3.776500	-11.373000	23.439862	0.001012	20.795241
413.118170	-2.985600	3.777900	-11.279000	23.437275	0.001012	20.824891
414.118446	-3.004500	3.775600	-11.342000	23.445697	0.001014	20.798246
415.116220	-2.996200	3.776500	-11.312000	23.445396	0.001013	20.817384
416.118397	-2.996600	3.776100	-11.314000	23.411717	0.001013	20.801170
417.119911	-3.013600	3.774800	-11.374000	23.424213	0.001014	20.800419
418.123550	-2.998100	3.775700	-11.319000	23.430590	0.001012	20.813449
419.126606	-2.994700	3.775900	-11.307000	23.419863	0.001015	20.808861
420.123187	-2.986400	3.775100	-11.273000	23.411348	0.001014	20.813128
421.123443	-2.992100	3.774900	-11.294000	23.359980	0.001013	20.817593
422.122983	-2.990500	3.773900	-11.285000	23.378337	0.001014	20.794267
423.122698	-3.010100	3.772300	-11.354000	23.369945	0.001016	20.778269
424.123256	-2.988200	3.774200	-11.277000	23.418726	0.001014	20.813411
425.124341	-2.997100	3.774400	-11.312000	23.436155	0.001015	20.817130
426.125888	-3.008200	3.771200	-11.344000	23.410131	0.001017	20.782511
427.125270	-3.004100	3.773500	-11.336000	23.389826	0.001015	20.803885
428.128023	-2.999200	3.772200	-11.313000	23.382133	0.001015	20.787640
429.128572	-3.003200	3.772700	-11.329000	23.394501	0.001016	20.797666
430.129516	-2.979400	3.773200	-11.240000	23.359677	0.001017	20.811126
431.128583	-3.002000	3.771500	-11.321000	23.392836	0.001017	20.777979
432.127719	-2.983400	3.771100	-11.249000	23.370730	0.001016	20.775263
433.132062	-2.974500	3.771000	-11.217000	23.352630	0.001016	20.794106
434.130741	-2.993900	3.770200	-11.286000	23.378029	0.001016	20.791587
435.132615	-3.012800	3.769400	-11.355000	23.368002	0.001017	20.787227
436.132553	-3.014800	3.768400	-11.360000	23.358043	0.001017	20.779616
437.130282	-2.988100	3.769800	-11.263000	23.370687	0.001016	20.810781
438.129645	-2.989700	3.769200	-11.267000	23.375848	0.001018	20.786556
439.132448	-2.992200	3.769900	-11.279000	23.409810	0.001019	20.778871
440.129426	-2.980700	3.769000	-11.232000	23.436928	0.001018	20.778076
441.131620	-3.011800	3.768400	-11.348000	23.441664	0.001019	20.784720
442.133914	-2.986200	3.768300	-11.251000	23.456200	0.001017	20.761831
443.135795	-3.016900	3.766400	-11.363000	23.468321	0.001019	20.791999
444.131454	-2.988500	3.767000	-11.257000	23.463228	0.001019	20.778359
445.134357	-3.000100	3.767000	-11.300000	23.485933	0.001020	20.759392
446.135914	-2.985900	3.768600	-11.251000	23.508694	0.001022	20.778888
447.135639	-3.003100	3.767200	-11.313000	23.501371	0.001021	20.775815
448.135377	-3.003400	3.766700	-11.312000	23.518731	0.001020	20.746749
449.135394	-2.999800	3.766400	-11.297000	23.546983	0.001020	20.766061
450.133275	-3.020700	3.765300	-11.372000	23.547659	0.001022	20.767212
451.138423	-3.012900	3.763700	-11.338000	23.525679	0.001023	20.763671
452.134735	-2.998600	3.766000	-11.292000	23.531355	0.001021	20.769361
453.136533	-3.025000	3.764900	-11.388000	23.523339	0.001022	20.766067
454.140274	-3.021500	3.764600	-11.374000	23.531503	0.001022	20.776148
455.139184	-3.002700	3.763900	-11.301000	23.532971	0.001022	20.768610
456.136669	-3.022700	3.763100	-11.373000	23.553740	0.001021	20.747703
457.142556	-2.978900	3.765500	-11.216000	23.547241	0.001020	20.766793
458.139695	-2.998500	3.764100	-11.286000	23.537363	0.001022	20.750727
459.143317	-2.990000	3.763500	-11.252000	23.553346	0.001024	20.764379
460.143155	-3.019900	3.762600	-11.362000	23.567230	0.001022	20.752217
461.138791	-3.022000	3.762000	-11.367000	23.586204	0.001024	20.744686
462.137051	-3.013800	3.761800	-11.336000	23.586149	0.001024	20.741786
463.140588	-3.006300	3.762100	-11.309000	23.566044	0.001024	20.757193
464.141543	-3.011200	3.761900	-11.327000	23.582126	0.001024	20.776159
465.139562	-3.008700	3.761000	-11.315000	23.572838	0.001025	20.747408
466.143180	-2.990300	3.761100	-11.245000	23.549661	0.001023	20.765900
467.140037	-3.002200	3.761000	-11.291000	23.524843	0.001023	20.761411
468.138688	-2.998100	3.760100	-11.272000	23.506094	0.001025	20.762058
469.143575	-3.011000	3.760100	-11.320000	23.500596	0.001026	20.742795
470.140677	-3.031200	3.759900	-11.396000	23.528879	0.001024	20.762137
471.137547	-3.005200	3.758100	-11.293000	23.543671	0.001025	20.755154
472.144746	-3.004200	3.758800	-11.291000	23.543340	0.001024	20.759564
473.140637	-3.011900	3.758700	-11.319000	23.565404	0.001025	20.741852
474.140846	-3.002100	3.758000	-11.280000	23.541847	0.001025	20.739574
475.145830	-2.990600	3.758500	-11.240000	23.524917	0.001026	20.752001
476.144885	-3.003900	3.757300	-11.286000	23.522336	0.001025	20.745621
477.143798	-2.980900	3.758200	-11.202000	23.523350	0.001025	20.741896
478.145911	-3.023600	3.757300	-11.359000	23.544119	0.001025	20.751810
479.147241	-2.979800	3.757500	-11.195000	23.559053	0.001025	20.726950
480.143970	-2.981400	3.756900	-11.199000	23.562843	0.001026	20.755880
481.144976	-2.995300	3.756900	-11.252000	23.601898	0.001025	20.772273
482.144731	-2.963600	3.757300	-11.134000	23.599165	0.001025	20.736815
483.143090	-2.983200	3.757200	-11.207000	23.619404	0.001025	20.764693
484.144885	-2.996600	3.755200	-11.251000	23.621892	0.001027	20.747271
485.146107	-3.022000	3.754700	-11.345000	23.635614	0.001025	20.742536
486.146938	-2.998700	3.753900	-11.255000	23.618962	0.001027	20.737221
487.146272	-2.989400	3.755800	-11.227000	23.591658	0.001026	20.725496
488.146026	-3.002900	3.754800	-11.274000	23.594969	0.001027	20.740669
489.146475	-2.978700	3.754000	-11.181000	23.602542	0.001027	20.762487
490.146666	-3.001300	3.753200	-11.264000	23.612027	0.001027	20.721259
491.148065	-2.995100	3.753200	-11.240000	23.631394	0.001029	20.734985
492.146734	-3.004700	3.753900	-11.278000	23.653377	0.001029	20.749438
493.147452	-2.999700	3.753200	-11.256000	23.668518	0.001028	20.751815
494.146833	-2.992100	3.753200	-11.229000	23.694303	0.001028	20.749216
495.146454	-2.991000	3.753800	-11.226000	23.710782	0.001027	20.718321
496.147750	-2.986900	3.752200	-11.206000	23.697073	0.001027	20.741087
497.147391	-2.991200	3.752800	-11.224000	23.725006	0.001025	20.724996
498.146727	-2.967600	3.753300	-11.138000	23.742449	0.001027	20.727311
499.148206	-3.003900	3.751400	-11.267000	23.775811	0.001026	20.720931
500.149145	-2.996300	3.751300	-11.239000	23.750648	0.001029	20.740274
501.151888	-2.983000	3.750400	-11.186000	23.755801	0.001030	20.726474
502.148400	-2.983900	3.749600	-11.187000	23.741497	0.001028	20.721140
503.148868	-3.003000	3.750400	-11.262000	23.756845	0.001029	20.735582
504.148106	-2.979900	3.750100	-11.174000	23.779926	0.001027	20.730747
505.148979	-3.000500	3.749700	-11.250000	23.786823	0.001029	20.728653
506.151890	-2.986500	3.751000	-11.201000	23.810768	0.001027	20.730377
507.152707	-3.012200	3.749400	-11.291000	23.801163	0.001029	20.720746
508.153236	-3.005800	3.749800	-11.270000	23.782566	0.001029	20.724860
509.153255	-2.998400	3.748200	-11.237000	23.759928	0.001029	20.722550
510.156979	-3.004400	3.747800	-11.259000	23.776854	0.001027	20.720555
511.158073	-3.014100	3.747800	-11.295000	23.788972	0.001027	20.703780
512.154922	-3.021000	3.747000	-11.319000	23.821878	0.001027	20.713540
513.156864	-2.996900	3.748600	-11.233000	23.799609	0.001028	20.709229
514.157090	-2.990100	3.747900	-11.204000	23.810633	0.001030	20.726448
515.157742	-3.008600	3.747000	-11.272000	23.762697	0.001029	20.709205
516.156981	-3.001100	3.745200	-11.239000	23.755284	0.001028	20.712678
517.157376	-3.002300	3.745700	-11.245000	23.752121	0.001028	20.720413
518.158746	-2.964200	3.746700	-11.105000	23.762703	0.001027	20.731023
519.157928	-2.995600	3.744700	-11.217000	23.757053	0.001028	20.718245
520.157753	-2.995000	3.744700	-11.214000	23.753472	0.001029	20.712283
521.159067	-2.998000	3.743700	-11.223000	23.787644	0.001027	20.718571
522.158862	-3.005800	3.744000	-11.253000	23.775251	0.001027	20.737914
523.157805	-2.999100	3.744600	-11.230000	23.789266	0.001028	20.716877
524.163088	-2.976300	3.743000	-11.139000	23.799430	0.001026	20.733233
525.159362	-2.990900	3.744300	-11.197000	23.796838	0.001027	20.717832
526.159615	-3.011200	3.743600	-11.270000	23.785961	0.001028	20.715935
527.159774	-2.999600	3.744000	-11.229000	23.765036	0.001027	20.721034
528.159562	-2.998500	3.744000	-11.224000	23.767002	0.001028	20.696924
529.158419	-2.993800	3.741900	-11.201000	23.770134	0.001026	20.712394
530.162170	-2.982100	3.741100	-11.155000	23.744007	0.001027	20.722709
531.160131	-3.024900	3.738900	-11.309000	23.759908	0.001027	20.711150
532.161969	-2.995000	3.742100	-11.207000	23.752225	0.001027	20.707713
533.161969	-3.020300	3.741200	-11.298000	23.752200	0.001028	20.703421
534.160783	-3.018400	3.739800	-11.286000	23.741753	0.001026	20.704800
535.161544	-3.004200	3.740300	-11.236000	23.753078	0.001027	20.704775
536.162822	-3.015400	3.738600	-11.272000	23.784984	0.001027	20.710213
537.162138	-3.018100	3.738900	-11.283000	23.785905	0.001026	20.700231
538.163423	-3.005300	3.738700	-11.235000	23.780802	0.001026	20.717874
539.167499	-2.981000	3.738200	-11.142000	23.771847	0.001029	20.719327
540.165155	-3.008600	3.738200	-11.245000	23.753631	0.001026	20.715288
541.165340	-2.997500	3.738100	-11.203000	23.807916	0.001028	20.698118
542.168057	-2.988600	3.738700	-11.173000	23.801050	0.001026	20.702139
543.163845	-2.977900	3.739100	-11.134000	23.822754	0.001027	20.708729
544.163654	-2.987300	3.737700	-11.165000	23.847497	0.001026	20.690863
545.165268	-2.983400	3.737900	-11.150000	23.865890	0.001025	20.699824
546.163608	-2.981700	3.737200	-11.140000	23.864827	0.001026	20.697810
547.165761	-3.014600	3.736000	-11.261000	23.910063	0.001027	20.681053
548.167118	-2.989700	3.736800	-11.170000	23.918377	0.001027	20.713101
549.165754	-2.997800	3.735900	-11.199000	23.933582	0.001029	20.679033
550.165601	-3.010500	3.734600	-11.241000	23.937622	0.001027	20.668859
551.169703	-3.005100	3.735200	-11.224000	23.935651	0.001027	20.702447
552.167853	-2.980400	3.736800	-11.136000	23.939612	0.001026	20.686029
553.166995	-3.002900	3.733800	-11.212000	23.909847	0.001026	20.700753
554.171562	-3.015500	3.735100	-11.262000	23.922823	0.001029	20.699540
555.166429	-3.009200	3.733800	-11.234000	23.921325	0.001028	20.692821
556.168495	-2.983000	3.735700	-11.142000	23.934816	0.001025	20.685961
557.171733	-2.993700	3.732800	-11.174000	23.914484	0.001026	20.679796
558.172187	-2.991700	3.733500	-11.169000	23.934650	0.001025	20.692907
559.168979	-2.982900	3.734200	-11.137000	23.946538	0.001027	20.689656
560.173312	-3.012000	3.732500	-11.241000	23.943738	0.001028	20.678786
561.172644	-3.003000	3.732900	-11.208000	23.968866	0.001028	20.671266
562.170715	-3.002900	3.732800	-11.208000	23.964586	0.001027	20.699220
563.174337	-3.001500	3.730200	-11.195000	23.930947	0.001026	20.677813
564.173606	-3.011400	3.730000	-11.231000	23.934306	0.001027	20.676439
565.169590	-2.985900	3.732100	-11.143000	23.946452	0.001026	20.694785
566.174942	-2.971700	3.731800	-11.088000	23.944984	0.001025	20.708962
567.174077	-3.017800	3.730100	-11.255000	23.946931	0.001026	20.688627
568.171762	-2.989900	3.729500	-11.149000	23.970370	0.001026	20.694588
569.178275	-3.016200	3.729100	-11.246000	23.966495	0.001025	20.691176
570.176610	-3.006100	3.728600	-11.208000	23.938426	0.001027	20.692901
571.173189	-2.995000	3.729200	-11.168000	23.919438	0.001028	20.677178
572.175663	-3.027300	3.728600	-11.286000	23.946538	0.001027	20.685861
573.177282	-2.988300	3.728700	-11.142000	23.938057	0.001028	20.677831
574.174179	-2.984300	3.728300	-11.124000	23.950431	0.001029	20.694033
575.176941	-2.990900	3.726900	-11.146000	23.953568	0.001026	20.686748
576.182640	-3.002400	3.728800	-11.194000	23.939733	0.001028	20.688047
577.174879	-2.989000	3.727500	-11.140000	23.956983	0.001026	20.675472
578.176672	-3.001400	3.726400	-11.183000	23.931228	0.001028	20.683311
579.174770	-3.011500	3.726400	-11.221000	23.909502	0.001027	20.689026
580.174928	-2.990100	3.725900	-11.138000	23.894751	0.001029	20.695098
581.175666	-3.014400	3.724300	-11.226000	23.924215	0.001025	20.662526
582.174818	-3.012700	3.725000	-11.221000	23.947931	0.001027	20.676352
583.176356	-2.988000	3.725800	-11.131000	23.937375	0.001027	20.672405
584.179511	-2.976800	3.725300	-11.088000	23.942509	0.001026	20.680398
585.177715	-3.003200	3.725100	-11.186000	23.960280	0.001029	20.673088
586.178498	-2.997400	3.724500	-11.163000	23.982030	0.001025	20.691108
587.182755	-2.981600	3.724600	-11.104000	24.026897	0.001026	20.685842
588.179709	-3.001700	3.723400	-11.176000	24.026431	0.001025	20.677313
589.179641	-2.989500	3.723200	-11.128000	24.022869	0.001027	20.684647
590.180925	-3.002200	3.721700	-11.173000	23.978057	0.001026	20.684752
591.179852	-2.967100	3.723700	-11.047000	24.004209	0.001026	20.664983
592.179163	-3.007200	3.721500	-11.191000	23.995127	0.001024	20.660617
593.181087	-2.991300	3.722400	-11.134000	23.961907	0.001026	20.679462
594.179653	-3.004100	3.723500	-11.185000	23.961213	0.001025	20.680189
595.179434	-2.995300	3.722100	-11.147000	23.956411	0.001026	20.665889
596.180451	-2.995400	3.721400	-11.145000	23.976147	0.001026	20.676672
597.180246	-3.003100	3.720800	-11.172000	24.014469	0.001026	20.682387
598.181212	-2.999100	3.721800	-11.162000	24.041922	0.001026	20.692850
599.181779	-2.997200	3.721300	-11.152000	24.060336	0.001026	20.689032
600.181488	-3.033900	3.719400	-11.282000	24.060981	0.001026	20.668814
601.181644	-2.982500	3.721700	-11.098000	24.088955	0.001026	20.678378
602.188177	-2.980700	3.719400	-11.085000	24.047301	0.001024	20.681174
603.182731	-2.991200	3.720500	-11.128000	24.063007	0.001027	20.672268
604.183265	-3.003700	3.720100	-11.172000	24.086050	0.001025	20.688268
605.188279	-3.017600	3.719300	-11.223000	24.068453	0.001024	20.684844
606.183291	-2.982900	3.719100	-11.092000	24.113649	0.001025	20.685127
607.185378	-2.998200	3.718100	-11.146000	24.096605	0.001024	20.684154
608.187518	-3.015700	3.717600	-11.211000	24.109376	0.001024	20.688428
609.183257	-3.004700	3.717600	-11.169000	24.105649	0.001025	20.677103
610.187839	-2.982600	3.718400	-11.090000	24.122613	0.001023	20.683686
611.190549	-2.996400	3.716800	-11.136000	24.111598	0.001025	20.675483
612.184532	-3.011500	3.717100	-11.192000	24.123270	0.001024	20.696200
613.185834	-3.007600	3.715200	-11.172000	24.138797	0.001023	20.679529
614.190106	-2.997600	3.716100	-11.137000	24.140645	0.001023	20.688495
615.187518	-2.996600	3.716500	-11.135000	24.140473	0.001023	20.686900
616.186776	-2.983600	3.716900	-11.089000	24.142861	0.001026	20.676493
617.189058	-3.003700	3.715200	-11.158000	24.126966	0.001025	20.682362
618.186634	-2.985800	3.716500	-11.096000	24.131748	0.001025	20.673881
619.187161	-2.981500	3.715500	-11.077000	24.133013	0.001023	20.658553
620.188010	-2.982000	3.714900	-11.077000	24.143966	0.001024	20.686611
621.186337	-3.009200	3.714500	-11.177000	24.123140	0.001023	20.683267
622.187633	-2.997300	3.713900	-11.132000	24.122447	0.001023	20.695374
623.187947	-2.985500	3.712800	-11.083000	24.112918	0.001021	20.679652
624.189224	-3.005000	3.712800	-11.156000	24.141535	0.001023	20.695079
625.187646	-3.003900	3.712400	-11.151000	24.151567	0.001023	20.695183
626.189045	-3.001600	3.713700	-11.144000	24.158210	0.001022	20.692837
627.189405	-2.990400	3.714200	-11.105000	24.128304	0.001024	20.682755
628.190515	-3.006300	3.710900	-11.155000	24.162299	0.001024	20.684609
629.190290	-3.026500	3.710500	-11.228000	24.169942	0.001021	20.673782
630.188823	-3.001100	3.712300	-11.140000	24.164398	0.001023	20.698096
631.190433	-3.013400	3.711700	-11.183000	24.185843	0.001022	20.681671
632.189648	-2.991800	3.712100	-11.104000	24.179581	0.001023	20.670173
633.189058	-2.989700	3.710100	-11.092000	24.205906	0.001022	20.692787
634.191577	-3.022300	3.710000	-11.211000	24.224993	0.001023	20.666885
635.192701	-2.998900	3.710100	-11.124000	24.250968	0.001022	20.673499
636.193079	-2.994000	3.709900	-11.107000	24.234625	0.001021	20.676547
637.191441	-2.987000	3.710600	-11.081000	24.208601	0.001023	20.687429
638.192966	-3.012400	3.707700	-11.166000	24.198257	0.001023	20.671836
639.193022	-2.967000	3.709600	-11.005000	24.195120	0.001021	20.679122
640.192858	-3.006400	3.708600	-11.148000	24.174172	0.001020	20.704106
641.191624	-2.994300	3.708600	-11.104000	24.145752	0.001024	20.679867
642.193269	-2.983500	3.709500	-11.066000	24.110148	0.001022	20.678296
643.191279	-3.002000	3.707300	-11.128000	24.125952	0.001020	20.674706
644.194712	-3.005300	3.707600	-11.141000	24.149074	0.001022	20.678456
645.194400	-3.015700	3.706300	-11.176000	24.180815	0.001022	20.684689
646.191511	-3.016800	3.707600	-11.185000	24.185241	0.001023	20.686284
647.191579	-2.994600	3.707100	-11.101000	24.173650	0.001021	20.710696
648.195172	-3.010800	3.705700	-11.156000	24.213783	0.001022	20.668443
649.194737	-3.004500	3.705600	-11.133000	24.192584	0.001021	20.692701
650.193718	-3.001400	3.705700	-11.121000	24.229708	0.001021	20.711447
651.195589	-3.028200	3.704000	-11.216000	24.201713	0.001021	20.687158
652.193258	-3.001400	3.705900	-11.122000	24.160960	0.001022	20.679473
653.194046	-2.973400	3.705000	-11.015000	24.151959	0.001021	20.694154
654.194375	-2.974300	3.704300	-11.017000	24.152647	0.001021	20.701483
655.193818	-3.002000	3.703000	-11.116000	24.150203	0.001020	20.681487
656.194063	-3.011700	3.703000	-11.151000	24.103425	0.001022	20.696686
657.194898	-2.954600	3.705400	-10.947000	24.128782	0.001020	20.676123
658.193859	-3.021000	3.702600	-11.185000	24.130526	0.001019	20.705849
659.194711	-2.993200	3.703800	-11.085000	24.168020	0.001021	20.696987
660.196399	-3.003700	3.703000	-11.122000	24.193045	0.001019	20.674195
661.194901	-3.016800	3.701800	-11.167000	24.197127	0.001019	20.687300
662.195423	-3.002800	3.701400	-11.113000	24.236639	0.001019	20.698484
663.197542	-2.991900	3.701800	-11.075000	24.241833	0.001018	20.680932
664.195970	-2.991000	3.702000	-11.071000	24.243097	0.001019	20.700220
665.196395	-3.025200	3.700400	-11.194000	24.274602	0.001018	20.689622
666.198376	-3.001300	3.700600	-11.106000	24.282927	0.001016	20.692757
667.198218	-3.022000	3.700200	-11.180000	24.283129	0.001018	20.698176
668.198491	-2.992400	3.700100	-11.071000	24.292878	0.001017	20.688513
669.198183	-2.994700	3.701300	-11.083000	24.271312	0.001017	20.697227
670.198678	-2.995000	3.699300	-11.077000	24.273700	0.001017	20.705788
671.195939	-3.011300	3.698100	-11.135000	24.260538	0.001016	20.694955
672.200333	-2.992300	3.699300	-11.068000	24.240881	0.001017	20.700842
673.196816	-3.019100	3.699100	-11.167000	24.247745	0.001016	20.697770
674.196962	-3.013100	3.697500	-11.140000	24.261631	0.001019	20.710277
675.199150	-3.009100	3.698600	-11.128000	24.294891	0.001015	20.698595
676.197697	-3.008700	3.698600	-11.127000	24.299465	0.001018	20.706502
677.197503	-2.995300	3.698300	-11.075000	24.317107	0.001017	20.704285
678.199784	-3.009500	3.697600	-11.127000	24.318077	0.001014	20.696248
679.198419	-2.999700	3.696600	-11.088000	24.305806	0.001016	20.719502
680.200495	-3.005900	3.696600	-11.110000	24.349691	0.001016	20.716583
681.201605	-2.984500	3.696700	-11.031000	24.347174	0.001016	20.718326
682.206655	-2.995800	3.696500	-11.073000	24.361599	0.001016	20.719047
683.200058	-3.028300	3.695600	-11.191000	24.352668	0.001015	20.723363
684.208876	-3.005900	3.694900	-11.105000	24.331245	0.001015	20.739806
685.207308	-3.013300	3.694800	-11.132000	24.343595	0.001014	20.712839
686.202545	-3.008200	3.695100	-11.115000	24.313584	0.001016	20.705018
687.204399	-3.027900	3.693800	-11.182000	24.267334	0.001014	20.701773
688.206295	-3.014300	3.693100	-11.130000	24.248819	0.001013	20.732515
689.204077	-2.995500	3.694200	-11.065000	24.216331	0.001013	20.716048
690.205434	-3.012900	3.692500	-11.124000	24.205415	0.001014	20.738291
691.205307	-2.979400	3.695300	-11.008000	24.204095	0.001014	20.718474
692.203123	-2.999800	3.693500	-11.078000	24.218302	0.001014	20.734621
693.204087	-3.010300	3.692900	-11.116000	24.248457	0.001012	20.717926
694.204327	-2.990600	3.692400	-11.042000	24.282190	0.001010	20.728056
695.203686	-3.011300	3.692600	-11.117000	24.294873	0.001012	20.727028
696.207034	-3.024100	3.690000	-11.157000	24.305481	0.001011	20.733401
697.210505	-2.982200	3.692600	-11.009000	24.274652	0.001011	20.731400
698.202665	-3.001500	3.692600	-11.082000	24.284505	0.001011	20.716626
699.206198	-2.998100	3.690600	-11.063000	24.280699	0.001010	20.723240
700.207723	-2.998300	3.691000	-11.065000	24.297144	0.001009	20.738316
701.204306	-3.003100	3.690100	-11.081000	24.302994	0.001010	20.728536
702.212290	-3.000100	3.690100	-11.070000	24.329612	0.001010	20.729158
703.206947	-3.021500	3.689200	-11.146000	24.361354	0.001009	20.754838
704.206310	-2.980200	3.690900	-10.997000	24.382242	0.001010	20.738808
705.209331	-2.979600	3.690700	-10.995000	24.352128	0.001010	20.731357
706.208589	-3.012200	3.689400	-11.112000	24.360212	0.001008	20.726664
707.206180	-2.989900	3.690000	-11.031000	24.335234	0.001011	20.719625
708.209339	-2.999300	3.690100	-11.067000	24.336063	0.001009	20.729940
709.208128	-3.004000	3.689000	-11.081000	24.368578	0.001009	20.729842
710.206337	-2.990800	3.688400	-11.030000	24.392726	0.001008	20.751223
711.210708	-2.980400	3.688500	-10.992000	24.399601	0.001009	20.734411
712.209260	-2.996300	3.688300	-11.051000	24.420968	0.001009	20.732139
713.208571	-3.023200	3.686800	-11.144000	24.418083	0.001008	20.733986
714.209823	-2.999900	3.687900	-11.063000	24.401443	0.001008	20.729620
715.209287	-2.995900	3.686100	-11.042000	24.392616	0.001009	20.742577
716.205881	-2.999100	3.685700	-11.052000	24.396569	0.001007	20.731369
717.210771	-2.986000	3.687200	-11.008000	24.401473	0.001007	20.716374
718.210131	-2.978800	3.686900	-10.982000	24.440131	0.001008	20.754209
719.208461	-2.996900	3.684700	-11.040000	24.458839	0.001009	20.740261
720.208230	-2.997700	3.685800	-11.048000	24.458188	0.001008	20.744824
721.209195	-2.991000	3.684600	-11.020000	24.435453	0.001006	20.750465
722.207632	-2.996600	3.684600	-11.040000	24.447668	0.001007	20.748021
723.212379	-3.019100	3.684800	-11.124000	24.449865	0.001008	20.751648
724.211313	-2.995700	3.684200	-11.035000	24.504332	0.001007	20.737065
725.209110	-2.989500	3.684500	-11.014000	24.495536	0.001006	20.745311
726.214168	-3.003600	3.682000	-11.058000	24.490061	0.001005	20.740292
727.211132	-3.006100	3.681600	-11.066000	24.483071	0.001005	20.736123
728.210382	-2.976700	3.684700	-10.967000	24.498666	0.001004	20.736123
729.222121	-2.999400	3.681800	-11.042000	24.473649	0.001005	20.744215
730.213739	-2.981200	3.683000	-10.977000	24.484341	0.001004	20.749252
731.210114	-3.003400	3.680600	-11.053000	24.477749	0.001004	20.744061
732.217789	-2.993700	3.680800	-11.018000	24.466714	0.001003	20.745317
733.215168	-2.999900	3.682200	-11.044000	24.435545	0.001004	20.741074
734.210614	-2.972900	3.681600	-10.945000	24.437166	0.001003	20.743648
735.214460	-3.003600	3.680900	-11.055000	24.429033	0.001004	20.742127
736.214145	-2.988400	3.680400	-10.998000	24.443684	0.001001	20.746869
737.210474	-3.000500	3.679700	-11.040000	24.455199	0.001001	20.747515
738.218401	-2.995600	3.680000	-11.023000	24.443494	0.001001	20.755687
739.212472	-3.018300	3.678600	-11.101000	24.438093	0.001003	20.750268
740.213168	-2.991900	3.678600	-11.004000	24.450233	0.001002	20.743008
741.212837	-3.001800	3.678800	-11.042000	24.420219	0.001002	20.758889
742.213082	-2.991000	3.678800	-11.002000	24.449613	0.001003	20.745231
743.211863	-2.981200	3.678600	-10.966000	24.465664	0.001001	20.756592
744.213593	-2.994500	3.678800	-11.015000	24.480413	0.001002	20.758113
745.213936	-2.972800	3.678700	-10.935000	24.503447	0.001001	20.764154
746.215000	-2.991200	3.678300	-11.001000	24.506412	0.000999	20.752429
747.214548	-2.997500	3.678100	-11.023000	24.476264	0.000999	20.749683
748.213503	-3.025500	3.675800	-11.120000	24.447085	0.001000	20.770670
749.214738	-3.008300	3.675400	-11.056000	24.450816	0.000999	20.755921
750.218234	-3.019400	3.675100	-11.095000	24.433612	0.000999	20.766162
751.214214	-3.006400	3.676000	-11.050000	24.419801	0.001000	20.762264
752.214154	-3.010800	3.675500	-11.066000	24.410969	0.001000	20.769524
753.217493	-2.992700	3.676300	-11.000000	24.400994	0.000999	20.769949
754.218073	-2.986600	3.675900	-10.977000	24.396139	0.000999	20.760811
755.215766	-2.990800	3.673900	-10.987000	24.387736	0.000998	20.748587
756.219539	-2.984700	3.676000	-10.970000	24.386041	0.000996	20.762061
757.221034	-2.972300	3.675900	-10.925000	24.386195	0.000997	20.780233
758.216123	-2.969900	3.675200	-10.914000	24.398085	0.000995	20.784100
759.222006	-3.017400	3.673500	-11.083000	24.411067	0.000996	20.774838
760.215293	-2.979300	3.674400	-10.946000	24.457611	0.000997	20.776963
761.217523	-2.996700	3.674100	-11.010000	24.477258	0.000997	20.756845
762.219634	-3.003400	3.673000	-11.030000	24.484053	0.000998	20.757023
763.215515	-2.979100	3.672600	-10.940000	24.464620	0.000995	20.792530
764.216874	-3.006100	3.672400	-11.039000	24.448656	0.000996	20.773194
765.225907	-2.991400	3.674000	-10.988000	24.456991	0.000996	20.766384
766.215815	-3.011700	3.672200	-11.059000	24.495696	0.000997	20.768231
767.217909	-2.998600	3.673300	-11.013000	24.472839	0.000993	20.795560
768.218613	-2.987300	3.672900	-10.971000	24.489104	0.000994	20.775842
769.223493	-2.996400	3.672500	-11.002000	24.467088	0.000995	20.775091
770.221496	-2.986800	3.670700	-10.963000	24.487913	0.000993	20.779863
771.218970	-2.986400	3.672500	-10.966000	24.509923	0.000995	20.766384
772.222435	-2.989000	3.671900	-10.974000	24.549724	0.000993	20.787351
773.222238	-3.002600	3.671100	-11.022000	24.560795	0.000994	20.786132
774.220430	-3.011900	3.668900	-11.048000	24.538879	0.000993	20.788324
775.224674	-3.008000	3.669600	-11.037000	24.534006	0.000993	20.774900
776.219286	-3.000100	3.669000	-11.005000	24.538014	0.000992	20.781766
777.221190	-3.017500	3.667800	-11.067000	24.514808	0.000993	20.790252
778.219572	-3.005500	3.666900	-11.020000	24.486102	0.000993	20.789901
779.221355	-2.991200	3.668300	-10.971000	24.521995	0.000991	20.782764
780.225067	-3.021100	3.666600	-11.076000	24.507099	0.000990	20.800535
781.221336	-3.013400	3.666600	-11.048000	24.534153	0.000991	20.785479
782.225482	-2.995000	3.667700	-10.984000	24.557119	0.000990	20.794772
783.222235	-3.011900	3.666000	-11.041000	24.567037	0.000989	20.796188
784.221317	-2.990500	3.667700	-10.966000	24.588603	0.000991	20.806447
785.224925	-3.000100	3.666800	-11.000000	24.624124	0.000991	20.788509
786.224906	-3.014500	3.666600	-11.052000	24.643602	0.000991	20.774863
787.225424	-2.993300	3.667500	-10.977000	24.620264	0.000988	20.789851
788.220938	-3.005300	3.666400	-11.018000	24.609076	0.000989	20.764401
789.221469	-3.011800	3.665500	-11.038000	24.627683	0.000990	20.789236
790.223491	-2.972400	3.667000	-10.899000	24.625744	0.000988	20.774487
791.222209	-2.983700	3.667200	-10.939000	24.634201	0.000989	20.795301
792.229508	-3.005600	3.664900	-11.014000	24.643253	0.000988	20.788737
793.223419	-3.012000	3.666100	-11.041000	24.650021	0.000989	20.786046
794.224927	-2.998500	3.663800	-10.985000	24.660589	0.000988	20.798072
795.225217	-3.000500	3.665200	-10.996000	24.655324	0.000988	20.813651
796.228699	-2.994500	3.664900	-10.973000	24.648432	0.000988	20.802469
797.226409	-2.991300	3.665000	-10.962000	24.658380	0.000986	20.802019
798.227826	-2.981600	3.664000	-10.924000	24.664326	0.000987	20.796607
799.223699	-2.993200	3.661700	-10.958000	24.692088	0.000987	20.787481
800.225723	-3.005900	3.662900	-11.010000	24.687737	0.000986	20.800658
801.229115	-3.013700	3.662200	-11.036000	24.657392	0.000986	20.794864
802.225158	-3.018800	3.661900	-11.053000	24.668407	0.000987	20.816348
803.227765	-2.981900	3.662800	-10.922000	24.685056	0.000986	20.827365
804.227214	-3.000400	3.661400	-10.984000	24.674734	0.000987	20.805154
805.230414	-2.997000	3.662600	-10.976000	24.683417	0.000986	20.801539
806.229645	-3.004600	3.661200	-10.998000	24.708288	0.000985	20.833134
807.230592	-2.988400	3.661100	-10.940000	24.683147	0.000984	20.809803
808.228202	-3.019200	3.660000	-11.049000	24.665566	0.000983	20.814446
809.227771	-3.011600	3.659700	-11.020000	24.677109	0.000984	20.804218
810.228786	-3.002000	3.659400	-10.983000	24.706466	0.000983	20.802857
811.229609	-3.008800	3.659000	-11.009000	24.735951	0.000981	20.798780
812.233388	-2.993900	3.659800	-10.956000	24.730257	0.000982	20.823886
813.229373	-2.989300	3.659000	-10.937000	24.749040	0.000981	20.804329
814.232218	-2.994800	3.658400	-10.955000	24.753298	0.000982	20.836577
815.228024	-2.995300	3.659300	-10.960000	24.761104	0.000982	20.823547
816.230032	-2.972800	3.657700	-10.873000	24.736737	0.000981	20.809052
817.236441	-3.011100	3.658000	-11.012000	24.758815	0.000982	20.818405
818.230405	-2.986500	3.658900	-10.926000	24.773873	0.000981	20.813602
819.230806	-3.002500	3.656600	-10.977000	24.808559	0.000982	20.811429
820.229910	-2.996200	3.657300	-10.957000	24.810578	0.000980	20.813455
821.229673	-2.976600	3.658200	-10.887000	24.817598	0.000981	20.801533
822.230982	-2.986800	3.657000	-10.921000	24.827390	0.000980	20.807568
823.233397	-2.992800	3.655400	-10.938000	24.825826	0.000982	20.824489
824.230600	-2.993100	3.656200	-10.942000	24.838557	0.000980	20.824939
825.233255	-2.998800	3.654700	-10.958000	24.840625	0.000980	20.817057
826.231070	-2.994500	3.655100	-10.943000	24.840429	0.000981	20.810222
827.231798	-2.981000	3.656100	-10.897000	24.854498	0.000980	20.812962
828.232697	-3.004600	3.654400	-10.978000	24.822696	0.000982	20.811866
829.232729	-3.014100	3.653600	-11.012000	24.861014	0.000979	20.837045
830.235892	-2.993400	3.653700	-10.935000	24.863523	0.000980	20.829132
831.236695	-2.996900	3.653600	-10.948000	24.859590	0.000980	20.837513
832.233234	-3.013300	3.652600	-11.005000	24.823089	0.000982	20.823165
833.239245	-3.022800	3.654400	-11.045000	24.821751	0.000979	20.838418
834.237178	-3.019400	3.653300	-11.028000	24.790017	0.000979	20.831700
835.236131	-2.992000	3.652400	-10.927000	24.791164	0.000979	20.821946
836.236706	-2.999300	3.652600	-10.954000	24.790023	0.000979	20.848775
837.235718	-3.008300	3.652500	-10.987000	24.798178	0.000978	20.835622
838.234363	-3.002700	3.651000	-10.961000	24.796306	0.000976	20.837537
839.235982	-3.023100	3.652300	-11.040000	24.829139	0.000977	20.842987
840.236930	-3.006400	3.651700	-10.977000	24.788477	0.000977	20.811663
841.239061	-3.021300	3.649800	-11.025000	24.781064	0.000980	20.830302
842.237725	-2.992600	3.650300	-10.921000	24.769602	0.000975	20.847722
843.238223	-3.026000	3.649800	-11.042000	24.785568	0.000977	20.831503
844.241473	-3.000400	3.651300	-10.954000	24.819463	0.000977	20.849397
845.238250	-2.991500	3.651600	-10.922000	24.834624	0.000976	20.825259
846.239030	-3.000300	3.650600	-10.952000	24.816297	0.000976	20.847642
847.240311	-3.008500	3.648400	-10.975000	24.803368	0.000975	20.841780
848.241357	-3.005300	3.649700	-10.967000	24.785310	0.000975	20.843572
849.242686	-3.014500	3.649600	-11.000000	24.811198	0.000976	20.852482
850.243052	-3.006900	3.649000	-10.971000	24.820303	0.000974	20.857826
851.239612	-3.013100	3.648100	-10.992000	24.843368	0.000976	20.844939
852.248126	-3.003500	3.649000	-10.959000	24.859265	0.000973	20.833867
853.242474	-2.986300	3.648900	-10.896000	24.877113	0.000973	20.840875
854.240362	-2.995100	3.647900	-10.924000	24.886568	0.000973	20.840881
855.244092	-3.009000	3.648100	-10.974000	24.864781	0.000970	20.844618
856.240514	-2.991900	3.647300	-10.911000	24.893532	0.000970	20.843602
857.242289	-2.986800	3.649000	-10.898000	24.879408	0.000972	20.828953
858.243117	-2.985700	3.647600	-10.890000	24.876966	0.000972	20.834563
859.244181	-3.019500	3.645600	-11.006000	24.880574	0.000971	20.831072
860.245486	-2.982200	3.647500	-10.876000	24.875328	0.000971	20.839083
861.243656	-3.002200	3.645800	-10.944000	24.854841	0.000968	20.835591
862.246655	-2.997600	3.646200	-10.929000	24.860234	0.000968	20.824409
863.243463	-2.983800	3.646000	-10.878000	24.838569	0.000971	20.832063
864.248511	-3.007600	3.645300	-10.962000	24.829765	0.000971	20.828442
865.246540	-3.026200	3.645400	-11.031000	24.837471	0.000969	20.830013
866.247877	-3.012400	3.644600	-10.977000	24.891875	0.000968	20.809698
867.246146	-2.996700	3.646100	-10.925000	24.888470	0.000969	20.817186
868.250428	-3.005900	3.643100	-10.950000	24.876530	0.000969	20.813264
869.246864	-2.982700	3.644400	-10.870000	24.860148	0.000968	20.834280
870.245479	-3.000600	3.644500	-10.933000	24.845601	0.000967	20.832008
871.248653	-2.998600	3.643300	-10.924000	24.821978	0.000968	20.836275
872.246987	-2.984000	3.642400	-10.868000	24.846147	0.000967	20.836823
873.250248	-3.003900	3.642100	-10.938000	24.841858	0.000968	20.821139
874.247617	-2.982800	3.642700	-10.864000	24.858277	0.000966	20.819126
875.247700	-2.994000	3.644200	-10.909000	24.828237	0.000964	20.799883
876.249690	-2.988800	3.641500	-10.883000	24.859842	0.000965	20.815954
877.250965	-2.984300	3.640800	-10.864000	24.876156	0.000965	20.826638
878.249274	-3.007000	3.640300	-10.945000	24.867572	0.000965	20.822291
879.249351	-2.997100	3.641200	-10.912000	24.823911	0.000965	20.843904
880.249347	-3.015000	3.639500	-10.973000	24.788372	0.000964	20.815351
881.254953	-3.001600	3.640900	-10.928000	24.782880	0.000964	20.812211
882.251950	-2.998300	3.640100	-10.912000	24.794944	0.000964	20.818153
883.251814	-3.007100	3.640600	-10.947000	24.799840	0.000963	20.815954
884.255378	-3.006000	3.639400	-10.939000	24.838281	0.000962	20.802851
885.253428	-2.991400	3.640400	-10.889000	24.848528	0.000962	20.801755
886.256577	-2.994400	3.639000	-10.895000	24.887611	0.000960	20.805418
887.255644	-3.001300	3.639700	-10.922000	24.864321	0.000962	20.800061
888.252559	-3.005200	3.638600	-10.934000	24.872076	0.000961	20.813534
889.251824	-3.025100	3.637100	-11.001000	24.876156	0.000961	20.804827
890.252250	-3.012200	3.637500	-10.956000	24.907085	0.000958	20.812161
891.252912	-2.970900	3.638800	-10.809000	24.935754	0.000961	20.809643
892.253273	-3.007300	3.637300	-10.937000	24.942368	0.000961	20.813436
893.254552	-3.013600	3.636700	-10.959000	24.951687	0.000960	20.813307
894.253253	-2.976400	3.638300	-10.828000	24.944503	0.000961	20.827907
895.254525	-3.012600	3.636600	-10.955000	24.906643	0.000958	20.826416
896.260509	-2.975700	3.636300	-10.819000	24.887396	0.000958	20.812789
897.258557	-3.008200	3.635700	-10.936000	24.892225	0.000957	20.806256
898.255383	-3.024700	3.635700	-10.996000	24.920545	0.000957	20.794852
899.260411	-3.010500	3.635300	-10.943000	24.930718	0.000958	20.802217
900.257178	-3.005400	3.633400	-10.919000	24.923429	0.000958	20.801065
901.258021	-3.001400	3.634300	-10.906000	24.937031	0.000956	20.800018
902.259346	-3.003100	3.634400	-10.913000	24.906029	0.000957	20.803990
903.260667	-2.973800	3.635500	-10.810000	24.868020	0.000956	20.787653
904.261675	-2.985700	3.635400	-10.853000	24.889470	0.000956	20.774093
905.258612	-2.995000	3.633200	-10.881000	24.858866	0.000959	20.790320
906.258802	-3.003600	3.634000	-10.914000	24.838281	0.000954	20.800954
907.259499	-2.986400	3.633600	-10.849000	24.815407	0.000954	20.787007
908.260331	-2.995700	3.631800	-10.878000	24.822445	0.000955	20.786009
909.262483	-2.984300	3.633600	-10.842000	24.827047	0.000953	20.790628
910.264927	-3.038000	3.631500	-11.031000	24.832943	0.000954	20.796071
911.265840	-2.995000	3.631800	-10.876000	24.849583	0.000953	20.782899
912.258981	-2.989700	3.634100	-10.863000	24.838514	0.000952	20.798343
913.266347	-2.992900	3.631200	-10.867000	24.829372	0.000951	20.810031
914.261402	-2.992400	3.632700	-10.868000	24.853565	0.000952	20.788318
915.262594	-3.021300	3.631100	-10.970000	24.845141	0.000952	20.793140
916.261325	-2.994900	3.631600	-10.875000	24.836784	0.000951	20.795659
917.261900	-3.016300	3.628800	-10.944000	24.820850	0.000951	20.788676
918.261245	-3.031400	3.629300	-11.000000	24.806179	0.000952	20.783909
919.265084	-3.005200	3.630700	-10.910000	24.776444	0.000950	20.797217
920.262213	-2.991400	3.630700	-10.859000	24.789047	0.000949	20.779993
921.263312	-3.001400	3.630600	-10.895000	24.738474	0.000950	20.788510
922.271670	-2.990800	3.630600	-10.858000	24.755735	0.000949	20.785443
923.268512	-2.984700	3.628100	-10.826000	24.742530	0.000948	20.784519
924.267849	-3.000000	3.628600	-10.885000	24.757754	0.000947	20.799797
925.264268	-3.011500	3.627900	-10.924000	24.809824	0.000949	20.774765
926.264608	-3.000400	3.628500	-10.886000	24.849614	0.000946	20.788621
927.266263	-3.003300	3.627000	-10.892000	24.895864	0.000946	20.783830
928.265585	-3.002000	3.627800	-10.890000	24.892612	0.000947	20.781989
929.266032	-2.990800	3.627900	-10.849000	24.926080	0.000945	20.788553
930.264724	-3.009100	3.626500	-10.912000	24.932620	0.000946	20.785634
931.265912	-2.996600	3.625500	-10.863000	24.937197	0.000946	20.766046
932.265448	-2.996600	3.627000	-10.868000	24.942516	0.000946	20.786558
933.264952	-2.966100	3.627400	-10.758000	24.958283	0.000946	20.770615
934.268752	-2.972900	3.626400	-10.780000	24.968075	0.000944	20.814582
935.266500	-2.973200	3.627000	-10.783000	24.977682	0.000944	20.775387
936.266829	-2.985800	3.625900	-10.825000	24.989160	0.000944	20.784064
937.266815	-3.008400	3.623800	-10.901000	25.000234	0.000943	20.763410
938.272805	-2.985500	3.625400	-10.823000	25.003209	0.000943	20.797217
939.266272	-2.998900	3.624600	-10.868000	25.025441	0.000942	20.767376
940.270693	-3.010300	3.623700	-10.908000	25.028871	0.000942	20.784095
941.269343	-3.002600	3.624100	-10.880000	25.027533	0.000943	20.775166
942.269429	-3.004200	3.624000	-10.886000	25.032054	0.000940	20.781601
943.268201	-2.980700	3.622800	-10.797000	25.025963	0.000942	20.773589
944.270931	-3.011500	3.622900	-10.909000	25.050826	0.000941	20.780055
945.270808	-3.006800	3.621800	-10.889000	25.052421	0.000940	20.784501
946.270019	-3.001900	3.622400	-10.873000	25.036011	0.000940	20.771822
947.274696	-2.987000	3.621800	-10.817000	25.030067	0.000940	20.791934
948.270530	-2.990900	3.620900	-10.829000	24.993148	0.000939	20.763884
949.273750	-2.996700	3.622300	-10.854000	24.966793	0.000938	20.779156
950.274744	-2.990700	3.621100	-10.829000	24.985069	0.000939	20.788966
951.272279	-3.025700	3.620500	-10.953000	24.995038	0.000937	20.787592
952.272301	-3.002100	3.620600	-10.868000	25.000902	0.000937	20.766926
953.274674	-2.994400	3.620300	-10.840000	25.038680	0.000939	20.796312
954.275280	-3.016800	3.620700	-10.922000	25.057071	0.000937	20.766883
955.275663	-2.996600	3.619100	-10.844000	25.042778	0.000936	20.771028
956.281824	-2.995700	3.619100	-10.841000	25.050526	0.000934	20.775012
957.274847	-2.997500	3.619800	-10.850000	25.042005	0.000936	20.774993
958.274560	-2.966900	3.620600	-10.740000	25.015104	0.000937	20.783079
959.275411	-2.976200	3.618900	-10.770000	25.004639	0.000934	20.763090
960.277009	-3.002200	3.618000	-10.860000	24.972044	0.000936	20.783005
961.279689	-2.994000	3.617400	-10.829000	24.997479	0.000935	20.765387
962.278560	-2.992900	3.617500	-10.826000	25.022368	0.000934	20.767610
963.281006	-3.012400	3.616200	-10.892000	25.015129	0.000935	20.774094
964.280879	-2.992900	3.618500	-10.829000	25.055482	0.000933	20.780462
965.280819	-2.996000	3.616200	-10.833000	25.084743	0.000932	20.780437
966.281397	-3.014900	3.616300	-10.901000	25.104029	0.000931	20.759968
967.277926	-3.003400	3.615900	-10.858000	25.110145	0.000932	20.780806
968.281240	-3.005200	3.615300	-10.863000	25.103680	0.000932	20.766729
969.279498	-3.006100	3.615600	-10.868000	25.081511	0.000931	20.780985
970.281947	-2.992600	3.616100	-10.819000	25.078167	0.000931	20.772887
971.294205	-2.998300	3.615700	-10.840000	25.097687	0.000930	20.776835
972.279955	-3.013700	3.615400	-10.895000	25.106434	0.000931	20.770442
973.280903	-3.026500	3.612900	-10.933000	25.115089	0.000931	20.777709
974.281496	-3.017500	3.613800	-10.902000	25.109943	0.000928	20.763533
975.282015	-3.015000	3.613900	-10.894000	25.139276	0.000929	20.741771
976.282424	-3.012600	3.613000	-10.884000	25.128909	0.000929	20.765504
977.283877	-3.004700	3.611900	-10.852000	25.117469	0.000926	20.762080
978.282105	-2.988900	3.612800	-10.796000	25.097134	0.000928	20.763478
979.281928	-3.001300	3.612400	-10.840000	25.119131	0.000927	20.786508
980.284342	-2.973400	3.614900	-10.747000	25.122064	0.000927	20.762899
981.285251	-3.002800	3.612300	-10.846000	25.167381	0.000925	20.778522
982.286018	-2.987100	3.612000	-10.788000	25.160027	0.000926	20.768767
983.284361	-3.008600	3.610800	-10.863000	25.141404	0.000923	20.758133
984.285099	-2.970700	3.612700	-10.731000	25.122487	0.000924	20.760479
985.284939	-2.982300	3.611400	-10.769000	25.122211	0.000925	20.773952
986.288019	-3.011200	3.609300	-10.867000	25.144361	0.000923	20.749721
987.287592	-2.973900	3.611300	-10.738000	25.102729	0.000922	20.757240
988.286942	-2.989000	3.609300	-10.787000	25.122542	0.000925	20.759112
989.290202	-3.006700	3.609800	-10.853000	25.129940	0.000923	20.751365
990.285695	-3.004800	3.610000	-10.846000	25.151218	0.000923	20.759450
991.287757	-3.014600	3.608700	-10.877000	25.151396	0.000923	20.755361
992.291407	-3.010800	3.608200	-10.862000	25.162382	0.000921	20.747424
993.286141	-2.988800	3.609400	-10.785000	25.145882	0.000922	20.764050
994.285848	-3.012900	3.606700	-10.865000	25.124174	0.000921	20.764069
995.287795	-3.011100	3.607600	-10.861000	25.153390	0.000921	20.785339
996.285747	-2.990500	3.608100	-10.789000	25.142839	0.000921	20.766686
997.287222	-2.981700	3.606900	-10.753000	25.151464	0.000918	20.768706
998.288351	-3.007300	3.606700	-10.846000	25.145925	0.000918	20.756981
999.286552	-2.971600	3.607000	-10.717000	25.106004	0.000918	20.748674
1000.285929	-2.992100	3.606300	-10.789000	25.105281	0.000917	20.767388
1001.288304	-2.986000	3.606800	-10.768000	25.111347	0.000919	20.742657
1002.293718	-2.988300	3.605600	-10.774000	25.104735	0.000918	20.733174
1003.291596	-2.998000	3.604500	-10.804000	25.125192	0.000918	20.762720
1004.287199	-3.019800	3.604100	-10.883000	25.126787	0.000916	20.742984
1005.290428	-2.991900	3.605000	-10.785000	25.090043	0.000916	20.746876
1006.287666	-2.994000	3.604100	-10.788000	25.094865	0.000914	20.763096
1007.288538	-3.026000	3.602900	-10.902000	25.079750	0.000917	20.750293
1008.289784	-3.008300	3.604300	-10.841000	25.078781	0.000914	20.762123
1009.290222	-3.000600	3.604700	-10.814000	25.107520	0.000915	20.753040
1010.294384	-3.005300	3.602100	-10.824000	25.107023	0.000915	20.728832
1011.293194	-2.999400	3.601500	-10.801000	25.135362	0.000914	20.769611
1012.292073	-2.986900	3.601800	-10.757000	25.181299	0.000912	20.780166
1013.296761	-2.998300	3.602000	-10.799000	25.192168	0.000911	20.737971
1014.292645	-2.987000	3.602700	-10.761000	25.185255	0.000913	20.753791
1015.291811	-2.998700	3.601800	-10.799000	25.214114	0.000913	20.736296
1016.292755	-2.996900	3.601400	-10.792000	25.221296	0.000910	20.745404
1017.293197	-2.998700	3.600700	-10.796000	25.242727	0.000910	20.732305
1018.292360	-2.996700	3.600400	-10.789000	25.197185	0.000909	20.724515
1019.294928	-2.973800	3.600900	-10.707000	25.193861	0.000908	20.764328
1020.292755	-2.993300	3.600100	-10.775000	25.206735	0.000909	20.732681
1021.295291	-2.985600	3.600200	-10.747000	25.196523	0.000908	20.751353
1022.291715	-2.993800	3.599700	-10.776000	25.164603	0.000906	20.747282
1023.293064	-2.996200	3.599300	-10.782000	25.196891	0.000909	20.764050
1024.295866	-2.983000	3.599200	-10.735000	25.235845	0.000906	20.723973
1025.300725	-2.993600	3.601100	-10.780000	25.246168	0.000907	20.761366
1026.293030	-2.976800	3.599000	-10.713000	25.278478	0.000906	20.725525
1027.293253	-3.013300	3.598100	-10.841000	25.278729	0.000905	20.750435
1028.293084	-2.992300	3.597200	-10.763000	25.243653	0.000904	20.751254
1029.299582	-3.008000	3.598000	-10.821000	25.255294	0.000907	20.755830
1030.298537	-3.008900	3.596900	-10.821000	25.239482	0.000903	20.733316
1031.295415	-2.971600	3.597400	-10.690000	25.247119	0.000903	20.726283
1032.298763	-3.007800	3.594900	-10.811000	25.259870	0.000901	20.734818
1033.298842	-2.983700	3.595200	-10.726000	25.262605	0.000906	20.732349
1034.301960	-2.999300	3.595000	-10.782000	25.243347	0.000903	20.741937
1035.299487	-2.970100	3.596200	-10.680000	25.253374	0.000901	20.730193
1036.298808	-3.007800	3.595200	-10.812000	25.288457	0.000902	20.706146
1037.298711	-3.011600	3.593600	-10.821000	25.282839	0.000901	20.733223
1038.297482	-3.005000	3.594700	-10.802000	25.298987	0.000901	20.716245
1039.298311	-2.996500	3.594400	-10.770000	25.285525	0.000899	20.714582
1040.303209	-2.978700	3.593200	-10.702000	25.250308	0.000900	20.729960
1041.303333	-3.006600	3.592500	-10.800000	25.244672	0.000899	20.724300
1042.297639	-2.975600	3.593600	-10.691000	25.256969	0.000898	20.728112
1043.297864	-3.000200	3.592000	-10.775000	25.237017	0.000897	20.727521
1044.300379	-3.006200	3.592600	-10.798000	25.213109	0.000899	20.707310
1045.301777	-3.000100	3.591800	-10.775000	25.220340	0.000896	20.714096
1046.301866	-3.010800	3.592300	-10.813000	25.188819	0.000897	20.728445
1047.299627	-3.016000	3.591000	-10.829000	25.172148	0.000896	20.712181
1048.301475	-2.965000	3.593400	-10.653000	25.140374	0.000898	20.729596
1049.300006	-3.010500	3.591700	-10.812000	25.149299	0.000897	20.726702
1050.303008	-2.983600	3.592100	-10.716000	25.164309	0.000895	20.720433
1051.301543	-3.003000	3.592400	-10.786000	25.188550	0.000896	20.738132
1052.305831	-2.994100	3.590300	-10.749000	25.216439	0.000895	20.714447
1053.305892	-2.993300	3.591000	-10.748000	25.207693	0.000895	20.733168
1054.299051	-3.002700	3.590500	-10.780000	25.233441	0.000896	20.711602
1055.302423	-2.984900	3.589500	-10.713000	25.235582	0.000894	20.727029
1056.302180	-3.018400	3.588100	-10.830000	25.261305	0.000895	20.718715
1057.301623	-3.005500	3.588500	-10.783000	25.254865	0.000892	20.724103
1058.304308	-3.002600	3.589200	-10.777000	25.234012	0.000892	20.720236
1059.303283	-3.013900	3.587300	-10.811000	25.247481	0.000894	20.707679
1060.308161	-2.998100	3.588100	-10.756000	25.251854	0.000891	20.708751
1061.306125	-2.999100	3.588500	-10.762000	25.257920	0.000890	20.715790
1062.305271	-3.028800	3.587000	-10.863000	25.249069	0.000890	20.717809
1063.304508	-2.995500	3.588000	-10.747000	25.259165	0.000889	20.716566
1064.305839	-3.020500	3.585700	-10.829000	25.243500	0.000889	20.717908
1065.307159	-2.992600	3.587400	-10.733000	25.243028	0.000888	20.693250
1066.303508	-2.995500	3.585800	-10.740000	25.253939	0.000888	20.698990
1067.307887	-2.998300	3.587100	-10.754000	25.269156	0.000888	20.691507
1068.308473	-2.988500	3.585800	-10.715000	25.250682	0.000888	20.696668
1069.306181	-3.021100	3.584300	-10.827000	25.256325	0.000889	20.706127
1070.305191	-2.994600	3.585200	-10.735000	25.253712	0.000889	20.714410
1071.308702	-2.994700	3.584900	-10.734000	25.223769	0.000886	20.694777
1072.311722	-3.001500	3.585100	-10.760000	25.182422	0.000888	20.703528
1073.306924	-2.998100	3.584300	-10.745000	25.172927	0.000885	20.722921
1074.308045	-3.012300	3.582800	-10.792000	25.161119	0.000886	20.690676
1075.306806	-2.988400	3.583800	-10.709000	25.155500	0.000885	20.718228
1076.314302	-2.994300	3.582600	-10.726000	25.171215	0.000883	20.707925
1077.308004	-3.017400	3.581600	-10.806000	25.151415	0.000884	20.694211
1078.306078	-2.989300	3.583000	-10.709000	25.167848	0.000882	20.702648
1079.307045	-2.990500	3.581000	-10.709000	25.190524	0.000882	20.697438
1080.308514	-2.996900	3.581400	-10.732000	25.198928	0.000882	20.713462
1081.306829	-2.983200	3.581700	-10.684000	25.228602	0.000883	20.731400
1082.310732	-2.982500	3.581900	-10.682000	25.224051	0.000879	20.694112
1083.309681	-2.964300	3.582000	-10.617000	25.246199	0.000879	20.708289
1084.309013	-2.991200	3.581500	-10.712000	25.277417	0.000878	20.712131
1085.312017	-3.029900	3.578900	-10.843000	25.295443	0.000877	20.707944
1086.310494	-3.014300	3.579200	-10.787000	25.303090	0.000879	20.713726
1087.316742	-2.996400	3.579800	-10.725000	25.307322	0.000877	20.700431
1088.313259	-2.983700	3.579800	-10.680000	25.348106	0.000876	20.690171
1089.311258	-2.975900	3.579400	-10.651000	25.363769	0.000877	20.701157
1090.310815	-2.989000	3.579600	-10.698000	25.356208	0.000877	20.706367
1091.309821	-3.012700	3.578200	-10.780000	25.368412	0.000877	20.702500
1092.309577	-2.989500	3.579000	-10.699000	25.381855	0.000877	20.716947
1093.316082	-2.983700	3.578600	-10.676000	25.409120	0.000876	20.722514
1094.317754	-2.995200	3.577300	-10.714000	25.417049	0.000877	20.684480
1095.317407	-2.974700	3.579000	-10.646000	25.423764	0.000876	20.687430
1096.313378	-3.002000	3.577200	-10.738000	25.427940	0.000874	20.694469
1097.316983	-3.015800	3.575700	-10.783000	25.430798	0.000872	20.696865
1098.318978	-3.017300	3.575900	-10.788000	25.438598	0.000873	20.707543
1099.314418	-3.008300	3.575200	-10.755000	25.445632	0.000871	20.711288
1100.318840	-3.003200	3.574000	-10.732000	25.464397	0.000874	20.712113
1101.315882	-2.992900	3.575700	-10.701000	25.388993	0.000872	20.708941
1102.317511	-2.988200	3.574600	-10.681000	25.383553	0.000870	20.697789
1103.315222	-3.002400	3.574700	-10.731000	25.351743	0.000871	20.695245
1104.322895	-2.992900	3.575600	-10.700000	25.368302	0.000874	20.712347
1105.319907	-3.010100	3.574100	-10.758000	25.361960	0.000870	20.689383
1106.317908	-3.007700	3.574800	-10.751000	25.329695	0.000870	20.693022
1107.316961	-3.003700	3.573000	-10.730000	25.310487	0.000869	20.720679
1108.317935	-2.987200	3.573800	-10.675000	25.294878	0.000869	20.721603
1109.320301	-2.982300	3.573300	-10.655000	25.275418	0.000867	20.700640
1110.318409	-3.002100	3.573600	-10.727000	25.298834	0.000867	20.701866
1111.318383	-2.994500	3.572000	-10.695000	25.308402	0.000868	20.714318
1112.316463	-3.007400	3.571400	-10.738000	25.312033	0.000868	20.717489
1113.317208	-3.015400	3.571500	-10.768000	25.322992	0.000866	20.713794
1114.322709	-3.000600	3.570500	-10.712000	25.321355	0.000866	20.717366
1115.319420	-2.967200	3.572200	-10.598000	25.311885	0.000864	20.723032
1116.318625	-2.984100	3.570300	-10.654000	25.290334	0.000864	20.705659
1117.318811	-2.990000	3.570000	-10.673000	25.319987	0.000866	20.717415
1118.320728	-2.997600	3.570400	-10.702000	25.301472	0.000865	20.693133
1119.321639	-3.008900	3.569300	-10.739000	25.340244	0.000865	20.720685
1120.322135	-2.996200	3.568800	-10.691000	25.377445	0.000863	20.724374
1121.321774	-3.017700	3.568200	-10.767000	25.379481	0.000861	20.696071
1122.321792	-3.012200	3.568200	-10.747000	25.382241	0.000861	20.718758
1123.323102	-2.996400	3.567900	-10.690000	25.418300	0.000861	20.709921
1124.325415	-3.012900	3.567400	-10.746000	25.430804	0.000860	20.724374
1125.327176	-2.991900	3.567800	-10.673000	25.454610	0.000861	20.703707
1126.324409	-3.003500	3.567000	-10.712000	25.435023	0.000859	20.717705
1127.321715	-2.991500	3.567200	-10.671000	25.448398	0.000860	20.733981
1128.321877	-2.994600	3.566300	-10.679000	25.442204	0.000859	20.725390
1129.325000	-2.990100	3.566500	-10.663000	25.474564	0.000858	20.720427
1130.322295	-2.980000	3.567400	-10.630000	25.474466	0.000860	20.702783
1131.322941	-3.012500	3.564900	-10.736000	25.509455	0.000857	20.693349
1132.322301	-3.008900	3.563900	-10.722000	25.509301	0.000857	20.721172
1133.324009	-2.982200	3.565000	-10.629000	25.501949	0.000856	20.723746
1134.323095	-2.995400	3.564600	-10.676000	25.501226	0.000854	20.706897
1135.320813	-3.017200	3.565500	-10.757000	25.516733	0.000855	20.708720
1136.325099	-3.019400	3.564400	-10.760000	25.507860	0.000855	20.728260
1137.322824	-2.976500	3.565200	-10.610000	25.487974	0.000855	20.718247
1138.321906	-2.995200	3.563800	-10.673000	25.500281	0.000853	20.715432
1139.325199	-2.998500	3.563900	-10.686000	25.500453	0.000854	20.719872
1140.323130	-3.016000	3.562700	-10.743000	25.498662	0.000854	20.711436
1141.322062	-3.001300	3.562700	-10.691000	25.513128	0.000852	20.730230
1142.324497	-3.002900	3.561300	-10.692000	25.500527	0.000851	20.704298
1143.323171	-3.000600	3.562600	-10.688000	25.493493	0.000852	20.742282
1144.323094	-3.018600	3.560600	-10.746000	25.486564	0.000850	20.748600
1145.325259	-3.026600	3.559700	-10.773000	25.498509	0.000848	20.726455
1146.324670	-3.014300	3.560200	-10.730000	25.474159	0.000850	20.724762
1147.326355	-3.010700	3.559800	-10.717000	25.453107	0.000849	20.733968
1148.331631	-3.001300	3.560000	-10.684000	25.405784	0.000846	20.726751
1149.326679	-2.997600	3.560400	-10.672000	25.399375	0.000847	20.732644
1150.327354	-2.990900	3.561700	-10.652000	25.399621	0.000845	20.729571
1151.328164	-2.993000	3.560200	-10.653000	25.385203	0.000847	20.737854
1152.326761	-2.987300	3.558400	-10.629000	25.366044	0.000846	20.752283
1153.328906	-3.025500	3.558100	-10.764000	25.338796	0.000845	20.729664
1154.334411	-2.997700	3.558400	-10.665000	25.320336	0.000845	20.718714
1155.327082	-3.007500	3.557800	-10.698000	25.329407	0.000845	20.728771
1156.328769	-3.016500	3.556900	-10.727000	25.374961	0.000843	20.711448
1157.327937	-2.985800	3.557400	-10.620000	25.411646	0.000846	20.752554
1158.330382	-2.983200	3.558400	-10.614000	25.416417	0.000841	20.735058
1159.328400	-3.012600	3.556200	-10.713000	25.415246	0.000841	20.730089
1160.329345	-3.022400	3.557100	-10.749000	25.410346	0.000842	20.726116
1161.332561	-3.007700	3.556800	-10.696000	25.415418	0.000843	20.734529
1162.328827	-3.021900	3.554800	-10.740000	25.425328	0.000840	20.717452
1163.329126	-2.995300	3.557200	-10.654000	25.382234	0.000840	20.719700
1164.332689	-3.004000	3.555700	-10.679000	25.367375	0.000839	20.756464
1165.329437	-3.000000	3.554300	-10.662000	25.410616	0.000838	20.750570
1166.330036	-3.010500	3.554700	-10.699000	25.428811	0.000841	20.747978
1167.330917	-2.970100	3.555400	-10.558000	25.406121	0.000839	20.745108
1168.329710	-2.993300	3.553700	-10.637000	25.386509	0.000838	20.740588
1169.333149	-2.988700	3.554100	-10.620000	25.394487	0.000837	20.727736
1170.332564	-3.030500	3.553100	-10.766000	25.424083	0.000838	20.722840
1171.334243	-3.013700	3.554000	-10.709000	25.445460	0.000836	20.724866
1172.344906	-2.988600	3.553500	-10.619000	25.478659	0.000838	20.734498
1173.333961	-3.001500	3.553100	-10.664000	25.463298	0.000836	20.754161
1174.333109	-2.980800	3.552700	-10.589000	25.458497	0.000836	20.741752
1175.335721	-3.004300	3.550200	-10.666000	25.463274	0.000835	20.714779
1176.332516	-2.981800	3.551200	-10.588000	25.465187	0.000835	20.741358
1177.335249	-2.977300	3.551500	-10.573000	25.497920	0.000832	20.731554
1178.335133	-2.986500	3.551800	-10.607000	25.495007	0.000835	20.740009
1179.334670	-2.999600	3.550000	-10.648000	25.515359	0.000833	20.742904
1180.332211	-3.021500	3.549600	-10.724000	25.497564	0.000834	20.749690
1181.331273	-3.015100	3.549000	-10.699000	25.506535	0.000834	20.734042
1182.335301	-3.011000	3.548500	-10.683000	25.538635	0.000833	20.753477
1183.335835	-2.991700	3.548900	-10.616000	25.548330	0.000832	20.748514
1184.336471	-3.009100	3.548200	-10.676000	25.570140	0.000832	20.739122
1185.334312	-2.988000	3.549300	-10.604000	25.545264	0.000832	20.741641
1186.334302	-3.001100	3.548000	-10.647000	25.529008	0.000832	20.730532
1187.335014	-2.989700	3.546700	-10.603000	25.519216	0.000830	20.742509
1188.335349	-2.998700	3.547100	-10.634000	25.530548	0.000831	20.752467
1189.333966	-2.995600	3.546100	-10.621000	25.540708	0.000830	20.759826
1190.334555	-3.012500	3.545700	-10.680000	25.550991	0.000829	20.748341
1191.337978	-3.003100	3.545600	-10.647000	25.570342	0.000828	20.756396
1192.337090	-2.993400	3.544800	-10.610000	25.581863	0.000829	20.745206
1193.346110	-2.997100	3.546200	-10.627000	25.580048	0.000826	20.759505
1194.337120	-2.990200	3.545600	-10.601000	25.616892	0.000828	20.747195
1195.338263	-2.997100	3.545600	-10.625000	25.610558	0.000826	20.753637
1196.336019	-3.008700	3.544000	-10.662000	25.628314	0.000826	20.763884
1197.338168	-2.991200	3.544800	-10.601000	25.582666	0.000826	20.754074
1198.346090	-3.012200	3.542700	-10.671000	25.571948	0.000825	20.773656
1199.346136	-3.006100	3.543500	-10.651000	25.579453	0.000825	20.772659
1200.335840	-3.008500	3.543000	-10.659000	25.569581	0.000824	20.740458
1201.338430	-2.975900	3.544400	-10.547000	25.547084	0.000825	20.735408
1202.337765	-2.997900	3.542700	-10.619000	25.531645	0.000825	20.762104
1203.342036	-3.005200	3.543700	-10.647000	25.538629	0.000823	20.757264
1204.341257	-2.997700	3.543100	-10.620000	25.552787	0.000821	20.767689
1205.340220	-3.006600	3.542400	-10.648000	25.562076	0.000822	20.766113
1206.346435	-3.014400	3.541000	-10.673000	25.590171	0.000823	20.772517
1207.342978	-3.023600	3.540700	-10.704000	25.593966	0.000823	20.758785
1208.345317	-3.025400	3.540900	-10.711000	25.611103	0.000820	20.783109
1209.348235	-2.999400	3.541300	-10.620000	25.646401	0.000821	20.758815
1210.342690	-3.003500	3.540700	-10.634000	25.643746	0.000820	20.783650
1211.344774	-3.004600	3.540000	-10.635000	25.640607	0.000819	20.768644
1212.345776	-2.987000	3.538400	-10.568000	25.637738	0.000818	20.755330
1213.342710	-2.990100	3.538200	-10.578000	25.611220	0.000818	20.780855
1214.348747	-3.003900	3.538000	-10.627000	25.588828	0.000818	20.767849
1215.351067	-3.015900	3.537100	-10.665000	25.543173	0.000817	20.773681
1216.344307	-3.001700	3.538600	-10.621000	25.538991	0.000817	20.765688
1217.343250	-2.980300	3.539400	-10.547000	25.565523	0.000816	20.771945
1218.352115	-2.978500	3.539300	-10.541000	25.571801	0.000817	20.779673
1219.345682	-3.000300	3.537700	-10.613000	25.575824	0.000816	20.779445
1220.348667	-2.977200	3.536100	-10.526000	25.592961	0.000814	20.794286
1221.351124	-2.995800	3.535400	-10.590000	25.616438	0.000814	20.777561
1222.357210	-3.003900	3.537500	-10.624000	25.606763	0.000816	20.768318
1223.348168	-2.991100	3.535100	-10.573000	25.568889	0.000815	20.777222
1224.348187	-3.001900	3.535100	-10.612000	25.591171	0.000813	20.787746
1225.348804	-3.011900	3.535400	-10.647000	25.579190	0.000815	20.807482
1226.344799	-3.009200	3.534900	-10.636000	25.596751	0.000812	20.791454
1227.347412	-3.025700	3.534000	-10.691000	25.575892	0.000812	20.785678
1228.350406	-3.005400	3.534400	-10.621000	25.584758	0.000813	20.797427
1229.347225	-3.017100	3.533200	-10.659000	25.583661	0.000811	20.793006
1230.346988	-3.020400	3.532600	-10.668000	25.628328	0.000809	20.786183
1231.348635	-3.014200	3.531500	-10.642000	25.603993	0.000807	20.805839
1232.349192	-2.991300	3.534600	-10.571000	25.629229	0.000809	20.791356
1233.362061	-3.004800	3.532800	-10.615000	25.628034	0.000809	20.786362
1234.350768	-3.008300	3.531200	-10.622000	25.634362	0.000808	20.805045
1235.352337	-2.991000	3.532500	-10.564000	25.582969	0.000806	20.812225
1236.355483	-3.018400	3.529500	-10.651000	25.591387	0.000806	20.792705
1237.349664	-2.985400	3.531800	-10.543000	25.558032	0.000807	20.792872
1238.354716	-2.984700	3.531800	-10.540000	25.550540	0.000805	20.788192
1239.352601	-3.007100	3.530900	-10.616000	25.558419	0.000806	20.807010
1240.351251	-2.995400	3.530500	-10.574000	25.570216	0.000803	20.809375
1241.351223	-3.003800	3.529400	-10.601000	25.575422	0.000805	20.796111
1242.353648	-2.991100	3.530600	-10.560000	25.621193	0.000803	20.796561
1243.351941	-2.998300	3.531300	-10.587000	25.611273	0.000802	20.803667
1244.351042	-2.988000	3.530100	-10.547000	25.579230	0.000801	20.799462
1245.354490	-3.023800	3.528000	-10.666000	25.535420	0.000802	20.815682
1246.357270	-2.983600	3.528000	-10.525000	25.520710	0.000800	20.782417
1247.356542	-2.988100	3.527400	-10.539000	25.496747	0.000802	20.810035
1248.354652	-3.021400	3.527600	-10.657000	25.480583	0.000799	20.825571
1249.355540	-2.984300	3.528100	-10.527000	25.490100	0.000799	20.805257
1250.358474	-2.991200	3.527200	-10.548000	25.478811	0.000798	20.797240
1251.356275	-2.999400	3.527300	-10.578000	25.455000	0.000801	20.820744
1252.359951	-3.023400	3.527300	-10.662000	25.477285	0.000797	20.812776
1253.357553	-2.993500	3.526000	-10.553000	25.492149	0.000797	20.825806
1254.357307	-2.985200	3.526700	-10.526000	25.491542	0.000796	20.809550
1255.356542	-2.993500	3.524200	-10.549000	25.517216	0.000796	20.805461
1256.360446	-2.985800	3.526100	-10.527000	25.555533	0.000795	20.812647
1257.361779	-3.014000	3.524800	-10.623000	25.579931	0.000795	20.808700
1258.360122	-3.004000	3.523700	-10.584000	25.623881	0.000795	20.826761
1259.359659	-2.995300	3.525100	-10.558000	25.635310	0.000793	20.827334
1260.359855	-3.017700	3.523200	-10.630000	25.648154	0.000794	20.824113
1261.359487	-3.012000	3.522900	-10.611000	25.666965	0.000794	20.806022
1262.361672	-3.010600	3.522500	-10.604000	25.680226	0.000791	20.807962
1263.365924	-2.974700	3.523200	-10.479000	25.712799	0.000791	20.822660
1264.363680	-3.004300	3.522400	-10.581000	25.736617	0.000793	20.819557
1265.364384	-3.001300	3.521000	-10.566000	25.738279	0.000790	20.823597
1266.361431	-3.004300	3.521100	-10.577000	25.747726	0.000790	20.832612
1267.365055	-2.987400	3.520900	-10.516000	25.766927	0.000789	20.821078
1268.366240	-3.003800	3.521100	-10.576000	25.768091	0.000789	20.816559
1269.364611	-3.013300	3.519100	-10.603000	25.777784	0.000789	20.833880
1270.363858	-2.999000	3.521200	-10.559000	25.763077	0.000787	20.833332
1271.366251	-3.009500	3.520300	-10.593000	25.783994	0.000787	20.832532
1272.365338	-3.004200	3.519400	-10.571000	25.779966	0.000788	20.839866
1273.365357	-2.993400	3.518200	-10.531000	25.791620	0.000786	20.816485
1274.368489	-3.009800	3.517700	-10.586000	25.729904	0.000787	20.838418
1275.367096	-2.975700	3.519200	-10.471000	25.705903	0.000784	20.837070
1276.366483	-3.019800	3.516600	-10.618000	25.684285	0.000786	20.838117
1277.366055	-3.017900	3.516600	-10.612000	25.680730	0.000784	20.824589
1278.367217	-2.994600	3.517300	-10.532000	25.649627	0.000782	20.842661
1279.370653	-3.006700	3.517100	-10.573000	25.639437	0.000784	20.840962
1280.367613	-2.994000	3.516500	-10.528000	25.660485	0.000784	20.842661
1281.368533	-2.999700	3.516200	-10.546000	25.671208	0.000782	20.829250
1282.366749	-3.006500	3.516600	-10.572000	25.703267	0.000780	20.839638
1283.367490	-3.000200	3.515000	-10.545000	25.652183	0.000779	20.846177
1284.370849	-3.003700	3.515600	-10.558000	25.679865	0.000780	20.827039
1285.367349	-3.003200	3.515100	-10.556000	25.662790	0.000780	20.826959
1286.370299	-2.997400	3.516800	-10.540000	25.674249	0.000782	20.837045
1287.367655	-2.994400	3.514600	-10.523000	25.719697	0.000780	20.852347
1288.368878	-2.998700	3.514000	-10.537000	25.748860	0.000779	20.851768
1289.370271	-2.995500	3.512900	-10.521000	25.791319	0.000778	20.839890
1290.377367	-3.021900	3.513000	-10.615000	25.797333	0.000778	20.825543
1291.369916	-2.997800	3.514400	-10.534000	25.817551	0.000779	20.842532
1292.371841	-2.990400	3.512900	-10.503000	25.823442	0.000776	20.849398
1293.370850	-2.989300	3.512800	-10.500000	25.837602	0.000775	20.842286
1294.369957	-2.999900	3.511400	-10.532000	25.862570	0.000776	20.828960
1295.374555	-2.995200	3.511800	-10.516000	25.844909	0.000774	20.842513
1296.371520	-2.993000	3.511200	-10.508000	25.837553	0.000775	20.845081
1297.373182	-2.991900	3.512000	-10.507000	25.807969	0.000774	20.853769
1298.370876	-2.981900	3.510700	-10.467000	25.782056	0.000775	20.856663
1299.371001	-3.009500	3.509300	-10.560000	25.787249	0.000771	20.845758
1300.375107	-3.002000	3.509900	-10.536000	25.810697	0.000772	20.850346
1301.374773	-2.999200	3.508500	-10.521000	25.823767	0.000772	20.834551
1302.374483	-2.994800	3.510100	-10.511000	25.839570	0.000772	20.868917
1303.374485	-2.990800	3.509900	-10.496000	25.829811	0.000772	20.841097
1304.373550	-3.025300	3.507600	-10.609000	25.829860	0.000769	20.859637
1305.372962	-2.982800	3.509200	-10.466000	25.857083	0.000767	20.855216
1306.378263	-3.021700	3.507400	-10.597000	25.815350	0.000767	20.840795
1307.374149	-2.997800	3.507300	-10.513000	25.768245	0.000769	20.856066
1308.376951	-2.996900	3.506600	-10.508000	25.721345	0.000767	20.861115
1309.379526	-3.004800	3.505900	-10.532000	25.718912	0.000767	20.872420
1310.376318	-2.990700	3.506000	-10.484000	25.749148	0.000767	20.860591
1311.377910	-2.997200	3.507000	-10.510000	25.768404	0.000765	20.845795
1312.377362	-3.006400	3.504800	-10.536000	25.780652	0.000765	20.866158
1313.375112	-3.016200	3.504600	-10.570000	25.776827	0.000764	20.864686
1314.374578	-3.005900	3.503600	-10.530000	25.721051	0.000764	20.875517
1315.375826	-2.990800	3.505200	-10.482000	25.733472	0.000765	20.859544
1316.376289	-2.995700	3.504700	-10.498000	25.705902	0.000765	20.865991
1317.378643	-3.004600	3.502700	-10.523000	25.729254	0.000764	20.862894
1318.376525	-3.016600	3.502200	-10.564000	25.741202	0.000763	20.873473
1319.377783	-3.008200	3.502400	-10.534000	25.773185	0.000765	20.867192
1320.376581	-3.012400	3.501100	-10.546000	25.760513	0.000763	20.861576
1321.378272	-3.007900	3.501600	-10.531000	25.743170	0.000761	20.853165
1322.380550	-2.996600	3.500800	-10.489000	25.761629	0.000761	20.865542
1323.379353	-2.985200	3.500400	-10.447000	25.782724	0.000761	20.859230
1324.381358	-2.988500	3.501500	-10.462000	25.758833	0.000760	20.870793
1325.379951	-2.979700	3.501800	-10.431000	25.757411	0.000758	20.880270
1326.379736	-3.011400	3.499200	-10.535000	25.712566	0.000760	20.891175
1327.382682	-2.992300	3.501100	-10.475000	25.674579	0.000759	20.871514
1328.379476	-2.991700	3.498600	-10.465000	25.700813	0.000757	20.876052
1329.380659	-3.025800	3.498500	-10.583000	25.652115	0.000756	20.876926
1330.380954	-3.013600	3.498100	-10.540000	25.651440	0.000757	20.866767
1331.380770	-3.004100	3.497800	-10.505000	25.624776	0.000757	20.875547
1332.382536	-2.978600	3.499200	-10.421000	25.596548	0.000755	20.861422
1333.384832	-2.993200	3.498300	-10.471000	25.603280	0.000755	20.876717
1334.381853	-2.987200	3.497800	-10.448000	25.650024	0.000755	20.889999
1335.383347	-3.004600	3.496200	-10.505000	25.655015	0.000756	20.860874
1336.383439	-2.995200	3.497200	-10.475000	25.660729	0.000757	20.875147
1337.384717	-3.004400	3.495700	-10.501000	25.660061	0.000753	20.890596
1338.388162	-2.994800	3.495500	-10.468000	25.678393	0.000752	20.869655
1339.384079	-2.994600	3.495600	-10.468000	25.699557	0.000755	20.861989
1340.383462	-2.993500	3.494600	-10.460000	25.723387	0.000752	20.864113
1341.384211	-3.016400	3.493500	-10.536000	25.735538	0.000752	20.871102
1342.388087	-3.003000	3.494400	-10.492000	25.744378	0.000752	20.852956
1343.384215	-3.029500	3.494500	-10.586000	25.749969	0.000751	20.879433
1344.387870	-3.019900	3.493300	-10.547000	25.746340	0.000751	20.872943
1345.386574	-3.027000	3.493300	-10.573000	25.748970	0.000751	20.858991
1346.386100	-3.021300	3.493300	-10.553000	25.761759	0.000751	20.858086
1347.385087	-3.005000	3.492500	-10.493000	25.783552	0.000751	20.855795
1348.385555	-3.025600	3.490500	-10.559000	25.789664	0.000749	20.840124
1349.385721	-2.968800	3.491900	-10.363000	25.801477	0.000750	20.863369
1350.390123	-2.985300	3.490100	-10.417000	25.832484	0.000749	20.870333
1351.385277	-2.970800	3.491600	-10.372000	25.841354	0.000748	20.871183
1352.385493	-2.999500	3.490700	-10.470000	25.819807	0.000747	20.856177
1353.391184	-2.987200	3.490200	-10.424000	25.842862	0.000747	20.863689
1354.386005	-3.005100	3.490600	-10.489000	25.817845	0.000746	20.848043
1355.385576	-2.999700	3.489800	-10.467000	25.810011	0.000743	20.863881
1356.385293	-3.001100	3.490500	-10.475000	25.786808	0.000744	20.849109
1357.386712	-3.022000	3.486800	-10.536000	25.800945	0.000745	20.867575
1358.386510	-2.997200	3.487700	-10.451000	25.806382	0.000747	20.834158
1359.389852	-2.999700	3.488400	-10.462000	25.832742	0.000742	20.843567
1360.389238	-3.011800	3.488000	-10.505000	25.844481	0.000742	20.842084
1361.391407	-2.986700	3.487400	-10.415000	25.879906	0.000741	20.874823
1362.390110	-2.974800	3.486700	-10.370000	25.886839	0.000741	20.840064
1363.391582	-2.994300	3.488300	-10.444000	25.867830	0.000740	20.858426
1364.391060	-3.023000	3.485300	-10.534000	25.860677	0.000740	20.835594
1365.391263	-2.994900	3.486700	-10.441000	25.864453	0.000740	20.826585
1366.394211	-3.010200	3.484100	-10.486000	25.898853	0.000740	20.855926
1367.390269	-2.987300	3.484600	-10.408000	25.888966	0.000739	20.836037
1368.392810	-3.000400	3.484500	-10.454000	25.858703	0.000738	20.840249
1369.395282	-3.000400	3.484200	-10.453000	25.835777	0.000738	20.835237
1370.395387	-2.981100	3.484100	-10.385000	25.804269	0.000738	20.828242
1371.394485	-2.990300	3.484600	-10.419000	25.815352	0.000737	20.834159
1372.395742	-2.999900	3.484100	-10.451000	25.859776	0.000736	20.832318
1373.396715	-2.996300	3.483300	-10.436000	25.855694	0.000736	20.831062
1374.396266	-2.996100	3.481700	-10.430000	25.831351	0.000738	20.837429
1375.398790	-3.005100	3.482500	-10.464000	25.844464	0.000735	20.839221
1376.398832	-2.997800	3.482400	-10.439000	25.848467	0.000736	20.841345
1377.401219	-3.002600	3.480300	-10.449000	25.874071	0.000736	20.832928
1378.398751	-2.973000	3.482200	-10.352000	25.873550	0.000736	20.838569
1379.398309	-2.999500	3.480600	-10.437000	25.854995	0.000734	20.851696
1380.406916	-2.990600	3.480200	-10.406000	25.843520	0.000734	20.815514
1381.399716	-2.997100	3.479400	-10.426000	25.852016	0.000732	20.848057
1382.403706	-3.009000	3.478800	-10.466000	25.821157	0.000735	20.834776
1383.400756	-2.990500	3.480400	-10.407000	25.825933	0.000731	20.837675
1384.400322	-2.998200	3.478100	-10.426000	25.827048	0.000730	20.810822
1385.404243	-3.011400	3.476800	-10.469000	25.773384	0.000729	20.829936
1386.402750	-3.003400	3.476400	-10.438000	25.746901	0.000730	20.836524
1387.400020	-3.001100	3.476900	-10.434000	25.713213	0.000729	20.831610
1388.400599	-2.997600	3.477700	-10.424000	25.712440	0.000731	20.836998
1389.406515	-2.989300	3.477000	-10.393000	25.680713	0.000729	20.816512
1390.403387	-3.001700	3.477300	-10.436000	25.658470	0.000731	20.805551
1391.401829	-2.992000	3.476800	-10.401000	25.656710	0.000727	20.819905
1392.400957	-3.003200	3.474900	-10.434000	25.642946	0.000727	20.835477
1393.404356	-2.999200	3.475800	-10.424000	25.646766	0.000727	20.816081
1394.406022	-2.985800	3.476600	-10.379000	25.624338	0.000725	20.825797
1395.403043	-2.994700	3.475800	-10.408000	25.645754	0.000726	20.824073
1396.403456	-2.982800	3.475100	-10.364000	25.684135	0.000725	20.833698
1397.404278	-3.005000	3.474900	-10.440000	25.706996	0.000724	20.811616
1398.407041	-3.015700	3.472000	-10.469000	25.743468	0.000724	20.837818
1399.404272	-2.996300	3.473100	-10.405000	25.784315	0.000722	20.829535
1400.404308	-2.970600	3.474700	-10.320000	25.801854	0.000723	20.805428
1401.408446	-2.980600	3.472600	-10.350000	25.754282	0.000722	20.829714
1402.405835	-2.994200	3.470900	-10.392000	25.761062	0.000720	20.816610
1403.405886	-3.000700	3.473000	-10.420000	25.709559	0.000722	20.813242
1404.404641	-3.018500	3.471700	-10.479000	25.720564	0.000721	20.801062
1405.410816	-3.013700	3.471700	-10.462000	25.725854	0.000722	20.817282
1406.408517	-2.995700	3.471300	-10.398000	25.751198	0.000721	20.794374
1407.409218	-3.008700	3.470800	-10.441000	25.724861	0.000719	20.813913
1408.407441	-3.002700	3.469000	-10.415000	25.727565	0.000721	20.819948
1409.408302	-2.992500	3.469000	-10.380000	25.715169	0.000719	20.807497
1410.407458	-2.998200	3.468400	-10.397000	25.703845	0.000717	20.805606
1411.408347	-3.009500	3.467700	-10.435000	25.659341	0.000718	20.804529
1412.410777	-3.008100	3.467400	-10.428000	25.661008	0.000718	20.819480
1413.407359	-2.989700	3.468400	-10.368000	25.672608	0.000717	20.782767
1414.416787	-3.025400	3.467500	-10.490000	25.703520	0.000716	20.815237
1415.409801	-3.009800	3.467500	-10.435000	25.735921	0.000715	20.797521
1416.409434	-3.003400	3.466400	-10.410000	25.755520	0.000716	20.804880
1417.410441	-3.015000	3.466200	-10.449000	25.784664	0.000716	20.800963
1418.408411	-3.004900	3.464600	-10.409000	25.765764	0.000715	20.790039
1419.412975	-2.992100	3.465300	-10.367000	25.802086	0.000713	20.796653
1420.411251	-2.984500	3.465800	-10.342000	25.811974	0.000714	20.800421
1421.411097	-2.978100	3.466900	-10.324000	25.819128	0.000713	20.787219
1422.414859	-3.000200	3.463500	-10.390000	25.832154	0.000713	20.801252
1423.414843	-2.997400	3.464400	-10.383000	25.820673	0.000712	20.812478
1424.412244	-3.008300	3.461900	-10.413000	25.825240	0.000710	20.810428
1425.416240	-2.995900	3.463700	-10.375000	25.869829	0.000710	20.790261
1426.414255	-2.999800	3.464400	-10.390000	25.876670	0.000710	20.798081
1427.414572	-3.014600	3.462100	-10.434000	25.888568	0.000712	20.772575
1428.417495	-3.019200	3.461300	-10.450000	25.909163	0.000710	20.773825
1429.415307	-3.006000	3.461400	-10.404000	25.907938	0.000711	20.805311
1430.415782	-3.015000	3.460700	-10.432000	25.896089	0.000710	20.804313
1431.415190	-2.982600	3.461700	-10.324000	25.916979	0.000711	20.791634
1432.416263	-2.995600	3.460700	-10.366000	25.900006	0.000711	20.789282
1433.419326	-3.013100	3.459200	-10.422000	25.895709	0.000711	20.793500
1434.415782	-3.011100	3.458700	-10.414000	25.891265	0.000711	20.805631
1435.415800	-2.994700	3.459000	-10.357000	25.921791	0.000712	20.783192
1436.416019	-2.977300	3.459500	-10.298000	25.925438	0.000710	20.785908
1437.416815	-3.000000	3.458600	-10.375000	25.935516	0.000709	20.778962
1438.416334	-2.985500	3.459100	-10.327000	25.930220	0.000709	20.781703
1439.419311	-2.990400	3.456500	-10.335000	25.955161	0.000708	20.781629
1440.418815	-2.986800	3.458100	-10.328000	25.978398	0.000708	20.784585
1441.421600	-2.982000	3.457200	-10.308000	25.985496	0.000706	20.772276
1442.420451	-2.987900	3.456300	-10.326000	25.965772	0.000707	20.780909
1443.417253	-3.030900	3.455400	-10.472000	25.970982	0.000707	20.787566
1444.421088	-3.007100	3.454700	-10.388000	25.984761	0.000706	20.803306
1445.417937	-3.016700	3.454800	-10.420000	25.943976	0.000705	20.770866
1446.416990	-2.998900	3.455000	-10.360000	25.923302	0.000705	20.783287
1447.417364	-2.979400	3.455900	-10.295000	25.888069	0.000704	20.793885
1448.419806	-2.992100	3.454400	-10.335000	25.885630	0.000705	20.760614
1449.425907	-3.016700	3.454900	-10.421000	25.878992	0.000703	20.806103
1450.423484	-2.993800	3.453200	-10.337000	25.875761	0.000704	20.790530
1451.420670	-2.998200	3.453900	-10.355000	25.872348	0.000703	20.785678
1452.419126	-3.000100	3.452600	-10.356000	25.838633	0.000702	20.772199
1453.419992	-2.980900	3.453100	-10.292000	25.833165	0.000702	20.798475
1454.421494	-2.988200	3.453100	-10.318000	25.854523	0.000702	20.770617
1455.421788	-2.992000	3.451400	-10.325000	25.880624	0.000702	20.796838
1456.419095	-3.022800	3.451200	-10.431000	25.863185	0.000698	20.778370
1457.419502	-3.014300	3.449900	-10.398000	25.819601	0.000699	20.782952
1458.419269	-3.011700	3.450800	-10.391000	25.843649	0.000698	20.799049
1459.420435	-3.003100	3.450700	-10.362000	25.825983	0.000699	20.766129
1460.421544	-3.002000	3.449500	-10.354000	25.848836	0.000699	20.785293
1461.424297	-3.014400	3.449300	-10.396000	25.809959	0.000697	20.767102
1462.423602	-2.998300	3.449700	-10.342000	25.799642	0.000696	20.787559
1463.423251	-2.992100	3.447900	-10.313000	25.780853	0.000697	20.771531
1464.420955	-3.015700	3.447700	-10.396000	25.750612	0.000696	20.807536
1465.420310	-2.996100	3.449300	-10.333000	25.742887	0.000698	20.768957
1466.422559	-3.003500	3.447000	-10.352000	25.747793	0.000694	20.771987
1467.425475	-3.001900	3.445600	-10.343000	25.755995	0.000695	20.789710
1468.423382	-2.997000	3.445900	-10.326000	25.721780	0.000694	20.789482
1469.422350	-3.009200	3.445500	-10.367000	25.743863	0.000691	20.781791
1470.422324	-2.972000	3.446800	-10.243000	25.738389	0.000693	20.772974
1471.425406	-2.997900	3.445600	-10.328000	25.740376	0.000693	20.774969
1472.422028	-3.012900	3.445600	-10.380000	25.711402	0.000691	20.772420
1473.425470	-2.992000	3.445600	-10.307000	25.705505	0.000691	20.783566
1474.423440	-2.994500	3.446300	-10.319000	25.719097	0.000691	20.774459
1475.425661	-3.012000	3.444400	-10.373000	25.733210	0.000692	20.755917
1476.426934	-2.995000	3.443700	-10.313000	25.738391	0.000690	20.775820
1477.427208	-3.000500	3.443100	-10.330000	25.693796	0.000688	20.768486
1478.426069	-3.008000	3.444700	-10.360000	25.717050	0.000686	20.772403
1479.425590	-2.996800	3.441500	-10.313000	25.726903	0.000690	20.758117
1480.424767	-2.995300	3.443000	-10.312000	25.749139	0.000687	20.754847
1481.428719	-2.990700	3.442100	-10.293000	25.778694	0.000684	20.778371
1482.426635	-2.986500	3.441700	-10.277000	25.810749	0.000686	20.786863
1483.427209	-3.017400	3.439200	-10.376000	25.811044	0.000684	20.748277
1484.426129	-3.000300	3.439900	-10.319000	25.813374	0.000685	20.760101
1485.426333	-2.993700	3.440400	-10.299000	25.800678	0.000685	20.764418
1486.426955	-3.004500	3.439400	-10.332000	25.821422	0.000686	20.769135
1487.428937	-3.000100	3.439700	-10.318000	25.789393	0.000683	20.777264
1488.425668	-3.012100	3.440500	-10.360000	25.850633	0.000686	20.757225
1489.429035	-3.017900	3.437000	-10.371000	25.844147	0.000685	20.753081
1490.426621	-3.006300	3.437200	-10.332000	25.836197	0.000684	20.757897
1491.427289	-3.004500	3.437100	-10.325000	25.835075	0.000683	20.744442
1492.431637	-2.975200	3.437400	-10.226000	25.799840	0.000682	20.772111
1493.433457	-3.016300	3.436200	-10.363000	25.760636	0.000683	20.778250
1494.429432	-2.998200	3.435700	-10.300000	25.759343	0.000684	20.740440
1495.430318	-3.013100	3.435500	-10.351000	25.751814	0.000681	20.773182
1496.431018	-2.969100	3.437200	-10.205000	25.769796	0.000682	20.756156
1497.433707	-2.992900	3.435200	-10.280000	25.774743	0.000680	20.767289
1498.433155	-3.007000	3.435800	-10.331000	25.764971	0.000681	20.767906
1499.431359	-3.008900	3.435100	-10.334000	25.752471	0.000679	20.752505
1500.431082	-3.010000	3.434400	-10.337000	25.746758	0.000681	20.771422
1501.436048	-3.014200	3.433200	-10.347000	25.822283	0.000680	20.757197
1502.435194	-3.017400	3.433000	-10.357000	25.802226	0.000678	20.769766
1503.432690	-3.000400	3.432900	-10.298000	25.868780	0.000679	20.752696
1504.433897	-3.010800	3.432700	-10.335000	25.885815	0.000678	20.755111
1505.435275	-2.983700	3.433600	-10.244000	25.869694	0.000677	20.744605
1506.432844	-2.981000	3.432300	-10.231000	25.884970	0.000677	20.762322
1507.433381	-3.005000	3.431100	-10.310000	25.905333	0.000677	20.753381
1508.432219	-3.013600	3.431300	-10.339000	25.911886	0.000678	20.749059
1509.432653	-2.998300	3.431700	-10.289000	25.923710	0.000677	20.759989
1510.433956	-3.006300	3.431300	-10.314000	25.928375	0.000676	20.769418
1511.433213	-3.005300	3.430200	-10.308000	25.900357	0.000674	20.771142
1512.435210	-2.985700	3.430200	-10.240000	25.896771	0.000676	20.773230
1513.436803	-2.986400	3.431100	-10.245000	25.891310	0.000675	20.735973
1514.434855	-3.009000	3.428700	-10.316000	25.925109	0.000675	20.751437
1515.438944	-2.989800	3.429100	-10.251000	25.944381	0.000675	20.757048
1516.434903	-2.987100	3.428000	-10.239000	25.947415	0.000674	20.752509
1517.434790	-3.006400	3.427300	-10.303000	25.974881	0.000672	20.764456
1518.438234	-2.979000	3.429600	-10.215000	25.996885	0.000673	20.751949
1519.438678	-2.990700	3.428600	-10.253000	25.975923	0.000669	20.737053
1520.435819	-2.994100	3.427200	-10.260000	25.984033	0.000671	20.744253
1521.435608	-3.028300	3.425300	-10.370000	25.980631	0.000671	20.751267
1522.435807	-3.009500	3.425500	-10.307000	25.948483	0.000670	20.744573
1523.435141	-2.991800	3.427100	-10.252000	25.934141	0.000668	20.743441
1524.438631	-3.011800	3.425100	-10.314000	25.926890	0.000667	20.758916
1525.437713	-3.017500	3.425000	-10.333000	25.929122	0.000667	20.740295
1526.440553	-3.015500	3.424300	-10.325000	25.974277	0.000667	20.728287
1527.438648	-3.000200	3.423600	-10.271000	25.997501	0.000666	20.767267
1528.436711	-2.998000	3.424400	-10.266000	25.993971	0.000666	20.738115
1529.438124	-2.986700	3.424900	-10.227000	25.962448	0.000665	20.752439
1530.441063	-2.998400	3.423800	-10.265000	25.953653	0.000665	20.740283
1531.438441	-3.020700	3.422100	-10.336000	25.928161	0.000663	20.739329
1532.439125	-3.008600	3.421400	-10.292000	25.942443	0.000664	20.749885
1533.438442	-2.989900	3.422300	-10.231000	25.943111	0.000665	20.749608
1534.443235	-3.002700	3.419800	-10.267000	25.952496	0.000663	20.732957
1535.445810	-3.022000	3.422200	-10.341000	25.944030	0.000661	20.733461
1536.439602	-2.985600	3.421400	-10.214000	25.960844	0.000662	20.754621
1537.443682	-3.002100	3.420000	-10.266000	25.909191	0.000662	20.744929
1538.440943	-2.985800	3.420600	-10.212000	25.893095	0.000661	20.747725
1539.445328	-2.973700	3.421000	-10.173000	25.850045	0.000659	20.749523
1540.443747	-2.998700	3.419400	-10.253000	25.874142	0.000659	20.748599
1541.442221	-3.005700	3.419200	-10.276000	25.873492	0.000658	20.737515
1542.440699	-2.945900	3.419000	-10.071000	25.870783	0.000658	20.760398
1543.442867	-3.008300	3.418200	-10.282000	25.864598	0.000656	20.738063
1544.442742	-3.014400	3.416400	-10.297000	25.844793	0.000658	20.747091
1545.443337	-2.992200	3.419000	-10.229000	25.862753	0.000656	20.752806
1546.444541	-2.985700	3.418900	-10.207000	25.912509	0.000658	20.744468
1547.444746	-2.988200	3.416600	-10.209000	25.929647	0.000655	20.735133
1548.443034	-3.010600	3.415900	-10.283000	25.945345	0.000655	20.747110
1549.444468	-3.019000	3.416000	-10.312000	25.955532	0.000657	20.755448
1550.446446	-2.991100	3.416800	-10.219000	25.969066	0.000655	20.730163
1551.442860	-3.000900	3.416400	-10.251000	26.014072	0.000655	20.749777
1552.450210	-2.981000	3.415900	-10.181000	26.031209	0.000654	20.732381
1553.444845	-3.011100	3.413900	-10.279000	26.025822	0.000651	20.754944
1554.445189	-3.009200	3.414400	-10.272000	26.004923	0.000652	20.736791
1555.444399	-2.999000	3.414200	-10.238000	25.985382	0.000652	20.728538
1556.446859	-3.007900	3.413800	-10.267000	25.972364	0.000654	20.739641
1557.444846	-2.986500	3.415600	-10.199000	25.926332	0.000651	20.728957
1558.445234	-2.997000	3.413900	-10.231000	25.932517	0.000647	20.730429
1559.445708	-3.026700	3.411400	-10.324000	25.875284	0.000650	20.721770
1560.444472	-3.003700	3.411800	-10.247000	25.859738	0.000649	20.738871
1561.447406	-2.967300	3.414000	-10.129000	25.807118	0.000649	20.745756
1562.444779	-2.990000	3.412000	-10.201000	25.833478	0.000650	20.749002
1563.447131	-3.005000	3.411900	-10.252000	25.840686	0.000648	20.747708
1564.446259	-3.033300	3.410000	-10.342000	25.821683	0.000649	20.730988
1565.449286	-3.004500	3.409600	-10.243000	25.865727	0.000646	20.725446
1566.446693	-2.998300	3.410500	-10.224000	25.892385	0.000647	20.743693
1567.447346	-2.997400	3.409900	-10.219000	25.933993	0.000645	20.763208
1568.448231	-2.986200	3.409000	-10.177000	25.961392	0.000645	20.726721
1569.448051	-3.028300	3.409900	-10.325000	25.968697	0.000644	20.751131
1570.450181	-3.020900	3.407500	-10.293000	25.976298	0.000644	20.753551
1571.451230	-3.012400	3.407300	-10.263000	25.986637	0.000643	20.762991
1572.463840	-2.993200	3.408200	-10.200000	25.974440	0.000644	20.752159
1573.455723	-3.010700	3.407100	-10.257000	25.939864	0.000643	20.740656
1574.451086	-2.995300	3.408000	-10.207000	25.981476	0.000643	20.752590
1575.451736	-2.990600	3.408000	-10.191000	26.020671	0.000643	20.761623
1576.457761	-2.998300	3.406800	-10.214000	26.039426	0.000641	20.738266
1577.453046	-2.996900	3.406700	-10.208000	26.031384	0.000641	20.725444
1578.457053	-2.969200	3.407500	-10.117000	26.049287	0.000640	20.760028
1579.453639	-2.998400	3.405100	-10.208000	26.056917	0.000641	20.756315
1580.452853	-2.985000	3.405300	-10.164000	26.045714	0.000640	20.737471
1581.453391	-3.023300	3.403800	-10.289000	26.070529	0.000640	20.746283
1582.457578	-2.987800	3.404400	-10.171000	26.103562	0.000639	20.736325
1583.454446	-3.003200	3.403600	-10.220000	26.120875	0.000639	20.755618
1584.454471	-3.000400	3.404000	-10.212000	26.129773	0.000637	20.732790
1585.452140	-3.014900	3.402800	-10.258000	26.134191	0.000638	20.743868
1586.452731	-3.011300	3.402700	-10.246000	26.093707	0.000636	20.737329
1587.457219	-2.996400	3.403000	-10.196000	26.109806	0.000635	20.735013
1588.453135	-3.015800	3.400700	-10.256000	26.100742	0.000633	20.736336
1589.456742	-3.004000	3.402600	-10.221000	26.041257	0.000635	20.746269
1590.455344	-3.005000	3.400300	-10.217000	26.049426	0.000633	20.744047
1591.458916	-2.979300	3.402100	-10.134000	26.032566	0.000633	20.746546
1592.457235	-2.996000	3.401000	-10.187000	26.069645	0.000633	20.744921
1593.455552	-3.017700	3.400200	-10.260000	26.076208	0.000633	20.741558
1594.456084	-2.988000	3.400000	-10.158000	26.088080	0.000632	20.737364
1595.456587	-2.994200	3.399000	-10.175000	26.117435	0.000631	20.731773
1596.457225	-2.989300	3.399200	-10.160000	26.094943	0.000630	20.736200
1597.458003	-3.019900	3.397500	-10.258000	26.057337	0.000630	20.730657
1598.459505	-3.007700	3.398600	-10.221000	26.025118	0.000629	20.740960
1599.460779	-2.996000	3.398000	-10.180000	25.962129	0.000632	20.754015
1600.458156	-2.997900	3.397600	-10.185000	25.937715	0.000631	20.741342
1601.457640	-2.981200	3.399200	-10.133000	25.933517	0.000629	20.764151
1602.457563	-2.975500	3.398200	-10.110000	25.911609	0.000629	20.742616
1603.458437	-2.970100	3.396100	-10.086000	25.905670	0.000629	20.745184
1604.456310	-2.972400	3.396500	-10.095000	25.896359	0.000628	20.752900
1605.458066	-2.993400	3.396000	-10.164000	25.935710	0.000628	20.747862
1606.459053	-3.002700	3.395500	-10.193000	25.974957	0.000627	20.744143
1607.459353	-2.994800	3.395100	-10.165000	25.959860	0.000626	20.738933
1608.462018	-2.982900	3.395400	-10.127000	25.994631	0.000628	20.749685
1609.466915	-3.003900	3.393800	-10.194000	26.018755	0.000626	20.737886
1610.459669	-3.010200	3.393500	-10.215000	26.044435	0.000627	20.743299
1611.462004	-2.991400	3.392800	-10.148000	26.042351	0.000623	20.740731
1612.459688	-2.994500	3.393000	-10.160000	26.053456	0.000625	20.764217
1613.462750	-2.998600	3.394200	-10.176000	26.009371	0.000622	20.748847
1614.464888	-3.004000	3.392100	-10.189000	25.966969	0.000624	20.756033
1615.462542	-2.992100	3.393500	-10.152000	25.933239	0.000623	20.753914
1616.467032	-3.007400	3.392100	-10.200000	25.935181	0.000623	20.754444
1617.462555	-2.983100	3.391200	-10.115000	25.945142	0.000625	20.748329
1618.463274	-2.988200	3.391900	-10.134000	25.969855	0.000620	20.741863
1619.464566	-2.984400	3.391000	-10.119000	26.022222	0.000624	20.750853
1620.463342	-3.007700	3.389200	-10.193000	26.001329	0.000620	20.749302
1621.462605	-2.987100	3.391100	-10.129000	25.983057	0.000620	20.767455
1622.462919	-2.994100	3.390500	-10.151000	25.951981	0.000619	20.765158
1623.468420	-3.020000	3.389100	-10.234000	25.922768	0.000618	20.763785
1624.460629	-3.020500	3.388500	-10.234000	25.905256	0.000619	20.761364
1625.466000	-3.020800	3.387200	-10.231000	25.887056	0.000619	20.745451
1626.462245	-3.027700	3.387500	-10.255000	25.866466	0.000619	20.759380
1627.463317	-3.016900	3.387000	-10.216000	25.880399	0.000616	20.732125
1628.462672	-3.008000	3.387800	-10.189000	25.901712	0.000615	20.743105
1629.463650	-2.998700	3.387300	-10.157000	25.867238	0.000615	20.764898
1630.464942	-3.003500	3.387100	-10.172000	25.833008	0.000617	20.746159
1631.464183	-3.016400	3.386200	-10.214000	25.816089	0.000615	20.760458
1632.465607	-3.015300	3.384500	-10.204000	25.802032	0.000613	20.764355
1633.463214	-3.002800	3.385600	-10.164000	25.829955	0.000614	20.765852
1634.467948	-3.024600	3.384800	-10.237000	25.805489	0.000614	20.758819
1635.465594	-2.999600	3.384800	-10.152000	25.805514	0.000613	20.755999
1636.466156	-2.989000	3.385100	-10.116000	25.804545	0.000612	20.740800
1637.463265	-2.988000	3.384700	-10.111000	25.795080	0.000611	20.759743
1638.463255	-2.982300	3.384300	-10.092000	25.812452	0.000613	20.780513
1639.463699	-3.008400	3.382900	-10.175000	25.784504	0.000611	20.754809
1640.463978	-3.012100	3.383500	-10.191000	25.777945	0.000612	20.751539
1641.466158	-3.009800	3.382200	-10.179000	25.773899	0.000610	20.762174
1642.464479	-3.012700	3.382900	-10.190000	25.789997	0.000607	20.763172
1643.471307	-2.990400	3.382100	-10.112000	25.801902	0.000611	20.768966
1644.465293	-3.027000	3.380000	-10.230000	25.849024	0.000609	20.767464
1645.466144	-3.009600	3.381400	-10.176000	25.862221	0.000607	20.766496
1646.465970	-3.023200	3.380200	-10.218000	25.848312	0.000608	20.759636
1647.464802	-3.000600	3.381200	-10.145000	25.843248	0.000606	20.764981
1648.464430	-3.013400	3.380500	-10.186000	25.862723	0.000609	20.776484
1649.469742	-3.006400	3.380400	-10.162000	25.852762	0.000608	20.754149
1650.465047	-3.011300	3.380000	-10.177000	25.888983	0.000608	20.769673
1651.465008	-3.000100	3.378800	-10.135000	25.885483	0.000606	20.773744
1652.466652	-3.005700	3.379700	-10.158000	25.923315	0.000606	20.770024
1653.467537	-2.997600	3.379100	-10.129000	25.920134	0.000606	20.772518
1654.466259	-2.976000	3.378400	-10.053000	25.956727	0.000605	20.782728
1655.466257	-2.997500	3.377700	-10.124000	25.957726	0.000605	20.774248
1656.465408	-3.026100	3.376500	-10.215000	25.953276	0.000605	20.761243
1657.467118	-3.018400	3.375100	-10.187000	25.975458	0.000604	20.791115
1658.468145	-3.007300	3.376700	-10.154000	25.936965	0.000603	20.773305
1659.471456	-2.994200	3.377700	-10.112000	25.890331	0.000601	20.793787
1660.468779	-3.007500	3.376100	-10.152000	25.879451	0.000602	20.774322
1661.467151	-3.021700	3.375200	-10.198000	25.887107	0.000603	20.773952
1662.473814	-3.012400	3.374500	-10.164000	25.928622	0.000601	20.761131
1663.469065	-3.018800	3.375400	-10.189000	25.969407	0.000600	20.784088
1664.473015	-2.996300	3.375200	-10.112000	25.982794	0.000600	20.767665
1665.468611	-2.996600	3.374800	-10.112000	26.050477	0.000600	20.775923
1666.472257	-3.010100	3.373600	-10.154000	26.070426	0.000599	20.771784
1667.473659	-2.979700	3.373900	-10.052000	26.098096	0.000598	20.772086
1668.471561	-2.980900	3.375200	-10.060000	26.082272	0.000599	20.766618
1669.473884	-3.006400	3.373500	-10.141000	26.085876	0.000596	20.784938
1670.475380	-3.001100	3.373700	-10.124000	26.101773	0.000597	20.810394
1671.476468	-2.992600	3.372800	-10.093000	26.115360	0.000597	20.784691
1672.478538	-3.028200	3.371900	-10.210000	26.140272	0.000597	20.774161
1673.480703	-3.031500	3.371300	-10.219000	26.128769	0.000596	20.787259
1674.479185	-3.005800	3.371000	-10.132000	26.152644	0.000595	20.791809
1675.476714	-3.013900	3.371000	-10.158000	26.159796	0.000594	20.761062
1676.474903	-3.016300	3.371100	-10.168000	26.134320	0.000595	20.774345
1677.476089	-3.007500	3.370500	-10.136000	26.127261	0.000593	20.779105
1678.481198	-3.030900	3.369700	-10.212000	26.170649	0.000594	20.794254
1679.476310	-3.022000	3.369000	-10.179000	26.160096	0.000596	20.803564
1680.480453	-3.012500	3.368600	-10.147000	26.157854	0.000593	20.792776
1681.478851	-3.007300	3.369000	-10.130000	26.156144	0.000592	20.788687
1682.476770	-3.016700	3.367100	-10.156000	26.109727	0.000589	20.795153
1683.480002	-3.006400	3.369600	-10.130000	26.085789	0.000591	20.788644
1684.480063	-3.005200	3.368100	-10.120000	26.114648	0.000589	20.787295
1685.478115	-3.024700	3.366600	-10.181000	26.132157	0.000589	20.793508
1686.478262	-2.999700	3.368500	-10.103000	26.102673	0.000591	20.814143
1687.476589	-2.990000	3.365800	-10.064000	26.139530	0.000588	20.809925
1688.476387	-3.009600	3.365200	-10.127000	26.116830	0.000589	20.792332
1689.480622	-2.995800	3.367100	-10.086000	26.120777	0.000587	20.790134
1690.476423	-2.994200	3.365200	-10.075000	26.100663	0.000588	20.808330
1691.479306	-2.981100	3.366600	-10.036000	26.092739	0.000585	20.797998
1692.477807	-3.009000	3.366000	-10.127000	26.125870	0.000587	20.807105
1693.480585	-2.979500	3.365700	-10.027000	26.140400	0.000584	20.791834
1694.482716	-2.995100	3.365600	-10.080000	26.170924	0.000585	20.808281
1695.480956	-2.982000	3.365100	-10.034000	26.167799	0.000585	20.814149
1696.482896	-2.996700	3.363900	-10.080000	26.182495	0.000585	20.802364
1697.483344	-2.991200	3.365400	-10.067000	26.220562	0.000584	20.806477
1698.484710	-2.959600	3.365300	-9.959300	26.232541	0.000582	20.806661
1699.483476	-3.011200	3.361700	-10.121000	26.228466	0.000583	20.815369
1700.488229	-3.015300	3.362400	-10.138000	26.200008	0.000581	20.806212
1701.485201	-3.022000	3.361400	-10.157000	26.195314	0.000581	20.792486
1702.490390	-2.994100	3.363200	-10.070000	26.189695	0.000581	20.814341
1703.490104	-3.006400	3.361300	-10.105000	26.178671	0.000578	20.798995
1704.486131	-3.010000	3.359900	-10.112000	26.204910	0.000579	20.797387
1705.487898	-3.027000	3.361400	-10.173000	26.221271	0.000581	20.813829
1706.493449	-3.007600	3.360900	-10.105000	26.233815	0.000578	20.811735
1707.487533	-3.018900	3.361200	-10.146000	26.224476	0.000579	20.796186
1708.487859	-3.003300	3.360400	-10.091000	26.215713	0.000579	20.805872
1709.487046	-3.012600	3.358700	-10.118000	26.181489	0.000578	20.818896
1710.487742	-3.006200	3.359700	-10.099000	26.172002	0.000579	20.812683
1711.487344	-2.993300	3.359000	-10.053000	26.157282	0.000578	20.811642
1712.487466	-3.019900	3.357200	-10.136000	26.125488	0.000577	20.804351
1713.488886	-2.991200	3.359400	-10.047000	26.060072	0.000579	20.813538
1714.488238	-2.987600	3.358900	-10.034000	26.051154	0.000578	20.824493
1715.490634	-2.986200	3.357500	-10.025000	26.039823	0.000577	20.828280
1716.488602	-2.996000	3.356600	-10.055000	26.058429	0.000577	20.820423
1717.489233	-2.991500	3.356300	-10.040000	26.111853	0.000574	20.798711
1718.490926	-3.013400	3.355700	-10.111000	26.136091	0.000576	20.805047
1719.492934	-2.998200	3.355900	-10.060000	26.177468	0.000574	20.813434
1720.490088	-3.026500	3.355400	-10.153000	26.224850	0.000576	20.813157
1721.496655	-3.013800	3.355100	-10.110000	26.252241	0.000575	20.831199
1722.491739	-3.005700	3.355400	-10.084000	26.279656	0.000573	20.822714
1723.495650	-2.977300	3.354800	-9.987000	26.328926	0.000571	20.818176
1724.495157	-2.986300	3.354100	-10.015000	26.311524	0.000573	20.822498
1725.493237	-3.012000	3.353900	-10.101000	26.342853	0.000572	20.833595
1726.496481	-2.983700	3.353500	-10.004000	26.366246	0.000572	20.812535
1727.498054	-2.977600	3.353400	-9.983800	26.334306	0.000571	20.817893
1728.495134	-3.000500	3.353700	-10.061000	26.329962	0.000571	20.828700
1729.494198	-3.008100	3.352300	-10.083000	26.306206	0.000570	20.835171
1730.494597	-3.013000	3.353100	-10.102000	26.330783	0.000568	20.816723
1731.500380	-3.014200	3.351500	-10.101000	26.338601	0.000571	20.819839
1732.501572	-2.986300	3.352900	-10.012000	26.342651	0.000569	20.822961
1733.496283	-2.989600	3.351900	-10.020000	26.398100	0.000568	20.847868
1734.498239	-2.996400	3.350600	-10.039000	26.389584	0.000567	20.809912
1735.495632	-2.995700	3.350800	-10.037000	26.378365	0.000566	20.843680
1736.498015	-3.002500	3.351000	-10.061000	26.384443	0.000566	20.831772
1737.502065	-3.000200	3.350200	-10.051000	26.418833	0.000567	20.838835
1738.496146	-2.988500	3.349000	-10.007000	26.450018	0.000564	20.821815
1739.497686	-2.997300	3.349900	-10.039000	26.449546	0.000564	20.837936
1740.495473	-3.008500	3.347800	-10.070000	26.461339	0.000566	20.841255
1741.496356	-3.011700	3.347700	-10.081000	26.416750	0.000564	20.841956
1742.496330	-3.005100	3.348000	-10.060000	26.407015	0.000562	20.826957
1743.496591	-2.992200	3.348200	-10.017000	26.424917	0.000563	20.851587
1744.496627	-2.999200	3.348200	-10.041000	26.436735	0.000563	20.818422
1745.497591	-3.017300	3.348400	-10.102000	26.461885	0.000562	20.831846
1746.497542	-3.007700	3.347000	-10.066000	26.486592	0.000561	20.832498
1747.497541	-3.006800	3.347900	-10.065000	26.493840	0.000559	20.837886
1748.502400	-2.976900	3.347300	-9.963100	26.515141	0.000560	20.862141
1749.497879	-2.996300	3.346600	-10.025000	26.513205	0.000560	20.844549
1750.503005	-3.014700	3.344800	-10.082000	26.490636	0.000559	20.858847
1751.503723	-2.993800	3.345600	-10.015000	26.490391	0.000560	20.837739
1752.499784	-2.991600	3.345900	-10.008000	26.472563	0.000557	20.836415
1753.501722	-2.966300	3.346100	-9.924000	26.455231	0.000559	20.859296
1754.501734	-3.003600	3.344800	-10.046000	26.445772	0.000559	20.839358
1755.501753	-2.979500	3.346000	-9.968900	26.476263	0.000557	20.843927
1756.504817	-2.991800	3.343200	-10.001000	26.484007	0.000555	20.843176
1757.512071	-3.014100	3.342900	-10.075000	26.519962	0.000555	20.837116
1758.503311	-3.005000	3.342900	-10.044000	26.527466	0.000556	20.858409
1759.506307	-3.002700	3.342800	-10.037000	26.499255	0.000553	20.847597
1760.503263	-3.002500	3.343300	-10.038000	26.489575	0.000554	20.859678
1761.505531	-2.986300	3.341200	-9.977000	26.476324	0.000555	20.862953
1762.505774	-2.972900	3.342500	-9.935900	26.427980	0.000555	20.846605
1763.505445	-2.985200	3.342300	-9.976300	26.436992	0.000554	20.856137
1764.509593	-3.003900	3.339800	-10.032000	26.456633	0.000553	20.867817
1765.504986	-2.989700	3.340000	-9.983900	26.429302	0.000553	20.854098
1766.504555	-3.010200	3.339300	-10.051000	26.390067	0.000553	20.863975
1767.510082	-2.980200	3.341000	-9.956700	26.389055	0.000552	20.854424
1768.505793	-2.983400	3.340400	-9.965000	26.417558	0.000549	20.842294
1769.508117	-2.994400	3.339200	-9.997700	26.429701	0.000551	20.872515
1770.507474	-2.973100	3.339500	-9.928100	26.471612	0.000550	20.860114
1771.505276	-3.009600	3.337600	-10.044000	26.459175	0.000549	20.852355
1772.505130	-3.001300	3.338000	-10.017000	26.470699	0.000547	20.886221
1773.506639	-2.993000	3.337800	-9.989200	26.454886	0.000545	20.859898
1774.507069	-3.011600	3.336600	-10.047000	26.428744	0.000545	20.855433
1775.509242	-3.011300	3.337200	-10.048000	26.425613	0.000545	20.845649
1776.507477	-3.018300	3.337100	-10.071000	26.411932	0.000548	20.863666
1777.509995	-2.984900	3.336200	-9.956700	26.398232	0.000543	20.870285
1778.505818	-3.030100	3.334500	-10.103000	26.407215	0.000543	20.862718
1779.505975	-3.022200	3.335600	-10.080000	26.405407	0.000543	20.886504
1780.509293	-3.011600	3.334600	-10.042000	26.368358	0.000542	20.877243
1781.509975	-3.012900	3.334100	-10.044000	26.348543	0.000541	20.870131
1782.508655	-2.998500	3.333700	-9.995100	26.320265	0.000540	20.881066
1783.507212	-3.016500	3.333900	-10.055000	26.374938	0.000541	20.873900
1784.508471	-3.019100	3.332500	-10.060000	26.412214	0.000541	20.881017
1785.510190	-3.004600	3.332500	-10.012000	26.441836	0.000540	20.859583
1786.510911	-3.014300	3.332800	-10.045000	26.477192	0.000540	20.878523
1787.509525	-2.994900	3.332600	-9.979300	26.498621	0.000540	20.864977
1788.512189	-3.021900	3.332200	-10.068000	26.503914	0.000536	20.858917
1789.508046	-3.031400	3.331300	-10.098000	26.498106	0.000539	20.880105
1790.508027	-3.003300	3.333100	-10.009000	26.526409	0.000537	20.863037
1791.513677	-3.031700	3.331500	-10.099000	26.523977	0.000536	20.877186
1792.507833	-3.014100	3.330500	-10.037000	26.512184	0.000535	20.885246
1793.509978	-3.024800	3.329600	-10.070000	26.478024	0.000537	20.869877
1794.509638	-3.023200	3.330700	-10.069000	26.444806	0.000536	20.851663
1795.510718	-3.017800	3.328600	-10.044000	26.436786	0.000535	20.855930
1796.509656	-3.023600	3.328400	-10.064000	26.449652	0.000535	20.863645
1797.512231	-3.015700	3.329600	-10.040000	26.466095	0.000534	20.861681
1798.510654	-3.022400	3.327900	-10.057000	26.458866	0.000534	20.855837
1799.512725	-2.986300	3.328600	-9.938300	26.463761	0.000533	20.851274
1800.510162	-3.000700	3.327800	-9.985200	26.434071	0.000532	20.847512
1801.509533	-3.013100	3.326800	-10.023000	26.435713	0.000534	20.862912
1802.514909	-3.021000	3.327400	-10.051000	26.454411	0.000532	20.857998
1803.510629	-2.999200	3.327800	-9.979900	26.454332	0.000530	20.853177
1804.512013	-2.996700	3.327200	-9.969800	26.470873	0.000531	20.861741
1805.510839	-2.998200	3.328200	-9.977200	26.443187	0.000530	20.866631
1806.514702	-3.002700	3.326100	-9.987000	26.481079	0.000530	20.848293
1807.511661	-3.018600	3.325900	-10.037000	26.461193	0.000528	20.873348
1808.511934	-2.996700	3.327400	-9.970000	26.444829	0.000529	20.842678
1809.511200	-2.998400	3.326200	-9.972600	26.432073	0.000529	20.848822
1810.510853	-2.988500	3.325000	-9.935800	26.439719	0.000528	20.839438
1811.511894	-3.005500	3.324600	-9.990900	26.451641	0.000527	20.849998
1812.511035	-3.021400	3.323800	-10.041000	26.413454	0.000527	20.820152
1813.513379	-2.983000	3.324600	-9.917000	26.385871	0.000525	20.858335
1814.510877	-3.005500	3.324100	-9.989700	26.370602	0.000524	20.814068
1815.513274	-3.014600	3.323000	-10.016000	26.326639	0.000524	20.856653
1816.521607	-2.991000	3.323800	-9.940200	26.389534	0.000525	20.846845
1817.511613	-2.997800	3.322600	-9.958600	26.427667	0.000525	20.854351
1818.513618	-3.010200	3.322100	-9.998900	26.421540	0.000523	20.851512
1819.511790	-2.997100	3.322300	-9.956400	26.440514	0.000522	20.844979
1820.512110	-3.002200	3.321200	-9.969900	26.416307	0.000521	20.834874
1821.512455	-3.001800	3.321200	-9.968600	26.426790	0.000521	20.833082
1822.513256	-3.008400	3.320700	-9.989500	26.376960	0.000522	20.838001
1823.513070	-3.017000	3.319900	-10.014000	26.403109	0.000520	20.851954
1824.516741	-3.019900	3.318800	-10.022000	26.424541	0.000520	20.838881
1825.515388	-2.996300	3.318900	-9.943400	26.440610	0.000519	20.827533
1826.515043	-2.999000	3.320400	-9.957100	26.429441	0.000518	20.813936
1827.516738	-2.998600	3.319600	-9.952900	26.407342	0.000518	20.817803
1828.516150	-3.018900	3.318000	-10.015000	26.359675	0.000519	20.854293
1829.520518	-2.971000	3.319500	-9.861600	26.346936	0.000517	20.837224
1830.517928	-3.000800	3.318500	-9.955900	26.331073	0.000516	20.804687
1831.519672	-2.985400	3.318800	-9.906800	26.368625	0.000516	20.813504
1832.518245	-3.018900	3.317400	-10.013000	26.407213	0.000515	20.827630
1833.519036	-3.023600	3.316600	-10.027000	26.455362	0.000515	20.815332
1834.521649	-2.982200	3.316800	-9.890100	26.486870	0.000515	20.812863
1835.521131	-2.991100	3.317000	-9.919800	26.547402	0.000515	20.833405
1836.519537	-2.996900	3.318200	-9.943500	26.559028	0.000515	20.822333
1837.519157	-3.006200	3.316200	-9.967800	26.562006	0.000515	20.824377
1838.520740	-3.021600	3.314200	-10.013000	26.574551	0.000514	20.827979
1839.520770	-2.998300	3.314000	-9.935600	26.549557	0.000512	20.805700
1840.526850	-2.991400	3.315800	-9.917600	26.554948	0.000514	20.821076
1841.523014	-2.992700	3.313600	-9.915800	26.564082	0.000513	20.855860
1842.528427	-3.009400	3.313200	-9.969000	26.575138	0.000512	20.796802
1843.524070	-2.991300	3.313600	-9.910900	26.585068	0.000510	20.828594
1844.523001	-3.001900	3.313900	-9.947300	26.606312	0.000511	20.806802
1845.526278	-3.006200	3.312800	-9.957900	26.548031	0.000510	20.832615
1846.524263	-3.021600	3.310700	-10.002000	26.498458	0.000509	20.810761
1847.523266	-3.003700	3.311300	-9.944700	26.480606	0.000508	20.826956
1848.523606	-3.013500	3.311000	-9.976400	26.507887	0.000507	20.827350
1849.522712	-2.981000	3.311900	-9.871100	26.534186	0.000508	20.797836
1850.524176	-3.000400	3.310700	-9.932600	26.570280	0.000507	20.812307
1851.525494	-3.007700	3.311900	-9.959600	26.592498	0.000507	20.819942
1852.523384	-2.993400	3.310400	-9.907700	26.564080	0.000505	20.805600
1853.524902	-3.001900	3.309800	-9.934500	26.535901	0.000504	20.814732
1854.523245	-3.001300	3.310600	-9.934800	26.501049	0.000506	20.814788
1855.523379	-3.002400	3.308500	-9.932100	26.454274	0.000504	20.805705
1856.527486	-2.992100	3.309200	-9.900300	26.445826	0.000506	20.809067
1857.524930	-2.960400	3.310100	-9.797900	26.432844	0.000502	20.786536
1858.525536	-2.998600	3.308800	-9.921000	26.466196	0.000503	20.809153
1859.526001	-2.994300	3.308300	-9.905100	26.465615	0.000503	20.796241
1860.525135	-3.004700	3.307000	-9.935400	26.454623	0.000501	20.810323
1861.526423	-2.999200	3.307500	-9.917800	26.467311	0.000502	20.820705
1862.526195	-3.020000	3.305900	-9.981900	26.442903	0.000498	20.809923
1863.525490	-2.964800	3.307300	-9.804600	26.441169	0.000501	20.820982
1864.525893	-3.009200	3.306200	-9.948100	26.408722	0.000498	20.803543
1865.527053	-3.009900	3.306700	-9.951400	26.388883	0.000499	20.797829
1866.526655	-2.970500	3.306400	-9.819700	26.363481	0.000499	20.796480
1867.527203	-2.993800	3.306200	-9.897200	26.349131	0.000498	20.797231
1868.527575	-3.021700	3.303700	-9.980500	26.372849	0.000501	20.810162
1869.535165	-3.006000	3.304600	-9.932700	26.441953	0.000497	20.816080
1870.527946	-2.988000	3.305000	-9.873600	26.475152	0.000497	20.810094
1871.526999	-3.003900	3.304200	-9.924700	26.492576	0.000496	20.826185
1872.528454	-2.990900	3.304200	-9.882000	26.533988	0.000497	20.810913
1873.529395	-2.991900	3.303900	-9.884300	26.568404	0.000496	20.797144
1874.527880	-3.026300	3.302000	-9.991800	26.585930	0.000495	20.798167
1875.528091	-2.984900	3.304500	-9.862700	26.598861	0.000496	20.799786
1876.529341	-3.002100	3.302100	-9.911900	26.551894	0.000494	20.800938
1877.530197	-2.992700	3.301300	-9.878700	26.546589	0.000495	20.792285
1878.530254	-2.994100	3.302000	-9.884500	26.526330	0.000495	20.799897
1879.530102	-2.997200	3.300400	-9.890900	26.497182	0.000493	20.782451
1880.530963	-2.986100	3.300900	-9.855700	26.462972	0.000493	20.800697
1881.531203	-2.986200	3.301600	-9.857700	26.466323	0.000488	20.787470
1882.533947	-3.024900	3.299900	-9.981000	26.458457	0.000491	20.798055
1883.535422	-2.997000	3.299900	-9.888800	26.533963	0.000491	20.771533
1884.530767	-2.999600	3.300000	-9.897700	26.563901	0.000488	20.791669
1885.532664	-2.998400	3.299400	-9.891600	26.609188	0.000489	20.784089
1886.530727	-2.995300	3.298900	-9.879700	26.626762	0.000488	20.786583
1887.532712	-3.004800	3.298500	-9.909800	26.580740	0.000486	20.800536
1888.535531	-3.013600	3.297000	-9.934700	26.562993	0.000485	20.781274
1889.533864	-2.993900	3.297700	-9.872300	26.584244	0.000486	20.774186
1890.533262	-2.970400	3.299600	-9.799000	26.618854	0.000484	20.788590
1891.533689	-2.986500	3.297900	-9.848800	26.612851	0.000485	20.782081
1892.534962	-2.979600	3.297300	-9.824100	26.610909	0.000486	20.794828
1893.535563	-2.971300	3.298300	-9.799600	26.617616	0.000484	20.760793
1894.535635	-3.024000	3.296200	-9.967300	26.660035	0.000484	20.799169
1895.536468	-3.008900	3.295900	-9.916600	26.672904	0.000483	20.782709
1896.537307	-2.993200	3.295700	-9.863800	26.693883	0.000482	20.785307
1897.534727	-2.991500	3.295100	-9.856200	26.715682	0.000481	20.789679
1898.534366	-2.997900	3.295000	-9.876900	26.726205	0.000480	20.780818
1899.545982	-2.977200	3.295700	-9.811200	26.751604	0.000479	20.790233
1900.535603	-2.967000	3.295500	-9.775100	26.746833	0.000480	20.788281
1901.541994	-3.033400	3.293200	-9.988500	26.721592	0.000479	20.788035
1902.537563	-2.987400	3.293500	-9.837400	26.756369	0.000479	20.777480
1903.536715	-2.991500	3.292500	-9.848300	26.763394	0.000477	20.774112
1904.534632	-3.016800	3.291800	-9.929800	26.759052	0.000477	20.786815
1905.541424	-3.010700	3.291500	-9.909300	26.776207	0.000475	20.789365
1906.537624	-3.007000	3.291900	-9.897500	26.768594	0.000477	20.782658
1907.537834	-2.996300	3.292400	-9.864200	26.753098	0.000475	20.775614
1908.536104	-3.012900	3.289900	-9.910700	26.773132	0.000475	20.775367
1909.536378	-3.025300	3.290400	-9.953500	26.803492	0.000474	20.770330
1910.540947	-2.990900	3.290600	-9.839800	26.788229	0.000473	20.816151
1911.536245	-3.020700	3.289800	-9.936900	26.747475	0.000473	20.792246
1912.535000	-3.008000	3.289700	-9.894200	26.741565	0.000474	20.767337
1913.541047	-2.992900	3.291400	-9.849600	26.765972	0.000472	20.772436
1914.538011	-2.985600	3.288600	-9.816600	26.767019	0.000471	20.780127
1915.539459	-3.006800	3.290000	-9.891200	26.781039	0.000470	20.781420
1916.539410	-3.002200	3.289000	-9.872700	26.739690	0.000471	20.771617
1917.538997	-3.000000	3.288700	-9.864500	26.752448	0.000472	20.769745
1918.539786	-3.010400	3.286700	-9.893300	26.754708	0.000471	20.773914
1919.542413	-3.012900	3.287100	-9.901900	26.787751	0.000470	20.772522
1920.539281	-2.997800	3.287900	-9.855500	26.795897	0.000468	20.769806
1921.543030	-3.005500	3.284800	-9.871300	26.807956	0.000469	20.777663
1922.540638	-3.002700	3.286600	-9.867900	26.818680	0.000468	20.782756
1923.540798	-3.010000	3.284700	-9.885700	26.807986	0.000467	20.781013
1924.541531	-2.988400	3.285700	-9.818100	26.766510	0.000469	20.776296
1925.541303	-3.008800	3.285600	-9.884200	26.776518	0.000467	20.757908
1926.546368	-3.029100	3.282900	-9.942500	26.758273	0.000466	20.760901
1927.543133	-3.009000	3.284100	-9.880700	26.796925	0.000463	20.764676
1928.543205	-3.011400	3.284000	-9.888100	26.811563	0.000464	20.768014
1929.542392	-3.015300	3.283300	-9.898300	26.826892	0.000465	20.772521
1930.543358	-3.000200	3.284500	-9.852500	26.821668	0.000463	20.770588
1931.542690	-3.004100	3.283300	-9.861200	26.785588	0.000463	20.776037
1932.545679	-2.975400	3.283200	-9.768400	26.800232	0.000463	20.784597
1933.542069	-3.017100	3.281100	-9.897500	26.796037	0.000463	20.759041
1934.544981	-2.986100	3.281900	-9.798800	26.766063	0.000462	20.755931
1935.545016	-2.973400	3.281900	-9.755100	26.791774	0.000460	20.760919
1936.542206	-2.998300	3.281400	-9.836600	26.815476	0.000461	20.765784
1937.546347	-3.005400	3.281100	-9.859800	26.786286	0.000462	20.759669
1938.542189	-2.987900	3.280200	-9.800100	26.843568	0.000459	20.759417
1939.545037	-2.991200	3.280200	-9.811100	26.825734	0.000460	20.768512
1940.545205	-3.018500	3.278700	-9.895500	26.826432	0.000457	20.751195
1941.556183	-2.999200	3.278600	-9.832100	26.816823	0.000457	20.762397
1942.546582	-3.016500	3.278300	-9.887800	26.825679	0.000457	20.755654
1943.551656	-3.038100	3.277900	-9.957900	26.846379	0.000456	20.772200
1944.546102	-3.011700	3.278600	-9.873400	26.871103	0.000454	20.777145
1945.546987	-2.987100	3.279400	-9.795300	26.882665	0.000454	20.761270
1946.554543	-3.004600	3.277000	-9.845600	26.911607	0.000454	20.751017
1947.549348	-2.994400	3.278500	-9.814900	26.901135	0.000453	20.757557
1948.552250	-2.991000	3.277600	-9.802100	26.884704	0.000453	20.755260
1949.550496	-2.991300	3.277300	-9.802400	26.902892	0.000451	20.763592
1950.548836	-3.000900	3.275200	-9.827800	26.901404	0.000451	20.737438
1951.549945	-3.000700	3.276200	-9.829500	26.925208	0.000452	20.779867
1952.551476	-2.994100	3.275500	-9.806600	26.938986	0.000450	20.768117
1953.555177	-3.022500	3.273400	-9.892100	26.954963	0.000449	20.745302
1954.550891	-3.005600	3.275200	-9.842500	26.973328	0.000450	20.755709
1955.552538	-3.014500	3.274000	-9.868800	27.001220	0.000448	20.759102
1956.552186	-3.006500	3.273000	-9.839200	26.988269	0.000448	20.751768
1957.553614	-2.996000	3.274900	-9.810500	27.000552	0.000447	20.760802
1958.556909	-2.989700	3.273200	-9.784700	27.004049	0.000446	20.752938
1959.555568	-2.996300	3.272200	-9.803300	27.012787	0.000446	20.763622
1960.555351	-2.997400	3.273300	-9.810500	27.008170	0.000446	20.743806
1961.553803	-3.015200	3.271900	-9.864800	26.964442	0.000443	20.749619
1962.553004	-3.005600	3.272000	-9.831800	26.929550	0.000444	20.723539
1963.555107	-3.007300	3.270900	-9.835300	26.844297	0.000445	20.751140
1964.554059	-3.005900	3.271200	-9.831600	26.784412	0.000441	20.758258
1965.554414	-3.009700	3.271800	-9.845900	26.752686	0.000441	20.760974
1966.555872	-3.010500	3.271500	-9.847900	26.737478	0.000440	20.744735
1967.556795	-2.987900	3.270900	-9.772300	26.737839	0.000440	20.737038
1968.552742	-2.993200	3.269900	-9.786800	26.771226	0.000440	20.755906
1969.553976	-2.990200	3.269400	-9.774900	26.810276	0.000439	20.757236
1970.552335	-3.008800	3.270400	-9.839400	26.818660	0.000440	20.759977
1971.552345	-2.991900	3.268200	-9.777200	26.852981	0.000439	20.728577
1972.552225	-3.005700	3.267900	-9.820700	26.873209	0.000437	20.765039
1973.551420	-2.992300	3.268100	-9.778100	26.864703	0.000438	20.751269
1974.554832	-2.985300	3.268900	-9.757600	26.862860	0.000437	20.740881
1975.558170	-2.993100	3.267500	-9.777900	26.877533	0.000436	20.744729
1976.556849	-3.008800	3.267000	-9.828400	26.907442	0.000436	20.725017
1977.554924	-3.003300	3.266400	-9.807400	26.955734	0.000435	20.741336
1978.554878	-3.003800	3.266000	-9.808400	26.970449	0.000435	20.737167
1979.555625	-3.006200	3.266200	-9.818200	26.963328	0.000435	20.727634
1980.556740	-2.998100	3.264200	-9.785700	26.949997	0.000436	20.735566
1981.556516	-2.978300	3.265200	-9.723700	26.884331	0.000433	20.746349
1982.555990	-2.981800	3.263400	-9.729500	26.839287	0.000434	20.730455
1983.558481	-2.963700	3.265300	-9.676400	26.828778	0.000431	20.730320
1984.556453	-2.989400	3.263800	-9.755700	26.822372	0.000433	20.717240
1985.556084	-3.008200	3.262400	-9.813300	26.788069	0.000432	20.732062
1986.561471	-2.994900	3.264300	-9.775300	26.790923	0.000427	20.742519
1987.556855	-3.010200	3.263400	-9.822400	26.791689	0.000428	20.738073
1988.558901	-3.000500	3.262300	-9.786700	26.812910	0.000429	20.715312
1989.557831	-3.008400	3.260800	-9.808800	26.830775	0.000429	20.750820
1990.559155	-3.023200	3.260800	-9.857600	26.812304	0.000427	20.754534
1991.561877	-2.988700	3.260300	-9.743800	26.819892	0.000427	20.731817
1992.561722	-3.010000	3.259500	-9.810000	26.836986	0.000428	20.758014
1993.560479	-3.002400	3.261300	-9.789600	26.873719	0.000425	20.742791
1994.560635	-3.000000	3.260700	-9.780500	26.881588	0.000425	20.724624
1995.560622	-3.000600	3.258800	-9.777700	26.874637	0.000424	20.724747
1996.561553	-2.992500	3.259100	-9.751800	26.909177	0.000425	20.717752
1997.559458	-3.002400	3.259800	-9.786500	26.925503	0.000423	20.743653
1998.562062	-3.002100	3.258300	-9.780700	26.950936	0.000420	20.730820
1999.560318	-2.979100	3.258100	-9.705100	26.979404	0.000421	20.738585
2000.560318	-3.007400	3.258300	-9.797900	27.010419	0.000418	20.733265
2001.559892	-3.003000	3.257200	-9.780300	27.048983	0.000418	20.749288
2002.563519	-3.015400	3.255200	-9.814000	27.047134	0.000418	20.744583
2003.563310	-2.998500	3.257900	-9.767800	27.046179	0.000417	20.736984
2004.561371	-3.002400	3.255500	-9.772200	27.058456	0.000415	20.717087
2005.562207	-2.999300	3.255400	-9.761600	27.083989	0.000414	20.733284
2006.562220	-3.003800	3.255400	-9.778000	27.041881	0.000413	20.723652
2007.566597	-2.997400	3.254500	-9.753800	27.014706	0.000413	20.736153
2008.562960	-2.999300	3.254300	-9.759300	27.020290	0.000414	20.725647
2009.568075	-3.027900	3.253500	-9.850300	27.022054	0.000411	20.730740
2010.564157	-2.999500	3.253800	-9.758500	27.051212	0.000412	20.735882
2011.563034	-3.005900	3.254000	-9.780000	27.040840	0.000411	20.745366
2012.565025	-3.006600	3.252000	-9.775400	27.046271	0.000408	20.740870
2013.565522	-3.012100	3.253000	-9.796700	27.070641	0.000409	20.742619
2014.564333	-3.002400	3.251600	-9.761900	27.053692	0.000408	20.742644
2015.562723	-2.985200	3.252000	-9.706400	27.067738	0.000408	20.727372
2016.564856	-2.984200	3.252800	-9.705600	27.068130	0.000408	20.735827
2017.564427	-3.001600	3.250200	-9.753500	27.050692	0.000407	20.737255
2018.567018	-3.016900	3.250500	-9.804600	27.035157	0.000406	20.743444
2019.565094	-3.006700	3.249800	-9.770000	27.065981	0.000405	20.724181
2020.567085	-2.980500	3.250700	-9.687600	27.037019	0.000404	20.714495
2021.565938	-2.996700	3.250100	-9.738700	27.031704	0.000405	20.719107
2022.566351	-3.010900	3.249200	-9.782400	27.049773	0.000403	20.704087
2023.569508	-2.978300	3.250500	-9.679800	27.062778	0.000401	20.727599
2024.570716	-3.007600	3.247800	-9.766800	27.060146	0.000402	20.723055
2025.569521	-2.973300	3.248600	-9.657800	27.094269	0.000400	20.710904
2026.569788	-2.987500	3.247700	-9.701200	27.115239	0.000400	20.734367
2027.570503	-2.988600	3.247300	-9.703800	27.118117	0.000399	20.761444
2028.570509	-2.993600	3.246900	-9.718600	27.146507	0.000398	20.742108
2029.573041	-2.989200	3.246300	-9.702000	27.144861	0.000397	20.713423
2030.570578	-3.014900	3.245500	-9.783800	27.169405	0.000399	20.711083
2031.571363	-3.001700	3.247200	-9.746600	27.177322	0.000398	20.718571
2032.569907	-2.980200	3.247300	-9.677000	27.208239	0.000396	20.721693
2033.569064	-2.999600	3.245000	-9.732700	27.215114	0.000396	20.746628
2034.569698	-3.011500	3.244900	-9.770400	27.169062	0.000394	20.723541
2035.571304	-2.994100	3.245300	-9.715400	27.196411	0.000396	20.733504
2036.573170	-3.015500	3.243200	-9.778700	27.155813	0.000395	20.727759
2037.574286	-2.994300	3.244100	-9.713100	27.140513	0.000393	20.720430
2038.574459	-3.005300	3.242600	-9.743700	27.085519	0.000393	20.734348
2039.574640	-3.007800	3.242000	-9.750700	27.048009	0.000393	20.736928
2040.575192	-2.986500	3.242200	-9.682100	26.998796	0.000391	20.739595
2041.571044	-2.987700	3.242300	-9.685700	26.973537	0.000392	20.711821
2042.571069	-2.982800	3.241600	-9.667800	26.944597	0.000391	20.751474
2043.572120	-2.987500	3.240600	-9.680200	26.982545	0.000389	20.738899
2044.576467	-2.964500	3.241900	-9.609100	27.008030	0.000389	20.753623
2045.574642	-2.982400	3.240400	-9.662600	27.069519	0.000389	20.754294
2046.572125	-3.019900	3.240300	-9.783500	27.127337	0.000387	20.737051
2047.576607	-2.999500	3.239900	-9.716800	27.144805	0.000387	20.731860
2048.572380	-3.028900	3.237400	-9.803400	27.174682	0.000388	20.747212
2049.571706	-2.997200	3.237200	-9.701700	27.179170	0.000384	20.752675
2050.576199	-3.020900	3.237400	-9.778500	27.210112	0.000383	20.732587
2051.573322	-3.021600	3.236700	-9.779000	27.235984	0.000386	20.727790
2052.571898	-3.016400	3.236400	-9.761500	27.187912	0.000384	20.743924
2053.572192	-3.006800	3.236000	-9.728000	27.184974	0.000384	20.741916
2054.571618	-2.991300	3.237600	-9.682800	27.154607	0.000381	20.733658
2055.581930	-2.977500	3.235300	-9.631500	27.153089	0.000380	20.738770
2056.578508	-3.006800	3.235600	-9.728200	27.172993	0.000380	20.728442
2057.574500	-2.990600	3.236400	-9.677000	27.204253	0.000378	20.741393
2058.574568	-3.011400	3.234700	-9.739600	27.190901	0.000380	20.733652
2059.573834	-3.005200	3.235700	-9.722300	27.152115	0.000377	20.752016
2060.580097	-3.016600	3.233500	-9.754300	27.182489	0.000378	20.737994
2061.577448	-2.998300	3.234100	-9.695700	27.189737	0.000378	20.741017
2062.575121	-3.020100	3.230900	-9.755600	27.220000	0.000376	20.719298
2063.575732	-2.991400	3.233100	-9.670500	27.261335	0.000377	20.752342
2064.576070	-3.006400	3.231600	-9.714200	27.248327	0.000374	20.755379
2065.575101	-2.980200	3.232900	-9.633400	27.256640	0.000374	20.736239
2066.575935	-3.013500	3.230500	-9.734300	27.277895	0.000375	20.730592
2067.577538	-3.003200	3.229600	-9.697900	27.290377	0.000374	20.745045
2068.575254	-3.019500	3.230800	-9.754500	27.286576	0.000372	20.740273
2069.577251	-3.008900	3.229600	-9.715500	27.290121	0.000375	20.732458
2070.577424	-3.020500	3.229800	-9.754400	27.304262	0.000372	20.749529
2071.577362	-2.993000	3.229500	-9.664800	27.307433	0.000373	20.721423
2072.580733	-3.015900	3.229000	-9.737500	27.275772	0.000370	20.747423
2073.576267	-2.995200	3.228000	-9.667800	27.284079	0.000371	20.749616
2074.578783	-3.010300	3.227400	-9.714200	27.284624	0.000370	20.749689
2075.577927	-3.008800	3.228000	-9.711000	27.319818	0.000368	20.764703
2076.580338	-3.018400	3.227800	-9.741100	27.325921	0.000366	20.754721
2077.579597	-2.996100	3.226400	-9.665400	27.353926	0.000366	20.750651
2078.577064	-3.009200	3.225900	-9.705100	27.360446	0.000368	20.761951
2079.579535	-2.995800	3.226100	-9.664000	27.383683	0.000367	20.752609
2080.577927	-3.008700	3.225500	-9.703200	27.415525	0.000365	20.741969
2081.579282	-2.992400	3.224200	-9.646400	27.422270	0.000366	20.758713
2082.581583	-3.003400	3.225200	-9.685800	27.409563	0.000363	20.733600
2083.579334	-3.002100	3.223800	-9.676500	27.408566	0.000361	20.764366
2084.579225	-3.026200	3.222700	-9.751900	27.409282	0.000363	20.764139
2085.579865	-3.015100	3.222400	-9.715000	27.413267	0.000361	20.764354
2086.580126	-3.007500	3.221800	-9.688700	27.420356	0.000359	20.763425
2087.580107	-3.019600	3.222800	-9.730000	27.389145	0.000360	20.760001
2088.584572	-2.972100	3.223000	-9.578300	27.387927	0.000359	20.778217
2089.582090	-2.993800	3.221400	-9.643400	27.426073	0.000360	20.761591
2090.582291	-2.985900	3.221600	-9.618700	27.463876	0.000359	20.774492
2091.581143	-2.981600	3.221700	-9.604900	27.465106	0.000358	20.743012
2092.582544	-3.000700	3.220400	-9.661900	27.473376	0.000357	20.761764
2093.584138	-3.005200	3.221500	-9.679400	27.469398	0.000357	20.753495
2094.582460	-2.975500	3.218800	-9.577000	27.508191	0.000355	20.767393
2095.582382	-3.003200	3.217900	-9.663000	27.547006	0.000357	20.784636
2096.582310	-2.977300	3.219500	-9.584200	27.543794	0.000356	20.771446
2097.581618	-3.002000	3.217700	-9.657900	27.517128	0.000354	20.777808
2098.584918	-3.028600	3.216500	-9.740500	27.519197	0.000357	20.767087
2099.585811	-2.991000	3.217900	-9.624100	27.507655	0.000351	20.767802
2100.586656	-2.998300	3.216500	-9.642900	27.451767	0.000353	20.753300
2101.581398	-3.005000	3.215700	-9.662400	27.399514	0.000353	20.782287
2102.581802	-3.013300	3.216200	-9.690200	27.365493	0.000351	20.785995
2103.583386	-2.965900	3.215900	-9.536900	27.352069	0.000349	20.764430
2104.585111	-2.994400	3.215600	-9.628300	27.345857	0.000350	20.787578
2105.583744	-3.001100	3.214900	-9.646900	27.357193	0.000349	20.767688
2106.583861	-2.994700	3.215100	-9.625300	27.380694	0.000350	20.795597
2107.582171	-2.955900	3.214900	-9.501700	27.395054	0.000347	20.777327
2108.582881	-2.989500	3.213700	-9.605100	27.373141	0.000347	20.765713
2109.585759	-2.983900	3.213200	-9.586700	27.364003	0.000346	20.790186
2110.583974	-2.980900	3.213000	-9.576600	27.359584	0.000344	20.778153
2111.584380	-2.997400	3.211800	-9.625900	27.354742	0.000343	20.806948
2112.583055	-2.997500	3.212100	-9.627300	27.370309	0.000343	20.773296
2113.583785	-3.012000	3.210200	-9.668100	27.378714	0.000343	20.801666
2114.588403	-3.007800	3.212300	-9.661600	27.381910	0.000341	20.787337
2115.586275	-2.991200	3.210100	-9.601300	27.392175	0.000341	20.794819
2116.585702	-3.017500	3.209400	-9.682900	27.413306	0.000339	20.780515
2117.586266	-3.011300	3.209800	-9.663700	27.452920	0.000338	20.810885
2118.588664	-3.023800	3.210100	-9.704600	27.475610	0.000338	20.807160
2119.588045	-3.027700	3.206000	-9.705900	27.477588	0.000337	20.795399
2120.587751	-3.009900	3.207300	-9.652500	27.444297	0.000337	20.787985
2121.587346	-3.015500	3.207400	-9.671000	27.433702	0.000336	20.820000
2122.587565	-2.992600	3.207800	-9.599000	27.450944	0.000334	20.782819
2123.587490	-2.981700	3.209700	-9.570300	27.498790	0.000334	20.802032
2124.588560	-3.012300	3.205400	-9.654900	27.478102	0.000332	20.806348
2125.597924	-3.006100	3.205700	-9.635300	27.455499	0.000333	20.770331
2126.589699	-3.016000	3.207200	-9.671400	27.435331	0.000333	20.783707
2127.591923	-2.983100	3.205200	-9.560500	27.469908	0.000329	20.809958
2128.593113	-2.984200	3.204500	-9.561600	27.479205	0.000330	20.807932
2129.590862	-2.978800	3.203100	-9.540200	27.489800	0.000327	20.794409
2130.595154	-3.009400	3.203200	-9.637800	27.529381	0.000328	20.801990
2131.595785	-3.016600	3.202200	-9.658400	27.524295	0.000326	20.806356
2132.593911	-2.995800	3.203000	-9.594800	27.544486	0.000326	20.808653
2133.593566	-3.000600	3.202500	-9.608500	27.550313	0.000325	20.822102
2134.594179	-3.000300	3.203300	-9.609900	27.568024	0.000325	20.798197
2135.596043	-3.009600	3.200300	-9.630300	27.590442	0.000324	20.807951
2136.598303	-3.006200	3.199400	-9.616700	27.578637	0.000323	20.812194
2137.595872	-2.986300	3.201100	-9.558200	27.541353	0.000322	20.808346
2138.600262	-2.983800	3.200800	-9.549600	27.562088	0.000320	20.814035
2139.596650	-2.983600	3.200000	-9.546700	27.567547	0.000318	20.797717
2140.599730	-2.999600	3.197800	-9.591100	27.582426	0.000318	20.810790
2141.602142	-3.006800	3.199000	-9.617500	27.629671	0.000319	20.790525
2142.596400	-3.007500	3.197400	-9.615000	27.632896	0.000320	20.808943
2143.598525	-2.990100	3.199100	-9.564100	27.681847	0.000317	20.796086
2144.597666	-3.017800	3.197300	-9.648200	27.680415	0.000317	20.811240
2145.600819	-2.974200	3.197100	-9.507400	27.636985	0.000317	20.813531
2146.600700	-2.995200	3.195500	-9.569600	27.638870	0.000317	20.813531
2147.603075	-3.015600	3.196300	-9.637600	27.646611	0.000316	20.794768
2148.600818	-3.007300	3.196600	-9.612100	27.620492	0.000315	20.816376
2149.599879	-3.000400	3.195800	-9.586600	27.626220	0.000314	20.818346
2150.601982	-3.009800	3.193300	-9.610100	27.642119	0.000313	20.834818
2151.602765	-3.009900	3.193400	-9.611000	27.631771	0.000314	20.812552
2152.605750	-3.011700	3.192900	-9.615200	27.616422	0.000313	20.805643
2153.604300	-2.984200	3.192500	-9.525900	27.665796	0.000310	20.804116
2154.603332	-3.032600	3.193000	-9.681800	27.663917	0.000312	20.823088
2155.604311	-3.003600	3.190000	-9.579900	27.726183	0.000310	20.802294
2156.603966	-3.003500	3.191100	-9.583700	27.764298	0.000309	20.832590
2157.607687	-2.989400	3.191900	-9.540900	27.758742	0.000310	20.835533
2158.604187	-2.990900	3.192300	-9.545800	27.758467	0.000311	20.809178
2159.613035	-2.990800	3.189800	-9.539000	27.756980	0.000309	20.816691
2160.603672	-3.008400	3.188700	-9.590800	27.758987	0.000308	20.813495
2161.606288	-3.008100	3.188400	-9.589200	27.785446	0.000307	20.813095
2162.609248	-3.014200	3.188600	-9.609600	27.771477	0.000307	20.830805
2163.606147	-3.016600	3.189400	-9.619500	27.741897	0.000306	20.826642
2164.608911	-3.003100	3.186700	-9.568500	27.696457	0.000305	20.821692
2165.607708	-3.015300	3.186600	-9.607800	27.655541	0.000303	20.820823
2166.606111	-2.989900	3.186100	-9.524200	27.638003	0.000302	20.825935
2167.607028	-3.000000	3.184800	-9.553300	27.662378	0.000304	20.841927
2168.610460	-3.013800	3.184600	-9.597300	27.663821	0.000302	20.821569
2169.609669	-2.990800	3.184900	-9.524600	27.694022	0.000304	20.838207
2170.607167	-2.988100	3.185500	-9.517900	27.679335	0.000302	20.823904
2171.607876	-3.001400	3.183300	-9.553400	27.675345	0.000300	20.812776
2172.605779	-3.004200	3.184400	-9.565400	27.684892	0.000301	20.840400
2173.611121	-3.014100	3.182800	-9.592200	27.688710	0.000300	20.834285
2174.607441	-2.998300	3.182800	-9.542300	27.714179	0.000297	20.830991
2175.607860	-2.996100	3.181100	-9.529700	27.720549	0.000297	20.835505
2176.608137	-2.982600	3.184100	-9.495400	27.683900	0.000296	20.828971
2177.606982	-2.994200	3.180800	-9.520900	27.671172	0.000296	20.852672
2178.610006	-2.972300	3.180700	-9.452600	27.703042	0.000295	20.845862
2179.609066	-2.988300	3.178700	-9.497400	27.741837	0.000294	20.837487
2180.609466	-3.010300	3.178700	-9.568300	27.757178	0.000293	20.832537
2181.609110	-3.012300	3.179000	-9.574800	27.727097	0.000293	20.834507
2182.609128	-2.999300	3.177600	-9.530000	27.746941	0.000294	20.852105
2183.608689	-2.996800	3.178700	-9.524400	27.695043	0.000291	20.832123
2184.612339	-3.002400	3.177400	-9.538700	27.681226	0.000292	20.839082
2185.610166	-3.007700	3.178100	-9.557900	27.666967	0.000292	20.852234
2186.611928	-2.975000	3.176000	-9.447000	27.677658	0.000290	20.823638
2187.610954	-3.012100	3.175500	-9.563600	27.718455	0.000288	20.841932
2188.610071	-2.986900	3.175500	-9.484500	27.756321	0.000289	20.867708
2189.613185	-2.986700	3.175700	-9.482900	27.750471	0.000289	20.853287
2190.610755	-2.992300	3.176400	-9.504200	27.699957	0.000289	20.847024
2191.614659	-3.006300	3.174900	-9.544100	27.677584	0.000289	20.847745
2192.612266	-2.988100	3.173600	-9.482300	27.684113	0.000287	20.823496
2193.611665	-2.998700	3.174000	-9.516400	27.679592	0.000289	20.830325
2194.611450	-2.989600	3.174000	-9.487900	27.705311	0.000287	20.844826
2195.617806	-2.989400	3.173700	-9.486400	27.716944	0.000288	20.834247
2196.611914	-2.992600	3.171300	-9.489600	27.734206	0.000286	20.868212
2197.613813	-3.015300	3.170100	-9.557500	27.748812	0.000287	20.848299
2198.615210	-2.994000	3.171000	-9.493200	27.712251	0.000284	20.848965
2199.614438	-3.009800	3.168400	-9.535700	27.702239	0.000285	20.846476
2200.619645	-2.982200	3.170500	-9.454400	27.731098	0.000284	20.846120
2201.617191	-2.997800	3.168500	-9.497500	27.765548	0.000285	20.838114
2202.620381	-3.008600	3.167200	-9.527500	27.792374	0.000283	20.836188
2203.617082	-3.011300	3.167100	-9.534700	27.796584	0.000281	20.849433
2204.616857	-3.004700	3.167000	-9.514700	27.807641	0.000284	20.854396
2205.620389	-3.013400	3.165900	-9.540000	27.786262	0.000282	20.849477
2206.616675	-3.012700	3.165800	-9.537100	27.762870	0.000281	20.849644
2207.616365	-2.997800	3.167500	-9.494100	27.814819	0.000279	20.863517
2208.616599	-3.009400	3.164600	-9.522000	27.806314	0.000278	20.870604
2209.616931	-3.004100	3.164200	-9.504900	27.803830	0.000278	20.870475
2210.617259	-2.973600	3.164200	-9.408100	27.811785	0.000278	20.873265
2211.618823	-2.989400	3.163200	-9.454300	27.790657	0.000278	20.865753
2212.617516	-3.012700	3.161600	-9.524300	27.763428	0.000276	20.859688
2213.618774	-3.024300	3.162300	-9.561800	27.762633	0.000277	20.881646
2214.622630	-3.022900	3.159400	-9.548200	27.767816	0.000274	20.851302
2215.620019	-2.998700	3.162100	-9.481700	27.794739	0.000274	20.858482
2216.620589	-2.978900	3.160300	-9.412500	27.794336	0.000274	20.861869
2217.620315	-2.994500	3.160800	-9.463700	27.821020	0.000274	20.861222
2218.620890	-2.980600	3.161200	-9.420200	27.835797	0.000274	20.868033
2219.618458	-2.954000	3.160000	-9.333700	27.827335	0.000272	20.877534
2220.618810	-2.990700	3.157700	-9.442700	27.740888	0.000270	20.884419
2221.622703	-3.007500	3.157300	-9.494300	27.725761	0.000273	20.885792
2222.621366	-3.002800	3.155700	-9.475300	27.701088	0.000267	20.875188
2223.621715	-2.976600	3.156400	-9.394000	27.728234	0.000266	20.861729
2224.623233	-3.002400	3.155200	-9.471800	27.763376	0.000267	20.870066
2225.624111	-3.010700	3.154600	-9.495700	27.753114	0.000266	20.872541
2226.623945	-3.000500	3.154100	-9.463500	27.723969	0.000267	20.866446
2227.628035	-3.005500	3.154500	-9.479900	27.744072	0.000266	20.894734
2228.625709	-3.010000	3.153800	-9.491100	27.694995	0.000267	20.879014
2229.633750	-2.999900	3.155000	-9.463500	27.640183	0.000265	20.863214
2230.629085	-3.002600	3.152300	-9.464100	27.637759	0.000263	20.890645
2231.624937	-2.956300	3.153100	-9.320600	27.664808	0.000262	20.884673
2232.633245	-2.990500	3.151400	-9.423100	27.713587	0.000259	20.877334
2233.626466	-3.007200	3.148800	-9.466500	27.721602	0.000260	20.883503
2234.628416	-3.003700	3.149700	-9.460200	27.698729	0.000260	20.881349
2235.625969	-2.989500	3.150000	-9.415200	27.682414	0.000261	20.879156
2236.626110	-3.001200	3.147500	-9.445400	27.663242	0.000260	20.872667
2237.626705	-2.997500	3.148200	-9.435800	27.676406	0.000258	20.900609
2238.626306	-2.992000	3.148500	-9.418800	27.675518	0.000257	20.893078
2239.627939	-2.981600	3.147600	-9.383900	27.652282	0.000259	20.900042
2240.628049	-2.977200	3.146100	-9.365700	27.630900	0.000257	20.897493
2241.627447	-2.982000	3.146400	-9.381400	27.632314	0.000259	20.897019
2242.627154	-2.995000	3.144100	-9.415000	27.667600	0.000257	20.875155
2243.631935	-2.983900	3.145600	-9.385100	27.703662	0.000256	20.875881
2244.626919	-2.998600	3.141500	-9.417600	27.766848	0.000255	20.876879
2245.629098	-2.987200	3.141400	-9.383300	27.809050	0.000254	20.904175
2246.628097	-2.974700	3.142100	-9.345800	27.840793	0.000255	20.895345
2247.630384	-2.978700	3.142300	-9.357900	27.882350	0.000255	20.900184
2248.630602	-2.989900	3.141100	-9.390900	27.928248	0.000252	20.898965
2249.628709	-2.997600	3.140400	-9.411900	27.954775	0.000250	20.887260
2250.629390	-2.978500	3.141500	-9.356600	27.971190	0.000250	20.901884
2251.627405	-2.995300	3.139200	-9.401700	27.972186	0.000251	20.887715
2252.628195	-3.000600	3.138300	-9.415500	27.968908	0.000250	20.888208
2253.630945	-2.997100	3.137400	-9.402500	27.977760	0.000249	20.884317
2254.637534	-3.000900	3.136800	-9.412000	28.012281	0.000249	20.887770
2255.633801	-2.981100	3.137100	-9.350300	28.021604	0.000250	20.873922
2256.633842	-3.009700	3.135200	-9.435500	28.021849	0.000247	20.872272
2257.634525	-2.993000	3.136400	-9.386200	28.025116	0.000248	20.876035
2258.632486	-2.992900	3.134100	-9.379000	28.005264	0.000248	20.869803
2259.637087	-2.994700	3.134400	-9.385100	28.001300	0.000244	20.864864
2260.638657	-2.992100	3.132700	-9.372500	27.969738	0.000245	20.889044
2261.635480	-3.001500	3.131500	-9.398000	27.958139	0.000247	20.864094
2262.634025	-3.000000	3.131200	-9.392100	27.976486	0.000245	20.855535
2263.636825	-3.009200	3.129200	-9.415200	28.006089	0.000246	20.865892
2264.637573	-2.977000	3.130800	-9.319600	28.019780	0.000244	20.864974
2265.636846	-2.984600	3.131400	-9.344900	28.038475	0.000244	20.864826
2266.637931	-2.981000	3.129300	-9.327800	28.063935	0.000243	20.847308
2267.636337	-2.989200	3.127800	-9.348600	28.072890	0.000242	20.859641
2268.636279	-3.023900	3.125900	-9.450200	28.076609	0.000242	20.877608
2269.638827	-3.009500	3.126000	-9.407200	28.090250	0.000241	20.858624
2270.639548	-2.996700	3.126600	-9.369000	28.006008	0.000240	20.871025
2271.636878	-3.025400	3.124900	-9.452500	27.975964	0.000241	20.874923
2272.636247	-3.013100	3.123800	-9.410300	27.934740	0.000242	20.858561
2273.636109	-2.994000	3.124400	-9.353900	27.920627	0.000242	20.873278
2274.640643	-3.003800	3.123600	-9.381000	27.936325	0.000239	20.855889
2275.640026	-2.991800	3.122200	-9.340100	27.929809	0.000238	20.853124
2276.638499	-3.029500	3.121200	-9.452800	27.947141	0.000239	20.868198
2277.640829	-3.027300	3.119000	-9.441700	27.928254	0.000238	20.857249
2278.637280	-2.998900	3.121100	-9.359000	27.916373	0.000240	20.839602
2279.638710	-3.010100	3.118700	-9.385400	27.896097	0.000236	20.839109
2280.642868	-2.979000	3.119000	-9.290300	27.914794	0.000237	20.853185
2281.638927	-2.990400	3.118700	-9.325400	27.910364	0.000236	20.840191
2282.641418	-3.021100	3.115800	-9.412100	27.861241	0.000236	20.862347
2283.638854	-2.991800	3.117000	-9.324600	27.815571	0.000235	20.861429
2284.639043	-2.988800	3.115700	-9.311400	27.780486	0.000235	20.858836
2285.639482	-2.977900	3.116000	-9.277700	27.779127	0.000236	20.837555
2286.644555	-3.016900	3.113100	-9.390200	27.785625	0.000235	20.839827
2287.639534	-2.996300	3.112900	-9.326400	27.849229	0.000236	20.843146
2288.642598	-3.010400	3.113000	-9.370800	27.879429	0.000233	20.847463
2289.644204	-3.002700	3.111600	-9.341700	27.896566	0.000233	20.851908
2290.642847	-3.003300	3.110300	-9.340000	27.911268	0.000234	20.833515
2291.646964	-2.980000	3.112300	-9.273700	27.940934	0.000233	20.845355
2292.643579	-3.011300	3.109800	-9.363500	27.930858	0.000233	20.856077
2293.647346	-2.997600	3.107900	-9.315700	27.910778	0.000234	20.825910
2294.644350	-2.977000	3.108900	-9.253400	27.916780	0.000232	20.823890
2295.644118	-2.976700	3.107900	-9.249800	27.936620	0.000233	20.841488
2296.647838	-2.988400	3.106700	-9.282800	27.955954	0.000231	20.842456
2297.644666	-3.013900	3.105300	-9.357900	28.033831	0.000230	20.823169
2298.644891	-3.022400	3.103700	-9.378900	28.066136	0.000230	20.827240
2299.645387	-2.988200	3.105900	-9.279700	28.117330	0.000230	20.825669
2300.645967	-2.995700	3.104200	-9.298500	28.109745	0.000231	20.845534
2301.646806	-3.004700	3.102200	-9.320400	28.066956	0.000229	20.841814
2302.646594	-2.996300	3.100900	-9.290800	28.023498	0.000229	20.811346
2303.645294	-3.010400	3.100900	-9.332600	28.017699	0.000229	20.825423
2304.646278	-2.987600	3.100400	-9.261700	27.993454	0.000231	20.831364
2305.645237	-3.003800	3.098400	-9.306400	28.019313	0.000229	20.817565
2306.645471	-2.979400	3.098200	-9.228700	28.019038	0.000228	20.829142
2307.652061	-3.006400	3.097000	-9.309400	28.080744	0.000228	20.813495
2308.646845	-3.001500	3.095500	-9.289400	28.070656	0.000228	20.831315
2309.655102	-3.028000	3.094200	-9.368300	28.099786	0.000226	20.819862
2310.646654	-2.968500	3.096100	-9.189300	28.142195	0.000227	20.822252
2311.647074	-2.987400	3.093700	-9.240000	28.160215	0.000226	20.804357
2312.647715	-3.007800	3.092500	-9.300800	28.209447	0.000227	20.839696
2313.651604	-2.987700	3.091300	-9.234600	28.217277	0.000227	20.823871
2314.648775	-2.994300	3.090800	-9.254000	28.175036	0.000226	20.826864
2315.648906	-2.985300	3.091200	-9.227400	28.149663	0.000224	20.815545
2316.647694	-2.998600	3.090700	-9.266400	28.102637	0.000225	20.808507
2317.648421	-2.994700	3.088600	-9.248300	28.057713	0.000225	20.819234
2318.651965	-3.006600	3.086800	-9.279300	28.067384	0.000224	20.813797
2319.651054	-3.007800	3.086900	-9.283300	28.038498	0.000222	20.824548
2320.658101	-3.004500	3.085100	-9.268200	27.949247	0.000224	20.825749
2321.652651	-2.992800	3.085800	-9.234600	27.970348	0.000223	20.811426
2322.654063	-2.996200	3.085200	-9.242900	27.983023	0.000222	20.815175
2323.660792	-3.017700	3.082100	-9.299600	27.973101	0.000223	20.826524
2324.653645	-3.019700	3.083300	-9.309600	27.983519	0.000224	20.794811
2325.659034	-3.023200	3.081000	-9.312200	28.004025	0.000224	20.817349
2326.653374	-3.016200	3.080100	-9.288900	28.026115	0.000221	20.794540
2327.653121	-3.016300	3.078000	-9.282000	28.068037	0.000221	20.832472
2328.654181	-3.002600	3.078100	-9.241500	28.070295	0.000222	20.795390
2329.656650	-2.983600	3.078200	-9.183400	28.038166	0.000222	20.809042
2330.656025	-2.971100	3.077600	-9.143200	28.026641	0.000223	20.813561
2331.655797	-3.024600	3.076300	-9.304000	28.073445	0.000222	20.793820
2332.658120	-3.003900	3.074200	-9.233700	28.091050	0.000220	20.801110
2333.656838	-3.011100	3.074200	-9.256200	28.129245	0.000218	20.818697
2334.658442	-3.009100	3.072700	-9.245600	28.179107	0.000222	20.803462
2335.657491	-3.022700	3.072200	-9.285200	28.218638	0.000220	20.791104
2336.658962	-3.014600	3.071900	-9.259800	28.253794	0.000219	20.802790
2337.658113	-2.986000	3.071400	-9.170600	28.232179	0.000220	20.810900
2338.658982	-3.008700	3.070000	-9.235500	28.253078	0.000219	20.812975
2339.657825	-2.986100	3.069000	-9.162800	28.204050	0.000218	20.793011
2340.662878	-2.989500	3.067000	-9.168100	28.203731	0.000217	20.792691
2341.659818	-3.010600	3.066300	-9.230400	28.222270	0.000218	20.799502
2342.658876	-3.016300	3.065000	-9.244200	28.223120	0.000218	20.786607
2343.661284	-2.986000	3.065000	-9.150200	28.249695	0.000217	20.802931
2344.660587	-3.017900	3.063000	-9.242300	28.212073	0.000218	20.782597
2345.664825	-2.998300	3.062600	-9.180400	28.229945	0.000217	20.788262
2346.660651	-3.004000	3.061300	-9.194900	28.235450	0.000217	20.793330
2347.665745	-2.984600	3.060900	-9.133900	28.270776	0.000217	20.800448
2348.664759	-3.016000	3.058500	-9.222800	28.284610	0.000217	20.798256
2349.663057	-2.991100	3.058800	-9.148600	28.297992	0.000215	20.786125
2350.664339	-2.977500	3.057000	-9.101100	28.297698	0.000215	20.783458
2351.664549	-3.003700	3.055900	-9.178600	28.246464	0.000217	20.784505
2352.667814	-3.034100	3.053200	-9.261300	28.220017	0.000217	20.794863
2353.664484	-2.993600	3.054000	-9.141500	28.208573	0.000217	20.799462
2354.667196	-3.001700	3.053600	-9.164900	28.200610	0.000214	20.789548
2355.665824	-3.012000	3.050600	-9.187600	28.235241	0.000215	20.783162
2356.669024	-3.000700	3.050700	-9.152500	28.229325	0.000217	20.785268
2357.666188	-2.995400	3.050100	-9.134900	28.257827	0.000212	20.795471
2358.665343	-2.980000	3.048300	-9.082800	28.286138	0.000212	20.778931
2359.665180	-3.000100	3.046600	-9.139100	28.297391	0.000212	20.758492
2360.665003	-3.010200	3.046100	-9.168400	28.331676	0.000212	20.788272
2361.666099	-2.992600	3.044500	-9.110200	28.325456	0.000215	20.792915
2362.665709	-2.979300	3.044700	-9.070700	28.348335	0.000213	20.783709
2363.665929	-2.985300	3.044000	-9.086700	28.360132	0.000213	20.764767
2364.664865	-2.982400	3.043100	-9.074600	28.365734	0.000212	20.767088
2365.663985	-3.027000	3.038800	-9.197700	28.391001	0.000213	20.799644
2366.667631	-3.007200	3.039800	-9.139800	28.435588	0.000212	20.782426
2367.667280	-3.003500	3.039100	-9.127200	28.436976	0.000214	20.793782
2368.664474	-3.023700	3.036400	-9.179600	28.466988	0.000214	20.775640
2369.665256	-2.985200	3.036900	-9.063800	28.480942	0.000211	20.787796
2370.674012	-2.997500	3.034400	-9.093600	28.431936	0.000211	20.785387
2371.666809	-2.988200	3.033200	-9.061500	28.414135	0.000213	20.784058
2372.672136	-2.982500	3.033400	-9.046500	28.367468	0.000212	20.765990
2373.669259	-2.997700	3.032400	-9.089100	28.370128	0.000213	20.790006
2374.670094	-3.009700	3.029800	-9.117200	28.337097	0.000211	20.774290
2375.669986	-2.995000	3.029200	-9.072200	28.295088	0.000212	20.763760
2376.671505	-2.995400	3.028800	-9.072000	28.277486	0.000211	20.763107
2377.673255	-3.013000	3.027300	-9.120200	28.282030	0.000211	20.767208
2378.671535	-2.997100	3.026300	-9.068800	28.323776	0.000212	20.767990
2379.669404	-3.005200	3.025100	-9.090300	28.323624	0.000209	20.777319
2380.670143	-3.016500	3.023700	-9.119500	28.334760	0.000211	20.754392
2381.669506	-3.007900	3.022800	-9.091500	28.331953	0.000210	20.765791
2382.667795	-3.002100	3.020400	-9.066900	28.325641	0.000212	20.774609
2383.667923	-2.984800	3.020500	-9.013000	28.346832	0.000209	20.767496
2384.669171	-3.003400	3.018500	-9.065000	28.307551	0.000210	20.770144
2385.671529	-3.021200	3.017600	-9.115700	28.330258	0.000209	20.754127
2386.670418	-3.025000	3.015800	-9.121500	28.343027	0.000209	20.764614
2387.669878	-2.977900	3.016500	-8.982300	28.298290	0.000207	20.766036
2388.673435	-3.009600	3.012800	-9.066800	28.285551	0.000208	20.767434
2389.671350	-3.006900	3.013300	-9.059700	28.314332	0.000208	20.754212
2390.673643	-3.007600	3.011900	-9.057400	28.320895	0.000208	20.764140
2391.670209	-3.015000	3.009400	-9.071400	28.339565	0.000210	20.765395
2392.672205	-3.013500	3.009600	-9.067100	28.334018	0.000208	20.758387
2393.672447	-2.998000	3.007500	-9.015700	28.383566	0.000209	20.767501
2394.675401	-2.996000	3.007500	-9.009600	28.423169	0.000209	20.764231
2395.672436	-3.018400	3.005400	-9.070600	28.453903	0.000209	20.777162
2396.671118	-2.981400	3.004900	-8.957500	28.438065	0.000209	20.765481
2397.672554	-2.976500	3.003800	-8.939300	28.417225	0.000208	20.771047
2398.674323	-2.995500	3.001900	-8.991500	28.409917	0.000208	20.766533
2399.673842	-2.988500	3.001200	-8.968500	28.375328	0.000208	20.754463
2400.673728	-3.018500	2.999800	-9.053100	28.366931	0.000207	20.748853
2401.673782	-3.006800	2.997300	-9.010300	28.341992	0.000208	20.755984
2402.678282	-3.029300	2.995700	-9.073600	28.316446	0.000206	20.756815
2403.672742	-2.997400	2.995300	-8.976400	28.282735	0.000206	20.734252
2404.677952	-2.991300	2.995500	-8.957900	28.226540	0.000205	20.758281
2405.673323	-3.013100	2.992600	-9.014600	28.183266	0.000206	20.750750
2406.673782	-2.977500	2.993100	-8.909900	28.142890	0.000207	20.764155
2407.675348	-3.004100	2.990000	-8.981300	28.155778	0.000206	20.734455
2408.673256	-2.997500	2.988500	-8.957600	28.150701	0.000208	20.748311
2409.673244	-2.968200	2.987700	-8.866900	28.172445	0.000205	20.747442
2410.674141	-3.006900	2.985700	-8.976800	28.147385	0.000209	20.750663
2411.673557	-3.033200	2.984200	-9.050700	28.137293	0.000207	20.752830
2412.673293	-3.017100	2.982300	-8.996900	28.177277	0.000207	20.764161
2413.673090	-2.996300	2.982100	-8.934400	28.218557	0.000204	20.737441
2414.673546	-2.989900	2.980200	-8.909600	28.246515	0.000205	20.747097
2415.675362	-3.013400	2.979500	-8.977300	28.230380	0.000206	20.752664
2416.672853	-3.036500	2.975700	-9.033900	28.204703	0.000206	20.725389
2417.676435	-2.979400	2.977300	-8.870200	28.196354	0.000206	20.733579
2418.674166	-2.997700	2.974900	-8.917000	28.237719	0.000204	20.754837
2419.679401	-3.008400	2.972900	-8.943100	28.275052	0.000203	20.746431
2420.675352	-2.999900	2.972300	-8.915600	28.296470	0.000205	20.734805
2421.680735	-2.994000	2.970300	-8.892000	28.316897	0.000207	20.752053
2422.674359	-2.999100	2.967400	-8.898400	28.324823	0.000206	20.744387
2423.674397	-3.011900	2.967800	-8.937400	28.348099	0.000205	20.733210
2424.677115	-3.013400	2.966900	-8.938500	28.399206	0.000206	20.742945
2425.677747	-3.000300	2.963900	-8.892100	28.444086	0.000206	20.744042
2426.679057	-3.028700	2.962300	-8.970500	28.435689	0.000204	20.746492
2427.674971	-3.018700	2.961300	-8.938100	28.416384	0.000206	20.737957
2428.682591	-3.022400	2.961200	-8.948800	28.402630	0.000204	20.764412
2429.677791	-3.021000	2.957700	-8.933200	28.439481	0.000204	20.732766
2430.680859	-2.993100	2.957500	-8.851200	28.416585	0.000206	20.726306
2431.678420	-2.983800	2.956900	-8.821900	28.438594	0.000203	20.750840
2432.678432	-3.009000	2.954000	-8.887200	28.445137	0.000206	20.747471
2433.679683	-3.004500	2.951700	-8.867100	28.478940	0.000204	20.744053
2434.680875	-3.006500	2.951500	-8.873500	28.474727	0.000204	20.735069
2435.680736	-3.002700	2.947800	-8.849500	28.485911	0.000205	20.733054
2436.680304	-3.028100	2.947500	-8.923900	28.499742	0.000205	20.731810
2437.682253	-2.999600	2.947900	-8.839500	28.501748	0.000205	20.744736
2438.681260	-3.015100	2.944300	-8.876300	28.479202	0.000203	20.745266
2439.682065	-3.009000	2.943500	-8.856300	28.450181	0.000203	20.715091
2440.681108	-2.983400	2.942600	-8.778600	28.439920	0.000205	20.741269
2441.682853	-3.001700	2.940500	-8.825700	28.437492	0.000205	20.724599
2442.685287	-2.993700	2.938700	-8.796100	28.479276	0.000203	20.732537
2443.682711	-3.004900	2.937200	-8.825500	28.492569	0.000204	20.737863
2444.686981	-3.019100	2.934600	-8.858600	28.460472	0.000204	20.737309
2445.682578	-2.984800	2.935900	-8.762100	28.466422	0.000203	20.733817
2446.683554	-2.993600	2.933600	-8.780000	28.453758	0.000204	20.746195
2447.684344	-3.003800	2.931300	-8.803700	28.413086	0.000202	20.732740
2448.685520	-2.976200	2.931000	-8.722600	28.391652	0.000205	20.715897
2449.684622	-3.008400	2.927600	-8.805700	28.381213	0.000202	20.725775
2450.684536	-2.991300	2.926200	-8.752500	28.381219	0.000203	20.732419
2451.685815	-3.019100	2.924400	-8.828800	28.373930	0.000201	20.731243
2452.688587	-2.966700	2.924400	-8.673400	28.378829	0.000202	20.713890
2453.693450	-2.998900	2.921900	-8.760700	28.360616	0.000203	20.701241
2454.686961	-3.011000	2.918700	-8.786700	28.305912	0.000205	20.733880
2455.694181	-3.004300	2.917400	-8.764100	28.266378	0.000204	20.712092
2456.686992	-2.980700	2.916700	-8.692600	28.246109	0.000203	20.725824
2457.686491	-3.017400	2.914700	-8.794100	28.228678	0.000201	20.710645
2458.687820	-3.009100	2.914300	-8.768400	28.195411	0.000201	20.721249
2459.686177	-3.009500	2.912000	-8.762300	28.178878	0.000202	20.726890
2460.689329	-2.990300	2.910600	-8.702400	28.168418	0.000205	20.724421
2461.687075	-2.999900	2.907300	-8.719900	28.200537	0.000202	20.734945
2462.688483	-2.986400	2.905800	-8.676800	28.204574	0.000202	20.725259
2463.692187	-3.000100	2.903300	-8.709200	28.200959	0.000200	20.711661
2464.688293	-2.994300	2.902600	-8.690500	28.206831	0.000201	20.724686
2465.691771	-3.014500	2.900400	-8.742200	28.245204	0.000203	20.732975
2466.688807	-3.015600	2.899500	-8.743000	28.286097	0.000201	20.724360
2467.689490	-3.009700	2.896400	-8.716500	28.330816	0.000201	20.710589
2468.690865	-3.034000	2.894900	-8.781900	28.375894	0.000200	20.713305
2469.694335	-2.994900	2.893800	-8.665400	28.456786	0.000203	20.724113
2470.691283	-2.975300	2.892100	-8.603100	28.511929	0.000202	20.703304
2471.691161	-2.988100	2.890900	-8.636100	28.539207	0.000202	20.729354
2472.693065	-3.009200	2.888400	-8.691300	28.563420	0.000201	20.712960
2473.692590	-2.984100	2.887400	-8.615000	28.592775	0.000201	20.713601
2474.696508	-2.993100	2.883000	-8.627700	28.622043	0.000201	20.715104
2475.694489	-3.023500	2.881900	-8.711900	28.619768	0.000201	20.726090
2476.696148	-3.003500	2.878700	-8.645100	28.570770	0.000202	20.742650
2477.694284	-2.984900	2.880500	-8.597000	28.565578	0.000202	20.712289
2478.694935	-3.017800	2.875900	-8.678400	28.586758	0.000202	20.731725
2479.708773	-3.017700	2.875200	-8.675900	28.594713	0.000201	20.747797
2480.694223	-3.021100	2.873400	-8.678700	28.614309	0.000203	20.711581
2481.693987	-3.008200	2.871400	-8.636500	28.614382	0.000202	20.709758
2482.696914	-2.998700	2.868000	-8.598800	28.634356	0.000202	20.714703
2483.696281	-3.008100	2.867500	-8.624500	28.671321	0.000202	20.727753
2484.700393	-2.982100	2.865800	-8.545600	28.690769	0.000202	20.735013
2485.702529	-3.000200	2.863600	-8.589600	28.722681	0.000202	20.725431
2486.700620	-2.978900	2.862300	-8.525100	28.736504	0.000202	20.706162
2487.698761	-3.000400	2.858100	-8.574200	28.730885	0.000201	20.728479
2488.698606	-3.006600	2.856100	-8.586400	28.708633	0.000203	20.744947
2489.701743	-3.012900	2.855800	-8.603300	28.691509	0.000201	20.728172
2490.702264	-3.006000	2.852400	-8.573100	28.661508	0.000202	20.732569
2491.700610	-2.982700	2.851300	-8.504200	28.620900	0.000203	20.716797
2492.700623	-2.984300	2.849000	-8.500400	28.656379	0.000201	20.726454
2493.699733	-2.982200	2.847700	-8.491300	28.687479	0.000205	20.706568
2494.700794	-2.984300	2.844900	-8.489300	28.709079	0.000203	20.719790
2495.704874	-2.995600	2.842400	-8.513500	28.746499	0.000203	20.726662
2496.701162	-3.008500	2.839600	-8.542200	28.787280	0.000201	20.723171
2497.708216	-2.985300	2.838400	-8.473100	28.816188	0.000203	20.719574
2498.702115	-3.017800	2.835000	-8.553900	28.818468	0.000203	20.719500
2499.702384	-3.015300	2.834100	-8.545200	28.767192	0.000203	20.741817
2500.703207	-2.984800	2.832500	-8.452900	28.705104	0.000204	20.721003
2501.703175	-2.984400	2.830000	-8.445100	28.672427	0.000203	20.732186
2502.703382	-2.977800	2.828600	-8.421000	28.639198	0.000204	20.711045
2503.703507	-3.008000	2.824000	-8.493500	28.624139	0.000204	20.737605
2504.704019	-3.017100	2.823000	-8.516600	28.640567	0.000202	20.717166
2505.705019	-3.019600	2.820900	-8.517300	28.634875	0.000201	20.729925
2506.706127	-2.998400	2.818300	-8.448600	28.634979	0.000202	20.719598
2507.704566	-3.007300	2.816400	-8.468400	28.654873	0.000202	20.723514
2508.705240	-2.968300	2.814600	-8.353700	28.681340	0.000203	20.726464
2509.705359	-3.005400	2.811600	-8.449200	28.685998	0.000203	20.708396
2510.710389	-3.025000	2.807800	-8.492800	28.747640	0.000204	20.733503
2511.707435	-2.986200	2.807300	-8.381600	28.770956	0.000203	20.717159
2512.707584	-2.991900	2.803700	-8.387700	28.804553	0.000203	20.733933
2513.707353	-3.001900	2.802000	-8.410400	28.875700	0.000203	20.728317
2514.705525	-2.971100	2.801600	-8.322800	28.909098	0.000202	20.747266
2515.705943	-3.009100	2.795800	-8.412100	28.943284	0.000201	20.724333
2516.706656	-3.017200	2.792900	-8.425800	28.998421	0.000201	20.741951
2517.706170	-3.009000	2.791600	-8.399100	29.000187	0.000201	20.739937
2518.705514	-3.014000	2.789900	-8.406900	28.971106	0.000203	20.714430
2519.710602	-3.029300	2.785300	-8.435500	28.998408	0.000202	20.737196
2520.710386	-3.000100	2.785100	-8.354600	28.944164	0.000202	20.724270
2521.704821	-2.985200	2.781600	-8.301900	28.909385	0.000202	20.739493
2522.708927	-3.002600	2.779000	-8.343400	28.847831	0.000201	20.752875
2523.707757	-2.986900	2.777400	-8.295100	28.810476	0.000203	20.729468
2524.711716	-3.001900	2.772600	-8.322700	28.783994	0.000203	20.737880
2525.710011	-3.015300	2.769400	-8.350500	28.749956	0.000201	20.738206
2526.708633	-2.999600	2.767300	-8.300000	28.723576	0.000202	20.739135
2527.710652	-2.983700	2.765600	-8.250300	28.739477	0.000202	20.736186
2528.708443	-2.993000	2.762100	-8.266500	28.728846	0.000204	20.730693
2529.711242	-3.018900	2.759500	-8.328800	28.746862	0.000201	20.745047
2530.708095	-2.994500	2.756800	-8.254700	28.723350	0.000202	20.750762
2531.710087	-2.973700	2.753700	-8.187400	28.740174	0.000203	20.734517
2532.709619	-2.991700	2.749400	-8.224400	28.738969	0.000203	20.732355
2533.713228	-3.007200	2.746100	-8.257200	28.783309	0.000203	20.737189
2534.708631	-2.995000	2.743100	-8.214200	28.821961	0.000203	20.739616
2535.709942	-3.011300	2.739600	-8.247700	28.865435	0.000203	20.755436
2536.712691	-2.991200	2.737200	-8.186100	28.871431	0.000205	20.738242
2537.709416	-2.974400	2.735600	-8.136200	28.852134	0.000203	20.740139
2538.714796	-2.993800	2.730300	-8.173000	28.836876	0.000201	20.748951
2539.710598	-2.980100	2.726600	-8.124400	28.870820	0.000203	20.733359
2540.712380	-3.007800	2.724500	-8.193500	28.845104	0.000203	20.746334
2541.713497	-2.969900	2.721900	-8.082800	28.780967	0.000202	20.747159
2542.712691	-3.013300	2.718400	-8.190100	28.777947	0.000205	20.748858
2543.716577	-2.989600	2.713800	-8.111900	28.775324	0.000202	20.740526
2544.711833	-2.979300	2.711500	-8.077300	28.786077	0.000203	20.749462
2545.711302	-2.982100	2.706800	-8.070600	28.850415	0.000204	20.762591
2546.711113	-2.992400	2.704100	-8.091200	28.809520	0.000203	20.763120
2547.711518	-2.909900	2.703500	-7.865900	28.817748	0.000202	20.748648
2548.712114	-2.981600	2.696700	-8.039300	28.868136	0.000201	20.736819
2549.713392	-2.971900	2.693900	-8.004400	28.918350	0.000204	20.739042
2550.713126	-2.998400	2.689100	-8.061500	28.920483	0.000205	20.751148
2551.712461	-3.009700	2.685000	-8.079000	28.902323	0.000205	20.760355
2552.714498	-2.988100	2.683100	-8.016600	28.937530	0.000203	20.731812
2553.714067	-3.002600	2.677100	-8.037000	28.918685	0.000205	20.774943
2554.719615	-2.984000	2.675000	-7.980600	28.958390	0.000203	20.735285
2555.720115	-2.999400	2.669900	-8.006900	28.975706	0.000204	20.742299
2556.717718	-2.998200	2.665400	-7.990600	29.012242	0.000202	20.760619
2557.716444	-2.992600	2.663100	-7.968300	29.059479	0.000205	20.735192
2558.716486	-3.001900	2.658200	-7.978900	29.050617	0.000203	20.752342
2559.715995	-3.011300	2.653200	-7.988800	28.981242	0.000203	20.738394
2560.719473	-3.018900	2.649300	-7.996400	28.951892	0.000205	20.776155
2561.718966	-2.979900	2.645300	-7.882200	28.939827	0.000205	20.745507
2562.718514	-3.011100	2.640200	-7.948500	28.922713	0.000204	20.750076
2563.717719	-2.988300	2.636500	-7.877900	28.921325	0.000205	20.760532
2564.716119	-3.029700	2.630100	-7.967000	28.930176	0.000204	20.747637
2565.722196	-3.029300	2.625800	-7.952600	28.961091	0.000205	20.765034
2566.719220	-3.006300	2.622500	-7.882300	29.006985	0.000203	20.739675
2567.721039	-3.042100	2.617000	-7.959700	29.034017	0.000202	20.748419
2568.718174	-2.980200	2.611800	-7.783000	29.056037	0.000202	20.773451
2569.719300	-3.037600	2.606800	-7.917100	29.051778	0.000203	20.750667
2570.719321	-3.010600	2.604100	-7.838900	28.985771	0.000202	20.746750
2571.719958	-2.990400	2.597400	-7.766400	28.954960	0.000203	20.756012
2572.722950	-2.997200	2.592600	-7.769600	28.939851	0.000204	20.782516
2573.721163	-2.977300	2.587800	-7.703800	28.994346	0.000202	20.755390
2574.731561	-3.000800	2.581500	-7.745300	29.043398	0.000204	20.756448
2575.719986	-3.003200	2.576400	-7.736200	29.096592	0.000205	20.774011
2576.721304	-2.992000	2.570000	-7.689100	29.092785	0.000204	20.770649
2577.722802	-3.003100	2.564200	-7.698600	29.123225	0.000204	20.746792
2578.720946	-2.987800	2.559800	-7.646800	29.183833	0.000203	20.769934
2579.722597	-2.966300	2.554400	-7.575100	29.191630	0.000203	20.768309
2580.722821	-2.993000	2.547200	-7.623200	29.182971	0.000206	20.775230
2581.724541	-2.988200	2.542900	-7.597300	29.191917	0.000204	20.763382
2582.720878	-3.029700	2.535300	-7.679800	29.211728	0.000205	20.777656
2583.724147	-2.988400	2.531200	-7.562200	29.240185	0.000205	20.750856
2584.725357	-3.006700	2.523600	-7.587300	29.253114	0.000205	20.774318
2585.722929	-3.031400	2.517300	-7.629700	29.250267	0.000204	20.774768
2586.723922	-2.977700	2.512700	-7.480300	29.233903	0.000203	20.765389
2587.727277	-3.004400	2.506200	-7.528800	29.206546	0.000205	20.780968
2588.723282	-2.994000	2.499500	-7.483100	29.202482	0.000206	20.768813
