LabVIEW Measurement	
Writer_Version	2
Reader_Version	2
Separator	Tab
Decimal_Separator	.
Multi_Headings	No
X_Columns	One
Time_Pref	Absolute
Operator	admin
Description	Clolumns are: time, Current, Voltage, Power, Battery Temp, and Chamber Temp
Date	2024/08/16
Time	13:06:06.104549407958984375
***End_of_Header***	
	
Channels	6						
Samples	1	1	1	1	1	1	
Date	2024/09/14	2024/09/14	2024/09/14	2024/09/14	2024/09/14	2024/09/14	
Time	12:39:37.2929849624633789063	12:39:37.3010601997375488281	12:39:37.3070464134216308594	12:39:37.2753615379333496094	12:39:37.2753615379333496094	12:39:37.2753615379333496094	
X_Dimension	Time	Time	Time	Time	Time	Time	
X0	0.0000000000000000E+0	0.0000000000000000E+0	0.0000000000000000E+0	0.0000000000000000E+0	0.0000000000000000E+0	0.0000000000000000E+0	
Delta_X	1.000000	1.000000	1.000000	1.000000	1.000000	1.000000	
***End_of_Header***							
X_Value	Untitled	Untitled 1	Untitled 2	Untitled 3	Untitled 4	Untitled 5	Comment
0.000000	0.024908	4.091400	0.101910	21.006478	0.000932	20.771790
1.008377	-2.991300	3.913400	-11.704000	21.009571	0.000930	20.768720
1.997548	-2.984700	3.906600	-11.658000	21.022621	0.000930	20.773712
3.003150	-3.026200	3.900800	-11.803000	20.998692	0.000928	20.778702
4.001594	-3.009700	3.896300	-11.725000	21.015110	0.000929	20.768571
5.001212	-3.020000	3.893000	-11.756000	21.029605	0.000925	20.766947
6.004383	-2.980700	3.892000	-11.600000	21.012018	0.000926	20.780176
7.003283	-3.003300	3.887000	-11.672000	21.023867	0.000925	20.781122
8.002838	-2.983400	3.886700	-11.594000	21.014311	0.000925	20.749753
9.006594	-2.988400	3.884300	-11.607000	21.046098	0.000923	20.769693
10.002574	-2.983000	3.883000	-11.581000	21.016305	0.000925	20.744160
11.004378	-3.000800	3.881100	-11.645000	21.019598	0.000924	20.765947
12.008928	-3.004400	3.878300	-11.652000	21.034522	0.000920	20.755743
13.005886	-2.985700	3.877900	-11.576000	21.044224	0.000923	20.766870
14.007941	-2.990400	3.876700	-11.592000	21.025659	0.000923	20.766320
15.007452	-2.990000	3.877000	-11.591000	21.048913	0.000922	20.780095
16.004914	-3.002200	3.874600	-11.631000	21.032296	0.000918	20.761104
17.006030	-2.981300	3.874600	-11.550000	21.058617	0.000919	20.750920
18.008462	-3.012400	3.871500	-11.662000	21.059665	0.000921	20.762874
19.004461	-3.014700	3.868800	-11.662000	21.057920	0.000918	20.763499
20.007773	-3.018100	3.869100	-11.676000	21.064830	0.000920	20.782739
21.007321	-2.995500	3.868700	-11.588000	21.070940	0.000921	20.790274
22.004981	-3.016400	3.868900	-11.669000	21.070317	0.000919	20.741760
23.005117	-3.020900	3.866200	-11.679000	21.073263	0.000919	20.766518
24.007182	-3.001600	3.866200	-11.604000	21.093267	0.000918	20.775148
25.007801	-2.988500	3.865900	-11.552000	21.102200	0.000919	20.773651
26.008040	-3.002500	3.863500	-11.598000	21.104793	0.000919	20.777194
27.009482	-2.999700	3.863100	-11.587000	21.102771	0.000917	20.773748
28.009266	-3.007300	3.863400	-11.617000	21.135054	0.000918	20.758624
29.009981	-2.998400	3.863600	-11.583000	21.123303	0.000920	20.756353
30.013554	-3.005900	3.861500	-11.606000	21.115244	0.000918	20.761569
31.011032	-3.011100	3.860100	-11.622000	21.106859	0.000917	20.757448
32.010877	-3.010800	3.861800	-11.626000	21.152064	0.000916	20.768054
33.012073	-3.006300	3.859000	-11.600000	21.139613	0.000917	20.756073
34.011742	-3.000600	3.859500	-11.580000	21.127314	0.000915	20.747563
35.012344	-3.008800	3.859000	-11.610000	21.161368	0.000915	20.768826
36.014936	-3.009100	3.857500	-11.607000	21.171097	0.000917	20.764333
37.013462	-3.014600	3.857200	-11.626000	21.174363	0.000916	20.727769
38.012757	-3.004300	3.857600	-11.587000	21.164309	0.000915	20.775087
39.012469	-2.997900	3.856900	-11.562000	21.201976	0.000915	20.781947
40.013594	-2.988900	3.858100	-11.530000	21.184937	0.000915	20.768221
41.012382	-2.990900	3.856800	-11.534000	21.178997	0.000917	20.759433
42.013971	-2.988900	3.856200	-11.523000	21.227892	0.000914	20.763775
43.012685	-3.003900	3.855300	-11.580000	21.224849	0.000916	20.771163
44.012552	-3.021700	3.854600	-11.646000	21.233677	0.000917	20.774778
45.014760	-2.984200	3.855000	-11.503000	21.233900	0.000912	20.769786
46.017087	-2.995400	3.854800	-11.545000	21.219306	0.000914	20.761824
47.014309	-2.995600	3.854200	-11.545000	21.235593	0.000914	20.755358
48.014763	-3.001200	3.853700	-11.564000	21.249564	0.000912	20.772653
49.018943	-2.985400	3.853600	-11.503000	21.235042	0.000913	20.754333
50.013504	-3.018300	3.851400	-11.624000	21.256123	0.000913	20.772102
51.013519	-2.998600	3.851300	-11.548000	21.244770	0.000915	20.764064
52.018589	-3.018400	3.849900	-11.619000	21.263302	0.000914	20.764112
53.015066	-2.991100	3.851300	-11.519000	21.296380	0.000913	20.765435
54.015330	-3.006400	3.849800	-11.573000	21.322023	0.000910	20.764062
55.020025	-2.987200	3.850000	-11.499000	21.299122	0.000910	20.776713
56.017281	-2.990600	3.850600	-11.514000	21.306057	0.000914	20.764685
57.018547	-3.000000	3.849700	-11.548000	21.317231	0.000910	20.790089
58.020905	-2.996400	3.850200	-11.535000	21.314586	0.000911	20.749984
59.018632	-2.983600	3.850800	-11.489000	21.331273	0.000911	20.789439
60.019392	-2.984100	3.850800	-11.490000	21.321321	0.000911	20.759567
61.020772	-2.985400	3.849100	-11.489000	21.329951	0.000912	20.784323
62.019482	-2.984400	3.849900	-11.489000	21.328254	0.000909	20.775038
63.020504	-2.998400	3.848500	-11.539000	21.348807	0.000911	20.780428
64.021975	-2.992800	3.846800	-11.512000	21.350578	0.000911	20.757069
65.019157	-2.988400	3.848900	-11.500000	21.364347	0.000910	20.769897
66.022550	-2.983200	3.846600	-11.474000	21.363950	0.000911	20.766180
67.020422	-2.990400	3.846700	-11.503000	21.373051	0.000913	20.761536
68.018882	-2.986700	3.848200	-11.493000	21.376120	0.000910	20.782625
69.021329	-3.016600	3.844400	-11.594000	21.408570	0.000913	20.777158
70.022326	-2.992800	3.845900	-11.509000	21.407972	0.000912	20.785569
71.023149	-2.999300	3.846100	-11.534000	21.425980	0.000912	20.773241
72.022866	-3.017900	3.843200	-11.597000	21.398846	0.000914	20.778809
73.025131	-2.993400	3.843300	-11.503000	21.447655	0.000913	20.763159
74.023394	-2.991600	3.844100	-11.499000	21.427575	0.000912	20.778156
75.023048	-3.006100	3.841900	-11.548000	21.462293	0.000913	20.769271
76.023874	-2.997400	3.842500	-11.516000	21.440847	0.000914	20.768675
77.023890	-3.004000	3.843000	-11.543000	21.457182	0.000912	20.787865
78.024039	-2.989200	3.843900	-11.489000	21.439348	0.000914	20.783298
79.027661	-3.007100	3.841100	-11.548000	21.485590	0.000914	20.776935
80.025652	-3.028700	3.841700	-11.634000	21.501900	0.000915	20.790884
81.027216	-3.029800	3.840700	-11.634000	21.492048	0.000914	20.777707
82.026046	-3.018400	3.840500	-11.591000	21.501975	0.000914	20.785743
83.025787	-2.994900	3.842000	-11.503000	21.506014	0.000914	20.778405
84.023844	-3.001600	3.841200	-11.529000	21.507986	0.000917	20.774688
85.028014	-3.003100	3.842400	-11.538000	21.514194	0.000915	20.775684
86.024029	-3.003100	3.839500	-11.528000	21.535867	0.000916	20.772241
87.024858	-3.006900	3.840400	-11.547000	21.538809	0.000916	20.772814
88.022454	-2.995600	3.839700	-11.502000	21.547038	0.000919	20.784842
89.025018	-3.005200	3.839500	-11.536000	21.578086	0.000916	20.789832
90.026572	-3.000300	3.840200	-11.522000	21.556265	0.000916	20.785540
91.025893	-2.982700	3.838600	-11.448000	21.570877	0.000916	20.788308
92.026985	-3.016000	3.839500	-11.579000	21.586137	0.000917	20.790776
93.028450	-3.007600	3.838700	-11.544000	21.614068	0.000916	20.778423
94.029177	-3.027400	3.838000	-11.616000	21.599851	0.000917	20.789801
95.030122	-2.986400	3.837400	-11.459000	21.616335	0.000916	20.801555
96.030182	-3.015900	3.836600	-11.570000	21.610449	0.000918	20.796139
97.032846	-3.007900	3.836800	-11.540000	21.631073	0.000918	20.788329
98.029165	-2.999500	3.837500	-11.509000	21.642192	0.000916	20.797085
99.041169	-3.004600	3.838200	-11.530000	21.631220	0.000918	20.806967
100.032428	-2.978800	3.837300	-11.429000	21.654286	0.000918	20.785954
101.032258	-3.005700	3.835500	-11.527000	21.648575	0.000918	20.795886
102.037238	-2.996800	3.835300	-11.492000	21.668423	0.000920	20.776868
103.037036	-2.998100	3.836800	-11.502000	21.674208	0.000916	20.794511
104.035185	-2.997800	3.834800	-11.494000	21.698743	0.000919	20.806737
105.033930	-3.001100	3.835800	-11.509000	21.687397	0.000918	20.796805
106.038806	-3.030000	3.833900	-11.616000	21.676724	0.000920	20.785175
107.035028	-3.001200	3.834500	-11.508000	21.720609	0.000922	20.813448
108.033962	-3.009000	3.834900	-11.537000	21.687941	0.000919	20.801617
109.036779	-2.989200	3.835600	-11.464000	21.709361	0.000919	20.810251
110.038171	-2.978900	3.835700	-11.425000	21.723051	0.000921	20.790287
111.037023	-2.997600	3.834500	-11.493000	21.718886	0.000922	20.799395
112.035040	-2.996300	3.834100	-11.486000	21.737661	0.000920	20.809176
113.040985	-3.007700	3.834400	-11.531000	21.736438	0.000921	20.795151
114.038395	-2.993000	3.833500	-11.472000	21.731326	0.000921	20.809475
115.037919	-2.983600	3.834200	-11.438000	21.752321	0.000920	20.805830
116.041187	-3.009600	3.832600	-11.533000	21.768803	0.000921	20.784394
117.037208	-2.995100	3.833900	-11.482000	21.777703	0.000919	20.788560
118.038146	-2.996100	3.833400	-11.484000	21.783063	0.000919	20.802460
119.041231	-3.009000	3.831800	-11.529000	21.796953	0.000923	20.806404
120.039889	-3.017300	3.831500	-11.560000	21.782440	0.000922	20.792353
121.039694	-2.999000	3.832000	-11.491000	21.801765	0.000920	20.803159
122.045176	-2.990800	3.831500	-11.457000	21.801291	0.000920	20.815013
123.041935	-3.007700	3.830200	-11.519000	21.831761	0.000924	20.816113
124.041450	-2.987600	3.832600	-11.449000	21.844775	0.000922	20.793577
125.048301	-3.007400	3.831200	-11.521000	21.842408	0.000923	20.794527
126.043428	-2.996100	3.830100	-11.474000	21.855348	0.000925	20.816013
127.046758	-2.990500	3.830200	-11.453000	21.872877	0.000924	20.805584
128.046378	-3.002800	3.830700	-11.502000	21.892773	0.000924	20.803213
129.043840	-2.988900	3.830600	-11.447000	21.884273	0.000923	20.816516
130.042834	-3.008700	3.830400	-11.521000	21.899206	0.000925	20.822455
131.047009	-2.991900	3.829400	-11.456000	21.896163	0.000924	20.827469
132.049782	-2.995600	3.829700	-11.472000	21.918553	0.000924	20.814794
133.045370	-2.996000	3.828900	-11.470000	21.920123	0.000926	20.814943
134.050866	-3.003200	3.827700	-11.494000	21.923439	0.000927	20.813995
135.045362	-2.992700	3.828600	-11.456000	21.916485	0.000929	20.822680
136.045728	-3.011200	3.827300	-11.523000	21.937503	0.000927	20.809580
137.049418	-3.003100	3.827300	-11.493000	21.916433	0.000926	20.823103
138.048116	-2.989500	3.828100	-11.444000	21.940169	0.000928	20.817465
139.048818	-2.991100	3.827600	-11.448000	21.938424	0.000927	20.799596
140.051805	-2.998800	3.828100	-11.478000	21.952758	0.000929	20.815367
141.047214	-2.990900	3.827600	-11.446000	21.953954	0.000929	20.831737
142.047216	-2.981400	3.827800	-11.412000	21.978289	0.000929	20.821009
143.050172	-3.001700	3.827000	-11.487000	21.989979	0.000931	20.811375
144.049329	-2.999000	3.827000	-11.475000	21.987437	0.000927	20.825900
145.049662	-3.008600	3.826700	-11.511000	21.995790	0.000932	20.798700
146.051733	-3.006300	3.826300	-11.502000	22.036375	0.000934	20.816094
147.051801	-2.963200	3.828300	-11.342000	22.026552	0.000932	20.835658
148.051229	-2.998700	3.825400	-11.471000	22.039291	0.000932	20.828496
149.055212	-2.983600	3.826000	-11.414000	22.055995	0.000932	20.834312
150.051793	-3.009000	3.824200	-11.504000	22.065641	0.000934	20.819314
151.053487	-3.005400	3.824100	-11.492000	22.051357	0.000936	20.827774
152.057451	-3.021300	3.824600	-11.553000	22.091767	0.000935	20.820339
153.054110	-3.018300	3.824600	-11.543000	22.087477	0.000933	20.832165
154.052836	-3.013500	3.821800	-11.516000	22.077457	0.000936	20.831617
155.056793	-2.996700	3.824000	-11.458000	22.113202	0.000935	20.816193
156.067664	-2.974200	3.824400	-11.372000	22.111957	0.000937	20.819688
157.054658	-2.990700	3.823300	-11.433000	22.105028	0.000937	20.840727
158.056885	-2.969700	3.823800	-11.354000	22.113402	0.000936	20.807386
159.054239	-2.995600	3.824400	-11.454000	22.137881	0.000937	20.817194
160.056166	-3.000700	3.822000	-11.468000	22.113849	0.000935	20.823480
161.058154	-3.007300	3.822000	-11.493000	22.124194	0.000936	20.829095
162.055496	-3.008800	3.822800	-11.501000	22.107072	0.000937	20.837557
163.055377	-3.025900	3.821900	-11.564000	22.126239	0.000937	20.827349
164.056677	-2.986000	3.821800	-11.411000	22.130179	0.000939	20.809009
165.053338	-3.007200	3.821300	-11.491000	22.158097	0.000938	20.825579
166.054303	-3.002500	3.822400	-11.476000	22.143264	0.000942	20.834437
167.057014	-3.000000	3.821900	-11.465000	22.170137	0.000937	20.828151
168.055001	-3.015200	3.818800	-11.513000	22.165748	0.000941	20.811903
169.056243	-2.975300	3.822000	-11.371000	22.174548	0.000941	20.850584
170.055933	-2.995700	3.822200	-11.449000	22.181853	0.000940	20.821863
171.056501	-3.005100	3.820000	-11.479000	22.177640	0.000940	20.838507
172.056388	-2.996500	3.819900	-11.446000	22.193667	0.000943	20.846967
173.056678	-2.997800	3.820200	-11.452000	22.207300	0.000942	20.835960
174.058077	-2.996100	3.820600	-11.446000	22.231300	0.000943	20.838654
175.057047	-2.998400	3.819800	-11.452000	22.256376	0.000943	20.830097
176.057861	-3.023100	3.818500	-11.542000	22.237132	0.000944	20.844019
177.062357	-3.012700	3.818100	-11.502000	22.227713	0.000944	20.827476
178.060179	-3.010400	3.818400	-11.493000	22.263529	0.000947	20.827776
179.059620	-2.985700	3.821600	-11.409000	22.273248	0.000947	20.852205
180.060434	-2.994200	3.818600	-11.432000	22.256124	0.000944	20.827948
181.058236	-2.990400	3.818400	-11.417000	22.267789	0.000948	20.831567
182.059011	-2.987200	3.818900	-11.407000	22.251314	0.000949	20.839727
183.058174	-2.997500	3.819000	-11.447000	22.263624	0.000949	20.829293
184.059232	-2.989400	3.817100	-11.410000	22.265293	0.000946	20.848507
185.060941	-2.988100	3.817800	-11.406000	22.282192	0.000949	20.843617
186.058909	-3.013400	3.815400	-11.496000	22.271873	0.000951	20.856044
187.058817	-2.993900	3.817000	-11.427000	22.301406	0.000951	20.847209
188.060595	-3.010500	3.815800	-11.487000	22.299487	0.000950	20.849555
189.059410	-3.016400	3.816100	-11.510000	22.307361	0.000948	20.848431
190.062486	-2.990700	3.816600	-11.414000	22.288321	0.000952	20.851650
191.061173	-2.990100	3.816500	-11.411000	22.310800	0.000954	20.848555
192.062071	-2.980700	3.816500	-11.373000	22.319549	0.000953	20.846410
193.063970	-2.994300	3.814800	-11.422000	22.341200	0.000955	20.881365
194.062677	-2.994900	3.814700	-11.423000	22.343669	0.000952	20.856812
195.062757	-3.013200	3.813900	-11.491000	22.326796	0.000953	20.849874
196.061766	-3.002500	3.815400	-11.453000	22.332603	0.000954	20.862325
197.063298	-2.992800	3.814400	-11.414000	22.335940	0.000956	20.853814
198.064456	-2.986700	3.814800	-11.391000	22.323926	0.000959	20.862172
199.063345	-2.989100	3.816500	-11.407000	22.343440	0.000954	20.878392
200.063759	-3.014100	3.812400	-11.489000	22.358342	0.000958	20.854435
201.065703	-3.015100	3.811900	-11.492000	22.362029	0.000957	20.856704
202.065458	-2.985900	3.815600	-11.390000	22.384633	0.000958	20.862269
203.069431	-2.993700	3.811700	-11.410000	22.390960	0.000959	20.856752
204.073070	-2.997000	3.812200	-11.424000	22.405688	0.000961	20.864861
205.069308	-3.020100	3.812200	-11.512000	22.398184	0.000962	20.881528
206.078866	-2.976600	3.811700	-11.344000	22.434419	0.000963	20.862340
207.077702	-3.007100	3.811600	-11.460000	22.436512	0.000960	20.870124
208.072144	-2.982000	3.811600	-11.366000	22.424127	0.000963	20.857248
209.080902	-2.982100	3.811400	-11.364000	22.443711	0.000962	20.877808
210.070915	-2.975900	3.812700	-11.345000	22.437727	0.000963	20.865178
211.080745	-2.996700	3.811700	-11.422000	22.427137	0.000963	20.886814
212.073609	-2.989200	3.811200	-11.391000	22.430174	0.000963	20.868046
213.080039	-3.013300	3.809800	-11.478000	22.459455	0.000963	20.877454
214.082763	-2.999900	3.810100	-11.429000	22.456887	0.000966	20.871089
215.079954	-3.006300	3.810100	-11.454000	22.449386	0.000962	20.877327
216.075282	-3.016700	3.807900	-11.486000	22.450554	0.000965	20.869963
217.076854	-3.008000	3.809200	-11.455000	22.477042	0.000962	20.880841
218.076406	-3.015100	3.808100	-11.481000	22.471286	0.000964	20.900679
219.083806	-3.000100	3.809300	-11.428000	22.510483	0.000966	20.869288
220.080682	-2.995800	3.808100	-11.408000	22.542499	0.000965	20.889023
221.081101	-3.012500	3.807300	-11.469000	22.571103	0.000966	20.870731
222.075825	-2.990800	3.808200	-11.388000	22.563927	0.000966	20.884880
223.077868	-2.999900	3.807700	-11.422000	22.535569	0.000964	20.875920
224.081862	-2.996100	3.809100	-11.411000	22.565968	0.000967	20.908259
225.075562	-3.003600	3.807700	-11.436000	22.541050	0.000968	20.891839
226.089101	-2.977000	3.807000	-11.333000	22.537808	0.000968	20.897601
227.091886	-3.000900	3.806600	-11.422000	22.542667	0.000968	20.883501
228.071754	-2.988200	3.808400	-11.379000	22.558587	0.000968	20.884748
229.084178	-2.985700	3.805900	-11.362000	22.564415	0.000972	20.901015
230.071846	-2.993200	3.806800	-11.392000	22.599522	0.000971	20.880702
231.077129	-2.999900	3.806900	-11.420000	22.592320	0.000972	20.876808
232.071762	-2.984300	3.807500	-11.361000	22.596207	0.000969	20.892553
233.075785	-2.994200	3.805700	-11.394000	22.596254	0.000973	20.892127
234.071110	-3.021800	3.805700	-11.499000	22.598547	0.000971	20.898216
235.085516	-2.994000	3.804900	-11.389000	22.603554	0.000972	20.898015
236.079918	-3.006200	3.805600	-11.437000	22.600862	0.000975	20.910491
237.070063	-2.993200	3.804900	-11.387000	22.594656	0.000973	20.879622
238.077432	-2.993300	3.805500	-11.390000	22.619571	0.000974	20.898411
239.089995	-3.008900	3.804400	-11.445000	22.623658	0.000974	20.896814
240.088341	-2.989300	3.804300	-11.370000	22.617702	0.000978	20.915977
241.088002	-3.004200	3.803500	-11.426000	22.641397	0.000975	20.900357
242.086864	-2.991000	3.804200	-11.378000	22.677223	0.000978	20.903050
243.097179	-3.017400	3.803100	-11.473000	22.676898	0.000976	20.888028
244.079213	-3.000400	3.803500	-11.410000	22.687786	0.000978	20.923112
245.080493	-3.001200	3.802500	-11.411000	22.698399	0.000976	20.895338
246.084260	-2.992600	3.802100	-11.377000	22.748798	0.000977	20.902199
247.087264	-3.017200	3.803000	-11.473000	22.745457	0.000981	20.908336
248.086477	-3.007600	3.802000	-11.434000	22.748994	0.000978	20.903345
249.080720	-3.019700	3.801200	-11.477000	22.764565	0.000980	20.910881
250.077807	-2.998200	3.801000	-11.395000	22.762597	0.000981	20.912702
251.087007	-2.988700	3.801300	-11.359000	22.776921	0.000981	20.910930
252.081967	-3.011100	3.800800	-11.442000	22.796301	0.000980	20.918489
253.084254	-3.003600	3.800200	-11.414000	22.806492	0.000984	20.920164
254.083753	-2.990000	3.801800	-11.366000	22.806515	0.000982	20.896481
255.093151	-3.022100	3.798900	-11.479000	22.788329	0.000985	20.896755
256.090645	-3.012800	3.800500	-11.448000	22.803799	0.000982	20.893761
257.084047	-2.997100	3.801100	-11.391000	22.785040	0.000982	20.924278
258.087195	-3.018600	3.799600	-11.468000	22.770044	0.000985	20.911154
259.084730	-2.997900	3.799500	-11.389000	22.789474	0.000984	20.925400
260.099542	-3.005300	3.798000	-11.413000	22.767824	0.000985	20.912249
261.092209	-2.986500	3.799400	-11.346000	22.783544	0.000985	20.918986
262.083293	-3.002100	3.799800	-11.405000	22.788924	0.000984	20.941917
263.092809	-3.002700	3.798700	-11.405000	22.806013	0.000987	20.914943
264.081984	-2.978000	3.798400	-11.311000	22.824247	0.000988	20.920881
265.089851	-3.006300	3.797700	-11.416000	22.829127	0.000988	20.921028
266.098351	-3.024100	3.796800	-11.480000	22.848136	0.000991	20.901666
267.092954	-3.001600	3.796800	-11.396000	22.853142	0.000990	20.921852
268.093416	-3.001700	3.797800	-11.398000	22.850798	0.000990	20.923297
269.095220	-3.021000	3.794600	-11.460000	22.862157	0.000990	20.919030
270.089130	-3.000300	3.795300	-11.385000	22.853586	0.000990	20.909970
271.087512	-2.982500	3.798100	-11.327000	22.851939	0.000991	20.935818
272.085762	-2.997300	3.795700	-11.376000	22.864346	0.000991	20.916007
273.084650	-3.008700	3.794700	-11.416000	22.860709	0.000992	20.947447
274.088789	-3.017100	3.795100	-11.449000	22.873262	0.000993	20.934421
275.092077	-3.012100	3.794500	-11.429000	22.884845	0.000992	20.904776
276.094418	-3.011300	3.793500	-11.421000	22.900612	0.000992	20.912037
277.086154	-3.004800	3.793500	-11.397000	22.906043	0.000996	20.932175
278.085474	-3.002600	3.793500	-11.390000	22.904245	0.000993	20.927055
279.082179	-2.994200	3.795100	-11.362000	22.911493	0.000996	20.915352
280.090307	-3.008200	3.794300	-11.413000	22.945742	0.000995	20.912207
281.090095	-2.996600	3.792600	-11.363000	22.929550	0.000993	20.919691
282.089695	-2.983200	3.793400	-11.316000	22.929774	0.000995	20.910907
283.099349	-2.983600	3.794200	-11.319000	22.941006	0.000993	20.925478
284.090816	-3.000000	3.792000	-11.376000	22.944792	0.000996	20.928323
285.097644	-3.011800	3.793000	-11.423000	22.939584	0.000997	20.917890
286.100281	-2.989000	3.792300	-11.335000	22.944865	0.000998	20.927921
287.090847	-3.025200	3.791200	-11.468000	22.934079	0.000996	20.919487
288.087900	-3.015600	3.791100	-11.431000	22.930516	0.000997	20.905961
289.090425	-3.008600	3.792300	-11.409000	22.932136	0.000997	20.906162
290.098770	-3.000200	3.791900	-11.375000	22.946906	0.001002	20.909106
291.087646	-2.969600	3.792900	-11.263000	22.964142	0.000997	20.936803
292.090458	-3.018700	3.789500	-11.438000	22.970989	0.000999	20.898622
293.097785	-2.998500	3.789800	-11.362000	22.975126	0.001002	20.893284
294.092165	-2.995100	3.790000	-11.350000	22.968825	0.001000	20.918263
295.084816	-2.989300	3.790300	-11.328000	22.951588	0.001001	20.893409
296.088997	-3.020000	3.789800	-11.443000	22.978737	0.000998	20.879833
297.091402	-3.005800	3.788500	-11.386000	22.991092	0.001003	20.891264
298.090506	-3.003000	3.787300	-11.371000	23.014231	0.001002	20.893111
299.087688	-2.990900	3.788700	-11.331000	23.014157	0.001000	20.906311
300.106758	-2.994000	3.788600	-11.340000	23.020385	0.001002	20.896905
301.090594	-2.992300	3.790000	-11.340000	23.025742	0.001004	20.895160
302.102408	-3.004900	3.787000	-11.378000	23.039614	0.001002	20.900998
303.092800	-3.019700	3.786600	-11.432000	23.021929	0.001004	20.894185
304.091439	-2.993400	3.787800	-11.336000	23.036849	0.001004	20.889220
305.094406	-2.992900	3.787100	-11.333000	23.045840	0.001004	20.889694
306.091037	-3.008000	3.787100	-11.391000	23.078940	0.001003	20.897729
307.100814	-2.994600	3.785700	-11.335000	23.109372	0.001007	20.895980
308.095204	-3.000600	3.786400	-11.360000	23.076452	0.001004	20.881487
309.106167	-3.018200	3.785100	-11.422000	23.072167	0.001005	20.895210
310.098071	-3.004200	3.786800	-11.375000	23.052093	0.001006	20.899752
311.096481	-3.008100	3.785300	-11.386000	23.056253	0.001007	20.878791
312.101496	-2.994800	3.786200	-11.337000	23.029008	0.001006	20.871882
313.106248	-2.981500	3.785800	-11.287000	23.060315	0.001006	20.874802
314.096518	-3.007100	3.782200	-11.372000	23.070228	0.001006	20.887578
315.102957	-3.018700	3.784800	-11.423000	23.054988	0.001005	20.886532
316.099139	-3.009400	3.783600	-11.386000	23.064778	0.001005	20.854619
317.102696	-2.999400	3.784100	-11.349000	23.060495	0.001004	20.879248
318.096904	-2.989100	3.783900	-11.310000	23.089538	0.001005	20.868521
319.103043	-2.992900	3.782900	-11.321000	23.083959	0.001007	20.880948
320.096550	-2.986000	3.784000	-11.298000	23.093152	0.001006	20.876410
321.100598	-2.986400	3.783200	-11.297000	23.110736	0.001007	20.874590
322.096292	-3.029500	3.780700	-11.452000	23.085834	0.001010	20.861492
323.102810	-3.006000	3.781600	-11.367000	23.090269	0.001011	20.871624
324.099941	-2.988300	3.782800	-11.303000	23.089475	0.001009	20.867985
325.111722	-2.990100	3.782000	-11.308000	23.104347	0.001009	20.883359
326.098322	-3.008300	3.781500	-11.374000	23.102032	0.001011	20.878670
327.103745	-3.004400	3.782200	-11.362000	23.094909	0.001009	20.848775
328.106421	-2.977200	3.782100	-11.259000	23.082883	0.001013	20.869440
329.108061	-2.999300	3.781000	-11.340000	23.082513	0.001011	20.873810
330.101329	-2.993700	3.781700	-11.321000	23.086301	0.001011	20.841571
331.100740	-3.002200	3.780100	-11.346000	23.131828	0.001011	20.846414
332.103565	-2.992700	3.779400	-11.309000	23.139077	0.001013	20.870272
333.109900	-2.992900	3.780700	-11.314000	23.135271	0.001013	20.856975
334.101485	-2.994500	3.780700	-11.321000	23.118389	0.001012	20.868508
335.107298	-2.985000	3.778800	-11.278000	23.144713	0.001019	20.872127
336.104102	-3.021000	3.777800	-11.412000	23.174399	0.001016	20.867735
337.104794	-2.990100	3.778600	-11.297000	23.196592	0.001014	20.852518
338.104087	-3.013000	3.777800	-11.381000	23.197117	0.001016	20.869164
339.099163	-2.982600	3.778200	-11.268000	23.218161	0.001015	20.860855
340.102097	-3.008600	3.777800	-11.364000	23.205913	0.001013	20.854745
341.105244	-2.980400	3.778400	-11.259000	23.240551	0.001017	20.855793
342.116462	-2.970900	3.777900	-11.223000	23.223520	0.001015	20.865278
343.104640	-2.990800	3.778700	-11.300000	23.210398	0.001018	20.856395
344.103828	-2.979600	3.778200	-11.257000	23.218739	0.001017	20.864280
345.106626	-2.988000	3.777100	-11.284000	23.228776	0.001019	20.850631
346.105779	-3.010800	3.776400	-11.369000	23.267949	0.001021	20.853853
347.102794	-2.992000	3.775500	-11.295000	23.265061	0.001020	20.845743
348.097521	-3.021300	3.775500	-11.405000	23.272980	0.001018	20.843248
349.100707	-3.005900	3.775300	-11.347000	23.287721	0.001019	20.849961
350.112665	-2.968900	3.775100	-11.207000	23.299601	0.001020	20.858547
351.116318	-3.009600	3.774300	-11.357000	23.315139	0.001023	20.854205
352.108891	-2.998000	3.773100	-11.311000	23.277738	0.001023	20.856551
353.111038	-2.997300	3.774600	-11.313000	23.292006	0.001023	20.838608
354.108089	-3.009500	3.773400	-11.355000	23.307918	0.001024	20.845072
355.107184	-2.984800	3.772400	-11.258000	23.287424	0.001024	20.827378
356.105228	-2.988800	3.773900	-11.278000	23.297983	0.001024	20.832271
357.105031	-2.985900	3.774500	-11.267000	23.329210	0.001022	20.845074
358.104278	-3.006600	3.772800	-11.342000	23.340713	0.001027	20.840482
359.112134	-3.003700	3.772600	-11.330000	23.341508	0.001025	20.844124
360.100298	-2.979800	3.773000	-11.242000	23.351768	0.001026	20.861518
361.103243	-3.003000	3.772600	-11.329000	23.368623	0.001027	20.833842
362.107577	-2.990400	3.771900	-11.278000	23.357197	0.001024	20.848468
363.100687	-2.986000	3.770300	-11.257000	23.346217	0.001025	20.829403
364.108081	-2.984700	3.770100	-11.251000	23.392876	0.001028	20.847718
365.106792	-2.987600	3.770800	-11.265000	23.384435	0.001025	20.842103
366.111537	-3.004900	3.770500	-11.328000	23.392353	0.001025	20.845772
367.102282	-3.003200	3.770500	-11.322000	23.368253	0.001027	20.842480
368.103746	-3.021400	3.769600	-11.389000	23.355207	0.001026	20.835569
369.112216	-2.999100	3.770200	-11.307000	23.352544	0.001027	20.839538
370.112162	-3.013000	3.768400	-11.354000	23.331580	0.001026	20.841760
371.108771	-3.020700	3.769500	-11.386000	23.337480	0.001026	20.841983
372.108715	-3.034800	3.769700	-11.438000	23.345103	0.001026	20.851046
373.107527	-2.997600	3.766900	-11.291000	23.360068	0.001026	20.844708
374.110768	-3.006100	3.767500	-11.324000	23.354615	0.001029	20.851095
375.119376	-2.992000	3.768500	-11.274000	23.336141	0.001028	20.836374
376.116727	-3.009100	3.767800	-11.336000	23.363806	0.001028	20.823324
377.108437	-3.000400	3.767400	-11.301000	23.347374	0.001027	20.864226
378.131120	-2.983200	3.766600	-11.236000	23.353949	0.001030	20.845687
379.106187	-3.015100	3.765200	-11.351000	23.361219	0.001029	20.826422
380.109639	-3.025700	3.764200	-11.388000	23.383281	0.001028	20.832412
381.125684	-3.000300	3.766200	-11.297000	23.414753	0.001030	20.841197
382.118538	-2.994400	3.766200	-11.276000	23.370710	0.001027	20.834037
383.113214	-2.982300	3.766200	-11.231000	23.400043	0.001033	20.850160
384.112098	-2.996600	3.765800	-11.283000	23.427955	0.001029	20.801325
385.119945	-3.007300	3.763800	-11.318000	23.460199	0.001032	20.848342
386.116501	-2.989400	3.765200	-11.255000	23.464159	0.001031	20.807268
387.117227	-2.982000	3.764100	-11.223000	23.484651	0.001032	20.818798
388.126101	-2.997600	3.763100	-11.279000	23.478008	0.001032	20.838692
389.121474	-3.013700	3.763600	-11.341000	23.473600	0.001030	20.803454
390.106587	-3.026800	3.761100	-11.382000	23.465285	0.001033	20.825466
391.109230	-2.993500	3.761800	-11.259000	23.448909	0.001031	20.816163
392.118203	-2.995200	3.763200	-11.271000	23.427997	0.001035	20.801841
393.124604	-2.975200	3.762100	-11.191000	23.427551	0.001032	20.826050
394.116549	-3.029700	3.761500	-11.394000	23.447347	0.001033	20.825029
395.119689	-3.003400	3.761300	-11.296000	23.456959	0.001033	20.825655
396.113293	-2.995000	3.761400	-11.265000	23.451186	0.001034	20.820342
397.112298	-3.017700	3.759700	-11.345000	23.478275	0.001030	20.813356
398.124445	-2.994300	3.760200	-11.256000	23.483555	0.001032	20.802053
399.116564	-2.979900	3.761700	-11.208000	23.507659	0.001032	20.826689
400.115262	-3.000900	3.760300	-11.283000	23.515579	0.001034	20.816135
401.113261	-3.011000	3.760000	-11.320000	23.528253	0.001033	20.811297
402.124051	-2.996000	3.761300	-11.267000	23.529474	0.001035	20.816788
403.115189	-3.013200	3.759000	-11.326000	23.517254	0.001034	20.804539
404.119128	-2.992800	3.759200	-11.249000	23.536774	0.001033	20.822683
405.118384	-2.994700	3.758000	-11.253000	23.546685	0.001033	20.815548
406.125044	-3.012200	3.757200	-11.315000	23.564688	0.001031	20.797086
407.113895	-3.009000	3.758500	-11.308000	23.554361	0.001036	20.801906
408.117882	-3.001400	3.757800	-11.277000	23.566461	0.001036	20.822096
409.114183	-2.994000	3.757300	-11.248000	23.581648	0.001033	20.801285
410.112757	-2.999600	3.758400	-11.272000	23.610079	0.001037	20.797544
411.136546	-2.984700	3.758000	-11.215000	23.612124	0.001038	20.800068
412.123699	-2.986100	3.757000	-11.218000	23.581781	0.001036	20.806160
413.116889	-2.991000	3.756800	-11.236000	23.559179	0.001040	20.788718
414.144374	-3.004600	3.755300	-11.282000	23.514693	0.001039	20.792963
415.129514	-2.983200	3.756100	-11.204000	23.539491	0.001040	20.797431
416.118461	-2.998300	3.755100	-11.258000	23.535858	0.001040	20.790944
417.115241	-3.015100	3.753400	-11.316000	23.534143	0.001039	20.808192
418.120546	-2.994300	3.754700	-11.241000	23.518683	0.001040	20.787004
419.117381	-3.009300	3.754200	-11.297000	23.529069	0.001040	20.809744
420.131022	-3.001800	3.754700	-11.268000	23.541119	0.001037	20.809969
421.115843	-2.992600	3.754200	-11.234000	23.552647	0.001038	20.788809
422.118903	-2.974100	3.754700	-11.166000	23.544034	0.001040	20.795822
423.124791	-3.013000	3.752200	-11.305000	23.565720	0.001040	20.789111
424.126290	-2.980700	3.752800	-11.186000	23.565175	0.001039	20.788565
425.119370	-2.999200	3.752200	-11.253000	23.571574	0.001040	20.789764
426.126178	-3.005000	3.753100	-11.277000	23.554573	0.001042	20.797378
427.115465	-3.031000	3.752000	-11.370000	23.548053	0.001041	20.787996
428.124874	-3.008200	3.751000	-11.283000	23.553233	0.001041	20.782758
429.122621	-3.006000	3.751000	-11.274000	23.576214	0.001038	20.797261
430.116841	-3.024000	3.750800	-11.341000	23.555355	0.001040	20.785359
431.124645	-2.993100	3.751000	-11.226000	23.553713	0.001040	20.790352
432.123006	-3.010800	3.749900	-11.289000	23.544033	0.001040	20.797243
433.119770	-2.987000	3.749600	-11.200000	23.538931	0.001044	20.778852
434.119631	-2.996800	3.751000	-11.240000	23.592655	0.001041	20.780076
435.118053	-3.001300	3.750300	-11.255000	23.571895	0.001042	20.784870
436.118809	-2.970200	3.751100	-11.141000	23.614094	0.001037	20.781181
437.115475	-2.990100	3.750000	-11.211000	23.623133	0.001041	20.767482
438.125759	-2.985200	3.749900	-11.194000	23.677476	0.001040	20.789246
439.121006	-2.998800	3.748700	-11.240000	23.674339	0.001041	20.778514
440.120832	-3.027500	3.747000	-11.343000	23.671954	0.001042	20.783236
441.117602	-3.011300	3.748200	-11.286000	23.673697	0.001040	20.782139
442.123600	-2.994000	3.746200	-11.215000	23.685199	0.001042	20.770436
443.125933	-3.006900	3.747500	-11.268000	23.681121	0.001043	20.774408
444.135933	-3.015300	3.746200	-11.295000	23.716146	0.001041	20.774909
445.132936	-3.034400	3.744500	-11.361000	23.713932	0.001042	20.764155
446.126802	-3.007800	3.745500	-11.264000	23.725882	0.001042	20.771868
447.142977	-2.994400	3.744900	-11.213000	23.725659	0.001042	20.792982
448.125310	-3.007300	3.746000	-11.264000	23.718864	0.001048	20.770048
449.126668	-3.042900	3.743400	-11.388000	23.720286	0.001046	20.774792
450.128438	-2.998700	3.745000	-11.229000	23.733404	0.001044	20.755702
451.125937	-2.987100	3.742700	-11.179000	23.761232	0.001043	20.776491
452.123411	-2.986000	3.746000	-11.185000	23.756205	0.001047	20.768132
453.134980	-2.997900	3.744400	-11.224000	23.732587	0.001043	20.783332
454.138405	-3.013400	3.743000	-11.278000	23.743538	0.001047	20.789097
455.136348	-2.998400	3.744300	-11.225000	23.723078	0.001045	20.768584
456.144309	-3.011500	3.743300	-11.272000	23.762083	0.001045	20.774499
457.126492	-2.978900	3.742900	-11.149000	23.760613	0.001048	20.774922
458.133105	-3.017300	3.741000	-11.287000	23.759342	0.001044	20.745198
459.127975	-2.997900	3.742700	-11.218000	23.745333	0.001044	20.762921
460.132282	-2.991300	3.742300	-11.193000	23.720293	0.001044	20.764842
461.132480	-2.991000	3.740500	-11.187000	23.744214	0.001045	20.766066
462.135382	-3.009400	3.741400	-11.259000	23.756260	0.001044	20.765816
463.132280	-2.987500	3.740400	-11.173000	23.761937	0.001044	20.761550
464.127148	-3.002800	3.739800	-11.229000	23.769553	0.001045	20.772506
465.131692	-2.971400	3.742200	-11.118000	23.760942	0.001045	20.753440
466.131966	-3.012100	3.739600	-11.263000	23.773537	0.001043	20.777449
467.140658	-2.982800	3.740700	-11.155000	23.791884	0.001041	20.766446
468.132773	-3.002100	3.739100	-11.225000	23.766570	0.001046	20.770937
469.138345	-3.001800	3.739000	-11.223000	23.767867	0.001045	20.738098
470.130632	-3.007400	3.738000	-11.241000	23.788975	0.001043	20.754520
471.137325	-3.023900	3.737100	-11.300000	23.788479	0.001044	20.745014
472.134598	-3.006200	3.737200	-11.233000	23.787511	0.001047	20.749259
473.134012	-3.009200	3.735600	-11.241000	23.777806	0.001043	20.758494
474.131665	-2.993700	3.737000	-11.186000	23.778157	0.001044	20.761218
475.133529	-3.003500	3.735800	-11.219000	23.768749	0.001045	20.746568
476.138931	-3.002800	3.735500	-11.215000	23.793216	0.001044	20.742176
477.132194	-2.978000	3.736400	-11.126000	23.764819	0.001044	20.764914
478.135354	-2.973800	3.737100	-11.112000	23.749017	0.001045	20.753812
479.138599	-2.983600	3.736000	-11.146000	23.776001	0.001043	20.752891
480.135541	-3.028400	3.733500	-11.304000	23.787977	0.001046	20.758261
481.138544	-3.015100	3.734900	-11.260000	23.775357	0.001045	20.738969
482.134686	-3.011100	3.735400	-11.247000	23.761945	0.001045	20.741643
483.132992	-2.993000	3.733800	-11.174000	23.760155	0.001044	20.757392
484.143703	-3.007900	3.733200	-11.228000	23.766555	0.001047	20.744843
485.143816	-3.008600	3.732900	-11.230000	23.797618	0.001048	20.763661
486.132346	-3.013900	3.732400	-11.248000	23.821563	0.001049	20.749262
487.141178	-3.008900	3.732700	-11.231000	23.846977	0.001048	20.739657
488.141086	-3.005100	3.733900	-11.219000	23.852528	0.001049	20.752810
489.136168	-3.007200	3.731600	-11.220000	23.875901	0.001047	20.778618
490.148934	-3.009400	3.731900	-11.229000	23.907558	0.001047	20.747299
491.136761	-3.015700	3.730700	-11.248000	23.899619	0.001050	20.744553
492.135581	-2.978700	3.732400	-11.116000	23.949245	0.001049	20.740263
493.135396	-3.009100	3.729800	-11.222000	23.945487	0.001049	20.747875
494.132586	-2.992300	3.730700	-11.162000	23.955543	0.001047	20.745630
495.136071	-3.002200	3.730800	-11.200000	23.954798	0.001049	20.752470
496.142312	-2.994100	3.730700	-11.169000	23.969332	0.001050	20.740491
497.133761	-2.996200	3.730900	-11.177000	23.979357	0.001050	20.753865
498.146125	-2.980000	3.730000	-11.114000	24.003201	0.001053	20.734628
499.144179	-3.017800	3.728200	-11.250000	24.015794	0.001048	20.732083
500.136921	-3.019100	3.727600	-11.253000	24.010043	0.001048	20.735325
501.143056	-3.002100	3.729300	-11.194000	24.001161	0.001047	20.752497
502.138649	-2.987500	3.727500	-11.134000	24.003402	0.001049	20.741941
503.136444	-2.989700	3.728100	-11.144000	23.981952	0.001048	20.729439
504.149079	-2.991600	3.727300	-11.149000	23.963240	0.001049	20.731063
505.145714	-3.016400	3.727100	-11.241000	23.958162	0.001048	20.752525
506.149648	-3.005900	3.726600	-11.201000	23.951570	0.001047	20.735008
507.145583	-3.005400	3.727300	-11.200000	23.957645	0.001048	20.743945
508.143597	-3.003400	3.727500	-11.193000	23.993156	0.001046	20.755375
509.139616	-3.026500	3.725600	-11.274000	23.961056	0.001047	20.749737
510.145199	-3.002300	3.726200	-11.186000	23.968300	0.001048	20.735663
511.156796	-2.970100	3.726000	-11.065000	23.959693	0.001049	20.744576
512.143865	-2.991600	3.724800	-11.142000	23.981220	0.001046	20.736292
513.144496	-2.994600	3.725300	-11.155000	24.000382	0.001048	20.743181
514.137206	-3.011600	3.723900	-11.214000	24.003370	0.001047	20.744755
515.154386	-3.021900	3.724000	-11.253000	24.022013	0.001046	20.747804
516.143544	-3.013300	3.723200	-11.217000	24.034330	0.001048	20.747828
517.146372	-2.995000	3.723000	-11.148000	24.038989	0.001049	20.740172
518.143826	-2.985800	3.724200	-11.119000	24.066834	0.001047	20.745339
519.143696	-3.024900	3.722900	-11.260000	24.090825	0.001047	20.734311
520.141332	-3.014200	3.722900	-11.220000	24.061760	0.001050	20.735982
521.145229	-3.008500	3.722600	-11.198000	24.052007	0.001048	20.739003
522.154976	-2.993300	3.723500	-11.144000	24.084258	0.001048	20.748115
523.142063	-3.044800	3.719100	-11.323000	24.104738	0.001049	20.744947
524.155592	-2.990200	3.721100	-11.126000	24.107600	0.001047	20.744023
525.152392	-2.984700	3.721800	-11.108000	24.059750	0.001050	20.730173
526.160453	-2.992200	3.721300	-11.133000	24.070374	0.001049	20.751734
527.149643	-2.988700	3.719900	-11.116000	24.060300	0.001049	20.756330
528.142734	-2.997500	3.720800	-11.152000	24.056490	0.001050	20.754880
529.145986	-2.997900	3.720600	-11.153000	24.061617	0.001051	20.737261
530.153481	-3.016400	3.719700	-11.220000	24.067095	0.001048	20.763144
531.155360	-3.017800	3.718600	-11.222000	24.066020	0.001049	20.759222
532.145257	-2.999600	3.718400	-11.151000	24.088043	0.001051	20.734840
533.155122	-3.021500	3.718700	-11.235000	24.085206	0.001049	20.753333
534.162436	-2.983100	3.718100	-11.091000	24.087048	0.001052	20.750913
535.146286	-2.993900	3.717600	-11.129000	24.099087	0.001049	20.737856
536.149573	-2.998500	3.717800	-11.146000	24.103567	0.001049	20.728125
537.141163	-2.986600	3.718100	-11.103000	24.112547	0.001049	20.760840
538.146330	-2.991600	3.718400	-11.123000	24.104062	0.001050	20.756597
539.143960	-2.987100	3.716500	-11.100000	24.151286	0.001049	20.757019
540.149010	-3.005100	3.716100	-11.166000	24.154197	0.001048	20.749033
541.149197	-3.003600	3.715700	-11.160000	24.152830	0.001047	20.758094
542.141253	-2.989200	3.715800	-11.106000	24.178331	0.001048	20.751903
543.145843	-2.982300	3.717100	-11.085000	24.171289	0.001048	20.769971
544.146187	-2.996100	3.715300	-11.130000	24.105129	0.001050	20.767625
545.142866	-2.997300	3.714100	-11.132000	24.117242	0.001052	20.756540
546.148541	-2.997800	3.714200	-11.134000	24.119656	0.001049	20.751374
547.153398	-3.019800	3.712400	-11.209000	24.121497	0.001051	20.750376
548.148048	-3.009000	3.714100	-11.175000	24.167428	0.001052	20.757089
549.157020	-3.008500	3.712600	-11.168000	24.155681	0.001051	20.754790
550.147631	-2.995100	3.712300	-11.118000	24.165136	0.001050	20.755264
551.155704	-3.004800	3.713200	-11.156000	24.136422	0.001050	20.762500
552.154568	-3.017700	3.712500	-11.202000	24.138113	0.001051	20.776998
553.148023	-3.002700	3.712400	-11.147000	24.141221	0.001047	20.766840
554.148281	-2.993800	3.712100	-11.113000	24.123331	0.001049	20.758379
555.149382	-3.016200	3.710700	-11.192000	24.156498	0.001050	20.773627
556.151907	-2.997800	3.713000	-11.129000	24.154505	0.001049	20.775896
557.153197	-2.987800	3.712100	-11.090000	24.196801	0.001048	20.766636
558.159112	-2.975700	3.712100	-11.045000	24.154530	0.001048	20.776395
559.146939	-2.985700	3.711300	-11.080000	24.167017	0.001047	20.783229
560.151905	-3.017400	3.708800	-11.188000	24.180600	0.001046	20.769826
561.145802	-3.005700	3.709000	-11.147000	24.185327	0.001049	20.768877
562.150304	-2.998700	3.708500	-11.119000	24.174976	0.001048	20.758495
563.154555	-3.009400	3.708800	-11.159000	24.190153	0.001048	20.777038
564.148518	-2.990300	3.708900	-11.090000	24.188985	0.001048	20.776340
565.150638	-2.994600	3.709500	-11.107000	24.230335	0.001050	20.782253
566.159124	-3.000900	3.707600	-11.125000	24.210481	0.001047	20.784150
567.156193	-3.016200	3.707400	-11.181000	24.186418	0.001048	20.769972
568.151530	-2.980600	3.707900	-11.050000	24.192393	0.001048	20.770749
569.157717	-2.990700	3.706500	-11.084000	24.206795	0.001047	20.773815
570.161312	-3.025200	3.706700	-11.211000	24.213265	0.001047	20.780304
571.154039	-3.026300	3.706400	-11.215000	24.213166	0.001047	20.786843
572.157738	-2.988700	3.705800	-11.074000	24.221702	0.001047	20.775965
573.163769	-3.004100	3.705300	-11.130000	24.207449	0.001045	20.772100
574.159870	-3.003900	3.704700	-11.125000	24.185728	0.001046	20.773547
575.160209	-3.006800	3.704200	-11.137000	24.180130	0.001045	20.778363
576.170509	-3.002600	3.705300	-11.124000	24.187570	0.001045	20.783455
577.158039	-2.997700	3.705500	-11.106000	24.220262	0.001045	20.775469
578.162830	-3.006200	3.704400	-11.135000	24.234245	0.001046	20.767684
579.155211	-2.991200	3.703600	-11.077000	24.241435	0.001045	20.783430
580.158946	-2.971100	3.704400	-11.004000	24.242930	0.001047	20.777817
581.161705	-3.028500	3.701600	-11.208000	24.246461	0.001045	20.786101
582.160892	-3.008300	3.703000	-11.139000	24.249548	0.001046	20.791094
583.165983	-3.002200	3.703600	-11.118000	24.251738	0.001043	20.751564
584.164778	-2.986800	3.704400	-11.063000	24.226585	0.001046	20.770432
585.166509	-3.031200	3.701700	-11.220000	24.226558	0.001044	20.777517
586.158194	-2.972600	3.701700	-11.003000	24.220814	0.001045	20.792618
587.160453	-3.005700	3.701000	-11.123000	24.244073	0.001047	20.760946
588.167147	-2.980000	3.701900	-11.030000	24.272287	0.001044	20.800152
589.166762	-3.008300	3.700900	-11.132000	24.278157	0.001045	20.779488
590.158815	-2.991000	3.700800	-11.067000	24.284425	0.001045	20.779612
591.158696	-2.988800	3.700200	-11.058000	24.308906	0.001045	20.805591
592.162112	-2.984300	3.700800	-11.042000	24.293357	0.001045	20.790942
593.160249	-3.001900	3.700600	-11.107000	24.318684	0.001046	20.800701
594.158092	-3.010000	3.698600	-11.131000	24.304800	0.001043	20.776343
595.162768	-3.011500	3.699700	-11.141000	24.313108	0.001045	20.807910
596.160530	-3.013400	3.698800	-11.146000	24.311937	0.001044	20.774967
597.161940	-2.994800	3.699900	-11.079000	24.300571	0.001046	20.794385
598.164964	-3.010300	3.697000	-11.127000	24.304224	0.001045	20.804213
599.169106	-3.007900	3.698100	-11.122000	24.298329	0.001046	20.795455
600.165086	-2.976700	3.698300	-11.007000	24.283027	0.001046	20.786744
601.176926	-2.991400	3.697000	-11.058000	24.288227	0.001046	20.776787
602.164705	-2.995100	3.696900	-11.071000	24.321386	0.001046	20.792980
603.167542	-2.979400	3.696200	-11.012000	24.348328	0.001044	20.783497
604.163753	-2.980900	3.696800	-11.019000	24.394796	0.001043	20.777956
605.163218	-2.993800	3.695600	-11.062000	24.389171	0.001044	20.822099
606.171725	-2.981900	3.695800	-11.019000	24.388251	0.001042	20.804580
607.168757	-3.002400	3.695700	-11.094000	24.399295	0.001042	20.799539
608.172331	-3.004100	3.695100	-11.099000	24.385115	0.001043	20.800487
609.166198	-3.019400	3.694200	-11.153000	24.389218	0.001042	20.804129
610.176634	-3.006700	3.694800	-11.107000	24.371857	0.001045	20.811367
611.165825	-3.002600	3.694100	-11.089000	24.369043	0.001044	20.817554
612.164782	-3.004700	3.694700	-11.101000	24.401955	0.001043	20.806000
613.174260	-2.980600	3.695000	-11.012000	24.387677	0.001044	20.813013
614.168678	-3.025100	3.690500	-11.162000	24.368073	0.001044	20.825589
615.168884	-2.993600	3.694200	-11.058000	24.363319	0.001046	20.814182
616.176180	-2.987700	3.692900	-11.032000	24.394714	0.001044	20.815332
617.165804	-2.988600	3.692500	-11.035000	24.404439	0.001043	20.792846
618.164202	-3.016400	3.691800	-11.134000	24.396753	0.001042	20.820222
619.175754	-3.002000	3.691600	-11.082000	24.367820	0.001043	20.817276
620.172756	-2.981200	3.692900	-11.007000	24.341025	0.001042	20.820741
621.181869	-3.021800	3.691400	-11.154000	24.316198	0.001043	20.807691
622.171564	-3.012500	3.690500	-11.117000	24.310326	0.001042	20.821240
623.172266	-2.976700	3.692300	-10.990000	24.339282	0.001041	20.827528
624.168887	-3.015300	3.690500	-11.127000	24.334630	0.001043	20.811481
625.177242	-2.966200	3.690600	-10.946000	24.346221	0.001039	20.820738
626.169249	-2.996700	3.689100	-11.054000	24.348978	0.001041	20.821607
627.176364	-3.008000	3.688200	-11.092000	24.336117	0.001042	20.814870
628.176720	-2.990400	3.689600	-11.032000	24.359525	0.001041	20.822230
629.171360	-3.007100	3.688800	-11.091000	24.386741	0.001041	20.822506
630.173508	-2.985400	3.689600	-11.014000	24.413629	0.001041	20.842842
631.169756	-2.999500	3.687000	-11.058000	24.400096	0.001040	20.827369
632.184894	-2.992400	3.687700	-11.034000	24.411063	0.001040	20.811345
633.187523	-3.010700	3.685800	-11.096000	24.451857	0.001041	20.817183
634.171119	-2.992500	3.687500	-11.034000	24.472355	0.001039	20.825894
635.180437	-3.003100	3.685300	-11.067000	24.439770	0.001038	20.831135
636.185336	-2.998300	3.686100	-11.052000	24.453176	0.001037	20.827515
637.178367	-3.008300	3.686000	-11.088000	24.460636	0.001037	20.828836
638.182153	-2.996700	3.684900	-11.041000	24.488446	0.001039	20.827339
639.172869	-2.999400	3.685600	-11.054000	24.482997	0.001037	20.810967
640.187567	-3.035200	3.684300	-11.181000	24.475186	0.001041	20.824467
641.180634	-2.983800	3.685400	-10.994000	24.446807	0.001039	20.819703
642.181892	-3.020200	3.684200	-11.124000	24.435783	0.001038	20.819549
643.183714	-2.995500	3.685100	-11.037000	24.457472	0.001039	20.845100
644.179499	-2.996000	3.683200	-11.033000	24.453169	0.001037	20.824189
645.177941	-2.995000	3.684800	-11.034000	24.475428	0.001040	20.825184
646.181116	-2.980600	3.683700	-10.979000	24.471944	0.001040	20.842551
647.182470	-2.991900	3.683500	-11.020000	24.457145	0.001039	20.847143
648.179471	-2.995900	3.683400	-11.034000	24.483062	0.001036	20.835213
649.179143	-3.000900	3.683200	-11.051000	24.483532	0.001038	20.837581
650.191224	-3.017900	3.681300	-11.109000	24.522183	0.001038	20.834635
651.178533	-3.020500	3.681600	-11.118000	24.523675	0.001038	20.852726
652.179306	-3.000900	3.682600	-11.050000	24.543147	0.001037	20.860883
653.177509	-3.002700	3.682100	-11.055000	24.590055	0.001035	20.840620
654.179157	-2.986300	3.682900	-10.997000	24.566002	0.001037	20.843986
655.179138	-3.006700	3.680000	-11.063000	24.545802	0.001035	20.835099
656.182394	-2.988800	3.680900	-11.001000	24.575252	0.001036	20.838569
657.177106	-3.009900	3.678300	-11.070000	24.551372	0.001035	20.862497
658.178484	-2.990800	3.679100	-11.002000	24.582784	0.001037	20.869358
659.187181	-3.005900	3.679400	-11.059000	24.582309	0.001034	20.850390
660.181369	-2.979900	3.680400	-10.964000	24.585941	0.001034	20.840759
661.181205	-3.013000	3.678700	-11.081000	24.589793	0.001035	20.867856
662.181678	-2.987200	3.678100	-10.987000	24.621404	0.001034	20.845996
663.186917	-2.986800	3.678600	-10.986000	24.624858	0.001033	20.845669
664.184925	-3.007300	3.677500	-11.058000	24.598393	0.001032	20.838554
665.192034	-2.999200	3.677800	-11.030000	24.524996	0.001033	20.867327
666.188514	-3.004800	3.677700	-11.048000	24.552777	0.001030	20.859166
667.185561	-2.997200	3.676700	-11.018000	24.516735	0.001032	20.868996
668.184663	-3.034800	3.675400	-11.153000	24.522802	0.001033	20.849954
669.188029	-2.997300	3.675700	-11.015000	24.526706	0.001032	20.862879
670.187638	-2.992300	3.676600	-11.001000	24.488077	0.001031	20.878649
671.191492	-3.013200	3.676400	-11.076000	24.493348	0.001031	20.850274
672.187284	-2.996500	3.674400	-11.009000	24.493123	0.001033	20.859056
673.189018	-3.011800	3.674400	-11.065000	24.464242	0.001033	20.866590
674.198097	-3.006900	3.674600	-11.048000	24.567118	0.001032	20.867864
675.190570	-3.020700	3.673400	-11.095000	24.583432	0.001032	20.875224
676.188947	-2.984000	3.674600	-10.964000	24.613624	0.001033	20.870431
677.202382	-2.984300	3.675500	-10.968000	24.625487	0.001034	20.870006
678.199742	-3.001400	3.674900	-11.029000	24.632798	0.001030	20.870704
679.195280	-3.000100	3.673400	-11.020000	24.597085	0.001030	20.863319
680.194355	-3.016700	3.672700	-11.079000	24.582708	0.001031	20.862170
681.192812	-2.987100	3.674100	-10.973000	24.590964	0.001033	20.867134
682.208778	-2.999900	3.672900	-11.017000	24.615111	0.001030	20.871449
683.200558	-3.016500	3.672600	-11.078000	24.627221	0.001030	20.875065
684.198000	-2.986300	3.672100	-10.964000	24.647367	0.001031	20.873943
685.196384	-2.998800	3.672000	-11.011000	24.656966	0.001030	20.868403
686.193150	-2.958700	3.672500	-10.864000	24.642019	0.001033	20.877585
687.199130	-2.996000	3.670700	-10.997000	24.629535	0.001031	20.884972
688.196727	-2.991700	3.671100	-10.982000	24.626422	0.001030	20.876634
689.211571	-3.018300	3.671000	-11.078000	24.678275	0.001030	20.884094
690.196979	-3.005000	3.669400	-11.026000	24.687057	0.001032	20.871096
691.205909	-2.987600	3.669100	-10.961000	24.690214	0.001031	20.862885
692.201293	-2.999200	3.669800	-11.006000	24.695233	0.001029	20.894946
693.206597	-3.018700	3.668700	-11.074000	24.668423	0.001028	20.896493
694.213560	-3.000500	3.669400	-11.008000	24.676432	0.001029	20.879874
695.207185	-3.007100	3.666900	-11.025000	24.697794	0.001028	20.873810
696.198557	-3.008700	3.669500	-11.040000	24.709978	0.001031	20.879397
697.200674	-2.998200	3.668000	-10.996000	24.727809	0.001028	20.890652
698.205417	-3.031700	3.667100	-11.116000	24.690677	0.001027	20.879469
699.198856	-2.998500	3.666800	-10.993000	24.690454	0.001026	20.876401
700.203891	-3.035400	3.665800	-11.125000	24.708083	0.001028	20.877496
701.204216	-3.011700	3.666400	-11.040000	24.726807	0.001026	20.902922
702.196826	-2.998700	3.668200	-10.998000	24.733420	0.001028	20.897705
703.214263	-3.015900	3.665800	-11.055000	24.703207	0.001028	20.891094
704.203114	-2.983400	3.667400	-10.941000	24.695444	0.001026	20.893261
705.203660	-2.999900	3.665300	-10.994000	24.703303	0.001023	20.886450
706.201786	-2.973100	3.665700	-10.898000	24.748886	0.001025	20.911327
707.200199	-2.986300	3.666900	-10.949000	24.757438	0.001025	20.891462
708.200338	-2.991600	3.664300	-10.961000	24.740129	0.001025	20.892584
709.198314	-2.994600	3.665000	-10.974000	24.716527	0.001023	20.899244
710.203703	-2.993900	3.663900	-10.968000	24.749005	0.001023	20.907654
711.213630	-3.024800	3.663500	-11.079000	24.747338	0.001024	20.903610
712.204278	-2.990200	3.664400	-10.955000	24.759721	0.001023	20.900391
713.210527	-3.009100	3.664600	-11.024000	24.752708	0.001024	20.899043
714.202638	-2.995500	3.662600	-10.970000	24.753851	0.001024	20.902560
715.201954	-2.978500	3.664600	-10.912000	24.746690	0.001021	20.900115
716.209450	-3.002100	3.661200	-10.990000	24.716299	0.001021	20.926988
717.217189	-3.010600	3.662100	-11.023000	24.691432	0.001021	20.913889
718.204016	-2.986100	3.661400	-10.933000	24.700810	0.001023	20.912869
719.206728	-2.995900	3.661300	-10.968000	24.707200	0.001023	20.896524
720.206213	-2.985100	3.662300	-10.931000	24.682603	0.001020	20.914987
721.208736	-3.014100	3.660500	-11.032000	24.684718	0.001021	20.912368
722.207974	-2.999900	3.659400	-10.977000	24.723985	0.001020	20.912417
723.217566	-3.021600	3.659200	-11.055000	24.726523	0.001021	20.912594
724.218819	-3.011700	3.658700	-11.018000	24.780733	0.001020	20.909148
725.220254	-2.980600	3.660200	-10.909000	24.781057	0.001021	20.922274
726.216216	-2.996900	3.659300	-10.966000	24.831984	0.001020	20.899892
727.208301	-3.002800	3.658800	-10.985000	24.813808	0.001016	20.918159
728.208139	-2.982200	3.660500	-10.915000	24.829896	0.001019	20.917235
729.205816	-2.963500	3.658800	-10.843000	24.834472	0.001018	20.889114
730.219370	-3.012300	3.658100	-11.018000	24.836886	0.001018	20.912397
731.212120	-2.978200	3.658800	-10.895000	24.831887	0.001017	20.928715
732.210524	-2.999200	3.657900	-10.970000	24.841462	0.001019	20.910826
733.218780	-2.981400	3.657900	-10.905000	24.811327	0.001014	20.905712
734.220953	-3.001100	3.657300	-10.975000	24.795834	0.001018	20.917190
735.221776	-2.979300	3.657600	-10.896000	24.809486	0.001017	20.916192
736.212112	-2.996800	3.655400	-10.953000	24.788178	0.001015	20.923257
737.214193	-3.001000	3.656400	-10.972000	24.798024	0.001019	20.908009
738.214884	-3.021400	3.655000	-11.041000	24.795639	0.001019	20.911305
739.214021	-3.010200	3.655600	-11.003000	24.777982	0.001018	20.910655
740.214005	-2.995800	3.655400	-10.951000	24.787382	0.001016	20.900174
741.212788	-3.018500	3.655400	-11.032000	24.818938	0.001019	20.911928
742.212046	-2.992700	3.656200	-10.941000	24.817894	0.001017	20.914673
743.222834	-3.006600	3.654400	-10.986000	24.852207	0.001016	20.898377
744.218622	-2.983000	3.655100	-10.901000	24.860363	0.001017	20.896131
745.217964	-3.030200	3.653800	-11.070000	24.841143	0.001013	20.917143
746.214453	-3.015800	3.654300	-11.019000	24.850389	0.001017	20.879959
747.211634	-2.996500	3.654800	-10.951000	24.841539	0.001014	20.886723
748.219110	-3.010400	3.654100	-10.999000	24.842407	0.001014	20.889965
749.215921	-3.006100	3.652600	-10.978000	24.866925	0.001015	20.898449
750.214099	-3.005900	3.651900	-10.976000	24.872916	0.001015	20.891186
751.214653	-2.984600	3.653600	-10.903000	24.890843	0.001014	20.911548
752.220234	-3.022500	3.651100	-11.035000	24.883309	0.001014	20.897350
753.226778	-2.990300	3.651700	-10.919000	24.885370	0.001016	20.911271
754.216430	-2.983800	3.652800	-10.897000	24.901207	0.001013	20.891606
755.216383	-3.004500	3.651900	-10.971000	24.940989	0.001016	20.872741
756.216419	-3.005200	3.650600	-10.969000	24.931565	0.001017	20.893627
757.220292	-2.978400	3.651000	-10.873000	24.940413	0.001012	20.887809
758.214561	-2.989800	3.649500	-10.911000	24.951528	0.001013	20.906550
759.220592	-2.997900	3.651500	-10.946000	24.989989	0.001013	20.875931
760.225121	-2.985400	3.648900	-10.892000	24.991379	0.001011	20.898187
761.216606	-2.999200	3.649100	-10.943000	24.999833	0.001012	20.897189
762.221769	-3.006100	3.647600	-10.964000	24.992245	0.001012	20.891470
763.230974	-2.986800	3.650300	-10.901000	24.985308	0.001010	20.892094
764.221342	-2.983100	3.647900	-10.881000	24.989409	0.001012	20.869184
765.224097	-2.993600	3.647600	-10.918000	24.960096	0.001009	20.890021
766.220930	-3.000900	3.647900	-10.946000	24.959943	0.001011	20.886074
767.221938	-3.023200	3.645800	-11.021000	24.948729	0.001009	20.861544
768.224026	-3.001100	3.646700	-10.943000	24.897810	0.001008	20.886300
769.223764	-3.005500	3.647800	-10.962000	24.879108	0.001008	20.896453
770.235532	-3.001100	3.646200	-10.941000	24.855037	0.001007	20.877511
771.224829	-3.006600	3.645700	-10.960000	24.881293	0.001010	20.882999
772.224012	-2.993000	3.646100	-10.912000	24.889423	0.001008	20.873142
773.232346	-2.987800	3.646100	-10.892000	24.873831	0.001008	20.890208
774.226239	-2.998600	3.644900	-10.928000	24.890863	0.001006	20.879802
775.232750	-2.990300	3.644800	-10.897000	24.935992	0.001007	20.896173
776.226740	-3.007900	3.643700	-10.959000	24.946160	0.001004	20.879827
777.224741	-2.988300	3.645600	-10.892000	24.944542	0.001004	20.867773
778.226977	-3.009300	3.644200	-10.965000	24.960132	0.001003	20.878204
779.226943	-2.985400	3.644400	-10.879000	24.949964	0.001004	20.884593
780.226844	-2.979300	3.643500	-10.853000	24.980867	0.001004	20.870568
781.229309	-3.001200	3.642800	-10.931000	25.001429	0.001001	20.871767
782.224175	-3.001000	3.643400	-10.933000	24.956357	0.001004	20.898121
783.232358	-2.983300	3.643200	-10.867000	24.971098	0.001002	20.883521
784.227120	-3.004700	3.642600	-10.944000	24.956458	0.001002	20.869776
785.226186	-3.007900	3.642700	-10.956000	24.976049	0.001002	20.863362
786.234308	-2.989600	3.642800	-10.890000	24.978760	0.001002	20.858022
787.227807	-2.999100	3.642700	-10.924000	24.955363	0.001000	20.870573
788.239391	-2.989700	3.640800	-10.884000	24.940723	0.001002	20.885275
789.226493	-2.982400	3.641800	-10.860000	24.926353	0.001001	20.871327
790.233443	-3.020700	3.640500	-10.996000	24.908401	0.000999	20.874646
791.226346	-3.006100	3.640900	-10.944000	24.920884	0.001001	20.871528
792.238138	-2.990900	3.640900	-10.888000	24.897787	0.001000	20.867313
793.227870	-2.994100	3.640600	-10.900000	24.886375	0.001001	20.850644
794.239721	-2.987000	3.639700	-10.871000	24.887320	0.001000	20.840687
795.236129	-3.007900	3.639900	-10.947000	24.921932	0.001001	20.869735
796.228896	-2.983500	3.639600	-10.857000	24.935160	0.001003	20.861675
797.234791	-2.990100	3.640200	-10.884000	25.002042	0.001000	20.870011
798.231293	-2.996200	3.637400	-10.897000	25.007463	0.000998	20.868814
799.244189	-3.012700	3.637500	-10.958000	25.025687	0.000997	20.849176
800.229991	-3.009900	3.637600	-10.947000	25.053307	0.001001	20.859357
801.232466	-2.990800	3.638500	-10.881000	25.018154	0.000998	20.837348
802.228419	-2.991700	3.637400	-10.881000	25.046917	0.000999	20.851520
803.239376	-2.995300	3.639200	-10.899000	25.041248	0.000998	20.864321
804.230333	-2.977000	3.637300	-10.827000	25.019421	0.000997	20.846679
805.230342	-3.009900	3.635400	-10.941000	25.025116	0.000996	20.837224
806.232795	-2.985200	3.636800	-10.855000	25.001371	0.000997	20.852270
807.235355	-2.994800	3.636100	-10.888000	25.030933	0.000996	20.843062
808.236278	-2.994500	3.635800	-10.886000	25.063575	0.000996	20.849750
809.232081	-3.003400	3.635500	-10.918000	25.096441	0.000995	20.849077
810.233932	-3.026100	3.635800	-11.001000	25.076155	0.000994	20.838197
811.244614	-3.024200	3.635300	-10.992000	25.114387	0.000997	20.865669
812.236518	-2.989200	3.635000	-10.865000	25.098679	0.000995	20.845634
813.236777	-2.994000	3.635100	-10.882000	25.105388	0.000996	20.849524
814.242473	-2.973300	3.634400	-10.805000	25.102705	0.000994	20.858210
815.234065	-2.979200	3.635300	-10.829000	25.126547	0.000994	20.829987
816.241630	-2.999500	3.634500	-10.900000	25.133629	0.000993	20.830933
817.234230	-2.995200	3.633900	-10.883000	25.114415	0.000993	20.854791
818.242741	-2.988400	3.632000	-10.852000	25.094948	0.000995	20.838095
819.234149	-3.018100	3.632100	-10.961000	25.048808	0.000994	20.852945
820.244437	-3.000700	3.631400	-10.896000	25.007834	0.000992	20.857808
821.235884	-3.001700	3.631500	-10.899000	24.957687	0.000993	20.832130
822.234166	-2.996200	3.633000	-10.883000	24.950576	0.000991	20.819778
823.240834	-3.000200	3.630500	-10.892000	24.963180	0.000993	20.839066
824.242620	-3.016500	3.631500	-10.953000	24.982521	0.000992	20.820547
825.235164	-3.021200	3.630300	-10.967000	25.005321	0.000994	20.835372
826.237119	-3.000900	3.632300	-10.899000	25.015066	0.000991	20.830455
827.235938	-2.993300	3.631000	-10.867000	25.035573	0.000993	20.836341
828.235319	-3.000400	3.630100	-10.890000	25.023937	0.000991	20.848842
829.238029	-2.989700	3.629100	-10.849000	25.003076	0.000989	20.839283
830.240632	-3.029300	3.627500	-10.987000	24.978960	0.000994	20.846844
831.239360	-3.002300	3.629500	-10.895000	25.009687	0.000992	20.853504
832.240057	-2.996100	3.628600	-10.871000	25.038301	0.000991	20.842398
833.239432	-3.020100	3.628600	-10.957000	25.059879	0.000988	20.814747
834.241379	-2.976600	3.629300	-10.802000	25.055452	0.000989	20.817890
835.240421	-2.998600	3.626700	-10.875000	25.057938	0.000987	20.836979
836.245217	-3.005700	3.628000	-10.903000	25.025442	0.000989	20.846085
837.240450	-2.988600	3.627500	-10.841000	25.040060	0.000987	20.823302
838.238862	-2.973900	3.627600	-10.787000	25.072452	0.000985	20.832583
839.240011	-3.007600	3.627500	-10.908000	25.117921	0.000986	20.841242
840.239061	-2.992500	3.627700	-10.855000	25.133928	0.000987	20.823173
841.244607	-2.956300	3.627600	-10.722000	25.147375	0.000987	20.836672
842.239594	-3.000700	3.626000	-10.880000	25.151653	0.000986	20.828165
843.238713	-2.977500	3.626000	-10.794000	25.157418	0.000983	20.832529
844.242753	-2.971300	3.626500	-10.775000	25.181829	0.000983	20.818156
845.243067	-2.995200	3.626000	-10.860000	25.155405	0.000982	20.843310
846.252122	-3.014400	3.624300	-10.922000	25.185706	0.000985	20.844807
847.247694	-2.989100	3.624300	-10.832000	25.195029	0.000982	20.826192
848.241578	-3.009800	3.623300	-10.905000	25.215260	0.000984	20.826589
849.242233	-2.979500	3.623000	-10.794000	25.199257	0.000982	20.831385
850.251746	-3.014100	3.623400	-10.920000	25.193713	0.000980	20.844785
851.243085	-3.009400	3.623000	-10.901000	25.152524	0.000979	20.846108
852.245202	-3.000900	3.624100	-10.873000	25.096418	0.000977	20.825821
853.244608	-3.000800	3.623400	-10.873000	25.089059	0.000977	20.831236
854.243835	-3.005700	3.621900	-10.885000	25.103877	0.000977	20.813868
855.253198	-2.994700	3.622600	-10.847000	25.116978	0.000976	20.831288
856.243266	-3.011000	3.622000	-10.905000	25.141986	0.000980	20.832685
857.253304	-3.015100	3.621600	-10.916000	25.182187	0.000976	20.851231
858.249187	-3.002600	3.622300	-10.876000	25.174976	0.000975	20.816966
859.256580	-3.005200	3.620300	-10.879000	25.194291	0.000977	20.828296
860.246650	-3.013500	3.621500	-10.911000	25.217609	0.000975	20.818515
861.247069	-3.018800	3.618600	-10.923000	25.237692	0.000973	20.832514
862.258497	-3.005500	3.621000	-10.881000	25.226236	0.000973	20.819116
863.244775	-2.991200	3.619500	-10.825000	25.218580	0.000971	20.836085
864.245103	-3.019300	3.618500	-10.924000	25.182987	0.000973	20.814103
865.251286	-2.997900	3.619400	-10.850000	25.149454	0.000972	20.831647
866.255526	-2.996900	3.619600	-10.846000	25.148212	0.000972	20.837038
867.246381	-3.000000	3.619300	-10.856000	25.113859	0.000972	20.812984
868.247625	-2.989100	3.618600	-10.815000	25.102201	0.000973	20.818350
869.246117	-3.018700	3.617000	-10.917000	25.049897	0.000971	20.813261
870.246222	-2.992500	3.618700	-10.827000	25.033391	0.000975	20.794797
871.250144	-2.979000	3.618500	-10.778000	25.045922	0.000973	20.811643
872.247993	-3.015000	3.617400	-10.905000	25.074142	0.000974	20.852297
873.252769	-2.996400	3.616100	-10.833000	25.023377	0.000971	20.825047
874.251358	-2.992300	3.615700	-10.818000	25.062160	0.000971	20.800441
875.249397	-3.007200	3.615900	-10.873000	25.069221	0.000970	20.829340
876.252290	-2.991100	3.616800	-10.818000	25.110193	0.000972	20.823054
877.253725	-2.992500	3.615400	-10.817000	25.141314	0.000972	20.821105
878.250841	-3.026200	3.614400	-10.937000	25.148674	0.000971	20.815691
879.250689	-3.012400	3.615200	-10.890000	25.154915	0.000971	20.817689
880.251341	-3.010900	3.613700	-10.879000	25.140150	0.000970	20.812824
881.250875	-3.022000	3.613100	-10.918000	25.111039	0.000967	20.815842
882.269080	-2.986000	3.614800	-10.792000	25.138483	0.000973	20.808306
883.252959	-3.013400	3.612500	-10.884000	25.137837	0.000968	20.815244
884.251213	-2.984600	3.613400	-10.782000	25.150316	0.000968	20.796003
885.250941	-3.010500	3.612900	-10.875000	25.142585	0.000963	20.798674
886.251288	-3.001200	3.613100	-10.842000	25.132543	0.000966	20.806610
887.251853	-2.983900	3.612200	-10.777000	25.143082	0.000968	20.811026
888.250150	-3.011900	3.612300	-10.877000	25.164091	0.000967	20.784228
889.251425	-2.994600	3.612500	-10.817000	25.109948	0.000966	20.792462
890.251397	-3.008900	3.610900	-10.865000	25.122923	0.000964	20.806910
891.252085	-2.998200	3.611400	-10.827000	25.112334	0.000963	20.830893
892.252193	-3.023300	3.609800	-10.912000	25.095704	0.000963	20.830320
893.255054	-2.992500	3.610900	-10.804000	25.081659	0.000962	20.799627
894.253981	-3.001500	3.609700	-10.833000	25.091381	0.000964	20.789945
895.256062	-2.997200	3.609200	-10.817000	25.106671	0.000960	20.804346
896.255561	-2.992600	3.609300	-10.800000	25.166606	0.000963	20.798606
897.259825	-2.970300	3.610400	-10.723000	25.174588	0.000959	20.813732
898.257495	-2.968500	3.610000	-10.715000	25.158431	0.000960	20.803675
899.255397	-2.994500	3.610000	-10.808000	25.144063	0.000961	20.776450
900.257016	-2.995600	3.609200	-10.810000	25.116671	0.000961	20.819126
901.254356	-3.003500	3.607500	-10.834000	25.133823	0.000959	20.783239
902.255543	-2.988500	3.608900	-10.784000	25.165273	0.000961	20.790630
903.264956	-2.989300	3.607500	-10.783000	25.188344	0.000958	20.806679
904.258277	-2.996900	3.608000	-10.812000	25.190183	0.000959	20.783395
905.255400	-2.998400	3.607600	-10.816000	25.208529	0.000960	20.789011
906.255705	-2.998900	3.606800	-10.815000	25.206741	0.000958	20.803811
907.256338	-2.962300	3.607500	-10.685000	25.216686	0.000959	20.784398
908.257072	-2.990700	3.606600	-10.783000	25.190910	0.000957	20.782228
909.260892	-3.003600	3.605900	-10.830000	25.211666	0.000955	20.782204
910.261435	-3.011500	3.604900	-10.856000	25.212537	0.000957	20.780232
911.259240	-2.986300	3.605700	-10.766000	25.244629	0.000958	20.770727
912.258331	-3.016000	3.605300	-10.872000	25.255590	0.000959	20.780309
913.258847	-3.010600	3.604600	-10.851000	25.294862	0.000956	20.778013
914.257685	-3.016300	3.604000	-10.870000	25.326379	0.000959	20.803967
915.261384	-3.009200	3.603400	-10.842000	25.345965	0.000957	20.776218
916.263649	-3.040700	3.601600	-10.950000	25.327128	0.000955	20.805194
917.256788	-2.981000	3.605000	-10.746000	25.329214	0.000955	20.762718
918.263444	-3.003800	3.603200	-10.821000	25.332893	0.000957	20.759774
919.257772	-2.986300	3.603000	-10.759000	25.319819	0.000952	20.786002
920.258257	-2.989700	3.601600	-10.766000	25.294990	0.000953	20.785728
921.259170	-2.998400	3.601900	-10.797000	25.275255	0.000956	20.780612
922.258829	-2.995700	3.601300	-10.787000	25.246572	0.000950	20.789273
923.258106	-2.990300	3.603300	-10.772000	25.265510	0.000955	20.760397
924.261102	-3.007900	3.599800	-10.826000	25.276075	0.000954	20.770056
925.259116	-3.019700	3.601300	-10.874000	25.307739	0.000953	20.780036
926.261893	-3.012700	3.600000	-10.844000	25.352304	0.000951	20.773574
927.258510	-2.996200	3.599200	-10.783000	25.353372	0.000951	20.785078
928.258157	-3.022900	3.597500	-10.873000	25.345990	0.000953	20.793787
929.266069	-3.027600	3.598700	-10.893000	25.339653	0.000955	20.767983
930.261214	-3.003800	3.598600	-10.808000	25.364231	0.000951	20.780808
931.258427	-3.017600	3.598200	-10.857000	25.354789	0.000950	20.760896
932.263018	-2.992100	3.598300	-10.765000	25.353718	0.000951	20.769304
933.259655	-2.983100	3.599500	-10.736000	25.334357	0.000950	20.759347
934.260472	-3.002100	3.597500	-10.799000	25.356255	0.000949	20.759997
935.264383	-3.031800	3.598100	-10.907000	25.355182	0.000952	20.757023
936.260530	-3.006300	3.598000	-10.816000	25.352972	0.000948	20.765235
937.264334	-2.980400	3.599100	-10.725000	25.326947	0.000949	20.785572
938.261049	-3.007900	3.596500	-10.816000	25.301545	0.000948	20.753903
939.263353	-2.993800	3.596600	-10.767000	25.282205	0.000949	20.769573
940.264104	-2.993900	3.596000	-10.765000	25.287150	0.000949	20.783547
941.263611	-3.001800	3.597100	-10.797000	25.278746	0.000946	20.763729
942.261610	-3.005000	3.595100	-10.801000	25.255803	0.000945	20.785265
943.267113	-3.003400	3.592800	-10.790000	25.220331	0.000948	20.759608
944.263068	-3.019000	3.593700	-10.847000	25.247525	0.000944	20.774583
945.264265	-2.988500	3.594200	-10.739000	25.239319	0.000944	20.767766
946.265124	-2.989100	3.595200	-10.745000	25.265167	0.000945	20.754837
947.263275	-2.989200	3.594900	-10.744000	25.281696	0.000945	20.766217
948.264646	-2.987300	3.593700	-10.735000	25.296109	0.000943	20.778791
949.280692	-3.038700	3.593000	-10.917000	25.276025	0.000940	20.794187
950.262735	-3.009100	3.593000	-10.811000	25.232351	0.000944	20.778314
951.270888	-3.016100	3.592200	-10.833000	25.235603	0.000942	20.762613
952.266185	-3.000900	3.592300	-10.779000	25.251937	0.000943	20.749614
953.270551	-3.022200	3.591400	-10.852000	25.287901	0.000939	20.780981
954.266369	-2.986600	3.592700	-10.728000	25.323292	0.000941	20.779057
955.267565	-2.995200	3.592400	-10.757000	25.301594	0.000940	20.778134
956.270689	-2.989300	3.591400	-10.735000	25.340690	0.000938	20.755274
957.269404	-3.004000	3.591300	-10.786000	25.317126	0.000935	20.771443
958.273055	-2.974400	3.591800	-10.682000	25.342255	0.000937	20.765855
959.270412	-2.975400	3.592200	-10.686000	25.392335	0.000935	20.749284
960.275351	-2.992300	3.590100	-10.742000	25.404786	0.000934	20.768899
961.274488	-2.992000	3.590700	-10.741000	25.416888	0.000936	20.749282
962.270733	-3.015500	3.588600	-10.821000	25.452376	0.000932	20.755994
963.272537	-3.009300	3.588700	-10.799000	25.456304	0.000934	20.749982
964.270439	-3.016400	3.587800	-10.821000	25.470669	0.000932	20.759192
965.270488	-3.001500	3.588300	-10.769000	25.497333	0.000931	20.758467
966.276477	-3.012400	3.587300	-10.805000	25.457772	0.000930	20.751456
967.270770	-2.990800	3.587100	-10.728000	25.466692	0.000930	20.755197
968.279833	-3.005700	3.586200	-10.778000	25.415923	0.000932	20.774392
969.270289	-2.984600	3.588000	-10.708000	25.383316	0.000931	20.771522
970.275124	-2.988900	3.586100	-10.717000	25.394924	0.000932	20.768953
971.273331	-2.973100	3.589100	-10.668000	25.415527	0.000929	20.746967
972.270751	-3.001200	3.585400	-10.759000	25.402232	0.000928	20.748315
973.271982	-2.990100	3.586100	-10.721000	25.428625	0.000932	20.765336
974.271435	-3.002500	3.585900	-10.766000	25.412026	0.000932	20.744874
975.285542	-2.999100	3.585000	-10.751000	25.421569	0.000929	20.755405
976.275165	-3.008900	3.584300	-10.783000	25.413619	0.000928	20.750266
977.274963	-2.971100	3.586200	-10.654000	25.387200	0.000931	20.751240
978.282845	-2.988300	3.584500	-10.710000	25.394856	0.000929	20.765566
979.273951	-2.996900	3.583500	-10.739000	25.407631	0.000925	20.750418
980.275084	-3.013800	3.584000	-10.799000	25.403480	0.000927	20.752888
981.274472	-3.011200	3.583100	-10.789000	25.440039	0.000926	20.754037
982.276330	-3.036300	3.580400	-10.870000	25.420531	0.000926	20.765743
983.274472	-3.004900	3.583100	-10.766000	25.433802	0.000927	20.751567
984.278400	-3.007600	3.582400	-10.773000	25.431863	0.000927	20.760527
985.274533	-3.006300	3.582600	-10.769000	25.396822	0.000928	20.752841
986.280106	-3.016600	3.581000	-10.802000	25.356335	0.000923	20.760552
987.276907	-3.006800	3.580500	-10.765000	25.351838	0.000927	20.765519
988.276457	-3.017200	3.581600	-10.804000	25.336675	0.000926	20.745552
989.277485	-2.969700	3.582000	-10.636000	25.332748	0.000925	20.760576
990.277187	-3.013800	3.578900	-10.785000	25.361950	0.000924	20.766190
991.296935	-3.005500	3.579200	-10.756000	25.358271	0.000923	20.774350
992.284136	-3.019600	3.578700	-10.805000	25.356803	0.000922	20.787100
993.292961	-2.997600	3.579400	-10.728000	25.329910	0.000923	20.767684
994.288043	-2.997000	3.579700	-10.728000	25.310499	0.000922	20.764315
995.283061	-2.992200	3.579300	-10.709000	25.319793	0.000922	20.765112
996.280979	-3.034200	3.576900	-10.851000	25.343479	0.000921	20.755229
997.292482	-3.016000	3.578100	-10.789000	25.357544	0.000922	20.752283
998.281248	-3.019500	3.578200	-10.803000	25.351705	0.000920	20.762066
999.283350	-2.999700	3.578200	-10.732000	25.340695	0.000921	20.769030
1000.283427	-2.970300	3.578300	-10.628000	25.357169	0.000920	20.767553
1001.281403	-2.992800	3.576300	-10.703000	25.378668	0.000919	20.766381
1002.296840	-3.004900	3.576700	-10.746000	25.392061	0.000918	20.781252
1003.283212	-2.985600	3.576600	-10.677000	25.430784	0.000918	20.764184
1004.284396	-2.989300	3.576100	-10.689000	25.475564	0.000919	20.756521
1005.282558	-3.017200	3.575500	-10.787000	25.489406	0.000918	20.769472
1006.282570	-3.010200	3.573900	-10.757000	25.513760	0.000915	20.790137
1007.286649	-3.007200	3.574500	-10.748000	25.487739	0.000915	20.756419
1008.283039	-3.019000	3.573400	-10.788000	25.523549	0.000914	20.773889
1009.284572	-3.010100	3.573900	-10.756000	25.550261	0.000911	20.758514
1010.286890	-3.022700	3.573300	-10.800000	25.563234	0.000913	20.793828
1011.285335	-3.005300	3.573300	-10.737000	25.571109	0.000914	20.766175
1012.285468	-2.998000	3.572000	-10.708000	25.564228	0.000911	20.758316
1013.289403	-2.985700	3.573300	-10.669000	25.587809	0.000913	20.785318
1014.291656	-2.988900	3.572800	-10.678000	25.603315	0.000910	20.776709
1015.283682	-3.002700	3.573300	-10.728000	25.614374	0.000912	20.780229
1016.289178	-2.994200	3.571800	-10.694000	25.610147	0.000910	20.766026
1017.289879	-2.976300	3.572400	-10.632000	25.635740	0.000910	20.759013
1018.286740	-2.983900	3.571400	-10.656000	25.614025	0.000908	20.789362
1019.285530	-2.971300	3.571700	-10.611000	25.620758	0.000909	20.761511
1020.287448	-2.985600	3.570400	-10.658000	25.616136	0.000910	20.781525
1021.286622	-3.004100	3.572000	-10.729000	25.603065	0.000908	20.754646
1022.292000	-2.985700	3.570600	-10.660000	25.602393	0.000908	20.765825
1023.290076	-2.983100	3.571500	-10.652000	25.595509	0.000908	20.781197
1024.285670	-2.986900	3.571200	-10.664000	25.571381	0.000907	20.760284
1025.285117	-2.998500	3.568900	-10.700000	25.576375	0.000907	20.764351
1026.287426	-3.001600	3.568800	-10.711000	25.606790	0.000907	20.785889
1027.286282	-3.005700	3.568400	-10.725000	25.597296	0.000905	20.768767
1028.287739	-2.997500	3.569100	-10.696000	25.595158	0.000904	20.774207
1029.289961	-3.007900	3.566900	-10.726000	25.590338	0.000903	20.782642
1030.290909	-2.971500	3.569100	-10.604000	25.587159	0.000903	20.769492
1031.288628	-3.011300	3.566800	-10.739000	25.617323	0.000903	20.797890
1032.291523	-3.003600	3.565600	-10.709000	25.639759	0.000901	20.792923
1033.297936	-3.009900	3.565000	-10.729000	25.593292	0.000902	20.778023
1034.291778	-3.005900	3.566200	-10.718000	25.597418	0.000903	20.769838
1035.288933	-2.996200	3.566000	-10.684000	25.570136	0.000902	20.782742
1036.301324	-3.009000	3.564300	-10.724000	25.616552	0.000902	20.795219
1037.290433	-2.984800	3.564700	-10.639000	25.561786	0.000900	20.779097
1038.298895	-2.988800	3.564800	-10.652000	25.521330	0.000902	20.778772
1039.291782	-2.998100	3.563200	-10.682000	25.562130	0.000901	20.796987
1040.290792	-2.986300	3.564200	-10.643000	25.564468	0.000899	20.788429
1041.292181	-3.001400	3.563400	-10.693000	25.555769	0.000900	20.793918
1042.300682	-2.993000	3.565800	-10.671000	25.552887	0.000901	20.798610
1043.298139	-2.998800	3.565000	-10.689000	25.504009	0.000898	20.790775
1044.292734	-2.985300	3.563100	-10.636000	25.461387	0.000898	20.757932
1045.292850	-2.969200	3.564300	-10.582000	25.474982	0.000900	20.790075
1046.302712	-2.991900	3.562800	-10.659000	25.486685	0.000897	20.794241
1047.294935	-3.000000	3.562400	-10.686000	25.502066	0.000897	20.794040
1048.293993	-2.988800	3.561500	-10.644000	25.536681	0.000894	20.806043
1049.297263	-3.011300	3.560800	-10.722000	25.540557	0.000894	20.774848
1050.300965	-3.027100	3.559600	-10.773000	25.551614	0.000894	20.784056
1051.305143	-3.002200	3.560000	-10.687000	25.591768	0.000894	20.788820
1052.311835	-2.998400	3.560000	-10.673000	25.605486	0.000892	20.797856
1053.294192	-3.021400	3.558900	-10.752000	25.630357	0.000892	20.797230
1054.294069	-3.011200	3.558700	-10.714000	25.643603	0.000890	20.781610
1055.297698	-3.010600	3.558600	-10.710000	25.622853	0.000891	20.783055
1056.296658	-3.019500	3.558500	-10.743000	25.612244	0.000888	20.795634
1057.298601	-3.005500	3.559600	-10.698000	25.580860	0.000888	20.813426
1058.294565	-3.005000	3.559100	-10.694000	25.536081	0.000886	20.794534
1059.298409	-3.013800	3.557900	-10.721000	25.531535	0.000887	20.802297
1060.296033	-2.976100	3.559300	-10.592000	25.491251	0.000885	20.796930
1061.299645	-2.994300	3.557000	-10.650000	25.436652	0.000886	20.814647
1062.300454	-3.011800	3.556400	-10.710000	25.439539	0.000886	20.794313
1063.303297	-3.008500	3.556400	-10.699000	25.447613	0.000883	20.810482
1064.296394	-2.991100	3.556800	-10.639000	25.463123	0.000883	20.799030
1065.302274	-2.980500	3.556400	-10.599000	25.493965	0.000884	20.799655
1066.304707	-2.992800	3.556600	-10.643000	25.496650	0.000883	20.812783
1067.296419	-2.979000	3.556000	-10.593000	25.494588	0.000883	20.814979
1068.302417	-2.998800	3.555200	-10.660000	25.483703	0.000883	20.796937
1069.297124	-2.997900	3.555200	-10.657000	25.495905	0.000880	20.793543
1070.297459	-3.018300	3.554100	-10.726000	25.533233	0.000879	20.814907
1071.297749	-3.009500	3.553200	-10.692000	25.595356	0.000881	20.786259
1072.312627	-3.006900	3.552600	-10.681000	25.616628	0.000879	20.799089
1073.297684	-3.016800	3.551400	-10.713000	25.650671	0.000880	20.792028
1074.302861	-2.987700	3.553200	-10.615000	25.651388	0.000878	20.807922
1075.297741	-2.987100	3.554000	-10.614000	25.671295	0.000878	20.802311
1076.308370	-3.005700	3.552600	-10.677000	25.639739	0.000877	20.800015
1077.300776	-3.009300	3.551600	-10.686000	25.589250	0.000877	20.809999
1078.308134	-3.021700	3.552500	-10.734000	25.580554	0.000877	20.815490
1079.311218	-3.006700	3.551400	-10.677000	25.586568	0.000875	20.805409
1080.299275	-3.001400	3.551100	-10.656000	25.621033	0.000876	20.804935
1081.299329	-2.997400	3.550300	-10.641000	25.645683	0.000875	20.824476
1082.303351	-2.986200	3.551800	-10.606000	25.663773	0.000874	20.804239
1083.304837	-3.030800	3.548100	-10.750000	25.714412	0.000873	20.803892
1084.299560	-3.026400	3.550400	-10.742000	25.711678	0.000873	20.807784
1085.308012	-3.021200	3.549000	-10.721000	25.726364	0.000873	20.796931
1086.309901	-2.986500	3.550200	-10.602000	25.747982	0.000872	20.799679
1087.301009	-2.997400	3.549700	-10.639000	25.764753	0.000873	20.815102
1088.301613	-2.972200	3.549700	-10.549000	25.765326	0.000872	20.801453
1089.300182	-2.997000	3.548600	-10.634000	25.748333	0.000872	20.820894
1090.301761	-2.997300	3.548500	-10.635000	25.703835	0.000870	20.806545
1091.302903	-2.988100	3.548100	-10.601000	25.741081	0.000869	20.803653
1092.309854	-3.013300	3.545900	-10.684000	25.729680	0.000868	20.818279
1093.305655	-3.003300	3.546100	-10.649000	25.708884	0.000868	20.811142
1094.306482	-2.974400	3.547500	-10.551000	25.689035	0.000866	20.822973
1095.311492	-3.009400	3.546100	-10.670000	25.748120	0.000866	20.816886
1096.310864	-3.000300	3.545200	-10.635000	25.732843	0.000865	20.804387
1097.304864	-3.017700	3.545300	-10.697000	25.696971	0.000865	20.818616
1098.305036	-2.990800	3.546000	-10.605000	25.700300	0.000863	20.810581
1099.304296	-3.010000	3.543800	-10.666000	25.699806	0.000859	20.838533
1100.308429	-3.009800	3.544200	-10.666000	25.687485	0.000864	20.827580
1101.304438	-2.989000	3.544800	-10.595000	25.708708	0.000861	20.831353
1102.304626	-2.988300	3.544300	-10.590000	25.678100	0.000866	20.813887
1103.309031	-3.001000	3.542600	-10.630000	25.695369	0.000862	20.815111
1104.306189	-3.009700	3.544800	-10.666000	25.674526	0.000862	20.814564
1105.308100	-2.995000	3.542900	-10.609000	25.696419	0.000864	20.841295
1106.306118	-3.026900	3.541300	-10.718000	25.718609	0.000864	20.825651
1107.307573	-3.001500	3.542500	-10.632000	25.749495	0.000862	20.803570
1108.306381	-2.999800	3.540300	-10.618000	25.742343	0.000861	20.800653
1109.305289	-2.983900	3.541600	-10.567000	25.742768	0.000860	20.812459
1110.305079	-2.996200	3.540600	-10.607000	25.694175	0.000862	20.805377
1111.305090	-2.986100	3.541900	-10.576000	25.703344	0.000861	20.822173
1112.306378	-2.981900	3.541300	-10.557000	25.689753	0.000858	20.823695
1113.305963	-3.001100	3.540400	-10.624000	25.683670	0.000860	20.828965
1114.306845	-2.995400	3.539600	-10.602000	25.704368	0.000859	20.832683
1115.306086	-2.998300	3.539100	-10.610000	25.737340	0.000860	20.807482
1116.307121	-3.002400	3.538800	-10.624000	25.743527	0.000857	20.818911
1117.304914	-2.992400	3.537600	-10.585000	25.749891	0.000856	20.821036
1118.311731	-2.999200	3.537300	-10.608000	25.801271	0.000857	20.796308
1119.310328	-2.982200	3.538300	-10.551000	25.779731	0.000856	20.817819
1120.310079	-2.999900	3.538400	-10.614000	25.777398	0.000856	20.824010
1121.310668	-2.976500	3.536700	-10.526000	25.802242	0.000856	20.826681
1122.309023	-3.011700	3.534900	-10.644000	25.807630	0.000857	20.835886
1123.313355	-2.990300	3.536600	-10.574000	25.797522	0.000854	20.820991
1124.310697	-2.996300	3.536500	-10.596000	25.798318	0.000856	20.813256
1125.314273	-3.000900	3.536000	-10.610000	25.780010	0.000856	20.822367
1126.309418	-3.012000	3.534300	-10.644000	25.736752	0.000854	20.822538
1127.310730	-3.013300	3.535700	-10.653000	25.761823	0.000857	20.828280
1128.311100	-3.018900	3.534800	-10.670000	25.708826	0.000855	20.819144
1129.312776	-2.998500	3.534300	-10.595000	25.723085	0.000852	20.826353
1130.312681	-2.984700	3.536300	-10.553000	25.727931	0.000854	20.826480
1131.311799	-2.999600	3.534900	-10.602000	25.777692	0.000851	20.822883
1132.317112	-3.011100	3.533900	-10.639000	25.769420	0.000851	20.834962
1133.311858	-2.978500	3.534100	-10.524000	25.764450	0.000851	20.845617
1134.318521	-3.002300	3.533600	-10.607000	25.805070	0.000847	20.856072
1135.314055	-2.967600	3.534000	-10.486000	25.785914	0.000850	20.825926
1136.313492	-2.996600	3.531600	-10.581000	25.809414	0.000848	20.833411
1137.316293	-3.022900	3.529500	-10.669000	25.784619	0.000850	20.835057
1138.316645	-2.988100	3.531100	-10.550000	25.810778	0.000848	20.837626
1139.312933	-3.015500	3.531300	-10.648000	25.822357	0.000848	20.848308
1140.321881	-2.985900	3.531900	-10.545000	25.818902	0.000848	20.853372
1141.315231	-3.007300	3.530400	-10.615000	25.849207	0.000847	20.843037
1142.313345	-3.009300	3.528300	-10.616000	25.848636	0.000846	20.828240
1143.322629	-2.997200	3.528400	-10.574000	25.847890	0.000844	20.845033
1144.314281	-2.987500	3.528800	-10.541000	25.865774	0.000844	20.839292
1145.314050	-3.007000	3.528900	-10.609000	25.887735	0.000844	20.830534
1146.316851	-2.983900	3.529200	-10.530000	25.920525	0.000843	20.852567
1147.318471	-3.007400	3.528600	-10.611000	25.935801	0.000839	20.847051
1148.313877	-2.997500	3.528300	-10.575000	25.929094	0.000841	20.858331
1149.319287	-3.010000	3.527900	-10.618000	25.898067	0.000842	20.841387
1150.319782	-2.979200	3.528900	-10.513000	25.884454	0.000840	20.843832
1151.315742	-2.984900	3.527100	-10.528000	25.888652	0.000839	20.863222
1152.314590	-2.968800	3.528500	-10.475000	25.890587	0.000838	20.845726
1153.318149	-2.979800	3.526700	-10.507000	25.880206	0.000837	20.856633
1154.314497	-2.998500	3.527000	-10.574000	25.879657	0.000835	20.865565
1155.326416	-2.999300	3.525700	-10.574000	25.874292	0.000837	20.858279
1156.320839	-2.999500	3.524500	-10.571000	25.870566	0.000836	20.875871
1157.315672	-3.003300	3.525100	-10.585000	25.903731	0.000835	20.848499
1158.319029	-3.019400	3.522500	-10.633000	25.903383	0.000833	20.864269
1159.315668	-2.996500	3.524100	-10.559000	25.892502	0.000835	20.870882
1160.316553	-2.972400	3.524700	-10.476000	25.866221	0.000832	20.844956
1161.327235	-3.000700	3.523000	-10.571000	25.876754	0.000834	20.847002
1162.320406	-3.011600	3.522400	-10.605000	25.881100	0.000832	20.877445
1163.317661	-3.003600	3.523000	-10.581000	25.858521	0.000832	20.870410
1164.324518	-3.015100	3.521800	-10.618000	25.825681	0.000832	20.848802
1165.320642	-2.985000	3.523000	-10.515000	25.804912	0.000835	20.861129
1166.317189	-3.020500	3.522400	-10.639000	25.829706	0.000833	20.869440
1167.320844	-3.011500	3.521100	-10.602000	25.849229	0.000834	20.851120
1168.317982	-2.987800	3.520800	-10.518000	25.859339	0.000831	20.863646
1169.322921	-2.998000	3.519900	-10.552000	25.846049	0.000829	20.848399
1170.318152	-2.995300	3.520300	-10.543000	25.830324	0.000833	20.868164
1171.318603	-2.983500	3.520900	-10.502000	25.821778	0.000833	20.869537
1172.321683	-3.004400	3.520900	-10.577000	25.809380	0.000831	20.849497
1173.319866	-3.026800	3.519500	-10.652000	25.775940	0.000830	20.883234
1174.328101	-3.016300	3.517500	-10.608000	25.803416	0.000830	20.867687
1175.319660	-2.992200	3.520000	-10.532000	25.822816	0.000831	20.877217
1176.317790	-2.999100	3.518400	-10.552000	25.842194	0.000831	20.872026
1177.318805	-3.004900	3.517300	-10.568000	25.810618	0.000829	20.856904
1178.320754	-2.991300	3.517700	-10.522000	25.835237	0.000830	20.863616
1179.324286	-3.016400	3.518100	-10.610000	25.821371	0.000828	20.891411
1180.322751	-2.993300	3.515600	-10.522000	25.810465	0.000827	20.873345
1181.341149	-2.990600	3.516200	-10.514000	25.803209	0.000824	20.857522
1182.322802	-2.994100	3.516300	-10.527000	25.782912	0.000826	20.893555
1183.320210	-2.992800	3.516200	-10.523000	25.807951	0.000823	20.888837
1184.323693	-2.991400	3.514600	-10.512000	25.792150	0.000822	20.870120
1185.322637	-2.982000	3.515800	-10.483000	25.822310	0.000823	20.887613
1186.328572	-3.018700	3.513200	-10.604000	25.838929	0.000821	20.879178
1187.324858	-3.008200	3.513600	-10.569000	25.874132	0.000822	20.885143
1188.328652	-3.003100	3.513200	-10.550000	25.877658	0.000821	20.889633
1189.323585	-3.015500	3.513400	-10.593000	25.883794	0.000819	20.883944
1190.323656	-2.955400	3.515500	-10.388000	25.859646	0.000817	20.885764
1191.324254	-2.984700	3.514600	-10.489000	25.860963	0.000820	20.899414
1192.323271	-2.975600	3.514000	-10.455000	25.851523	0.000818	20.887561
1193.325145	-3.001000	3.510600	-10.534000	25.864986	0.000818	20.882594
1194.324713	-2.993900	3.510800	-10.509000	25.871520	0.000816	20.898165
1195.327532	-3.010200	3.510800	-10.566000	25.844714	0.000815	20.909169
1196.329484	-2.996900	3.510500	-10.520000	25.808124	0.000814	20.897544
1197.324042	-3.009400	3.510400	-10.563000	25.802781	0.000817	20.908772
1198.326053	-3.011800	3.511100	-10.574000	25.793094	0.000816	20.893352
1199.325061	-3.012600	3.510300	-10.574000	25.785815	0.000816	20.901213
1200.322930	-3.003900	3.510100	-10.543000	25.788176	0.000815	20.918281
1201.329703	-3.018000	3.508500	-10.588000	25.803876	0.000809	20.913190
1202.326509	-2.992500	3.510100	-10.503000	25.773493	0.000812	20.895948
1203.326689	-2.996200	3.508100	-10.510000	25.745719	0.000812	20.903611
1204.334236	-3.023400	3.507600	-10.603000	25.756277	0.000813	20.892880
1205.340072	-3.006300	3.507900	-10.544000	25.733171	0.000813	20.883423
1206.331634	-3.011200	3.505700	-10.554000	25.772697	0.000813	20.905579
1207.327044	-2.980800	3.505100	-10.448000	25.759581	0.000813	20.918482
1208.324735	-2.988500	3.507200	-10.480000	25.780027	0.000811	20.892081
1209.330321	-2.984800	3.507100	-10.465000	25.788398	0.000810	20.879627
1210.327200	-2.997700	3.505800	-10.508000	25.778505	0.000811	20.910465
1211.327633	-3.009300	3.505200	-10.546000	25.793015	0.000811	20.884264
1212.328874	-2.991400	3.505600	-10.486000	25.840069	0.000810	20.901184
1213.327626	-3.006000	3.505000	-10.535000	25.846153	0.000810	20.898761
1214.328641	-2.999200	3.503200	-10.506000	25.831768	0.000810	20.902802
1215.331084	-3.003300	3.503200	-10.521000	25.803619	0.000808	20.885434
1216.329635	-2.998600	3.503400	-10.503000	25.824309	0.000812	20.887251
1217.333058	-3.006000	3.503800	-10.532000	25.839760	0.000806	20.879064
1218.330302	-2.999400	3.502900	-10.505000	25.859584	0.000808	20.899925
1219.329349	-2.999000	3.502800	-10.504000	25.866289	0.000806	20.886273
1220.332824	-3.010900	3.501300	-10.541000	25.903625	0.000805	20.897227
1221.332334	-3.003300	3.500500	-10.513000	25.917160	0.000809	20.908926
1222.331825	-2.984200	3.502400	-10.451000	25.934050	0.000805	20.888912
1223.330564	-3.021600	3.500100	-10.573000	25.912289	0.000804	20.885543
1224.332215	-2.997800	3.502200	-10.496000	25.901305	0.000804	20.867398
1225.334971	-2.994200	3.500900	-10.481000	25.924408	0.000805	20.877329
1226.331234	-3.010200	3.498500	-10.529000	25.902593	0.000804	20.871062
1227.331354	-2.998500	3.500500	-10.496000	25.922836	0.000803	20.879070
1228.330829	-3.017800	3.497700	-10.553000	25.947179	0.000803	20.895463
1229.331890	-3.007900	3.497500	-10.519000	25.990124	0.000802	20.889297
1230.333118	-2.995300	3.498600	-10.477000	25.981081	0.000800	20.888272
1231.334773	-3.017700	3.497400	-10.553000	25.973280	0.000798	20.876642
1232.335371	-3.010000	3.498200	-10.528000	25.963292	0.000797	20.885100
1233.334999	-3.004300	3.497600	-10.506000	25.950572	0.000797	20.877536
1234.335414	-3.018800	3.496500	-10.555000	25.932388	0.000798	20.875389
1235.333772	-2.996800	3.495700	-10.475000	25.907670	0.000796	20.869049
1236.337871	-3.011500	3.495600	-10.525000	25.871475	0.000798	20.881051
1237.334752	-3.011800	3.494000	-10.521000	25.867004	0.000795	20.877509
1238.338919	-3.002100	3.496200	-10.495000	25.892215	0.000794	20.895248
1239.336302	-2.960900	3.497100	-10.352000	25.924955	0.000793	20.891629
1240.337021	-3.004800	3.495200	-10.501000	25.935909	0.000796	20.869919
1241.339630	-2.995400	3.494500	-10.467000	25.947956	0.000794	20.858314
1242.339902	-2.995300	3.495000	-10.468000	25.947854	0.000791	20.876229
1243.338607	-3.019200	3.493600	-10.547000	25.935635	0.000791	20.868221
1244.338758	-3.000800	3.492400	-10.479000	25.970538	0.000791	20.871991
1245.338158	-3.006500	3.492600	-10.500000	25.984892	0.000788	20.863653
1246.339956	-3.010700	3.491200	-10.509000	25.995450	0.000789	20.870941
1247.341145	-2.999800	3.490600	-10.470000	25.976323	0.000789	20.865475
1248.339446	-3.003700	3.491900	-10.487000	25.933673	0.000789	20.876680
1249.340342	-3.002500	3.492900	-10.486000	25.908087	0.000786	20.863306
1250.344947	-3.005100	3.491100	-10.489000	25.859549	0.000786	20.852477
1251.340524	-3.018100	3.490200	-10.532000	25.868020	0.000785	20.882797
1252.342048	-2.993600	3.489700	-10.446000	25.824447	0.000786	20.870795
1253.339634	-2.991400	3.491100	-10.441000	25.856146	0.000787	20.859490
1254.342525	-2.985400	3.490600	-10.419000	25.844024	0.000785	20.875762
1255.341057	-2.980900	3.490800	-10.403000	25.880887	0.000783	20.857318
1256.341484	-2.991100	3.489000	-10.436000	25.880742	0.000782	20.866180
1257.345308	-3.027100	3.486500	-10.551000	25.869913	0.000782	20.858147
1258.342127	-3.006700	3.486500	-10.481000	25.880151	0.000784	20.864638
1259.344762	-2.989100	3.487600	-10.422000	25.849893	0.000781	20.847994
1260.343920	-3.000400	3.487500	-10.463000	25.886783	0.000781	20.852810
1261.343562	-2.987100	3.485700	-10.412000	25.894683	0.000781	20.859323
1262.349731	-2.969400	3.487400	-10.355000	25.918085	0.000783	20.848694
1263.345641	-2.982700	3.486700	-10.398000	25.960488	0.000782	20.863791
1264.342283	-2.998900	3.485100	-10.449000	25.994965	0.000777	20.852911
1265.343991	-3.011100	3.485300	-10.494000	25.998419	0.000779	20.849270
1266.344378	-3.019200	3.484700	-10.520000	26.011310	0.000782	20.860798
1267.345804	-3.014400	3.482500	-10.496000	26.013247	0.000779	20.840934
1268.346670	-3.008700	3.483600	-10.481000	25.986991	0.000782	20.849168
1269.345506	-3.018800	3.483100	-10.513000	25.938058	0.000778	20.841733
1270.352468	-2.995500	3.485000	-10.438000	25.938679	0.000777	20.855632
1271.346502	-2.993400	3.482200	-10.423000	25.952539	0.000776	20.858651
1272.346160	-2.986500	3.483700	-10.403000	25.928243	0.000778	20.857951
1273.350803	-3.004100	3.480500	-10.454000	25.942922	0.000778	20.852782
1274.347522	-3.017100	3.481700	-10.502000	25.927072	0.000776	20.849188
1275.347695	-3.013300	3.480600	-10.487000	25.935817	0.000775	20.859870
1276.347177	-2.999800	3.479200	-10.436000	25.943216	0.000776	20.867776
1277.348342	-2.988100	3.480100	-10.397000	25.955835	0.000775	20.844420
1278.350510	-2.999900	3.479400	-10.437000	25.978215	0.000775	20.836558
1279.347142	-2.998500	3.479700	-10.432000	26.020912	0.000773	20.841997
1280.348086	-3.012100	3.478100	-10.474000	26.004120	0.000774	20.845040
1281.347446	-3.014300	3.478200	-10.483000	26.007048	0.000776	20.843241
1282.348426	-3.010500	3.477400	-10.467000	26.002354	0.000774	20.852274
1283.347895	-3.002700	3.477600	-10.440000	26.018721	0.000773	20.832209
1284.350532	-3.016600	3.478200	-10.489000	26.026222	0.000771	20.837375
1285.348548	-3.004600	3.476000	-10.443000	25.985310	0.000770	20.864547
1286.349039	-3.011300	3.475800	-10.466000	25.984662	0.000770	20.834501
1287.349412	-3.001700	3.474900	-10.430000	25.939503	0.000769	20.829434
1288.349089	-2.993700	3.474900	-10.401000	25.949066	0.000768	20.828610
1289.351182	-2.986400	3.476500	-10.381000	25.942555	0.000770	20.827759
1290.351706	-2.997900	3.475000	-10.416000	25.980212	0.000768	20.852789
1291.351663	-3.013800	3.474400	-10.471000	26.014862	0.000766	20.846824
1292.352881	-2.987100	3.475700	-10.380000	26.049760	0.000764	20.832101
1293.353693	-3.015400	3.474800	-10.475000	26.062623	0.000764	20.839334
1294.353279	-3.013700	3.473800	-10.468000	26.054652	0.000763	20.848395
1295.356349	-3.010100	3.472900	-10.453000	26.050180	0.000765	20.834893
1296.356357	-2.991400	3.474500	-10.392000	26.027977	0.000762	20.841983
1297.364697	-2.992100	3.471100	-10.385000	26.049164	0.000761	20.846675
1298.356529	-2.988000	3.471700	-10.373000	26.057160	0.000761	20.826260
1299.356997	-2.979100	3.472500	-10.344000	26.048569	0.000763	20.845128
1300.358735	-2.985700	3.471500	-10.363000	26.013597	0.000763	20.831328
1301.356971	-3.002300	3.470500	-10.419000	25.958876	0.000761	20.839888
1302.358159	-2.997600	3.470400	-10.403000	25.925791	0.000759	20.846478
1303.358549	-2.982000	3.470600	-10.349000	25.898812	0.000759	20.834548
1304.359436	-2.977700	3.470300	-10.332000	25.854444	0.000757	20.835022
1305.363537	-2.992300	3.469500	-10.380000	25.825134	0.000759	20.829288
1306.362981	-2.993600	3.468600	-10.382000	25.857553	0.000754	20.825817
1307.361548	-3.004500	3.467500	-10.416000	25.861677	0.000758	20.814788
1308.361673	-3.009700	3.466800	-10.433000	25.871865	0.000753	20.824548
1309.362892	-3.017100	3.468300	-10.463000	25.861906	0.000755	20.820234
1310.365541	-2.971500	3.468000	-10.304000	25.898549	0.000757	20.821482
1311.364673	-3.005800	3.467500	-10.421000	25.918199	0.000754	20.839800
1312.362664	-2.995800	3.467400	-10.387000	25.919420	0.000756	20.831069
1313.367423	-3.004800	3.466600	-10.415000	25.884122	0.000753	20.825481
1314.364122	-3.014700	3.464600	-10.444000	25.898929	0.000755	20.808588
1315.364625	-2.996100	3.464300	-10.378000	25.883430	0.000753	20.819096
1316.365818	-2.985900	3.464500	-10.344000	25.916246	0.000755	20.835942
1317.366004	-2.982900	3.465000	-10.336000	25.919750	0.000756	20.811013
1318.364086	-2.997100	3.464100	-10.381000	25.977307	0.000754	20.822370
1319.363317	-3.003200	3.462900	-10.399000	25.980960	0.000755	20.798065
1320.364753	-2.977900	3.463800	-10.313000	26.031235	0.000753	20.818704
1321.363718	-2.989300	3.461400	-10.346000	26.030664	0.000753	20.820975
1322.364466	-3.008600	3.462500	-10.415000	26.050485	0.000753	20.806277
1323.364647	-3.014200	3.460000	-10.428000	26.055552	0.000751	20.815161
1324.371734	-2.995100	3.462000	-10.368000	26.077211	0.000750	20.824594
1325.364655	-2.998900	3.462000	-10.381000	26.085255	0.000753	20.784788
1326.365231	-3.010200	3.460200	-10.416000	26.115138	0.000749	20.800115
1327.369112	-3.008200	3.457700	-10.401000	26.131056	0.000752	20.805204
1328.366253	-2.985400	3.460200	-10.329000	26.118960	0.000752	20.819602
1329.366546	-3.009100	3.459000	-10.407000	26.107733	0.000750	20.802158
1330.364108	-3.005500	3.458700	-10.395000	26.091116	0.000747	20.810117
1331.365911	-2.998200	3.459800	-10.372000	26.102716	0.000747	20.797116
1332.368337	-2.998200	3.458000	-10.367000	26.099239	0.000749	20.805003
1333.365643	-3.006700	3.458700	-10.399000	26.155989	0.000747	20.800860
1334.368500	-3.014600	3.456900	-10.420000	26.122908	0.000746	20.780422
1335.365671	-2.987600	3.457200	-10.328000	26.108156	0.000744	20.792625
1336.365887	-2.995800	3.456800	-10.354000	26.124549	0.000744	20.798191
1337.368253	-3.021800	3.455800	-10.442000	26.107289	0.000744	20.796496
1338.367606	-2.976900	3.456300	-10.288000	26.075101	0.000744	20.794974
1339.367118	-3.009800	3.454400	-10.396000	26.073586	0.000745	20.779701
1340.366923	-3.009500	3.454000	-10.392000	26.085485	0.000742	20.787390
1341.366954	-2.991200	3.454400	-10.332000	26.052078	0.000743	20.793653
1342.370361	-3.007700	3.452800	-10.384000	26.073391	0.000743	20.792307
1343.369135	-2.999600	3.453600	-10.358000	26.076074	0.000739	20.792633
1344.366917	-2.990800	3.453200	-10.327000	26.110278	0.000739	20.773420
1345.373454	-2.998900	3.453100	-10.355000	26.108242	0.000741	20.797453
1346.369221	-3.007300	3.451900	-10.380000	26.112269	0.000737	20.800077
1347.368063	-3.032500	3.451900	-10.467000	26.107624	0.000737	20.809635
1348.372829	-3.006900	3.452500	-10.380000	26.072656	0.000740	20.804846
1349.370025	-2.997900	3.451300	-10.346000	26.054800	0.000738	20.803975
1350.370435	-2.963600	3.453200	-10.233000	26.021219	0.000736	20.795840
1351.370895	-3.011200	3.450800	-10.390000	25.998245	0.000737	20.807845
1352.370955	-3.012200	3.449000	-10.388000	25.997007	0.000737	20.785264
1353.370218	-2.996900	3.450000	-10.338000	26.037991	0.000736	20.772861
1354.374526	-3.019700	3.449200	-10.415000	26.047331	0.000735	20.788883
1355.370052	-2.992700	3.448600	-10.319000	26.076543	0.000735	20.787414
1356.369962	-2.990100	3.449700	-10.314000	26.054143	0.000733	20.798572
1357.371257	-3.017900	3.448600	-10.407000	26.019319	0.000732	20.785395
1358.371744	-3.004500	3.447200	-10.356000	25.992473	0.000730	20.775493
1359.371618	-2.990100	3.447700	-10.307000	26.014656	0.000733	20.779288
1360.371293	-3.004300	3.446600	-10.353000	26.025958	0.000731	20.778789
1361.371982	-3.028900	3.445100	-10.433000	26.011652	0.000729	20.775795
1362.371740	-2.998300	3.446100	-10.332000	25.996352	0.000731	20.784132
1363.371220	-3.004000	3.445800	-10.350000	25.946352	0.000729	20.780840
1364.374269	-3.007500	3.444400	-10.358000	25.993997	0.000730	20.792671
1365.371756	-3.013500	3.443400	-10.375000	26.037067	0.000728	20.776200
1366.374130	-2.993600	3.444100	-10.310000	26.028253	0.000727	20.772561
1367.372081	-3.000700	3.443400	-10.331000	26.053589	0.000729	20.777153
1368.373310	-2.990600	3.443200	-10.296000	26.071228	0.000727	20.776384
1369.376173	-3.015600	3.442300	-10.380000	26.061518	0.000727	20.751454
1370.371450	-2.987900	3.443000	-10.287000	26.077889	0.000723	20.787818
1371.373586	-3.048100	3.439900	-10.484000	26.071381	0.000727	20.775589
1372.373940	-2.999000	3.442300	-10.322000	26.106008	0.000725	20.768655
1373.373935	-3.004500	3.441400	-10.339000	26.065997	0.000725	20.752161
1374.374122	-2.988000	3.441700	-10.283000	26.028691	0.000725	20.757352
1375.378224	-3.027700	3.440500	-10.415000	26.041411	0.000725	20.777245
1376.374635	-2.982300	3.441000	-10.262000	26.041635	0.000723	20.767514
1377.373128	-2.999300	3.441000	-10.320000	26.070101	0.000725	20.783787
1378.374195	-3.009200	3.440100	-10.350000	26.019956	0.000726	20.775130
1379.374490	-3.010000	3.439300	-10.350000	25.994996	0.000724	20.774708
1380.378198	-3.013300	3.439600	-10.364000	25.980988	0.000720	20.771066
1381.374014	-3.025800	3.438700	-10.404000	26.011541	0.000720	20.765726
1382.375583	-3.000300	3.438800	-10.317000	26.041549	0.000720	20.767901
1383.374494	-2.994300	3.437800	-10.292000	26.019223	0.000722	20.755900
1384.374066	-2.982600	3.438000	-10.253000	26.008368	0.000717	20.773445
1385.377737	-2.998000	3.437100	-10.303000	26.007400	0.000720	20.772946
1386.374754	-3.010700	3.436400	-10.345000	25.999925	0.000720	20.757849
1387.373111	-2.977600	3.437400	-10.234000	25.994064	0.000719	20.759547
1388.375122	-2.995900	3.435100	-10.291000	25.982592	0.000719	20.748969
1389.374081	-3.015900	3.433900	-10.355000	25.978542	0.000719	20.761022
1390.378797	-3.027300	3.433500	-10.393000	25.970521	0.000715	20.754386
1391.374657	-2.998700	3.434000	-10.296000	25.971493	0.000716	20.771009
1392.374717	-2.999500	3.433500	-10.298000	25.996829	0.000718	20.748575
1393.377614	-3.005500	3.433800	-10.319000	26.001277	0.000716	20.737870
1394.374709	-2.983900	3.434200	-10.246000	26.020799	0.000719	20.740889
1395.383522	-2.995300	3.432600	-10.280000	26.018714	0.000714	20.763450
1396.382999	-2.980800	3.433600	-10.233000	26.001826	0.000715	20.752646
1397.379313	-3.009300	3.429700	-10.321000	26.007810	0.000714	20.752021
1398.378561	-2.996600	3.430300	-10.278000	25.989854	0.000714	20.736350
1399.377762	-2.990300	3.431400	-10.259000	25.994497	0.000713	20.749550
1400.378694	-3.031700	3.429000	-10.394000	25.979647	0.000713	20.733208
1401.385323	-2.998600	3.431300	-10.288000	25.994428	0.000711	20.766551
1402.380301	-3.014800	3.430100	-10.340000	26.045718	0.000713	20.757390
1403.378723	-3.001200	3.428700	-10.290000	26.003543	0.000711	20.733508
1404.379703	-2.982800	3.429900	-10.229000	26.052574	0.000709	20.765702
1405.384464	-2.978300	3.430000	-10.215000	26.049372	0.000709	20.728344
1406.387114	-2.986100	3.429600	-10.240000	26.046741	0.000710	20.741822
1407.381857	-2.983200	3.428600	-10.227000	26.028138	0.000706	20.739253
1408.379587	-2.981200	3.427500	-10.217000	25.990707	0.000709	20.749062
1409.379083	-3.005100	3.427400	-10.298000	25.977221	0.000708	20.738357
1410.387138	-2.999900	3.427400	-10.281000	26.041105	0.000707	20.746117
1411.379711	-2.978600	3.426800	-10.206000	26.053452	0.000706	20.734814
1412.388115	-2.999200	3.427200	-10.277000	26.075437	0.000705	20.749792
1413.381694	-3.007600	3.426500	-10.304000	26.108741	0.000706	20.754332
1414.384403	-3.011300	3.426200	-10.315000	26.093344	0.000703	20.738387
1415.380801	-2.986000	3.426200	-10.229000	26.093769	0.000704	20.741185
1416.395538	-3.004100	3.425700	-10.290000	26.115007	0.000704	20.745929
1417.387435	-2.990000	3.424900	-10.240000	26.073357	0.000702	20.737270
1418.380307	-2.995100	3.424000	-10.254000	26.070627	0.000703	20.719353
1419.381149	-3.011000	3.424800	-10.310000	26.038040	0.000702	20.742563
1420.380820	-3.007100	3.423700	-10.294000	26.017500	0.000701	20.714812
1421.380877	-3.023500	3.422200	-10.346000	26.024705	0.000700	20.729639
1422.381732	-3.002200	3.421500	-10.270000	25.984592	0.000701	20.746712
1423.390550	-2.984100	3.423200	-10.215000	26.043658	0.000699	20.716913
1424.381969	-2.983900	3.421900	-10.210000	26.083326	0.000700	20.723105
1425.390698	-2.987100	3.421600	-10.220000	26.072426	0.000701	20.728274
1426.384739	-3.008200	3.419500	-10.285000	26.110776	0.000698	20.721288
1427.384798	-3.007300	3.420100	-10.285000	26.091255	0.000699	20.735339
1428.388436	-3.000300	3.420400	-10.261000	26.065748	0.000700	20.728676
1429.387252	-2.993500	3.420000	-10.237000	26.067860	0.000696	20.735540
1430.388083	-2.985700	3.418900	-10.207000	26.105143	0.000697	20.735069
1431.389644	-2.996300	3.418900	-10.243000	26.146721	0.000696	20.742708
1432.389139	-2.990000	3.418300	-10.219000	26.162071	0.000694	20.712611
1433.391679	-2.995700	3.417300	-10.236000	26.193713	0.000698	20.714535
1434.391212	-3.006200	3.416400	-10.269000	26.185022	0.000695	20.728088
1435.392441	-3.008200	3.417400	-10.279000	26.229153	0.000696	20.700362
1436.392786	-3.013600	3.415900	-10.294000	26.259924	0.000695	20.725122
1437.399191	-2.998300	3.417900	-10.247000	26.243585	0.000692	20.719134
1438.396051	-2.980700	3.417300	-10.185000	26.210260	0.000693	20.743019
1439.393034	-2.997900	3.416100	-10.239000	26.163969	0.000693	20.731589
1440.395320	-3.002600	3.415400	-10.254000	26.078461	0.000691	20.733389
1441.394037	-2.989400	3.415100	-10.209000	26.057077	0.000690	20.711902
1442.406282	-2.966700	3.415600	-10.132000	26.081322	0.000691	20.738161
1443.396297	-3.006600	3.413500	-10.262000	26.105987	0.000688	20.722640
1444.395822	-2.979200	3.414300	-10.171000	26.132937	0.000688	20.727434
1445.394605	-2.988700	3.414300	-10.202000	26.179652	0.000688	20.719373
1446.394945	-2.979300	3.415200	-10.173000	26.203967	0.000689	20.705873
1447.394241	-2.987400	3.413800	-10.198000	26.189838	0.000687	20.700684
1448.394539	-2.996800	3.412400	-10.225000	26.165998	0.000687	20.737422
1449.397368	-2.966600	3.411500	-10.119000	26.145464	0.000687	20.714890
1450.396972	-2.971700	3.411900	-10.139000	26.120429	0.000687	20.724349
1451.404262	-2.998300	3.413000	-10.232000	26.119238	0.000685	20.725049
1452.417210	-3.016700	3.409500	-10.284000	26.093364	0.000687	20.724181
1453.403745	-2.997800	3.409900	-10.221000	26.095698	0.000685	20.736011
1454.401643	-2.993400	3.411000	-10.209000	26.120588	0.000686	20.732096
1455.398630	-3.014300	3.409300	-10.275000	26.116418	0.000686	20.732173
1456.399134	-2.989200	3.409800	-10.191000	26.132092	0.000683	20.717575
1457.400431	-2.989700	3.409300	-10.192000	26.154445	0.000685	20.733874
1458.401293	-3.001700	3.408800	-10.231000	26.192219	0.000682	20.717776
1459.402542	-3.004200	3.408200	-10.237000	26.218423	0.000683	20.716608
1460.405049	-3.004100	3.406200	-10.232000	26.244152	0.000682	20.740567
1461.403464	-3.012300	3.406000	-10.259000	26.256423	0.000681	20.732035
1462.401459	-2.991500	3.407800	-10.193000	26.265415	0.000679	20.716415
1463.402621	-3.009400	3.405500	-10.247000	26.280491	0.000681	20.750533
1464.401628	-3.005100	3.404900	-10.230000	26.284965	0.000681	20.732744
1465.403507	-2.990600	3.404100	-10.180000	26.300190	0.000678	20.729077
1466.403197	-2.999200	3.404000	-10.207000	26.307763	0.000680	20.725782
1467.403688	-2.976600	3.405200	-10.135000	26.320825	0.000678	20.712356
1468.402810	-3.004500	3.404600	-10.229000	26.270073	0.000676	20.717776
1469.402659	-2.995200	3.404400	-10.194000	26.259421	0.000677	20.723668
1470.403884	-2.991700	3.404400	-10.184000	26.297293	0.000678	20.734701
1471.404800	-3.002600	3.401400	-10.212000	26.258955	0.000677	20.720354
1472.404581	-2.984300	3.402900	-10.154000	26.258906	0.000676	20.712243
1473.406527	-2.985000	3.403900	-10.159000	26.206534	0.000677	20.738800
1474.402620	-3.007000	3.400700	-10.225000	26.202688	0.000675	20.718339
1475.402393	-3.006900	3.400900	-10.225000	26.193229	0.000676	20.727801
1476.406930	-2.992700	3.402100	-10.181000	26.215036	0.000676	20.721264
1477.402601	-3.019600	3.400500	-10.267000	26.194947	0.000677	20.736165
1478.406662	-2.995000	3.400600	-10.183000	26.188565	0.000675	20.730227
1479.402060	-3.004000	3.400300	-10.213000	26.177068	0.000673	20.724837
1480.402892	-2.989600	3.400700	-10.165000	26.128866	0.000673	20.711014
1481.407258	-3.000700	3.399100	-10.199000	26.110511	0.000674	20.734773
1482.403309	-2.994200	3.398600	-10.175000	26.103285	0.000675	20.728934
1483.403010	-2.986000	3.399400	-10.150000	26.132221	0.000674	20.728137
1484.402890	-3.012200	3.397800	-10.234000	26.166918	0.000676	20.734553
1485.404545	-3.006000	3.396200	-10.208000	26.188895	0.000671	20.718703
1486.403749	-2.993600	3.397400	-10.170000	26.214998	0.000673	20.735925
1487.408030	-3.007500	3.395500	-10.211000	26.238960	0.000669	20.717330
1488.405076	-3.007400	3.395700	-10.211000	26.278273	0.000672	20.745459
1489.407670	-3.005700	3.395100	-10.204000	26.294712	0.000667	20.723572
1490.406492	-3.001900	3.395900	-10.193000	26.276907	0.000670	20.723222
1491.408868	-3.003900	3.396400	-10.201000	26.258456	0.000669	20.722698
1492.412748	-3.019400	3.395900	-10.251000	26.231438	0.000668	20.725893
1493.411774	-2.998400	3.394100	-10.176000	26.229724	0.000667	20.731757
1494.410524	-3.012600	3.395600	-10.229000	26.187504	0.000668	20.722047
1495.409764	-3.013200	3.392600	-10.222000	26.143077	0.000667	20.735727
1496.410440	-2.985000	3.393500	-10.127000	26.137390	0.000666	20.731435
1497.411575	-2.998900	3.393600	-10.176000	26.134136	0.000664	20.737174
1498.411209	-2.954100	3.393100	-10.022000	26.139552	0.000663	20.733133
1499.410949	-2.986800	3.393900	-10.135000	26.177946	0.000662	20.741368
1500.410953	-2.977300	3.391500	-10.096000	26.214529	0.000665	20.750154
1501.411729	-2.988800	3.392300	-10.137000	26.217036	0.000664	20.756467
1502.411679	-2.980000	3.391200	-10.105000	26.241994	0.000665	20.749779
1503.414122	-3.009900	3.389500	-10.201000	26.269067	0.000661	20.737629
1504.412596	-3.011700	3.389800	-10.208000	26.249025	0.000661	20.745464
1505.414563	-3.016100	3.389400	-10.221000	26.270781	0.000661	20.744568
1506.413362	-3.010100	3.388600	-10.199000	26.238327	0.000660	20.728074
1507.416020	-2.988400	3.389500	-10.128000	26.213344	0.000661	20.740902
1508.416178	-3.010500	3.388600	-10.200000	26.233957	0.000661	20.738382
1509.413909	-2.994200	3.387600	-10.142000	26.244386	0.000658	20.753605
1510.419740	-2.997400	3.388900	-10.156000	26.256207	0.000658	20.749363
1511.413189	-2.992000	3.388800	-10.139000	26.275555	0.000660	20.729450
1512.414606	-2.988600	3.388500	-10.126000	26.238703	0.000658	20.735565
1513.417888	-2.993600	3.387000	-10.138000	26.223801	0.000658	20.752359
1514.416528	-2.994300	3.386100	-10.138000	26.248710	0.000656	20.748467
1515.415335	-3.011800	3.385900	-10.197000	26.235995	0.000655	20.740431
1516.415146	-3.003400	3.385600	-10.167000	26.231076	0.000657	20.747342
1517.415548	-2.992900	3.387200	-10.136000	26.260527	0.000657	20.748489
1518.415786	-2.963400	3.386500	-10.034000	26.263956	0.000657	20.748141
1519.416934	-3.013800	3.384100	-10.199000	26.308357	0.000656	20.738707
1520.414947	-2.984800	3.385400	-10.103000	26.336785	0.000654	20.745467
1521.418394	-2.997900	3.383200	-10.142000	26.336239	0.000655	20.743496
1522.414733	-2.993300	3.384700	-10.131000	26.349227	0.000654	20.746592
1523.415094	-2.992800	3.384400	-10.127000	26.374577	0.000654	20.743146
1524.417942	-2.989400	3.382800	-10.112000	26.391509	0.000653	20.757319
1525.415963	-3.007700	3.382300	-10.172000	26.399628	0.000653	20.766901
1526.415807	-2.984800	3.382700	-10.096000	26.407272	0.000652	20.748979
1527.417338	-2.987200	3.382900	-10.104000	26.400346	0.000654	20.776158
1528.416315	-3.016700	3.381400	-10.199000	26.387729	0.000651	20.759210
1529.417329	-2.998400	3.380200	-10.134000	26.369823	0.000650	20.735997
1530.417949	-2.979200	3.382000	-10.075000	26.361628	0.000651	20.751943
1531.417936	-3.009200	3.380100	-10.171000	26.372352	0.000651	20.749445
1532.418289	-2.980300	3.382000	-10.077000	26.362818	0.000650	20.753613
1533.418349	-3.010900	3.379600	-10.174000	26.347666	0.000650	20.774421
1534.419505	-2.985300	3.380900	-10.092000	26.340762	0.000648	20.760370
1535.422052	-3.011000	3.378500	-10.172000	26.320151	0.000648	20.766683
1536.419024	-2.991500	3.378300	-10.105000	26.316771	0.000649	20.750958
1537.421574	-2.996700	3.377400	-10.120000	26.321188	0.000649	20.769622
1538.420056	-2.992400	3.379300	-10.111000	26.341327	0.000646	20.754299
1539.422199	-2.997600	3.377500	-10.123000	26.342986	0.000646	20.770192
1540.422174	-2.987600	3.377800	-10.090000	26.350606	0.000646	20.779747
1541.423169	-2.993500	3.376600	-10.106000	26.330519	0.000644	20.772836
1542.421623	-2.997100	3.376300	-10.118000	26.326295	0.000644	20.757210
1543.421500	-3.020200	3.375400	-10.193000	26.288150	0.000642	20.760601
1544.420905	-3.026700	3.376100	-10.217000	26.304093	0.000643	20.773304
1545.421819	-2.997100	3.376200	-10.117000	26.306921	0.000644	20.751490
1546.420949	-3.021000	3.374400	-10.192000	26.310646	0.000643	20.782735
1547.422013	-2.997100	3.374400	-10.112000	26.276725	0.000643	20.774724
1548.423371	-3.003200	3.372800	-10.129000	26.247494	0.000643	20.770953
1549.423812	-3.007900	3.373200	-10.145000	26.233959	0.000640	20.782956
1550.428160	-3.001000	3.371900	-10.118000	26.244166	0.000640	20.787998
1551.427705	-3.004100	3.373700	-10.134000	26.276201	0.000639	20.778465
1552.424959	-2.995200	3.372800	-10.100000	26.313225	0.000641	20.777740
1553.425892	-3.019100	3.371500	-10.177000	26.321316	0.000640	20.775441
1554.426003	-2.992700	3.372400	-10.092000	26.273762	0.000640	20.779333
1555.428547	-2.989900	3.371500	-10.080000	26.289187	0.000637	20.773497
1556.430948	-3.019600	3.370200	-10.175000	26.285015	0.000637	20.779736
1557.427134	-3.010600	3.370500	-10.146000	26.289360	0.000636	20.781258
1558.430169	-3.004300	3.369900	-10.123000	26.281709	0.000636	20.788742
1559.427950	-3.019800	3.369000	-10.173000	26.261325	0.000635	20.774421
1560.429772	-3.005400	3.369400	-10.125000	26.274064	0.000633	20.797655
1561.430229	-2.990200	3.369000	-10.073000	26.298250	0.000634	20.791615
1562.430182	-3.018700	3.367500	-10.164000	26.309126	0.000632	20.776941
1563.428905	-2.983600	3.369200	-10.051000	26.335942	0.000634	20.787295
1564.427469	-3.000600	3.367500	-10.103000	26.319802	0.000633	20.785773
1565.428180	-2.977500	3.368400	-10.027000	26.346124	0.000630	20.789467
1566.426832	-2.986600	3.368400	-10.059000	26.347836	0.000629	20.802567
1567.430026	-3.020200	3.365800	-10.164000	26.323058	0.000628	20.799951
1568.428229	-2.994800	3.368000	-10.084000	26.261646	0.000627	20.797029
1569.430525	-2.989200	3.367000	-10.063000	26.245209	0.000628	20.786675
1570.429077	-2.991400	3.366200	-10.069000	26.201130	0.000629	20.808761
1571.430665	-2.991000	3.364800	-10.062000	26.200532	0.000626	20.797729
1572.432246	-3.012200	3.364200	-10.133000	26.187174	0.000624	20.796161
1573.430136	-3.003100	3.364800	-10.104000	26.227951	0.000624	20.817222
1574.431036	-3.006600	3.364300	-10.114000	26.268904	0.000626	20.796737
1575.430584	-3.016000	3.364300	-10.146000	26.309483	0.000623	20.809067
1576.430674	-2.985800	3.364000	-10.043000	26.317205	0.000626	20.812086
1577.431126	-3.007400	3.363100	-10.114000	26.301687	0.000623	20.795543
1578.436757	-3.004400	3.361900	-10.099000	26.302881	0.000624	20.804329
1579.432189	-3.015000	3.361800	-10.134000	26.329897	0.000621	20.805875
1580.432927	-2.988900	3.363300	-10.050000	26.362826	0.000622	20.807201
1581.436904	-3.012100	3.360500	-10.121000	26.357738	0.000621	20.791656
1582.433452	-3.021900	3.362700	-10.160000	26.355801	0.000622	20.807728
1583.435939	-3.024300	3.360200	-10.161000	26.381280	0.000621	20.801567
1584.432673	-3.013400	3.359700	-10.123000	26.401569	0.000620	20.813423
1585.435754	-3.015500	3.360100	-10.131000	26.430941	0.000619	20.787469
1586.433321	-3.018700	3.358600	-10.137000	26.477449	0.000617	20.808136
1587.448088	-3.011900	3.359000	-10.116000	26.520727	0.000621	20.795687
1588.435573	-3.016400	3.359100	-10.131000	26.511342	0.000617	20.808064
1589.434584	-2.988600	3.360600	-10.043000	26.474205	0.000617	20.797763
1590.434102	-2.995600	3.360100	-10.065000	26.485973	0.000618	20.813859
1591.434338	-2.998600	3.358400	-10.069000	26.454691	0.000618	20.814184
1592.434424	-3.005300	3.357900	-10.091000	26.478629	0.000616	20.806003
1593.435245	-3.006600	3.356400	-10.090000	26.487169	0.000617	20.783293
1594.438136	-3.005800	3.358000	-10.093000	26.525230	0.000616	20.791205
1595.438264	-3.005300	3.356900	-10.088000	26.504851	0.000614	20.802962
1596.440629	-2.987800	3.357800	-10.031000	26.504530	0.000614	20.823028
1597.437413	-3.012400	3.355800	-10.108000	26.501653	0.000611	20.806386
1598.436858	-3.025300	3.353800	-10.146000	26.489018	0.000612	20.818342
1599.442379	-2.996400	3.356800	-10.058000	26.545229	0.000612	20.811307
1600.437173	-3.004300	3.354700	-10.076000	26.566211	0.000611	20.794466
1601.437667	-3.001900	3.354800	-10.070000	26.570235	0.000612	20.806571
1602.440761	-3.013100	3.353600	-10.103000	26.619092	0.000610	20.821545
1603.439046	-3.005300	3.353300	-10.077000	26.609044	0.000612	20.830411
1604.438487	-3.004500	3.353700	-10.075000	26.619868	0.000611	20.811894
1605.444698	-2.983700	3.353700	-10.005000	26.599315	0.000610	20.813518
1606.439909	-2.995700	3.353200	-10.045000	26.546214	0.000609	20.821780
1607.439879	-2.969600	3.353900	-9.958400	26.483975	0.000611	20.821334
1608.439663	-2.987100	3.352200	-10.012000	26.463099	0.000608	20.809359
1609.440194	-2.979800	3.352000	-9.987500	26.428735	0.000608	20.819864
1610.441730	-2.987500	3.352200	-10.014000	26.422978	0.000607	20.806966
1611.441032	-2.984100	3.352700	-10.003000	26.406766	0.000609	20.823862
1612.442150	-2.974500	3.351800	-9.968800	26.372552	0.000606	20.819821
1613.441237	-3.004400	3.350500	-10.064000	26.397953	0.000605	20.806470
1614.441470	-3.003200	3.349400	-10.057000	26.421791	0.000608	20.814782
1615.443319	-3.010100	3.349700	-10.083000	26.412282	0.000606	20.827035
1616.442448	-2.992600	3.350100	-10.023000	26.415458	0.000606	20.811261
1617.443933	-2.987800	3.349100	-10.006000	26.428149	0.000606	20.843456
1618.441236	-2.966100	3.350000	-9.935100	26.429934	0.000607	20.826759
1619.442198	-2.997400	3.347900	-10.034000	26.422861	0.000603	20.832452
1620.446681	-2.992100	3.348800	-10.019000	26.425960	0.000603	20.822291
1621.444471	-2.973900	3.347800	-9.954500	26.476313	0.000604	20.818847
1622.445321	-2.997200	3.346500	-10.029000	26.528298	0.000604	20.822263
1623.443952	-3.008200	3.345700	-10.064000	26.546793	0.000603	20.808138
1624.442904	-2.984300	3.347100	-9.988000	26.583514	0.000601	20.837463
1625.446291	-2.984500	3.346400	-9.986000	26.592720	0.000604	20.815423
1626.448828	-2.977600	3.347500	-9.966700	26.614494	0.000601	20.839208
1627.445646	-2.990600	3.345100	-10.003000	26.638842	0.000599	20.833813
1628.445042	-2.987200	3.345500	-9.992800	26.629603	0.000602	20.815517
1629.445022	-2.989900	3.344600	-9.998800	26.642363	0.000600	20.833085
1630.445034	-2.989600	3.343200	-9.993600	26.640004	0.000603	20.835456
1631.449218	-2.946500	3.345300	-9.855600	26.630744	0.000599	20.830888
1632.444764	-3.016600	3.343300	-10.084000	26.639407	0.000600	20.834380
1633.447073	-3.005800	3.342300	-10.045000	26.588488	0.000597	20.859057
1634.446017	-2.979900	3.343000	-9.960900	26.561327	0.000597	20.842187
1635.446397	-2.979000	3.343100	-9.958500	26.560532	0.000598	20.827163
1636.447307	-2.992900	3.342200	-10.002000	26.543178	0.000593	20.858556
1637.446900	-2.981200	3.342200	-9.963200	26.547867	0.000597	20.828657
1638.451215	-2.999000	3.341700	-10.021000	26.564201	0.000592	20.833222
1639.446998	-2.990500	3.341900	-9.991800	26.551910	0.000595	20.836514
1640.448233	-2.995800	3.340000	-10.004000	26.551364	0.000591	20.844974
1641.449149	-2.980900	3.341900	-9.960200	26.548704	0.000591	20.830446
1642.451972	-2.984900	3.340400	-9.970200	26.558116	0.000589	20.863614
1643.449371	-3.015000	3.339100	-10.065000	26.540882	0.000589	20.866205
1644.450438	-3.024000	3.339000	-10.096000	26.528568	0.000586	20.860465
1645.450388	-2.987300	3.339500	-9.974600	26.512728	0.000586	20.846914
1646.449168	-2.973100	3.338200	-9.923700	26.538992	0.000588	20.841547
1647.452389	-2.982800	3.339900	-9.960000	26.573627	0.000583	20.851231
1648.453593	-3.006400	3.338300	-10.035000	26.566376	0.000584	20.863856
1649.451733	-3.017900	3.337300	-10.071000	26.561659	0.000585	20.842520
1650.449913	-3.011500	3.337500	-10.049000	26.563471	0.000585	20.849558
1651.449893	-3.027300	3.335600	-10.097000	26.540556	0.000586	20.864928
1652.452220	-3.003000	3.335200	-10.015000	26.532712	0.000586	20.848510
1653.453057	-2.983700	3.335700	-9.952300	26.577844	0.000584	20.849781
1654.449655	-3.007900	3.334000	-10.027000	26.593333	0.000582	20.873884
1655.450865	-3.014800	3.335200	-10.053000	26.612973	0.000580	20.846688
1656.451169	-3.017000	3.333900	-10.058000	26.641495	0.000581	20.842170
1657.452608	-3.007200	3.334400	-10.024000	26.643481	0.000582	20.859338
1658.452611	-3.008600	3.334600	-10.032000	26.653410	0.000580	20.883543
1659.450870	-2.993400	3.332300	-9.974000	26.663389	0.000580	20.883617
1660.464482	-2.989600	3.332600	-9.962600	26.687218	0.000581	20.876754
1661.451858	-3.008900	3.332900	-10.026000	26.722371	0.000580	20.869421
1662.451666	-2.990300	3.333400	-9.966400	26.735626	0.000579	20.868997
1663.453224	-2.978200	3.333300	-9.925700	26.728453	0.000578	20.885966
1664.453636	-3.000800	3.331500	-9.995900	26.659224	0.000579	20.857147
1665.465018	-2.989400	3.332300	-9.960500	26.641921	0.000581	20.862985
1666.452683	-2.993700	3.331700	-9.973100	26.637352	0.000580	20.883047
1667.454152	-2.990500	3.331100	-9.961100	26.643634	0.000578	20.880354
1668.454061	-3.000700	3.329400	-9.989900	26.675309	0.000580	20.887066
1669.454929	-2.975800	3.331200	-9.911700	26.701148	0.000577	20.876059
1670.454741	-3.003600	3.330100	-10.001000	26.710879	0.000576	20.888687
1671.454119	-3.005700	3.327700	-10.001000	26.693330	0.000573	20.869148
1672.454002	-3.012100	3.327700	-10.022000	26.692291	0.000578	20.870475
1673.454569	-2.994400	3.328900	-9.966500	26.674092	0.000574	20.901962
1674.461797	-2.980900	3.327600	-9.917800	26.703583	0.000575	20.872343
1675.455233	-2.997900	3.328000	-9.976200	26.701869	0.000575	20.868250
1676.459037	-3.011400	3.326000	-10.015000	26.683105	0.000575	20.901066
1677.456223	-2.988100	3.326200	-9.938900	26.721504	0.000573	20.891308
1678.457334	-3.005000	3.326800	-9.995700	26.721579	0.000573	20.882848
1679.458145	-3.019800	3.324600	-10.038000	26.747866	0.000574	20.892207
1680.457381	-2.991800	3.326800	-9.950800	26.732700	0.000571	20.873642
1681.456813	-2.998900	3.324300	-9.968300	26.765617	0.000571	20.887769
1682.457156	-3.001500	3.324200	-9.976100	26.764745	0.000569	20.874565
1683.456795	-2.978200	3.326500	-9.905600	26.800266	0.000572	20.892733
1684.457009	-3.022400	3.324000	-10.046000	26.794187	0.000569	20.865761
1685.459699	-3.011600	3.323300	-10.008000	26.828662	0.000568	20.905636
1686.456476	-2.997600	3.322900	-9.959900	26.841395	0.000571	20.889991
1687.459721	-2.987900	3.325300	-9.934000	26.861699	0.000568	20.906138
1688.458160	-3.006000	3.323000	-9.987500	26.867432	0.000568	20.891989
1689.458736	-3.010200	3.322600	-10.001000	26.879742	0.000568	20.901047
1690.462457	-2.988300	3.322700	-9.928200	26.860682	0.000566	20.892789
1691.460426	-3.020700	3.320700	-10.029000	26.841175	0.000565	20.881710
1692.459775	-2.999600	3.321200	-9.961300	26.796948	0.000562	20.890347
1693.460743	-2.992500	3.322300	-9.940600	26.817300	0.000562	20.890895
1694.460243	-2.975700	3.321700	-9.883500	26.819384	0.000566	20.892516
1695.458795	-2.987800	3.320600	-9.920000	26.740603	0.000565	20.881112
1696.462716	-2.994000	3.321200	-9.942500	26.716578	0.000561	20.899156
1697.460388	-2.994800	3.320300	-9.942200	26.629422	0.000562	20.875550
1698.461221	-3.012400	3.317400	-9.992200	26.601517	0.000564	20.879265
1699.460480	-2.981200	3.319700	-9.895300	26.612840	0.000562	20.887328
1700.463855	-3.015900	3.317500	-10.005000	26.669238	0.000562	20.889972
1701.463438	-3.013000	3.317500	-9.994200	26.701707	0.000562	20.879467
1702.461735	-3.021400	3.317100	-10.021000	26.709676	0.000562	20.890322
1703.463982	-3.014900	3.316400	-9.997700	26.740381	0.000561	20.888949
1704.460836	-3.018600	3.317500	-10.013000	26.744672	0.000560	20.871927
1705.460728	-3.011900	3.315500	-9.985300	26.779299	0.000559	20.880189
1706.462726	-3.006900	3.315900	-9.969800	26.795034	0.000560	20.868983
1707.461475	-2.988200	3.314800	-9.903900	26.849562	0.000559	20.865488
1708.466465	-2.984000	3.315000	-9.891700	26.851100	0.000558	20.864190
1709.463064	-3.009300	3.313900	-9.971500	26.873757	0.000556	20.860893
1710.464302	-3.013700	3.314600	-9.988200	26.884106	0.000558	20.885996
1711.468164	-2.999600	3.314400	-9.940900	26.861570	0.000555	20.864286
1712.464418	-2.995700	3.313900	-9.926500	26.828656	0.000556	20.872917
1713.466127	-2.982800	3.313500	-9.882800	26.766554	0.000554	20.850307
1714.465971	-2.996900	3.312900	-9.927600	26.734383	0.000553	20.875808
1715.468029	-3.012000	3.312700	-9.976600	26.735102	0.000554	20.875582
1716.469573	-3.023400	3.311200	-10.010000	26.771835	0.000553	20.867470
1717.466713	-2.974300	3.311900	-9.848400	26.755104	0.000549	20.869140
1718.474257	-2.994000	3.312000	-9.914200	26.742642	0.000552	20.878421
1719.466828	-2.991700	3.312200	-9.907900	26.726434	0.000551	20.893419
1720.466953	-3.005100	3.310900	-9.948700	26.775208	0.000552	20.878446
1721.468060	-3.011600	3.309500	-9.965700	26.772501	0.000549	20.860553
1722.469058	-2.986100	3.309500	-9.881100	26.827502	0.000550	20.878394
1723.470061	-2.999400	3.309200	-9.924600	26.828716	0.000549	20.872029
1724.468058	-3.009600	3.308800	-9.956300	26.836064	0.000547	20.858081
1725.468578	-2.997200	3.308200	-9.914600	26.825168	0.000546	20.869884
1726.467412	-2.982600	3.308700	-9.867700	26.825613	0.000545	20.869382
1727.470205	-2.994600	3.309100	-9.908200	26.785254	0.000545	20.854409
1728.468003	-2.999300	3.307200	-9.918200	26.776765	0.000545	20.859624
1729.470181	-2.974100	3.308800	-9.838400	26.770757	0.000541	20.851214
1730.471071	-3.017100	3.304500	-9.969000	26.783888	0.000542	20.867260
1731.470061	-2.987200	3.306700	-9.876300	26.778648	0.000543	20.871949
1732.473252	-2.999500	3.306600	-9.916900	26.771078	0.000545	20.867657
1733.470788	-3.001000	3.306100	-9.920600	26.759809	0.000543	20.862965
1734.473875	-2.970000	3.306100	-9.817900	26.729475	0.000541	20.861865
1735.472978	-3.004700	3.304600	-9.928300	26.709763	0.000541	20.858169
1736.472578	-3.025500	3.303400	-9.992900	26.704750	0.000538	20.861664
1737.475019	-3.019800	3.303100	-9.973100	26.719244	0.000542	20.877657
1738.475574	-3.007600	3.303700	-9.935100	26.735625	0.000541	20.842919
1739.472116	-2.993800	3.303200	-9.887400	26.728178	0.000540	20.854397
1740.470830	-3.006300	3.303000	-9.929000	26.761635	0.000540	20.854844
1741.472242	-3.006200	3.302500	-9.926600	26.807056	0.000539	20.855467
1742.472861	-2.989600	3.302300	-9.871700	26.814204	0.000537	20.853171
1743.475851	-2.989400	3.303400	-9.873100	26.790224	0.000537	20.867466
1744.472225	-2.981800	3.304500	-9.851700	26.759644	0.000538	20.842412
1745.471783	-3.005800	3.301900	-9.924400	26.737177	0.000536	20.845427
1746.473268	-2.979300	3.301300	-9.834200	26.717566	0.000534	20.860324
1747.473029	-2.973400	3.300700	-9.813200	26.660917	0.000535	20.852211
1748.476913	-3.006000	3.300200	-9.920100	26.632569	0.000533	20.855007
1749.473166	-3.000700	3.299600	-9.899700	26.639021	0.000531	20.840157
1750.473175	-2.997300	3.298400	-9.884500	26.678393	0.000530	20.831848
1751.473138	-3.002300	3.297300	-9.897900	26.728158	0.000534	20.845844
1752.474523	-2.965600	3.300800	-9.787200	26.754467	0.000533	20.834362
1753.474817	-2.973400	3.299400	-9.809400	26.778100	0.000533	20.851484
1754.478290	-3.000400	3.298100	-9.894500	26.801353	0.000533	20.835983
1755.476652	-3.013000	3.298000	-9.935200	26.827016	0.000530	20.848983
1756.475060	-2.996000	3.298200	-9.879500	26.803933	0.000529	20.858965
1757.476721	-3.016400	3.296400	-9.942000	26.772931	0.000529	20.860985
1758.476170	-2.998700	3.295600	-9.881600	26.761733	0.000527	20.842142
1759.482388	-3.007900	3.296900	-9.915700	26.725370	0.000530	20.856316
1760.478952	-3.018000	3.295500	-9.944500	26.758133	0.000530	20.848005
1761.478346	-2.992400	3.296700	-9.862700	26.754136	0.000526	20.827391
1762.478889	-2.999000	3.295800	-9.883100	26.741377	0.000527	20.835901
1763.477196	-3.018800	3.294000	-9.942000	26.736233	0.000523	20.855384
1764.482160	-3.005000	3.292700	-9.893600	26.721542	0.000525	20.845356
1765.477516	-3.014700	3.295100	-9.932800	26.746162	0.000523	20.828857
1766.479710	-3.010200	3.293800	-9.914100	26.761797	0.000520	20.852162
1767.478558	-2.996200	3.294900	-9.869400	26.766962	0.000522	20.850243
1768.478498	-3.018300	3.292100	-9.935600	26.783265	0.000521	20.835815
1769.482424	-3.011300	3.291200	-9.909800	26.828987	0.000519	20.850491
1770.479618	-2.980400	3.293200	-9.813100	26.851000	0.000521	20.846072
1771.479250	-3.006500	3.293500	-9.901000	26.860681	0.000519	20.841582
1772.480031	-3.003200	3.291500	-9.883300	26.881600	0.000518	20.848391
1773.481670	-2.994000	3.292400	-9.856200	26.890362	0.000515	20.833020
1774.481098	-2.997600	3.291600	-9.865100	26.870458	0.000517	20.849515
1775.482509	-2.998800	3.290600	-9.866200	26.841791	0.000514	20.828279
1776.481466	-2.983000	3.291100	-9.816600	26.816699	0.000514	20.844300
1777.481325	-2.987300	3.290400	-9.828100	26.769090	0.000513	20.854753
1778.481584	-2.988800	3.289000	-9.828900	26.772295	0.000511	20.838536
1779.484269	-2.990300	3.289700	-9.835700	26.813573	0.000513	20.851114
1780.484025	-2.986100	3.289500	-9.821300	26.822185	0.000512	20.855031
1781.482013	-2.986900	3.288700	-9.822300	26.839960	0.000512	20.835920
1782.483787	-2.961500	3.288900	-9.738100	26.843855	0.000511	20.819449
1783.481732	-3.002500	3.287900	-9.871100	26.846389	0.000513	20.841436
1784.482821	-3.008100	3.286900	-9.886500	26.858896	0.000511	20.845951
1785.486981	-2.993100	3.286900	-9.837200	26.888906	0.000512	20.817806
1786.485610	-2.982800	3.287500	-9.805000	26.897344	0.000508	20.847627
1787.483657	-2.990300	3.286000	-9.825100	26.933606	0.000508	20.820080
1788.485180	-3.032000	3.285400	-9.958300	26.921771	0.000510	20.823352
1789.483890	-3.002700	3.283900	-9.859500	26.930231	0.000509	20.846558
1790.486138	-2.986700	3.285400	-9.811300	26.879058	0.000509	20.812171
1791.485779	-3.006600	3.285600	-9.877600	26.833741	0.000507	20.828720
1792.487103	-3.030100	3.283100	-9.946700	26.795839	0.000507	20.823328
1793.489544	-3.025100	3.283300	-9.930100	26.787850	0.000505	20.819088
1794.484437	-3.001300	3.284500	-9.856700	26.775936	0.000504	20.848360
1795.484879	-3.017400	3.282800	-9.903300	26.804778	0.000505	20.843219
1796.489454	-2.998800	3.282900	-9.843700	26.856728	0.000505	20.827650
1797.485226	-2.993500	3.283400	-9.828500	26.911233	0.000505	20.823661
1798.486686	-3.009500	3.280900	-9.872800	26.942998	0.000503	20.822887
1799.486692	-2.974600	3.281900	-9.762000	26.942650	0.000504	20.829174
1800.487676	-3.000300	3.279900	-9.840000	26.904459	0.000500	20.826332
1801.486670	-2.991300	3.280600	-9.812000	26.868870	0.000503	20.829428
1802.489897	-3.004100	3.279500	-9.851100	26.831693	0.000503	20.821919
1803.488225	-2.994700	3.279600	-9.819500	26.786871	0.000500	20.813836
1804.487465	-2.986700	3.279700	-9.794600	26.757856	0.000501	20.823545
1805.488564	-2.994300	3.278900	-9.816900	26.727799	0.000497	20.814189
1806.488742	-3.000300	3.279300	-9.837600	26.658866	0.000496	20.815063
1807.493676	-3.016200	3.278000	-9.886300	26.656138	0.000498	20.832709
1808.489245	-2.965700	3.278800	-9.722800	26.620865	0.000496	20.815741
1809.489882	-2.940400	3.280000	-9.642100	26.673150	0.000494	20.807612
1810.489288	-2.999400	3.276500	-9.826400	26.724383	0.000498	20.819289
1811.488946	-2.989300	3.277400	-9.795800	26.771525	0.000494	20.818322
1812.490382	-2.997300	3.276800	-9.820300	26.829380	0.000493	20.800153
1813.490167	-3.019700	3.275000	-9.888400	26.878154	0.000492	20.812210
1814.490113	-3.006500	3.275700	-9.847200	26.898082	0.000491	20.796687
1815.491931	-3.005300	3.276500	-9.846500	26.882425	0.000493	20.816979
1816.491370	-3.002400	3.275400	-9.833500	26.880317	0.000493	20.821024
1817.490982	-2.980600	3.276000	-9.763200	26.915612	0.000491	20.806728
1818.492462	-3.018000	3.273100	-9.875500	26.903799	0.000489	20.829462
1819.490402	-2.990800	3.274400	-9.792900	26.940307	0.000490	20.808801
1820.493202	-2.985600	3.275300	-9.777500	26.940408	0.000489	20.793730
1821.491905	-2.989100	3.272700	-9.781800	26.961676	0.000487	20.804685
1822.495167	-3.009900	3.272900	-9.849900	27.002898	0.000487	20.799196
1823.504794	-3.011100	3.272800	-9.853800	27.014293	0.000484	20.798802
1824.492640	-2.997700	3.272500	-9.809100	27.045784	0.000485	20.801548
1825.494527	-2.999600	3.273100	-9.816500	27.095763	0.000486	20.814353
1826.492789	-3.001600	3.271800	-9.820000	27.110329	0.000482	20.811933
1827.493241	-2.998700	3.271500	-9.808700	27.126361	0.000484	20.798185
1828.493568	-2.990100	3.271700	-9.782000	27.164325	0.000483	20.808393
1829.497517	-2.994800	3.270100	-9.791700	27.166460	0.000481	20.807222
1830.494432	-3.008200	3.269300	-9.833700	27.186137	0.000482	20.799985
1831.494864	-3.026100	3.268300	-9.888400	27.175916	0.000479	20.807249
1832.495132	-2.988500	3.269300	-9.768800	27.197829	0.000479	20.831186
1833.497945	-2.995100	3.269700	-9.790700	27.178399	0.000479	20.797893
1834.497658	-3.007800	3.268200	-9.828200	27.155176	0.000479	20.796821
1835.496133	-3.000700	3.268900	-9.808600	27.160738	0.000479	20.794828
1836.497128	-3.005000	3.268800	-9.821400	27.188998	0.000477	20.834631
1837.494881	-3.004800	3.268100	-9.819600	27.121238	0.000477	20.802042
1838.498091	-2.997200	3.268800	-9.795900	27.102208	0.000476	20.781954
1839.496831	-3.007300	3.265000	-9.818200	27.081913	0.000474	20.801373
1840.494672	-2.998400	3.264900	-9.787800	27.065711	0.000476	20.807363
1841.494651	-3.016600	3.265900	-9.850800	27.079189	0.000476	20.789150
1842.495226	-3.001400	3.265300	-9.799000	27.053458	0.000470	20.785558
1843.495880	-2.983400	3.267200	-9.746100	27.051323	0.000472	20.772504
1844.500128	-2.981500	3.264600	-9.733100	27.063833	0.000473	20.804053
1845.499677	-3.013200	3.263300	-9.830900	27.069019	0.000473	20.796466
1846.495940	-3.007100	3.262700	-9.809500	27.077607	0.000472	20.799413
1847.496711	-2.988500	3.263800	-9.752700	27.058721	0.000468	20.781368
1848.496234	-2.996500	3.263100	-9.775700	27.057263	0.000469	20.793652
1849.499260	-2.975200	3.263400	-9.707600	27.069719	0.000470	20.799066
1850.499049	-3.019700	3.260400	-9.844500	27.076495	0.000468	20.782647
1851.496627	-3.010800	3.260900	-9.817600	27.100167	0.000470	20.796023
1852.494892	-2.991600	3.262400	-9.758500	27.121607	0.000470	20.788662
1853.496494	-2.994200	3.260900	-9.762400	27.083641	0.000468	20.786515
1854.496034	-3.002300	3.260500	-9.787000	27.044583	0.000468	20.770942
1855.497369	-3.036500	3.259300	-9.895800	27.064884	0.000465	20.789936
1856.496910	-2.998800	3.260000	-9.775000	27.039547	0.000467	20.771094
1857.498236	-3.012300	3.258500	-9.814100	27.095027	0.000469	20.782319
1858.497698	-3.001000	3.259100	-9.779400	27.100811	0.000466	20.788610
1859.497464	-2.979200	3.259500	-9.710000	27.161279	0.000465	20.805329
1860.498534	-3.012200	3.258800	-9.815600	27.196682	0.000464	20.759857
1861.499064	-3.021100	3.257700	-9.840900	27.184696	0.000464	20.779570
1862.500422	-3.027900	3.257700	-9.863400	27.172313	0.000465	20.787978
1863.500032	-3.012900	3.257000	-9.811400	27.180204	0.000465	20.772681
1864.498464	-3.017800	3.256000	-9.824400	27.176232	0.000460	20.797136
1865.502372	-2.993800	3.257500	-9.750900	27.148341	0.000462	20.781886
1866.499689	-3.000300	3.256300	-9.768700	27.135911	0.000460	20.785505
1867.499739	-3.016700	3.255400	-9.818300	27.162355	0.000460	20.768005
1868.498324	-2.991500	3.255200	-9.736200	27.133101	0.000463	20.764661
1869.498246	-3.031800	3.255500	-9.869000	27.154563	0.000457	20.772970
1870.498790	-3.007100	3.253800	-9.783300	27.178183	0.000460	20.774442
1871.503093	-3.005500	3.254700	-9.781400	27.226138	0.000455	20.765777
1872.499354	-3.001200	3.254700	-9.766800	27.230581	0.000458	20.784471
1873.499969	-3.015100	3.252600	-9.806200	27.258862	0.000455	20.790158
1874.505340	-2.989500	3.253800	-9.726500	27.240480	0.000457	20.779255
1875.499501	-2.998300	3.253500	-9.753100	27.185742	0.000456	20.772087
1876.502892	-3.010300	3.251800	-9.788000	27.198171	0.000455	20.775580
1877.499702	-2.988300	3.252500	-9.717200	27.227097	0.000452	20.770061
1878.501177	-3.007600	3.252600	-9.781700	27.225039	0.000453	20.772258
1879.500906	-3.013400	3.251900	-9.797200	27.267439	0.000452	20.784561
1880.500916	-3.008400	3.250500	-9.777600	27.311302	0.000451	20.767991
1881.503115	-3.020500	3.250000	-9.815100	27.336727	0.000449	20.773179
1882.501997	-3.011200	3.249700	-9.784100	27.363422	0.000449	20.777273
1883.502440	-3.008000	3.250200	-9.776000	27.361761	0.000447	20.775602
1884.501507	-3.002400	3.250000	-9.755900	27.350772	0.000447	20.778298
1885.501549	-3.000900	3.247100	-9.742500	27.314623	0.000443	20.756633
1886.502225	-3.000100	3.248800	-9.745600	27.320504	0.000444	20.749272
1887.500770	-3.001600	3.247400	-9.746600	27.328320	0.000442	20.770885
1888.507735	-3.007300	3.247100	-9.763100	27.333031	0.000445	20.775150
1889.502974	-3.001400	3.246400	-9.742600	27.320079	0.000441	20.755483
1890.512550	-3.015300	3.246800	-9.789300	27.277807	0.000441	20.778395
1891.508193	-3.001700	3.246000	-9.742800	27.250864	0.000441	20.768363
1892.505485	-3.002600	3.244000	-9.738600	27.234837	0.000442	20.752715
1893.502209	-3.011000	3.244500	-9.767900	27.281479	0.000440	20.781140
1894.505729	-2.994300	3.247000	-9.721900	27.265228	0.000439	20.767638
1895.502542	-3.018400	3.244500	-9.792100	27.309117	0.000440	20.768638
1896.502113	-2.999100	3.243400	-9.725400	27.322886	0.000438	20.782963
1897.504797	-2.977100	3.244100	-9.655900	27.301080	0.000438	20.759130
1898.506047	-2.993900	3.242800	-9.708000	27.311422	0.000437	20.773328
1899.503184	-2.987900	3.245300	-9.695700	27.279643	0.000434	20.770284
1900.503133	-2.991300	3.243800	-9.700700	27.264359	0.000434	20.749219
1901.504032	-2.981300	3.243300	-9.668200	27.246622	0.000436	20.770259
1902.504532	-3.007100	3.242000	-9.746800	27.266173	0.000434	20.777124
1903.506782	-3.017100	3.241100	-9.777800	27.298427	0.000434	20.772583
1904.504030	-2.990700	3.242300	-9.695900	27.319118	0.000433	20.754990
1905.508308	-3.011600	3.239500	-9.754800	27.329367	0.000434	20.747756
1906.505703	-2.980800	3.241500	-9.661900	27.322521	0.000433	20.772639
1907.515487	-2.974500	3.241600	-9.641000	27.302845	0.000433	20.787459
1908.510622	-2.989400	3.238200	-9.679600	27.294807	0.000433	20.777477
1909.507307	-2.998500	3.238200	-9.708800	27.330806	0.000430	20.760583
1910.509634	-2.977500	3.239600	-9.645000	27.349213	0.000431	20.752547
1911.509563	-2.983500	3.238600	-9.660800	27.371665	0.000431	20.744787
1912.509567	-3.001300	3.238100	-9.717100	27.323911	0.000429	20.775459
1913.512834	-3.006100	3.236300	-9.728100	27.281365	0.000428	20.750678
1914.514142	-3.023900	3.236000	-9.783200	27.232889	0.000428	20.760239
1915.512715	-3.021000	3.236700	-9.776200	27.247304	0.000425	20.752928
1916.509094	-3.010500	3.237600	-9.746100	27.247526	0.000426	20.755996
1917.510190	-3.008100	3.235000	-9.729600	27.273502	0.000426	20.760788
1918.531010	-3.006800	3.235300	-9.725600	27.289205	0.000423	20.749082
1919.514519	-3.010700	3.235500	-9.740700	27.301439	0.000423	20.756173
1920.510572	-2.964600	3.235800	-9.591800	27.333125	0.000424	20.744423
1921.511599	-2.990500	3.234300	-9.671200	27.354609	0.000424	20.762718
1922.512805	-3.021400	3.232500	-9.765400	27.398416	0.000420	20.750836
1923.512114	-3.005800	3.232300	-9.713400	27.401496	0.000419	20.734493
1924.516293	-3.007200	3.233000	-9.720900	27.403357	0.000421	20.742530
1925.512839	-3.005400	3.231700	-9.711600	27.406659	0.000417	20.760077
1926.513977	-3.010800	3.234000	-9.735600	27.425388	0.000417	20.763272
1927.518434	-2.987600	3.233500	-9.658400	27.419609	0.000414	20.775950
1928.519725	-3.008500	3.231500	-9.721200	27.395103	0.000414	20.766470
1929.518046	-3.017100	3.229700	-9.742500	27.412918	0.000418	20.747881
1930.513035	-3.010500	3.230800	-9.724800	27.374291	0.000414	20.755964
1931.514380	-2.998300	3.231600	-9.688200	27.315153	0.000415	20.765701
1932.513754	-2.992500	3.230000	-9.664500	27.283824	0.000411	20.738927
1933.519174	-2.980400	3.229600	-9.624300	27.285759	0.000413	20.736606
1934.517009	-3.001600	3.230600	-9.696100	27.315061	0.000409	20.753279
1935.513769	-2.975700	3.230200	-9.610900	27.316003	0.000413	20.747115
1936.517496	-2.995000	3.229400	-9.670200	27.381970	0.000409	20.766534
1937.514866	-2.968300	3.227800	-9.579600	27.391920	0.000409	20.750465
1938.515437	-2.995300	3.227100	-9.665800	27.413302	0.000411	20.777192
1939.517272	-3.008300	3.224500	-9.698900	27.448355	0.000411	20.749867
1940.517180	-2.997900	3.225800	-9.668900	27.461600	0.000409	20.763193
1941.518652	-3.008300	3.224900	-9.699600	27.502433	0.000408	20.750694
1942.516988	-3.009100	3.226700	-9.709100	27.532791	0.000407	20.756109
1943.516632	-3.008300	3.224700	-9.700300	27.533786	0.000404	20.755213
1944.518149	-3.012600	3.224000	-9.711600	27.541798	0.000406	20.755213
1945.518555	-3.002400	3.224000	-9.678500	27.562086	0.000406	20.754289
1946.519470	-3.004600	3.224300	-9.687500	27.568237	0.000404	20.737244
1947.517677	-2.987800	3.223600	-9.630500	27.556551	0.000406	20.754884
1948.518554	-2.989300	3.224000	-9.637100	27.544597	0.000404	20.762772
1949.517714	-2.995800	3.222500	-9.653500	27.514335	0.000400	20.737538
1950.523177	-2.982500	3.222300	-9.608700	27.489585	0.000403	20.735397
1951.517247	-3.016800	3.221300	-9.716900	27.511359	0.000399	20.762521
1952.517485	-2.987000	3.222500	-9.623700	27.520511	0.000401	20.757977
1953.519022	-3.006600	3.220700	-9.682900	27.555135	0.000402	20.765313
1954.520954	-3.020500	3.222600	-9.733000	27.486179	0.000401	20.742401
1955.527633	-2.996400	3.221800	-9.653500	27.470897	0.000397	20.752158
1956.520235	-2.997900	3.218300	-9.647100	27.476054	0.000399	20.745017
1957.521347	-3.000900	3.218400	-9.657200	27.473346	0.000398	20.755570
1958.522217	-3.002700	3.217900	-9.661500	27.477936	0.000397	20.752601
1959.522820	-2.998700	3.219200	-9.652000	27.507501	0.000398	20.749629
1960.525671	-3.005800	3.217900	-9.670600	27.498642	0.000398	20.765373
1961.523831	-3.016300	3.217400	-9.703100	27.519225	0.000396	20.756683
1962.523352	-3.021400	3.216700	-9.718300	27.491592	0.000396	20.755909
1963.524148	-3.014200	3.216500	-9.693600	27.530853	0.000394	20.772650
1964.524163	-3.014600	3.216900	-9.695700	27.515994	0.000394	20.749165
1965.525800	-2.992400	3.216200	-9.622700	27.507705	0.000396	20.766905
1966.526450	-2.994400	3.215000	-9.625900	27.466254	0.000394	20.761237
1967.526274	-2.998300	3.214900	-9.638000	27.441223	0.000393	20.759762
1968.529337	-3.021500	3.213700	-9.709400	27.454463	0.000395	20.787307
1969.528721	-2.999400	3.213400	-9.637500	27.466045	0.000390	20.754389
1970.525554	-2.996000	3.214200	-9.629100	27.451136	0.000389	20.758356
1971.529865	-3.030700	3.212600	-9.735400	27.411642	0.000389	20.775996
1972.530324	-2.995700	3.213200	-9.624100	27.333145	0.000387	20.756773
1973.529438	-3.015800	3.212200	-9.685400	27.296675	0.000388	20.754700
1974.526403	-3.018500	3.210200	-9.689100	27.293622	0.000387	20.770121
1975.528205	-3.011300	3.210500	-9.666700	27.298355	0.000390	20.745483
1976.531023	-2.984400	3.211600	-9.583900	27.330235	0.000385	20.771389
1977.531218	-2.988800	3.211800	-9.599300	27.376495	0.000386	20.770035
1978.531273	-2.987200	3.209900	-9.587600	27.426477	0.000384	20.773376
1979.527322	-3.010100	3.210200	-9.661300	27.458920	0.000379	20.773299
1980.528654	-2.997100	3.210500	-9.620900	27.453434	0.000382	20.781057
1981.532352	-2.995500	3.210400	-9.615800	27.438892	0.000382	20.783022
1982.530539	-2.974900	3.209100	-9.546200	27.396918	0.000382	20.772089
1983.528794	-2.992200	3.208700	-9.599800	27.309938	0.000382	20.785112
1984.531932	-2.995800	3.209200	-9.612800	27.271656	0.000379	20.784535
1985.537223	-2.997500	3.207400	-9.612400	27.255377	0.000378	20.786653
1986.528251	-2.988600	3.208600	-9.587400	27.271423	0.000379	20.773870
1987.531990	-2.976500	3.206800	-9.543300	27.253708	0.000377	20.774068
1988.527216	-2.995700	3.206800	-9.604700	27.282585	0.000375	20.777037
1989.539760	-2.993300	3.206700	-9.596900	27.316743	0.000377	20.774413
1990.529713	-3.007400	3.205600	-9.639700	27.321130	0.000376	20.786413
1991.535102	-3.012300	3.205900	-9.656200	27.322218	0.000376	20.794145
1992.531625	-2.985600	3.204300	-9.565900	27.336329	0.000373	20.778468
1993.535871	-3.007100	3.203300	-9.630600	27.368306	0.000372	20.778868
1994.544529	-3.011500	3.201800	-9.641000	27.397378	0.000370	20.775397
1995.540813	-2.988700	3.202500	-9.570800	27.352352	0.000372	20.783681
1996.535354	-2.997700	3.201400	-9.596500	27.339746	0.000369	20.793760
1997.531749	-2.958700	3.203700	-9.477600	27.360532	0.000371	20.790013
1998.535274	-3.006100	3.201700	-9.622400	27.398387	0.000370	20.797274
1999.530650	-3.009200	3.199800	-9.628100	27.426414	0.000368	20.801288
2000.530607	-3.002700	3.200100	-9.608100	27.412000	0.000365	20.791530
2001.530042	-3.005000	3.199700	-9.614700	27.441592	0.000367	20.799014
2002.539672	-2.974300	3.202000	-9.522500	27.454243	0.000364	20.809371
2003.533338	-2.977600	3.201100	-9.529700	27.469497	0.000364	20.785837
2004.537206	-2.985600	3.200000	-9.551300	27.487379	0.000360	20.788180
2005.531726	-2.985300	3.197800	-9.545000	27.528328	0.000362	20.804249
2006.530607	-3.009300	3.197700	-9.620900	27.543953	0.000360	20.803849
2007.532906	-2.972100	3.197700	-9.503400	27.569001	0.000360	20.810085
2008.542277	-2.977800	3.196700	-9.517200	27.628873	0.000362	20.790670
2009.539228	-2.999000	3.196800	-9.586500	27.630012	0.000360	20.794661
2010.537855	-3.006300	3.195600	-9.606200	27.665449	0.000360	20.813250
2011.532699	-3.004200	3.194100	-9.594700	27.588887	0.000358	20.803541
2012.547266	-3.016200	3.194000	-9.632700	27.568448	0.000359	20.799571
2013.532301	-3.010600	3.192700	-9.611400	27.559960	0.000356	20.817110
2014.544650	-2.988800	3.194500	-9.546700	27.562738	0.000356	20.805680
2015.534599	-2.984600	3.195200	-9.534400	27.538973	0.000356	20.813063
2016.537429	-2.981700	3.193900	-9.521800	27.550656	0.000353	20.817705
2017.533589	-2.981700	3.193800	-9.522500	27.586638	0.000356	20.818822
2018.541993	-2.992300	3.192500	-9.552300	27.593802	0.000352	20.819867
2019.539584	-2.996800	3.193000	-9.568100	27.579638	0.000353	20.806563
2020.536866	-2.983400	3.191100	-9.519300	27.503562	0.000353	20.819635
2021.539085	-2.990100	3.190700	-9.538600	27.520304	0.000352	20.802340
2022.536040	-3.001300	3.189400	-9.571400	27.546196	0.000352	20.818434
2023.536663	-2.993000	3.190600	-9.548200	27.591557	0.000350	20.797219
2024.537213	-2.999600	3.190400	-9.569300	27.621165	0.000350	20.816579
2025.540872	-2.991900	3.190200	-9.543900	27.663747	0.000349	20.819598
2026.537166	-2.989800	3.188300	-9.531100	27.695909	0.000350	20.822564
2027.537069	-2.981200	3.188100	-9.503200	27.683431	0.000350	20.822810
2028.546582	-3.017200	3.187000	-9.613800	27.654762	0.000347	20.840427
2029.544029	-2.987100	3.187700	-9.521100	27.636283	0.000344	20.831791
2030.539410	-2.994600	3.186700	-9.542600	27.639152	0.000343	20.825195
2031.540980	-3.002600	3.185800	-9.564100	27.594112	0.000345	20.818755
2032.539877	-2.981100	3.186700	-9.499300	27.580591	0.000342	20.822695
2033.539742	-2.986700	3.187800	-9.519100	27.569627	0.000343	20.804551
2034.539566	-2.992400	3.185500	-9.530900	27.580265	0.000340	20.826160
2035.540764	-3.030300	3.182400	-9.642700	27.570912	0.000339	20.830499
2036.539653	-3.007900	3.183900	-9.576200	27.604543	0.000341	20.832570
2037.542683	-3.000300	3.183600	-9.550600	27.584600	0.000338	20.840478
2038.542702	-2.999300	3.182500	-9.543800	27.600992	0.000337	20.818092
2039.543947	-3.004100	3.182600	-9.560200	27.636134	0.000335	20.851555
2040.553503	-3.000200	3.181800	-9.545000	27.690148	0.000337	20.824827
2041.544540	-3.014100	3.181100	-9.587000	27.739546	0.000335	20.833284
2042.553071	-3.018200	3.180900	-9.598700	27.791623	0.000337	20.819785
2043.541463	-2.997600	3.179700	-9.530700	27.788547	0.000332	20.842293
2044.540483	-2.997800	3.183000	-9.541100	27.818848	0.000333	20.853347
2045.562895	-3.022600	3.178700	-9.606500	27.826115	0.000333	20.827471
2046.549600	-3.001300	3.179300	-9.541100	27.818722	0.000332	20.847057
2047.552589	-2.990800	3.179900	-9.509400	27.831317	0.000331	20.836499
2048.546383	-2.992900	3.178800	-9.513200	27.847782	0.000330	20.819405
2049.550337	-2.952200	3.179500	-9.385600	27.873444	0.000331	20.838594
2050.545142	-3.002200	3.177100	-9.536500	27.886309	0.000331	20.850594
2051.545535	-2.989900	3.176600	-9.495600	27.916189	0.000329	20.859329
2052.555193	-2.997000	3.177100	-9.521100	27.901012	0.000328	20.840736
2053.543689	-2.993300	3.175500	-9.504300	27.930094	0.000327	20.834446
2054.544041	-3.010200	3.174700	-9.555400	27.920002	0.000328	20.841357
2055.547584	-2.988800	3.174900	-9.487300	27.933861	0.000326	20.844874
2056.544738	-2.985100	3.176500	-9.481400	27.982899	0.000327	20.826430
2057.548678	-3.012200	3.172800	-9.555800	27.978063	0.000325	20.853803
2058.544794	-3.035700	3.171500	-9.626100	27.984433	0.000325	20.851681
2059.544878	-3.008100	3.172800	-9.543100	27.944760	0.000324	20.841146
2060.545764	-3.016300	3.171800	-9.566200	27.912328	0.000324	20.854022
2061.549500	-3.007300	3.172400	-9.539700	27.867149	0.000323	20.879672
2062.547797	-2.996700	3.173200	-9.508300	27.862884	0.000320	20.848355
2063.553439	-3.033600	3.170000	-9.615800	27.858519	0.000320	20.859607
2064.557543	-3.017700	3.170400	-9.565600	27.875254	0.000320	20.848476
2065.546661	-2.977700	3.170900	-9.440300	27.901015	0.000320	20.850221
2066.546797	-2.998200	3.169800	-9.502800	27.902724	0.000317	20.867588
2067.554533	-2.985200	3.168300	-9.457000	27.891837	0.000315	20.845726
2068.547378	-2.992300	3.167300	-9.476900	27.875545	0.000316	20.852562
2069.551563	-3.001000	3.167200	-9.504200	27.918588	0.000313	20.854158
2070.546428	-3.006400	3.166200	-9.517100	27.933288	0.000316	20.840505
2071.548561	-2.995500	3.167500	-9.487800	27.933982	0.000315	20.865384
2072.550061	-3.006900	3.165200	-9.516900	27.988801	0.000313	20.868879
2073.551863	-2.994600	3.165200	-9.477600	28.032806	0.000311	20.875715
2074.550093	-3.003900	3.165900	-9.508500	28.041880	0.000311	20.859719
2075.561849	-2.978000	3.165700	-9.425800	27.989763	0.000312	20.868425
2076.573231	-3.008400	3.162000	-9.511300	28.033371	0.000311	20.869646
2077.550969	-3.008600	3.162100	-9.511600	28.035006	0.000310	20.877929
2078.552352	-2.990400	3.162100	-9.454600	28.039192	0.000310	20.863651
2079.561126	-3.016600	3.162100	-9.538100	28.036242	0.000309	20.870639
2080.553019	-2.976500	3.161900	-9.410800	28.040185	0.000307	20.868445
2081.549318	-2.974600	3.162300	-9.406100	28.045438	0.000305	20.863301
2082.551801	-2.989800	3.160200	-9.447200	28.059520	0.000303	20.866570
2083.553743	-3.011900	3.160900	-9.518800	28.067402	0.000304	20.874978
2084.550566	-3.005000	3.160900	-9.497500	28.074369	0.000303	20.873931
2085.550746	-3.008300	3.159800	-9.504800	28.087680	0.000306	20.865995
2086.551706	-2.961800	3.159200	-9.356300	28.126501	0.000302	20.874727
2087.553407	-3.032200	3.156400	-9.570000	28.139516	0.000300	20.861752
2088.570508	-2.989000	3.156800	-9.435100	28.127120	0.000303	20.866816
2089.566765	-3.021700	3.157700	-9.540300	28.129672	0.000300	20.870808
2090.554410	-3.010000	3.154800	-9.494900	28.164999	0.000297	20.864647
2091.556010	-3.031900	3.153900	-9.560900	28.186143	0.000298	20.875976
2092.556933	-2.990400	3.156200	-9.437000	28.191869	0.000297	20.879369
2093.571436	-3.002600	3.154300	-9.469500	28.199903	0.000296	20.868492
2094.563364	-3.019200	3.154200	-9.522600	28.168794	0.000295	20.886484
2095.556981	-2.976500	3.153500	-9.385200	28.122538	0.000296	20.877850
2096.557972	-3.024600	3.150900	-9.528900	28.073651	0.000293	20.876053
2097.562368	-2.991100	3.152800	-9.428600	28.081064	0.000292	20.873558
2098.570173	-3.012900	3.152100	-9.496400	28.035897	0.000292	20.875033
2099.561584	-2.993700	3.151300	-9.432900	28.009792	0.000291	20.887161
2100.558835	-3.006300	3.149800	-9.467900	27.979274	0.000290	20.873513
2101.563478	-2.997100	3.149400	-9.437400	27.958646	0.000291	20.875035
2102.571622	-2.993200	3.149200	-9.425000	27.978754	0.000292	20.888161
2103.560388	-2.972300	3.149700	-9.359900	27.970375	0.000288	20.873565
2104.580216	-3.005100	3.146200	-9.453400	27.949624	0.000289	20.871170
2105.560100	-3.007700	3.147000	-9.464300	27.935989	0.000288	20.874516
2106.563963	-3.004600	3.145500	-9.449400	27.919802	0.000289	20.871026
2107.561830	-3.009000	3.146700	-9.467500	27.970454	0.000286	20.853257
2108.572514	-2.987900	3.145400	-9.397300	27.976605	0.000285	20.857078
2109.564149	-2.992500	3.144800	-9.409500	27.969465	0.000285	20.886873
2110.567999	-2.994600	3.144300	-9.415000	27.997707	0.000286	20.884480
2111.573226	-2.969700	3.145200	-9.338300	28.040698	0.000282	20.890770
2112.566035	-2.987700	3.142300	-9.387000	28.048136	0.000284	20.876921
2113.568660	-2.994000	3.143700	-9.410600	28.054062	0.000281	20.873404
2114.567252	-2.998000	3.143100	-9.422100	28.043727	0.000281	20.878647
2115.567133	-3.003700	3.139700	-9.428400	28.058257	0.000284	20.897539
2116.565862	-2.988500	3.141200	-9.386600	28.088528	0.000279	20.884865
2117.567842	-2.988200	3.140100	-9.382300	28.074001	0.000281	20.878302
2118.566752	-2.985000	3.139800	-9.371400	28.097680	0.000279	20.867052
2119.566706	-2.985200	3.138800	-9.369000	28.042321	0.000277	20.881025
2120.568284	-2.986500	3.138200	-9.370400	27.988101	0.000277	20.884768
2121.566660	-3.004400	3.137900	-9.426200	27.933133	0.000281	20.882072
2122.566834	-2.999100	3.136800	-9.406300	27.896565	0.000274	20.894104
2123.567088	-3.027900	3.134900	-9.490200	27.849182	0.000277	20.906632
2124.566675	-3.018800	3.134500	-9.460700	27.838248	0.000273	20.892309
2125.567227	-3.029300	3.134800	-9.495000	27.870459	0.000273	20.890115
2126.568535	-3.015300	3.132200	-9.443500	27.862847	0.000271	20.893359
2127.569592	-3.006900	3.132300	-9.417200	27.889109	0.000272	20.885652
2128.569625	-3.012400	3.133200	-9.437700	27.944923	0.000271	20.894886
2129.567205	-3.015500	3.130900	-9.439100	28.000758	0.000271	20.887077
2130.568669	-3.012700	3.130300	-9.429400	28.091917	0.000271	20.880690
2131.571320	-2.989800	3.131100	-9.360400	28.127965	0.000270	20.891374
2132.579239	-3.004100	3.129000	-9.398700	28.110390	0.000270	20.875579
2133.578282	-3.008600	3.128500	-9.411400	28.149757	0.000269	20.886285
2134.570261	-3.003200	3.128500	-9.393300	28.162005	0.000267	20.893873
2135.574818	-3.002300	3.127500	-9.388900	28.130079	0.000269	20.902035
2136.571685	-3.012400	3.127000	-9.418500	28.065503	0.000267	20.900566
2137.579391	-2.980400	3.126800	-9.317800	28.044504	0.000263	20.901238
2138.577686	-2.979400	3.125300	-9.310000	28.009378	0.000262	20.896701
2139.579459	-2.989000	3.126900	-9.345800	27.960809	0.000263	20.911823
2140.571065	-3.012600	3.124900	-9.413100	27.999759	0.000264	20.897924
2141.574551	-2.977700	3.126100	-9.307100	28.034521	0.000264	20.896405
2142.574478	-3.009200	3.124300	-9.400600	28.058645	0.000263	20.889870
2143.573148	-2.994300	3.123400	-9.350500	28.116038	0.000264	20.909236
2144.573180	-2.983000	3.121700	-9.311400	28.155949	0.000261	20.915750
2145.573279	-3.008200	3.121700	-9.389900	28.208104	0.000262	20.898558
2146.572288	-2.995300	3.122200	-9.350800	28.266929	0.000260	20.905151
2147.575009	-2.999100	3.120300	-9.356900	28.291097	0.000258	20.891553
2148.587018	-2.976200	3.120700	-9.285300	28.271071	0.000258	20.902684
2149.579527	-2.970700	3.121000	-9.270000	28.251221	0.000259	20.918257
2150.575654	-2.992400	3.118900	-9.332200	28.175647	0.000256	20.904761
2151.575950	-2.987400	3.117900	-9.313100	28.121858	0.000259	20.917466
2152.581188	-2.983100	3.119400	-9.304000	28.080113	0.000255	20.901048
2153.578008	-3.001800	3.116000	-9.351600	28.107659	0.000257	20.912655
2154.575768	-3.006800	3.114900	-9.364500	28.117129	0.000256	20.905119
2155.576342	-3.012200	3.114700	-9.380300	28.152210	0.000251	20.903451
2156.575741	-3.010200	3.112300	-9.367800	28.187013	0.000256	20.894868
2157.576403	-3.007800	3.114400	-9.365900	28.271067	0.000255	20.906472
2158.579057	-3.014200	3.112600	-9.381200	28.267823	0.000252	20.895620
2159.577695	-3.012400	3.112300	-9.373600	28.285499	0.000251	20.875486
2160.577444	-2.997300	3.112500	-9.327900	28.302455	0.000250	20.913418
2161.580698	-2.988600	3.112500	-9.301200	28.319608	0.000251	20.902241
2162.588822	-3.025200	3.109700	-9.405700	28.324911	0.000252	20.891460
2163.581139	-2.993700	3.110900	-9.312400	28.341965	0.000251	20.881132
2164.579215	-2.987700	3.108900	-9.287500	28.352475	0.000249	20.888395
2165.579973	-3.018200	3.107100	-9.376500	28.407572	0.000248	20.879389
2166.584224	-3.015800	3.107900	-9.371500	28.447722	0.000251	20.877145
2167.578596	-3.018700	3.104700	-9.369600	28.472975	0.000247	20.879342
2168.580696	-2.999300	3.106700	-9.317400	28.446709	0.000249	20.871858
2169.580217	-3.007600	3.104900	-9.337500	28.458729	0.000247	20.856463
2170.581132	-2.988700	3.105000	-9.278800	28.459821	0.000247	20.889329
2171.580398	-3.003800	3.103600	-9.322000	28.443911	0.000245	20.884687
2172.581641	-2.986000	3.103700	-9.266400	28.409740	0.000245	20.863555
2173.580737	-2.979800	3.102800	-9.243800	28.384263	0.000246	20.883893
2174.591744	-3.019000	3.101500	-9.362400	28.376682	0.000245	20.873415
2175.584015	-2.995900	3.102400	-9.293300	28.342657	0.000244	20.871872
2176.586841	-3.008500	3.101100	-9.328200	28.334430	0.000243	20.864062
2177.583715	-2.997400	3.099600	-9.289700	28.318594	0.000242	20.863765
2178.582231	-3.000200	3.096800	-9.290300	28.345540	0.000241	20.862447
2179.585561	-2.978500	3.098400	-9.227100	28.347547	0.000241	20.874424
2180.583340	-3.001100	3.098000	-9.295100	28.316171	0.000243	20.869385
2181.582408	-2.982900	3.095200	-9.231700	28.319741	0.000242	20.844058
2182.583082	-2.995200	3.097000	-9.274600	28.339544	0.000243	20.883435
2183.584769	-3.015400	3.092800	-9.324700	28.389114	0.000244	20.857011
2184.584496	-2.995100	3.093800	-9.265500	28.378979	0.000241	20.861030
2185.588916	-2.991300	3.093700	-9.253000	28.391000	0.000242	20.853220
2186.593567	-2.994100	3.092500	-9.258200	28.423813	0.000239	20.871088
2187.583766	-2.999700	3.091100	-9.271100	28.484997	0.000241	20.824596
2188.585492	-2.988500	3.091400	-9.237400	28.440964	0.000241	20.861807
2189.585575	-3.004500	3.088600	-9.279100	28.390652	0.000240	20.852396
2190.589782	-3.036700	3.087800	-9.375600	28.359031	0.000240	20.854221
2191.587628	-2.982300	3.089300	-9.211000	28.343886	0.000237	20.861256
2192.589232	-2.981000	3.087400	-9.202200	28.349589	0.000238	20.840921
2193.587589	-3.004900	3.087700	-9.276700	28.319303	0.000239	20.856892
2194.588052	-2.993700	3.087100	-9.240000	28.350925	0.000235	20.833257
2195.592915	-2.984900	3.084900	-9.207300	28.361139	0.000234	20.853025
2196.588071	-3.001600	3.083200	-9.253300	28.382157	0.000235	20.848110
2197.588028	-3.009900	3.082200	-9.275100	28.432689	0.000235	20.832612
2198.588149	-2.994900	3.082400	-9.230300	28.448599	0.000236	20.844366
2199.590939	-2.989900	3.081800	-9.214000	28.471003	0.000234	20.853176
2200.590371	-3.018300	3.079600	-9.294100	28.505276	0.000234	20.847862
2201.588726	-2.997300	3.080700	-9.232700	28.542969	0.000230	20.848837
2202.590598	-2.987900	3.080200	-9.201800	28.558706	0.000234	20.846194
2203.589545	-3.014000	3.076200	-9.270900	28.560365	0.000233	20.834114
2204.595620	-2.995000	3.079000	-9.220800	28.556204	0.000232	20.836088
2205.592710	-3.000200	3.075900	-9.226700	28.537820	0.000229	20.834644
2206.590353	-3.020900	3.073800	-9.283700	28.521169	0.000232	20.837315
2207.590738	-3.004400	3.075000	-9.237600	28.525954	0.000232	20.851142
2208.594800	-3.008800	3.071800	-9.241500	28.518719	0.000231	20.829632
2209.590973	-2.999400	3.071700	-9.212900	28.490795	0.000230	20.847503
2210.592556	-3.015200	3.072100	-9.261200	28.400313	0.000230	20.823245
2211.595525	-2.993600	3.071400	-9.193000	28.330279	0.000229	20.831909
2212.591049	-2.986800	3.069500	-9.166400	28.305966	0.000233	20.837775
2213.591029	-3.003100	3.068800	-9.214100	28.325994	0.000228	20.823328
2214.591655	-3.000000	3.068700	-9.204200	28.339157	0.000230	20.827573
2215.592955	-3.016300	3.066700	-9.248000	28.411527	0.000228	20.816519
2216.597182	-2.986700	3.067000	-9.159600	28.456930	0.000228	20.804392
2217.594494	-2.989900	3.064800	-9.162300	28.491748	0.000227	20.811005
2218.594937	-3.000100	3.064500	-9.192100	28.542058	0.000228	20.830850
2219.594015	-2.987300	3.063400	-9.149100	28.577716	0.000227	20.816502
2220.595672	-2.981900	3.063100	-9.132300	28.600662	0.000227	20.831551
2221.594048	-3.045600	3.061500	-9.322800	28.611074	0.000224	20.818804
2222.598828	-3.038000	3.059100	-9.291600	28.553612	0.000226	20.817831
2223.596776	-3.010700	3.059800	-9.211100	28.467499	0.000226	20.815984
2224.598545	-3.020600	3.056900	-9.232300	28.388147	0.000224	20.816210
2225.597016	-3.011400	3.058400	-9.208700	28.341679	0.000225	20.828215
2226.598641	-3.039500	3.054200	-9.280300	28.313082	0.000226	20.790413
2227.597399	-3.004900	3.056400	-9.183600	28.295409	0.000225	20.819085
2228.598900	-3.006300	3.054800	-9.182100	28.282694	0.000224	20.811025
2229.598747	-3.017900	3.053700	-9.215000	28.259473	0.000224	20.817991
2230.598680	-3.003500	3.052400	-9.166500	28.298265	0.000224	20.828599
2231.600620	-3.026900	3.050800	-9.233100	28.319579	0.000225	20.815447
2232.600621	-3.024600	3.049600	-9.223200	28.330783	0.000223	20.812028
2233.603485	-3.002000	3.049600	-9.154300	28.326618	0.000225	20.819215
2234.601131	-3.029800	3.047600	-9.232300	28.302060	0.000225	20.806341
2235.600326	-3.021300	3.046500	-9.203000	28.279926	0.000224	20.791168
2236.603018	-3.019200	3.046300	-9.196200	28.249416	0.000225	20.817823
2237.603709	-3.024800	3.045000	-9.209400	28.250013	0.000223	20.798984
2238.601361	-3.004500	3.044200	-9.145000	28.285208	0.000223	20.803124
2239.600095	-2.984900	3.044000	-9.085600	28.320976	0.000223	20.817801
2240.600206	-2.975800	3.044200	-9.058300	28.370443	0.000222	20.805495
2241.602559	-2.991400	3.041300	-9.096700	28.424123	0.000223	20.802176
2242.602654	-2.980100	3.041100	-9.060900	28.421101	0.000221	20.787279
2243.602671	-3.013500	3.039800	-9.159300	28.432377	0.000222	20.810487
2244.604825	-3.033300	3.037300	-9.212500	28.475206	0.000223	20.813313
2245.603637	-2.993200	3.036400	-9.087500	28.519385	0.000221	20.804698
2246.602612	-2.981800	3.036700	-9.054100	28.554102	0.000220	20.786082
2247.606882	-3.008900	3.035300	-9.132300	28.542159	0.000220	20.821470
2248.602861	-3.019200	3.033000	-9.156500	28.490839	0.000219	20.823367
2249.604205	-2.976500	3.033300	-9.027200	28.467324	0.000219	20.809644
2250.605508	-3.005700	3.031000	-9.108000	28.474812	0.000217	20.821925
2251.603550	-2.978900	3.031400	-9.029800	28.524791	0.000219	20.810617
2252.604346	-3.018600	3.029000	-9.141300	28.554231	0.000219	20.806601
2253.607862	-2.989000	3.029200	-9.053100	28.590384	0.000219	20.789906
2254.603998	-2.991800	3.026300	-9.053000	28.586443	0.000220	20.788781
2255.604823	-2.992900	3.026600	-9.057600	28.570761	0.000223	20.785790
2256.603736	-2.983900	3.026000	-9.028300	28.621040	0.000218	20.798970
2257.604864	-3.030600	3.022000	-9.156400	28.599510	0.000219	20.808580
2258.606585	-2.970700	3.023700	-8.982000	28.555575	0.000220	20.803213
2259.605299	-3.007600	3.021100	-9.084600	28.540983	0.000217	20.787094
2260.610188	-3.014000	3.019300	-9.098800	28.502055	0.000217	20.802419
2261.605379	-2.987800	3.019300	-9.019000	28.501609	0.000218	20.809082
2262.605316	-2.989500	3.017200	-9.017800	28.474872	0.000216	20.794485
2263.608660	-2.987500	3.016600	-9.011100	28.428583	0.000219	20.814254
2264.608865	-3.029700	3.014300	-9.130700	28.433393	0.000219	20.787803
2265.605745	-3.020800	3.013400	-9.101600	28.439265	0.000218	20.791346
2266.606740	-3.002800	3.012700	-9.045900	28.469923	0.000216	20.806097
2267.605194	-3.015100	3.012300	-9.080900	28.518419	0.000217	20.807993
2268.605628	-3.009200	3.011400	-9.061600	28.545333	0.000214	20.796691
2269.607216	-3.006600	3.010700	-9.051500	28.551752	0.000217	20.775180
2270.605929	-2.998400	3.009300	-9.022500	28.553068	0.000217	20.792154
2271.612478	-3.000700	3.006000	-9.019400	28.596358	0.000217	20.783594
2272.607311	-3.015900	3.005900	-9.064500	28.593560	0.000216	20.794053
2273.607331	-3.005300	3.004800	-9.029700	28.593163	0.000215	20.789386
2274.611504	-3.010400	3.003300	-9.039900	28.611949	0.000217	20.783175
2275.608898	-3.013100	3.001200	-9.041700	28.638290	0.000215	20.795956
2276.607069	-3.030700	3.000000	-9.090100	28.652958	0.000215	20.754778
2277.608457	-2.993900	3.000400	-8.981700	28.627069	0.000216	20.790817
2278.608185	-3.031500	2.997200	-9.084500	28.613167	0.000218	20.775867
2279.609377	-2.990300	2.997200	-8.961100	28.620751	0.000215	20.787300
2280.608296	-3.033000	2.995900	-9.085100	28.654103	0.000217	20.787699
2281.610202	-3.013700	2.994300	-9.023300	28.698455	0.000217	20.788276
2282.610481	-2.970600	2.993400	-8.891500	28.718078	0.000218	20.771057
2283.609357	-3.014600	2.991200	-9.016100	28.741640	0.000217	20.781988
2284.610975	-3.005400	2.990400	-8.986500	28.767655	0.000215	20.787804
2285.609423	-3.008800	2.989200	-8.993600	28.761238	0.000217	20.801729
2286.611734	-2.968200	2.988600	-8.870200	28.709061	0.000217	20.784733
2287.617893	-2.978300	2.986900	-8.895100	28.688769	0.000215	20.774726
2288.611409	-2.985200	2.985200	-8.910500	28.659259	0.000216	20.763969
2289.611849	-2.970300	2.983600	-8.860400	28.654554	0.000217	20.751170
2290.611923	-3.041700	2.980600	-9.065200	28.661391	0.000217	20.784135
2291.611688	-2.999600	2.981100	-8.940700	28.632102	0.000217	20.789249
2292.614896	-2.978400	2.979600	-8.873600	28.638345	0.000215	20.780364
2293.613500	-2.995000	2.977800	-8.918000	28.664462	0.000214	20.788651
2294.612957	-2.989700	2.978000	-8.902700	28.681905	0.000213	20.781563
2295.617577	-3.004600	2.975200	-8.938200	28.711387	0.000213	20.770955
2296.614052	-3.017300	2.972600	-8.968100	28.722561	0.000214	20.781263
2297.616457	-3.008600	2.972100	-8.940800	28.729225	0.000213	20.785130
2298.615048	-3.033400	2.968900	-9.003600	28.790222	0.000214	20.765017
2299.616880	-2.987600	2.968900	-8.869400	28.785290	0.000213	20.772378
2300.617689	-3.013000	2.966200	-8.935700	28.774664	0.000213	20.773527
2301.615774	-3.005900	2.965900	-8.914200	28.727392	0.000215	20.761472
2302.616270	-2.984600	2.965700	-8.848800	28.674397	0.000215	20.780165
2303.627469	-3.004300	2.961700	-8.896800	28.598674	0.000213	20.781659
2304.615467	-3.021800	2.961300	-8.946800	28.598997	0.000215	20.747371
2305.618252	-3.006400	2.958800	-8.893400	28.609133	0.000214	20.784606
2306.615223	-2.984700	2.959200	-8.830900	28.640825	0.000213	20.766740
2307.618197	-2.998800	2.958100	-8.869600	28.699717	0.000212	20.776744
2308.615891	-3.008800	2.955700	-8.892400	28.745529	0.000213	20.746075
2309.615624	-3.005300	2.955300	-8.880900	28.795797	0.000213	20.777271
2310.620356	-3.022000	2.952100	-8.920800	28.861893	0.000211	20.783636
2311.617057	-2.996400	2.951300	-8.842000	28.884042	0.000211	20.766594
2312.615705	-3.020600	2.948800	-8.905700	28.906187	0.000213	20.772309
2313.617511	-3.000100	2.948000	-8.843100	28.925758	0.000213	20.759782
2314.617804	-2.990400	2.948000	-8.814000	28.928059	0.000212	20.760678
2315.617384	-3.016000	2.943900	-8.877900	28.951074	0.000213	20.764425
2316.621023	-3.020000	2.941800	-8.883300	28.975894	0.000211	20.770939
2317.618097	-3.008300	2.941300	-8.846000	29.026129	0.000211	20.764180
2318.621825	-2.997000	2.938300	-8.805700	29.063331	0.000213	20.762308
2319.618296	-3.001400	2.939300	-8.821700	29.054045	0.000210	20.770021
2320.622621	-2.996500	2.935900	-8.796300	29.057216	0.000213	20.778906
2321.624981	-3.015000	2.934300	-8.845600	29.031708	0.000212	20.757473
2322.618360	-2.995800	2.934800	-8.791300	28.980064	0.000211	20.752381
2323.619276	-3.009400	2.931500	-8.821000	28.951879	0.000209	20.771874
2324.618917	-2.993800	2.930200	-8.770700	28.962903	0.000210	20.756902
2325.618449	-2.982200	2.927600	-8.729700	28.925526	0.000210	20.755755
2326.621428	-2.982600	2.927200	-8.729000	28.964466	0.000210	20.755631
2327.619884	-2.994200	2.924900	-8.756400	29.012078	0.000212	20.750970
2328.624514	-2.988600	2.924300	-8.738800	28.999051	0.000212	20.753967
2329.621189	-2.978800	2.921500	-8.701100	28.986271	0.000210	20.756263
2330.622004	-2.992200	2.919900	-8.736700	28.963533	0.000211	20.769391
2331.623975	-2.995100	2.919300	-8.742800	28.978175	0.000211	20.748580
2332.620983	-2.990700	2.918400	-8.726300	29.004726	0.000211	20.743089
2333.621264	-2.992400	2.915400	-8.721400	29.049953	0.000213	20.762579
2334.622900	-2.961400	2.914000	-8.628800	29.089731	0.000211	20.749553
2335.623026	-3.018700	2.911500	-8.787300	29.120321	0.000210	20.752401
2336.625164	-2.982000	2.909800	-8.675200	29.135452	0.000212	20.742992
2337.625969	-3.017900	2.908100	-8.775800	29.052063	0.000210	20.751902
2338.624598	-2.958500	2.907500	-8.600300	28.995541	0.000209	20.760388
2339.623345	-3.018900	2.902900	-8.762700	28.952665	0.000209	20.757019
2340.623783	-2.995300	2.903900	-8.696600	28.983530	0.000212	20.734060
2341.624599	-3.002600	2.900100	-8.706900	28.953010	0.000211	20.747409
2342.624686	-2.989400	2.901100	-8.671300	28.954102	0.000211	20.729068
2343.624146	-3.010300	2.897600	-8.721700	28.921677	0.000213	20.745713
2344.627175	-2.973200	2.897100	-8.612200	28.870997	0.000210	20.748710
2345.624147	-3.006200	2.894800	-8.701400	28.854274	0.000209	20.744192
2346.624390	-3.015000	2.893300	-8.721800	28.805771	0.000209	20.743696
2347.627942	-2.990700	2.892000	-8.647000	28.786549	0.000209	20.738083
2348.625319	-2.998700	2.889100	-8.661900	28.740244	0.000208	20.751657
2349.630946	-2.996500	2.887000	-8.649600	28.725230	0.000209	20.756923
2350.625516	-2.994600	2.884100	-8.635200	28.720424	0.000208	20.732167
2351.626145	-3.014800	2.881700	-8.686700	28.703329	0.000208	20.738656
2352.631701	-2.993300	2.879400	-8.618000	28.734152	0.000210	20.742202
2353.631527	-2.980300	2.879600	-8.580600	28.775329	0.000210	20.721564
2354.631888	-2.979200	2.877800	-8.572100	28.823021	0.000209	20.740683
2355.630074	-2.987600	2.874800	-8.587800	28.818089	0.000209	20.738560
2356.631030	-3.001300	2.873100	-8.622700	28.822175	0.000209	20.737460
2357.630661	-2.982300	2.871100	-8.560500	28.856415	0.000210	20.715052
2358.634336	-3.015100	2.868300	-8.647600	28.891518	0.000211	20.721018
2359.631857	-3.016000	2.867000	-8.645800	28.916856	0.000211	20.724734
2360.632110	-2.984500	2.865400	-8.551100	28.914331	0.000210	20.736415
2361.632698	-2.969700	2.865400	-8.508700	28.925725	0.000212	20.725608
2362.631154	-3.008200	2.861100	-8.606100	28.956759	0.000211	20.736013
2363.637035	-3.007500	2.857800	-8.593800	28.964708	0.000213	20.721260
2364.632932	-3.006100	2.856800	-8.586300	28.948756	0.000213	20.740751
2365.633400	-3.006200	2.854200	-8.579600	28.896760	0.000211	20.728671
2366.634447	-2.986900	2.853200	-8.520900	28.822938	0.000214	20.730168
2367.634809	-2.977700	2.852300	-8.490700	28.794493	0.000211	20.730437
2368.633125	-2.982600	2.850300	-8.499900	28.791472	0.000211	20.749206
2369.634444	-3.000100	2.847500	-8.541000	28.787802	0.000215	20.730335
2370.636387	-3.004300	2.843800	-8.542200	28.814011	0.000214	20.711690
2371.634084	-2.989200	2.842800	-8.496300	28.883198	0.000214	20.730181
2372.633021	-3.000900	2.841200	-8.524700	28.892559	0.000213	20.716377
2373.634415	-2.981800	2.840100	-8.467300	28.938332	0.000213	20.729775
2374.636279	-2.999900	2.837500	-8.509600	28.977244	0.000213	20.738633
2375.636704	-2.997100	2.834500	-8.494700	29.016499	0.000211	20.719861
2376.636585	-2.988600	2.831500	-8.461600	29.036978	0.000211	20.740496
2377.634370	-2.991000	2.830300	-8.463500	28.999526	0.000213	20.709398
2378.635096	-3.019100	2.826900	-8.534300	28.984365	0.000212	20.724944
2379.637914	-3.008500	2.823400	-8.492500	28.964249	0.000212	20.751145
2380.635737	-3.002900	2.821500	-8.471600	28.976113	0.000212	20.731803
2381.637851	-2.987800	2.819100	-8.421600	29.028643	0.000209	20.737788
2382.635699	-3.002900	2.819100	-8.464300	29.059576	0.000213	20.731497
2383.636013	-3.016800	2.815300	-8.492400	29.097146	0.000211	20.754654
2384.636156	-2.995700	2.813600	-8.427500	29.143556	0.000210	20.728398
2385.638679	-2.989300	2.810300	-8.399500	29.195137	0.000210	20.732960
2386.637657	-3.003100	2.809500	-8.436100	29.201229	0.000212	20.730090
2387.636082	-3.011900	2.804600	-8.446400	29.191293	0.000209	20.744260
2388.636598	-3.019100	2.802900	-8.460100	29.190798	0.000211	20.734752
2389.637756	-3.061000	2.798700	-8.564500	29.155631	0.000210	20.720176
2390.639713	-3.013000	2.798200	-8.429900	29.140248	0.000209	20.743557
2391.637128	-2.984800	2.796000	-8.345100	29.085786	0.000212	20.744155
2392.641197	-3.020500	2.792300	-8.432000	29.018762	0.000211	20.742531
2393.639346	-2.980300	2.791300	-8.318700	29.018239	0.000211	20.738211
2394.639981	-2.951900	2.789700	-8.233200	28.988118	0.000209	20.731570
2395.643416	-2.982900	2.785900	-8.308200	28.974913	0.000212	20.733439
2396.639503	-2.988600	2.783800	-8.318300	28.972929	0.000209	20.743295
2397.640073	-2.970200	2.780600	-8.257200	29.015355	0.000212	20.737202
2398.640378	-2.997100	2.777800	-8.324000	29.077074	0.000211	20.745809
2399.640635	-3.001500	2.774800	-8.327700	29.138915	0.000210	20.743162
2400.642566	-3.005000	2.773000	-8.331700	29.197683	0.000210	20.747380
2401.641354	-2.992700	2.770000	-8.289100	29.192975	0.000212	20.740265
2402.643778	-2.980800	2.766800	-8.245800	29.168876	0.000211	20.728782
2403.640667	-3.003200	2.763100	-8.296700	29.117953	0.000210	20.756180
2404.640860	-2.988300	2.761000	-8.249500	29.099746	0.000207	20.750161
2405.643105	-2.986900	2.758000	-8.236700	29.114232	0.000209	20.756698
2406.644869	-2.983100	2.754900	-8.217200	29.152817	0.000211	20.743895
2407.650938	-3.007800	2.751400	-8.275300	29.175846	0.000208	20.747661
2408.640602	-2.991300	2.748400	-8.219500	29.223963	0.000210	20.738776
2409.640173	-2.996200	2.745200	-8.224300	29.248153	0.000209	20.754145
2410.640558	-2.999400	2.741700	-8.221900	29.255804	0.000206	20.744785
2411.643633	-3.003400	2.739600	-8.227300	29.286536	0.000208	20.753946
2412.641792	-3.022600	2.733500	-8.261500	29.286211	0.000209	20.721374
2413.643120	-3.027300	2.731700	-8.269400	29.264267	0.000210	20.749522
2414.642990	-2.953000	2.731400	-8.064800	29.282023	0.000207	20.737543
2415.643758	-2.966600	2.726800	-8.087800	29.310646	0.000209	20.736992
2416.643440	-2.950200	2.723200	-8.032900	29.309877	0.000209	20.750442
2417.642645	-2.965100	2.719800	-8.063500	29.268819	0.000208	20.759325
2418.642612	-2.995900	2.716400	-8.136600	29.290336	0.000208	20.739283
2419.643798	-2.986700	2.712500	-8.101300	29.286449	0.000208	20.738685
2420.643817	-2.987700	2.710100	-8.096500	29.306775	0.000208	20.742100
2421.643630	-2.983900	2.705300	-8.071700	29.277381	0.000209	20.755151
2422.646842	-2.976800	2.702200	-8.043100	29.239667	0.000211	20.740377
2423.644302	-2.998300	2.698000	-8.087700	29.191303	0.000210	20.757547
2424.646118	-3.011800	2.694700	-8.114500	29.138277	0.000211	20.745364
2425.644797	-3.007400	2.691000	-8.091700	29.079109	0.000212	20.757343
2426.643262	-2.981100	2.687000	-8.009200	29.093026	0.000208	20.748132
2427.647366	-2.992400	2.684200	-8.030700	29.128217	0.000208	20.732857
2428.647431	-2.975400	2.679700	-7.971800	29.131831	0.000211	20.762104
2429.652905	-2.987100	2.675200	-7.990100	29.189680	0.000209	20.742635
2430.645151	-2.980400	2.671900	-7.962400	29.241114	0.000208	20.758906
2431.644921	-3.003200	2.667500	-8.010300	29.262826	0.000208	20.766561
2432.648249	-2.998400	2.664400	-7.988200	29.230709	0.000208	20.762170
2433.648997	-3.001900	2.659900	-7.984000	29.222114	0.000209	20.775794
2434.647232	-2.990700	2.655300	-7.940100	29.227858	0.000208	20.749814
2435.646110	-3.030800	2.650000	-8.031200	29.253881	0.000208	20.740951
2436.645316	-2.996300	2.647600	-7.931500	29.279832	0.000208	20.770424
2437.645352	-2.999000	2.641200	-7.919900	29.278866	0.000207	20.775141
2438.647027	-3.005800	2.638500	-7.929900	29.268242	0.000210	20.752579
2439.644768	-3.019700	2.633100	-7.949900	29.245459	0.000208	20.763284
2440.658105	-3.011900	2.628500	-7.915700	29.251726	0.000211	20.751107
2441.648190	-2.987600	2.625000	-7.841400	29.207350	0.000205	20.741475
2442.648716	-2.986000	2.620400	-7.823700	29.204527	0.000208	20.759019
2443.652165	-2.998600	2.613600	-7.836300	29.219261	0.000206	20.754900
2444.649662	-3.004000	2.609600	-7.838500	29.287357	0.000208	20.762834
2445.650470	-3.000900	2.604700	-7.815700	29.262870	0.000206	20.764235
2446.650868	-2.980500	2.599200	-7.746400	29.224784	0.000207	20.775165
2447.650921	-2.988600	2.595200	-7.755000	29.221788	0.000207	20.771673
2448.650613	-2.981500	2.589400	-7.719700	29.238926	0.000208	20.769503
2449.655128	-3.017700	2.582900	-7.793200	29.286643	0.000206	20.746467
2450.651350	-3.062900	2.575700	-7.887700	29.281350	0.000208	20.760100
2451.651577	-2.989400	2.571400	-7.685200	29.329713	0.000207	20.753839
2452.652594	-3.025800	2.565400	-7.761500	29.341325	0.000209	20.771231
2453.651489	-2.978200	2.562400	-7.630700	29.375766	0.000208	20.781288
2454.656188	-3.026500	2.553900	-7.727700	29.403894	0.000207	20.771706
2455.652317	-3.011100	2.547400	-7.669900	29.378343	0.000206	20.754487
2456.654359	-3.000000	2.544200	-7.631800	29.341374	0.000209	20.762746
2457.654329	-3.001700	2.538400	-7.618500	29.319538	0.000207	20.757809
2458.654075	-3.002000	2.530500	-7.594600	29.338606	0.000208	20.768965
2459.655289	-2.999500	2.525100	-7.572800	29.373791	0.000209	20.751322
2460.655242	-3.020100	2.518800	-7.605700	29.431977	0.000209	20.775355
2461.655157	-2.991000	2.514000	-7.516100	29.494861	0.000208	20.778997
2462.655820	-2.994100	2.505900	-7.501900	29.566708	0.000210	20.760383
2463.657399	-3.008500	2.499300	-7.517600	29.606461	0.000210	20.785759
