LabVIEW Measurement	
Writer_Version	2
Reader_Version	2
Separator	Tab
Decimal_Separator	.
Multi_Headings	No
X_Columns	One
Time_Pref	Absolute
Operator	admin
Description	Clolumns are: time, Current, Voltage, Power, Battery Temp, and Chamber Temp
Date	2024/08/16
Time	13:06:06.104549407958984375
***End_of_Header***	
	
Channels	6						
Samples	1	1	1	1	1	1	
Date	2024/09/04	2024/09/04	2024/09/04	2024/09/04	2024/09/04	2024/09/04	
Time	20:54:12.5616822242736816406	20:54:12.567684173583984375	20:54:12.5727224349975585938	20:54:12.5444722175598144531	20:54:12.5444722175598144531	20:54:12.5444722175598144531	
X_Dimension	Time	Time	Time	Time	Time	Time	
X0	0.0000000000000000E+0	0.0000000000000000E+0	0.0000000000000000E+0	0.0000000000000000E+0	0.0000000000000000E+0	0.0000000000000000E+0	
Delta_X	1.000000	1.000000	1.000000	1.000000	1.000000	1.000000	
***End_of_Header***							
X_Value	Untitled	Untitled 1	Untitled 2	Untitled 3	Untitled 4	Untitled 5	Comment
0.000000	0.010118	4.099800	0.041404	20.961047	0.000928	20.794631
1.004128	-3.004800	3.930700	-11.809000	20.966037	0.000925	20.795354
1.998573	-3.009000	3.923800	-11.806000	20.957153	0.000925	20.792159
3.000221	-3.003300	3.918700	-11.768000	20.963341	0.000926	20.795029
4.000115	-2.979800	3.915300	-11.666000	20.960818	0.000924	20.781599
5.002118	-3.004500	3.911400	-11.751000	20.969101	0.000923	20.818333
6.000193	-3.008000	3.909500	-11.759000	20.975088	0.000923	20.798717
7.001711	-2.994000	3.905900	-11.694000	20.962110	0.000923	20.786685
8.001551	-3.017300	3.904000	-11.779000	20.973687	0.000921	20.796367
9.004168	-3.007500	3.902000	-11.734000	20.992025	0.000921	20.793845
10.000754	-3.019800	3.899800	-11.775000	20.977177	0.000920	20.786581
11.003314	-3.001600	3.899600	-11.704000	20.976728	0.000919	20.787555
12.000868	-3.017400	3.897600	-11.760000	20.974629	0.000919	20.802051
13.001516	-3.018500	3.894300	-11.754000	20.998681	0.000920	20.793864
14.003043	-3.005600	3.895200	-11.706000	20.980490	0.000919	20.807438
15.004308	-3.010100	3.893400	-11.718000	20.986752	0.000919	20.796158
16.007320	-3.025700	3.889900	-11.768000	21.017192	0.000919	20.797680
17.006243	-3.005700	3.891600	-11.696000	21.013845	0.000917	20.799548
18.005167	-3.010200	3.890400	-11.709000	21.019035	0.000917	20.787195
19.008331	-2.992300	3.889000	-11.636000	21.016863	0.000915	20.791661
20.004901	-3.014400	3.887800	-11.719000	21.013843	0.000914	20.826098
21.008046	-3.009600	3.887300	-11.698000	21.036871	0.000914	20.817363
22.006180	-3.000300	3.885900	-11.658000	21.023871	0.000912	20.808153
23.005528	-3.008500	3.885600	-11.688000	21.058351	0.000914	20.801863
24.008793	-2.988900	3.886600	-11.615000	21.047971	0.000912	20.806654
25.006190	-2.988200	3.883300	-11.602000	21.060170	0.000911	20.789458
26.008555	-2.984800	3.885200	-11.596000	21.056701	0.000910	20.802584
27.012454	-3.009500	3.882000	-11.682000	21.066881	0.000910	20.810870
28.007374	-2.994200	3.881900	-11.622000	21.075137	0.000910	20.787359
29.007559	-2.984600	3.881400	-11.584000	21.067780	0.000908	20.791380
30.011907	-3.008200	3.881600	-11.676000	21.052234	0.000909	20.828461
31.011903	-2.990100	3.879600	-11.600000	21.081600	0.000908	20.808996
32.009183	-3.007600	3.880100	-11.669000	21.079828	0.000908	20.830457
33.015604	-3.009800	3.879700	-11.676000	21.115630	0.000905	20.800836
34.012556	-2.999600	3.879600	-11.636000	21.090130	0.000909	20.811839
35.010914	-2.988000	3.879500	-11.592000	21.074114	0.000906	20.809570
36.008964	-3.003200	3.877800	-11.644000	21.118421	0.000906	20.798886
37.014102	-2.995700	3.875900	-11.609000	21.117075	0.000907	20.806075
38.012606	-3.004500	3.875800	-11.643000	21.130371	0.000906	20.787132
39.012590	-3.006600	3.875600	-11.652000	21.131944	0.000905	20.826163
40.012515	-2.989800	3.875800	-11.586000	21.119943	0.000906	20.808943
41.011284	-3.003700	3.875400	-11.639000	21.141998	0.000905	20.815831
42.012148	-2.998300	3.874400	-11.614000	21.150954	0.000905	20.829057
43.010846	-2.996100	3.875300	-11.610000	21.156442	0.000904	20.823167
44.011758	-3.016900	3.873800	-11.686000	21.171935	0.000905	20.827759
45.011270	-2.998200	3.874000	-11.614000	21.170589	0.000905	20.822620
46.011755	-2.978600	3.873200	-11.536000	21.204766	0.000904	20.809868
47.011324	-2.994400	3.872300	-11.594000	21.180742	0.000904	20.824241
48.013603	-3.004400	3.872000	-11.633000	21.206613	0.000902	20.804603
49.014814	-2.984600	3.871100	-11.553000	21.213224	0.000901	20.814535
50.012964	-2.979900	3.872100	-11.537000	21.219984	0.000903	20.807547
51.011655	-3.002900	3.870600	-11.622000	21.204367	0.000904	20.809468
52.012315	-2.989600	3.871400	-11.573000	21.220459	0.000902	20.813239
53.012132	-2.993800	3.870100	-11.585000	21.247724	0.000901	20.805427
54.011917	-3.023300	3.867400	-11.691000	21.217044	0.000904	20.813141
55.012998	-2.991100	3.869600	-11.571000	21.247925	0.000902	20.792825
56.014216	-3.007200	3.870900	-11.639000	21.228991	0.000901	20.807549
57.012577	-3.007700	3.868500	-11.634000	21.241739	0.000902	20.802758
58.012054	-2.998400	3.869200	-11.600000	21.279658	0.000903	20.807501
59.014381	-3.004400	3.868000	-11.619000	21.278708	0.000901	20.810818
60.014689	-2.996500	3.867800	-11.589000	21.286740	0.000902	20.808423
61.013466	-3.014300	3.868000	-11.657000	21.302879	0.000901	20.838318
62.014324	-3.026900	3.864400	-11.695000	21.296145	0.000901	20.819253
63.013828	-2.972900	3.868500	-11.498000	21.308567	0.000902	20.823620
64.014991	-2.999900	3.865800	-11.596000	21.289336	0.000902	20.808648
65.016810	-2.987900	3.867700	-11.555000	21.317247	0.000902	20.823769
66.017380	-2.984700	3.867600	-11.541000	21.327326	0.000902	20.814413
67.016684	-3.010600	3.865400	-11.636000	21.329197	0.000900	20.803956
68.016527	-3.011500	3.865300	-11.639000	21.343164	0.000900	20.817930
69.017954	-2.996700	3.865400	-11.582000	21.350197	0.000899	20.809793
70.018993	-3.009900	3.866100	-11.634000	21.354613	0.000903	20.834600
71.018199	-2.986300	3.864300	-11.539000	21.352541	0.000902	20.805501
72.018921	-2.991500	3.864700	-11.559000	21.377086	0.000902	20.819152
73.019240	-2.999500	3.865900	-11.595000	21.373644	0.000901	20.822347
74.019785	-2.987300	3.863700	-11.541000	21.382874	0.000903	20.823047
75.021723	-3.009500	3.863200	-11.625000	21.392028	0.000902	20.822247
76.019708	-3.015900	3.862100	-11.646000	21.410284	0.000901	20.827237
77.020271	-2.996100	3.864900	-11.579000	21.406665	0.000900	20.826461
78.026845	-2.980100	3.864300	-11.514000	21.401678	0.000901	20.822419
79.019587	-3.002600	3.862600	-11.596000	21.415746	0.000901	20.831753
80.021062	-3.004600	3.862200	-11.604000	21.428616	0.000901	20.821397
81.024153	-2.999800	3.862600	-11.586000	21.418415	0.000900	20.847226
82.021230	-2.983300	3.862800	-11.523000	21.443379	0.000901	20.831426
83.021439	-3.001500	3.862200	-11.591000	21.439464	0.000902	20.829880
84.021831	-3.006300	3.862100	-11.608000	21.440960	0.000901	20.811937
85.025019	-3.021300	3.861000	-11.664000	21.471313	0.000903	20.832824
86.022769	-3.003200	3.861600	-11.596000	21.472387	0.000901	20.826312
87.022888	-2.990500	3.860700	-11.545000	21.464704	0.000900	20.824788
88.024484	-3.018800	3.860100	-11.651000	21.477225	0.000900	20.827834
89.023759	-3.010600	3.859600	-11.619000	21.508124	0.000902	20.837414
90.023981	-3.003400	3.858700	-11.587000	21.467146	0.000902	20.843826
91.024033	-2.998500	3.858900	-11.569000	21.495104	0.000899	20.835766
92.027760	-3.004100	3.858800	-11.589000	21.524707	0.000901	20.842628
93.024204	-3.013600	3.859000	-11.628000	21.526901	0.000901	20.827279
94.024790	-2.998800	3.859000	-11.571000	21.541789	0.000899	20.849289
95.029160	-3.000800	3.859000	-11.580000	21.532860	0.000902	20.810009
96.023268	-3.002700	3.857800	-11.583000	21.562114	0.000900	20.819842
97.026209	-2.986300	3.859100	-11.523000	21.565756	0.000901	20.836288
98.028988	-3.001100	3.859100	-11.580000	21.570942	0.000902	20.827727
99.027632	-3.010100	3.858100	-11.612000	21.564581	0.000900	20.841750
100.031988	-3.007800	3.856100	-11.596000	21.573785	0.000902	20.832468
101.034303	-2.996900	3.857200	-11.558000	21.601141	0.000901	20.838506
102.028964	-3.001200	3.857300	-11.575000	21.600567	0.000903	20.835562
103.028360	-3.023400	3.855400	-11.655000	21.624707	0.000902	20.840752
104.033942	-2.985200	3.856800	-11.511000	21.611089	0.000901	20.833288
105.031665	-2.990800	3.856000	-11.532000	21.615777	0.000902	20.819963
106.030794	-2.984300	3.856700	-11.508000	21.618970	0.000902	20.832640
107.033934	-3.007500	3.854100	-11.589000	21.623185	0.000902	20.842547
108.031519	-2.983000	3.856100	-11.502000	21.632386	0.000901	20.838479
109.031589	-3.039300	3.853800	-11.712000	21.642683	0.000903	20.835508
110.032745	-3.003200	3.854000	-11.573000	21.671159	0.000902	20.819909
111.032536	-3.015700	3.853000	-11.619000	21.671784	0.000904	20.841871
112.033787	-3.002200	3.853900	-11.569000	21.681684	0.000899	20.832812
113.033494	-2.985100	3.854200	-11.504000	21.690409	0.000902	20.847233
114.033127	-2.993700	3.854800	-11.538000	21.692430	0.000903	20.858739
115.036988	-3.015500	3.853100	-11.618000	21.718087	0.000903	20.838424
116.034330	-2.993800	3.853800	-11.536000	21.705543	0.000904	20.838198
117.037213	-2.979200	3.855300	-11.485000	21.710656	0.000903	20.862754
118.035631	-3.010200	3.853700	-11.600000	21.733248	0.000903	20.846958
119.036119	-3.005900	3.852800	-11.580000	21.696992	0.000904	20.856666
120.039427	-3.002300	3.853000	-11.567000	21.707513	0.000904	20.862928
121.037307	-2.996100	3.854400	-11.547000	21.733796	0.000905	20.854145
122.040871	-2.995300	3.853600	-11.542000	21.722150	0.000904	20.875205
123.036691	-3.007300	3.851600	-11.581000	21.746112	0.000904	20.848453
124.040010	-3.002300	3.852200	-11.564000	21.752993	0.000904	20.852021
125.036902	-2.978000	3.853500	-11.474000	21.749952	0.000907	20.852770
126.037299	-3.009300	3.850800	-11.587000	21.752368	0.000906	20.858033
127.037826	-2.998100	3.850900	-11.545000	21.746383	0.000906	20.849199
128.041103	-2.977700	3.851100	-11.466000	21.774261	0.000907	20.828736
129.042479	-2.968600	3.851900	-11.434000	21.791016	0.000907	20.852143
130.040766	-2.998800	3.850100	-11.545000	21.793608	0.000909	20.845729
131.041757	-2.992400	3.851300	-11.523000	21.813379	0.000907	20.858879
132.041996	-3.012100	3.849800	-11.594000	21.814101	0.000907	20.879040
133.040270	-2.998000	3.850900	-11.543000	21.823176	0.000908	20.875322
134.045589	-3.001800	3.850000	-11.555000	21.849678	0.000911	20.871502
135.045786	-3.011500	3.849000	-11.589000	21.833123	0.000908	20.872949
136.040481	-3.015200	3.849200	-11.605000	21.866232	0.000909	20.871950
137.043094	-2.972800	3.850800	-11.447000	21.867829	0.000910	20.863591
138.042472	-2.992100	3.849800	-11.517000	21.877926	0.000912	20.866585
139.043586	-3.017600	3.850000	-11.615000	21.878997	0.000909	20.890415
140.043439	-2.988300	3.849200	-11.500000	21.885155	0.000911	20.868606
141.042036	-2.984000	3.849800	-11.486000	21.901833	0.000913	20.885772
142.041506	-3.003400	3.848000	-11.555000	21.902455	0.000911	20.861267
143.043079	-3.016300	3.847000	-11.602000	21.905022	0.000912	20.875215
144.043137	-3.016800	3.847100	-11.604000	21.907040	0.000912	20.875812
145.045622	-3.004500	3.848400	-11.561000	21.902551	0.000910	20.888387
146.043191	-3.001000	3.847900	-11.546000	21.915965	0.000912	20.882849
147.041834	-2.983400	3.847800	-11.479000	21.921724	0.000914	20.883398
148.044531	-3.005300	3.847600	-11.562000	21.923841	0.000914	20.885042
149.042686	-2.972300	3.849100	-11.439000	21.913866	0.000913	20.872214
150.043267	-2.979100	3.846800	-11.460000	21.926880	0.000914	20.886187
151.044651	-2.985800	3.846300	-11.483000	21.907109	0.000914	20.883467
152.046839	-3.009800	3.844600	-11.570000	21.945027	0.000914	20.875430
153.046103	-3.004400	3.846500	-11.555000	21.939665	0.000912	20.880494
154.047222	-2.980600	3.846000	-11.461000	21.968609	0.000914	20.880544
155.044796	-2.995400	3.846200	-11.520000	21.971648	0.000915	20.862724
156.048307	-3.000700	3.843800	-11.532000	21.971998	0.000915	20.882039
157.047343	-2.984200	3.844900	-11.473000	21.957488	0.000915	20.884584
158.047880	-3.001300	3.844700	-11.538000	21.970302	0.000913	20.871333
159.053711	-3.007000	3.843200	-11.556000	21.985881	0.000916	20.879816
160.049016	-3.021800	3.844300	-11.615000	22.010485	0.000916	20.883582
161.050530	-2.995600	3.843600	-11.513000	21.994430	0.000914	20.875572
162.050385	-3.030800	3.842700	-11.644000	22.000936	0.000915	20.868808
163.051584	-3.027600	3.842100	-11.631000	22.004773	0.000918	20.886872
164.053192	-3.027200	3.842200	-11.630000	22.010804	0.000916	20.874419
165.053078	-3.000700	3.841900	-11.528000	22.026236	0.000918	20.904090
166.056306	-2.988900	3.844400	-11.490000	22.025612	0.000918	20.888767
167.055443	-2.965900	3.844500	-11.401000	22.027231	0.000917	20.891337
168.053908	-3.009900	3.842900	-11.565000	22.019502	0.000920	20.884548
169.057991	-3.004500	3.843200	-11.545000	22.037375	0.000920	20.900068
170.054098	-3.003500	3.841700	-11.537000	22.058089	0.000920	20.880503
171.054407	-2.990200	3.843600	-11.492000	22.073768	0.000918	20.903310
172.060740	-2.998000	3.843400	-11.521000	22.056118	0.000921	20.896072
173.053990	-3.007900	3.842700	-11.557000	22.056168	0.000921	20.914138
174.054055	-3.039900	3.840100	-11.672000	22.065841	0.000920	20.900590
175.057141	-3.012700	3.841300	-11.571000	22.067484	0.000921	20.913139
176.053462	-3.012400	3.840400	-11.567000	22.070301	0.000921	20.911691
177.054998	-3.012200	3.840000	-11.565000	22.085831	0.000920	20.899265
178.055527	-2.985000	3.842500	-11.468000	22.099192	0.000921	20.902683
179.055473	-3.009400	3.841000	-11.558000	22.110060	0.000922	20.910718
180.057552	-3.003200	3.839500	-11.529000	22.120779	0.000923	20.903433
181.057764	-3.007100	3.839800	-11.545000	22.102556	0.000922	20.904155
182.059454	-2.998500	3.839700	-11.512000	22.133887	0.000924	20.906599
183.057932	-2.985800	3.840300	-11.465000	22.134961	0.000923	20.904828
184.058947	-2.998900	3.838000	-11.508000	22.163898	0.000923	20.892549
185.060972	-2.998200	3.841600	-11.515000	22.176060	0.000922	20.896666
186.060271	-2.990100	3.839700	-11.481000	22.158887	0.000925	20.893697
187.057480	-2.999700	3.840400	-11.519000	22.177107	0.000924	20.910514
188.057542	-2.992100	3.838200	-11.483000	22.197221	0.000924	20.912160
189.061265	-3.007300	3.839300	-11.545000	22.191165	0.000925	20.912736
190.057064	-3.006600	3.836900	-11.534000	22.206094	0.000925	20.891175
191.057263	-2.995100	3.837300	-11.492000	22.201905	0.000926	20.905471
192.059455	-2.992500	3.836900	-11.480000	22.210229	0.000927	20.910960
193.059312	-3.011500	3.837500	-11.556000	22.212398	0.000926	20.914554
194.060330	-3.011300	3.837700	-11.556000	22.227652	0.000929	20.897111
195.059278	-2.989600	3.836000	-11.466000	22.242032	0.000931	20.912457
196.060307	-2.967400	3.838800	-11.390000	22.222441	0.000929	20.921289
197.059999	-2.977800	3.837300	-11.426000	22.250829	0.000928	20.900404
198.063142	-3.020400	3.835300	-11.582000	22.256386	0.000929	20.927302
199.061298	-3.021300	3.834900	-11.586000	22.230763	0.000931	20.922035
200.064404	-2.992500	3.836000	-11.478000	22.232880	0.000931	20.927000
201.066521	-3.007900	3.835000	-11.534000	22.230138	0.000932	20.903868
202.063501	-3.001100	3.835000	-11.508000	22.269243	0.000931	20.941596
203.063446	-2.988500	3.835400	-11.460000	22.271237	0.000931	20.922257
204.073140	-3.003200	3.835900	-11.518000	22.278838	0.000933	20.929393
205.065695	-3.008300	3.836300	-11.540000	22.270811	0.000933	20.934158
206.063216	-3.012200	3.834100	-11.548000	22.271882	0.000932	20.944238
207.064352	-3.009600	3.833900	-11.538000	22.287781	0.000933	20.921279
208.063570	-2.993100	3.835800	-11.480000	22.293663	0.000936	20.919583
209.066043	-3.006300	3.834500	-11.527000	22.300041	0.000935	20.926917
210.065591	-3.008500	3.833600	-11.532000	22.316639	0.000934	20.936898
211.067199	-3.002700	3.832700	-11.508000	22.312249	0.000933	20.944354
212.067442	-3.008400	3.831700	-11.527000	22.324539	0.000935	20.934850
213.068040	-3.017400	3.831500	-11.560000	22.322318	0.000935	20.947324
214.069755	-2.996600	3.833000	-11.483000	22.355140	0.000936	20.933251
215.070566	-2.995200	3.833100	-11.479000	22.347936	0.000937	20.947372
216.068235	-2.988700	3.831700	-11.451000	22.359824	0.000936	20.936044
217.074574	-3.007000	3.830400	-11.517000	22.378239	0.000937	20.948793
218.069193	-3.006400	3.831700	-11.518000	22.371360	0.000937	20.949965
219.074122	-3.035500	3.830100	-11.625000	22.366476	0.000938	20.909517
220.069914	-2.984700	3.832100	-11.436000	22.346711	0.000940	20.946620
221.072764	-3.034100	3.831400	-11.623000	22.373002	0.000939	20.925534
222.071947	-3.018400	3.830600	-11.562000	22.375569	0.000938	20.949438
223.071139	-2.975100	3.831100	-11.396000	22.351993	0.000940	20.949537
224.072460	-2.997300	3.829300	-11.477000	22.363181	0.000941	20.968325
225.072886	-3.009300	3.830300	-11.525000	22.370335	0.000941	20.947516
226.072984	-3.012400	3.829900	-11.536000	22.393884	0.000943	20.947390
227.073446	-3.010000	3.829600	-11.526000	22.402457	0.000944	20.948388
228.071750	-3.013700	3.828400	-11.536000	22.427050	0.000943	20.927500
229.072310	-2.995100	3.829600	-11.470000	22.462612	0.000944	20.951256
230.072094	-2.999500	3.829700	-11.485000	22.475046	0.000944	20.955647
231.072792	-2.998100	3.828900	-11.479000	22.450725	0.000943	20.976333
232.073431	-2.992400	3.829100	-11.457000	22.465676	0.000946	20.963806
233.076588	-3.006700	3.828500	-11.511000	22.468939	0.000946	20.947636
234.077719	-2.999000	3.829200	-11.481000	22.455035	0.000945	20.940824
235.074345	-3.004700	3.828900	-11.503000	22.469487	0.000948	20.973785
236.074534	-2.993500	3.829500	-11.463000	22.491638	0.000947	20.944291
237.078010	-2.995600	3.827700	-11.464000	22.492087	0.000947	20.950903
238.073668	-2.993000	3.827600	-11.455000	22.513617	0.000948	20.962981
239.073930	-2.994400	3.827600	-11.459000	22.506340	0.000948	20.964701
240.078935	-3.024300	3.826900	-11.571000	22.511748	0.000949	20.961583
241.078255	-3.015200	3.826600	-11.536000	22.512245	0.000947	20.981992
242.075356	-2.992200	3.827600	-11.452000	22.522136	0.000948	20.955392
243.079033	-2.982700	3.827500	-11.414000	22.515509	0.000949	20.984313
244.080487	-2.982500	3.826900	-11.412000	22.536539	0.000950	20.957489
245.077379	-2.988700	3.825100	-11.430000	22.529762	0.000952	20.960184
246.084609	-2.999400	3.825600	-11.473000	22.563624	0.000952	20.959959
247.081007	-3.003500	3.826600	-11.492000	22.563175	0.000951	20.969940
248.079087	-3.013200	3.824100	-11.521000	22.577204	0.000950	20.959336
249.079228	-3.006900	3.825600	-11.502000	22.576706	0.000953	20.964052
250.078199	-2.983700	3.826000	-11.414000	22.597437	0.000953	20.962056
251.078902	-2.987800	3.824800	-11.426000	22.613706	0.000954	20.959385
252.078583	-2.991600	3.825300	-11.442000	22.616298	0.000954	20.962455
253.082980	-2.988700	3.824300	-11.429000	22.602421	0.000955	20.961832
254.082189	-3.011100	3.824300	-11.514000	22.599779	0.000954	20.959660
255.083860	-3.017500	3.824300	-11.539000	22.613931	0.000953	20.956766
256.084473	-2.994500	3.823900	-11.449000	22.604437	0.000957	20.954843
257.082407	-2.998400	3.824100	-11.465000	22.622203	0.000955	20.964575
258.084340	-2.996200	3.823200	-11.454000	22.639794	0.000956	20.967970
259.085086	-2.998300	3.823900	-11.464000	22.637451	0.000957	20.962779
260.084599	-3.021300	3.822000	-11.547000	22.635110	0.000956	20.962805
261.083788	-3.001900	3.824100	-11.478000	22.642236	0.000957	20.939125
262.087012	-3.003600	3.823300	-11.482000	22.659428	0.000957	20.948284
263.086717	-3.020900	3.821600	-11.543000	22.666132	0.000957	20.967798
264.084667	-3.007000	3.821000	-11.488000	22.662318	0.000958	20.950230
265.089911	-2.999700	3.821000	-11.460000	22.658756	0.000959	20.942396
266.084312	-2.991100	3.821000	-11.428000	22.655866	0.000961	20.952302
267.088204	-2.990500	3.821400	-11.427000	22.660549	0.000961	20.931865
268.090415	-3.010500	3.821700	-11.504000	22.656191	0.000960	20.944567
269.090608	-3.012800	3.821500	-11.512000	22.680135	0.000963	20.929672
270.090177	-2.982700	3.821400	-11.397000	22.683921	0.000962	20.945791
271.092706	-2.996500	3.821200	-11.448000	22.683498	0.000962	20.959115
272.089313	-3.015100	3.818300	-11.511000	22.693114	0.000962	20.944093
273.088900	-2.998700	3.819600	-11.453000	22.667004	0.000964	20.957293
274.092509	-2.991400	3.819700	-11.424000	22.656490	0.000965	20.951031
275.093652	-2.992100	3.821100	-11.433000	22.698022	0.000967	20.949008
276.093428	-3.013700	3.819300	-11.509000	22.713469	0.000966	20.926552
277.094827	-3.013800	3.818700	-11.508000	22.700239	0.000968	20.942696
278.091254	-3.004000	3.819200	-11.471000	22.717431	0.000967	20.938106
279.091772	-3.017700	3.817800	-11.520000	22.704874	0.000968	20.936433
280.094764	-3.012000	3.817600	-11.498000	22.701211	0.000971	20.932765
281.092444	-2.995900	3.817800	-11.436000	22.709031	0.000970	20.940123
282.091763	-3.019600	3.818100	-11.527000	22.719174	0.000969	20.936533
283.093760	-3.028000	3.816300	-11.555000	22.710802	0.000970	20.923881
284.091393	-2.996300	3.817600	-11.438000	22.709581	0.000971	20.935933
285.092571	-2.990100	3.817400	-11.414000	22.729187	0.000973	20.925227
286.095393	-3.008300	3.817900	-11.485000	22.729113	0.000972	20.937479
287.094585	-3.018600	3.816000	-11.517000	22.756092	0.000972	20.935107
288.096196	-3.015000	3.816500	-11.506000	22.782751	0.000971	20.932889
289.100520	-2.999000	3.816200	-11.442000	22.787954	0.000972	20.940471
290.096024	-2.999400	3.814900	-11.441000	22.786235	0.000973	20.931638
291.096698	-3.018500	3.815200	-11.516000	22.786832	0.000973	20.928443
292.101927	-3.022900	3.814300	-11.527000	22.810050	0.000975	20.949328
293.106947	-2.976200	3.816700	-11.358000	22.834561	0.000977	20.924100
294.097221	-2.980700	3.815000	-11.371000	22.810596	0.000976	20.922852
295.098637	-2.983600	3.816000	-11.384000	22.838472	0.000976	20.928491
296.095374	-3.013500	3.812600	-11.487000	22.835581	0.000977	20.924173
297.099634	-3.000300	3.812900	-11.439000	22.835653	0.000976	20.936099
298.098147	-2.987200	3.815000	-11.395000	22.857252	0.000977	20.925020
299.097454	-3.016100	3.813000	-11.500000	22.869456	0.000976	20.930608
300.103430	-2.981700	3.814400	-11.372000	22.869554	0.000977	20.934499
301.098930	-3.010600	3.813700	-11.480000	22.872369	0.000979	20.920725
302.099400	-3.012400	3.812100	-11.483000	22.869778	0.000980	20.927611
303.098374	-3.000800	3.813000	-11.441000	22.866489	0.000980	20.930481
304.098950	-2.994500	3.812400	-11.416000	22.891597	0.000980	20.917703
305.103915	-3.012200	3.810800	-11.478000	22.881807	0.000980	20.917852
306.102241	-3.015900	3.812700	-11.497000	22.850170	0.000982	20.904178
307.103759	-2.996900	3.811500	-11.421000	22.856148	0.000983	20.927708
308.100660	-3.008000	3.812700	-11.468000	22.854829	0.000982	20.912637
309.100226	-2.988400	3.811000	-11.387000	22.845087	0.000984	20.919472
310.099119	-2.999300	3.810900	-11.429000	22.868752	0.000984	20.915205
311.105338	-3.003400	3.811000	-11.445000	22.865463	0.000983	20.917126
312.101758	-2.994100	3.810400	-11.408000	22.867431	0.000982	20.923364
313.103130	-2.990000	3.810900	-11.393000	22.890422	0.000982	20.912259
314.101819	-3.020500	3.808900	-11.503000	22.906340	0.000984	20.913982
315.109018	-2.996200	3.810500	-11.416000	22.915133	0.000983	20.916628
316.106022	-3.002800	3.808900	-11.436000	22.905294	0.000985	20.922416
317.102815	-3.022700	3.808300	-11.511000	22.923776	0.000984	20.915330
318.102751	-3.022100	3.808400	-11.506000	22.942457	0.000986	20.908916
319.108176	-3.005800	3.808200	-11.445000	22.946119	0.000987	20.911636
320.105402	-2.989000	3.808900	-11.383000	22.955609	0.000987	20.908342
321.103650	-2.986600	3.809600	-11.376000	22.977429	0.000988	20.910288
322.107747	-3.013600	3.806800	-11.471000	22.987616	0.000987	20.904375
323.107559	-3.006100	3.808100	-11.446000	22.999398	0.000988	20.891050
324.103429	-3.002200	3.808200	-11.432000	22.989212	0.000987	20.903129
325.104936	-2.997500	3.806900	-11.410000	22.988065	0.000990	20.918574
326.106430	-3.005300	3.806100	-11.438000	22.953245	0.000987	20.909292
327.107448	-2.996500	3.806000	-11.403000	22.950781	0.000988	20.914883
328.106926	-2.982200	3.807700	-11.354000	22.947817	0.000991	20.911915
329.107624	-2.993600	3.806700	-11.395000	22.956906	0.000990	20.898263
330.107693	-2.997200	3.807300	-11.408000	22.959898	0.000989	20.906476
331.106465	-2.989000	3.806200	-11.375000	22.965528	0.000992	20.901211
332.107299	-3.012600	3.805600	-11.464000	22.953023	0.000991	20.902432
333.108567	-2.990400	3.805400	-11.379000	22.954668	0.000991	20.914510
334.107145	-2.974900	3.806800	-11.323000	22.978332	0.000992	20.905030
335.108972	-3.016000	3.805700	-11.476000	22.993325	0.000991	20.885440
336.106854	-3.010600	3.805600	-11.456000	23.016116	0.000993	20.891206
337.106228	-2.991800	3.805300	-11.383000	23.004461	0.000992	20.895649
338.107335	-3.003400	3.806300	-11.430000	23.006852	0.000994	20.909897
339.108626	-2.975400	3.805000	-11.320000	23.011958	0.000993	20.920702
340.110203	-2.980000	3.804600	-11.336000	22.985482	0.000994	20.906978
341.108342	-3.001300	3.803000	-11.413000	22.986653	0.000993	20.912418
342.109247	-2.995400	3.803500	-11.392000	22.986604	0.000996	20.897197
343.110581	-2.999100	3.801500	-11.400000	22.998211	0.000996	20.908352
344.109467	-2.995600	3.803800	-11.394000	23.009021	0.000997	20.910648
345.111784	-3.005000	3.803300	-11.427000	22.993505	0.000997	20.897474
346.110902	-2.986100	3.802700	-11.354000	23.023569	0.000998	20.882078
347.109289	-3.020300	3.801700	-11.481000	23.036022	0.000998	20.899296
348.111252	-2.999800	3.801700	-11.404000	23.038935	0.000999	20.877087
349.110552	-2.997900	3.802500	-11.399000	23.051638	0.001000	20.900244
350.109775	-2.998400	3.800800	-11.394000	23.043818	0.000999	20.881505
351.112809	-2.985700	3.800500	-11.346000	23.043919	0.001001	20.905786
352.109915	-2.987400	3.800700	-11.353000	23.029148	0.001002	20.901892
353.111943	-3.000500	3.800200	-11.401000	23.033085	0.001001	20.882604
354.110260	-3.030300	3.798200	-11.509000	23.048552	0.001000	20.897626
355.113003	-3.005200	3.798500	-11.413000	23.053633	0.001001	20.878537
356.112712	-2.999800	3.799300	-11.394000	23.058936	0.001003	20.888118
357.111662	-3.010600	3.800100	-11.439000	23.088027	0.001001	20.889765
358.114739	-2.988000	3.799400	-11.352000	23.100505	0.001004	20.880459
359.114996	-3.010400	3.798200	-11.432000	23.088624	0.001003	20.912173
360.112482	-2.995300	3.798600	-11.376000	23.077567	0.001004	20.891612
361.112103	-3.010400	3.798100	-11.432000	23.120677	0.001003	20.901144
362.113523	-2.976800	3.797700	-11.304000	23.128546	0.001005	20.893383
363.115457	-2.992100	3.797700	-11.362000	23.126628	0.001005	20.896202
364.114238	-3.003700	3.797900	-11.407000	23.108523	0.001006	20.883277
365.114235	-2.994600	3.797200	-11.370000	23.107228	0.001004	20.888617
366.114442	-2.980400	3.797800	-11.317000	23.147050	0.001006	20.898173
367.114532	-2.996400	3.798600	-11.381000	23.152827	0.001006	20.875989
368.118105	-3.012600	3.795400	-11.433000	23.149217	0.001006	20.879958
369.116286	-3.010400	3.796200	-11.426000	23.152877	0.001008	20.890263
370.117023	-2.992200	3.795400	-11.355000	23.150661	0.001007	20.879035
371.120847	-3.000500	3.795100	-11.386000	23.143289	0.001008	20.886345
372.117354	-3.012100	3.793800	-11.426000	23.169861	0.001007	20.870300
373.116467	-2.988300	3.797100	-11.346000	23.160348	0.001007	20.877836
374.118562	-2.994100	3.794700	-11.361000	23.160174	0.001007	20.888093
375.120055	-2.994600	3.794800	-11.362000	23.164856	0.001009	20.870975
376.119314	-3.019200	3.793000	-11.451000	23.176188	0.001010	20.867157
377.121408	-3.007600	3.795100	-11.413000	23.186000	0.001010	20.882204
378.119623	-2.999100	3.794700	-11.380000	23.181642	0.001007	20.902492
379.123429	-3.001300	3.792900	-11.382000	23.203331	0.001011	20.881080
380.120735	-2.992400	3.793500	-11.351000	23.223902	0.001010	20.878935
381.122342	-2.994100	3.793200	-11.355000	23.224674	0.001010	20.888718
382.119660	-3.009600	3.791400	-11.410000	23.251966	0.001011	20.887619
383.119728	-3.021300	3.791900	-11.455000	23.235980	0.001010	20.886771
384.120948	-2.996400	3.791200	-11.358000	23.258813	0.001010	20.860817
385.118909	-3.011800	3.790200	-11.414000	23.262025	0.001010	20.892010
386.121291	-2.991200	3.791500	-11.340000	23.267579	0.001011	20.881455
387.119459	-3.012200	3.790600	-11.416000	23.251491	0.001011	20.883824
388.123541	-2.972900	3.790700	-11.268000	23.262100	0.001012	20.872646
389.120561	-3.004500	3.790500	-11.387000	23.267377	0.001012	20.862288
390.120554	-2.979100	3.790000	-11.290000	23.258189	0.001012	20.886269
391.123395	-2.986400	3.788100	-11.312000	23.242799	0.001011	20.871321
392.121764	-3.004000	3.789800	-11.384000	23.221857	0.001012	20.875464
393.133023	-2.992900	3.789000	-11.339000	23.230101	0.001012	20.879457
394.125990	-2.996900	3.790200	-11.358000	23.251388	0.001013	20.885144
395.124235	-2.999900	3.788800	-11.364000	23.264090	0.001014	20.875114
396.120731	-2.985800	3.790300	-11.316000	23.267227	0.001014	20.896748
397.124694	-3.000900	3.788000	-11.367000	23.287198	0.001015	20.884048
398.120179	-3.002600	3.787000	-11.369000	23.312695	0.001014	20.860764
399.120250	-2.983800	3.787400	-11.300000	23.309160	0.001016	20.874764
400.122247	-3.023900	3.787400	-11.452000	23.328830	0.001016	20.864607
401.122316	-3.004000	3.787900	-11.377000	23.320116	0.001017	20.871046
402.122075	-3.004100	3.787400	-11.377000	23.327758	0.001018	20.879179
403.120988	-2.999500	3.786200	-11.355000	23.337148	0.001019	20.869150
404.128751	-2.989900	3.787300	-11.322000	23.308586	0.001018	20.878456
405.123183	-3.006200	3.786500	-11.381000	23.325917	0.001018	20.853628
406.124481	-2.986500	3.786600	-11.307000	23.306495	0.001017	20.869723
407.122763	-3.025900	3.784500	-11.450000	23.316606	0.001018	20.869425
408.121744	-2.997100	3.785200	-11.343000	23.326940	0.001017	20.863186
409.122410	-3.001000	3.785500	-11.358000	23.333786	0.001018	20.871470
410.126191	-3.029400	3.783900	-11.462000	23.350272	0.001018	20.885147
411.125759	-3.011500	3.785700	-11.399000	23.323454	0.001020	20.843573
412.123740	-3.005500	3.784400	-11.373000	23.326119	0.001021	20.854778
413.126058	-3.004800	3.782700	-11.366000	23.325671	0.001020	20.838208
414.125474	-3.017800	3.783200	-11.416000	23.332244	0.001020	20.853805
415.125373	-2.992500	3.783500	-11.321000	23.327365	0.001019	20.846070
416.127479	-2.994300	3.783900	-11.329000	23.328958	0.001021	20.866631
417.128305	-3.020800	3.782700	-11.425000	23.354556	0.001021	20.848192
418.127859	-3.017100	3.783300	-11.413000	23.379482	0.001023	20.846622
419.128281	-2.983900	3.782400	-11.284000	23.383040	0.001023	20.862041
420.126634	-3.016600	3.781300	-11.406000	23.385830	0.001021	20.848717
421.128489	-3.007700	3.782000	-11.374000	23.365961	0.001022	20.837338
422.129292	-3.015100	3.781100	-11.399000	23.391208	0.001021	20.846995
423.128731	-2.998700	3.781200	-11.337000	23.370020	0.001023	20.859897
424.131225	-3.009100	3.780600	-11.375000	23.362552	0.001023	20.840559
425.130245	-3.023700	3.778800	-11.426000	23.377990	0.001024	20.830428
426.131253	-2.994000	3.780400	-11.317000	23.385956	0.001023	20.845050
427.136630	-2.982500	3.780500	-11.275000	23.386256	0.001023	20.851040
428.131499	-2.972700	3.781200	-11.239000	23.375325	0.001025	20.840085
429.135710	-2.977600	3.780000	-11.254000	23.366262	0.001026	20.833372
430.136719	-2.991800	3.781200	-11.311000	23.382147	0.001027	20.847396
431.133500	-2.985800	3.779600	-11.285000	23.389792	0.001025	20.833248
432.136084	-2.979100	3.779300	-11.258000	23.387776	0.001025	20.829805
433.135836	-3.005300	3.778100	-11.353000	23.355208	0.001026	20.837940
434.135880	-2.997000	3.779100	-11.324000	23.363250	0.001025	20.833672
435.137990	-2.995800	3.778600	-11.319000	23.391459	0.001027	20.836342
436.138700	-2.988100	3.778300	-11.289000	23.424923	0.001026	20.827209
437.135895	-3.013900	3.777200	-11.383000	23.423031	0.001028	20.834321
438.135811	-2.987900	3.778200	-11.288000	23.453329	0.001028	20.851413
439.139169	-3.021900	3.777600	-11.414000	23.457239	0.001025	20.818823
440.137626	-2.995500	3.777400	-11.315000	23.455696	0.001028	20.834346
441.136615	-3.008900	3.776200	-11.361000	23.469188	0.001027	20.844549
442.139040	-2.966300	3.778200	-11.206000	23.479421	0.001028	20.826832
443.138368	-3.013200	3.776400	-11.378000	23.458109	0.001027	20.824437
444.138263	-2.992700	3.776700	-11.302000	23.455072	0.001025	20.822815
445.138819	-3.002900	3.775200	-11.335000	23.482009	0.001028	20.832746
446.141367	-3.010600	3.775300	-11.365000	23.477527	0.001029	20.832046
447.145994	-3.001400	3.775100	-11.329000	23.471427	0.001029	20.820716
448.143406	-2.989500	3.775600	-11.286000	23.471849	0.001029	20.829200
449.143590	-2.989600	3.773700	-11.281000	23.496149	0.001032	20.803297
450.146154	-3.020800	3.772900	-11.396000	23.494755	0.001028	20.835090
451.143714	-3.022700	3.773200	-11.404000	23.491218	0.001030	20.818270
452.146896	-3.002200	3.773300	-11.326000	23.505186	0.001029	20.832744
453.142476	-3.026200	3.771600	-11.412000	23.522363	0.001030	20.822462
454.143433	-3.012300	3.772600	-11.363000	23.509266	0.001032	20.810756
455.146985	-3.028500	3.772500	-11.424000	23.556867	0.001028	20.821962
456.145555	-3.025900	3.771300	-11.410000	23.555173	0.001030	20.813626
457.147169	-3.002100	3.771100	-11.321000	23.545713	0.001030	20.806040
458.144541	-2.999400	3.772200	-11.313000	23.535456	0.001033	20.844594
459.144570	-3.003000	3.771900	-11.326000	23.555223	0.001032	20.828848
460.144178	-2.999900	3.771600	-11.313000	23.535431	0.001031	20.815647
461.145395	-2.995600	3.771200	-11.294000	23.532070	0.001033	20.816545
462.147157	-3.013200	3.770700	-11.361000	23.534508	0.001030	20.817567
463.155396	-2.998200	3.770000	-11.302000	23.516534	0.001031	20.833688
464.145730	-3.000400	3.770800	-11.313000	23.522034	0.001033	20.815969
465.148633	-3.009700	3.769800	-11.344000	23.518351	0.001032	20.829820
466.154203	-3.014400	3.769200	-11.362000	23.523129	0.001033	20.810428
467.146087	-3.006300	3.768400	-11.328000	23.541302	0.001034	20.839076
468.149051	-2.995900	3.769600	-11.292000	23.560274	0.001032	20.812575
469.148719	-2.996200	3.768300	-11.289000	23.546431	0.001035	20.818139
470.149447	-3.027300	3.767200	-11.404000	23.548819	0.001032	20.807257
471.149487	-2.993900	3.768500	-11.281000	23.559624	0.001034	20.818562
472.147878	-2.981300	3.769900	-11.238000	23.528854	0.001035	20.812373
473.151134	-2.994600	3.767800	-11.282000	23.539758	0.001033	20.822355
474.147876	-2.974200	3.768600	-11.207000	23.545634	0.001035	20.806908
475.152692	-3.008500	3.767000	-11.331000	23.567488	0.001034	20.818858
476.156416	-2.997000	3.766700	-11.287000	23.553996	0.001035	20.805808
477.150267	-3.009500	3.765000	-11.330000	23.522926	0.001034	20.802164
478.152455	-3.011500	3.765100	-11.337000	23.503957	0.001034	20.794529
479.149875	-3.021200	3.764400	-11.372000	23.533407	0.001033	20.808876
480.150928	-2.993500	3.766200	-11.272000	23.503059	0.001034	20.818759
481.152161	-3.006300	3.764300	-11.315000	23.510952	0.001033	20.811972
482.151530	-3.011300	3.764000	-11.334000	23.542693	0.001037	20.811547
483.149585	-2.982600	3.763800	-11.225000	23.545604	0.001037	20.811146
484.153320	-2.971700	3.764900	-11.186000	23.547872	0.001037	20.819583
485.150728	-2.974200	3.764800	-11.197000	23.562607	0.001037	20.809225
486.150806	-2.985300	3.762600	-11.231000	23.556907	0.001036	20.815364
487.154941	-2.985800	3.762800	-11.233000	23.605177	0.001036	20.808276
488.154350	-3.001000	3.762700	-11.290000	23.636294	0.001036	20.805332
489.153019	-3.004100	3.762000	-11.301000	23.631215	0.001036	20.811620
490.153312	-3.009900	3.760900	-11.319000	23.662156	0.001034	20.814664
491.156198	-2.997600	3.761500	-11.275000	23.668205	0.001037	20.798443
492.155221	-3.003800	3.761400	-11.298000	23.672586	0.001037	20.804258
493.157034	-2.968300	3.761500	-11.164000	23.657451	0.001036	20.797620
494.163909	-2.982300	3.761400	-11.216000	23.666687	0.001037	20.781274
495.158507	-2.987200	3.760600	-11.233000	23.691204	0.001036	20.789259
496.155674	-2.979800	3.760800	-11.204000	23.676864	0.001037	20.785787
497.154731	-2.975900	3.759600	-11.187000	23.678458	0.001036	20.807774
498.156441	-3.008400	3.758100	-11.305000	23.671762	0.001038	20.806277
499.157953	-3.003500	3.759400	-11.290000	23.653864	0.001038	20.816309
500.159466	-3.004300	3.759500	-11.293000	23.665764	0.001038	20.811169
501.156511	-2.991900	3.758300	-11.244000	23.675022	0.001037	20.807174
502.157149	-3.022500	3.758400	-11.359000	23.687891	0.001036	20.804429
503.160220	-3.005100	3.759300	-11.295000	23.695656	0.001038	20.806050
504.157653	-2.988300	3.758900	-11.231000	23.691449	0.001036	20.806100
505.160280	-3.004000	3.756700	-11.283000	23.741504	0.001037	20.791799
506.158826	-2.987900	3.757900	-11.227000	23.738293	0.001038	20.796640
507.157523	-2.999600	3.757200	-11.268000	23.754147	0.001038	20.790251
508.157104	-2.997900	3.757000	-11.262000	23.751634	0.001038	20.795317
509.158667	-3.018900	3.754700	-11.333000	23.742723	0.001038	20.788279
510.163379	-3.017000	3.754300	-11.324000	23.705062	0.001039	20.807420
511.164120	-3.004300	3.755800	-11.283000	23.687463	0.001038	20.788352
512.159191	-2.997000	3.755100	-11.253000	23.663020	0.001037	20.810314
513.159267	-2.988200	3.755200	-11.219000	23.655400	0.001037	20.797933
514.160500	-3.006000	3.754800	-11.286000	23.662047	0.001039	20.797486
515.163436	-2.993000	3.755200	-11.237000	23.661922	0.001039	20.792618
516.164268	-3.012600	3.753600	-11.307000	23.691916	0.001038	20.807990
517.162160	-3.020700	3.751700	-11.332000	23.696247	0.001039	20.799056
518.161704	-3.000700	3.753900	-11.264000	23.725445	0.001038	20.796087
519.163990	-3.037300	3.751800	-11.393000	23.739532	0.001038	20.801201
520.163519	-2.988700	3.753000	-11.215000	23.756332	0.001037	20.806666
521.162555	-2.974300	3.751800	-11.158000	23.761111	0.001039	20.803396
522.162382	-3.010600	3.752400	-11.295000	23.774824	0.001039	20.816671
523.163733	-3.009700	3.751800	-11.290000	23.771164	0.001039	20.792139
524.162470	-2.966300	3.751900	-11.128000	23.775596	0.001037	20.802746
525.162939	-3.007900	3.751600	-11.283000	23.748415	0.001038	20.796357
526.163974	-3.000200	3.751600	-11.255000	23.731911	0.001036	20.789767
527.163161	-3.015100	3.751500	-11.311000	23.763423	0.001038	20.791015
528.165165	-3.012900	3.749900	-11.297000	23.768750	0.001040	20.818168
529.164549	-3.002100	3.750900	-11.258000	23.785749	0.001039	20.802969
530.167004	-3.014500	3.749800	-11.303000	23.785226	0.001037	20.805290
531.167673	-3.034800	3.748400	-11.373000	23.797821	0.001038	20.804167
532.164084	-2.993900	3.748900	-11.223000	23.811211	0.001036	20.800049
533.165852	-2.985500	3.749300	-11.192000	23.846799	0.001039	20.818190
534.165973	-2.999200	3.749500	-11.244000	23.869848	0.001038	20.801946
535.167902	-2.993000	3.749400	-11.220000	23.895706	0.001039	20.799900
536.168279	-2.982800	3.749400	-11.182000	23.892719	0.001039	20.817767
537.174431	-2.995600	3.748900	-11.230000	23.877662	0.001039	20.797927
538.168812	-2.993600	3.747300	-11.217000	23.842246	0.001038	20.792287
539.169750	-2.988800	3.747800	-11.200000	23.822459	0.001039	20.833138
540.170779	-2.972100	3.748000	-11.137000	23.809767	0.001042	20.815671
541.168654	-3.009600	3.746000	-11.273000	23.788735	0.001039	20.799799
542.169566	-3.002200	3.746100	-11.246000	23.827787	0.001039	20.801022
543.169125	-3.007400	3.745600	-11.264000	23.861933	0.001040	20.802070
544.168391	-2.991200	3.745300	-11.202000	23.870769	0.001040	20.819939
545.170320	-2.993200	3.744800	-11.208000	23.875423	0.001039	20.822235
546.171012	-2.984500	3.745100	-11.177000	23.890779	0.001042	20.812503
547.174756	-2.981600	3.745800	-11.168000	23.920842	0.001040	20.818941
548.176016	-2.992800	3.743700	-11.203000	23.905436	0.001038	20.789742
549.170263	-3.000100	3.743600	-11.230000	23.917034	0.001040	20.798053
550.172357	-3.015500	3.742700	-11.284000	23.890654	0.001038	20.797678
551.176975	-3.007600	3.742900	-11.256000	23.867558	0.001038	20.803443
552.171603	-2.992800	3.743400	-11.201000	23.862158	0.001040	20.814624
553.173228	-2.998100	3.741800	-11.216000	23.847970	0.001039	20.796130
554.174700	-2.996000	3.742800	-11.212000	23.823630	0.001041	20.804441
555.174624	-2.997300	3.741000	-11.212000	23.831320	0.001040	20.812152
556.176736	-3.006300	3.741700	-11.247000	23.834257	0.001041	20.819838
557.178623	-3.008200	3.741200	-11.254000	23.842545	0.001038	20.801596
558.174368	-2.990100	3.741900	-11.188000	23.866412	0.001040	20.820786
559.184494	-3.016800	3.740800	-11.283000	23.879603	0.001039	20.816943
560.174679	-3.004100	3.738600	-11.230000	23.908769	0.001040	20.811577
561.173194	-3.012000	3.739600	-11.262000	23.935621	0.001039	20.814795
562.176961	-3.019600	3.740000	-11.292000	23.952572	0.001040	20.802869
563.177217	-3.001100	3.740400	-11.223000	23.916112	0.001040	20.824155
564.175927	-3.015600	3.740300	-11.278000	23.940052	0.001037	20.828246
565.174272	-2.983000	3.740200	-11.155000	23.938833	0.001037	20.811852
566.179132	-2.973400	3.739000	-11.116000	23.943338	0.001039	20.816369
567.176271	-2.978300	3.738900	-11.135000	23.940999	0.001040	20.828722
568.179007	-2.999100	3.737100	-11.207000	23.942118	0.001039	20.811353
569.176786	-3.001200	3.738000	-11.217000	23.959887	0.001038	20.806412
570.178583	-2.999100	3.737200	-11.208000	23.982235	0.001036	20.840676
571.178958	-2.986900	3.737700	-11.163000	23.963795	0.001036	20.820763
572.177591	-3.007500	3.737300	-11.239000	23.991394	0.001037	20.824731
573.181254	-3.001400	3.737700	-11.217000	23.979774	0.001036	20.831096
574.181006	-2.999200	3.736500	-11.206000	24.016329	0.001038	20.823185
575.179724	-2.993900	3.736800	-11.187000	24.038179	0.001036	20.810484
576.181922	-3.001100	3.735700	-11.210000	24.038926	0.001037	20.805069
577.186077	-3.005700	3.735400	-11.227000	24.055971	0.001036	20.822637
578.182791	-3.012200	3.735000	-11.250000	24.079063	0.001038	20.803597
579.183342	-3.025600	3.735400	-11.302000	24.054529	0.001036	20.833519
580.182622	-3.011000	3.734400	-11.244000	24.056796	0.001036	20.828206
581.182941	-3.001400	3.733400	-11.204000	24.078868	0.001036	20.825686
582.184665	-2.977200	3.733800	-11.113000	24.103402	0.001036	20.828955
583.182601	-3.013700	3.732100	-11.245000	24.103353	0.001037	20.810414
584.183789	-3.012100	3.731900	-11.240000	24.106663	0.001036	20.816579
585.186548	-3.000500	3.733300	-11.200000	24.108779	0.001036	20.808744
586.183219	-3.000000	3.731400	-11.193000	24.120226	0.001036	20.833501
587.183763	-2.993300	3.732800	-11.172000	24.127567	0.001035	20.842760
588.186508	-3.005800	3.731600	-11.214000	24.112315	0.001036	20.827937
589.187261	-3.006800	3.732200	-11.221000	24.129908	0.001034	20.834202
590.189091	-3.003900	3.729900	-11.203000	24.128167	0.001036	20.843361
591.186356	-2.995000	3.729900	-11.169000	24.142599	0.001035	20.831758
592.185179	-3.010100	3.730400	-11.228000	24.131828	0.001037	20.826645
593.185514	-2.992500	3.731200	-11.165000	24.101920	0.001036	20.829366
594.185094	-2.979300	3.730900	-11.115000	24.066039	0.001038	20.834157
595.189856	-3.007500	3.729400	-11.215000	24.075197	0.001036	20.827220
596.187088	-2.990000	3.729900	-11.151000	24.068801	0.001036	20.829341
597.186561	-3.007600	3.728300	-11.213000	24.071640	0.001035	20.827446
598.189289	-3.003500	3.729100	-11.198000	24.072261	0.001036	20.834233
599.186886	-3.027700	3.728700	-11.287000	24.096050	0.001036	20.822056
600.194989	-2.993300	3.729600	-11.162000	24.099510	0.001035	20.828371
601.190197	-3.010200	3.727000	-11.218000	24.083958	0.001035	20.830791
602.187921	-3.034800	3.727400	-11.311000	24.137407	0.001037	20.843145
603.190778	-3.010000	3.727400	-11.217000	24.126982	0.001036	20.830793
604.190140	-2.976400	3.728800	-11.097000	24.145768	0.001037	20.834462
605.191267	-3.018300	3.725500	-11.244000	24.134597	0.001035	20.812353
606.193985	-2.979900	3.727800	-11.108000	24.163684	0.001036	20.817819
607.188835	-2.996000	3.727600	-11.167000	24.143381	0.001036	20.828275
608.191900	-3.004700	3.725700	-11.194000	24.167691	0.001035	20.824208
609.191232	-3.010600	3.725200	-11.214000	24.171076	0.001036	20.837560
610.189311	-3.010700	3.726000	-11.217000	24.175431	0.001035	20.841928
611.191916	-3.025400	3.724000	-11.265000	24.146543	0.001035	20.823386
612.192443	-3.029400	3.722800	-11.276000	24.132760	0.001035	20.847968
613.191009	-3.011500	3.725200	-11.217000	24.120793	0.001036	20.826957
614.190396	-3.021100	3.723100	-11.246000	24.152044	0.001036	20.837437
615.191808	-3.007400	3.722900	-11.196000	24.155826	0.001036	20.830325
616.191060	-3.017600	3.722900	-11.232000	24.139255	0.001038	20.842154
617.192320	-3.001300	3.723600	-11.175000	24.154832	0.001035	20.853510
618.191341	-3.033500	3.722200	-11.290000	24.137814	0.001036	20.835019
619.193892	-2.999200	3.722200	-11.163000	24.116416	0.001035	20.839636
620.192838	-2.975800	3.722800	-11.076000	24.126891	0.001035	20.834969
621.191932	-3.006200	3.721800	-11.187000	24.083722	0.001034	20.835770
622.191895	-3.018300	3.720700	-11.229000	24.061923	0.001036	20.846149
623.191733	-3.016000	3.721100	-11.222000	24.082401	0.001035	20.841557
624.197826	-2.996600	3.720700	-11.148000	24.047838	0.001034	20.843404
625.191875	-3.040800	3.720100	-11.311000	24.071104	0.001033	20.848245
626.193361	-3.013300	3.719700	-11.208000	24.039080	0.001033	20.849793
627.192190	-3.014600	3.720800	-11.216000	24.053237	0.001036	20.836965
628.197337	-3.007800	3.719500	-11.186000	24.077301	0.001033	20.862520
629.197062	-3.013300	3.719300	-11.206000	24.091384	0.001034	20.860522
630.191658	-3.008000	3.720600	-11.190000	24.127289	0.001035	20.831101
631.196459	-2.994100	3.718900	-11.134000	24.149583	0.001033	20.847296
632.193413	-3.009200	3.719000	-11.189000	24.169687	0.001034	20.837590
633.191310	-2.987800	3.718500	-11.108000	24.194689	0.001034	20.850338
634.198530	-2.989100	3.719000	-11.115000	24.223451	0.001034	20.860695
635.193484	-2.990500	3.717900	-11.117000	24.220864	0.001036	20.826807
636.193175	-2.999100	3.717100	-11.147000	24.221909	0.001032	20.851088
637.198489	-3.012200	3.716100	-11.193000	24.244921	0.001034	20.850937
638.195694	-3.018400	3.716600	-11.217000	24.272462	0.001035	20.851061
639.197042	-2.995800	3.717500	-11.135000	24.233576	0.001034	20.839558
640.197340	-2.977300	3.716800	-11.065000	24.239545	0.001033	20.860242
641.194510	-2.987200	3.716600	-11.100000	24.241164	0.001034	20.881780
642.193985	-2.997600	3.715400	-11.135000	24.223274	0.001035	20.855302
643.196346	-2.999900	3.715500	-11.145000	24.253802	0.001034	20.839931
644.197287	-3.007500	3.714600	-11.171000	24.243999	0.001033	20.867081
645.195072	-3.010300	3.715200	-11.183000	24.241437	0.001034	20.848391
646.195505	-3.015300	3.713100	-11.195000	24.240168	0.001034	20.874143
647.197546	-3.009600	3.714300	-11.177000	24.256488	0.001034	20.854952
648.196579	-3.012100	3.714200	-11.186000	24.214714	0.001033	20.871371
649.195573	-3.016400	3.713600	-11.200000	24.225787	0.001032	20.861141
650.194955	-2.987600	3.714900	-11.098000	24.222602	0.001032	20.860791
651.194874	-3.009600	3.713400	-11.173000	24.235613	0.001031	20.861040
652.197579	-2.999100	3.713000	-11.135000	24.257331	0.001033	20.879030
653.197467	-3.009100	3.712200	-11.169000	24.277260	0.001031	20.858719
654.197754	-2.991100	3.713200	-11.105000	24.278628	0.001034	20.884272
655.197837	-2.990100	3.712400	-11.100000	24.292236	0.001032	20.872792
656.198173	-3.026000	3.711500	-11.230000	24.291938	0.001031	20.866804
657.201978	-3.008200	3.711900	-11.165000	24.288753	0.001035	20.870247
658.198507	-2.998000	3.711900	-11.127000	24.283031	0.001029	20.865456
659.199680	-3.006400	3.710400	-11.154000	24.264122	0.001030	20.875411
660.207504	-2.998900	3.710800	-11.128000	24.271637	0.001032	20.872518
661.202640	-3.007200	3.710000	-11.156000	24.236705	0.001032	20.868299
662.201431	-2.994100	3.711200	-11.110000	24.218269	0.001030	20.850282
663.207214	-2.980300	3.711100	-11.059000	24.237899	0.001030	20.885142
664.205829	-3.008000	3.709700	-11.158000	24.220980	0.001031	20.866751
665.203659	-2.976200	3.709100	-11.038000	24.241156	0.001030	20.891254
666.206976	-2.996600	3.709200	-11.114000	24.269742	0.001031	20.871565
667.204941	-2.994500	3.708400	-11.104000	24.293252	0.001030	20.852950
668.204195	-3.023400	3.708100	-11.210000	24.309026	0.001030	20.887262
669.204269	-3.003000	3.706900	-11.131000	24.331988	0.001029	20.874262
670.204423	-3.033800	3.706600	-11.243000	24.318279	0.001029	20.895596
671.204086	-3.014300	3.707900	-11.176000	24.344177	0.001028	20.874161
672.204712	-3.017600	3.706800	-11.184000	24.355422	0.001028	20.868846
673.208618	-3.017900	3.707300	-11.187000	24.360147	0.001029	20.883068
674.206111	-3.019200	3.707000	-11.191000	24.353131	0.001028	20.899737
675.208679	-2.992600	3.706700	-11.091000	24.355742	0.001028	20.890977
676.207801	-2.992100	3.707700	-11.092000	24.349001	0.001027	20.891801
677.208312	-3.007600	3.706000	-11.145000	24.361313	0.001029	20.880920
678.208739	-3.038700	3.705300	-11.258000	24.364399	0.001030	20.884963
679.208683	-3.001000	3.704800	-11.117000	24.394400	0.001029	20.867646
680.210258	-3.005200	3.706000	-11.137000	24.375592	0.001028	20.872485
681.214635	-2.998700	3.703900	-11.106000	24.391513	0.001030	20.897464
682.210313	-2.999000	3.705200	-11.111000	24.388603	0.001026	20.895019
683.210143	-3.013100	3.703400	-11.157000	24.398279	0.001028	20.903777
684.209601	-2.996600	3.704900	-11.101000	24.391115	0.001027	20.907021
685.209455	-2.980000	3.703900	-11.036000	24.431314	0.001026	20.901831
686.211774	-2.979600	3.703800	-11.036000	24.427184	0.001029	20.887258
687.210352	-2.995500	3.703000	-11.091000	24.384572	0.001026	20.905199
688.210517	-2.995700	3.703300	-11.093000	24.358129	0.001029	20.889578
689.211695	-2.991400	3.703400	-11.078000	24.325315	0.001025	20.893645
690.209956	-2.995300	3.702300	-11.089000	24.310537	0.001026	20.903475
691.209369	-3.019300	3.701100	-11.174000	24.311383	0.001026	20.912858
692.208803	-3.028000	3.700400	-11.203000	24.295834	0.001026	20.902003
693.212127	-3.016900	3.700400	-11.162000	24.274413	0.001028	20.905171
694.209891	-3.000900	3.700700	-11.105000	24.276179	0.001028	20.903624
695.210242	-2.995400	3.700400	-11.083000	24.280434	0.001026	20.883238
696.208787	-2.988100	3.700400	-11.056000	24.290334	0.001026	20.902176
697.210046	-3.008800	3.699300	-11.128000	24.289439	0.001026	20.911235
698.209380	-3.042400	3.698400	-11.250000	24.302126	0.001026	20.900728
699.213822	-3.000400	3.699200	-11.098000	24.332078	0.001027	20.917022
700.210169	-3.017000	3.697600	-11.155000	24.332800	0.001025	20.909213
701.210927	-2.993000	3.699100	-11.070000	24.389767	0.001025	20.898083
702.214755	-2.994100	3.698900	-11.073000	24.390487	0.001024	20.909710
703.211089	-3.004300	3.698900	-11.111000	24.392998	0.001025	20.916495
704.211696	-2.997300	3.697900	-11.083000	24.409790	0.001024	20.912004
705.215904	-2.995600	3.698100	-11.076000	24.448071	0.001025	20.915796
706.215643	-3.003000	3.697100	-11.102000	24.472075	0.001023	20.916644
707.217703	-2.988700	3.697600	-11.050000	24.467572	0.001024	20.929195
708.216779	-2.999700	3.696700	-11.088000	24.481304	0.001021	20.901723
709.220487	-3.022700	3.695800	-11.170000	24.500530	0.001022	20.916270
710.214917	-2.999300	3.696800	-11.087000	24.489609	0.001021	20.910055
711.215374	-3.003700	3.697100	-11.104000	24.505378	0.001022	20.905962
712.219370	-3.003700	3.692900	-11.091000	24.500353	0.001023	20.908981
713.215778	-3.009500	3.695500	-11.120000	24.490404	0.001020	20.927920
714.220741	-2.992200	3.696100	-11.058000	24.481325	0.001022	20.904116
715.217927	-3.000300	3.694500	-11.083000	24.471401	0.001022	20.929243
716.218987	-2.983000	3.694900	-11.020000	24.501373	0.001020	20.930864
717.220317	-3.006500	3.693700	-11.105000	24.500352	0.001021	20.898549
718.219826	-3.005000	3.694600	-11.101000	24.526493	0.001021	20.919085
719.215827	-3.009000	3.692800	-11.110000	24.511570	0.001020	20.913596
720.221272	-3.016300	3.692700	-11.138000	24.540522	0.001018	20.915617
721.218377	-2.996500	3.692400	-11.063000	24.542463	0.001020	20.927521
722.218487	-3.007700	3.692000	-11.103000	24.536741	0.001018	20.933633
723.221623	-3.019900	3.691400	-11.146000	24.554302	0.001019	20.920434
724.220520	-3.003500	3.692400	-11.089000	24.526443	0.001021	20.946533
725.218229	-3.014600	3.692300	-11.130000	24.538732	0.001020	20.933734
726.218840	-3.001100	3.692500	-11.081000	24.550274	0.001019	20.922556
727.219859	-2.993700	3.691700	-11.051000	24.518760	0.001018	20.920335
728.222023	-2.996200	3.691700	-11.060000	24.525252	0.001018	20.932537
729.221928	-3.009700	3.691200	-11.108000	24.515329	0.001019	20.914523
730.219703	-2.983100	3.691700	-11.010000	24.559378	0.001017	20.937853
731.220335	-3.003300	3.689700	-11.079000	24.577957	0.001018	20.925676
732.221271	-3.010200	3.689400	-11.105000	24.599471	0.001017	20.951527
733.221033	-3.001600	3.690500	-11.076000	24.616087	0.001016	20.941647
734.225233	-3.035300	3.689300	-11.197000	24.621134	0.001016	20.922533
735.221882	-2.997600	3.689900	-11.059000	24.615090	0.001014	20.926899
736.222398	-2.990000	3.690200	-11.032000	24.625412	0.001015	20.953374
737.226867	-3.011600	3.687800	-11.105000	24.615067	0.001017	20.937306
738.222399	-3.003200	3.688400	-11.075000	24.614421	0.001014	20.926702
739.225994	-2.992800	3.688100	-11.036000	24.581417	0.001015	20.940051
740.222086	-3.021600	3.687400	-11.140000	24.595096	0.001018	20.938130
741.222714	-3.029000	3.686600	-11.165000	24.550153	0.001014	20.938080
742.222223	-3.001300	3.686500	-11.063000	24.552194	0.001013	20.946765
743.227267	-2.998400	3.687400	-11.055000	24.522970	0.001015	20.938781
744.225348	-3.003900	3.687200	-11.074000	24.526998	0.001015	20.948512
745.224374	-2.994000	3.686000	-11.035000	24.488693	0.001014	20.948961
746.227612	-3.005500	3.685900	-11.078000	24.480112	0.001012	20.933241
747.230938	-3.009600	3.685600	-11.092000	24.470187	0.001013	20.949360
748.225955	-3.017500	3.685400	-11.120000	24.503370	0.001012	20.947565
749.228099	-3.023300	3.686000	-11.144000	24.502324	0.001012	20.932293
750.226239	-2.984100	3.684800	-10.995000	24.516925	0.001013	20.938881
751.227227	-3.014300	3.685400	-11.108000	24.512497	0.001011	20.962884
752.232403	-3.002100	3.683900	-11.058000	24.510507	0.001013	20.943820
753.228883	-3.038100	3.684100	-11.192000	24.504886	0.001010	20.942448
754.226016	-3.000000	3.682800	-11.048000	24.525531	0.001012	20.946091
755.228199	-3.020300	3.682500	-11.121000	24.524910	0.001012	20.963484
756.229368	-3.002600	3.682000	-11.054000	24.529759	0.001009	20.954126
757.228753	-3.018500	3.681600	-11.111000	24.528616	0.001010	20.963883
758.229953	-3.008300	3.682100	-11.076000	24.528218	0.001012	20.947365
759.231422	-3.000000	3.682500	-11.046000	24.549634	0.001011	20.987338
760.230268	-3.008200	3.683000	-11.078000	24.589080	0.001010	20.934939
761.228308	-3.004700	3.680400	-11.058000	24.592464	0.001011	20.961090
762.227398	-2.995200	3.680800	-11.024000	24.611488	0.001009	20.943671
763.226636	-3.006100	3.681000	-11.064000	24.649119	0.001008	20.952507
764.230224	-2.982200	3.682200	-10.980000	24.627482	0.001010	20.946443
765.229183	-3.023100	3.680700	-11.125000	24.623427	0.001011	20.968924
766.228129	-3.000800	3.680600	-11.044000	24.654517	0.001011	20.926158
767.229159	-3.002800	3.680800	-11.052000	24.639419	0.001010	20.944671
768.228854	-3.011700	3.679700	-11.081000	24.626986	0.001007	20.961116
769.229018	-3.003300	3.679500	-11.049000	24.650661	0.001008	20.947890
770.228992	-3.024200	3.678900	-11.125000	24.647702	0.001007	20.946343
771.229211	-3.008400	3.677600	-11.063000	24.634172	0.001008	20.943673
772.229775	-3.000500	3.678500	-11.037000	24.654940	0.001007	20.956450
773.232149	-2.994900	3.678900	-11.016000	24.668394	0.001007	20.931073
774.230364	-3.012600	3.679400	-11.084000	24.673392	0.001007	20.937036
775.234499	-2.993000	3.678600	-11.008000	24.639618	0.001006	20.950559
776.234793	-3.024000	3.677400	-11.118000	24.641409	0.001007	20.947615
777.231907	-3.025100	3.676500	-11.120000	24.653124	0.001006	20.920493
778.237180	-3.008200	3.677000	-11.060000	24.625542	0.001006	20.944971
779.236634	-3.006300	3.678200	-11.057000	24.625567	0.001005	20.930299
780.232284	-3.011800	3.678000	-11.075000	24.619323	0.001005	20.935413
781.234467	-3.011300	3.676200	-11.070000	24.625740	0.001006	20.930473
782.234818	-3.008900	3.676400	-11.061000	24.641161	0.001007	20.937410
783.231889	-3.037800	3.674400	-11.159000	24.671477	0.001005	20.936537
784.233165	-2.994800	3.674600	-11.003000	24.665633	0.001007	20.943000
785.231922	-3.001900	3.676500	-11.035000	24.670532	0.001006	20.927055
786.232471	-2.995600	3.675700	-11.010000	24.672298	0.001004	20.929775
787.233740	-2.998000	3.674300	-11.014000	24.693239	0.001005	20.918547
788.231825	-3.006800	3.675200	-11.050000	24.690328	0.001005	20.933642
789.232275	-3.011800	3.674700	-11.066000	24.725815	0.001004	20.946018
790.233286	-2.998800	3.673600	-11.016000	24.702739	0.001004	20.931398
791.231227	-3.032900	3.672700	-11.137000	24.726760	0.001003	20.919943
792.232247	-2.989800	3.674500	-10.985000	24.737380	0.001002	20.926332
793.232477	-2.995800	3.674200	-11.006000	24.768438	0.001002	20.922887
794.231574	-3.000600	3.673900	-11.023000	24.762422	0.001003	20.928228
795.234805	-3.002700	3.673000	-11.028000	24.765453	0.001001	20.938856
796.234591	-3.007700	3.673500	-11.048000	24.721018	0.001001	20.888105
797.238042	-2.992200	3.672000	-10.986000	24.709676	0.001002	20.929825
798.237015	-2.990400	3.672800	-10.982000	24.704877	0.001001	20.914579
799.234896	-2.982500	3.672000	-10.951000	24.688165	0.001001	20.905397
800.237050	-3.015000	3.670700	-11.066000	24.718429	0.001002	20.912531
801.234529	-2.997300	3.670600	-11.000000	24.702440	0.000999	20.912134
802.235049	-2.997800	3.670900	-11.004000	24.707612	0.000998	20.904997
803.240714	-3.004300	3.670600	-11.027000	24.710520	0.000999	20.917397
804.235538	-3.008900	3.668800	-11.039000	24.730466	0.001001	20.916076
805.235104	-3.010900	3.670900	-11.052000	24.749116	0.000999	20.912507
806.234931	-2.981300	3.670600	-10.942000	24.754788	0.001000	20.918197
807.236569	-2.980800	3.668300	-10.932000	24.773837	0.000998	20.910763
808.234612	-2.996700	3.669900	-10.997000	24.772991	0.001000	20.904225
809.239353	-3.007900	3.668200	-11.032000	24.800144	0.000998	20.905395
810.239066	-3.003200	3.669000	-11.018000	24.794723	0.000997	20.903275
811.242458	-3.027000	3.666800	-11.098000	24.819614	0.000997	20.911184
812.238363	-3.000400	3.668200	-11.005000	24.798427	0.000996	20.906517
813.242862	-2.994600	3.668600	-10.985000	24.769606	0.000999	20.920740
814.237623	-2.998700	3.666100	-10.993000	24.769208	0.000996	20.905170
815.239604	-2.995800	3.668300	-10.989000	24.746977	0.000998	20.899455
816.242974	-2.999900	3.666800	-10.999000	24.741480	0.000996	20.923335
817.242691	-3.009700	3.666900	-11.036000	24.749288	0.000997	20.896085
818.243859	-3.006500	3.666600	-11.023000	24.741505	0.000994	20.908662
819.243995	-3.021000	3.664700	-11.071000	24.743121	0.000994	20.907439
820.242599	-2.985800	3.667600	-10.950000	24.748145	0.000995	20.890197
821.244841	-3.002200	3.665700	-11.004000	24.717456	0.000994	20.891168
822.246735	-2.992400	3.665700	-10.968000	24.731183	0.000996	20.892142
823.247822	-2.956500	3.666300	-10.838000	24.748120	0.000996	20.903447
824.245157	-3.001100	3.664600	-10.996000	24.727106	0.000995	20.906541
825.252427	-2.998200	3.664800	-10.987000	24.771146	0.000995	20.893839
826.245577	-2.984200	3.664600	-10.935000	24.796361	0.000995	20.900651
827.247916	-2.996800	3.663500	-10.978000	24.800017	0.000993	20.908586
828.247162	-2.994200	3.664200	-10.971000	24.821601	0.000992	20.887576
829.246596	-2.996700	3.664400	-10.980000	24.818069	0.000993	20.902522
830.246250	-3.005200	3.664000	-11.010000	24.823714	0.000992	20.888274
831.249715	-2.989700	3.664200	-10.954000	24.846269	0.000992	20.895737
832.245529	-3.008300	3.662400	-11.017000	24.880060	0.000992	20.901675
833.246188	-2.987600	3.661700	-10.937000	24.856164	0.000992	20.893814
834.247382	-3.005600	3.661900	-11.005000	24.857159	0.000991	20.896234
835.247063	-3.005200	3.661200	-11.001000	24.814640	0.000992	20.895762
836.248894	-3.004400	3.662700	-11.003000	24.817897	0.000990	20.874851
837.248343	-2.991900	3.662300	-10.956000	24.785248	0.000993	20.900878
838.249720	-2.996800	3.660700	-10.969000	24.802655	0.000991	20.896062
839.251532	-2.985600	3.660900	-10.929000	24.793478	0.000993	20.868363
840.251161	-3.005700	3.659200	-10.997000	24.817251	0.000989	20.874677
841.252929	-2.984800	3.660100	-10.924000	24.824687	0.000987	20.889250
842.253450	-3.004200	3.659900	-10.994000	24.841373	0.000989	20.893194
843.250131	-3.007700	3.659300	-11.005000	24.834635	0.000989	20.895914
844.252614	-2.994600	3.660300	-10.960000	24.844208	0.000987	20.891772
845.251116	-2.995400	3.659500	-10.960000	24.844009	0.000987	20.870711
846.251814	-2.997400	3.659200	-10.967000	24.845552	0.000987	20.895017
847.254705	-3.008700	3.659600	-11.010000	24.877131	0.000989	20.879771
848.254023	-3.012400	3.658400	-11.019000	24.872805	0.000985	20.890127
849.252956	-3.007100	3.659000	-11.002000	24.910450	0.000985	20.885711
850.252416	-2.984300	3.659100	-10.919000	24.905004	0.000985	20.891624
851.253025	-2.996600	3.657400	-10.958000	24.908835	0.000986	20.893098
852.253163	-3.018100	3.655800	-11.033000	24.933128	0.000984	20.898514
853.254350	-2.984600	3.658200	-10.917000	24.901428	0.000985	20.875234
854.254521	-3.009700	3.655000	-10.998000	24.910156	0.000985	20.878778
855.254164	-2.997700	3.657100	-10.961000	24.867388	0.000985	20.859563
856.255141	-3.022800	3.654900	-11.047000	24.903293	0.000988	20.884217
857.254744	-3.023000	3.655300	-11.048000	24.893223	0.000985	20.871267
858.253993	-3.002900	3.654600	-10.974000	24.916372	0.000986	20.877430
859.254206	-2.992600	3.654200	-10.935000	24.908118	0.000985	20.893800
860.255073	-3.009900	3.655600	-11.002000	24.939398	0.000985	20.881575
861.255391	-2.975500	3.656000	-10.877000	24.944345	0.000983	20.881798
862.254551	-2.993500	3.655100	-10.940000	24.941386	0.000982	20.869347
863.266369	-3.004100	3.653300	-10.974000	24.885765	0.000983	20.872316
864.257886	-2.981400	3.653900	-10.893000	24.890465	0.000985	20.839576
865.257737	-2.996700	3.654000	-10.949000	24.904563	0.000982	20.862260
866.259122	-2.969200	3.655300	-10.852000	24.908940	0.000983	20.879454
867.258531	-3.020800	3.653400	-11.036000	24.931416	0.000981	20.863133
868.258728	-3.005900	3.652300	-10.978000	24.932285	0.000981	20.844092
869.259631	-2.991300	3.653200	-10.927000	24.941983	0.000981	20.854299
870.259527	-3.020500	3.652600	-11.031000	24.937805	0.000981	20.867175
871.264264	-2.971900	3.653300	-10.857000	24.922614	0.000981	20.854773
872.261801	-3.012400	3.652100	-11.000000	24.914087	0.000981	20.857121
873.263241	-2.998800	3.651700	-10.950000	24.905334	0.000980	20.853551
874.262090	-2.983800	3.652500	-10.898000	24.874998	0.000981	20.872415
875.262375	-2.974100	3.651800	-10.860000	24.911998	0.000978	20.871144
876.263691	-3.000500	3.650100	-10.951000	24.933780	0.000979	20.864557
877.262520	-2.978600	3.652100	-10.877000	24.949718	0.000978	20.895725
878.262187	-3.009800	3.650000	-10.985000	24.947504	0.000975	20.850833
879.266958	-2.998000	3.649600	-10.941000	24.927490	0.000977	20.890959
880.267129	-3.001400	3.650100	-10.955000	24.954493	0.000977	20.869700
881.264653	-3.001400	3.650200	-10.954000	24.938654	0.000978	20.868501
882.271659	-2.984200	3.650800	-10.894000	24.954022	0.000978	20.850262
883.269043	-2.993600	3.649800	-10.926000	24.951064	0.000976	20.849190
884.264694	-3.000400	3.649500	-10.950000	24.992486	0.000976	20.851411
885.263783	-2.980300	3.649100	-10.875000	24.979284	0.000977	20.855229
886.273675	-2.991700	3.648200	-10.913000	24.992213	0.000977	20.870577
887.266344	-3.001700	3.648500	-10.951000	24.985600	0.000976	20.857301
888.265639	-2.977000	3.649100	-10.862000	24.985925	0.000976	20.845775
889.264753	-2.993200	3.647900	-10.917000	24.996218	0.000976	20.867011
890.265594	-2.976600	3.649100	-10.860000	24.992786	0.000975	20.850765
891.266772	-3.023500	3.643800	-11.016000	24.990874	0.000974	20.857853
892.265470	-2.989600	3.646900	-10.902000	24.986847	0.000974	20.852389
893.264482	-2.976600	3.646500	-10.853000	24.973744	0.000976	20.857255
894.263292	-2.983500	3.644800	-10.874000	24.937443	0.000974	20.859226
895.265448	-2.992500	3.645500	-10.908000	24.919368	0.000972	20.865739
896.267460	-3.003300	3.645900	-10.949000	24.918350	0.000973	20.840063
897.269113	-2.985000	3.645700	-10.880000	24.881402	0.000971	20.829533
898.267857	-3.024800	3.645000	-11.023000	24.881378	0.000972	20.825241
899.266311	-2.996800	3.644600	-10.921000	24.861387	0.000970	20.841212
900.267213	-2.981000	3.644200	-10.862000	24.877251	0.000973	20.834849
901.267828	-2.959700	3.645400	-10.788000	24.857384	0.000970	20.836247
902.269099	-3.002000	3.643800	-10.937000	24.843287	0.000968	20.842961
903.270546	-2.976500	3.644600	-10.847000	24.816260	0.000971	20.836225
904.272837	-3.011600	3.642900	-10.970000	24.773290	0.000970	20.832931
905.268311	-2.979300	3.643100	-10.853000	24.757649	0.000968	20.842364
906.271174	-2.972800	3.644500	-10.833000	24.752950	0.000970	20.834331
907.268177	-2.994100	3.642400	-10.905000	24.723556	0.000967	20.821429
908.269021	-2.981500	3.642100	-10.857000	24.729874	0.000968	20.846260
909.271041	-2.966500	3.643400	-10.807000	24.720052	0.000965	20.826448
910.269170	-2.982900	3.641300	-10.861000	24.714411	0.000966	20.835010
911.269949	-2.991100	3.641000	-10.890000	24.729978	0.000966	20.837356
912.275015	-2.974700	3.643000	-10.836000	24.784813	0.000967	20.838331
913.271937	-2.982900	3.641900	-10.863000	24.818781	0.000966	20.827850
914.271472	-2.962000	3.642400	-10.787000	24.793666	0.000965	20.839155
915.272777	-2.989400	3.641300	-10.885000	24.771536	0.000964	20.841602
916.272921	-3.006500	3.640000	-10.942000	24.733043	0.000966	20.820518
917.275635	-2.990300	3.638900	-10.880000	24.753859	0.000965	20.828605
918.274051	-3.029600	3.639100	-11.024000	24.769079	0.000963	20.823964
919.275926	-2.986500	3.640000	-10.870000	24.741925	0.000962	20.834172
920.275203	-3.010600	3.638600	-10.954000	24.730510	0.000962	20.808019
921.274278	-2.984500	3.638600	-10.859000	24.735485	0.000962	20.825813
922.277467	-2.973300	3.639900	-10.822000	24.759509	0.000963	20.833801
923.274426	-2.995700	3.638000	-10.898000	24.761923	0.000963	20.831481
924.274160	-3.007100	3.637100	-10.936000	24.782836	0.000962	20.811217
925.275066	-2.971600	3.638300	-10.811000	24.815386	0.000962	20.818754
926.273713	-3.038300	3.635600	-11.046000	24.867258	0.000963	20.813915
927.274006	-3.026500	3.636300	-11.004000	24.864425	0.000960	20.826244
928.276342	-3.014300	3.636600	-10.961000	24.926164	0.000963	20.805233
929.273823	-3.009000	3.636000	-10.939000	24.926265	0.000961	20.826196
930.279791	-2.984000	3.636400	-10.851000	24.936485	0.000960	20.823177
931.276017	-2.985700	3.635500	-10.853000	24.952497	0.000961	20.803214
932.281834	-2.982300	3.635800	-10.842000	24.964335	0.000960	20.815096
933.282609	-2.989700	3.636100	-10.870000	24.972613	0.000958	20.821034
934.277188	-3.012300	3.634500	-10.948000	24.966249	0.000959	20.802793
935.281015	-2.993700	3.635100	-10.882000	24.980819	0.000958	20.815520
936.282305	-3.017900	3.632600	-10.961000	24.989747	0.000959	20.807412
937.280955	-3.010800	3.633500	-10.939000	25.011002	0.000957	20.812151
938.281184	-2.977600	3.634500	-10.819000	24.990518	0.000958	20.796332
939.277911	-3.008200	3.633500	-10.929000	25.007897	0.000955	20.814250
940.278354	-2.988700	3.634000	-10.860000	24.984455	0.000956	20.809686
941.280737	-3.023300	3.631900	-10.979000	24.978413	0.000956	20.823062
942.278405	-2.999900	3.632400	-10.895000	24.955589	0.000956	20.814378
943.277296	-3.003000	3.632400	-10.907000	24.930800	0.000956	20.799928
944.283072	-3.017300	3.630400	-10.953000	24.909194	0.000956	20.810960
945.279626	-2.991300	3.632200	-10.864000	24.931822	0.000955	20.809963
946.280960	-2.998000	3.630400	-10.883000	24.933264	0.000953	20.809514
947.281892	-2.983500	3.631600	-10.834000	24.946118	0.000955	20.794441
948.282362	-3.018800	3.630200	-10.958000	24.955193	0.000954	20.790747
949.280200	-3.000600	3.630500	-10.893000	24.938064	0.000953	20.802952
950.280561	-3.009700	3.630600	-10.926000	24.930306	0.000953	20.804648
951.282009	-2.998600	3.630400	-10.886000	24.912678	0.000952	20.820620
952.284214	-3.008000	3.630500	-10.919000	24.897363	0.000954	20.804300
953.280123	-2.983900	3.630600	-10.832000	24.858425	0.000950	20.789877
954.289447	-3.015400	3.629800	-10.943000	24.879462	0.000953	20.809567
955.279542	-3.003700	3.629500	-10.901000	24.871453	0.000950	20.806746
956.280810	-2.986100	3.628300	-10.833000	24.899728	0.000950	20.800037
957.282568	-3.010900	3.628900	-10.925000	24.922528	0.000949	20.817230
958.280370	-2.982000	3.628200	-10.818000	24.932870	0.000949	20.796316
959.280202	-2.975600	3.628200	-10.795000	24.952663	0.000952	20.798639
960.279092	-2.978100	3.629600	-10.807000	24.976730	0.000948	20.790553
961.282465	-2.996200	3.628000	-10.869000	24.994856	0.000949	20.793574
962.282648	-2.995000	3.628200	-10.866000	24.999555	0.000949	20.803032
963.281703	-3.006800	3.627200	-10.904000	24.996298	0.000948	20.802134
964.282680	-3.040100	3.624800	-11.018000	24.975242	0.000947	20.790008
965.280771	-3.028200	3.624600	-10.975000	24.974545	0.000950	20.791679
966.280864	-2.996900	3.625400	-10.863000	24.973898	0.000946	20.799090
967.282023	-2.982100	3.626700	-10.812000	24.980437	0.000945	20.799015
968.282138	-2.969200	3.626800	-10.767000	25.020216	0.000948	20.804331
969.290251	-2.988100	3.625000	-10.830000	25.010894	0.000946	20.803983
970.282444	-2.997500	3.625700	-10.867000	25.024444	0.000948	20.792928
971.285524	-2.984100	3.625000	-10.815000	25.037943	0.000944	20.806952
972.284329	-3.010600	3.623200	-10.907000	25.062107	0.000944	20.805130
973.285802	-2.989900	3.624400	-10.836000	25.071754	0.000943	20.784468
974.284798	-3.001900	3.624400	-10.879000	25.082841	0.000941	20.812192
975.293096	-2.990700	3.624600	-10.839000	25.093008	0.000945	20.778302
976.288206	-2.976100	3.624200	-10.785000	25.115432	0.000943	20.792278
977.287751	-3.000700	3.622700	-10.868000	25.130495	0.000946	20.790804
978.286921	-3.004900	3.623600	-10.888000	25.126244	0.000941	20.800287
979.288340	-3.001500	3.624100	-10.877000	25.141060	0.000943	20.784814
980.284291	-3.007900	3.622300	-10.894000	25.157989	0.000942	20.807973
981.285923	-3.003100	3.621600	-10.875000	25.155029	0.000942	20.813536
982.288939	-3.010500	3.622500	-10.905000	25.132731	0.000943	20.806325
983.286311	-2.993600	3.621800	-10.841000	25.138820	0.000941	20.790152
984.286386	-3.008100	3.620300	-10.889000	25.140835	0.000941	20.803080
985.288745	-2.987900	3.620900	-10.818000	25.166462	0.000943	20.796565
986.289654	-2.998000	3.619800	-10.850000	25.163354	0.000941	20.788703
987.288083	-3.006100	3.618900	-10.878000	25.136506	0.000939	20.808692
988.286602	-2.968400	3.619100	-10.741000	25.103990	0.000943	20.800706
989.288792	-2.978100	3.621100	-10.783000	25.074804	0.000941	20.799383
990.289386	-2.980500	3.619600	-10.787000	25.094119	0.000940	20.797909
991.285396	-2.991900	3.620500	-10.831000	25.092378	0.000940	20.804696
992.287620	-3.004600	3.619400	-10.874000	25.059859	0.000939	20.784855
993.289019	-3.002300	3.617200	-10.858000	25.042482	0.000938	20.789697
994.286718	-2.967200	3.619900	-10.740000	25.045614	0.000939	20.782883
995.291129	-2.995500	3.617700	-10.836000	25.030970	0.000940	20.796160
996.289119	-2.991600	3.616900	-10.819000	25.046608	0.000938	20.796684
997.289569	-3.016000	3.617700	-10.910000	25.045140	0.000938	20.790468
998.290694	-3.004600	3.617600	-10.868000	25.052796	0.000937	20.780136
999.286992	-2.981800	3.617900	-10.787000	25.016350	0.000937	20.780062
1000.287282	-2.970700	3.618200	-10.747000	25.013664	0.000935	20.777366
1001.290670	-3.000500	3.615700	-10.848000	25.011748	0.000936	20.811952
1002.290026	-3.029300	3.613600	-10.945000	25.020226	0.000935	20.804341
1003.291576	-2.996900	3.614900	-10.832000	24.972565	0.000936	20.820986
1004.292228	-3.000200	3.614500	-10.842000	24.994867	0.000933	20.813973
1005.303379	-2.997800	3.613400	-10.830000	25.015402	0.000933	20.799498
1006.297269	-3.005900	3.613100	-10.860000	25.012619	0.000934	20.808085
1007.293845	-3.010900	3.614000	-10.880000	25.022760	0.000932	20.809255
1008.298337	-3.019000	3.614100	-10.909000	25.020968	0.000934	20.812672
1009.299957	-3.008500	3.614300	-10.873000	25.017067	0.000931	20.809704
1010.296457	-3.009300	3.613600	-10.874000	25.004038	0.000932	20.805162
1011.297844	-3.048600	3.611800	-11.010000	25.019427	0.000931	20.808280
1012.295552	-3.013500	3.612100	-10.883000	25.034268	0.000932	20.782400
1013.296418	-2.997500	3.610800	-10.822000	25.018231	0.000930	20.802812
1014.296518	-3.027500	3.611500	-10.933000	25.007242	0.000932	20.815490
1015.296803	-3.020300	3.612000	-10.909000	24.975193	0.000930	20.807976
1016.293202	-3.005400	3.610300	-10.848000	25.011218	0.000930	20.786290
1017.299808	-3.001900	3.611400	-10.841000	25.039809	0.000930	20.806929
1018.297224	-2.998500	3.611000	-10.827000	25.028871	0.000927	20.802587
1019.295422	-2.989700	3.611000	-10.794000	25.057907	0.000930	20.823673
1020.297733	-3.008900	3.610400	-10.862000	25.074489	0.000929	20.828938
1021.298172	-2.990700	3.611000	-10.798000	25.097135	0.000929	20.807575
1022.297182	-3.006400	3.609100	-10.849000	25.110858	0.000926	20.798591
1023.296989	-3.018800	3.609700	-10.895000	25.097086	0.000925	20.822224
1024.299011	-2.999100	3.609800	-10.826000	25.093779	0.000926	20.826965
1025.296809	-2.997800	3.609400	-10.819000	25.074535	0.000925	20.803381
1026.296914	-3.025800	3.607600	-10.914000	25.069193	0.000925	20.807501
1027.299577	-2.986600	3.609000	-10.778000	25.028144	0.000925	20.826039
1028.299304	-3.021900	3.607200	-10.899000	25.013054	0.000926	20.817056
1029.298244	-3.002800	3.607700	-10.831000	25.047737	0.000927	20.799714
1030.299302	-2.988000	3.607300	-10.777000	25.043111	0.000923	20.806449
1031.296746	-2.994100	3.606400	-10.796000	25.078762	0.000923	20.809520
1032.300238	-3.009500	3.606900	-10.855000	25.107845	0.000923	20.822593
1033.295850	-2.986000	3.606400	-10.768000	25.094047	0.000923	20.820596
1034.297269	-2.990900	3.605700	-10.783000	25.075330	0.000923	20.812713
1035.296100	-2.990900	3.606800	-10.786000	25.082836	0.000922	20.817403
1036.297772	-3.009100	3.605100	-10.847000	25.093972	0.000919	20.829056
1037.301254	-3.015500	3.604500	-10.866000	25.083929	0.000919	20.838888
1038.300863	-2.983800	3.605200	-10.756000	25.103840	0.000919	20.827582
1039.300905	-3.011200	3.603400	-10.849000	25.121267	0.000920	20.829429
1040.302009	-2.991000	3.604800	-10.780000	25.151322	0.000919	20.829255
1041.301431	-3.015700	3.602600	-10.863000	25.147839	0.000919	20.830974
1042.303333	-3.002000	3.603200	-10.816000	25.165935	0.000918	20.824011
1043.300430	-2.991300	3.604100	-10.780000	25.198697	0.000917	20.823237
1044.303018	-2.999400	3.604800	-10.811000	25.202053	0.000918	20.832295
1045.300535	-3.010700	3.601700	-10.841000	25.202723	0.000916	20.826804
1046.302340	-3.024800	3.601800	-10.894000	25.227556	0.000914	20.830398
1047.300434	-2.990700	3.602200	-10.772000	25.252981	0.000916	20.838381
1048.303386	-3.025800	3.602300	-10.899000	25.228198	0.000914	20.824879
1049.302814	-3.029000	3.599500	-10.901000	25.258698	0.000915	20.826577
1050.306951	-3.011500	3.600600	-10.842000	25.252084	0.000913	20.846963
1051.308143	-2.980900	3.601700	-10.735000	25.204061	0.000915	20.832888
1052.303393	-3.012700	3.599200	-10.843000	25.175249	0.000916	20.818662
1053.306228	-2.994400	3.599200	-10.775000	25.203834	0.000914	20.833135
1054.309352	-2.990100	3.601300	-10.767000	25.187030	0.000912	20.821955
1055.305745	-2.993700	3.599500	-10.775000	25.215067	0.000912	20.832558
1056.307150	-2.991200	3.600500	-10.769000	25.246511	0.000911	20.832359
1057.304965	-3.000100	3.599700	-10.799000	25.249741	0.000913	20.856938
1058.305017	-2.986000	3.599700	-10.748000	25.268335	0.000910	20.848105
1059.305430	-2.989600	3.599500	-10.760000	25.304299	0.000912	20.830161
1060.306823	-2.982900	3.598600	-10.733000	25.312523	0.000910	20.828936
1061.305568	-2.986500	3.598400	-10.745000	25.340583	0.000911	20.832454
1062.309186	-3.011800	3.596800	-10.832000	25.290575	0.000909	20.863322
1063.306363	-3.011900	3.596400	-10.829000	25.287119	0.000907	20.838517
1064.306558	-2.993900	3.596200	-10.765000	25.291791	0.000909	20.844155
1065.309613	-3.004400	3.595600	-10.801000	25.264499	0.000907	20.844728
1066.309539	-3.005600	3.596700	-10.809000	25.277275	0.000907	20.858029
1067.308692	-2.991400	3.596800	-10.758000	25.255052	0.000907	20.839037
1068.309438	-3.005900	3.596100	-10.808000	25.244237	0.000905	20.844301
1069.311485	-2.998900	3.595600	-10.781000	25.219530	0.000906	20.839884
1070.307772	-3.014300	3.595100	-10.835000	25.218959	0.000905	20.852112
1071.307487	-3.014100	3.594700	-10.834000	25.208045	0.000906	20.847794
1072.310849	-2.980100	3.597100	-10.718000	25.224650	0.000902	20.845498
1073.310770	-3.000500	3.594600	-10.784000	25.219504	0.000905	20.848866
1074.309427	-2.979900	3.594700	-10.711000	25.246176	0.000903	20.834868
1075.310154	-2.999100	3.593100	-10.775000	25.239885	0.000904	20.861741
1076.309175	-2.992200	3.593400	-10.751000	25.259644	0.000902	20.837010
1077.307129	-2.984500	3.593400	-10.723000	25.274410	0.000903	20.854679
1078.311967	-3.013800	3.593600	-10.829000	25.252263	0.000902	20.842875
1079.310730	-2.994500	3.592700	-10.757000	25.256241	0.000899	20.865360
1080.311241	-3.007300	3.592200	-10.802000	25.247291	0.000901	20.862064
1081.313108	-2.995300	3.592000	-10.758000	25.257879	0.000900	20.833341
1082.311388	-3.001900	3.591700	-10.782000	25.293349	0.000898	20.886495
1083.310186	-3.000000	3.591500	-10.773000	25.327574	0.000897	20.871072
1084.315277	-2.985500	3.591100	-10.720000	25.327003	0.000898	20.839680
1085.310686	-2.983100	3.592000	-10.714000	25.328295	0.000897	20.863737
1086.310032	-2.976600	3.591000	-10.687000	25.294145	0.000899	20.855053
1087.310667	-2.989400	3.591200	-10.734000	25.248235	0.000897	20.869176
1088.310368	-2.989400	3.588800	-10.727000	25.245453	0.000897	20.874443
1089.309819	-3.007400	3.588800	-10.792000	25.259720	0.000898	20.864111
1090.310713	-2.994500	3.588900	-10.746000	25.281096	0.000896	20.874667
1091.311283	-2.994500	3.589600	-10.748000	25.283681	0.000894	20.877263
1092.312943	-3.011400	3.588100	-10.804000	25.317086	0.000895	20.859594
1093.314559	-2.972100	3.590100	-10.668000	25.347059	0.000895	20.875464
1094.315315	-3.008700	3.587300	-10.792000	25.348799	0.000893	20.867729
1095.314169	-2.993400	3.588400	-10.741000	25.356281	0.000893	20.867654
1096.314895	-3.002200	3.588600	-10.773000	25.373703	0.000893	20.872346
1097.314070	-2.997900	3.586600	-10.751000	25.362469	0.000892	20.871023
1098.314568	-2.976300	3.587200	-10.673000	25.358244	0.000891	20.847815
1099.315448	-2.990900	3.586500	-10.725000	25.355833	0.000892	20.872894
1100.320089	-3.000600	3.586500	-10.761000	25.310099	0.000891	20.872967
1101.315130	-2.994800	3.587000	-10.741000	25.319769	0.000891	20.858495
1102.315624	-2.971400	3.586900	-10.657000	25.299461	0.000891	20.865605
1103.318228	-3.007100	3.585600	-10.781000	25.290290	0.000891	20.868251
1104.319483	-2.990300	3.585500	-10.720000	25.301102	0.000889	20.865357
1105.317207	-3.007900	3.584500	-10.781000	25.331548	0.000889	20.887864
1106.317827	-2.993500	3.584600	-10.730000	25.346138	0.000889	20.876910
1107.314860	-3.010300	3.584500	-10.789000	25.375216	0.000889	20.876235
1108.315365	-2.994800	3.584300	-10.734000	25.403150	0.000888	20.877732
1109.320546	-3.016000	3.582900	-10.804000	25.422760	0.000888	20.863284
1110.317963	-2.982900	3.584300	-10.690000	25.427804	0.000889	20.878780
1111.315655	-2.986300	3.584600	-10.703000	25.424201	0.000886	20.879429
1112.321530	-2.995500	3.582300	-10.729000	25.466373	0.000887	20.879577
1113.317628	-2.985400	3.582000	-10.692000	25.442242	0.000885	20.878105
1114.316302	-2.998400	3.580800	-10.735000	25.465552	0.000887	20.871641
1115.318038	-2.993600	3.580400	-10.717000	25.460259	0.000885	20.886714
1116.317354	-2.995300	3.581200	-10.726000	25.446366	0.000886	20.892677
1117.318297	-3.008000	3.580000	-10.767000	25.465501	0.000885	20.886288
1118.325562	-3.005700	3.581400	-10.763000	25.447284	0.000882	20.899762
1119.325259	-3.015900	3.579800	-10.795000	25.498229	0.000884	20.904453
1120.320509	-2.994300	3.579900	-10.718000	25.488837	0.000884	20.896919
1121.321223	-3.005800	3.579200	-10.757000	25.500963	0.000883	20.904828
1122.319805	-2.989600	3.579200	-10.699000	25.493060	0.000883	20.884565
1123.321719	-2.994700	3.578500	-10.715000	25.497036	0.000883	20.891402
1124.324239	-2.978700	3.578800	-10.660000	25.490798	0.000880	20.898888
1125.323345	-2.990300	3.578700	-10.701000	25.485629	0.000883	20.885638
1126.326180	-2.990300	3.579100	-10.702000	25.462219	0.000879	20.900534
1127.323772	-3.009300	3.577900	-10.767000	25.453520	0.000881	20.890377
1128.325515	-3.020700	3.576600	-10.803000	25.429762	0.000880	20.895918
1129.324615	-2.996100	3.576700	-10.715000	25.403119	0.000881	20.908044
1130.323200	-3.014500	3.576400	-10.780000	25.393426	0.000877	20.888829
1131.323325	-3.009700	3.576600	-10.764000	25.396285	0.000878	20.890278
1132.324003	-3.005300	3.575300	-10.743000	25.382268	0.000878	20.907495
1133.323214	-2.985000	3.576500	-10.675000	25.370140	0.000876	20.907172
1134.328435	-2.997600	3.575400	-10.716000	25.347499	0.000876	20.894396
1135.327504	-3.002600	3.576300	-10.736000	25.290259	0.000877	20.892400
1136.324765	-2.996800	3.575000	-10.712000	25.262121	0.000874	20.897340
1137.325709	-3.028300	3.573900	-10.822000	25.245716	0.000876	20.902205
1138.327762	-3.022500	3.574100	-10.802000	25.249918	0.000874	20.911639
1139.326377	-2.978300	3.575500	-10.647000	25.271195	0.000876	20.892700
1140.328719	-2.996700	3.573600	-10.708000	25.298138	0.000872	20.896992
1141.332601	-2.997500	3.573800	-10.711000	25.268933	0.000873	20.875731
1142.329466	-3.017700	3.572800	-10.780000	25.277808	0.000873	20.909769
1143.329707	-3.008700	3.571700	-10.745000	25.264535	0.000871	20.903082
1144.328739	-2.988400	3.573600	-10.677000	25.334603	0.000873	20.903258
1145.332249	-2.988100	3.572300	-10.673000	25.353368	0.000871	20.920675
1146.334138	-2.988600	3.572300	-10.675000	25.386696	0.000869	20.900088
1147.330752	-3.017100	3.571000	-10.772000	25.402280	0.000870	20.926166
1148.328138	-2.998100	3.571000	-10.704000	25.410134	0.000870	20.925992
1149.329662	-3.013600	3.569800	-10.757000	25.402006	0.000871	20.906452
1150.329761	-2.972500	3.572100	-10.617000	25.384933	0.000872	20.909696
1151.330663	-3.001600	3.570800	-10.717000	25.394302	0.000869	20.913889
1152.330004	-2.995800	3.570000	-10.695000	25.422137	0.000869	20.906278
1153.329934	-2.992000	3.569100	-10.677000	25.445522	0.000869	20.893726
1154.334264	-2.988300	3.568900	-10.664000	25.482104	0.000867	20.911019
1155.329768	-2.978700	3.569900	-10.633000	25.526659	0.000868	20.917829
1156.328115	-2.995600	3.568700	-10.689000	25.518436	0.000867	20.917632
1157.332150	-2.987900	3.571300	-10.669000	25.526634	0.000866	20.928235
1158.331342	-2.998300	3.568200	-10.698000	25.506806	0.000865	20.913539
1159.332843	-2.981500	3.567300	-10.634000	25.509538	0.000864	20.894948
1160.333081	-2.985800	3.567800	-10.651000	25.501364	0.000863	20.922298
1161.333971	-2.994800	3.567200	-10.683000	25.534785	0.000865	20.919351
1162.333175	-3.004000	3.566700	-10.712000	25.553026	0.000864	20.908274
1163.341788	-3.012400	3.566700	-10.744000	25.521465	0.000862	20.935371
1164.335504	-2.999300	3.567400	-10.698000	25.512546	0.000863	20.925940
1165.332764	-3.002000	3.565600	-10.703000	25.515278	0.000862	20.921572
1166.338599	-3.020200	3.565400	-10.767000	25.532176	0.000863	20.954185
1167.335402	-2.994100	3.566600	-10.677000	25.554813	0.000862	20.912912
1168.334880	-2.997500	3.565000	-10.685000	25.564280	0.000861	20.949917
1169.336040	-3.010300	3.565100	-10.731000	25.561348	0.000860	20.915682
1170.335395	-3.005800	3.563400	-10.709000	25.532946	0.000858	20.926038
1171.336711	-2.994400	3.565000	-10.674000	25.511598	0.000857	20.923092
1172.336201	-3.001400	3.564300	-10.697000	25.508891	0.000858	20.928908
1173.341515	-2.992000	3.561900	-10.656000	25.499347	0.000858	20.945874
1174.337505	-2.990400	3.564100	-10.656000	25.533315	0.000856	20.917402
1175.338789	-2.993800	3.562200	-10.662000	25.544724	0.000857	20.923643
1176.339822	-2.993300	3.563200	-10.664000	25.572950	0.000859	20.940608
1177.338979	-2.989300	3.561700	-10.646000	25.528521	0.000856	20.943878
1178.338578	-2.989000	3.562700	-10.649000	25.528024	0.000854	20.945276
1179.341078	-3.006200	3.562300	-10.708000	25.515699	0.000856	20.922469
1180.342383	-3.022100	3.560900	-10.760000	25.547234	0.000855	20.938015
1181.340157	-3.001600	3.560700	-10.687000	25.535802	0.000853	20.936017
1182.339190	-3.009400	3.561400	-10.715000	25.543008	0.000854	20.950839
1183.341511	-2.982800	3.561000	-10.621000	25.559906	0.000855	20.943154
1184.345681	-2.987300	3.560800	-10.637000	25.571187	0.000853	20.955905
1185.341529	-2.999500	3.559800	-10.676000	25.550737	0.000852	20.948644
1186.349486	-2.994300	3.560200	-10.659000	25.533340	0.000853	20.967680
1187.347581	-3.004400	3.559300	-10.692000	25.530284	0.000851	20.964612
1188.343984	-2.965000	3.559700	-10.553000	25.547729	0.000852	20.949891
1189.349514	-3.009000	3.557400	-10.703000	25.481329	0.000850	20.951013
1190.345444	-2.978100	3.560300	-10.601000	25.447680	0.000851	20.948044
1191.345542	-2.992500	3.558700	-10.648000	25.456104	0.000850	20.957450
1192.351923	-2.989000	3.558500	-10.636000	25.419149	0.000850	20.960644
1193.345472	-3.001400	3.556700	-10.674000	25.470418	0.000849	20.953332
1194.345468	-3.003000	3.556000	-10.678000	25.449942	0.000847	20.955530
1195.345287	-3.004200	3.555200	-10.680000	25.501208	0.000847	20.966232
1196.348405	-3.015700	3.555900	-10.723000	25.487591	0.000850	20.951137
1197.345554	-2.995900	3.555300	-10.649000	25.493106	0.000847	20.941505
1198.345342	-2.969800	3.556400	-10.560000	25.463335	0.000845	20.935790
1199.347254	-2.978400	3.556700	-10.592000	25.469770	0.000845	20.960268
1200.345982	-3.002200	3.553200	-10.666000	25.442883	0.000844	20.952235
1201.345624	-3.007100	3.555100	-10.690000	25.458116	0.000844	20.966107
1202.355042	-2.986900	3.554500	-10.616000	25.442310	0.000844	20.952133
1203.355757	-2.991000	3.553900	-10.629000	25.445442	0.000844	20.970449
1204.348173	-2.980200	3.552400	-10.586000	25.450263	0.000842	20.973867
1205.351871	-3.002800	3.552500	-10.666000	25.466815	0.000841	20.967730
1206.352652	-3.018300	3.552100	-10.720000	25.466120	0.000841	20.956602
1207.350032	-3.018500	3.551800	-10.718000	25.513707	0.000839	20.937536
1208.351743	-3.025200	3.551200	-10.742000	25.530283	0.000840	20.969825
1209.349692	-3.009100	3.552000	-10.688000	25.540272	0.000839	20.973219
1210.348681	-2.994400	3.552900	-10.638000	25.524942	0.000838	20.968256
1211.350957	-3.019800	3.551600	-10.724000	25.541144	0.000838	20.964612
1212.351751	-2.988200	3.550900	-10.609000	25.575882	0.000838	20.946396
1213.351607	-2.983800	3.550200	-10.591000	25.595490	0.000838	20.966086
1214.350782	-2.977100	3.551600	-10.573000	25.586195	0.000837	20.991360
1215.352433	-3.004800	3.549500	-10.665000	25.603491	0.000837	20.964639
1216.350934	-3.009500	3.549800	-10.682000	25.601056	0.000835	20.974046
1217.351946	-2.969200	3.550300	-10.540000	25.572929	0.000835	20.958601
1218.353199	-3.002800	3.549100	-10.656000	25.566690	0.000835	20.959449
1219.352044	-2.966400	3.550000	-10.529000	25.585975	0.000833	20.952264
1220.356418	-3.007200	3.548100	-10.669000	25.599242	0.000834	20.969854
1221.353665	-3.004200	3.549700	-10.663000	25.613580	0.000834	20.953436
1222.352477	-2.987100	3.549800	-10.603000	25.612562	0.000833	20.931079
1223.351984	-3.018200	3.548900	-10.710000	25.601182	0.000834	20.952838
1224.352734	-3.006100	3.548000	-10.665000	25.637286	0.000833	20.941685
1225.354021	-2.978000	3.547200	-10.563000	25.610698	0.000831	20.949594
1226.355822	-2.999700	3.547700	-10.642000	25.623643	0.000831	20.967334
1227.354627	-3.023500	3.545000	-10.716000	25.666083	0.000831	20.929357
1228.358299	-3.003300	3.545900	-10.648000	25.665810	0.000829	20.939513
1229.359119	-3.002700	3.545400	-10.645000	25.641284	0.000830	20.929107
1230.355290	-2.991700	3.544700	-10.603000	25.630004	0.000830	20.948594
1231.358994	-2.987900	3.545400	-10.592000	25.580555	0.000830	20.946348
1232.353876	-2.983600	3.546400	-10.581000	25.559930	0.000829	20.947445
1233.355960	-3.011400	3.544900	-10.673000	25.535155	0.000829	20.948168
1234.362384	-3.003600	3.543700	-10.643000	25.513112	0.000829	20.934569
1235.356887	-3.003100	3.544300	-10.642000	25.509632	0.000824	20.948616
1236.358261	-3.001800	3.544000	-10.637000	25.531675	0.000826	20.947993
1237.356167	-3.001400	3.542500	-10.631000	25.504189	0.000826	20.931298
1238.355733	-2.951500	3.545600	-10.464000	25.491442	0.000823	20.929877
1239.357102	-2.979000	3.543700	-10.555000	25.487391	0.000824	20.936714
1240.359342	-3.020000	3.542100	-10.696000	25.517360	0.000824	20.935989
1241.356243	-3.013600	3.542400	-10.675000	25.549043	0.000824	20.954055
1242.357133	-3.017600	3.541800	-10.686000	25.554509	0.000822	20.937735
1243.356702	-3.021600	3.539300	-10.694000	25.601299	0.000823	20.930199
1244.362514	-2.988100	3.541800	-10.582000	25.600678	0.000823	20.935739
1245.361139	-3.003300	3.540300	-10.631000	25.570836	0.000820	20.926158
1246.359347	-3.004200	3.539600	-10.633000	25.598095	0.000821	20.954479
1247.359418	-2.999600	3.540000	-10.617000	25.576551	0.000821	20.948016
1248.362681	-2.988300	3.539900	-10.576000	25.583684	0.000821	20.923888
1249.360489	-2.999600	3.540800	-10.620000	25.586863	0.000820	20.913806
1250.360738	-2.991800	3.540300	-10.590000	25.625032	0.000818	20.940283
1251.365252	-3.007200	3.537300	-10.636000	25.620981	0.000818	20.945223
1252.361659	-3.013800	3.538600	-10.663000	25.633779	0.000817	20.924888
1253.364922	-2.997800	3.538200	-10.606000	25.634748	0.000815	20.916379
1254.362558	-2.975900	3.537500	-10.526000	25.650428	0.000817	20.914109
1255.367878	-3.003800	3.538500	-10.628000	25.653534	0.000817	20.918177
1256.363294	-2.987000	3.537600	-10.567000	25.669686	0.000815	20.919227
1257.365380	-2.975800	3.538400	-10.528000	25.665487	0.000815	20.923069
1258.363156	-3.024000	3.535100	-10.689000	25.666781	0.000813	20.914413
1259.368382	-3.017400	3.537400	-10.673000	25.652070	0.000813	20.938990
1260.365914	-3.006400	3.534800	-10.626000	25.577876	0.000813	20.895773
1261.363365	-2.989700	3.536500	-10.571000	25.564060	0.000813	20.911294
1262.369612	-2.992400	3.536100	-10.581000	25.504993	0.000811	20.934476
1263.364923	-3.005000	3.535600	-10.624000	25.477061	0.000811	20.927764
1264.367051	-2.980700	3.535800	-10.539000	25.521942	0.000811	20.902663
1265.365703	-3.003100	3.534300	-10.613000	25.525645	0.000810	20.921078
1266.365018	-2.988700	3.535400	-10.565000	25.556657	0.000811	20.914764
1267.366532	-2.997500	3.533100	-10.590000	25.549104	0.000810	20.921403
1268.365705	-2.971200	3.534600	-10.500000	25.563493	0.000808	20.892708
1269.367445	-3.011900	3.534100	-10.644000	25.578503	0.000810	20.912049
1270.370672	-3.008500	3.532500	-10.626000	25.568290	0.000809	20.917912
1271.368263	-2.981800	3.533300	-10.534000	25.588094	0.000808	20.894656
1272.368966	-3.006100	3.532600	-10.618000	25.583324	0.000807	20.886546
1273.368289	-2.994200	3.532400	-10.576000	25.552189	0.000806	20.900796
1274.367863	-2.982200	3.530900	-10.528000	25.530372	0.000804	20.917290
1275.367781	-3.006800	3.529600	-10.612000	25.513102	0.000806	20.914172
1276.371153	-3.007500	3.529300	-10.613000	25.531640	0.000804	20.895332
1277.370055	-3.003700	3.529600	-10.600000	25.580095	0.000802	20.914121
1278.372625	-2.997000	3.529800	-10.578000	25.610337	0.000803	20.894709
1279.368595	-2.989300	3.529200	-10.549000	25.619855	0.000804	20.917068
1280.370394	-2.986900	3.530100	-10.543000	25.630018	0.000801	20.915896
1281.371318	-2.984800	3.528500	-10.531000	25.626913	0.000802	20.886228
1282.373340	-3.000200	3.528200	-10.584000	25.651464	0.000802	20.893815
1283.370243	-2.991500	3.528300	-10.554000	25.639439	0.000799	20.907341
1284.373687	-2.990600	3.529700	-10.554000	25.646670	0.000800	20.897061
1285.369812	-2.986300	3.527800	-10.535000	25.657380	0.000799	20.892171
1286.367620	-3.008400	3.525900	-10.607000	25.672264	0.000798	20.907593
1287.370564	-3.006400	3.525800	-10.599000	25.705758	0.000798	20.894294
1288.370733	-3.007800	3.525100	-10.602000	25.713163	0.000797	20.901731
1289.369351	-3.019800	3.526100	-10.647000	25.681088	0.000798	20.906498
1290.368711	-2.993000	3.526800	-10.554000	25.666579	0.000795	20.902832
1291.371788	-3.005600	3.525200	-10.594000	25.685713	0.000796	20.902135
1292.372056	-3.015700	3.524800	-10.629000	25.716845	0.000794	20.870819
1293.369663	-3.004900	3.525100	-10.591000	25.711106	0.000794	20.895398
1294.369121	-3.040000	3.522400	-10.707000	25.699554	0.000796	20.891382
1295.370788	-2.994800	3.524600	-10.553000	25.735954	0.000793	20.893330
1296.373778	-3.009000	3.522700	-10.599000	25.739782	0.000794	20.892433
1297.370324	-3.002700	3.523700	-10.578000	25.746863	0.000795	20.909027
1298.372873	-3.001300	3.523800	-10.575000	25.738716	0.000794	20.903689
1299.371845	-2.994200	3.523200	-10.547000	25.736330	0.000792	20.911724
1300.372011	-2.986600	3.522200	-10.517000	25.718021	0.000795	20.886697
1301.378743	-3.009500	3.521700	-10.597000	25.724778	0.000793	20.882579
1302.372433	-2.993900	3.522600	-10.545000	25.715561	0.000793	20.862892
1303.371810	-3.015700	3.520200	-10.614000	25.730966	0.000791	20.878838
1304.376386	-3.009900	3.520100	-10.594000	25.743416	0.000790	20.877593
1305.371734	-2.996900	3.521000	-10.550000	25.756335	0.000790	20.881086
1306.371454	-2.980100	3.521000	-10.492000	25.759765	0.000790	20.884056
1307.377368	-3.014500	3.519100	-10.606000	25.730399	0.000788	20.883009
1308.371271	-2.980100	3.521700	-10.493000	25.754001	0.000788	20.853139
1309.372882	-3.015100	3.518900	-10.609000	25.761506	0.000789	20.873952
1310.372463	-2.984600	3.518300	-10.500000	25.714004	0.000786	20.890248
1311.373106	-3.030300	3.518300	-10.658000	25.738402	0.000788	20.899581
1312.370998	-2.992600	3.517700	-10.526000	25.725832	0.000784	20.893594
1313.372604	-3.011200	3.518200	-10.593000	25.743448	0.000785	20.881892
1314.379998	-2.976400	3.519600	-10.474000	25.714780	0.000783	20.864477
1315.374742	-3.003800	3.516900	-10.563000	25.680592	0.000782	20.872338
1316.373204	-2.996300	3.517400	-10.539000	25.669064	0.000784	20.866924
1317.374763	-2.977300	3.517600	-10.470000	25.657785	0.000783	20.893526
1318.374172	-3.002100	3.515300	-10.552000	25.657439	0.000782	20.868050
1319.375082	-3.009000	3.515300	-10.576000	25.676745	0.000784	20.859940
1320.375762	-2.999000	3.516100	-10.542000	25.678909	0.000781	20.878708
1321.380380	-2.993500	3.514700	-10.520000	25.684153	0.000780	20.872121
1322.379426	-2.991400	3.515500	-10.516000	25.687783	0.000780	20.877663
1323.376365	-2.990800	3.515900	-10.514000	25.708282	0.000780	20.884976
1324.379163	-2.993500	3.514800	-10.521000	25.740483	0.000780	20.856630
1325.378377	-2.988100	3.515700	-10.504000	25.758447	0.000777	20.896957
1326.377405	-2.994900	3.515000	-10.526000	25.726721	0.000777	20.859876
1327.383559	-3.000100	3.514000	-10.542000	25.729406	0.000778	20.872056
1328.379680	-2.995100	3.514100	-10.524000	25.726625	0.000778	20.883486
1329.377097	-2.994700	3.513000	-10.518000	25.695792	0.000779	20.874329
1330.379084	-3.000000	3.510900	-10.531000	25.703050	0.000775	20.856490
1331.379508	-2.994500	3.512200	-10.516000	25.712566	0.000775	20.864150
1332.377660	-2.988800	3.512600	-10.498000	25.716120	0.000775	20.857289
1333.379495	-3.002400	3.510700	-10.539000	25.720667	0.000774	20.859959
1334.380555	-3.010000	3.511100	-10.568000	25.738036	0.000775	20.865551
1335.376852	-3.002900	3.511500	-10.544000	25.737094	0.000775	20.882147
1336.381065	-3.004800	3.510700	-10.548000	25.758013	0.000773	20.856694
1337.384160	-2.994200	3.510400	-10.509000	25.767703	0.000775	20.854099
1338.376114	-3.002600	3.510600	-10.540000	25.762040	0.000775	20.846515
1339.380574	-2.970800	3.510700	-10.428000	25.761344	0.000773	20.845341
1340.385594	-2.990300	3.507700	-10.489000	25.703730	0.000774	20.854327
1341.380111	-3.001100	3.509000	-10.530000	25.693793	0.000770	20.859045
1342.380150	-3.016700	3.507100	-10.579000	25.694587	0.000773	20.846093
1343.381991	-2.992300	3.509300	-10.500000	25.678466	0.000770	20.847918
1344.378670	-2.996300	3.507200	-10.506000	25.665965	0.000770	20.860492
1345.378499	-3.035100	3.506300	-10.641000	25.673570	0.000769	20.861966
1346.382206	-2.996800	3.508200	-10.512000	25.684254	0.000772	20.866059
1347.377050	-3.006200	3.505800	-10.538000	25.665198	0.000770	20.854981
1348.378399	-3.017200	3.505900	-10.577000	25.686244	0.000768	20.866161
1349.385124	-3.018500	3.504600	-10.577000	25.666789	0.000768	20.842829
1350.377846	-3.042800	3.503500	-10.659000	25.681671	0.000767	20.873422
1351.379169	-2.990400	3.507200	-10.488000	25.717252	0.000767	20.845150
1352.382298	-2.983600	3.504200	-10.454000	25.718198	0.000768	20.843729
1353.380565	-2.987100	3.504800	-10.468000	25.727540	0.000767	20.855009
1354.379679	-2.993200	3.503200	-10.484000	25.757131	0.000767	20.847274
1355.378433	-2.993600	3.505100	-10.491000	25.749479	0.000765	20.836269
1356.380284	-3.025300	3.501900	-10.593000	25.765428	0.000765	20.849444
1357.377988	-2.993700	3.504200	-10.490000	25.773205	0.000762	20.840661
1358.379938	-3.022700	3.502000	-10.584000	25.764164	0.000762	20.849597
1359.384172	-2.987300	3.502400	-10.461000	25.753629	0.000763	20.849446
1360.380713	-2.996800	3.502000	-10.494000	25.789030	0.000762	20.852763
1361.381161	-3.023400	3.500500	-10.583000	25.795416	0.000762	20.844953
1362.381648	-3.000700	3.500500	-10.503000	25.808061	0.000762	20.847698
1363.381294	-2.988200	3.501500	-10.462000	25.794272	0.000761	20.855657
1364.381877	-3.017700	3.499200	-10.559000	25.760087	0.000758	20.852139
1365.380736	-3.024500	3.499500	-10.583000	25.761600	0.000760	20.842754
1366.384562	-3.019900	3.499700	-10.568000	25.746000	0.000758	20.837042
1367.380746	-3.006300	3.498800	-10.517000	25.753476	0.000760	20.842181
1368.379937	-2.992800	3.500100	-10.473000	25.744483	0.000759	20.829354
1369.386356	-3.006900	3.499500	-10.520000	25.724085	0.000756	20.846324
1370.380733	-3.013400	3.497900	-10.540000	25.714943	0.000759	20.838089
1371.381474	-2.993500	3.497400	-10.469000	25.716382	0.000757	20.842380
1372.382239	-2.998700	3.498000	-10.489000	25.696854	0.000758	20.859748
1373.380183	-3.024000	3.497400	-10.575000	25.717598	0.000757	20.843601
1374.380859	-3.003400	3.496800	-10.502000	25.725127	0.000755	20.837413
1375.384839	-3.049400	3.495800	-10.660000	25.709423	0.000754	20.849614
1376.381061	-3.008100	3.496900	-10.518000	25.741325	0.000754	20.835191
1377.381999	-3.005200	3.496300	-10.506000	25.750068	0.000754	20.840179
1378.383257	-3.027800	3.494300	-10.579000	25.770815	0.000751	20.837786
1379.384847	-3.014300	3.494100	-10.531000	25.742766	0.000753	20.833794
1380.383702	-3.003100	3.494400	-10.492000	25.681222	0.000752	20.824135
1381.381611	-3.011000	3.494200	-10.519000	25.653070	0.000754	20.845645
1382.381409	-3.008000	3.493600	-10.508000	25.614657	0.000752	20.826980
1383.383110	-3.019800	3.492900	-10.547000	25.610259	0.000750	20.841055
1384.382609	-2.988800	3.494400	-10.442000	25.600939	0.000750	20.828376
1385.382846	-2.995400	3.493300	-10.463000	25.618135	0.000750	20.847068
1386.386483	-2.992200	3.492600	-10.449000	25.647131	0.000748	20.861016
1387.382414	-2.995900	3.492200	-10.461000	25.679855	0.000750	20.805219
1388.389494	-3.027500	3.492100	-10.572000	25.687184	0.000748	20.830597
1389.381970	-3.004800	3.491700	-10.491000	25.692350	0.000748	20.831045
1390.382468	-3.005700	3.491200	-10.492000	25.684947	0.000748	20.818394
1391.386110	-3.037300	3.490100	-10.599000	25.665344	0.000746	20.829050
1392.387041	-2.993200	3.491300	-10.449000	25.665194	0.000747	20.825106
1393.382661	-3.019800	3.488700	-10.534000	25.681195	0.000744	20.799453
1394.382783	-3.014800	3.490200	-10.521000	25.688823	0.000744	20.814700
1395.382067	-3.010800	3.487400	-10.499000	25.649665	0.000743	20.826104
1396.384478	-3.008700	3.487900	-10.493000	25.660151	0.000743	20.831421
1397.386767	-2.988300	3.488600	-10.425000	25.671158	0.000744	20.828251
1398.383585	-2.987200	3.489900	-10.424000	25.654610	0.000744	20.835338
1399.388922	-2.985300	3.488800	-10.414000	25.673294	0.000743	20.825655
1400.383155	-2.984700	3.487100	-10.407000	25.657989	0.000741	20.834939
1401.384465	-3.004300	3.486700	-10.474000	25.705248	0.000742	20.832620
1402.390500	-3.009200	3.486300	-10.490000	25.702043	0.000743	20.838409
1403.382665	-3.006900	3.486700	-10.483000	25.729198	0.000740	20.839132
1404.382530	-2.995900	3.486000	-10.442000	25.763957	0.000740	20.841802
1405.383680	-2.985500	3.486100	-10.407000	25.755511	0.000742	20.805345
1406.384625	-3.016100	3.483400	-10.505000	25.764233	0.000741	20.826433
1407.386722	-2.999600	3.485100	-10.452000	25.799114	0.000740	20.805047
1408.386751	-2.978500	3.485600	-10.379000	25.808307	0.000740	20.810962
1409.399940	-2.975700	3.484100	-10.366000	25.794196	0.000737	20.824288
1410.388006	-2.996100	3.482200	-10.432000	25.784978	0.000737	20.842055
1411.385799	-2.989300	3.483200	-10.411000	25.774222	0.000739	20.830777
1412.390331	-2.999600	3.483300	-10.447000	25.745825	0.000738	20.805098
1413.391299	-3.029400	3.482300	-10.547000	25.705402	0.000738	20.819498
1414.388075	-2.997200	3.482000	-10.435000	25.693823	0.000737	20.816877
1415.389447	-2.994200	3.482500	-10.426000	25.647237	0.000735	20.818451
1416.387399	-2.995500	3.480300	-10.423000	25.687513	0.000737	20.800582
1417.389613	-3.000900	3.480200	-10.443000	25.698000	0.000736	20.818227
1418.394148	-3.004500	3.480700	-10.457000	25.729777	0.000736	20.819799
1419.391876	-2.999400	3.479800	-10.436000	25.734844	0.000735	20.792646
1420.394533	-2.988900	3.479600	-10.400000	25.777206	0.000736	20.794420
1421.394543	-2.969800	3.480700	-10.336000	25.770497	0.000736	20.809492
1422.392098	-2.995200	3.479000	-10.417000	25.759914	0.000736	20.807870
1423.397127	-3.012000	3.478400	-10.475000	25.750549	0.000733	20.802257
1424.394547	-3.019900	3.477100	-10.500000	25.780659	0.000733	20.820173
1425.392679	-3.009700	3.477700	-10.466000	25.804236	0.000734	20.802131
1426.392966	-3.013700	3.477400	-10.479000	25.808261	0.000731	20.795269
1427.391262	-3.015700	3.477800	-10.488000	25.798126	0.000731	20.804054
1428.395282	-2.991200	3.477800	-10.401000	25.789900	0.000733	20.810016
1429.397738	-3.006500	3.476100	-10.450000	25.791616	0.000730	20.814111
1430.396648	-2.978000	3.477400	-10.355000	25.800808	0.000728	20.808171
1431.396062	-2.985500	3.476500	-10.378000	25.822843	0.000731	20.804700
1432.396602	-3.011600	3.475300	-10.465000	25.833874	0.000728	20.800609
1433.396747	-3.018200	3.474300	-10.485000	25.832854	0.000729	20.786782
1434.399067	-2.998700	3.476200	-10.423000	25.862442	0.000729	20.802280
1435.397113	-3.007200	3.474700	-10.447000	25.873869	0.000727	20.823716
1436.398082	-3.002900	3.472700	-10.425000	25.860031	0.000728	20.790375
1437.398403	-3.012500	3.472100	-10.459000	25.881173	0.000727	20.790751
1438.401128	-2.985100	3.473800	-10.369000	25.862244	0.000727	20.813461
1439.399179	-2.987400	3.472000	-10.370000	25.878711	0.000726	20.796338
1440.398549	-2.990200	3.473200	-10.385000	25.843014	0.000727	20.810738
1441.397495	-2.993600	3.473600	-10.397000	25.830543	0.000725	20.812436
1442.398875	-2.986300	3.471900	-10.368000	25.846988	0.000722	20.802877
1443.399108	-2.997200	3.471600	-10.403000	25.837671	0.000724	20.787354
1444.400300	-3.020100	3.469900	-10.479000	25.864229	0.000725	20.792696
1445.400915	-3.013100	3.470700	-10.456000	25.882982	0.000722	20.806318
1446.400528	-3.006800	3.469400	-10.430000	25.866614	0.000722	20.813109
1447.402267	-3.013200	3.470100	-10.455000	25.857098	0.000720	20.823464
1448.402040	-3.001900	3.468300	-10.411000	25.888796	0.000722	20.823064
1449.401726	-2.978600	3.470200	-10.335000	25.881244	0.000723	20.805995
1450.407703	-3.003600	3.467800	-10.415000	25.879086	0.000720	20.809991
1451.405707	-3.007400	3.469200	-10.433000	25.915923	0.000721	20.770185
1452.408088	-3.004300	3.467800	-10.417000	25.882660	0.000722	20.781339
1453.404533	-2.983800	3.468500	-10.349000	25.907232	0.000721	20.799385
1454.403983	-3.028000	3.466000	-10.493000	25.879333	0.000720	20.803601
1455.406775	-2.995200	3.466000	-10.379000	25.884873	0.000719	20.792571
1456.406779	-2.992300	3.467100	-10.374000	25.883707	0.000718	20.801831
1457.404234	-2.988000	3.467400	-10.358000	25.871111	0.000718	20.779695
1458.404788	-3.013100	3.465200	-10.441000	25.858194	0.000717	20.805599
1459.404295	-3.006200	3.464800	-10.415000	25.849747	0.000719	20.799959
1460.405099	-3.000100	3.464000	-10.391000	25.823811	0.000718	20.789078
1461.408235	-2.975200	3.466100	-10.311000	25.812707	0.000715	20.784562
1462.406314	-2.997600	3.463700	-10.381000	25.822694	0.000716	20.794120
1463.407799	-2.994900	3.463900	-10.374000	25.813901	0.000716	20.798563
1464.404695	-3.013500	3.463500	-10.436000	25.825155	0.000715	20.810342
1465.408284	-2.972000	3.463600	-10.293000	25.845204	0.000714	20.796343
1466.411039	-3.002500	3.461900	-10.393000	25.859764	0.000713	20.814763
1467.410256	-2.997100	3.463200	-10.378000	25.905795	0.000713	20.794149
1468.410971	-3.001400	3.461500	-10.389000	25.897670	0.000712	20.799737
1469.410359	-2.990500	3.461800	-10.351000	25.876010	0.000712	20.786987
1470.410111	-3.013600	3.460900	-10.429000	25.849776	0.000712	20.792401
1471.416663	-2.980400	3.461400	-10.315000	25.823442	0.000713	20.782543
1472.409445	-2.999800	3.460500	-10.380000	25.829531	0.000712	20.783444
1473.412761	-3.014000	3.459800	-10.427000	25.832189	0.000712	20.806503
1474.410872	-3.012700	3.459200	-10.421000	25.835669	0.000712	20.810946
1475.408437	-2.996500	3.459200	-10.364000	25.818078	0.000711	20.793751
1476.411488	-3.009000	3.459100	-10.406000	25.832264	0.000709	20.793776
1477.413610	-2.991700	3.458800	-10.347000	25.823992	0.000711	20.799217
1478.411986	-3.014800	3.457900	-10.423000	25.805111	0.000709	20.779302
1479.412189	-2.974600	3.457300	-10.283000	25.784020	0.000708	20.804584
1480.413125	-3.020800	3.456500	-10.440000	25.774254	0.000708	20.796670
1481.411448	-3.015200	3.455100	-10.417000	25.758081	0.000706	20.810296
1482.417168	-3.001100	3.455200	-10.369000	25.757460	0.000707	20.811096
1483.412998	-2.997800	3.456500	-10.360000	25.728939	0.000708	20.802362
1484.415529	-3.019100	3.454100	-10.428000	25.768639	0.000708	20.775857
1485.413024	-3.006400	3.454800	-10.384000	25.805086	0.000705	20.800615
1486.418151	-3.018100	3.453200	-10.420000	25.826228	0.000705	20.792929
1487.416176	-2.999000	3.454400	-10.359000	25.825359	0.000703	20.771666
1488.418594	-3.019000	3.454000	-10.427000	25.838426	0.000704	20.804234
1489.414968	-2.981100	3.454600	-10.297000	25.854326	0.000703	20.798395
1490.414496	-2.991700	3.454800	-10.334000	25.863443	0.000703	20.811820
1491.415145	-2.995100	3.453400	-10.343000	25.829757	0.000703	20.789361
1492.418092	-2.999400	3.454300	-10.359000	25.801186	0.000703	20.807128
1493.417966	-2.993700	3.453500	-10.336000	25.829508	0.000701	20.808551
1494.417828	-2.994300	3.452600	-10.338000	25.815547	0.000702	20.808277
1495.415238	-2.999600	3.450300	-10.349000	25.789635	0.000700	20.810224
1496.416534	-3.000200	3.450900	-10.353000	25.774381	0.000700	20.802014
1497.416703	-2.992900	3.451300	-10.329000	25.760717	0.000701	20.825272
1498.416607	-3.023200	3.449300	-10.427000	25.755972	0.000699	20.803437
1499.418212	-2.994200	3.450800	-10.332000	25.741561	0.000698	20.814091
1500.416244	-3.002500	3.448500	-10.352000	25.722478	0.000699	20.802511
1501.418519	-2.994900	3.448700	-10.328000	25.720367	0.000697	20.788063
1502.417455	-3.004300	3.447300	-10.355000	25.732021	0.000696	20.801190
1503.417254	-2.975600	3.449200	-10.262000	25.749833	0.000697	20.802012
1504.418215	-3.000100	3.448400	-10.344000	25.743200	0.000696	20.799142
1505.419253	-3.007000	3.448300	-10.368000	25.773235	0.000696	20.814613
1506.418121	-3.003400	3.447600	-10.354000	25.803000	0.000696	20.804683
1507.419888	-2.991900	3.447600	-10.313000	25.823545	0.000694	20.812044
1508.422328	-2.991200	3.445700	-10.306000	25.847692	0.000695	20.828713
1509.419284	-3.003500	3.446000	-10.349000	25.854894	0.000694	20.819827
1510.417942	-2.962400	3.446500	-10.208000	25.832014	0.000694	20.821500
1511.419918	-2.983000	3.446700	-10.280000	25.852981	0.000692	20.822173
1512.423138	-2.985500	3.444500	-10.283000	25.814251	0.000692	20.833053
1513.421767	-3.010200	3.444300	-10.367000	25.805206	0.000692	20.841986
1514.426058	-3.020400	3.442800	-10.398000	25.808288	0.000692	20.822322
1515.423063	-3.001500	3.444000	-10.336000	25.798400	0.000691	20.810019
1516.422400	-2.997900	3.442400	-10.319000	25.790474	0.000691	20.834774
1517.422287	-3.012800	3.442300	-10.370000	25.764859	0.000689	20.832751
1518.424333	-3.011600	3.443700	-10.370000	25.808335	0.000691	20.819051
1519.422757	-2.993500	3.442700	-10.305000	25.827738	0.000692	20.835696
1520.423573	-2.999000	3.442200	-10.321000	25.824731	0.000690	20.819873
1521.422215	-3.002300	3.441900	-10.333000	25.801278	0.000689	20.824290
1522.422764	-3.005400	3.441300	-10.340000	25.761676	0.000688	20.824339
1523.420631	-2.991900	3.440500	-10.292000	25.759763	0.000687	20.829530
1524.421950	-3.009000	3.440000	-10.350000	25.729253	0.000688	20.847247
1525.421407	-3.028700	3.439200	-10.415000	25.701700	0.000687	20.812461
1526.424505	-3.008200	3.439500	-10.346000	25.719839	0.000688	20.842058
1527.421721	-2.995400	3.439400	-10.301000	25.672978	0.000687	20.832449
1528.422732	-2.991200	3.440400	-10.290000	25.664158	0.000688	20.822643
1529.424900	-2.983900	3.438600	-10.259000	25.677548	0.000686	20.826609
1530.424470	-2.983700	3.438400	-10.259000	25.730867	0.000687	20.823265
1531.427424	-2.973400	3.438600	-10.223000	25.754299	0.000686	20.803653
1532.424662	-2.983300	3.439000	-10.258000	25.791217	0.000684	20.832675
1533.425622	-3.010000	3.436900	-10.344000	25.787290	0.000685	20.850067
1534.427401	-2.996300	3.438300	-10.301000	25.802294	0.000682	20.828155
1535.425849	-2.993600	3.437700	-10.290000	25.839907	0.000684	20.836541
1536.427145	-3.020300	3.437000	-10.380000	25.857794	0.000684	20.842181
1537.425190	-3.022300	3.435000	-10.380000	25.850265	0.000683	20.831299
1538.424639	-3.016700	3.436100	-10.365000	25.869296	0.000684	20.836665
1539.427615	-3.010500	3.437200	-10.347000	25.876448	0.000683	20.836738
1540.425385	-3.022200	3.434900	-10.380000	25.910408	0.000681	20.843827
1541.432585	-2.985800	3.434800	-10.254000	25.902681	0.000680	20.828479
1542.425344	-2.994000	3.434700	-10.283000	25.890012	0.000681	20.825234
1543.428125	-2.995400	3.434400	-10.286000	25.888596	0.000680	20.839933
1544.429797	-3.015800	3.432900	-10.352000	25.908122	0.000680	20.844850
1545.429107	-2.957300	3.433800	-10.154000	25.932216	0.000678	20.857674
1546.428369	-3.000100	3.432300	-10.297000	25.959542	0.000680	20.853359
1547.428245	-2.985500	3.432900	-10.248000	25.949506	0.000678	20.839483
1548.428104	-2.993500	3.433400	-10.277000	25.961676	0.000678	20.831322
1549.428611	-2.991200	3.431900	-10.264000	25.990937	0.000674	20.825158
1550.434239	-2.996500	3.432500	-10.285000	26.011404	0.000677	20.846668
1551.427773	-3.004000	3.430300	-10.303000	26.028941	0.000675	20.847219
1552.431875	-2.987200	3.430600	-10.247000	26.003953	0.000678	20.852459
1553.429433	-2.994600	3.429200	-10.267000	25.966173	0.000673	20.828253
1554.429193	-2.989800	3.428800	-10.250000	25.968434	0.000676	20.858498
1555.430316	-3.002100	3.429700	-10.295000	25.986864	0.000675	20.845722
1556.429244	-2.999100	3.429100	-10.283000	25.987213	0.000675	20.848442
1557.431118	-3.011400	3.427500	-10.320000	25.953479	0.000673	20.852958
1558.431758	-2.986600	3.428500	-10.239000	25.962173	0.000674	20.857424
1559.432012	-2.996300	3.428300	-10.271000	25.884023	0.000674	20.855726
1560.433073	-2.965100	3.428300	-10.164000	25.880199	0.000673	20.853782
1561.431110	-2.992000	3.426200	-10.250000	25.855827	0.000672	20.832144
1562.431697	-2.991600	3.425700	-10.247000	25.869739	0.000671	20.846593
1563.435489	-3.017600	3.425100	-10.334000	25.876397	0.000672	20.851384
1564.432204	-3.014800	3.425700	-10.326000	25.901138	0.000669	20.857747
1565.433850	-3.003100	3.425500	-10.285000	25.892541	0.000669	20.836784
1566.434055	-2.996000	3.426500	-10.265000	25.928113	0.000670	20.867776
1567.435075	-3.026100	3.425500	-10.364000	25.947763	0.000669	20.865706
1568.437403	-2.973000	3.425800	-10.183000	25.965773	0.000669	20.861041
1569.434163	-3.008600	3.423500	-10.298000	25.955141	0.000668	20.860791
1570.433831	-3.005000	3.424800	-10.290000	25.978838	0.000668	20.857097
1571.437588	-3.002400	3.422700	-10.276000	25.975136	0.000667	20.859068
1572.433987	-2.991400	3.423500	-10.240000	25.992151	0.000668	20.863834
1573.435904	-2.995700	3.423300	-10.254000	25.961872	0.000666	20.859967
1574.444043	-2.992000	3.422600	-10.240000	25.924512	0.000666	20.862263
1575.433750	-3.013600	3.422400	-10.313000	25.932064	0.000663	20.872219
1576.435389	-3.001500	3.420200	-10.265000	25.888294	0.000663	20.855749
1577.437809	-2.993500	3.421300	-10.241000	25.900889	0.000664	20.842324
1578.435671	-2.962400	3.422100	-10.137000	25.929655	0.000664	20.873592
1579.435438	-2.966700	3.420500	-10.147000	25.937379	0.000663	20.874714
1580.436052	-2.992500	3.419600	-10.232000	25.944760	0.000662	20.854155
1581.436239	-2.972900	3.420700	-10.168000	25.966740	0.000659	20.863909
1582.439409	-3.003100	3.419400	-10.268000	25.973201	0.000659	20.868977
1583.436091	-2.987500	3.419000	-10.213000	26.008871	0.000659	20.854554
1584.436479	-2.966800	3.419200	-10.143000	26.003879	0.000659	20.865186
1585.437846	-3.016300	3.418200	-10.308000	26.011257	0.000659	20.871175
1586.437854	-2.996400	3.418900	-10.243000	26.032966	0.000660	20.869279
1587.439152	-3.005900	3.419100	-10.277000	26.020174	0.000658	20.866859
1588.437241	-2.989200	3.417600	-10.215000	26.034408	0.000657	20.887322
1589.436917	-3.003000	3.416500	-10.259000	26.031327	0.000656	20.880434
1590.438806	-2.984400	3.417200	-10.197000	26.035204	0.000659	20.877217
1591.438240	-3.001000	3.417800	-10.256000	26.032498	0.000655	20.893463
1592.436810	-3.020500	3.415400	-10.315000	25.993353	0.000655	20.865042
1593.438816	-2.992900	3.416000	-10.223000	25.986447	0.000653	20.868535
1594.439928	-2.986600	3.415200	-10.198000	25.961584	0.000656	20.866790
1595.445209	-2.993100	3.415100	-10.221000	25.957287	0.000655	20.868162
1596.437136	-2.980300	3.415500	-10.177000	25.991566	0.000657	20.861825
1597.437384	-2.993400	3.413600	-10.218000	25.993827	0.000656	20.867415
1598.454196	-2.976200	3.414400	-10.160000	25.966926	0.000654	20.892543
1599.445784	-2.993900	3.413400	-10.219000	25.958952	0.000652	20.896386
1600.439791	-3.007900	3.413500	-10.265000	25.962283	0.000655	20.885982
1601.439578	-3.012300	3.412300	-10.279000	25.990352	0.000653	20.880044
1602.442843	-3.021500	3.411000	-10.305000	26.002351	0.000651	20.889253
1603.441943	-2.986300	3.412700	-10.190000	26.026943	0.000652	20.894520
1604.442978	-3.016300	3.411400	-10.289000	26.051681	0.000651	20.876702
1605.441947	-2.995500	3.410600	-10.215000	26.073463	0.000650	20.867294
1606.444988	-2.988600	3.410100	-10.189000	26.109702	0.000650	20.892325
1607.443009	-3.011000	3.411200	-10.269000	26.125299	0.000650	20.874807
1608.444101	-2.977400	3.410600	-10.153000	26.143853	0.000652	20.876855
1609.445334	-2.978800	3.409800	-10.157000	26.179317	0.000650	20.893524
1610.440789	-2.993500	3.409800	-10.205000	26.149592	0.000649	20.888784
1611.452370	-3.014200	3.408200	-10.272000	26.146659	0.000648	20.882994
1612.446740	-2.998100	3.409600	-10.221000	26.152297	0.000647	20.887236
1613.448134	-3.015300	3.406700	-10.271000	26.140154	0.000647	20.888784
1614.445406	-3.013900	3.407100	-10.268000	26.108911	0.000647	20.879677
1615.443936	-2.982900	3.408700	-10.166000	26.120137	0.000647	20.886689
1616.448951	-2.969700	3.408000	-10.120000	26.114824	0.000647	20.891782
1617.448193	-3.003000	3.406600	-10.229000	26.104715	0.000645	20.893003
1618.448890	-2.984200	3.406800	-10.165000	26.068974	0.000646	20.893602
1619.451108	-2.990200	3.406700	-10.186000	26.074216	0.000645	20.894128
1620.447357	-3.011100	3.405200	-10.252000	26.054719	0.000645	20.899668
1621.445195	-2.995500	3.405900	-10.201000	26.077097	0.000645	20.894177
1622.445188	-3.007400	3.404900	-10.238000	26.076104	0.000644	20.886542
1623.446451	-3.009700	3.404900	-10.246000	26.116640	0.000645	20.907829
1624.452856	-2.987800	3.405900	-10.175000	26.105265	0.000641	20.904935
1625.445172	-2.999600	3.404400	-10.210000	26.088548	0.000644	20.897148
1626.454094	-2.990400	3.404500	-10.180000	26.088449	0.000641	20.888041
1627.450573	-2.994800	3.402700	-10.190000	26.084376	0.000642	20.897697
1628.448423	-2.991300	3.403400	-10.177000	26.077818	0.000643	20.905806
1629.452507	-3.000900	3.403000	-10.211000	26.026802	0.000642	20.899593
1630.448038	-2.982700	3.401700	-10.145000	26.014906	0.000641	20.903289
1631.447000	-3.001900	3.402100	-10.212000	25.995532	0.000642	20.912272
1632.449584	-3.014900	3.400900	-10.253000	26.010261	0.000640	20.909527
1633.447742	-3.004800	3.401200	-10.219000	26.026705	0.000639	20.926520
1634.447890	-3.000100	3.400100	-10.200000	26.040339	0.000640	20.921727
1635.450711	-3.005200	3.399800	-10.216000	26.053903	0.000639	20.902641
1636.449796	-2.973800	3.401400	-10.114000	26.061526	0.000640	20.895602
1637.451366	-2.980800	3.399000	-10.131000	26.096200	0.000639	20.916214
1638.449190	-3.031300	3.397300	-10.298000	26.091629	0.000639	20.920156
1639.451543	-2.960600	3.400100	-10.065000	26.110604	0.000639	20.918359
1640.455350	-3.004000	3.399500	-10.210000	26.111945	0.000637	20.927766
1641.449657	-2.979700	3.399100	-10.127000	26.103600	0.000635	20.909899
1642.456446	-2.970800	3.397800	-10.093000	26.097612	0.000637	20.915262
1643.457046	-3.007800	3.397200	-10.218000	26.102778	0.000636	20.919504
1644.452103	-3.004600	3.396500	-10.204000	26.129304	0.000634	20.927191
1645.454772	-3.007500	3.397200	-10.217000	26.132781	0.000635	20.897022
1646.454876	-3.001900	3.396200	-10.193000	26.152748	0.000635	20.912343
1647.450619	-2.962400	3.398000	-10.065000	26.100668	0.000636	20.922125
1648.452526	-3.002000	3.395400	-10.193000	26.073320	0.000633	20.909347
1649.451175	-3.013300	3.394800	-10.228000	26.080547	0.000633	20.911393
1650.453019	-3.011100	3.394700	-10.220000	26.103820	0.000631	20.939515
1651.455925	-3.025600	3.393900	-10.266000	26.125451	0.000632	20.905304
1652.453394	-3.046100	3.393300	-10.335000	26.115468	0.000633	20.917556
1653.456023	-3.002000	3.393300	-10.185000	26.089412	0.000632	20.926937
1654.455604	-2.992400	3.394100	-10.155000	26.069840	0.000631	20.934297
1655.456647	-2.986400	3.394100	-10.135000	26.061992	0.000632	20.934947
1656.453796	-3.014600	3.392800	-10.227000	26.080916	0.000628	20.925512
1657.453858	-3.010100	3.392600	-10.212000	26.095174	0.000628	20.923717
1658.454892	-2.989500	3.392100	-10.140000	26.073836	0.000628	20.928355
1659.454018	-2.998700	3.392900	-10.173000	26.079152	0.000628	20.931326
1660.453416	-2.997000	3.391600	-10.163000	26.107417	0.000627	20.936017
1661.452930	-2.999400	3.390400	-10.168000	26.115736	0.000627	20.941056
1662.454002	-2.991600	3.391100	-10.144000	26.155199	0.000626	20.953681
1663.455259	-3.004900	3.390700	-10.188000	26.191881	0.000626	20.932697
1664.456059	-2.987400	3.391000	-10.129000	26.207452	0.000625	20.939334
1665.455899	-3.032700	3.390000	-10.280000	26.201065	0.000625	20.946665
1666.456599	-2.978700	3.389700	-10.095000	26.201143	0.000625	20.938210
1667.459155	-2.984200	3.390300	-10.116000	26.207028	0.000625	20.943649
1668.458423	-2.998300	3.390200	-10.164000	26.222374	0.000626	20.944845
1669.459814	-3.018600	3.388300	-10.227000	26.182986	0.000623	20.940827
1670.459042	-3.001100	3.389200	-10.170000	26.202952	0.000623	20.952829
1671.457105	-2.995000	3.388600	-10.147000	26.169228	0.000623	20.946442
1672.460056	-3.011900	3.387000	-10.200000	26.154301	0.000622	20.945193
1673.462393	-2.985500	3.388800	-10.116000	26.145235	0.000622	20.930869
1674.459061	-2.961500	3.389300	-10.035000	26.155070	0.000621	20.935062
1675.458510	-2.994100	3.387800	-10.143000	26.134480	0.000622	20.954199
1676.463777	-3.008500	3.385100	-10.183000	26.159341	0.000622	20.944568
1677.458210	-2.987300	3.387500	-10.119000	26.195351	0.000620	20.958940
1678.462004	-3.015500	3.384700	-10.205000	26.226096	0.000619	20.952377
1679.458086	-3.006900	3.385000	-10.178000	26.236575	0.000618	20.952951
1680.466133	-3.003500	3.385700	-10.167000	26.235978	0.000617	20.944765
1681.463045	-3.002100	3.384400	-10.160000	26.238759	0.000619	20.929070
1682.458631	-2.989700	3.386000	-10.122000	26.241541	0.000618	20.954622
1683.459393	-2.993400	3.385000	-10.131000	26.277845	0.000615	20.946061
1684.460700	-2.981100	3.383700	-10.085000	26.270718	0.000615	20.950279
1685.459894	-3.017900	3.383400	-10.208000	26.275956	0.000614	20.947482
1686.459577	-3.023000	3.381400	-10.220000	26.238856	0.000614	20.964251
1687.461742	-3.009700	3.383200	-10.181000	26.205180	0.000614	20.966445
1688.461411	-3.021600	3.380500	-10.214000	26.193335	0.000614	20.919934
1689.465627	-3.024200	3.381500	-10.226000	26.187699	0.000615	20.945562
1690.461956	-3.001400	3.382800	-10.151000	26.197781	0.000614	20.946211
1691.463058	-3.002400	3.381400	-10.152000	26.184145	0.000612	20.936777
1692.462030	-2.995300	3.379600	-10.122000	26.192439	0.000610	20.958858
1693.464188	-2.991200	3.380700	-10.111000	26.199716	0.000611	20.933932
1694.466828	-3.019600	3.380400	-10.206000	26.155907	0.000611	20.932584
1695.464083	-2.995800	3.379700	-10.124000	26.113164	0.000608	20.920931
1696.465276	-3.032900	3.379700	-10.246000	26.108146	0.000610	20.921579
1697.463455	-2.997300	3.379000	-10.127000	26.101688	0.000609	20.917461
1698.470993	-2.997800	3.379600	-10.130000	26.097466	0.000610	20.928390
1699.466572	-2.983400	3.378900	-10.080000	26.124464	0.000606	20.939396
1700.466115	-2.995800	3.379200	-10.123000	26.137230	0.000608	20.937050
1701.464909	-3.011700	3.378200	-10.173000	26.185260	0.000607	20.917036
1702.466051	-3.009600	3.377900	-10.165000	26.191369	0.000606	20.914167
1703.465334	-3.013700	3.377100	-10.177000	26.198744	0.000604	20.930111
1704.464143	-3.010800	3.376300	-10.164000	26.180715	0.000605	20.933330
1705.464303	-3.015300	3.376100	-10.179000	26.147859	0.000605	20.941565
1706.464137	-2.989800	3.376100	-10.093000	26.124487	0.000605	20.921877
1707.466407	-3.021600	3.375200	-10.198000	26.103005	0.000604	20.919258
1708.466223	-2.986800	3.376600	-10.084000	26.083830	0.000602	20.903786
1709.467414	-2.988100	3.375200	-10.084000	26.098261	0.000602	20.924448
1710.469179	-2.981700	3.374600	-10.061000	26.078095	0.000602	20.929315
1711.466924	-2.984200	3.375200	-10.071000	26.100101	0.000603	20.924400
1712.464168	-3.010200	3.373700	-10.153000	26.077227	0.000601	20.907109
1713.464639	-2.982400	3.374000	-10.062000	26.098514	0.000602	20.902419
1714.464959	-2.993500	3.372500	-10.093000	26.087784	0.000601	20.930042
1715.469852	-3.008500	3.372700	-10.145000	26.124221	0.000599	20.937728
1716.478347	-2.990000	3.372800	-10.083000	26.132393	0.000597	20.941198
1717.468844	-2.981300	3.372600	-10.053000	26.116845	0.000599	20.918466
1718.466268	-3.007000	3.373200	-10.142000	26.137388	0.000596	20.909236
1719.468439	-2.985600	3.372600	-10.067000	26.086623	0.000597	20.916549
1720.470514	-3.003100	3.370600	-10.121000	26.075322	0.000597	20.916099
1721.468308	-2.978200	3.372500	-10.043000	26.064892	0.000596	20.890450
1722.467062	-2.995900	3.369900	-10.095000	26.047780	0.000597	20.876576
1723.467740	-3.005500	3.370200	-10.129000	26.038218	0.000596	20.917699
1724.470043	-3.037400	3.368100	-10.229000	25.998725	0.000594	20.907420
1725.468917	-2.996100	3.369400	-10.095000	26.013357	0.000595	20.903155
1726.470598	-3.018000	3.368100	-10.164000	26.015394	0.000596	20.907571
1727.471588	-3.003800	3.369100	-10.118000	26.006353	0.000594	20.899437
1728.472839	-3.013000	3.368200	-10.148000	26.017258	0.000596	20.890006
1729.473072	-2.980800	3.369500	-10.042000	26.042670	0.000594	20.899890
1730.474055	-3.013300	3.367600	-10.147000	26.046916	0.000594	20.888035
1731.477776	-3.013900	3.367600	-10.148000	26.077965	0.000594	20.900264
1732.474463	-2.990300	3.366200	-10.065000	26.101931	0.000594	20.903482
1733.478378	-2.987700	3.369000	-10.064000	26.116858	0.000593	20.890507
1734.472719	-3.005100	3.365300	-10.111000	26.151034	0.000593	20.883596
1735.474533	-3.002600	3.367000	-10.109000	26.139286	0.000591	20.904506
1736.475976	-2.984600	3.367400	-10.049000	26.170481	0.000589	20.906929
1737.476718	-2.984300	3.366300	-10.045000	26.189605	0.000590	20.895326
1738.476324	-3.010000	3.365800	-10.131000	26.192335	0.000589	20.892854
1739.474546	-2.993400	3.364300	-10.070000	26.218114	0.000591	20.917808
1740.476397	-3.018900	3.365200	-10.158000	26.216303	0.000589	20.877111
1741.474979	-2.993100	3.365500	-10.071000	26.203785	0.000589	20.884446
1742.478049	-3.007900	3.363700	-10.116000	26.189183	0.000589	20.895376
1743.475787	-3.000700	3.364300	-10.094000	26.206196	0.000586	20.880705
1744.479578	-3.000400	3.363300	-10.090000	26.235176	0.000587	20.885171
1745.477499	-3.010700	3.363000	-10.124000	26.256137	0.000586	20.909077
1746.475239	-3.016800	3.362100	-10.142000	26.257676	0.000586	20.894030
1747.475800	-2.977600	3.362800	-10.011000	26.204758	0.000587	20.896328
1748.477025	-3.000500	3.362100	-10.086000	26.208083	0.000586	20.878809
1749.479383	-2.995400	3.362600	-10.072000	26.198251	0.000585	20.884575
1750.477798	-3.020100	3.361300	-10.150000	26.199668	0.000586	20.900696
1751.477517	-3.014600	3.360500	-10.130000	26.200635	0.000584	20.873695
1752.481560	-2.985400	3.361300	-10.034000	26.224153	0.000582	20.883577
1753.478148	-2.988300	3.361300	-10.043000	26.197010	0.000583	20.884276
1754.477523	-2.995500	3.360700	-10.066000	26.178931	0.000583	20.871800
1755.479202	-3.001000	3.358600	-10.078000	26.188716	0.000581	20.868831
1756.478951	-2.987100	3.360700	-10.038000	26.148482	0.000580	20.888618
1757.479527	-2.976100	3.360700	-10.000000	26.121906	0.000581	20.872821
1758.486639	-2.999800	3.358900	-10.076000	26.131000	0.000581	20.875794
1759.478880	-3.003400	3.359100	-10.088000	26.126205	0.000581	20.875717
1760.478955	-2.985900	3.359000	-10.029000	26.113093	0.000579	20.877241
1761.478312	-3.021200	3.356700	-10.140000	26.119724	0.000578	20.880111
1762.480213	-3.019000	3.357100	-10.134000	26.073799	0.000578	20.879959
1763.483634	-3.015400	3.356000	-10.119000	26.062774	0.000577	20.867934
1764.480675	-3.015900	3.356900	-10.122000	26.031974	0.000579	20.867808
1765.482626	-2.998700	3.356600	-10.063000	25.995338	0.000578	20.866562
1766.480157	-3.010600	3.356600	-10.105000	25.988929	0.000577	20.863916
1767.480928	-3.014300	3.355600	-10.113000	25.993203	0.000580	20.880537
1768.482821	-3.012100	3.354800	-10.104000	25.994693	0.000577	20.879189
1769.479528	-3.018100	3.354200	-10.122000	26.038309	0.000574	20.856630
1770.480348	-3.011900	3.354800	-10.104000	26.059943	0.000576	20.886425
1771.481316	-3.004700	3.354800	-10.079000	25.992581	0.000575	20.890816
1772.481407	-2.971400	3.355500	-9.969800	25.975864	0.000575	20.853636
1773.481847	-3.000000	3.354500	-10.063000	25.958699	0.000574	20.857253
1774.481609	-2.987000	3.354200	-10.018000	25.953458	0.000573	20.863367
1775.485977	-2.986000	3.353500	-10.013000	25.990594	0.000572	20.865114
1776.483072	-2.996900	3.353200	-10.048000	25.994046	0.000574	20.862893
1777.482800	-2.999200	3.353300	-10.055000	26.048990	0.000573	20.868309
1778.485066	-3.006900	3.352100	-10.076000	26.053484	0.000570	20.857653
1779.487422	-3.013700	3.351900	-10.100000	26.052590	0.000569	20.868607
1780.486198	-2.989800	3.352800	-10.024000	26.078246	0.000570	20.848394
1781.484999	-3.006700	3.352200	-10.078000	26.107331	0.000570	20.867659
1782.486347	-2.995300	3.351200	-10.035000	26.158816	0.000568	20.865812
1783.484573	-2.996600	3.350700	-10.040000	26.193486	0.000567	20.866512
1784.487380	-2.992200	3.350600	-10.024000	26.200513	0.000569	20.872624
1785.483724	-3.014200	3.351400	-10.101000	26.214122	0.000566	20.864489
1786.487489	-2.976200	3.350500	-9.971000	26.190157	0.000568	20.857003
1787.483359	-3.001500	3.349000	-10.051000	26.162340	0.000567	20.892585
1788.484726	-2.999400	3.349500	-10.045000	26.099505	0.000565	20.878287
1789.490895	-2.980400	3.349000	-9.980200	26.072308	0.000564	20.868978
1790.486100	-3.005300	3.348900	-10.063000	26.040640	0.000565	20.853756
1791.485654	-2.977100	3.349600	-9.970800	26.009789	0.000564	20.857374
1792.486345	-3.002700	3.349100	-10.056000	26.045631	0.000563	20.851659
1793.489278	-2.983200	3.348400	-9.987800	26.053901	0.000564	20.843847
1794.491103	-3.019500	3.347000	-10.106000	26.070291	0.000562	20.851780
1795.487697	-2.979500	3.347200	-9.970900	26.076526	0.000562	20.862786
1796.488021	-2.986900	3.348200	-9.999500	26.099722	0.000562	20.870445
1797.488363	-2.988400	3.346000	-9.997800	26.159602	0.000563	20.869921
1798.488088	-2.981400	3.346200	-9.975600	26.154162	0.000559	20.854024
1799.491819	-3.002800	3.345500	-10.045000	26.198391	0.000560	20.858639
1800.490249	-3.019300	3.344600	-10.098000	26.192855	0.000557	20.859714
1801.490726	-2.993100	3.345000	-10.011000	26.219054	0.000559	20.858066
1802.491941	-3.012900	3.344400	-10.076000	26.235070	0.000558	20.831962
1803.491210	-2.972900	3.345300	-9.944200	26.208622	0.000558	20.867023
1804.492786	-3.006600	3.344400	-10.055000	26.202688	0.000557	20.842094
1805.493070	-2.995600	3.344900	-10.019000	26.236012	0.000557	20.864201
1806.493550	-3.001900	3.344200	-10.038000	26.232612	0.000555	20.833285
1807.496243	-2.992600	3.343700	-10.004000	26.202288	0.000555	20.854969
1808.491656	-2.995200	3.342100	-10.010000	26.225334	0.000554	20.858687
1809.494983	-3.005500	3.342000	-10.044000	26.220441	0.000553	20.840494
1810.498690	-3.011400	3.341300	-10.061000	26.246198	0.000554	20.859264
1811.495541	-3.016200	3.341100	-10.076000	26.270035	0.000553	20.852873
1812.495383	-2.990800	3.341600	-9.992600	26.261814	0.000553	20.854569
1813.494780	-3.007100	3.340900	-10.045000	26.270381	0.000554	20.851325
1814.496487	-2.987400	3.342000	-9.982700	26.254786	0.000552	20.850826
1815.495422	-3.001300	3.340000	-10.023000	26.227520	0.000553	20.850453
1816.496397	-3.023000	3.339800	-10.095000	26.205764	0.000550	20.844238
1817.497990	-2.991100	3.340800	-9.991800	26.238643	0.000550	20.832707
1818.497294	-2.987000	3.338500	-9.971000	26.221858	0.000548	20.854720
1819.499825	-2.989700	3.338400	-9.979800	26.235890	0.000549	20.845113
1820.498780	-3.004600	3.337800	-10.028000	26.188058	0.000548	20.828817
1821.499578	-3.012700	3.337400	-10.052000	26.174772	0.000548	20.833009
1822.497464	-3.000900	3.338100	-10.015000	26.173975	0.000548	20.829838
1823.501330	-3.019200	3.336600	-10.073000	26.170550	0.000547	20.828767
1824.497194	-3.002400	3.336400	-10.016000	26.185077	0.000546	20.820605
1825.496390	-3.024000	3.334800	-10.083000	26.174026	0.000548	20.845536
1826.500278	-3.002300	3.335700	-10.014000	26.223818	0.000546	20.839146
1827.499698	-3.001400	3.336800	-10.014000	26.248180	0.000546	20.854619
1828.499059	-3.011000	3.335400	-10.042000	26.281728	0.000546	20.848503
1829.498694	-3.006500	3.335400	-10.026000	26.315823	0.000545	20.832983
1830.502631	-2.985500	3.333800	-9.952300	26.315428	0.000546	20.834956
1831.503557	-3.020000	3.333800	-10.066000	26.315080	0.000544	20.852623
1832.498722	-3.031000	3.333200	-10.103000	26.312968	0.000541	20.840544
1833.499096	-2.993200	3.334100	-9.977500	26.354387	0.000545	20.830488
1834.498163	-2.999100	3.334600	-9.999100	26.357317	0.000541	20.838173
1835.501489	-3.013000	3.334800	-10.047000	26.389472	0.000544	20.849153
1836.498350	-2.987000	3.335100	-9.960800	26.402928	0.000540	20.831384
1837.503317	-3.008100	3.334100	-10.028000	26.422594	0.000541	20.818908
1838.498451	-3.013600	3.333700	-10.046000	26.461502	0.000540	20.854219
1839.499382	-2.991700	3.332400	-9.968300	26.467037	0.000541	20.844136
1840.498203	-3.012900	3.332100	-10.038000	26.470312	0.000540	20.844584
1841.500292	-2.979900	3.333000	-9.931200	26.417776	0.000538	20.832556
1842.502035	-2.982500	3.331300	-9.934700	26.370300	0.000539	20.829885
1843.500418	-2.992400	3.331000	-9.966900	26.349964	0.000539	20.859232
1844.502479	-2.990300	3.331200	-9.959400	26.356071	0.000538	20.850197
1845.500732	-3.009800	3.330500	-10.023000	26.363718	0.000537	20.833227
1846.500555	-2.982400	3.330200	-9.930400	26.390063	0.000538	20.835998
1847.518964	-3.006200	3.329600	-10.008000	26.438529	0.000537	20.839665
1848.500735	-2.997600	3.330200	-9.981600	26.460106	0.000536	20.836696
1849.501006	-2.982500	3.330400	-9.930600	26.461245	0.000535	20.834522
1850.502885	-3.022600	3.327500	-10.055000	26.429241	0.000535	20.837441
1851.502657	-3.007700	3.327800	-10.008000	26.404015	0.000534	20.830105
1852.501141	-3.013900	3.328000	-10.030000	26.319813	0.000533	20.819923
1853.505541	-3.016700	3.327500	-10.036000	26.292943	0.000533	20.816153
1854.502297	-3.008300	3.327300	-10.007000	26.253086	0.000532	20.844850
1855.504928	-2.987300	3.326900	-9.936300	26.242182	0.000531	20.842428
1856.502050	-2.977300	3.326800	-9.903600	26.222365	0.000531	20.826307
1857.503533	-3.022100	3.323600	-10.043000	26.256955	0.000533	20.807962
1858.507101	-3.029400	3.325100	-10.072000	26.318191	0.000530	20.828249
1859.504886	-2.995900	3.324800	-9.960200	26.315735	0.000531	20.831471
1860.508018	-2.991500	3.325200	-9.946400	26.249581	0.000530	20.828052
1861.504991	-3.007500	3.324700	-9.998100	26.232544	0.000527	20.821837
1862.505027	-3.036700	3.322500	-10.089000	26.208927	0.000527	20.828924
1863.510115	-2.986100	3.326100	-9.931500	26.194252	0.000527	20.823661
1864.507030	-3.001600	3.324800	-9.978600	26.221170	0.000527	20.827477
1865.510936	-2.998800	3.323600	-9.965200	26.265102	0.000526	20.825158
1866.509450	-2.987000	3.324100	-9.928200	26.285215	0.000525	20.803645
1867.509628	-2.992900	3.322600	-9.943200	26.285215	0.000525	20.815025
1868.510351	-2.985300	3.322100	-9.916600	26.297907	0.000526	20.817348
1869.507416	-3.001000	3.322100	-9.967800	26.339749	0.000526	20.834268
1870.509732	-3.005500	3.321600	-9.981600	26.340393	0.000525	20.831597
1871.509198	-3.012400	3.320700	-10.002000	26.369520	0.000525	20.824361
1872.509154	-3.006600	3.320200	-9.980800	26.367089	0.000524	20.809589
1873.510704	-2.990600	3.321300	-9.931400	26.364879	0.000522	20.821118
1874.511350	-2.990900	3.321000	-9.932200	26.388095	0.000523	20.828804
1875.511133	-3.007600	3.321000	-9.987300	26.378537	0.000522	20.826785
1876.510613	-2.985700	3.320600	-9.912500	26.364730	0.000522	20.796313
1877.509805	-3.001400	3.319400	-9.962100	26.371263	0.000521	20.837491
1878.510564	-3.003800	3.319300	-9.968800	26.392369	0.000522	20.819823
1879.512163	-3.010200	3.318000	-9.986000	26.361133	0.000519	20.817353
1880.517441	-3.009700	3.317800	-9.983100	26.412084	0.000523	20.834422
1881.514403	-3.001600	3.318200	-9.958800	26.382239	0.000521	20.839514
1882.510928	-3.003500	3.317600	-9.963400	26.416553	0.000519	20.834172
1883.512506	-3.007300	3.316600	-9.972100	26.407663	0.000518	20.811488
1884.516385	-3.009800	3.317600	-9.984000	26.445107	0.000518	20.847698
1885.511222	-3.019500	3.316100	-10.011000	26.451240	0.000519	20.823517
1886.512639	-3.003500	3.315300	-9.957100	26.427677	0.000517	20.812163
1887.511054	-3.025100	3.315100	-10.026000	26.442352	0.000515	20.809369
1888.511830	-3.014100	3.315700	-9.992300	26.464772	0.000515	20.814359
1889.513889	-2.998900	3.314700	-9.938400	26.482871	0.000517	20.815956
1890.511482	-2.997300	3.314000	-9.931800	26.495830	0.000515	20.800533
1891.511899	-3.001300	3.315100	-9.948200	26.518398	0.000516	20.808519
1892.510733	-2.984200	3.314600	-9.890200	26.549829	0.000513	20.809767
1893.512379	-2.986600	3.315400	-9.900600	26.596275	0.000512	20.806670
1894.511250	-3.025800	3.311000	-10.017000	26.555166	0.000515	20.822718
1895.513965	-2.967000	3.313800	-9.831200	26.521673	0.000509	20.807544
1896.512482	-2.987400	3.313600	-9.897800	26.496349	0.000511	20.820969
1897.514560	-3.004800	3.312800	-9.953400	26.505386	0.000508	20.837164
1898.511992	-2.978400	3.313600	-9.867000	26.525373	0.000508	20.815529
1899.514067	-3.000000	3.311700	-9.933500	26.529618	0.000508	20.811736
1900.515303	-3.005600	3.313300	-9.957500	26.550198	0.000509	20.813457
1901.512171	-2.997200	3.311100	-9.922300	26.565987	0.000508	20.825534
1902.515366	-3.007400	3.309800	-9.952200	26.550447	0.000507	20.804699
1903.513121	-3.020600	3.309100	-9.993100	26.560005	0.000505	20.819047
1904.513745	-3.010700	3.309900	-9.964300	26.531876	0.000506	20.813532
1905.515552	-2.996300	3.309500	-9.915500	26.483388	0.000505	20.822166
1906.516975	-3.005400	3.309600	-9.944800	26.452626	0.000505	20.832497
1907.517952	-3.007600	3.308600	-9.948800	26.440684	0.000504	20.829503
1908.514437	-3.009500	3.308700	-9.955800	26.459379	0.000505	20.826483
1909.514305	-3.020400	3.308600	-9.992000	26.469883	0.000503	20.831350
1910.515378	-3.022100	3.308400	-9.997100	26.469881	0.000502	20.810012
1911.518061	-3.017100	3.307300	-9.977200	26.439119	0.000504	20.827456
1912.516080	-3.004500	3.307500	-9.936500	26.427896	0.000503	20.819495
1913.518017	-2.985000	3.307600	-9.871100	26.473877	0.000504	20.828727
1914.515800	-2.994200	3.307200	-9.900100	26.487681	0.000503	20.822214
1915.515350	-3.008300	3.304900	-9.940500	26.515068	0.000500	20.835042
1916.518403	-2.991000	3.305100	-9.884800	26.533687	0.000500	20.835266
1917.516076	-3.001400	3.304700	-9.916900	26.544981	0.000499	20.825282
1918.513163	-3.001900	3.304300	-9.918500	26.528919	0.000500	20.811507
1919.517049	-3.006700	3.305700	-9.938100	26.499697	0.000500	20.824334
1920.516448	-2.991100	3.304900	-9.884100	26.474271	0.000496	20.836235
1921.516854	-3.010300	3.303600	-9.943400	26.478445	0.000498	20.830947
1922.519389	-3.011300	3.303700	-9.947500	26.462531	0.000498	20.834392
1923.519219	-3.023000	3.302400	-9.982000	26.500541	0.000497	20.800527
1924.521391	-3.020900	3.303100	-9.977500	26.547986	0.000495	20.814078
1925.519976	-2.993100	3.303200	-9.886300	26.487856	0.000493	20.829027
1926.521998	-3.005400	3.300900	-9.919300	26.532519	0.000495	20.817497
1927.523606	-2.994700	3.301300	-9.884100	26.537459	0.000493	20.794961
1928.520717	-3.011300	3.300800	-9.938000	26.525519	0.000493	20.825634
1929.521095	-3.011200	3.301000	-9.938600	26.567450	0.000492	20.834117
1930.518771	-2.996700	3.300500	-9.889800	26.569015	0.000491	20.845647
1931.521261	-3.012400	3.299400	-9.938000	26.572142	0.000491	20.840256
1932.522299	-3.003500	3.300200	-9.910900	26.577480	0.000490	20.836139
1933.521513	-3.015800	3.298500	-9.945600	26.594807	0.000489	20.843599
1934.520742	-3.008300	3.300100	-9.926900	26.591234	0.000488	20.827680
1935.519900	-2.999800	3.300500	-9.899600	26.567476	0.000488	20.823238
1936.521986	-3.007800	3.298500	-9.920100	26.551412	0.000488	20.812780
1937.524323	-3.013800	3.298400	-9.939200	26.518444	0.000488	20.804297
1938.524273	-2.990400	3.298500	-9.863100	26.504192	0.000487	20.821265
1939.522391	-2.989800	3.299000	-9.862400	26.459031	0.000486	20.822814
1940.524976	-3.001400	3.297000	-9.894800	26.448579	0.000485	20.846446
1941.521941	-3.010600	3.298300	-9.928800	26.462210	0.000487	20.841655
1942.523513	-2.979400	3.297300	-9.822900	26.491035	0.000486	20.835541
1943.525746	-2.995900	3.297000	-9.875900	26.494411	0.000485	20.818547
1944.522577	-2.993300	3.298000	-9.870300	26.529318	0.000484	20.815227
1945.523261	-3.008600	3.296100	-9.915600	26.560798	0.000483	20.845922
1946.524014	-2.998000	3.295700	-9.880400	26.608339	0.000482	20.842030
1947.527329	-3.008600	3.296100	-9.915800	26.613577	0.000485	20.819795
1948.529325	-3.004900	3.295300	-9.899700	26.650045	0.000482	20.829429
1949.524823	-3.015100	3.294800	-9.933300	26.676011	0.000484	20.833721
1950.524217	-3.015300	3.293100	-9.928100	26.687627	0.000481	20.838286
1951.524091	-3.005200	3.293600	-9.896500	26.698574	0.000481	20.839334
1952.524327	-3.010600	3.293400	-9.913700	26.690160	0.000479	20.836092
1953.529662	-2.995300	3.294200	-9.866300	26.691524	0.000481	20.838411
1954.525843	-3.003700	3.294200	-9.893100	26.691573	0.000479	20.862167
1955.527722	-2.992700	3.292500	-9.852500	26.675587	0.000477	20.859846
1956.524949	-2.998400	3.291700	-9.868600	26.715081	0.000479	20.858774
1957.527616	-2.952000	3.293900	-9.720900	26.673004	0.000477	20.847767
1958.526972	-2.963500	3.292500	-9.756100	26.661934	0.000477	20.843276
1959.528426	-2.983300	3.291500	-9.818200	26.649074	0.000476	20.836512
1960.529073	-2.982500	3.289900	-9.811400	26.668957	0.000474	20.857923
1961.531070	-3.005100	3.289800	-9.884700	26.682485	0.000475	20.842126
1962.527063	-3.012100	3.290100	-9.909500	26.685364	0.000475	20.843124
1963.526891	-2.994000	3.289500	-9.847600	26.714358	0.000473	20.858047
1964.530753	-2.992500	3.288800	-9.840100	26.721033	0.000474	20.852430
1965.527075	-3.011800	3.288600	-9.903700	26.738607	0.000471	20.840227
1966.528196	-2.995900	3.288800	-9.851700	26.747469	0.000473	20.858619
1967.539945	-2.988800	3.288600	-9.827900	26.735032	0.000470	20.875986
1968.526134	-2.991600	3.287200	-9.832500	26.728876	0.000473	20.857944
1969.530954	-3.005800	3.286500	-9.877700	26.750121	0.000468	20.864605
1970.526970	-3.009200	3.286600	-9.888000	26.763053	0.000470	20.835408
1971.528327	-2.997800	3.286000	-9.849000	26.772856	0.000470	20.857591
1972.529305	-2.990100	3.287000	-9.826700	26.807482	0.000468	20.842619
1973.529510	-2.965500	3.286900	-9.746400	26.843519	0.000466	20.868895
1974.530225	-2.978200	3.285400	-9.783700	26.843295	0.000467	20.862032
1975.535170	-2.983400	3.285400	-9.799800	26.865508	0.000466	20.860185
1976.531023	-2.983000	3.284700	-9.796900	26.857963	0.000466	20.847383
1977.532136	-2.992700	3.283500	-9.825500	26.799860	0.000468	20.856292
1978.532407	-3.006200	3.284500	-9.873200	26.779184	0.000465	20.863005
1979.532678	-2.988200	3.284300	-9.813100	26.797055	0.000465	20.861533
1980.535198	-3.010500	3.282600	-9.881700	26.790476	0.000463	20.877676
1981.532816	-3.000500	3.283600	-9.850100	26.796930	0.000462	20.877053
1982.531977	-2.999200	3.283100	-9.846200	26.790103	0.000462	20.866396
1983.532934	-3.015000	3.283400	-9.898600	26.795837	0.000461	20.854144
1984.538527	-3.001000	3.283500	-9.851500	26.778684	0.000461	20.877200
1985.534020	-2.995100	3.282200	-9.830100	26.828250	0.000461	20.866345
1986.532569	-3.001200	3.281700	-9.847900	26.871437	0.000460	20.868991
1987.533027	-3.011500	3.280700	-9.878300	26.853244	0.000459	20.853069
1988.532076	-2.984500	3.281700	-9.793400	26.890050	0.000459	20.880594
1989.533238	-2.991800	3.280200	-9.812100	26.884093	0.000459	20.879345
1990.531883	-2.983500	3.281700	-9.789100	26.862947	0.000457	20.863300
1991.535113	-2.984700	3.280500	-9.789900	26.848427	0.000456	20.868140
1992.532385	-2.986500	3.279800	-9.793900	26.865004	0.000456	20.875325
1993.535050	-3.003300	3.278300	-9.843900	26.871234	0.000456	20.846977
1994.532519	-3.003500	3.278500	-9.845300	26.858254	0.000454	20.878020
1995.532930	-3.002400	3.278000	-9.840200	26.878706	0.000457	20.888153
1996.536300	-2.980400	3.278600	-9.771400	26.852323	0.000455	20.851196
1997.533630	-3.004300	3.277800	-9.846800	26.840458	0.000454	20.875300
1998.536283	-2.989600	3.277600	-9.798100	26.840856	0.000453	20.887553
1999.532736	-3.030600	3.276000	-9.927500	26.839936	0.000452	20.885679
2000.534581	-2.994700	3.276300	-9.810600	26.842419	0.000452	20.884857
2001.537299	-2.983800	3.276400	-9.774300	26.834526	0.000449	20.889722
2002.535776	-3.010600	3.274700	-9.857300	26.851426	0.000451	20.874948
2003.535179	-3.017000	3.275400	-9.880700	26.863514	0.000450	20.895636
2004.534178	-2.979600	3.274600	-9.756000	26.856416	0.000448	20.871905
2005.535729	-3.019800	3.273500	-9.883600	26.858376	0.000447	20.862023
2006.535099	-2.972700	3.276600	-9.739000	26.880117	0.000448	20.887201
2007.539200	-2.994400	3.274700	-9.805600	26.874211	0.000446	20.877944
2008.536436	-2.986800	3.275500	-9.782200	26.926376	0.000448	20.882508
2009.538395	-3.006300	3.272100	-9.835700	26.912057	0.000447	20.888023
2010.536187	-2.998600	3.272400	-9.810400	26.921414	0.000446	20.909758
2011.536142	-2.983000	3.274600	-9.767500	26.924564	0.000446	20.893487
2012.535063	-3.006000	3.271500	-9.832700	26.904138	0.000445	20.891440
2013.534795	-3.007800	3.272300	-9.841700	26.903195	0.000443	20.889069
2014.537722	-3.005100	3.271000	-9.827700	26.905602	0.000443	20.883903
2015.534987	-2.994800	3.272300	-9.797500	26.894110	0.000443	20.901270
2016.535387	-2.969500	3.271400	-9.713700	26.909224	0.000442	20.873796
2017.542154	-2.999900	3.270900	-9.811200	26.933594	0.000440	20.892136
2018.535788	-2.996500	3.270500	-9.798800	26.911259	0.000441	20.887220
2019.537178	-2.997100	3.269300	-9.797200	26.936794	0.000438	20.905310
2020.535989	-3.000700	3.268900	-9.808500	26.944437	0.000436	20.900668
2021.536626	-3.026200	3.268300	-9.888400	26.940964	0.000437	20.913295
2022.536908	-3.010400	3.269800	-9.840900	26.930837	0.000438	20.896475
2023.540201	-3.008200	3.269000	-9.832900	26.927732	0.000437	20.889087
2024.536093	-3.005200	3.267500	-9.817600	26.939100	0.000438	20.914740
2025.541378	-2.993100	3.267400	-9.778700	27.006650	0.000435	20.895426
2026.538607	-2.993000	3.268000	-9.779900	26.966325	0.000435	20.901341
2027.536551	-3.024200	3.268300	-9.881900	26.957241	0.000436	20.906904
2028.539612	-2.998700	3.266400	-9.793900	26.961038	0.000434	20.895076
2029.538170	-2.991300	3.265400	-9.766600	26.951560	0.000432	20.895502
2030.540950	-3.001800	3.265000	-9.799000	26.954908	0.000432	20.888913
2031.542136	-2.991500	3.264200	-9.764200	26.943046	0.000432	20.907328
2032.540076	-2.994500	3.265500	-9.776800	26.888125	0.000431	20.900941
2033.540369	-2.998500	3.263100	-9.782600	26.856380	0.000431	20.902687
2034.539153	-2.995400	3.264400	-9.776600	26.851020	0.000431	20.907254
2035.539017	-2.999100	3.263300	-9.785600	26.894430	0.000430	20.919133
2036.539588	-3.003600	3.264000	-9.801800	26.948753	0.000430	20.894103
2037.540028	-3.021000	3.263700	-9.858700	26.951212	0.000428	20.913643
2038.548181	-3.017600	3.263200	-9.845600	26.947093	0.000428	20.909976
2039.540195	-3.014200	3.261800	-9.830100	26.952428	0.000428	20.884997
2040.540051	-3.011500	3.261900	-9.820700	26.938927	0.000428	20.914092
2041.540598	-3.008900	3.260900	-9.809900	26.968139	0.000427	20.924499
2042.540704	-2.996800	3.261300	-9.772600	26.982236	0.000426	20.914495
2043.541029	-3.004500	3.260000	-9.793500	26.994843	0.000426	20.916267
2044.543272	-3.013100	3.260800	-9.824000	27.055418	0.000425	20.918863
2045.540265	-3.007700	3.259900	-9.803400	27.042713	0.000426	20.913199
2046.540705	-3.003800	3.259300	-9.788800	27.035816	0.000422	20.909108
2047.541059	-3.002200	3.258900	-9.782700	27.060059	0.000423	20.923056
2048.542419	-3.000300	3.257700	-9.773100	27.067106	0.000422	20.933461
2049.547094	-3.003100	3.260300	-9.788400	27.074452	0.000421	20.911928
2050.542006	-2.987000	3.259000	-9.733700	27.105270	0.000421	20.923006
2051.542707	-3.016900	3.257600	-9.826500	27.089590	0.000420	20.931891
2052.542966	-2.974800	3.259200	-9.695000	27.073336	0.000419	20.927873
2053.545183	-3.011800	3.255700	-9.804900	27.061080	0.000422	20.929297
2054.544481	-2.993000	3.258000	-9.749900	27.068077	0.000418	20.919740
2055.544174	-2.985900	3.256600	-9.722800	27.092048	0.000415	20.924407
2056.545210	-3.021500	3.254400	-9.831600	27.111132	0.000417	20.924160
2057.544090	-2.992900	3.254900	-9.740700	27.134779	0.000416	20.912856
2058.545267	-3.007900	3.254300	-9.787200	27.110784	0.000413	20.918595
2059.547164	-2.992300	3.255300	-9.739500	27.081904	0.000414	20.917050
2060.548035	-2.991400	3.256100	-9.739800	27.067410	0.000413	20.938981
2061.544129	-2.992100	3.253500	-9.734600	27.100614	0.000413	20.918798
2062.547351	-2.992500	3.254300	-9.736200	27.113763	0.000412	20.923013
2063.548148	-3.016800	3.251800	-9.807600	27.125576	0.000413	20.920195
2064.552154	-2.993100	3.253200	-9.735800	27.121310	0.000411	20.932499
2065.549558	-3.006800	3.250500	-9.772900	27.122055	0.000412	20.938937
2066.553702	-2.985200	3.253000	-9.709600	27.107366	0.000410	20.922269
2067.551479	-3.008500	3.250900	-9.777300	27.095555	0.000409	20.933149
2068.551259	-3.006300	3.252400	-9.776100	27.098507	0.000410	20.929006
2069.555763	-3.000600	3.251600	-9.754400	27.103893	0.000406	20.930155
2070.554431	-2.996600	3.250900	-9.740500	27.105134	0.000407	20.915758
2071.553423	-3.027700	3.249700	-9.837100	27.117591	0.000405	20.936819
2072.553448	-2.998300	3.250400	-9.744600	27.097467	0.000403	20.923693
2073.553620	-3.008700	3.249600	-9.774900	27.070594	0.000403	20.960199
2074.553674	-2.994000	3.249400	-9.727400	27.061984	0.000403	20.943007
2075.554668	-3.008200	3.249500	-9.774300	27.040197	0.000402	20.946700
2076.553278	-3.008900	3.248400	-9.773400	27.024564	0.000403	20.927662
2077.555473	-3.002400	3.248400	-9.752000	26.991734	0.000401	20.927364
2078.554790	-2.997500	3.246600	-9.730700	26.943367	0.000401	20.949373
2079.554380	-2.991400	3.246800	-9.710400	26.948900	0.000400	20.950195
2080.557311	-2.994800	3.246100	-9.720600	26.999848	0.000400	20.946901
2081.554885	-3.012300	3.245700	-9.776500	27.004341	0.000398	20.943359
2082.557078	-3.002400	3.245900	-9.744100	27.046429	0.000398	20.947752
2083.555681	-3.017600	3.243400	-9.786000	27.041815	0.000398	20.944060
2084.555686	-2.995100	3.245500	-9.718500	26.993399	0.000395	20.943735
2085.556835	-2.995400	3.245500	-9.720300	26.976972	0.000395	20.934804
2086.558975	-3.002000	3.245100	-9.740700	26.981490	0.000396	20.952146
2087.554105	-2.995700	3.244100	-9.717300	27.026951	0.000395	20.931959
2088.556233	-2.990300	3.244300	-9.700000	27.016082	0.000397	20.968913
2089.557948	-2.987100	3.245000	-9.691900	26.975358	0.000395	20.938870
2090.557056	-2.988900	3.243900	-9.695300	26.994815	0.000394	20.931410
2091.560115	-2.987800	3.241900	-9.685100	27.033083	0.000392	20.942865
2092.556082	-3.009700	3.241100	-9.753500	27.053280	0.000393	20.955589
2093.557694	-2.996200	3.241500	-9.712000	27.043602	0.000392	20.948702
2094.556487	-2.994200	3.240300	-9.700500	27.045094	0.000391	20.948306
2095.555034	-3.009300	3.240000	-9.749000	27.083034	0.000392	20.939996
2096.559231	-2.981200	3.241400	-9.662300	27.098891	0.000390	20.972060
2097.558484	-2.991100	3.239700	-9.689300	27.081371	0.000389	20.947331
2098.561405	-3.001500	3.239600	-9.722700	27.066459	0.000390	20.966470
2099.559425	-3.012000	3.238500	-9.754000	27.096880	0.000390	20.966245
2100.560935	-3.004400	3.238800	-9.728500	27.115217	0.000386	20.975677
2101.563272	-2.984400	3.237900	-9.661200	27.130799	0.000387	20.970013
2102.563024	-2.981600	3.238800	-9.656100	27.145216	0.000386	20.942317
2103.561763	-3.000200	3.237800	-9.713000	27.158217	0.000385	20.978146
2104.563669	-2.983800	3.239300	-9.664900	27.183252	0.000386	20.963026
2105.562611	-3.000600	3.237900	-9.715400	27.158017	0.000383	20.952819
2106.563894	-3.016700	3.236600	-9.763000	27.140821	0.000383	20.952120
2107.566916	-2.998800	3.235100	-9.700200	27.133453	0.000383	20.967940
2108.563249	-3.009600	3.235200	-9.735400	27.148837	0.000383	20.966818
2109.565628	-2.995200	3.235200	-9.688700	27.131244	0.000382	20.964297
2110.564350	-2.997100	3.233300	-9.689800	27.162458	0.000378	20.964396
2111.563657	-2.967700	3.235000	-9.599500	27.179030	0.000381	20.966839
2112.565466	-3.006100	3.233800	-9.719700	27.218480	0.000378	20.967638
2113.568568	-2.997100	3.232300	-9.685400	27.221333	0.000379	20.980463
2114.563107	-2.999800	3.233600	-9.699100	27.242668	0.000377	20.959726
2115.563847	-3.026100	3.232300	-9.780000	27.224753	0.000375	20.959250
2116.565636	-3.010900	3.231700	-9.729000	27.213715	0.000376	20.977543
2117.563222	-2.995000	3.231800	-9.677800	27.224656	0.000377	20.957731
2118.566330	-3.014700	3.232300	-9.742700	27.221851	0.000374	20.977191
2119.565287	-2.997400	3.231400	-9.686000	27.256262	0.000375	20.959176
2120.565926	-3.004300	3.229400	-9.701600	27.234430	0.000373	20.962819
2121.564174	-3.004900	3.230000	-9.705100	27.262563	0.000370	20.957928
2122.564131	-2.987700	3.230800	-9.651300	27.300918	0.000371	20.970428
2123.564334	-2.968300	3.229700	-9.585800	27.281540	0.000370	20.967058
2124.563414	-2.988300	3.229600	-9.649800	27.258344	0.000371	20.961743
2125.565598	-2.978100	3.227800	-9.611500	27.255290	0.000371	20.952982
2126.564881	-2.995100	3.226700	-9.662900	27.262410	0.000368	20.971521
2127.564459	-2.995700	3.227800	-9.669100	27.294686	0.000368	20.971271
2128.563538	-2.994700	3.227900	-9.665800	27.308804	0.000368	20.937114
2129.567578	-3.010000	3.226700	-9.711300	27.320712	0.000367	20.968054
2130.568063	-2.996300	3.226200	-9.665800	27.358391	0.000368	20.959966
2131.565114	-3.003400	3.226500	-9.689800	27.376254	0.000365	20.949962
2132.563818	-2.997300	3.226000	-9.668400	27.417879	0.000366	20.937785
2133.565030	-3.014200	3.223700	-9.715300	27.438965	0.000364	20.956150
2134.567966	-3.012100	3.223500	-9.708500	27.436036	0.000364	20.967901
2135.564878	-2.985200	3.225100	-9.626400	27.421004	0.000362	20.964158
2136.568128	-3.003700	3.223300	-9.680800	27.391484	0.000364	20.961487
2137.566192	-3.000900	3.224300	-9.674600	27.356208	0.000364	20.948288
2138.565982	-2.987000	3.223200	-9.626200	27.371117	0.000362	20.948588
2139.569121	-3.009600	3.222500	-9.696100	27.358365	0.000361	20.943346
2140.567699	-3.019600	3.222700	-9.729800	27.353328	0.000360	20.940651
2141.567599	-2.984000	3.222400	-9.615600	27.352882	0.000358	20.957269
2142.566727	-2.997800	3.221200	-9.654300	27.337377	0.000359	20.964430
2143.568343	-2.966200	3.220900	-9.552600	27.329784	0.000357	20.933088
2144.569335	-2.980000	3.220600	-9.595700	27.360172	0.000355	20.954172
2145.571774	-3.013000	3.221300	-9.705000	27.397581	0.000357	20.952924
2146.569882	-3.006500	3.220900	-9.683100	27.372178	0.000354	20.937802
2147.568182	-3.008800	3.218400	-9.683300	27.397531	0.000353	20.949555
2148.571536	-2.980700	3.222200	-9.602400	27.418990	0.000354	20.960236
2149.569540	-2.984500	3.219400	-9.608300	27.398101	0.000352	20.932587
2150.570034	-2.998900	3.218900	-9.652000	27.369100	0.000352	20.937076
2151.570497	-2.989900	3.217300	-9.618300	27.320131	0.000351	20.952299
2152.572762	-2.983500	3.216400	-9.594900	27.302392	0.000352	20.923079
2153.570535	-2.978000	3.217100	-9.579300	27.315790	0.000350	20.947932
2154.570419	-3.019000	3.215000	-9.704700	27.288498	0.000349	20.940869
2155.572905	-3.006700	3.214400	-9.663700	27.314596	0.000348	20.959058
2156.569154	-2.988600	3.214500	-9.606600	27.342406	0.000346	20.921605
2157.571301	-2.978500	3.215100	-9.574400	27.368801	0.000348	20.941043
2158.569234	-3.028500	3.212200	-9.726000	27.404795	0.000347	20.922727
2159.568758	-2.998500	3.213600	-9.635800	27.409881	0.000346	20.958185
2160.573021	-2.972100	3.213400	-9.549400	27.426848	0.000346	20.952496
2161.573055	-2.994700	3.213400	-9.621600	27.481099	0.000342	20.961081
2162.571143	-2.993800	3.213400	-9.619600	27.494542	0.000343	20.946159
2163.572017	-3.012600	3.211500	-9.673400	27.489780	0.000343	20.925723
2164.572166	-2.986900	3.211600	-9.591300	27.496503	0.000342	20.939598
2165.572040	-3.002600	3.213100	-9.646000	27.475170	0.000342	20.922404
2166.575599	-3.006700	3.210400	-9.650700	27.482142	0.000340	20.920884
2167.571829	-2.988500	3.209400	-9.590600	27.467086	0.000340	20.961681
2168.572890	-2.992400	3.208400	-9.599400	27.478944	0.000340	20.937579
2169.572694	-3.027600	3.207900	-9.710900	27.465725	0.000338	20.935185
2170.570768	-3.015300	3.208600	-9.673500	27.461432	0.000336	20.932289
2171.571385	-2.996400	3.207900	-9.611700	27.486438	0.000337	20.955074
2172.570840	-2.995600	3.207000	-9.605800	27.498642	0.000337	20.936061
2173.569777	-2.986800	3.207200	-9.578300	27.534757	0.000335	20.923086
2174.570436	-2.994200	3.206900	-9.600600	27.560528	0.000336	20.926255
2175.571399	-3.000500	3.205000	-9.614700	27.542573	0.000336	20.915777
2176.571908	-2.989000	3.206600	-9.582700	27.519853	0.000335	20.931323
2177.575237	-3.017000	3.204400	-9.666900	27.525805	0.000333	20.921191
2178.574067	-3.007500	3.205400	-9.639200	27.467615	0.000332	20.917175
2179.571322	-2.966600	3.205500	-9.508300	27.486296	0.000332	20.919847
2180.573643	-2.984200	3.204900	-9.563400	27.506139	0.000331	20.924164
2181.576347	-3.012300	3.202500	-9.645500	27.477491	0.000332	20.915731
2182.575674	-2.999600	3.203400	-9.608200	27.493541	0.000330	20.924292
2183.577142	-2.996200	3.202900	-9.595100	27.467695	0.000329	20.918203
2184.573377	-2.977300	3.203800	-9.538400	27.447281	0.000329	20.931329
2185.573704	-2.979600	3.203400	-9.543200	27.430190	0.000328	20.910818
2186.577496	-2.995700	3.202800	-9.593800	27.449787	0.000326	20.908723
2187.571774	-3.014600	3.200700	-9.648000	27.473972	0.000327	20.897967
2188.573794	-2.992500	3.202000	-9.580200	27.478215	0.000327	20.906977
2189.573904	-2.995900	3.199900	-9.585100	27.475535	0.000327	20.914238
2190.574521	-2.986800	3.201700	-9.562000	27.450927	0.000326	20.901810
2191.573985	-2.999600	3.200300	-9.599000	27.482382	0.000325	20.913540
2192.576139	-2.975600	3.201000	-9.524300	27.505648	0.000326	20.919403
2193.575567	-2.993500	3.199000	-9.574800	27.536655	0.000323	20.899867
2194.574055	-3.021900	3.197300	-9.660900	27.561903	0.000324	20.909623
2195.575996	-2.996800	3.197700	-9.581900	27.581548	0.000323	20.906629
2196.574008	-3.004900	3.196900	-9.605000	27.605980	0.000323	20.899919
2197.576625	-2.988600	3.195900	-9.550400	27.605212	0.000323	20.891087
2198.575142	-3.022300	3.196800	-9.660600	27.563841	0.000321	20.909676
2199.578777	-2.989800	3.195500	-9.552900	27.543950	0.000320	20.918111
2200.574094	-3.000900	3.194500	-9.585500	27.491614	0.000320	20.923775
2201.576694	-2.988800	3.197600	-9.556400	27.498609	0.000318	20.907107
2202.579437	-2.984800	3.194200	-9.533400	27.483777	0.000319	20.915891
2203.579479	-3.005800	3.193700	-9.598300	27.466489	0.000318	20.892337
2204.575732	-3.035100	3.191000	-9.683800	27.518876	0.000320	20.906161
2205.575870	-2.992400	3.193600	-9.555900	27.525894	0.000317	20.908954
2206.574808	-2.986900	3.191800	-9.533100	27.545911	0.000316	20.911550
2207.575401	-3.008500	3.190600	-9.598000	27.583290	0.000314	20.905537
2208.578440	-3.008000	3.189900	-9.594100	27.605263	0.000313	20.900146
2209.577806	-2.988800	3.192000	-9.539400	27.633290	0.000312	20.898475
2210.583196	-2.990300	3.188900	-9.533200	27.666896	0.000315	20.912850
2211.576535	-3.009100	3.189100	-9.595400	27.657966	0.000313	20.911450
2212.578169	-2.984100	3.190600	-9.520000	27.607994	0.000312	20.912850
2213.581264	-2.998800	3.188400	-9.560300	27.606679	0.000312	20.907260
2214.578167	-3.018400	3.188900	-9.625000	27.635547	0.000308	20.903117
2215.580146	-3.024200	3.187500	-9.638400	27.661241	0.000309	20.896256
2216.578670	-3.025800	3.187500	-9.643900	27.634160	0.000308	20.908833
2217.580273	-3.026700	3.186500	-9.644000	27.634680	0.000308	20.900823
2218.580745	-2.990900	3.186900	-9.529900	27.593161	0.000309	20.905038
2219.584640	-2.988100	3.186300	-9.519800	27.562160	0.000306	20.905140
2220.580862	-2.990800	3.185000	-9.523400	27.550751	0.000306	20.899351
2221.581376	-3.005000	3.185200	-9.570900	27.530015	0.000305	20.910255
2222.581852	-2.988700	3.184900	-9.517600	27.557348	0.000306	20.890817
2223.587467	-3.027500	3.182000	-9.632600	27.598422	0.000304	20.904168
2224.584237	-2.988300	3.182600	-9.509900	27.631283	0.000304	20.895034
2225.582888	-3.004200	3.182700	-9.559600	27.656706	0.000302	20.885529
2226.584584	-3.010400	3.182400	-9.579000	27.694106	0.000303	20.912729
2227.583210	-3.002200	3.182300	-9.553000	27.695494	0.000302	20.886628
2228.582481	-2.980600	3.183600	-9.487400	27.718037	0.000301	20.889398
2229.584699	-3.001600	3.179400	-9.541600	27.691180	0.000301	20.897458
2230.582985	-3.007300	3.179400	-9.560600	27.660107	0.000300	20.898907
2231.582705	-3.012100	3.179300	-9.575200	27.636297	0.000299	20.890123
2232.583629	-2.984100	3.179700	-9.487700	27.604750	0.000301	20.903897
2233.582449	-3.003500	3.178000	-9.544200	27.612662	0.000299	20.890522
2234.582707	-2.999500	3.177800	-9.530400	27.647831	0.000300	20.903623
2235.587131	-2.981000	3.177200	-9.470600	27.613755	0.000297	20.891147
2236.585554	-3.016900	3.177000	-9.583500	27.589919	0.000295	20.895139
2237.585518	-2.996700	3.177300	-9.520200	27.660654	0.000295	20.879545
2238.585072	-3.023400	3.176100	-9.601900	27.641857	0.000296	20.904725
2239.586400	-3.001800	3.174300	-9.527600	27.653588	0.000295	20.907045
2240.590759	-3.024500	3.173400	-9.597000	27.646073	0.000295	20.882416
2241.589633	-3.009100	3.174200	-9.551100	27.639974	0.000293	20.882917
2242.592978	-2.993800	3.174100	-9.502000	27.663213	0.000293	20.896343
2243.591162	-3.003200	3.173600	-9.529600	27.589505	0.000291	20.896145
2244.589340	-2.996100	3.172900	-9.505800	27.524844	0.000292	20.874710
2245.590350	-3.001900	3.171600	-9.519700	27.495874	0.000293	20.901985
2246.596174	-3.013700	3.172100	-9.558400	27.539058	0.000290	20.885217
2247.590545	-2.998900	3.172600	-9.513000	27.554089	0.000290	20.888486
2248.589155	-3.005300	3.171200	-9.529500	27.565226	0.000288	20.880726
2249.589715	-2.985700	3.171300	-9.466500	27.579985	0.000287	20.878507
2250.592735	-3.019700	3.168800	-9.568300	27.625620	0.000287	20.868950
2251.589911	-2.996700	3.169800	-9.498500	27.667635	0.000286	20.887043
2252.589324	-2.986600	3.168600	-9.462500	27.712200	0.000286	20.883525
2253.589134	-2.996700	3.168400	-9.493200	27.722965	0.000285	20.885823
2254.591668	-3.004400	3.168400	-9.518600	27.736109	0.000285	20.881980
2255.590662	-3.006800	3.166900	-9.521600	27.767358	0.000281	20.885926
2256.593361	-2.998900	3.168000	-9.499300	27.801752	0.000283	20.879288
2257.597054	-3.002400	3.164900	-9.501400	27.799668	0.000284	20.862968
2258.595788	-2.970100	3.167200	-9.405000	27.814127	0.000282	20.870406
2259.591877	-3.011100	3.164900	-9.528800	27.859382	0.000283	20.857632
2260.592846	-3.014800	3.163200	-9.534600	27.839173	0.000281	20.860526
2261.598923	-3.025100	3.163700	-9.569200	27.831861	0.000280	20.874977
2262.593705	-3.009900	3.162400	-9.517600	27.860230	0.000280	20.867493
2263.594073	-2.991800	3.164000	-9.465800	27.820953	0.000281	20.868267
2264.593310	-3.020500	3.164000	-9.555600	27.852099	0.000278	20.874482
2265.595099	-3.025200	3.161300	-9.561800	27.855919	0.000281	20.862681
2266.594327	-2.977600	3.160900	-9.410400	27.873326	0.000279	20.877828
2267.603238	-2.997200	3.161400	-9.474900	27.860608	0.000277	20.864554
2268.593508	-2.990500	3.161000	-9.451200	27.851757	0.000278	20.857544
2269.594688	-3.002000	3.160200	-9.483900	27.832243	0.000277	20.851656
2270.595495	-2.997000	3.158500	-9.464300	27.798620	0.000274	20.875662
2271.596024	-2.990700	3.160100	-9.449900	27.781710	0.000276	20.869076
2272.600888	-2.995500	3.156500	-9.452700	27.781041	0.000274	20.870300
2273.597660	-2.980100	3.157000	-9.406100	27.791036	0.000276	20.844798
2274.598811	-2.996100	3.155600	-9.453100	27.780152	0.000273	20.835267
2275.596204	-3.001900	3.155900	-9.471300	27.829745	0.000274	20.879960
2276.595478	-2.988500	3.156400	-9.432300	27.848741	0.000273	20.865887
2277.600258	-3.014700	3.155600	-9.511400	27.827838	0.000273	20.854334
2278.598371	-3.003800	3.153400	-9.471400	27.797290	0.000273	20.869583
2279.597151	-2.993400	3.154700	-9.441300	27.758133	0.000273	20.874746
2280.596987	-2.991000	3.153100	-9.430100	27.725225	0.000272	20.868657
2281.598211	-3.008600	3.150900	-9.477800	27.694577	0.000271	20.844930
2282.598300	-3.013700	3.151200	-9.496400	27.685772	0.000272	20.875897
2283.599486	-2.995900	3.150600	-9.436800	27.654251	0.000272	20.861723
2284.598041	-3.013500	3.149700	-9.490700	27.654377	0.000270	20.859005
2285.598636	-2.981200	3.149900	-9.389600	27.645446	0.000270	20.846226
2286.602274	-2.978400	3.148900	-9.376600	27.646738	0.000268	20.851794
2287.600860	-3.056900	3.146100	-9.616400	27.624937	0.000268	20.853564
2288.603612	-3.009100	3.148500	-9.473000	27.614496	0.000269	20.845903
2289.599204	-2.994900	3.149100	-9.429000	27.597507	0.000267	20.819327
2290.601004	-2.966300	3.148200	-9.337600	27.620200	0.000266	20.842160
2291.602470	-3.010700	3.145400	-9.468200	27.665906	0.000266	20.849744
2292.601635	-2.970100	3.148000	-9.347400	27.650086	0.000264	20.859429
2293.604170	-3.006400	3.144200	-9.451800	27.692916	0.000264	20.876922
2294.604087	-2.966800	3.145200	-9.329900	27.690857	0.000264	20.839764
2295.609359	-2.973200	3.143600	-9.344300	27.752481	0.000262	20.833973
2296.603683	-2.983700	3.144600	-9.380200	27.714640	0.000262	20.826714
2297.602361	-3.011000	3.142100	-9.460000	27.671412	0.000263	20.848647
2298.604146	-3.005800	3.140500	-9.437900	27.653854	0.000262	20.847100
2299.601373	-3.006200	3.140800	-9.441200	27.655591	0.000262	20.853115
2300.603043	-3.004600	3.139300	-9.431700	27.626102	0.000262	20.858529
2301.602450	-3.006100	3.139000	-9.435300	27.588304	0.000259	20.844680
2302.609826	-2.993300	3.139400	-9.396800	27.601077	0.000259	20.846626
2303.606532	-3.004400	3.138300	-9.427200	27.626746	0.000258	20.844479
2304.604239	-2.995200	3.139200	-9.401500	27.636792	0.000258	20.841311
2305.604844	-2.982600	3.136900	-9.355000	27.644331	0.000259	20.849371
2306.604311	-3.001800	3.135400	-9.411200	27.649315	0.000257	20.842058
2307.603366	-2.987300	3.135800	-9.365200	27.653879	0.000257	20.845228
2308.607226	-3.004100	3.135800	-9.419400	27.714564	0.000256	20.838965
2309.604111	-2.994500	3.133500	-9.381600	27.742265	0.000256	20.849297
2310.608299	-2.997600	3.134900	-9.396100	27.779462	0.000256	20.821298
2311.605646	-2.977100	3.133000	-9.325800	27.796572	0.000255	20.826662
2312.603338	-2.988800	3.132600	-9.361200	27.791317	0.000253	20.836073
2313.608572	-2.996700	3.131700	-9.384100	27.799868	0.000253	20.829979
2314.605940	-3.009300	3.129100	-9.414800	27.800440	0.000253	20.825339
2315.606303	-2.982400	3.130200	-9.334500	27.760242	0.000254	20.826611
2316.606377	-2.978200	3.131000	-9.323900	27.702289	0.000252	20.822345
2317.607200	-3.003200	3.129400	-9.396300	27.703429	0.000253	20.845777
2318.606595	-2.995400	3.128900	-9.370700	27.726690	0.000254	20.834098
2319.608653	-2.989200	3.127800	-9.348600	27.677762	0.000252	20.852191
2320.605663	-3.004300	3.126600	-9.391600	27.690085	0.000252	20.831876
2321.607009	-3.017900	3.126000	-9.432400	27.744545	0.000252	20.829306
2322.606889	-2.971100	3.125700	-9.286000	27.785709	0.000252	20.855558
2323.606402	-3.002200	3.124900	-9.380600	27.839219	0.000250	20.819797
2324.609806	-3.024400	3.122200	-9.440800	27.851940	0.000252	20.829754
2325.608272	-2.982100	3.122800	-9.311600	27.852485	0.000250	20.838363
2326.610748	-3.001300	3.122200	-9.369900	27.851148	0.000251	20.834172
2327.608039	-2.987900	3.122200	-9.327800	27.849584	0.000249	20.833073
2328.610497	-3.017300	3.120500	-9.414600	27.844130	0.000249	20.835644
2329.613800	-2.997300	3.120200	-9.350400	27.798502	0.000247	20.825286
2330.611575	-3.004300	3.119600	-9.371300	27.776111	0.000248	20.840210
2331.609647	-2.998400	3.118900	-9.351400	27.748584	0.000246	20.839061
2332.612008	-3.003600	3.116900	-9.359000	27.771027	0.000246	20.812335
2333.611964	-2.983600	3.116800	-9.298200	27.807925	0.000246	20.817225
2334.611804	-2.970900	3.116300	-9.257600	27.833068	0.000245	20.825934
2335.614644	-2.996000	3.116000	-9.334700	27.869890	0.000247	20.827905
2336.613764	-2.970600	3.114600	-9.251200	27.909314	0.000245	20.813532
2337.619310	-3.003500	3.112700	-9.348200	27.886107	0.000246	20.830951
2338.613557	-2.976900	3.113300	-9.266800	27.887817	0.000244	20.823188
2339.612879	-2.987500	3.112900	-9.298700	27.886405	0.000244	20.826035
2340.615846	-3.019100	3.112000	-9.394700	27.905101	0.000241	20.807869
2341.613478	-2.996200	3.110900	-9.319800	27.927837	0.000243	20.818424
2342.615225	-2.986000	3.110700	-9.288100	27.911723	0.000243	20.822594
2343.612877	-2.983400	3.109100	-9.275200	27.907185	0.000239	20.836518
2344.612321	-2.961900	3.109300	-9.208300	27.899277	0.000242	20.807697
2345.613835	-3.020800	3.106200	-9.382400	27.926453	0.000242	20.810392
2346.617120	-3.001500	3.107700	-9.326200	27.954890	0.000240	20.812463
2347.613366	-2.998600	3.105900	-9.312300	27.944924	0.000241	20.813811
2348.613140	-3.007300	3.104600	-9.335700	27.937512	0.000242	20.813463
2349.613600	-2.998000	3.103600	-9.303100	27.929950	0.000243	20.813438
2350.616358	-3.003500	3.103200	-9.319900	27.932478	0.000241	20.814086
2351.619281	-3.006000	3.102300	-9.324300	27.905181	0.000242	20.830234
2352.616545	-2.996200	3.101200	-9.290400	27.890404	0.000241	20.820577
2353.616190	-3.010200	3.100200	-9.331200	27.915994	0.000241	20.822151
2354.616952	-2.992400	3.099600	-9.274800	27.920158	0.000242	20.829186
2355.615983	-3.008900	3.098400	-9.321600	27.922612	0.000241	20.814113
2356.624842	-2.995800	3.098000	-9.279900	27.959356	0.000240	20.817906
2357.619190	-3.006700	3.097800	-9.312300	27.981696	0.000241	20.801512
2358.622517	-3.029900	3.095400	-9.378100	28.010852	0.000241	20.819954
2359.618854	-3.009900	3.096300	-9.317800	28.019158	0.000240	20.812668
2360.618119	-3.025400	3.094200	-9.360300	28.023348	0.000242	20.813566
2361.623843	-2.989600	3.092900	-9.245100	28.045290	0.000235	20.812893
2362.626922	-2.976900	3.094100	-9.209800	28.049828	0.000239	20.838797
2363.622606	-2.990600	3.092300	-9.247000	28.074617	0.000238	20.813966
2364.619097	-3.001400	3.090900	-9.275200	28.051440	0.000238	20.807230
2365.620358	-2.994400	3.090200	-9.252200	28.030293	0.000237	20.822453
2366.620717	-3.019500	3.088500	-9.324600	28.024492	0.000236	20.829890
2367.628096	-2.997800	3.088500	-9.258000	28.054715	0.000236	20.809578
2368.620530	-2.972100	3.088600	-9.178100	28.055136	0.000234	20.824227
2369.620743	-2.980600	3.087500	-9.201200	28.040584	0.000238	20.824751
2370.620787	-3.002400	3.085100	-9.261900	28.014604	0.000236	20.802868
2371.621401	-2.971900	3.085900	-9.170200	27.951531	0.000237	20.810030
2372.625413	-2.981800	3.085800	-9.200400	27.905812	0.000235	20.813326
2373.622176	-2.991900	3.084400	-9.227500	27.877149	0.000236	20.814349
2374.623886	-3.008100	3.082200	-9.270100	27.903558	0.000235	20.807263
2375.621360	-3.028000	3.082000	-9.330400	27.934948	0.000233	20.818469
2376.622636	-3.047500	3.079000	-9.382300	27.929073	0.000234	20.826306
2377.622882	-2.999500	3.080700	-9.239200	27.974720	0.000233	20.803025
2378.621104	-3.009900	3.079300	-9.268100	27.963565	0.000234	20.809814
2379.623931	-2.991500	3.076000	-9.201300	27.968648	0.000233	20.814456
2380.629499	-3.028900	3.075300	-9.313900	27.996665	0.000232	20.828432
2381.625460	-2.984000	3.076200	-9.178500	28.046919	0.000231	20.798412
2382.625666	-2.986800	3.076000	-9.186700	28.085325	0.000233	20.792028
2383.626222	-3.023000	3.073800	-9.290800	28.130939	0.000231	20.811394
2384.630654	-2.989900	3.072400	-9.184600	28.167974	0.000231	20.831134
2385.628320	-3.023900	3.073000	-9.289600	28.200251	0.000229	20.809102
2386.624789	-2.971500	3.071600	-9.126300	28.219238	0.000230	20.804509
2387.631575	-3.017300	3.068800	-9.258800	28.228783	0.000231	20.806058
2388.631726	-3.005800	3.068700	-9.223100	28.212747	0.000230	20.824527
2389.627487	-2.993600	3.068300	-9.183600	28.148822	0.000230	20.822759
2390.633190	-2.953400	3.068100	-9.059800	28.152962	0.000230	20.798952
2391.629733	-2.997600	3.065900	-9.189200	28.157450	0.000230	20.823384
2392.631649	-3.015700	3.064000	-9.239600	28.151031	0.000228	20.808861
2393.628123	-2.992000	3.064100	-9.167200	28.100486	0.000229	20.805867
2394.631322	-2.991500	3.063600	-9.164300	28.079391	0.000227	20.828728
2395.631278	-3.013300	3.060800	-9.222500	28.079417	0.000230	20.822117
2396.628665	-2.989000	3.061000	-9.148300	28.053313	0.000228	20.802952
2397.633343	-2.992100	3.060100	-9.155200	28.059239	0.000229	20.826461
2398.630135	-3.028300	3.056500	-9.254000	28.101633	0.000226	20.818402
2399.631186	-3.009000	3.057200	-9.198400	28.121342	0.000228	20.808845
2400.630034	-3.008000	3.056300	-9.191700	28.155926	0.000227	20.813315
2401.631051	-2.992800	3.054500	-9.139800	28.194968	0.000227	20.817059
2402.630435	-3.002200	3.055500	-9.172200	28.148318	0.000226	20.836002
2403.629488	-2.994300	3.053000	-9.140600	28.094278	0.000230	20.817636
2404.631772	-3.004700	3.052200	-9.170400	28.098914	0.000228	20.836053
2405.631005	-3.019800	3.050300	-9.209900	28.105284	0.000230	20.829190
2406.630734	-3.023700	3.049800	-9.220000	28.148394	0.000227	20.815690
2407.632159	-3.022200	3.047900	-9.209500	28.141009	0.000228	20.814419
2408.630248	-3.003700	3.047300	-9.152000	28.134713	0.000227	20.801917
2409.631622	-3.007900	3.047200	-9.164500	28.178021	0.000228	20.831766
2410.643325	-3.001900	3.045500	-9.141500	28.196412	0.000225	20.816616
2411.632717	-3.034700	3.042400	-9.231400	28.217459	0.000228	20.809831
2412.635084	-2.994300	3.044100	-9.113900	28.236721	0.000227	20.812154
2413.633436	-3.010600	3.042400	-9.158400	28.256326	0.000226	20.811978
2414.633703	-2.981400	3.042300	-9.069200	28.247997	0.000226	20.816868
2415.637306	-3.025900	3.039600	-9.195400	28.281636	0.000227	20.804269
2416.634129	-2.985600	3.039500	-9.073700	28.302702	0.000226	20.805566
2417.634903	-2.986900	3.038100	-9.073700	28.315618	0.000226	20.824734
2418.634553	-2.972300	3.037600	-9.027600	28.315766	0.000225	20.837685
2419.634519	-2.959600	3.037500	-8.987000	28.307835	0.000224	20.810734
2420.638136	-2.995400	3.033700	-9.086800	28.315917	0.000225	20.844948
2421.638510	-3.003200	3.034700	-9.112400	28.324319	0.000226	20.853882
2422.636031	-3.007000	3.032500	-9.118000	28.329003	0.000226	20.823513
2423.636426	-3.010700	3.031700	-9.126500	28.322238	0.000223	20.833770
2424.638532	-3.028400	3.030300	-9.174700	28.265630	0.000223	20.824664
2425.635692	-3.006900	3.028800	-9.106700	28.241883	0.000225	20.854808
2426.636832	-3.008300	3.027000	-9.105000	28.210924	0.000223	20.818424
2427.638155	-2.975600	3.026700	-9.005700	28.131826	0.000225	20.844054
2428.640174	-2.995000	3.025700	-9.061100	28.132371	0.000224	20.829430
2429.638964	-2.988900	3.025000	-9.040300	28.093600	0.000224	20.817428
2430.638118	-3.000700	3.023900	-9.072700	28.071287	0.000224	20.829580
2431.641798	-3.015600	3.021800	-9.111100	28.060083	0.000224	20.826836
2432.640152	-3.028000	3.018200	-9.138500	28.077363	0.000223	20.835222
2433.639541	-2.997700	3.020400	-9.053600	28.068735	0.000225	20.841234
2434.640183	-3.027200	3.018200	-9.135700	28.065415	0.000226	20.846901
2435.639617	-2.989600	3.017400	-9.020100	28.119954	0.000227	20.834948
2436.641931	-3.019700	3.015900	-9.106000	28.109839	0.000224	20.827611
2437.643699	-3.015700	3.014800	-9.090600	28.164400	0.000223	20.838915
2438.642406	-3.036900	3.012500	-9.147600	28.149107	0.000223	20.833002
2439.644576	-2.997100	3.011500	-9.025200	28.182869	0.000224	20.837594
2440.640735	-3.021200	3.009300	-9.090300	28.163857	0.000226	20.849274
2441.641048	-3.000700	3.010200	-9.032000	28.184134	0.000222	20.841239
2442.642253	-3.002800	3.006800	-9.027200	28.211995	0.000223	20.831830
2443.651414	-3.022900	3.006100	-9.086100	28.254655	0.000225	20.843485
2444.641421	-2.994600	3.006100	-9.001400	28.296196	0.000224	20.838843
2445.640296	-2.996000	3.005900	-9.004600	28.314115	0.000222	20.846928
2446.642282	-2.981300	3.004800	-8.957700	28.350994	0.000222	20.829060
2447.644826	-2.981400	3.002000	-8.949200	28.366884	0.000224	20.831783
2448.643096	-2.995400	3.001400	-8.989400	28.353351	0.000223	20.835226
2449.644267	-2.995800	2.998800	-8.982100	28.293693	0.000224	20.858608
2450.643379	-3.000400	2.998400	-8.994100	28.281548	0.000225	20.831207
2451.643571	-2.997200	2.997000	-8.981300	28.244343	0.000223	20.846854
2452.648230	-2.996700	2.996400	-8.978700	28.240946	0.000221	20.823993
2453.644954	-3.016000	2.994900	-9.030900	28.249820	0.000222	20.837195
2454.642212	-2.958300	2.994300	-8.856000	28.287396	0.000223	20.860802
2455.642914	-2.940300	2.994700	-8.804400	28.306135	0.000223	20.838893
2456.643046	-2.998800	2.989800	-8.964500	28.366705	0.000224	20.850094
2457.643272	-2.988300	2.989000	-8.931500	28.375927	0.000221	20.838044
2458.644079	-2.997200	2.987800	-8.954400	28.367027	0.000222	20.857057
2459.643003	-3.024400	2.984400	-9.023900	28.328983	0.000223	20.830604
2460.642314	-3.006200	2.984300	-8.970700	28.295003	0.000221	20.848547
2461.643017	-2.992500	2.983100	-8.926600	28.316914	0.000222	20.846427
2462.643019	-2.988600	2.982400	-8.911800	28.347373	0.000220	20.846276
2463.643188	-2.979700	2.981200	-8.882600	28.385316	0.000221	20.849394
2464.644521	-2.980600	2.979200	-8.879200	28.386607	0.000221	20.851168
2465.641790	-2.983900	2.979500	-8.889300	28.370519	0.000222	20.849667
2466.642347	-2.993300	2.976500	-8.908600	28.378600	0.000220	20.846425
2467.645035	-2.997700	2.975900	-8.919100	28.427993	0.000221	20.855384
2468.646919	-3.008700	2.973100	-8.944100	28.397211	0.000222	20.848570
2469.645281	-3.007300	2.972400	-8.937000	28.371411	0.000220	20.861471
2470.650663	-2.982900	2.971800	-8.863500	28.329950	0.000220	20.875672
2471.647871	-3.010800	2.969000	-8.937400	28.337161	0.000221	20.846425
2472.646360	-3.014000	2.967700	-8.943200	28.335278	0.000222	20.873450
2473.649593	-3.041400	2.965400	-9.018300	28.331087	0.000221	20.863067
2474.648931	-3.011000	2.965800	-8.929100	28.329824	0.000222	20.845201
2475.657422	-2.998500	2.964000	-8.886400	28.338996	0.000221	20.890469
2476.650628	-3.003700	2.962900	-8.897500	28.302585	0.000220	20.866612
2477.652347	-2.978700	2.961700	-8.821100	28.277132	0.000221	20.875123
2478.648654	-2.986100	2.961100	-8.840800	28.274775	0.000220	20.854259
2479.653219	-3.007500	2.956800	-8.891400	28.296588	0.000219	20.863893
2480.651549	-3.027900	2.955100	-8.946400	28.330867	0.000221	20.860475
2481.649426	-3.013700	2.955900	-8.907000	28.350495	0.000219	20.869332
2482.650380	-3.009400	2.953400	-8.886400	28.397288	0.000219	20.866189
2483.649883	-3.019200	2.950700	-8.907900	28.441549	0.000223	20.860026
2484.649271	-2.994700	2.951500	-8.837700	28.470866	0.000219	20.886701
2485.648354	-3.003100	2.948100	-8.851900	28.491388	0.000221	20.869910
2486.648227	-2.973400	2.948700	-8.765900	28.501818	0.000220	20.881835
2487.650652	-2.997600	2.947900	-8.834500	28.486009	0.000219	20.884881
2488.649935	-2.994400	2.944100	-8.814700	28.522882	0.000220	20.893090
2489.654027	-3.017800	2.942300	-8.878400	28.564785	0.000218	20.882185
2490.650365	-3.004700	2.940800	-8.835300	28.614068	0.000219	20.882034
2491.650959	-2.980400	2.939200	-8.757700	28.632800	0.000218	20.878616
2492.651666	-3.023500	2.937100	-8.878700	28.642413	0.000220	20.865539
2493.651931	-3.028000	2.935600	-8.887700	28.645114	0.000222	20.887699
2494.654727	-2.981900	2.934400	-8.749100	28.668231	0.000218	20.886326
2495.660425	-2.984900	2.934500	-8.758100	28.701307	0.000219	20.887398
2496.654086	-3.000000	2.931400	-8.792400	28.664441	0.000219	20.898154
2497.653385	-2.997300	2.931000	-8.784400	28.605000	0.000217	20.884755
2498.660689	-3.009500	2.927100	-8.807700	28.577965	0.000216	20.888347
2499.656938	-3.004100	2.926000	-8.788700	28.529695	0.000219	20.906589
2500.653867	-2.965300	2.925100	-8.673200	28.465933	0.000219	20.908758
2501.657357	-2.999800	2.922700	-8.766600	28.443357	0.000216	20.880336
2502.653931	-2.995800	2.922900	-8.755200	28.424870	0.000217	20.880686
2503.654626	-3.008000	2.919600	-8.781000	28.450668	0.000218	20.911878
2504.654542	-3.012800	2.918700	-8.792900	28.475128	0.000215	20.871554
2505.655547	-2.992700	2.916500	-8.727200	28.511582	0.000217	20.899727
2506.660422	-2.991700	2.916400	-8.724200	28.503997	0.000218	20.920536
2507.655270	-2.998400	2.913500	-8.734600	28.509824	0.000215	20.902224
2508.657079	-3.005700	2.910700	-8.747000	28.548952	0.000218	20.892792
2509.655378	-2.998700	2.909900	-8.725000	28.553016	0.000217	20.885032
2510.654956	-3.007500	2.909500	-8.748400	28.561047	0.000216	20.888378
2511.657379	-3.002000	2.908500	-8.729400	28.578861	0.000216	20.885456
2512.658145	-2.991300	2.906500	-8.692900	28.586620	0.000217	20.893270
2513.657447	-2.999600	2.904500	-8.711500	28.584861	0.000217	20.895765
2514.656387	-3.019300	2.900800	-8.757300	28.620764	0.000216	20.914854
2515.660173	-2.971000	2.900900	-8.617600	28.623864	0.000221	20.899960
2516.656843	-3.010900	2.897800	-8.724500	28.591109	0.000215	20.903479
2517.656825	-2.999300	2.897700	-8.689900	28.579437	0.000216	20.890778
2518.656516	-2.996400	2.895100	-8.673500	28.597998	0.000217	20.917529
2519.658855	-3.004600	2.892900	-8.691200	28.599610	0.000219	20.905403
2520.657772	-2.988200	2.891500	-8.639000	28.630063	0.000217	20.904306
2521.659348	-2.999300	2.888700	-8.662700	28.604542	0.000216	20.910370
2522.659161	-3.007500	2.887800	-8.683500	28.586331	0.000218	20.904357
2523.656433	-2.994000	2.885600	-8.637800	28.560634	0.000217	20.912142
2524.656538	-3.009500	2.883300	-8.676400	28.543638	0.000216	20.895500
2525.657533	-3.022300	2.882400	-8.711100	28.578379	0.000215	20.909624
2526.657162	-2.992800	2.880400	-8.620100	28.588788	0.000216	20.912521
2527.658093	-2.981200	2.879900	-8.584900	28.638245	0.000215	20.896426
2528.659910	-2.986400	2.877600	-8.592100	28.624097	0.000217	20.918684
2529.659609	-2.979900	2.874800	-8.565100	28.625386	0.000218	20.928516
2530.659278	-3.008300	2.873000	-8.642500	28.578877	0.000219	20.886420
2531.662680	-3.000300	2.871400	-8.613100	28.566068	0.000219	20.910028
2532.660144	-2.983000	2.871100	-8.562900	28.580838	0.000217	20.927272
2533.660467	-3.005200	2.865800	-8.612300	28.569241	0.000217	20.936928
2534.660843	-2.978800	2.864700	-8.531600	28.578260	0.000219	20.901919
2535.661438	-2.982600	2.864500	-8.542400	28.543573	0.000217	20.917718
2536.661009	-2.988400	2.861900	-8.551000	28.546545	0.000217	20.908859
2537.660639	-3.001900	2.858800	-8.579400	28.496761	0.000216	20.934111
2538.665593	-3.009800	2.857100	-8.598500	28.480134	0.000219	20.906463
2539.662342	-2.978300	2.856000	-8.504200	28.447746	0.000218	20.917470
2540.662943	-3.015900	2.852900	-8.603200	28.396172	0.000216	20.923382
2541.662795	-3.027800	2.850800	-8.631100	28.382346	0.000218	20.914203
2542.664330	-3.026700	2.847900	-8.617900	28.421651	0.000218	20.936235
2543.662980	-3.014500	2.845200	-8.575500	28.403785	0.000216	20.918246
2544.664248	-3.002300	2.844400	-8.537900	28.413673	0.000219	20.917298
2545.664405	-3.003100	2.842500	-8.535300	28.455457	0.000218	20.904373
2546.663918	-3.041900	2.840100	-8.638100	28.516892	0.000217	20.913135
2547.665814	-2.977700	2.839300	-8.453300	28.571334	0.000217	20.924339
2548.665101	-3.020500	2.835500	-8.563100	28.621288	0.000218	20.932449
2549.664355	-2.986000	2.835500	-8.465800	28.643786	0.000217	20.936616
2550.664032	-2.983300	2.832300	-8.448600	28.655605	0.000218	20.927658
2551.663486	-3.008200	2.830000	-8.512600	28.701889	0.000219	20.925913
2552.665149	-2.962700	2.828100	-8.377800	28.716706	0.000217	20.919975
2553.664606	-2.970200	2.826500	-8.394100	28.762145	0.000219	20.941560
2554.666417	-2.963900	2.825000	-8.372300	28.746660	0.000220	20.927387
2555.665619	-2.985400	2.820700	-8.420000	28.753425	0.000219	20.937993
2556.668359	-3.021800	2.816900	-8.511600	28.793015	0.000218	20.947525
2557.670263	-3.006400	2.815600	-8.463400	28.834660	0.000219	20.932580
2558.667604	-2.992100	2.814300	-8.419000	28.859902	0.000217	20.933352
2559.667925	-2.992800	2.811700	-8.413900	28.880091	0.000218	20.941362
2560.672387	-2.992100	2.809200	-8.404700	28.870456	0.000219	20.939716
2561.670795	-2.971600	2.807800	-8.342700	28.810011	0.000217	20.927191
2562.668881	-3.001000	2.805900	-8.419200	28.813306	0.000219	20.937621
2563.672564	-2.950500	2.803700	-8.271000	28.811672	0.000218	20.937397
2564.673804	-2.985000	2.800700	-8.358400	28.855796	0.000217	20.939172
2565.669379	-3.015700	2.797300	-8.433400	28.875808	0.000217	20.938470
2566.672885	-3.013200	2.794000	-8.417400	28.915171	0.000218	20.924073
2567.670293	-2.959500	2.793700	-8.266200	28.864266	0.000219	20.942488
2568.671142	-3.028200	2.788100	-8.442100	28.856412	0.000219	20.932207
2569.670358	-3.011700	2.785400	-8.386500	28.858866	0.000217	20.930886
2570.674592	-3.005900	2.783800	-8.366400	28.865778	0.000218	20.953020
2571.672404	-2.992700	2.782300	-8.324100	28.877471	0.000220	20.943463
2572.672356	-2.991100	2.778000	-8.308400	28.933972	0.000218	20.945382
2573.671745	-2.997500	2.774000	-8.314200	28.954037	0.000217	20.930512
2574.672723	-2.993300	2.773300	-8.300000	28.964416	0.000219	20.969886
2575.674006	-3.020500	2.768900	-8.361300	28.994930	0.000218	20.948949
2576.673789	-3.011600	2.768900	-8.336500	29.009447	0.000218	20.950299
2577.675590	-3.003400	2.764400	-8.301000	28.996120	0.000218	20.953467
2578.675132	-3.004100	2.762400	-8.296400	29.001816	0.000218	20.957783
2579.679820	-3.012100	2.758900	-8.309200	29.014969	0.000217	20.959655
2580.675252	-3.003200	2.756000	-8.275000	29.009718	0.000217	20.944883
2581.675746	-3.017300	2.752100	-8.302400	29.023711	0.000218	20.941438
2582.676352	-3.004400	2.750200	-8.261700	28.986557	0.000217	20.961375
2583.678102	-3.003300	2.746100	-8.246300	28.990692	0.000217	20.961748
2584.682028	-2.981600	2.744900	-8.181700	29.015957	0.000216	20.949272
2585.676108	-2.998200	2.739300	-8.211400	29.038918	0.000217	20.955336
2586.677650	-2.989100	2.737400	-8.181400	29.029159	0.000217	20.941237
2587.681787	-2.992300	2.735100	-8.183200	29.018086	0.000218	20.964691
2588.677220	-2.987300	2.732700	-8.162400	29.003869	0.000218	20.969807
2589.680623	-3.017900	2.727200	-8.227900	28.968423	0.000217	20.962070
2590.679337	-3.024400	2.725000	-8.240300	28.968548	0.000216	20.976419
2591.681510	-3.002900	2.721000	-8.170300	28.966814	0.000216	20.970405
2592.682726	-3.022700	2.716500	-8.209700	28.980883	0.000216	20.986000
2593.680954	-2.984700	2.714000	-8.099400	29.019744	0.000215	20.967310
2594.684681	-3.016600	2.709700	-8.174000	29.075321	0.000217	20.969728
2595.682928	-3.000700	2.708400	-8.126000	29.114356	0.000217	20.982032
2596.685558	-3.032300	2.702400	-8.192700	29.107692	0.000217	20.957777
2597.685664	-2.992200	2.700300	-8.079100	29.075101	0.000218	20.960025
2598.683277	-2.991600	2.697300	-8.067400	29.110468	0.000217	20.978115
2599.684920	-3.010400	2.692800	-8.105100	29.078469	0.000215	20.943032
2600.698153	-3.004600	2.690400	-8.081800	29.051698	0.000215	20.946403
2601.683422	-2.981300	2.685600	-8.005500	29.020860	0.000217	20.974123
2602.686377	-2.983500	2.681400	-7.997800	29.011896	0.000218	20.960826
2603.690390	-3.009900	2.677300	-8.057700	29.013481	0.000217	20.962897
2604.686318	-2.991800	2.674200	-7.999600	29.040901	0.000216	20.950697
2605.685652	-3.008500	2.670200	-8.032500	29.045632	0.000217	20.951196
2606.686472	-3.001500	2.666200	-8.001900	29.060419	0.000216	20.947604
2607.687788	-2.996400	2.661100	-7.973300	29.058214	0.000217	20.964820
2608.688195	-2.997800	2.656500	-7.963000	29.043902	0.000218	20.947556
2609.692484	-2.949100	2.654900	-7.828400	29.066712	0.000218	20.942091
2610.691762	-3.012100	2.648600	-7.977000	29.047617	0.000217	20.947981
2611.689064	-2.997300	2.645400	-7.928200	29.037015	0.000218	20.951049
2612.691094	-3.004700	2.640400	-7.931600	29.018613	0.000215	20.949103
2613.690738	-3.025500	2.635500	-7.973100	29.005014	0.000218	20.957212
2614.688381	-2.981300	2.633600	-7.851000	29.007495	0.000216	20.946911
2615.692941	-3.038700	2.625100	-7.975800	29.027110	0.000217	20.933485
2616.692368	-2.995800	2.623300	-7.858200	29.038156	0.000219	20.954094
2617.689648	-3.002100	2.618000	-7.858700	29.061959	0.000214	20.929243
2618.694454	-3.018200	2.611300	-7.880300	29.133266	0.000217	20.937081
2619.694738	-3.007200	2.607300	-7.840000	29.100745	0.000217	20.940348
2620.695065	-3.005800	2.601700	-7.819000	29.143940	0.000217	20.941673
2621.698726	-2.984800	2.597700	-7.752500	29.104759	0.000218	20.953873
2622.698699	-2.974900	2.593200	-7.713500	29.063819	0.000217	20.924005
2623.693896	-3.012600	2.586600	-7.791100	29.055200	0.000218	20.949931
2624.695845	-2.979000	2.582200	-7.691200	29.048686	0.000217	20.933413
2625.694797	-2.965200	2.577200	-7.640800	29.065307	0.000219	20.931667
2626.695062	-2.965700	2.572800	-7.629200	29.084255	0.000219	20.928001
2627.696181	-3.014500	2.565300	-7.731700	29.150331	0.000219	20.938156
2628.695198	-3.017900	2.559300	-7.722600	29.195971	0.000218	20.920612
2629.698710	-2.977000	2.555100	-7.604700	29.235545	0.000217	20.929198
2630.696719	-3.023900	2.548900	-7.706700	29.242628	0.000217	20.924007
2631.698593	-2.988100	2.545100	-7.603700	29.237822	0.000219	20.929121
2632.697745	-3.028400	2.535000	-7.675700	29.215585	0.000218	20.902447
2633.698276	-2.994700	2.531000	-7.578200	29.259046	0.000219	20.925380
2634.697394	-3.019900	2.524200	-7.621900	29.291559	0.000218	20.912629
2635.697541	-2.991400	2.519200	-7.534600	29.329345	0.000219	20.929846
2636.698924	-2.991500	2.512100	-7.514600	29.310972	0.000220	20.917494
2637.704516	-2.987100	2.507100	-7.488500	29.300249	0.000218	20.889147
2638.700132	-3.001700	2.500600	-7.505000	29.308097	0.000219	20.931191
2639.699742	-3.013300	2.494000	-7.514600	29.332611	0.000218	20.904217
