LabVIEW Measurement	
Writer_Version	2
Reader_Version	2
Separator	Tab
Decimal_Separator	.
Multi_Headings	No
X_Columns	One
Time_Pref	Absolute
Operator	admin
Description	Clolumns are: time, Current, Voltage, Power, Battery Temp, and Chamber Temp
Date	2024/08/16
Time	13:06:06.104549407958984375
***End_of_Header***	
	
Channels	6						
Samples	1	1	1	1	1	1	
Date	2024/08/28	2024/08/28	2024/08/28	2024/08/28	2024/08/28	2024/08/28	
Time	22:36:39.133396148681640625	22:36:39.1398625373840332031	22:36:39.1459736824035644531	22:36:39.0961513519287109375	22:36:39.0961513519287109375	22:36:39.0961513519287109375	
X_Dimension	Time	Time	Time	Time	Time	Time	
X0	0.0000000000000000E+0	0.0000000000000000E+0	0.0000000000000000E+0	0.0000000000000000E+0	0.0000000000000000E+0	0.0000000000000000E+0	
Delta_X	1.000000	1.000000	1.000000	1.000000	1.000000	1.000000	
***End_of_Header***							
X_Value	Untitled	Untitled 1	Untitled 2	Untitled 3	Untitled 4	Untitled 5	Comment
0.000000	-0.027265	4.105400	-0.112030	21.023304	0.000953	20.704691
0.999665	-2.977700	3.945300	-11.747000	21.025176	0.000951	20.712254
1.993885	-3.000100	3.938100	-11.813000	20.997238	0.000950	20.708492
3.000956	-2.997300	3.932200	-11.785000	21.029172	0.000951	20.698232
3.996362	-2.987800	3.928400	-11.736000	21.043909	0.000949	20.710602
5.000989	-3.010400	3.923600	-11.810000	21.033006	0.000948	20.717241
6.016722	-3.000100	3.923600	-11.769000	21.019258	0.000947	20.695428
7.004494	-2.987200	3.920700	-11.710000	21.016340	0.000945	20.706735
7.996860	-2.999000	3.916700	-11.745000	21.026018	0.000944	20.693654
9.007686	-3.009300	3.915400	-11.781000	21.038768	0.000946	20.705460
9.996922	-2.997400	3.913900	-11.729000	21.027938	0.000944	20.695575
10.999556	-2.979600	3.912200	-11.656000	21.047007	0.000942	20.696156
12.003464	-2.982000	3.911300	-11.662000	21.057362	0.000943	20.706988
13.002183	-2.997800	3.908100	-11.714000	21.043378	0.000940	20.718607
13.996745	-3.034500	3.908300	-11.857000	21.054780	0.000941	20.722425
15.006556	-3.004900	3.905500	-11.733000	21.057084	0.000940	20.705288
16.002263	-3.019000	3.904300	-11.787000	21.050162	0.000939	20.697415
16.998551	-3.003300	3.904700	-11.726000	21.051993	0.000941	20.710153
18.005217	-2.989200	3.904800	-11.671000	21.067056	0.000939	20.712892
19.001297	-2.996300	3.902400	-11.692000	21.073791	0.000937	20.706351
20.004841	-2.998900	3.901800	-11.700000	21.063689	0.000937	20.687236
20.999314	-3.014100	3.900300	-11.755000	21.078310	0.000937	20.690956
22.001050	-3.023000	3.899800	-11.789000	21.062291	0.000936	20.711445
23.003480	-2.998200	3.898100	-11.686000	21.101791	0.000936	20.690735
24.003034	-3.012000	3.897000	-11.736000	21.102037	0.000935	20.689084
25.012841	-2.983800	3.897200	-11.627000	21.091657	0.000935	20.691030
26.006305	-2.996500	3.895500	-11.671000	21.097746	0.000934	20.679101
27.004421	-3.005600	3.895900	-11.709000	21.084522	0.000934	20.696696
27.987496	-3.009000	3.895300	-11.719000	21.102837	0.000932	20.693204
29.027873	-3.001600	3.896600	-11.694000	21.106082	0.000931	20.691234
30.007682	-2.993100	3.894700	-11.657000	21.119600	0.000932	20.681521
31.008591	-2.984900	3.894600	-11.624000	21.111721	0.000933	20.677907
32.007382	-3.010600	3.893200	-11.719000	21.126490	0.000930	20.702165
33.013539	-2.989500	3.893200	-11.637000	21.113944	0.000930	20.690563
33.988693	-2.997400	3.891900	-11.665000	21.128091	0.000930	20.682903
34.988229	-3.006800	3.891300	-11.700000	21.129472	0.000929	20.690449
35.990312	-3.016400	3.891100	-11.736000	21.137572	0.000928	20.684325
37.026606	-3.008300	3.891200	-11.705000	21.148310	0.000929	20.672306
38.005312	-2.992900	3.891100	-11.645000	21.153998	0.000927	20.674203
39.014244	-3.022400	3.887900	-11.749000	21.168259	0.000928	20.667605
40.012548	-3.009000	3.889300	-11.702000	21.159384	0.000928	20.683385
41.015015	-2.993700	3.887700	-11.638000	21.168088	0.000927	20.680237
42.007586	-2.988000	3.889300	-11.620000	21.180787	0.000927	20.670655
43.014387	-2.981100	3.888300	-11.591000	21.158158	0.000925	20.682633
44.009338	-2.993200	3.887200	-11.634000	21.178695	0.000928	20.680417
45.016250	-3.006600	3.884600	-11.677000	21.184563	0.000927	20.667793
46.008649	-3.007400	3.884700	-11.682000	21.199829	0.000925	20.675478
46.996813	-2.997800	3.886700	-11.651000	21.212349	0.000926	20.672355
48.019538	-3.009300	3.884000	-11.686000	21.213926	0.000928	20.665872
49.006631	-2.986000	3.886800	-11.605000	21.210959	0.000926	20.673336
50.019117	-3.030200	3.882800	-11.763000	21.223479	0.000925	20.676378
51.018981	-2.983500	3.883700	-11.585000	21.209807	0.000924	20.663648
51.995492	-3.005800	3.884800	-11.676000	21.242013	0.000923	20.664572
53.009939	-2.995400	3.884200	-11.634000	21.243246	0.000925	20.657744
53.996725	-3.012000	3.883100	-11.694000	21.242462	0.000923	20.660753
54.995125	-2.989400	3.883100	-11.607000	21.248550	0.000925	20.687235
56.021999	-2.985200	3.883100	-11.591000	21.256264	0.000924	20.662707
57.009950	-3.026700	3.879700	-11.740000	21.245535	0.000924	20.673312
58.019681	-3.014200	3.881300	-11.698000	21.272870	0.000922	20.660353
59.011638	-3.029400	3.881200	-11.757000	21.273646	0.000922	20.677727
60.011742	-2.997800	3.882600	-11.639000	21.275640	0.000921	20.680670
61.028994	-2.978500	3.882500	-11.563000	21.292678	0.000922	20.655987
62.030341	-2.971300	3.881200	-11.531000	21.291428	0.000921	20.661849
63.028030	-2.995000	3.880000	-11.619000	21.309168	0.000922	20.653518
64.000306	-2.973600	3.881100	-11.539000	21.330993	0.000922	20.639316
65.021028	-3.002300	3.879500	-11.646000	21.308244	0.000920	20.650223
66.017118	-2.998000	3.878500	-11.625000	21.320567	0.000922	20.660655
67.019350	-3.000000	3.877000	-11.630000	21.325036	0.000920	20.658014
68.024458	-3.002500	3.878700	-11.644000	21.339508	0.000920	20.673442
69.006675	-2.973500	3.879100	-11.533000	21.334082	0.000922	20.656633
70.032975	-2.999300	3.877700	-11.630000	21.339581	0.000922	20.644115
71.004246	-3.010300	3.877600	-11.672000	21.350326	0.000919	20.648702
72.015792	-2.980300	3.877600	-11.555000	21.363425	0.000921	20.661808
73.013678	-3.001700	3.876900	-11.636000	21.364323	0.000921	20.663656
74.021815	-3.006400	3.877500	-11.655000	21.361856	0.000920	20.656444
75.013680	-2.999600	3.875600	-11.625000	21.355744	0.000921	20.663607
76.017816	-3.025000	3.875300	-11.722000	21.404680	0.000920	20.643338
77.004849	-2.990600	3.877400	-11.595000	21.403462	0.000920	20.653975
77.998127	-3.004000	3.874800	-11.637000	21.430425	0.000920	20.644442
79.014229	-3.008400	3.875500	-11.657000	21.411371	0.000921	20.659044
80.009978	-2.992000	3.875100	-11.594000	21.405137	0.000920	20.649012
81.000815	-2.994100	3.874600	-11.600000	21.427165	0.000921	20.651138
82.011999	-3.002000	3.873800	-11.628000	21.423268	0.000920	20.654351
83.003205	-3.007800	3.875700	-11.656000	21.422181	0.000921	20.648521
84.003886	-3.005700	3.873600	-11.641000	21.432378	0.000920	20.643076
85.003437	-2.990700	3.873100	-11.582000	21.439437	0.000919	20.646346
86.008706	-3.004100	3.873500	-11.636000	21.445524	0.000920	20.650541
86.998799	-2.998100	3.873800	-11.613000	21.454152	0.000920	20.640206
88.019964	-3.018000	3.872800	-11.687000	21.460411	0.000919	20.649314
89.005375	-3.012900	3.873100	-11.669000	21.475730	0.000919	20.647098
90.010953	-3.016100	3.872800	-11.680000	21.464961	0.000919	20.651023
91.010770	-3.008100	3.871000	-11.641000	21.482560	0.000918	20.642553
92.006730	-3.008600	3.873300	-11.652000	21.505134	0.000921	20.655659
93.012167	-3.015300	3.872000	-11.674000	21.508370	0.000920	20.642299
94.006119	-2.985900	3.872700	-11.563000	21.518476	0.000920	20.646248
95.010585	-3.024300	3.869300	-11.701000	21.491466	0.000920	20.654310
96.016662	-2.978800	3.873600	-11.538000	21.517422	0.000920	20.629545
97.025013	-2.991600	3.871400	-11.580000	21.510216	0.000919	20.658848
98.012402	-2.992200	3.871800	-11.584000	21.516850	0.000920	20.638931
99.026656	-2.999700	3.870900	-11.611000	21.526801	0.000919	20.646518
100.011305	-3.005000	3.872000	-11.634000	21.539072	0.000920	20.644572
101.011626	-3.001400	3.870600	-11.616000	21.547708	0.000919	20.629029
102.011256	-2.994400	3.871000	-11.591000	21.575141	0.000919	20.643681
103.036357	-2.998500	3.871200	-11.606000	21.561122	0.000920	20.666639
104.011505	-2.992400	3.870200	-11.580000	21.556735	0.000920	20.652290
105.026207	-3.007800	3.868700	-11.635000	21.571792	0.000921	20.667359
106.013409	-2.997000	3.870900	-11.601000	21.590173	0.000921	20.642602
107.008924	-2.994400	3.869000	-11.583000	21.574447	0.000920	20.651047
108.003989	-3.004200	3.868700	-11.621000	21.576162	0.000918	20.625260
109.011559	-3.002400	3.868600	-11.614000	21.598955	0.000921	20.634319
110.025789	-3.011500	3.869600	-11.652000	21.610752	0.000920	20.637115
111.044918	-3.008700	3.867600	-11.634000	21.602550	0.000921	20.637917
112.034550	-2.988600	3.867700	-11.559000	21.605295	0.000921	20.647777
113.009969	-2.991700	3.868200	-11.572000	21.619330	0.000920	20.647123
114.013666	-2.991400	3.869300	-11.574000	21.630080	0.000921	20.658831
115.009918	-3.026000	3.867300	-11.702000	21.635145	0.000920	20.655839
116.013909	-3.011000	3.866600	-11.641000	21.636297	0.000920	20.649878
117.014280	-2.980600	3.866700	-11.524000	21.645495	0.000922	20.622095
118.015137	-2.997500	3.867900	-11.593000	21.671031	0.000922	20.654767
119.006895	-2.985100	3.867300	-11.542000	21.663254	0.000920	20.655045
120.033348	-2.991200	3.865700	-11.560000	21.662029	0.000922	20.644335
121.037278	-2.999300	3.866000	-11.594000	21.683325	0.000923	20.644310
122.033076	-2.993800	3.866100	-11.573000	21.685874	0.000920	20.646861
123.048761	-3.009100	3.866600	-11.634000	21.684706	0.000921	20.661815
124.024198	-3.003600	3.864300	-11.605000	21.710633	0.000921	20.629438
125.024881	-3.001900	3.865500	-11.603000	21.685122	0.000922	20.633305
126.028689	-3.010700	3.864200	-11.632000	21.690015	0.000921	20.644367
127.017642	-2.992300	3.864200	-11.562000	21.698748	0.000923	20.642200
128.019466	-2.973300	3.866500	-11.495000	21.706949	0.000923	20.676491
129.041389	-2.995100	3.865100	-11.575000	21.692890	0.000923	20.644399
130.044490	-3.001500	3.864000	-11.596000	21.702489	0.000925	20.653532
131.036503	-2.980100	3.867100	-11.523000	21.705879	0.000923	20.656451
132.036562	-3.027600	3.863600	-11.696000	21.710837	0.000924	20.645765
133.045306	-2.985700	3.866000	-11.540000	21.721840	0.000923	20.643026
134.023957	-2.993000	3.863300	-11.561000	21.737458	0.000925	20.650597
135.025084	-2.992100	3.862600	-11.556000	21.742809	0.000924	20.645520
136.016086	-2.994300	3.866200	-11.575000	21.742416	0.000925	20.647024
137.019638	-3.004800	3.861400	-11.601000	21.773880	0.000925	20.672353
138.032330	-2.979200	3.863300	-11.508000	21.771087	0.000926	20.657228
139.041174	-2.987100	3.863700	-11.539000	21.796849	0.000925	20.654088
140.019603	-3.031200	3.862300	-11.705000	21.807811	0.000924	20.662215
141.043953	-3.007300	3.861000	-11.610000	21.807165	0.000926	20.666311
142.040614	-3.007000	3.862000	-11.612000	21.803032	0.000926	20.666442
143.016124	-3.007100	3.860700	-11.608000	21.829512	0.000926	20.672558
144.022319	-2.994300	3.861300	-11.560000	21.825216	0.000929	20.654505
145.018801	-2.988700	3.860800	-11.538000	21.839158	0.000926	20.622463
146.018961	-3.005500	3.862100	-11.606000	21.867770	0.000927	20.666753
147.020932	-3.008700	3.860300	-11.614000	21.857462	0.000927	20.664022
148.024632	-3.002600	3.861400	-11.591000	21.865262	0.000928	20.647171
149.021142	-3.007000	3.861000	-11.608000	21.868553	0.000927	20.653311
150.037769	-3.008700	3.859600	-11.612000	21.882234	0.000929	20.644244
151.025366	-2.999600	3.861200	-11.581000	21.872335	0.000926	20.664210
152.037468	-2.999700	3.860400	-11.579000	21.866030	0.000930	20.661692
153.048559	-3.035200	3.859600	-11.713000	21.888588	0.000931	20.654399
154.044673	-2.989100	3.860000	-11.536000	21.895792	0.000930	20.663982
155.038269	-3.016400	3.859000	-11.640000	21.896887	0.000929	20.669819
156.023964	-3.014700	3.859000	-11.633000	21.920726	0.000930	20.675191
157.024446	-3.019600	3.858100	-11.649000	21.896781	0.000931	20.661652
158.028600	-2.998100	3.859500	-11.570000	21.930862	0.000931	20.656411
159.026830	-2.990000	3.858800	-11.537000	21.917101	0.000930	20.670138
160.050486	-2.968400	3.859900	-11.457000	21.925546	0.000930	20.659624
161.024709	-3.028300	3.857000	-11.678000	21.934031	0.000929	20.678077
162.041588	-3.001100	3.857100	-11.574000	21.950577	0.000928	20.674725
163.046141	-3.012800	3.857200	-11.620000	21.950447	0.000931	20.662265
164.041353	-3.007100	3.857300	-11.598000	21.945604	0.000932	20.670221
165.053166	-2.989900	3.858600	-11.535000	21.920229	0.000932	20.679435
166.054588	-2.986800	3.857100	-11.519000	21.958001	0.000932	20.692116
167.048906	-3.001100	3.857700	-11.576000	21.965246	0.000934	20.665700
168.046779	-2.983700	3.857400	-11.508000	21.970031	0.000933	20.679027
169.027940	-2.990600	3.856700	-11.533000	21.992318	0.000932	20.660083
170.025271	-2.995300	3.855900	-11.548000	21.984462	0.000935	20.674505
171.025567	-3.007300	3.857500	-11.599000	22.004209	0.000934	20.698068
172.026761	-2.995800	3.856300	-11.551000	22.000019	0.000935	20.693874
173.028745	-3.002600	3.856000	-11.577000	21.998615	0.000934	20.674449
174.029208	-3.007600	3.855500	-11.596000	21.997913	0.000935	20.679436
175.025426	-3.023800	3.854100	-11.653000	21.999759	0.000934	20.675119
176.027031	-2.995500	3.855400	-11.548000	21.992204	0.000937	20.680360
177.035231	-2.983400	3.855600	-11.501000	21.995218	0.000938	20.685748
178.038300	-2.990100	3.856600	-11.531000	22.004544	0.000936	20.677065
179.026989	-3.026500	3.853100	-11.659000	22.021114	0.000937	20.702664
180.037466	-3.031200	3.852700	-11.677000	22.010498	0.000938	20.674490
181.028562	-3.012800	3.854000	-11.610000	22.018795	0.000939	20.682797
182.051748	-3.006900	3.854500	-11.589000	22.029762	0.000937	20.680973
183.049555	-2.996900	3.853400	-11.546000	22.036369	0.000938	20.672413
184.065698	-2.990500	3.853000	-11.521000	22.022633	0.000939	20.689959
185.045534	-3.002300	3.853500	-11.567000	22.054563	0.000936	20.723348
186.053929	-3.003600	3.853600	-11.573000	22.033397	0.000937	20.694096
187.054993	-2.979700	3.853300	-11.481000	22.049353	0.000938	20.679723
188.054738	-3.005200	3.853100	-11.577000	22.051795	0.000938	20.689755
189.069659	-3.006300	3.852800	-11.582000	22.043686	0.000941	20.692543
190.052798	-2.999500	3.852000	-11.552000	22.076694	0.000941	20.689550
191.051526	-3.016200	3.852600	-11.620000	22.074203	0.000939	20.694644
192.065291	-3.031700	3.852100	-11.676000	22.089334	0.000941	20.693197
193.040209	-2.990500	3.852900	-11.520000	22.089816	0.000943	20.698895
194.056538	-2.987900	3.851500	-11.507000	22.116478	0.000943	20.699983
195.049876	-2.986000	3.852600	-11.502000	22.131567	0.000944	20.700865
196.053445	-2.988600	3.851900	-11.511000	22.119351	0.000942	20.693850
197.066236	-2.992200	3.851400	-11.522000	22.144575	0.000945	20.699664
198.038050	-2.996800	3.852300	-11.543000	22.155615	0.000943	20.715933
199.045322	-2.987700	3.851400	-11.506000	22.166540	0.000943	20.687514
200.040529	-2.996700	3.850700	-11.538000	22.187827	0.000943	20.698870
201.038233	-3.021300	3.850200	-11.632000	22.182062	0.000943	20.687408
202.037905	-3.002000	3.851100	-11.560000	22.198449	0.000944	20.696703
203.038729	-2.984400	3.849800	-11.488000	22.198996	0.000945	20.677335
204.046626	-2.991400	3.850900	-11.518000	22.199641	0.000944	20.704062
205.041641	-3.000100	3.849800	-11.547000	22.223548	0.000946	20.711403
206.036460	-3.008100	3.848200	-11.576000	22.226054	0.000946	20.717232
207.042681	-2.998200	3.849100	-11.539000	22.214730	0.000949	20.704470
208.039126	-3.009000	3.848800	-11.580000	22.201617	0.000947	20.702247
209.041764	-2.982700	3.848700	-11.479000	22.229664	0.000948	20.701404
210.045106	-3.020300	3.847900	-11.621000	22.247185	0.000947	20.688601
211.065935	-3.009500	3.846800	-11.575000	22.225507	0.000950	20.701984
212.067593	-3.006500	3.847300	-11.566000	22.264363	0.000951	20.703431
213.062624	-3.005100	3.847000	-11.560000	22.267580	0.000949	20.706653
214.062803	-2.991800	3.848300	-11.512000	22.278170	0.000949	20.712515
215.055989	-2.996000	3.848100	-11.529000	22.281966	0.000950	20.698297
216.064338	-3.012300	3.845900	-11.584000	22.281517	0.000951	20.719660
217.077633	-3.007600	3.847800	-11.572000	22.292906	0.000953	20.707830
218.040206	-3.006100	3.847200	-11.563000	22.288073	0.000953	20.718638
219.059708	-3.000000	3.847000	-11.540000	22.283647	0.000954	20.714206
220.056878	-2.989800	3.847900	-11.502000	22.294629	0.000953	20.720461
221.058159	-2.993300	3.846500	-11.513000	22.295910	0.000954	20.722692
222.061764	-2.992300	3.846500	-11.509000	22.282080	0.000954	20.721646
223.062284	-2.989300	3.846200	-11.497000	22.293845	0.000954	20.712089
224.039754	-3.012400	3.844300	-11.580000	22.312908	0.000957	20.698460
225.052892	-3.002700	3.844700	-11.543000	22.324322	0.000954	20.707993
226.048573	-3.003400	3.845900	-11.550000	22.337882	0.000956	20.697863
227.040864	-3.008100	3.846500	-11.570000	22.340699	0.000957	20.724393
228.046886	-2.983400	3.844600	-11.469000	22.354439	0.000956	20.728668
229.044585	-3.002800	3.845400	-11.546000	22.371951	0.000957	20.718703
230.059694	-2.990100	3.845000	-11.495000	22.370955	0.000957	20.731931
231.042721	-3.015500	3.843700	-11.590000	22.359843	0.000957	20.716536
232.064003	-3.004600	3.844100	-11.549000	22.359272	0.000960	20.695099
233.064411	-2.996700	3.844400	-11.519000	22.376384	0.000956	20.716978
234.060154	-2.998300	3.843800	-11.524000	22.381274	0.000960	20.725668
235.068547	-3.000600	3.842100	-11.527000	22.362660	0.000958	20.716511
236.077238	-2.997200	3.842300	-11.515000	22.363362	0.000960	20.714369
237.064198	-2.985400	3.844000	-11.475000	22.375999	0.000959	20.716119
238.071585	-2.996900	3.843400	-11.517000	22.379086	0.000960	20.726796
239.065885	-2.978700	3.843200	-11.446000	22.395282	0.000961	20.728317
240.044885	-3.029300	3.840500	-11.633000	22.395543	0.000959	20.719094
241.042706	-3.011200	3.841800	-11.568000	22.438255	0.000961	20.738160
242.058068	-3.003200	3.840900	-11.534000	22.430949	0.000962	20.728472
243.045107	-3.001300	3.841200	-11.528000	22.448892	0.000961	20.727000
244.060038	-2.986300	3.841800	-11.472000	22.435659	0.000963	20.744095
245.071641	-3.010700	3.841500	-11.565000	22.464614	0.000963	20.709554
246.047557	-3.003300	3.841300	-11.535000	22.450982	0.000962	20.729093
247.047279	-2.995300	3.841200	-11.504000	22.458802	0.000965	20.726020
248.049953	-2.995700	3.841600	-11.506000	22.482524	0.000966	20.728440
249.056465	-2.980900	3.842400	-11.453000	22.479063	0.000967	20.747259
250.057317	-3.001100	3.839000	-11.520000	22.474304	0.000966	20.732535
251.057894	-2.995100	3.841100	-11.503000	22.480280	0.000967	20.724769
252.048869	-2.974700	3.840200	-11.421000	22.484712	0.000967	20.718302
253.049592	-3.007200	3.839800	-11.546000	22.492435	0.000968	20.743107
254.051797	-2.993800	3.839500	-11.493000	22.498785	0.000969	20.749942
255.053538	-2.999700	3.839800	-11.517000	22.535020	0.000967	20.743556
256.054837	-3.023100	3.838100	-11.602000	22.537355	0.000969	20.742576
257.052583	-2.990100	3.837900	-11.474000	22.530882	0.000969	20.746050
258.052092	-2.996000	3.838200	-11.498000	22.541518	0.000970	20.735839
259.065057	-3.017800	3.837500	-11.580000	22.508173	0.000972	20.744170
260.049349	-3.007700	3.838600	-11.545000	22.515577	0.000970	20.725505
261.050682	-2.995100	3.839000	-11.498000	22.528009	0.000971	20.757872
262.058248	-3.010500	3.836200	-11.548000	22.513805	0.000972	20.742698
263.070258	-2.989600	3.836900	-11.470000	22.555386	0.000974	20.756842
264.052186	-2.998900	3.836400	-11.503000	22.542424	0.000973	20.751921
265.057441	-2.993100	3.836800	-11.483000	22.549460	0.000973	20.774141
266.065481	-3.016800	3.835900	-11.570000	22.544399	0.000973	20.751054
267.059757	-2.996800	3.837900	-11.500000	22.555909	0.000972	20.754046
268.069186	-3.009700	3.835600	-11.542000	22.566643	0.000976	20.754365
269.054793	-2.996800	3.837100	-11.498000	22.595872	0.000976	20.753294
270.060727	-3.011200	3.836400	-11.551000	22.570136	0.000978	20.749803
271.068901	-2.987100	3.834900	-11.454000	22.605617	0.000976	20.731286
272.058938	-2.998800	3.835000	-11.499000	22.605144	0.000976	20.770168
273.064357	-3.008600	3.834900	-11.537000	22.624602	0.000977	20.756466
274.064636	-3.013400	3.833300	-11.550000	22.627198	0.000977	20.735831
275.062001	-3.021000	3.833800	-11.581000	22.640298	0.000977	20.758911
276.059024	-2.999600	3.834600	-11.501000	22.638780	0.000978	20.748381
277.061871	-3.011300	3.835700	-11.550000	22.631532	0.000978	20.756768
278.056427	-2.994000	3.834000	-11.478000	22.659160	0.000978	20.765949
279.062951	-3.006400	3.834100	-11.527000	22.634617	0.000982	20.755591
280.090867	-3.016200	3.834100	-11.563000	22.624480	0.000980	20.771991
281.078458	-3.002200	3.833400	-11.507000	22.632120	0.000980	20.757832
282.087430	-3.003900	3.832300	-11.510000	22.628537	0.000981	20.759933
283.080455	-2.983300	3.834300	-11.437000	22.635645	0.000980	20.744293
284.106251	-3.016700	3.832900	-11.561000	22.627916	0.000981	20.761682
285.085304	-2.991600	3.832500	-11.464000	22.649292	0.000985	20.754643
286.084253	-3.013800	3.832200	-11.547000	22.669452	0.000983	20.763930
287.072757	-2.980200	3.832100	-11.417000	22.666840	0.000983	20.757520
288.087773	-2.997800	3.832000	-11.486000	22.651014	0.000984	20.774860
289.079857	-3.017700	3.830300	-11.558000	22.647652	0.000985	20.766276
290.083198	-2.980400	3.832800	-11.422000	22.665485	0.000985	20.760431
291.086596	-3.015200	3.829600	-11.546000	22.662677	0.000986	20.790810
292.078333	-2.995400	3.831800	-11.477000	22.659707	0.000986	20.761281
293.084446	-2.983000	3.833100	-11.433000	22.666236	0.000986	20.755019
294.081025	-2.995600	3.832000	-11.478000	22.696866	0.000988	20.758673
295.060430	-2.992500	3.830900	-11.462000	22.702963	0.000988	20.773789
296.061401	-3.003900	3.831300	-11.508000	22.697854	0.000989	20.776732
297.063473	-3.012000	3.830700	-11.538000	22.732556	0.000987	20.765974
298.082902	-3.014000	3.830000	-11.542000	22.740089	0.000987	20.798176
299.085754	-3.005900	3.830400	-11.512000	22.748429	0.000990	20.788513
300.086661	-3.001400	3.831100	-11.497000	22.748307	0.000989	20.760415
301.088724	-2.985900	3.828500	-11.430000	22.759047	0.000989	20.765957
302.064233	-2.992400	3.829900	-11.458000	22.751498	0.000989	20.761240
303.070012	-2.987000	3.829100	-11.436000	22.779278	0.000990	20.772473
304.065144	-2.986700	3.830500	-11.439000	22.751073	0.000990	20.765083
305.091776	-2.987700	3.828300	-11.437000	22.767110	0.000990	20.781147
306.090618	-3.007200	3.828500	-11.512000	22.738440	0.000991	20.802214
307.092162	-3.001400	3.827400	-11.485000	22.771280	0.000993	20.775841
308.093062	-3.009400	3.827500	-11.517000	22.776952	0.000993	20.777256
309.099725	-3.002700	3.827900	-11.493000	22.771044	0.000994	20.799312
310.099286	-2.989900	3.827100	-11.441000	22.773166	0.000992	20.787687
311.089103	-3.007000	3.827400	-11.507000	22.786990	0.000993	20.783992
312.073142	-3.003500	3.825900	-11.490000	22.800741	0.000993	20.800612
313.098012	-3.001200	3.826300	-11.481000	22.818516	0.000995	20.785701
314.096453	-2.999500	3.827300	-11.479000	22.788957	0.000996	20.782643
315.092148	-2.970400	3.826700	-11.366000	22.829181	0.000995	20.803972
316.087324	-3.001200	3.826400	-11.482000	22.832176	0.000996	20.784687
317.087641	-3.019600	3.823500	-11.544000	22.838304	0.000997	20.791775
318.080298	-2.985200	3.825500	-11.418000	22.872448	0.000997	20.797056
319.095088	-3.002300	3.824700	-11.482000	22.860917	0.000999	20.792617
320.103498	-3.016500	3.822600	-11.529000	22.873345	0.000999	20.812180
321.096203	-2.995600	3.826600	-11.462000	22.876413	0.000998	20.810512
322.094334	-3.022200	3.823900	-11.556000	22.859195	0.001000	20.798005
323.101911	-3.021400	3.824700	-11.554000	22.899172	0.000999	20.802967
324.091307	-3.010400	3.824600	-11.512000	22.897703	0.001001	20.782529
325.098104	-2.993700	3.822300	-11.441000	22.895133	0.001002	20.791334
326.101582	-3.005800	3.824000	-11.492000	22.887617	0.001002	20.815099
327.094274	-3.017600	3.823700	-11.538000	22.898919	0.001003	20.792283
328.096218	-2.996300	3.823000	-11.454000	22.901001	0.001001	20.811911
329.094090	-2.981500	3.824400	-11.402000	22.918022	0.001003	20.830386
330.096997	-2.997000	3.822700	-11.456000	22.920494	0.001004	20.813423
331.092517	-2.978500	3.823100	-11.386000	22.925415	0.001005	20.805551
332.102151	-2.993600	3.822700	-11.443000	22.942828	0.001005	20.803082
333.105901	-2.996200	3.821900	-11.451000	22.935272	0.001003	20.804047
334.107910	-2.987800	3.821400	-11.416000	22.942404	0.001006	20.813562
335.108440	-3.009200	3.821000	-11.496000	22.966703	0.001008	20.824632
336.098527	-2.985600	3.821600	-11.409000	22.960706	0.001007	20.806769
337.105101	-3.006100	3.820400	-11.483000	22.964712	0.001007	20.823585
338.104494	-3.017500	3.821300	-11.531000	22.962297	0.001009	20.799355
339.102063	-3.002800	3.819800	-11.468000	22.985381	0.001006	20.817741
340.104658	-2.988200	3.820800	-11.417000	22.993499	0.001008	20.823978
341.096370	-2.995400	3.819800	-11.441000	22.992030	0.001010	20.811127
342.101540	-2.994400	3.819800	-11.438000	22.986547	0.001010	20.835979
343.097947	-2.988900	3.820500	-11.417000	22.991125	0.001009	20.800263
344.098193	-2.997700	3.819000	-11.448000	22.980028	0.001008	20.802895
345.098759	-2.998300	3.818500	-11.447000	23.018532	0.001011	20.816817
346.103261	-2.996000	3.819600	-11.442000	23.018377	0.001012	20.831834
347.106759	-2.996000	3.818600	-11.439000	23.028290	0.001011	20.807154
348.080073	-3.005600	3.818700	-11.476000	23.030885	0.001013	20.814969
349.105565	-2.984200	3.818700	-11.395000	23.020637	0.001013	20.828409
350.104074	-2.998900	3.818300	-11.450000	23.048263	0.001012	20.834279
351.097284	-2.996300	3.817000	-11.435000	23.044975	0.001012	20.843312
352.104944	-3.023700	3.816700	-11.539000	23.035217	0.001014	20.815991
353.108014	-3.005400	3.816600	-11.469000	23.029636	0.001013	20.831262
354.108691	-3.000900	3.816800	-11.453000	23.042536	0.001014	20.809100
355.080099	-3.005200	3.815300	-11.464000	23.056610	0.001012	20.813244
356.103115	-3.017800	3.816000	-11.515000	23.075106	0.001015	20.823243
357.080012	-2.992000	3.816500	-11.418000	23.053379	0.001013	20.830869
358.086965	-3.019200	3.814600	-11.516000	23.071002	0.001015	20.830036
359.117259	-2.994600	3.815400	-11.424000	23.067991	0.001015	20.836502
360.086735	-2.987300	3.817200	-11.401000	23.098154	0.001015	20.813620
361.095160	-3.017800	3.815400	-11.513000	23.087295	0.001017	20.827395
362.084398	-3.010300	3.815800	-11.485000	23.104460	0.001017	20.818517
363.093857	-3.016800	3.813600	-11.504000	23.091390	0.001017	20.822964
364.085318	-2.993400	3.815200	-11.419000	23.079332	0.001017	20.826528
365.109462	-2.991400	3.813600	-11.407000	23.075252	0.001018	20.824811
366.110055	-2.994000	3.812700	-11.414000	23.054553	0.001020	20.829676
367.102512	-2.980800	3.813800	-11.368000	23.050082	0.001017	20.826143
368.114165	-2.999700	3.813200	-11.438000	23.039247	0.001021	20.835201
369.114046	-3.006600	3.814000	-11.467000	23.060362	0.001019	20.821271
370.104330	-3.016600	3.812600	-11.500000	23.050579	0.001020	20.800564
371.115354	-3.002600	3.814000	-11.452000	23.040715	0.001020	20.832880
372.096367	-2.964400	3.815300	-11.308000	23.063340	0.001019	20.793909
373.086396	-2.991600	3.813300	-11.406000	23.077030	0.001019	20.808101
374.089990	-3.000100	3.810900	-11.432000	23.086543	0.001020	20.825220
375.083158	-2.995100	3.812200	-11.417000	23.089480	0.001022	20.802085
376.091305	-2.990100	3.812600	-11.399000	23.085923	0.001022	20.815115
377.086362	-3.000500	3.811200	-11.434000	23.085001	0.001021	20.799493
378.103807	-2.979900	3.810900	-11.355000	23.101286	0.001022	20.813440
379.090704	-2.992600	3.810900	-11.403000	23.087686	0.001023	20.817830
380.086669	-2.994900	3.810100	-11.410000	23.091055	0.001024	20.793705
381.085725	-2.995000	3.810200	-11.411000	23.093462	0.001024	20.800859
382.117787	-3.006800	3.810100	-11.455000	23.138888	0.001025	20.806074
383.093994	-2.991200	3.810400	-11.396000	23.130624	0.001026	20.804905
384.090087	-3.014900	3.808600	-11.482000	23.127132	0.001024	20.788604
385.092598	-3.008700	3.810100	-11.462000	23.136539	0.001025	20.793763
386.091345	-3.017100	3.807800	-11.487000	23.156844	0.001026	20.797515
387.110898	-3.009400	3.808600	-11.461000	23.177215	0.001025	20.785211
388.123904	-3.012000	3.807600	-11.467000	23.148653	0.001025	20.778876
389.117191	-3.014200	3.808200	-11.478000	23.146655	0.001025	20.810064
390.114887	-2.987800	3.808800	-11.379000	23.139386	0.001026	20.793771
391.105025	-2.999800	3.807800	-11.421000	23.156665	0.001029	20.789749
392.092698	-3.007900	3.808200	-11.452000	23.160630	0.001027	20.776652
393.087986	-3.007500	3.807500	-11.450000	23.184590	0.001030	20.803033
394.103287	-2.994600	3.808000	-11.402000	23.177933	0.001029	20.786879
395.092412	-3.001200	3.807200	-11.425000	23.176097	0.001027	20.774608
396.090698	-2.992900	3.805400	-11.387000	23.173030	0.001030	20.777699
397.088384	-2.984300	3.806100	-11.356000	23.181954	0.001030	20.778107
398.098240	-2.986600	3.806800	-11.369000	23.181743	0.001030	20.790223
399.098188	-3.005300	3.807500	-11.441000	23.178961	0.001031	20.793125
400.110266	-3.002500	3.804500	-11.421000	23.192364	0.001032	20.774788
401.098724	-2.991400	3.805400	-11.382000	23.164921	0.001032	20.767675
402.089882	-3.004900	3.807600	-11.439000	23.197446	0.001032	20.794580
403.108905	-3.006300	3.804800	-11.436000	23.203744	0.001033	20.780502
404.096926	-3.020700	3.804400	-11.492000	23.199983	0.001033	20.786217
405.112899	-2.995100	3.804800	-11.395000	23.205041	0.001032	20.776112
406.111189	-2.985400	3.805400	-11.360000	23.208304	0.001032	20.778434
407.118310	-2.994400	3.803900	-11.389000	23.229212	0.001032	20.769040
408.131162	-3.010100	3.803200	-11.447000	23.220133	0.001033	20.783650
409.113073	-2.995800	3.803700	-11.394000	23.253758	0.001034	20.773725
410.113341	-2.983500	3.804100	-11.348000	23.260007	0.001034	20.777616
411.098469	-3.017900	3.801900	-11.472000	23.238667	0.001037	20.781360
412.117148	-2.987600	3.802200	-11.359000	23.258416	0.001036	20.776496
413.115450	-3.017900	3.801200	-11.471000	23.271884	0.001036	20.772449
414.120541	-2.975400	3.801400	-11.309000	23.286085	0.001036	20.780992
415.130199	-2.976500	3.802000	-11.316000	23.300654	0.001037	20.784213
416.120377	-2.974200	3.801300	-11.305000	23.317742	0.001038	20.774313
417.098954	-2.992100	3.800800	-11.371000	23.295800	0.001037	20.767020
418.111485	-2.998900	3.801500	-11.400000	23.320279	0.001037	20.760259
419.130333	-3.008300	3.800000	-11.431000	23.307065	0.001038	20.762663
420.120677	-2.981400	3.801500	-11.332000	23.330965	0.001038	20.771917
421.123219	-2.989400	3.799400	-11.357000	23.332955	0.001037	20.744514
422.094748	-3.013800	3.798500	-11.447000	23.357156	0.001038	20.773512
423.129725	-2.995700	3.799100	-11.380000	23.356968	0.001038	20.768581
424.116023	-2.997600	3.799800	-11.389000	23.351617	0.001040	20.776495
425.126154	-2.967000	3.800000	-11.274000	23.340581	0.001038	20.769227
426.121421	-2.972700	3.800100	-11.296000	23.332294	0.001038	20.771827
427.129450	-3.026600	3.796600	-11.489000	23.323786	0.001038	20.780370
428.125917	-3.004000	3.798000	-11.408000	23.311093	0.001040	20.777132
429.119492	-3.008000	3.797100	-11.418000	23.347024	0.001040	20.752451
430.120839	-2.975200	3.797600	-11.298000	23.357881	0.001041	20.763332
431.116412	-2.984100	3.797900	-11.333000	23.361445	0.001040	20.749360
432.129052	-2.996000	3.795400	-11.369000	23.368794	0.001040	20.762890
433.126755	-2.989300	3.797800	-11.351000	23.384283	0.001040	20.757552
434.104418	-2.996000	3.797100	-11.376000	23.389201	0.001041	20.752049
435.117986	-3.016200	3.796900	-11.451000	23.384487	0.001042	20.762024
436.099540	-2.992400	3.795600	-11.357000	23.354218	0.001042	20.756816
437.109836	-3.001600	3.793900	-11.386000	23.367244	0.001044	20.765130
438.103540	-3.024900	3.792500	-11.471000	23.388760	0.001043	20.756349
439.122407	-2.982200	3.795500	-11.318000	23.392667	0.001046	20.775439
440.139308	-3.032500	3.795700	-11.510000	23.407088	0.001043	20.764762
441.130162	-2.985800	3.795000	-11.328000	23.422429	0.001045	20.730351
442.120599	-2.991600	3.795400	-11.354000	23.401166	0.001045	20.754084
443.119549	-3.001400	3.792200	-11.381000	23.428685	0.001045	20.744682
444.129691	-3.014900	3.792300	-11.433000	23.445364	0.001046	20.750969
445.122285	-2.990000	3.794400	-11.345000	23.427396	0.001044	20.753822
446.133585	-3.015900	3.792900	-11.437000	23.434100	0.001044	20.758171
447.135342	-3.010500	3.791700	-11.414000	23.456570	0.001046	20.755564
448.134795	-2.989800	3.793700	-11.342000	23.446718	0.001046	20.747110
449.125473	-2.997600	3.791600	-11.364000	23.474415	0.001046	20.756381
450.127122	-2.975900	3.791100	-11.281000	23.467336	0.001047	20.750707
451.135671	-3.008400	3.791400	-11.405000	23.466169	0.001048	20.777988
452.119620	-3.025100	3.790000	-11.464000	23.422257	0.001049	20.752939
453.129318	-2.996600	3.791500	-11.361000	23.453927	0.001048	20.760975
454.127242	-3.028300	3.790600	-11.477000	23.476983	0.001048	20.755637
455.122838	-2.996000	3.790700	-11.356000	23.475491	0.001049	20.766469
456.125560	-3.009800	3.790100	-11.407000	23.492895	0.001049	20.743136
457.109539	-2.970200	3.790700	-11.256000	23.447753	0.001047	20.742458
458.108075	-2.998100	3.789900	-11.361000	23.485653	0.001049	20.738721
459.149357	-3.022400	3.788400	-11.449000	23.466756	0.001049	20.749652
460.115032	-2.993200	3.789200	-11.341000	23.495913	0.001051	20.747109
461.111723	-2.995500	3.789700	-11.351000	23.487945	0.001050	20.736751
462.114086	-3.015000	3.787400	-11.418000	23.490464	0.001050	20.747338
463.116056	-2.997400	3.788200	-11.353000	23.511824	0.001051	20.736980
464.109374	-3.009400	3.788000	-11.399000	23.488009	0.001051	20.735394
465.110882	-2.999700	3.788300	-11.363000	23.509165	0.001051	20.747591
466.113533	-3.001700	3.786900	-11.366000	23.505927	0.001051	20.743872
467.112062	-3.019500	3.786200	-11.431000	23.513952	0.001050	20.722043
468.114977	-3.010900	3.785100	-11.395000	23.487536	0.001053	20.754360
469.124037	-3.008500	3.786300	-11.390000	23.456063	0.001050	20.747943
470.120676	-3.018800	3.785200	-11.425000	23.453453	0.001051	20.739637
471.130250	-2.990800	3.786100	-11.323000	23.438291	0.001051	20.728706
472.113011	-2.997500	3.785100	-11.345000	23.425665	0.001052	20.722689
473.112004	-2.990400	3.785600	-11.319000	23.411270	0.001052	20.734813
474.113009	-2.989400	3.785200	-11.314000	23.433609	0.001051	20.739187
475.114152	-3.008900	3.783900	-11.384000	23.431701	0.001053	20.746757
476.130080	-2.988500	3.784700	-11.310000	23.456895	0.001055	20.733603
477.128708	-3.022100	3.783000	-11.432000	23.449505	0.001053	20.730937
478.132658	-3.022400	3.784200	-11.437000	23.443274	0.001055	20.733701
479.127074	-2.991900	3.783500	-11.319000	23.464895	0.001054	20.727872
480.117066	-2.982200	3.783000	-11.281000	23.467350	0.001054	20.747403
481.137458	-3.021400	3.782500	-11.427000	23.481664	0.001053	20.735671
482.129642	-2.989700	3.782700	-11.308000	23.474478	0.001054	20.729891
483.134188	-3.002300	3.781800	-11.353000	23.486231	0.001054	20.711798
484.131234	-2.987200	3.783200	-11.299000	23.473288	0.001055	20.744345
485.122565	-2.994400	3.782400	-11.323000	23.486557	0.001056	20.750534
486.109477	-2.971300	3.782500	-11.236000	23.490741	0.001057	20.733864
487.111177	-3.004500	3.782100	-11.362000	23.510934	0.001055	20.719491
488.110370	-2.989100	3.780500	-11.300000	23.543131	0.001057	20.720472
489.113314	-3.015900	3.780300	-11.398000	23.549599	0.001055	20.730749
490.122342	-3.019400	3.780100	-11.412000	23.549729	0.001057	20.724715
491.115198	-2.990400	3.781300	-11.307000	23.560583	0.001056	20.711414
492.140378	-2.974600	3.780900	-11.246000	23.592666	0.001057	20.724135
493.114071	-2.979000	3.779300	-11.258000	23.601937	0.001057	20.730111
494.115414	-3.012400	3.778900	-11.383000	23.609603	0.001058	20.730209
495.114916	-3.000200	3.779100	-11.336000	23.592372	0.001056	20.712460
496.125077	-2.974300	3.779800	-11.241000	23.630242	0.001057	20.721976
497.120547	-3.001100	3.779100	-11.341000	23.608184	0.001057	20.739219
498.117652	-3.001700	3.777400	-11.337000	23.620710	0.001058	20.703884
499.116468	-2.989300	3.777500	-11.290000	23.617595	0.001058	20.720202
500.129012	-3.001600	3.776800	-11.335000	23.628530	0.001058	20.738752
501.122899	-2.992200	3.777200	-11.301000	23.628734	0.001057	20.702919
502.119340	-2.993300	3.777500	-11.306000	23.609643	0.001058	20.717921
503.139660	-3.008600	3.775800	-11.359000	23.602173	0.001056	20.723709
504.127510	-3.012400	3.775300	-11.372000	23.603372	0.001058	20.704995
505.113900	-3.003200	3.776000	-11.338000	23.591221	0.001056	20.712729
506.141562	-2.985300	3.777200	-11.275000	23.593619	0.001059	20.696165
507.145082	-2.988100	3.775100	-11.280000	23.621671	0.001057	20.706745
508.151162	-3.007500	3.773800	-11.349000	23.634637	0.001057	20.705993
509.142672	-3.017800	3.773700	-11.387000	23.628269	0.001058	20.716204
510.143704	-2.996500	3.774300	-11.307000	23.632313	0.001060	20.717413
511.143479	-2.998600	3.774500	-11.316000	23.651917	0.001059	20.707194
512.148853	-3.030900	3.773600	-11.436000	23.656524	0.001059	20.720823
513.154167	-2.998200	3.774200	-11.314000	23.624884	0.001059	20.709492
514.134545	-3.000500	3.772300	-11.318000	23.630095	0.001059	20.720406
515.138561	-3.022700	3.772100	-11.401000	23.639171	0.001060	20.702951
516.118153	-3.005300	3.773300	-11.338000	23.643110	0.001060	20.713064
517.123873	-3.002500	3.772300	-11.326000	23.669970	0.001060	20.714389
518.152594	-3.034700	3.770500	-11.442000	23.698225	0.001059	20.709050
519.136684	-2.980700	3.771700	-11.242000	23.698526	0.001061	20.709826
520.124999	-2.995400	3.771900	-11.297000	23.704283	0.001057	20.722237
521.124559	-2.992900	3.771200	-11.285000	23.712299	0.001060	20.719367
522.134999	-2.987800	3.771900	-11.268000	23.727677	0.001058	20.698748
523.124953	-2.994700	3.770700	-11.291000	23.729218	0.001060	20.701242
524.127365	-3.001800	3.769600	-11.314000	23.740226	0.001061	20.713701
525.129544	-3.020600	3.769600	-11.384000	23.710562	0.001059	20.692019
526.125225	-2.993700	3.769900	-11.285000	23.721439	0.001060	20.702452
527.128819	-3.003300	3.768800	-11.318000	23.727693	0.001060	20.705403
528.123759	-3.004100	3.768400	-11.320000	23.719352	0.001059	20.697513
529.128775	-2.979100	3.770700	-11.233000	23.721381	0.001058	20.705239
530.130120	-2.987000	3.767900	-11.253000	23.715225	0.001059	20.681995
531.142141	-3.005400	3.768300	-11.325000	23.733180	0.001059	20.709482
532.125864	-2.979200	3.768800	-11.227000	23.742622	0.001062	20.691920
533.128805	-3.000100	3.767600	-11.301000	23.760691	0.001060	20.712883
534.131012	-3.008700	3.766500	-11.332000	23.762632	0.001058	20.701077
535.130682	-2.993900	3.767200	-11.277000	23.741799	0.001062	20.699630
536.131558	-3.001000	3.765800	-11.300000	23.764580	0.001060	20.698763
537.128820	-2.982600	3.766700	-11.233000	23.760528	0.001059	20.711771
538.140572	-3.026900	3.765700	-11.397000	23.758041	0.001060	20.699319
539.129653	-2.982400	3.766300	-11.232000	23.785739	0.001060	20.686786
540.131745	-2.989000	3.764800	-11.252000	23.815563	0.001060	20.686818
541.132393	-2.993500	3.765700	-11.271000	23.813623	0.001060	20.693882
542.128040	-3.030600	3.765000	-11.409000	23.815001	0.001061	20.680089
543.136805	-2.981500	3.764200	-11.223000	23.828315	0.001059	20.686328
544.142032	-2.996700	3.763600	-11.277000	23.820928	0.001060	20.701207
545.163005	-2.979900	3.765100	-11.219000	23.805975	0.001062	20.691429
546.145659	-2.988200	3.764500	-11.248000	23.769341	0.001062	20.683621
547.148145	-2.997400	3.762800	-11.277000	23.780275	0.001061	20.695533
548.168559	-2.991900	3.764200	-11.259000	23.744757	0.001062	20.705916
549.162011	-2.989000	3.761400	-11.242000	23.724846	0.001061	20.687374
550.160722	-2.989800	3.762300	-11.247000	23.744341	0.001061	20.684160
551.162873	-3.010000	3.762000	-11.322000	23.742352	0.001062	20.692598
552.156107	-3.013200	3.761400	-11.333000	23.757191	0.001063	20.684242
553.130111	-3.025700	3.760700	-11.378000	23.743958	0.001061	20.692311
554.149570	-3.014000	3.761800	-11.336000	23.757102	0.001061	20.689842
555.151296	-2.984700	3.762600	-11.229000	23.757697	0.001060	20.678584
556.155969	-3.016300	3.759900	-11.340000	23.772716	0.001062	20.692221
557.154984	-3.014000	3.759900	-11.331000	23.784310	0.001060	20.674921
558.159018	-3.000200	3.761000	-11.283000	23.799027	0.001060	20.690153
559.157724	-2.997200	3.759500	-11.267000	23.793482	0.001062	20.683645
560.139977	-3.010200	3.758600	-11.313000	23.814013	0.001061	20.672460
561.139861	-3.000800	3.757300	-11.274000	23.816255	0.001062	20.695573
562.134734	-3.006300	3.758300	-11.297000	23.797690	0.001060	20.680750
563.141143	-2.989600	3.757800	-11.234000	23.825003	0.001061	20.688697
564.134164	-2.988700	3.758900	-11.233000	23.834877	0.001064	20.671569
565.141820	-3.015600	3.757500	-11.329000	23.861089	0.001063	20.682205
566.144180	-3.023100	3.757500	-11.359000	23.859857	0.001063	20.708000
567.133341	-3.009400	3.756600	-11.304000	23.870016	0.001061	20.694477
568.160294	-2.986800	3.757200	-11.221000	23.854648	0.001061	20.668633
569.151921	-2.993300	3.756800	-11.244000	23.860632	0.001061	20.671789
570.153902	-2.992400	3.756500	-11.240000	23.872176	0.001062	20.688108
571.155118	-3.007000	3.754900	-11.290000	23.883598	0.001062	20.676327
572.161076	-2.993800	3.757500	-11.248000	23.849063	0.001060	20.667300
573.154818	-2.993300	3.755100	-11.239000	23.837591	0.001064	20.645838
574.152600	-2.997100	3.755100	-11.253000	23.841521	0.001064	20.687716
575.168435	-3.009300	3.755400	-11.300000	23.790302	0.001064	20.667178
576.158581	-2.996500	3.753600	-11.247000	23.764235	0.001063	20.674234
577.151976	-3.002200	3.752900	-11.265000	23.767766	0.001062	20.666393
578.146938	-3.016600	3.753900	-11.323000	23.775120	0.001063	20.657170
579.152789	-2.983900	3.753100	-11.198000	23.787139	0.001064	20.693880
580.142794	-2.990900	3.753000	-11.224000	23.822508	0.001061	20.664856
581.171201	-2.988700	3.753500	-11.218000	23.839858	0.001063	20.663286
582.144629	-3.000400	3.752400	-11.258000	23.835602	0.001061	20.652853
583.145287	-2.976700	3.754000	-11.174000	23.844864	0.001061	20.659770
584.144037	-2.983800	3.752300	-11.196000	23.858650	0.001062	20.667431
585.146155	-2.998400	3.750600	-11.244000	23.878812	0.001060	20.664414
586.150363	-2.988000	3.751500	-11.208000	23.901338	0.001062	20.658078
587.150985	-2.979700	3.752600	-11.180000	23.894718	0.001063	20.656181
588.167658	-2.992100	3.752200	-11.226000	23.902463	0.001062	20.645454
589.160032	-2.991500	3.750400	-11.218000	23.885392	0.001062	20.687135
590.162399	-3.003600	3.750500	-11.264000	23.862914	0.001060	20.679768
591.143454	-2.991700	3.750100	-11.219000	23.827522	0.001062	20.664193
592.142752	-2.993300	3.750100	-11.224000	23.805997	0.001061	20.674380
593.171932	-2.979100	3.750300	-11.171000	23.811321	0.001061	20.666916
594.173942	-2.995200	3.749600	-11.230000	23.806022	0.001062	20.675828
595.167253	-2.974400	3.751000	-11.154000	23.797363	0.001061	20.666670
596.163806	-2.984900	3.748400	-11.188000	23.774411	0.001062	20.668314
597.163861	-2.994200	3.747900	-11.222000	23.801545	0.001062	20.643835
598.150642	-3.014700	3.748100	-11.298000	23.808989	0.001061	20.662681
599.153924	-3.008300	3.747700	-11.273000	23.798586	0.001063	20.675484
600.162007	-3.036300	3.746200	-11.373000	23.831884	0.001062	20.655289
601.185966	-2.974100	3.747700	-11.145000	23.853897	0.001063	20.665509
602.171422	-3.001500	3.746800	-11.245000	23.873130	0.001060	20.662983
603.152115	-2.996800	3.745700	-11.223000	23.884079	0.001061	20.652624
604.181617	-2.986000	3.746900	-11.186000	23.915124	0.001062	20.669532
605.155538	-3.002100	3.746600	-11.247000	23.927768	0.001063	20.655657
606.153821	-2.998800	3.745600	-11.231000	23.895582	0.001062	20.656573
607.148061	-2.994200	3.746600	-11.216000	23.906140	0.001061	20.661944
608.151397	-3.022100	3.744000	-11.312000	23.912336	0.001060	20.639231
609.157176	-3.014500	3.744300	-11.285000	23.867267	0.001059	20.660898
610.166443	-3.006000	3.743000	-11.249000	23.863957	0.001061	20.665640
611.145224	-3.019600	3.742700	-11.300000	23.884462	0.001060	20.656328
612.177045	-3.023600	3.743500	-11.317000	23.858585	0.001060	20.663097
613.155674	-3.003900	3.744300	-11.244000	23.870521	0.001059	20.661789
614.178574	-3.007900	3.743600	-11.259000	23.866697	0.001059	20.660800
615.148255	-2.982300	3.742300	-11.159000	23.900368	0.001060	20.664217
616.154282	-2.990100	3.743300	-11.191000	23.914088	0.001060	20.685090
617.159162	-3.011700	3.741500	-11.267000	23.921181	0.001059	20.652370
618.156826	-2.992100	3.742800	-11.197000	23.952144	0.001059	20.659238
619.155342	-2.994100	3.741700	-11.202000	23.998154	0.001060	20.652746
620.158162	-3.001500	3.741700	-11.229000	23.955674	0.001058	20.665624
621.163301	-3.001700	3.740600	-11.227000	23.961992	0.001059	20.678599
622.155185	-2.999600	3.740500	-11.220000	23.958707	0.001061	20.663923
623.172369	-2.980400	3.741700	-11.151000	23.971946	0.001060	20.651594
624.167039	-3.009500	3.739500	-11.252000	23.975810	0.001060	20.679179
625.161491	-3.000300	3.740400	-11.222000	23.971505	0.001062	20.657317
626.173680	-3.003500	3.739900	-11.232000	23.930817	0.001059	20.652076
627.184959	-2.990800	3.739100	-11.182000	23.925738	0.001058	20.669744
628.171822	-2.982400	3.740000	-11.153000	23.899210	0.001060	20.664479
629.177198	-3.006300	3.739300	-11.240000	23.897889	0.001058	20.665525
630.175081	-3.003800	3.738400	-11.228000	23.950823	0.001058	20.681150
631.178958	-2.992300	3.739100	-11.188000	23.927785	0.001060	20.666106
632.171727	-3.002200	3.737900	-11.220000	23.940926	0.001059	20.653204
633.157615	-2.979400	3.736500	-11.131000	23.944554	0.001058	20.678182
634.153661	-3.001700	3.738000	-11.218000	23.973829	0.001057	20.670079
635.153375	-2.992300	3.737000	-11.181000	23.975051	0.001058	20.664192
636.157380	-2.998600	3.736900	-11.204000	23.995431	0.001058	20.679416
637.173266	-3.021500	3.736000	-11.287000	24.004415	0.001060	20.673251
638.182714	-3.007700	3.736600	-11.237000	24.035571	0.001058	20.666089
639.176999	-2.993700	3.736700	-11.186000	24.045882	0.001059	20.683545
640.184869	-2.995100	3.736400	-11.190000	24.027012	0.001061	20.682163
641.162890	-2.980200	3.736100	-11.132000	23.994241	0.001057	20.684861
642.157626	-2.992200	3.735500	-11.177000	23.985828	0.001058	20.677372
643.159258	-2.997000	3.735900	-11.196000	24.013398	0.001058	20.677045
644.163454	-2.990300	3.734900	-11.166000	23.978271	0.001056	20.695400
645.160881	-3.003500	3.734900	-11.216000	23.973853	0.001057	20.685752
646.165639	-3.005000	3.733400	-11.218000	23.992505	0.001060	20.683120
647.158809	-3.003300	3.732900	-11.210000	23.983684	0.001059	20.687077
648.160949	-3.026300	3.733000	-11.296000	23.954703	0.001059	20.669392
649.165961	-2.993100	3.733000	-11.173000	23.963581	0.001059	20.696790
650.162066	-3.016300	3.732200	-11.256000	23.996434	0.001058	20.686112
651.160170	-2.999600	3.733400	-11.198000	23.980089	0.001058	20.679203
652.159574	-2.997300	3.731400	-11.183000	23.997999	0.001059	20.703330
653.163176	-3.005200	3.731100	-11.212000	23.996654	0.001059	20.683013
654.186958	-3.001400	3.730900	-11.197000	23.999515	0.001056	20.690151
655.183755	-3.001200	3.730000	-11.193000	24.028234	0.001058	20.684338
656.183884	-2.997600	3.729000	-11.177000	24.047440	0.001058	20.668035
657.180986	-2.997300	3.730500	-11.181000	24.038913	0.001057	20.690780
658.166000	-2.973100	3.730200	-11.089000	24.072481	0.001056	20.701687
659.178085	-3.003900	3.729500	-11.202000	24.062471	0.001056	20.676473
660.187726	-2.992700	3.729500	-11.159000	24.098125	0.001054	20.692318
661.189572	-2.972400	3.730400	-11.087000	24.088849	0.001058	20.685859
662.185949	-3.012800	3.728100	-11.231000	24.102021	0.001057	20.669670
663.183627	-2.988300	3.728700	-11.142000	24.124787	0.001058	20.696299
664.188213	-2.998600	3.728000	-11.178000	24.111224	0.001056	20.689333
665.194339	-2.995000	3.728200	-11.165000	24.158450	0.001054	20.685965
666.182796	-3.015300	3.727300	-11.238000	24.146379	0.001057	20.704205
667.193318	-2.993100	3.728000	-11.156000	24.171010	0.001057	20.707099
668.189923	-2.994300	3.728100	-11.162000	24.186863	0.001056	20.681272
669.187153	-2.997700	3.728300	-11.176000	24.177311	0.001055	20.696348
670.197624	-2.998400	3.727800	-11.176000	24.166756	0.001054	20.669163
671.174785	-2.981300	3.727600	-11.112000	24.147234	0.001053	20.701744
672.187225	-3.000900	3.726100	-11.181000	24.147968	0.001055	20.695367
673.196301	-2.990200	3.727400	-11.143000	24.148204	0.001055	20.680904
674.183442	-2.982400	3.726100	-11.111000	24.168875	0.001055	20.710647
675.203411	-2.982500	3.725300	-11.109000	24.184410	0.001053	20.698727
676.198567	-2.980100	3.726000	-11.103000	24.183424	0.001056	20.714809
677.192733	-2.994800	3.725600	-11.156000	24.212692	0.001053	20.693903
678.187225	-3.028000	3.724000	-11.275000	24.210124	0.001054	20.698915
679.174422	-3.015000	3.724500	-11.228000	24.212961	0.001055	20.703183
680.169972	-3.021700	3.723100	-11.248000	24.188509	0.001056	20.724652
681.172360	-2.993600	3.723900	-11.147000	24.192919	0.001053	20.713427
682.177334	-3.026400	3.723500	-11.268000	24.148270	0.001053	20.699937
683.178559	-2.978000	3.724200	-11.090000	24.161710	0.001053	20.715316
684.182344	-3.019900	3.722300	-11.240000	24.167554	0.001053	20.715962
685.168490	-2.982100	3.723300	-11.102000	24.147797	0.001052	20.718431
686.174349	-3.005700	3.723000	-11.189000	24.127974	0.001051	20.719412
687.177389	-3.026200	3.722500	-11.264000	24.143885	0.001053	20.712136
688.179032	-2.974300	3.722400	-11.070000	24.145262	0.001051	20.715414
689.178447	-2.998200	3.720300	-11.154000	24.149818	0.001051	20.706233
690.187997	-2.991200	3.721300	-11.130000	24.178329	0.001052	20.695947
691.192404	-2.997700	3.721100	-11.152000	24.175436	0.001053	20.714384
692.176012	-2.990900	3.720300	-11.127000	24.169869	0.001049	20.721603
693.198522	-2.989000	3.720800	-11.120000	24.157358	0.001050	20.722330
694.193915	-3.018500	3.718300	-11.223000	24.166185	0.001050	20.714114
695.170516	-2.998700	3.719800	-11.154000	24.146778	0.001051	20.731160
696.177133	-2.991600	3.719400	-11.126000	24.111281	0.001051	20.711677
697.171185	-3.014800	3.718800	-11.211000	24.101100	0.001049	20.696724
698.172668	-3.015400	3.718000	-11.210000	24.097098	0.001051	20.727800
699.173614	-3.000200	3.718800	-11.156000	24.123825	0.001049	20.720940
700.179917	-2.998300	3.719000	-11.150000	24.142784	0.001049	20.714825
701.182559	-3.011200	3.718300	-11.196000	24.155996	0.001050	20.721439
702.175944	-2.985800	3.717500	-11.099000	24.161775	0.001049	20.714907
703.180724	-3.011900	3.716300	-11.192000	24.150437	0.001048	20.713966
704.194958	-3.007900	3.717000	-11.179000	24.173740	0.001048	20.731176
705.191197	-3.001700	3.716800	-11.156000	24.200914	0.001047	20.726189
706.206210	-2.990100	3.717300	-11.114000	24.208087	0.001048	20.724848
707.185578	-3.005200	3.716200	-11.167000	24.231845	0.001048	20.726393
708.206366	-3.001500	3.716500	-11.154000	24.219505	0.001046	20.718283
709.207175	-2.984000	3.717500	-11.092000	24.211518	0.001046	20.729713
710.205862	-3.000500	3.715600	-11.147000	24.217321	0.001049	20.726524
711.206710	-2.996700	3.716000	-11.135000	24.247827	0.001047	20.733890
712.202054	-3.001000	3.715700	-11.150000	24.243401	0.001049	20.717596
713.179122	-3.001800	3.714800	-11.150000	24.257061	0.001046	20.727505
714.183959	-2.978500	3.715600	-11.066000	24.225813	0.001046	20.716550
715.174731	-2.992400	3.714800	-11.115000	24.213327	0.001048	20.724415
716.182971	-2.988700	3.714800	-11.101000	24.216457	0.001048	20.735615
717.199502	-2.998700	3.714200	-11.136000	24.217940	0.001045	20.733310
718.192014	-3.004600	3.713900	-11.157000	24.233010	0.001045	20.747003
719.209969	-2.995400	3.713700	-11.124000	24.263573	0.001045	20.743046
720.213459	-3.032500	3.711600	-11.255000	24.291111	0.001045	20.743643
721.205458	-3.009300	3.711700	-11.167000	24.313205	0.001046	20.730244
722.203076	-2.995000	3.711700	-11.115000	24.300573	0.001047	20.737013
723.201107	-3.017300	3.710800	-11.195000	24.266710	0.001047	20.728649
724.189191	-2.985700	3.711900	-11.081000	24.251013	0.001046	20.727129
725.183270	-2.991200	3.712000	-11.102000	24.276148	0.001045	20.740487
726.204481	-2.981500	3.711400	-11.064000	24.247933	0.001045	20.747273
727.194914	-3.015900	3.710600	-11.190000	24.284933	0.001045	20.740765
728.208368	-2.982000	3.710700	-11.065000	24.278462	0.001043	20.746129
729.186526	-2.974400	3.711300	-11.037000	24.291828	0.001044	20.743888
730.188100	-3.000100	3.709200	-11.127000	24.293173	0.001046	20.735280
731.204136	-2.988700	3.710300	-11.087000	24.298421	0.001047	20.732484
732.181215	-3.001100	3.708700	-11.129000	24.290312	0.001044	20.739049
733.200200	-3.009200	3.708000	-11.158000	24.267949	0.001043	20.748859
734.181950	-3.015900	3.709000	-11.184000	24.263646	0.001045	20.744068
735.185373	-3.009900	3.708400	-11.161000	24.270704	0.001042	20.746881
736.211450	-3.013700	3.708600	-11.175000	24.259546	0.001043	20.729524
737.214544	-2.994000	3.707500	-11.099000	24.301037	0.001042	20.754549
738.218446	-2.991300	3.707700	-11.090000	24.306913	0.001043	20.734838
739.204482	-2.997900	3.708200	-11.116000	24.321729	0.001043	20.758236
740.188474	-2.978500	3.708500	-11.045000	24.340799	0.001042	20.745597
741.205519	-2.998700	3.706500	-11.113000	24.367121	0.001042	20.725534
742.206557	-3.002700	3.705900	-11.127000	24.368889	0.001041	20.767613
743.219384	-3.000800	3.707200	-11.123000	24.388398	0.001042	20.746406
744.217488	-3.029000	3.705000	-11.222000	24.376973	0.001042	20.742057
745.207529	-3.002600	3.707200	-11.130000	24.406155	0.001041	20.751892
746.213737	-2.997500	3.704800	-11.104000	24.405837	0.001040	20.762005
747.215547	-2.974400	3.706100	-11.022000	24.397248	0.001041	20.763346
748.211194	-2.997300	3.705800	-11.106000	24.386458	0.001042	20.764850
749.219844	-2.987700	3.705500	-11.070000	24.387233	0.001040	20.761833
750.208403	-3.010900	3.704400	-11.153000	24.340562	0.001040	20.747731
751.218693	-3.010200	3.703400	-11.147000	24.322234	0.001039	20.751630
752.216352	-3.020700	3.703000	-11.184000	24.277777	0.001042	20.753502
753.190607	-2.998700	3.703600	-11.105000	24.286188	0.001039	20.759094
754.194830	-2.976700	3.703000	-11.021000	24.293278	0.001039	20.766681
755.207962	-3.004400	3.702800	-11.124000	24.296098	0.001040	20.755285
756.206090	-2.992000	3.703200	-11.078000	24.293881	0.001040	20.764441
757.217781	-2.986200	3.703500	-11.058000	24.310776	0.001037	20.782811
758.209013	-3.003300	3.701100	-11.115000	24.346576	0.001039	20.761825
759.208233	-3.000900	3.702400	-11.109000	24.359566	0.001039	20.761580
760.206459	-3.002900	3.701300	-11.113000	24.382099	0.001039	20.787977
761.208030	-2.997900	3.700900	-11.094000	24.421735	0.001039	20.794076
762.199654	-3.003900	3.700700	-11.116000	24.393124	0.001038	20.763476
763.188415	-3.002100	3.700800	-11.109000	24.419690	0.001037	20.779222
764.213920	-3.020600	3.700000	-11.174000	24.440860	0.001037	20.772011
765.219166	-3.009000	3.700100	-11.132000	24.422656	0.001038	20.784568
766.230405	-3.010500	3.700200	-11.139000	24.413008	0.001035	20.778682
767.187206	-3.007900	3.700400	-11.129000	24.391071	0.001038	20.753355
768.223533	-3.014300	3.699900	-11.152000	24.418907	0.001038	20.771324
769.195389	-2.986300	3.700100	-11.048000	24.414955	0.001037	20.773524
770.193550	-3.021100	3.697900	-11.171000	24.438236	0.001035	20.767956
771.196518	-2.997100	3.698600	-11.084000	24.453392	0.001037	20.756135
772.195645	-2.989900	3.699200	-11.059000	24.471596	0.001034	20.796210
773.199217	-2.979800	3.699000	-11.021000	24.474432	0.001035	20.766338
774.190875	-3.002000	3.696400	-11.095000	24.473739	0.001036	20.771333
775.193919	-2.993700	3.697500	-11.068000	24.497817	0.001034	20.777472
776.200302	-2.972000	3.698700	-10.991000	24.482963	0.001035	20.773475
777.222751	-3.028300	3.696700	-11.193000	24.451820	0.001035	20.785378
778.208883	-2.978200	3.697600	-11.012000	24.441544	0.001034	20.774120
779.210258	-2.980100	3.698800	-11.022000	24.428637	0.001035	20.792940
780.199517	-2.993300	3.696800	-11.065000	24.441650	0.001032	20.772804
781.220622	-2.980300	3.696400	-11.015000	24.484707	0.001034	20.794190
782.212218	-2.990000	3.696000	-11.049000	24.479280	0.001034	20.787797
783.225909	-2.995400	3.695000	-11.067000	24.507188	0.001032	20.790193
784.219639	-3.014900	3.695200	-11.140000	24.506169	0.001033	20.794861
785.226957	-2.992200	3.695200	-11.056000	24.498885	0.001033	20.791345
786.226821	-3.009900	3.696000	-11.124000	24.432214	0.001032	20.766182
787.200382	-2.986700	3.695500	-11.035000	24.443492	0.001032	20.794566
788.198797	-2.978500	3.696400	-11.009000	24.416528	0.001030	20.786955
789.205905	-2.993900	3.694400	-11.060000	24.439246	0.001033	20.799790
790.198994	-3.013800	3.693500	-11.131000	24.445562	0.001030	20.792850
791.202650	-3.011700	3.693500	-11.122000	24.467628	0.001029	20.770417
792.221049	-3.022400	3.692900	-11.160000	24.473788	0.001031	20.795564
793.199701	-2.984700	3.692700	-11.021000	24.486923	0.001030	20.775077
794.202265	-2.999500	3.692600	-11.075000	24.478286	0.001030	20.800076
795.204041	-2.986000	3.692800	-11.026000	24.463537	0.001028	20.798082
796.197345	-2.995700	3.692700	-11.061000	24.468288	0.001030	20.794313
797.219160	-3.001000	3.691800	-11.078000	24.462291	0.001029	20.798253
798.201758	-2.985500	3.693900	-11.027000	24.446295	0.001029	20.800224
799.226316	-2.967100	3.692500	-10.955000	24.474627	0.001030	20.803044
800.224416	-3.012800	3.692000	-11.122000	24.491022	0.001028	20.807164
801.217820	-3.017900	3.690200	-11.135000	24.513951	0.001029	20.813099
802.201543	-3.015800	3.690000	-11.127000	24.527485	0.001028	20.808186
803.204959	-2.995300	3.690300	-11.052000	24.543626	0.001029	20.802570
804.211709	-3.001500	3.691000	-11.079000	24.554177	0.001029	20.804622
805.233022	-2.998500	3.691100	-11.067000	24.544025	0.001029	20.814824
806.223588	-2.983500	3.689900	-11.008000	24.565674	0.001028	20.808096
807.235884	-3.000900	3.689300	-11.070000	24.537197	0.001028	20.795645
808.231802	-2.991600	3.688700	-11.034000	24.531102	0.001025	20.812764
809.235764	-2.979900	3.690100	-10.996000	24.514969	0.001026	20.789465
810.222397	-2.992400	3.688600	-11.037000	24.558015	0.001026	20.809895
811.237321	-2.982800	3.688700	-11.000000	24.565771	0.001026	20.819100
812.215130	-2.992400	3.688000	-11.035000	24.553631	0.001025	20.812609
813.206395	-2.986600	3.688200	-11.013000	24.551073	0.001025	20.804826
814.219851	-2.987100	3.687400	-11.015000	24.562789	0.001024	20.830332
815.209162	-2.992000	3.687200	-11.032000	24.593416	0.001024	20.814121
816.205483	-2.975000	3.686200	-10.965000	24.587542	0.001025	20.814865
817.202674	-2.990300	3.686600	-11.023000	24.590100	0.001025	20.811268
818.236526	-3.002800	3.685500	-11.066000	24.564492	0.001025	20.823506
819.221941	-3.009200	3.685800	-11.090000	24.542208	0.001022	20.827699
820.231961	-2.996300	3.684900	-11.040000	24.558251	0.001023	20.799226
821.230949	-2.994400	3.686000	-11.037000	24.567401	0.001023	20.825950
822.224617	-3.034500	3.683200	-11.176000	24.587257	0.001022	20.835915
823.216061	-3.008700	3.684600	-11.085000	24.614485	0.001020	20.841425
824.232592	-3.014400	3.684300	-11.105000	24.604757	0.001023	20.819811
825.241680	-3.029300	3.683400	-11.156000	24.619643	0.001019	20.829531
826.236732	-2.988500	3.684200	-11.009000	24.607006	0.001021	20.830127
827.217391	-2.998000	3.684300	-11.043000	24.606851	0.001022	20.834239
828.224969	-2.988000	3.684400	-11.008000	24.573104	0.001021	20.824086
829.213354	-3.011800	3.683600	-11.093000	24.571295	0.001019	20.824168
830.220820	-2.999100	3.683700	-11.046000	24.608008	0.001020	20.841090
831.216578	-2.982800	3.685000	-10.991000	24.606591	0.001019	20.836823
832.214916	-3.022800	3.681600	-11.128000	24.593237	0.001020	20.836700
833.217618	-2.986800	3.683700	-11.000000	24.568501	0.001017	20.842700
834.217149	-2.999500	3.682300	-11.044000	24.555953	0.001018	20.839594
835.222704	-2.969300	3.683400	-10.936000	24.548050	0.001018	20.839725
836.222610	-2.991400	3.682000	-11.013000	24.544318	0.001018	20.829817
837.217185	-2.988000	3.681300	-10.998000	24.557086	0.001018	20.812282
838.223156	-3.012300	3.679500	-11.083000	24.548058	0.001017	20.836888
839.214661	-3.008000	3.680600	-11.071000	24.583598	0.001015	20.840305
840.217857	-2.998000	3.679800	-11.030000	24.574180	0.001017	20.846027
841.225989	-3.007500	3.679300	-11.064000	24.574334	0.001017	20.834803
842.224180	-2.997300	3.679300	-11.026000	24.593538	0.001014	20.829890
843.221647	-3.024800	3.678600	-11.125000	24.594752	0.001016	20.836324
844.213843	-2.972000	3.680100	-10.936000	24.643400	0.001016	20.845782
845.225044	-2.993900	3.680400	-11.017000	24.676501	0.001015	20.845807
846.225527	-3.010500	3.678300	-11.072000	24.669047	0.001015	20.821732
847.221164	-2.988300	3.679900	-10.995000	24.683279	0.001015	20.846444
848.225571	-3.011900	3.677700	-11.076000	24.690041	0.001015	20.833316
849.235357	-3.011200	3.677000	-11.070000	24.681039	0.001016	20.832343
850.249494	-2.994500	3.677600	-11.012000	24.677161	0.001014	20.803322
851.241824	-3.007200	3.678400	-11.060000	24.685772	0.001014	20.823816
852.243246	-3.006300	3.679000	-11.059000	24.632800	0.001015	20.810965
853.247141	-3.016100	3.675800	-11.084000	24.634259	0.001014	20.811955
854.245537	-3.024500	3.675700	-11.116000	24.645062	0.001014	20.810941
855.245055	-3.009500	3.677400	-11.067000	24.641697	0.001013	20.817522
856.220878	-2.990400	3.676400	-10.992000	24.676737	0.001011	20.825182
857.224822	-3.006900	3.676000	-11.053000	24.680371	0.001013	20.810336
858.222998	-3.000700	3.676000	-11.030000	24.668582	0.001012	20.823637
859.224280	-2.993900	3.676700	-11.007000	24.672094	0.001011	20.809617
860.221153	-3.003400	3.674400	-11.035000	24.672379	0.001011	20.810851
861.221939	-2.998700	3.675700	-11.020000	24.665104	0.001013	20.826310
862.230773	-3.002500	3.675100	-11.033000	24.679678	0.001011	20.810115
863.226592	-2.994000	3.675100	-11.002000	24.663531	0.001010	20.805292
864.219257	-2.998700	3.675000	-11.019000	24.673707	0.001010	20.811709
865.226083	-2.989300	3.674400	-10.983000	24.637070	0.001009	20.794386
866.223690	-3.005800	3.675100	-11.045000	24.655726	0.001010	20.816426
867.228198	-2.976500	3.673100	-10.931000	24.663336	0.001008	20.809837
868.230857	-3.005000	3.674000	-11.039000	24.640679	0.001010	20.815077
869.240396	-2.986300	3.671200	-10.962000	24.673405	0.001007	20.801450
870.233572	-2.997100	3.672800	-11.006000	24.681992	0.001010	20.795367
871.228522	-2.994600	3.673700	-11.000000	24.684127	0.001008	20.798458
872.257370	-3.006100	3.671300	-11.035000	24.711263	0.001007	20.799610
873.227983	-3.011600	3.671900	-11.057000	24.695597	0.001007	20.806175
874.234047	-3.003400	3.670300	-11.023000	24.693161	0.001006	20.803256
875.233843	-2.990300	3.671100	-10.976000	24.662896	0.001007	20.798016
876.232713	-2.989200	3.671500	-10.974000	24.666627	0.001008	20.809821
877.238209	-2.990900	3.670600	-10.977000	24.680656	0.001006	20.795449
878.258386	-3.008600	3.669600	-11.040000	24.663670	0.001006	20.772714
879.244836	-2.996000	3.669300	-10.992000	24.639229	0.001005	20.801294
880.227618	-3.021500	3.668100	-11.081000	24.619773	0.001005	20.778453
881.229043	-3.003100	3.669900	-11.020000	24.625525	0.001005	20.771897
882.233177	-3.009600	3.669200	-11.042000	24.601759	0.001005	20.785508
883.245165	-3.041400	3.667800	-11.154000	24.619643	0.001007	20.791125
884.229727	-2.997500	3.667900	-10.992000	24.650855	0.001005	20.804425
885.233094	-3.003600	3.669100	-11.020000	24.678383	0.001004	20.786056
886.259465	-2.987900	3.669000	-10.962000	24.680078	0.001004	20.787282
887.256940	-2.988200	3.668800	-10.962000	24.717015	0.001002	20.792580
888.258165	-3.007600	3.667500	-11.029000	24.715272	0.001005	20.782770
889.266799	-3.006300	3.668000	-11.026000	24.754863	0.001003	20.811595
890.244582	-2.977500	3.668000	-10.920000	24.743304	0.001003	20.765855
891.241605	-3.003100	3.666900	-11.011000	24.730677	0.001001	20.772150
892.237840	-3.023600	3.666700	-11.086000	24.734685	0.001002	20.782336
893.232193	-2.986400	3.667400	-10.952000	24.690416	0.001003	20.775371
894.263561	-2.992100	3.666600	-10.970000	24.690098	0.001001	20.779794
895.261606	-2.996100	3.665600	-10.981000	24.664159	0.001002	20.791223
896.238729	-2.999400	3.667300	-10.998000	24.657698	0.001001	20.773360
897.241849	-2.981800	3.665700	-10.929000	24.664729	0.001000	20.778519
898.237642	-2.965200	3.666800	-10.872000	24.658969	0.001001	20.774636
899.253547	-2.998300	3.664300	-10.986000	24.681479	0.001001	20.778731
900.258677	-2.987800	3.664500	-10.947000	24.688640	0.000999	20.764580
901.259705	-2.991200	3.665000	-10.962000	24.703736	0.000998	20.783996
902.257284	-3.007200	3.664900	-11.020000	24.714758	0.001000	20.774194
903.255605	-3.016600	3.662800	-11.048000	24.749145	0.001000	20.789261
904.257536	-3.003600	3.664000	-11.004000	24.736273	0.001000	20.773973
905.261588	-2.989100	3.662700	-10.947000	24.757218	0.001000	20.774603
906.256016	-2.981800	3.664000	-10.924000	24.748004	0.000998	20.781952
907.260835	-3.014400	3.662600	-11.039000	24.718359	0.000998	20.762160
908.255292	-2.990800	3.662400	-10.953000	24.701626	0.000996	20.768602
909.266537	-2.997000	3.662300	-10.974000	24.681634	0.000996	20.773671
910.251966	-2.989500	3.663000	-10.950000	24.694221	0.000995	20.772077
911.235252	-3.003700	3.662300	-11.000000	24.699834	0.000994	20.738353
912.250935	-3.004100	3.660700	-10.996000	24.702367	0.000998	20.773614
913.239031	-3.003900	3.661100	-10.997000	24.676379	0.000995	20.772191
914.239783	-3.010000	3.660900	-11.018000	24.674367	0.000996	20.784871
915.238949	-2.991500	3.660800	-10.951000	24.636687	0.000995	20.757966
916.247394	-3.009400	3.659700	-11.013000	24.636141	0.000995	20.781601
917.243467	-3.016300	3.658900	-11.035000	24.682473	0.000996	20.762659
918.237857	-2.990000	3.659800	-10.942000	24.720078	0.000994	20.762463
919.240788	-2.989800	3.659900	-10.942000	24.711549	0.000992	20.769076
920.238409	-3.016200	3.658600	-11.034000	24.681414	0.000993	20.768709
921.264339	-3.012200	3.658200	-11.017000	24.703915	0.000992	20.763787
922.261886	-3.018300	3.657600	-11.038000	24.711801	0.000993	20.762217
923.242002	-3.002900	3.658300	-10.985000	24.703321	0.000993	20.772674
924.244775	-3.009700	3.657000	-11.005000	24.684575	0.000993	20.766665
925.249325	-3.003900	3.657300	-10.985000	24.653853	0.000992	20.736310
926.255002	-3.010800	3.657200	-11.010000	24.663784	0.000992	20.762397
927.263344	-3.005800	3.656400	-10.988000	24.670440	0.000991	20.751058
928.266908	-3.022100	3.657600	-11.051000	24.679174	0.000992	20.747019
929.263514	-2.998600	3.656800	-10.965000	24.657169	0.000991	20.754811
930.255859	-2.998700	3.656500	-10.964000	24.702091	0.000989	20.756266
931.260701	-3.003100	3.655600	-10.977000	24.705251	0.000990	20.758490
932.258117	-2.998200	3.655800	-10.960000	24.722775	0.000990	20.762324
933.270359	-3.003100	3.657400	-10.982000	24.759116	0.000988	20.762757
934.274696	-2.994500	3.655500	-10.946000	24.770382	0.000988	20.749881
935.263182	-2.988700	3.654500	-10.921000	24.797761	0.000988	20.751279
936.263271	-2.990000	3.655000	-10.928000	24.795505	0.000988	20.750911
937.246107	-3.005900	3.654100	-10.983000	24.787302	0.000987	20.760697
938.246020	-2.987600	3.655300	-10.918000	24.794266	0.000988	20.761997
939.245072	-3.001500	3.654200	-10.967000	24.762757	0.000987	20.753609
940.245137	-2.984200	3.654800	-10.905000	24.783278	0.000986	20.746701
941.248265	-2.970700	3.654600	-10.856000	24.793175	0.000987	20.757108
942.248048	-2.984500	3.652700	-10.900000	24.836788	0.000986	20.747298
943.248846	-3.016700	3.652800	-11.018000	24.824154	0.000987	20.742678
944.245478	-3.016700	3.652000	-11.016000	24.818590	0.000987	20.749423
945.253567	-3.007000	3.652900	-10.983000	24.858105	0.000985	20.737397
946.248021	-2.983400	3.652900	-10.897000	24.819714	0.000985	20.769992
947.264902	-2.987000	3.652900	-10.909000	24.845724	0.000983	20.742989
948.266909	-3.020800	3.651600	-11.029000	24.845699	0.000984	20.757664
949.284132	-3.008400	3.651500	-10.984000	24.861836	0.000983	20.751099
950.269424	-2.989900	3.652200	-10.920000	24.863139	0.000984	20.747191
951.263287	-2.986600	3.651700	-10.905000	24.853609	0.000984	20.751851
952.250177	-3.000400	3.650800	-10.952000	24.836185	0.000984	20.734838
953.263334	-3.024000	3.649700	-11.035000	24.824944	0.000982	20.745368
954.250494	-3.053900	3.649100	-11.142000	24.849039	0.000984	20.738256
955.249057	-3.016100	3.649200	-11.006000	24.805370	0.000982	20.754173
956.250580	-3.007600	3.649100	-10.974000	24.801818	0.000983	20.737332
957.246415	-3.015700	3.649100	-11.003000	24.802079	0.000983	20.758457
958.251510	-2.989600	3.650300	-10.912000	24.803887	0.000980	20.743676
959.250034	-2.995000	3.648900	-10.928000	24.793248	0.000980	20.746276
960.260579	-3.009300	3.648200	-10.976000	24.778325	0.000981	20.730824
961.270326	-2.994600	3.648300	-10.924000	24.754579	0.000981	20.725486
962.277495	-3.007200	3.647000	-10.965000	24.725537	0.000980	20.739016
963.268332	-2.979400	3.647400	-10.866000	24.748314	0.000980	20.724889
964.280061	-3.012400	3.648400	-10.987000	24.765804	0.000981	20.714465
965.273159	-2.990600	3.647300	-10.906000	24.810436	0.000979	20.730808
966.278360	-2.987600	3.648400	-10.899000	24.782162	0.000980	20.732778
967.255620	-2.976100	3.647200	-10.854000	24.768264	0.000979	20.732108
968.251376	-2.991500	3.647600	-10.911000	24.754945	0.000978	20.736286
969.258334	-3.011900	3.646000	-10.981000	24.787669	0.000977	20.736882
970.257539	-2.983000	3.646100	-10.875000	24.832870	0.000978	20.726295
971.256358	-2.993300	3.646000	-10.913000	24.820040	0.000975	20.756569
972.263965	-2.989300	3.645900	-10.898000	24.846099	0.000976	20.731037
973.252597	-2.994100	3.647100	-10.919000	24.834841	0.000976	20.748189
974.264886	-2.997700	3.644700	-10.924000	24.841179	0.000976	20.728470
975.254415	-3.025400	3.643500	-11.021000	24.854391	0.000975	20.731299
976.271646	-3.004000	3.644200	-10.945000	24.834165	0.000974	20.733285
977.270193	-2.993700	3.644500	-10.910000	24.833823	0.000975	20.735313
978.282323	-3.007100	3.644200	-10.957000	24.815381	0.000975	20.725813
979.257520	-3.011500	3.644500	-10.975000	24.808571	0.000972	20.732729
980.285964	-3.006000	3.643800	-10.951000	24.790292	0.000974	20.723867
981.284918	-2.999400	3.643700	-10.927000	24.808221	0.000972	20.734275
982.280954	-3.014500	3.642700	-10.980000	24.804743	0.000972	20.729361
983.272017	-3.008600	3.641800	-10.956000	24.778985	0.000973	20.708252
984.290441	-3.020200	3.641700	-10.997000	24.781128	0.000972	20.730792
985.264708	-2.998300	3.642100	-10.919000	24.795945	0.000971	20.728593
986.260221	-3.005500	3.642500	-10.946000	24.814990	0.000971	20.718308
987.282216	-3.029100	3.640700	-11.027000	24.814502	0.000971	20.725404
988.278030	-2.997900	3.643200	-10.921000	24.819601	0.000970	20.733367
989.286694	-3.003500	3.640900	-10.935000	24.807961	0.000970	20.731642
990.285996	-3.008400	3.641200	-10.953000	24.830671	0.000968	20.725985
991.292934	-3.016500	3.640200	-10.980000	24.836699	0.000969	20.720180
992.277880	-2.999800	3.639600	-10.917000	24.816049	0.000969	20.724587
993.265902	-3.002800	3.640900	-10.932000	24.830272	0.000968	20.734594
994.268893	-3.000300	3.639600	-10.919000	24.838980	0.000970	20.719150
995.270139	-3.015900	3.639000	-10.974000	24.865795	0.000967	20.719036
996.266754	-2.990600	3.640000	-10.885000	24.846449	0.000968	20.723802
997.289154	-3.007500	3.638600	-10.941000	24.842719	0.000966	20.713419
998.283860	-2.986300	3.639100	-10.867000	24.820693	0.000965	20.726876
999.278273	-2.999200	3.637200	-10.908000	24.783213	0.000966	20.730040
1000.260724	-2.984200	3.639000	-10.858000	24.762262	0.000964	20.714229
1001.266647	-3.010700	3.638100	-10.953000	24.776224	0.000965	20.728716
1002.275645	-2.981800	3.639000	-10.849000	24.808295	0.000965	20.713011
1003.269149	-3.011100	3.637700	-10.951000	24.794105	0.000963	20.694975
1004.267671	-3.021600	3.637300	-10.989000	24.796166	0.000964	20.703208
1005.273088	-2.999500	3.636100	-10.905000	24.765781	0.000962	20.695948
1006.270564	-2.988400	3.637300	-10.868000	24.751191	0.000964	20.717818
1007.285978	-2.989000	3.635500	-10.865000	24.752560	0.000962	20.699750
1008.264772	-2.985900	3.636000	-10.856000	24.753203	0.000964	20.720786
1009.270062	-2.992100	3.635900	-10.877000	24.780811	0.000962	20.699652
1010.309072	-2.983600	3.636200	-10.848000	24.814160	0.000962	20.707043
1011.301087	-3.002900	3.635100	-10.914000	24.844177	0.000960	20.715357
1012.274474	-3.006000	3.634200	-10.924000	24.866879	0.000962	20.721546
1013.274897	-3.037800	3.633000	-11.035000	24.888334	0.000960	20.719372
1014.269580	-3.021000	3.631900	-10.970000	24.915645	0.000961	20.705056
1015.283942	-2.976400	3.633400	-10.813000	24.907060	0.000958	20.698810
1016.271854	-2.980600	3.633500	-10.828000	24.919840	0.000957	20.695515
1017.298388	-3.003200	3.632600	-10.909000	24.963480	0.000961	20.710869
1018.279021	-3.020200	3.632000	-10.968000	24.963407	0.000959	20.681870
1019.296279	-3.002100	3.631900	-10.903000	24.959334	0.000959	20.714295
1020.272748	-2.991100	3.633300	-10.867000	24.929752	0.000959	20.704517
1021.293897	-2.987900	3.633700	-10.855000	24.899225	0.000956	20.697584
1022.284369	-3.000200	3.631700	-10.895000	24.934370	0.000957	20.696349
1023.298883	-2.965100	3.632700	-10.770000	24.908396	0.000958	20.699677
1024.283900	-2.993000	3.632000	-10.869000	24.905985	0.000958	20.689670
1025.276114	-2.991600	3.631900	-10.864000	24.908445	0.000958	20.715848
1026.273663	-3.014800	3.631200	-10.946000	24.886217	0.000955	20.696382
1027.277586	-3.009800	3.631000	-10.927000	24.937164	0.000954	20.686824
1028.272983	-3.011500	3.628300	-10.924000	24.912452	0.000957	20.679090
1029.278367	-3.006800	3.630300	-10.914000	24.922699	0.000953	20.697911
1030.279654	-2.974400	3.631400	-10.799000	24.922968	0.000955	20.688223
1031.285879	-2.983000	3.629400	-10.824000	24.926454	0.000954	20.698361
1032.297006	-3.010200	3.628000	-10.920000	24.920785	0.000952	20.677022
1033.287561	-2.979400	3.629400	-10.811000	24.924466	0.000952	20.691150
1034.316941	-3.004100	3.628000	-10.898000	24.940504	0.000953	20.683538
1035.280684	-3.005600	3.629000	-10.906000	24.937751	0.000952	20.689784
1036.279457	-3.003600	3.628800	-10.898000	24.973555	0.000950	20.713396
1037.274312	-3.005600	3.626900	-10.899000	24.974068	0.000953	20.690675
1038.297601	-2.990000	3.628600	-10.848000	24.946099	0.000952	20.687258
1039.296978	-2.996000	3.626800	-10.865000	24.940911	0.000952	20.681102
1040.301866	-3.005400	3.626700	-10.898000	24.914896	0.000950	20.708098
1041.290245	-3.012400	3.627600	-10.926000	24.898907	0.000949	20.688255
1042.296068	-3.008600	3.624800	-10.904000	24.859182	0.000950	20.676360
1043.280305	-2.995400	3.625400	-10.859000	24.847119	0.000949	20.685590
1044.276278	-3.022900	3.625000	-10.956000	24.833124	0.000949	20.672018
1045.281282	-3.011900	3.625500	-10.919000	24.839772	0.000948	20.685329
1046.280937	-3.001800	3.625000	-10.881000	24.895763	0.000948	20.667080
1047.277792	-3.006300	3.623800	-10.892000	24.928238	0.000949	20.684503
1048.279113	-3.007100	3.625300	-10.901000	24.926601	0.000946	20.676221
1049.309699	-2.976900	3.625600	-10.792000	24.924288	0.000945	20.700928
1050.301618	-3.004500	3.623200	-10.883000	24.894370	0.000946	20.686073
1051.295077	-2.994100	3.623900	-10.849000	24.894110	0.000946	20.672059
1052.290202	-2.992500	3.623000	-10.841000	24.915515	0.000944	20.676949
1053.281572	-3.006700	3.621900	-10.889000	24.865023	0.000947	20.691706
1054.280093	-2.996600	3.624200	-10.860000	24.870415	0.000945	20.689531
1055.286669	-3.012200	3.622400	-10.910000	24.838509	0.000944	20.672207
1056.274011	-3.008500	3.622600	-10.898000	24.866269	0.000946	20.677783
1057.310830	-2.978300	3.624400	-10.792000	24.877331	0.000943	20.678927
1058.312773	-2.995400	3.622300	-10.848000	24.899779	0.000943	20.689605
1059.287165	-3.009200	3.621300	-10.897000	24.897743	0.000943	20.672387
1060.327434	-2.993100	3.621600	-10.838000	24.876492	0.000941	20.685673
1061.281686	-2.981700	3.622200	-10.798000	24.862734	0.000943	20.679451
1062.277938	-3.017000	3.620700	-10.923000	24.918407	0.000942	20.681748
1063.285876	-2.989400	3.620500	-10.822000	24.944219	0.000941	20.690112
1064.278022	-2.982800	3.620200	-10.796000	24.965599	0.000940	20.684070
1065.285898	-3.007200	3.620100	-10.885000	24.980617	0.000940	20.678281
1066.280185	-3.026800	3.617400	-10.947000	25.003463	0.000940	20.685566
1067.299907	-3.002000	3.619000	-10.863000	25.020045	0.000939	20.674709
1068.314673	-3.010600	3.617800	-10.891000	25.015720	0.000940	20.673687
1069.295465	-3.014300	3.617700	-10.903000	25.033890	0.000940	20.662052
1070.288221	-2.995900	3.618200	-10.838000	25.073445	0.000940	20.680423
1071.315050	-3.015000	3.618000	-10.907000	25.051367	0.000938	20.699040
1072.307646	-2.991700	3.617500	-10.821000	25.083006	0.000938	20.693815
1073.290976	-3.000600	3.616500	-10.851000	25.094912	0.000936	20.676368
1074.298216	-3.026100	3.617100	-10.945000	25.066474	0.000936	20.677693
1075.283304	-3.003800	3.615900	-10.861000	25.072411	0.000936	20.674643
1076.313964	-2.985400	3.616700	-10.797000	25.046065	0.000935	20.673327
1077.312147	-3.020200	3.615000	-10.918000	25.049315	0.000936	20.672795
1078.305484	-3.000400	3.614800	-10.844000	25.004814	0.000935	20.677439
1079.289832	-2.992000	3.616200	-10.819000	25.007844	0.000935	20.672419
1080.292371	-3.004400	3.615600	-10.861000	25.019205	0.000933	20.666279
1081.288636	-2.986100	3.615300	-10.795000	25.037750	0.000936	20.673040
1082.286192	-3.012600	3.613700	-10.885000	25.059609	0.000933	20.678862
1083.288889	-2.997300	3.615600	-10.836000	25.073543	0.000933	20.670563
1084.294727	-2.992800	3.613800	-10.815000	25.090971	0.000933	20.699914
1085.296543	-2.986800	3.613800	-10.793000	25.090474	0.000932	20.678076
1086.284060	-3.031000	3.612100	-10.948000	25.112722	0.000932	20.672909
1087.290881	-3.016700	3.613400	-10.900000	25.122796	0.000931	20.673539
1088.294563	-3.004800	3.612700	-10.854000	25.121615	0.000929	20.674724
1089.298903	-2.991300	3.612300	-10.804000	25.078934	0.000929	20.678346
1090.307797	-2.987400	3.612700	-10.791000	25.088527	0.000930	20.671380
1091.299190	-3.012200	3.612400	-10.880000	25.044656	0.000928	20.680447
1092.286913	-3.001100	3.610700	-10.834000	25.058940	0.000929	20.695736
1093.316065	-2.984400	3.610900	-10.774000	25.084097	0.000927	20.694436
1094.326485	-2.999600	3.611200	-10.830000	25.059926	0.000926	20.678231
1095.301292	-2.993600	3.611500	-10.811000	25.052849	0.000928	20.684879
1096.297274	-3.014200	3.611700	-10.885000	25.047702	0.000929	20.677340
1097.297620	-2.985300	3.611800	-10.782000	25.038670	0.000926	20.687241
1098.298681	-3.002000	3.610200	-10.836000	25.017511	0.000926	20.685917
1099.302419	-2.992700	3.609500	-10.801000	25.032040	0.000927	20.688648
1100.311987	-2.979700	3.610500	-10.757000	25.045462	0.000925	20.687421
1101.328506	-2.980100	3.609300	-10.755000	25.056375	0.000927	20.694583
1102.315084	-3.004400	3.609000	-10.842000	25.069804	0.000925	20.687201
1103.293511	-2.996500	3.608700	-10.813000	25.070545	0.000924	20.694583
1104.293957	-3.002100	3.607700	-10.830000	25.130581	0.000923	20.669025
1105.313150	-2.992200	3.608400	-10.795000	25.126631	0.000924	20.697780
1106.296145	-2.990800	3.609300	-10.794000	25.133887	0.000922	20.670448
1107.314838	-2.997700	3.607800	-10.814000	25.135247	0.000922	20.670391
1108.310542	-3.005400	3.607200	-10.840000	25.139775	0.000921	20.683946
1109.305964	-2.985400	3.607400	-10.769000	25.134262	0.000920	20.701647
1110.335164	-3.005800	3.605700	-10.837000	25.123797	0.000921	20.684502
1111.297790	-3.001400	3.606000	-10.822000	25.125955	0.000920	20.684772
1112.301866	-2.998100	3.606900	-10.812000	25.091003	0.000920	20.690937
1113.307970	-2.992700	3.605800	-10.790000	25.062564	0.000918	20.692261
1114.312378	-3.010700	3.604000	-10.849000	25.091231	0.000920	20.687372
1115.299382	-3.005800	3.604600	-10.834000	25.107738	0.000917	20.688770
1116.293652	-2.998100	3.604200	-10.805000	25.094366	0.000917	20.687675
1117.304828	-3.011000	3.602700	-10.846000	25.097974	0.000917	20.679442
1118.298613	-2.990900	3.604000	-10.778000	25.121810	0.000917	20.673972
1119.314215	-3.015300	3.604300	-10.866000	25.112364	0.000917	20.685353
1120.300040	-3.004300	3.604400	-10.828000	25.098552	0.000917	20.689032
1121.301128	-2.996000	3.603600	-10.796000	25.046635	0.000916	20.693341
1122.304589	-2.988700	3.603200	-10.769000	25.094488	0.000916	20.691591
1123.313332	-3.011100	3.602200	-10.845000	25.097705	0.000914	20.695769
1124.301571	-2.999600	3.602200	-10.804000	25.100165	0.000912	20.695393
1125.322723	-2.990100	3.602900	-10.773000	25.103715	0.000914	20.691370
1126.328894	-3.005900	3.601300	-10.824000	25.116379	0.000913	20.697445
1127.320602	-2.987200	3.601700	-10.758000	25.154311	0.000911	20.691902
1128.318169	-2.960800	3.603100	-10.666000	25.161151	0.000912	20.697347
1129.304562	-2.998900	3.600700	-10.797000	25.170671	0.000912	20.687462
1130.316149	-2.994700	3.600700	-10.781000	25.157471	0.000910	20.696497
1131.328441	-2.989300	3.601700	-10.765000	25.124954	0.000913	20.688509
1132.304995	-2.972400	3.600800	-10.701000	25.148831	0.000910	20.696358
1133.304989	-2.982900	3.602100	-10.744000	25.130671	0.000909	20.689506
1134.308813	-2.987600	3.600300	-10.755000	25.122356	0.000910	20.700127
1135.308718	-2.992900	3.599000	-10.770000	25.097323	0.000913	20.704869
1136.305275	-2.989300	3.598800	-10.757000	25.098471	0.000910	20.691322
1137.300311	-3.018900	3.597300	-10.858000	25.102445	0.000910	20.689147
1138.306106	-3.002300	3.597600	-10.800000	25.119531	0.000907	20.700609
1139.319142	-2.999300	3.596900	-10.786000	25.113138	0.000909	20.703201
1140.307289	-2.995000	3.597600	-10.774000	25.104766	0.000908	20.696219
1141.303542	-2.982800	3.597800	-10.731000	25.075612	0.000909	20.692556
1142.309157	-2.997400	3.595800	-10.777000	25.087860	0.000907	20.686833
1143.307915	-2.986500	3.599100	-10.748000	25.056392	0.000907	20.689384
1144.311623	-2.990200	3.597000	-10.754000	25.063526	0.000907	20.692278
1145.311633	-3.000400	3.594800	-10.785000	25.071662	0.000905	20.696178
1146.343753	-2.994000	3.595800	-10.765000	25.100450	0.000906	20.702318
1147.336144	-3.019400	3.594900	-10.854000	25.091607	0.000905	20.709562
1148.335772	-3.012300	3.593300	-10.822000	25.113603	0.000904	20.708409
1149.321173	-3.019100	3.594700	-10.851000	25.125231	0.000904	20.713445
1150.318892	-2.991300	3.595700	-10.753000	25.145623	0.000906	20.699776
1151.317937	-2.989000	3.596300	-10.748000	25.179507	0.000903	20.695385
1152.311984	-3.024700	3.592400	-10.865000	25.192308	0.000904	20.709660
1153.316909	-2.978800	3.594700	-10.707000	25.209416	0.000902	20.691273
1154.320781	-3.005800	3.592700	-10.798000	25.207551	0.000903	20.727336
1155.317110	-3.027900	3.592300	-10.875000	25.184580	0.000902	20.710437
1156.333378	-2.999600	3.592600	-10.775000	25.199205	0.000902	20.704731
1157.316206	-3.005900	3.591100	-10.794000	25.184059	0.000900	20.725088
1158.327343	-2.983400	3.592900	-10.718000	25.155004	0.000900	20.698288
1159.324353	-3.007300	3.590900	-10.798000	25.141136	0.000901	20.723723
1160.316436	-2.997200	3.591200	-10.763000	25.115223	0.000901	20.699130
1161.321579	-2.991900	3.591400	-10.744000	25.119434	0.000899	20.720428
1162.332662	-3.004400	3.592000	-10.790000	25.138668	0.000899	20.686155
1163.344360	-2.972300	3.591300	-10.673000	25.153164	0.000900	20.717779
1164.314788	-3.016900	3.590800	-10.832000	25.148172	0.000899	20.725570
1165.316541	-3.014700	3.589200	-10.819000	25.181852	0.000899	20.704379
1166.313156	-3.027200	3.588100	-10.861000	25.178253	0.000896	20.729217
1167.347923	-2.981300	3.590300	-10.702000	25.202039	0.000897	20.721327
1168.324580	-2.999400	3.588300	-10.762000	25.202886	0.000896	20.702262
1169.325975	-2.992000	3.589500	-10.737000	25.245244	0.000895	20.726772
1170.319502	-3.002000	3.587300	-10.767000	25.238364	0.000894	20.727925
1171.317697	-2.998000	3.588200	-10.757000	25.229985	0.000892	20.706709
1172.322861	-3.007900	3.587000	-10.787000	25.223495	0.000895	20.723428
1173.310698	-3.006100	3.585900	-10.778000	25.216069	0.000891	20.720714
1174.338107	-2.996800	3.587300	-10.749000	25.218284	0.000892	20.731947
1175.331538	-2.979500	3.585600	-10.682000	25.198497	0.000892	20.699278
1176.347678	-2.979800	3.586400	-10.686000	25.203887	0.000892	20.734089
1177.345761	-3.008300	3.584800	-10.784000	25.172529	0.000891	20.726789
1178.335837	-2.969800	3.586400	-10.650000	25.139369	0.000892	20.722423
1179.327367	-2.987100	3.584400	-10.706000	25.127154	0.000891	20.717272
1180.348104	-3.009500	3.584600	-10.786000	25.097918	0.000889	20.727279
1181.337772	-2.987200	3.585500	-10.710000	25.097674	0.000887	20.717550
1182.348620	-2.969800	3.586600	-10.650000	25.060929	0.000887	20.738038
1183.347697	-3.023200	3.581500	-10.825000	25.098293	0.000888	20.738561
1184.343219	-2.966000	3.585900	-10.633000	25.087975	0.000887	20.730100
1185.342843	-3.003200	3.583700	-10.762000	25.063796	0.000886	20.730010
1186.322122	-3.011200	3.582500	-10.786000	25.114939	0.000886	20.737728
1187.325530	-2.990500	3.583200	-10.714000	25.120745	0.000886	20.726012
1188.322792	-3.003000	3.583200	-10.759000	25.139565	0.000888	20.729732
1189.320377	-3.006000	3.583300	-10.771000	25.120574	0.000886	20.734376
1190.323481	-2.989300	3.582300	-10.707000	25.135566	0.000884	20.718605
1191.351150	-3.018600	3.581500	-10.810000	25.141234	0.000885	20.709596
1192.360447	-3.006400	3.580400	-10.763000	25.165395	0.000882	20.738120
1193.344679	-3.029300	3.579600	-10.842000	25.166690	0.000883	20.736101
1194.322346	-2.990700	3.581600	-10.711000	25.191168	0.000884	20.725113
1195.322320	-2.977800	3.580800	-10.662000	25.204971	0.000884	20.733280
1196.330734	-3.043600	3.579600	-10.894000	25.179817	0.000883	20.741693
1197.334153	-3.003800	3.580000	-10.752000	25.185851	0.000881	20.734474
1198.349772	-3.003900	3.579400	-10.751000	25.201893	0.000881	20.726871
1199.344346	-3.003700	3.579400	-10.749000	25.217177	0.000882	20.728465
1200.352658	-2.973000	3.579300	-10.641000	25.216452	0.000880	20.720150
1201.323568	-3.009400	3.578900	-10.769000	25.217153	0.000881	20.728440
1202.323165	-2.994200	3.577600	-10.712000	25.241629	0.000881	20.729307
1203.319168	-3.009800	3.577100	-10.765000	25.229155	0.000880	20.738120
1204.328629	-3.001400	3.577800	-10.738000	25.212299	0.000880	20.751544
1205.319602	-3.035700	3.576200	-10.855000	25.202007	0.000879	20.732201
1206.335037	-3.014500	3.577700	-10.784000	25.243811	0.000879	20.749991
1207.332994	-2.996800	3.577000	-10.718000	25.239911	0.000876	20.746549
1208.324793	-2.995300	3.576800	-10.713000	25.272595	0.000877	20.740009
1209.320943	-2.999900	3.575900	-10.726000	25.303447	0.000875	20.745380
1210.330477	-2.990400	3.575600	-10.691000	25.308861	0.000874	20.750342
1211.329201	-2.981000	3.576500	-10.661000	25.328076	0.000877	20.731228
1212.329780	-3.001700	3.575100	-10.730000	25.331952	0.000874	20.770208
1213.330012	-3.017700	3.575400	-10.786000	25.301077	0.000873	20.742052
1214.343689	-3.000600	3.575000	-10.726000	25.273003	0.000872	20.736150
1215.327990	-3.018000	3.573600	-10.784000	25.247117	0.000872	20.757577
1216.355684	-3.007900	3.573300	-10.747000	25.212666	0.000872	20.748593
1217.336270	-2.981000	3.573900	-10.652000	25.207055	0.000873	20.771410
1218.362549	-2.980100	3.573700	-10.648000	25.203375	0.000872	20.761077
1219.348733	-2.971700	3.574800	-10.622000	25.210133	0.000872	20.766440
1220.335350	-2.993800	3.572700	-10.696000	25.279060	0.000870	20.757406
1221.329350	-2.997500	3.571700	-10.705000	25.273849	0.000870	20.767347
1222.329678	-3.011400	3.571800	-10.756000	25.259177	0.000871	20.749770
1223.327508	-3.022000	3.570800	-10.790000	25.259560	0.000870	20.767225
1224.341210	-2.996600	3.571900	-10.702000	25.249259	0.000870	20.762573
1225.364129	-3.001800	3.570700	-10.717000	25.214319	0.000867	20.760210
1226.344309	-2.999800	3.570900	-10.711000	25.242574	0.000868	20.733575
1227.348246	-3.021100	3.569200	-10.782000	25.234871	0.000867	20.771361
1228.356092	-3.012500	3.570100	-10.754000	25.252891	0.000867	20.763848
1229.355464	-2.977700	3.570900	-10.632000	25.241377	0.000867	20.762720
1230.350038	-2.994700	3.570600	-10.692000	25.238022	0.000867	20.751765
1231.361760	-3.008900	3.569100	-10.738000	25.237908	0.000866	20.772040
1232.348534	-2.995100	3.569300	-10.689000	25.245009	0.000865	20.757831
1233.355313	-3.008400	3.567900	-10.733000	25.280062	0.000862	20.758886
1234.352330	-2.993700	3.569200	-10.684000	25.278661	0.000862	20.765066
1235.356648	-2.990600	3.568000	-10.669000	25.312737	0.000863	20.768459
1236.353961	-2.995800	3.569200	-10.690000	25.311792	0.000863	20.748544
1237.364693	-2.989700	3.568600	-10.668000	25.309683	0.000861	20.765867
1238.340213	-2.989400	3.567000	-10.662000	25.319999	0.000862	20.751095
1239.357948	-2.987300	3.567800	-10.657000	25.359333	0.000862	20.762139
1240.349368	-3.009300	3.565700	-10.729000	25.364674	0.000860	20.768450
1241.353540	-2.998700	3.567000	-10.694000	25.325658	0.000860	20.769579
1242.346997	-3.018000	3.566000	-10.761000	25.320667	0.000861	20.752239
1243.354588	-3.002900	3.564100	-10.701000	25.334834	0.000859	20.786853
1244.359559	-3.018300	3.565100	-10.758000	25.302999	0.000862	20.782389
1245.356711	-3.017500	3.563900	-10.753000	25.264640	0.000857	20.765213
1246.351382	-3.017400	3.563700	-10.751000	25.235359	0.000859	20.783705
1247.354024	-3.009700	3.562400	-10.720000	25.209816	0.000859	20.775604
1248.361989	-2.980200	3.564600	-10.623000	25.218186	0.000860	20.778318
1249.357222	-2.979000	3.564600	-10.617000	25.217942	0.000859	20.785660
1250.354996	-3.009700	3.563500	-10.723000	25.252166	0.000856	20.776871
1251.353494	-2.988400	3.565200	-10.653000	25.259771	0.000855	20.791145
1252.350480	-2.988500	3.563700	-10.649000	25.289621	0.000856	20.770854
1253.355161	-3.001200	3.563000	-10.691000	25.274582	0.000856	20.790842
1254.350702	-3.024700	3.561700	-10.773000	25.294791	0.000855	20.790270
1255.371974	-3.008500	3.561200	-10.713000	25.296680	0.000853	20.771304
1256.350029	-2.991100	3.561600	-10.652000	25.270478	0.000853	20.783403
1257.353153	-3.009700	3.560700	-10.715000	25.291616	0.000852	20.786608
1258.363621	-3.002500	3.560900	-10.691000	25.281185	0.000852	20.778506
1259.363549	-2.993400	3.561400	-10.660000	25.269281	0.000851	20.783149
1260.368020	-3.001600	3.559800	-10.684000	25.270747	0.000853	20.787466
1261.363103	-3.010100	3.558700	-10.711000	25.289890	0.000851	20.777762
1262.354974	-2.997400	3.559300	-10.668000	25.295605	0.000850	20.794881
1263.367285	-2.985700	3.558900	-10.625000	25.292462	0.000848	20.792199
1264.361836	-2.994700	3.558400	-10.655000	25.315114	0.000850	20.795028
1265.367389	-3.005600	3.558300	-10.694000	25.344384	0.000850	20.781269
1266.368210	-3.005500	3.559100	-10.696000	25.307493	0.000850	20.796385
1267.361033	-2.990000	3.556900	-10.634000	25.274036	0.000847	20.787923
1268.353233	-3.000400	3.558800	-10.676000	25.242972	0.000848	20.788978
1269.357084	-3.004500	3.558100	-10.689000	25.205532	0.000847	20.798330
1270.356183	-2.993500	3.559200	-10.653000	25.202063	0.000845	20.795322
1271.358985	-3.024900	3.556300	-10.755000	25.245244	0.000845	20.784620
1272.358076	-2.985200	3.557800	-10.620000	25.241734	0.000846	20.811443
1273.365619	-2.987100	3.556900	-10.623000	25.252849	0.000844	20.806955
1274.362165	-3.026100	3.555400	-10.758000	25.287739	0.000844	20.806897
1275.362184	-3.009800	3.555800	-10.701000	25.333986	0.000844	20.814451
1276.371586	-2.972300	3.555500	-10.566000	25.360455	0.000843	20.804992
1277.364780	-2.998400	3.554400	-10.656000	25.337959	0.000844	20.804216
1278.359722	-3.020700	3.555200	-10.738000	25.361571	0.000842	20.811802
1279.368036	-3.022100	3.555100	-10.742000	25.343349	0.000844	20.806308
1280.364586	-3.032100	3.553800	-10.774000	25.335354	0.000842	20.793065
1281.371304	-2.990900	3.554600	-10.630000	25.297420	0.000840	20.795280
1282.363307	-3.003800	3.552700	-10.670000	25.293104	0.000840	20.802327
1283.363204	-2.997400	3.554300	-10.652000	25.297729	0.000841	20.810289
1284.365198	-2.986300	3.553200	-10.609000	25.362955	0.000841	20.802760
1285.364805	-3.033900	3.553200	-10.778000	25.370535	0.000841	20.798992
1286.357377	-2.992100	3.552200	-10.628000	25.408482	0.000839	20.802008
1287.379881	-3.006300	3.551300	-10.675000	25.445533	0.000837	20.829729
1288.370018	-3.006500	3.551200	-10.676000	25.460301	0.000838	20.830808
1289.365669	-3.006000	3.551000	-10.673000	25.486791	0.000838	20.811892
1290.374787	-2.997400	3.550900	-10.642000	25.448472	0.000835	20.804706
1291.369112	-2.990900	3.551700	-10.621000	25.403614	0.000834	20.816560
1292.365795	-3.012700	3.550900	-10.696000	25.393877	0.000836	20.816740
1293.372462	-3.005900	3.550600	-10.671000	25.394642	0.000836	20.815137
1294.372211	-2.967900	3.550400	-10.537000	25.392305	0.000835	20.818481
1295.372434	-3.011900	3.549500	-10.689000	25.400601	0.000833	20.816380
1296.375282	-2.995100	3.548000	-10.625000	25.416542	0.000835	20.822429
1297.365394	-2.975800	3.549900	-10.563000	25.477845	0.000833	20.811916
1298.365519	-3.006500	3.548700	-10.668000	25.479929	0.000830	20.823492
1299.366101	-3.006200	3.548600	-10.666000	25.488232	0.000833	20.841787
1300.364554	-3.007100	3.546600	-10.664000	25.491318	0.000832	20.814541
1301.384969	-2.999500	3.548000	-10.642000	25.487410	0.000831	20.834798
1302.388024	-3.022800	3.546600	-10.718000	25.524548	0.000831	20.792910
1303.373272	-2.988700	3.548000	-10.603000	25.519907	0.000829	20.822862
1304.378029	-3.007900	3.546900	-10.668000	25.548074	0.000829	20.817009
1305.363242	-3.015600	3.546200	-10.693000	25.534275	0.000828	20.823541
1306.369007	-2.980100	3.546000	-10.566000	25.494501	0.000828	20.861357
1307.382801	-2.995400	3.545900	-10.620000	25.447528	0.000827	20.836474
1308.371178	-3.022300	3.544300	-10.711000	25.418651	0.000828	20.828340
1309.374950	-2.990800	3.545500	-10.603000	25.382714	0.000827	20.816437
1310.388795	-2.995700	3.545900	-10.622000	25.342918	0.000826	20.826263
1311.373645	-3.004000	3.543700	-10.644000	25.338570	0.000826	20.838019
1312.377218	-2.995300	3.543700	-10.613000	25.334515	0.000825	20.849594
1313.374658	-2.980800	3.543900	-10.563000	25.310960	0.000826	20.857712
1314.370936	-3.001000	3.544300	-10.634000	25.340190	0.000826	20.850551
1315.372403	-2.987400	3.544000	-10.585000	25.374687	0.000823	20.821653
1316.383519	-3.010900	3.543200	-10.668000	25.382413	0.000824	20.839367
1317.383316	-3.014800	3.540700	-10.674000	25.382364	0.000823	20.840741
1318.392821	-3.022400	3.540000	-10.698000	25.397475	0.000822	20.844534
1319.379418	-2.997400	3.542000	-10.616000	25.381843	0.000821	20.847330
1320.375162	-2.978900	3.542900	-10.553000	25.376665	0.000821	20.849242
1321.369594	-2.984400	3.541600	-10.569000	25.381493	0.000820	20.833702
1322.374755	-3.022600	3.541500	-10.703000	25.423413	0.000820	20.856354
1323.380706	-2.987300	3.541100	-10.578000	25.459153	0.000821	20.833449
1324.374541	-3.006000	3.540200	-10.641000	25.488200	0.000822	20.845073
1325.379099	-2.983700	3.540500	-10.562000	25.497863	0.000818	20.852406
1326.382684	-3.011800	3.539000	-10.658000	25.440868	0.000819	20.846856
1327.377297	-3.011200	3.540500	-10.660000	25.422908	0.000818	20.856322
1328.383828	-3.006000	3.540200	-10.641000	25.448252	0.000817	20.864700
1329.384337	-3.003800	3.539700	-10.632000	25.455498	0.000816	20.842580
1330.373683	-2.997300	3.538700	-10.605000	25.475842	0.000817	20.867275
1331.373456	-3.000800	3.537100	-10.612000	25.521096	0.000817	20.847763
1332.382728	-2.999700	3.536800	-10.609000	25.536807	0.000815	20.864488
1333.372739	-2.995200	3.539100	-10.599000	25.563165	0.000814	20.874363
1334.378091	-2.998700	3.537600	-10.607000	25.579698	0.000814	20.846398
1335.384075	-3.023100	3.537300	-10.693000	25.560284	0.000814	20.850607
1336.387370	-2.992300	3.536100	-10.580000	25.565200	0.000812	20.847011
1337.390341	-3.007900	3.535300	-10.633000	25.543360	0.000815	20.863957
1338.382537	-2.992100	3.537100	-10.581000	25.549653	0.000812	20.875491
1339.385641	-3.017900	3.534600	-10.666000	25.558713	0.000812	20.880796
1340.395473	-3.002600	3.536900	-10.619000	25.553047	0.000812	20.867995
1341.387181	-3.020600	3.534900	-10.677000	25.541252	0.000811	20.857572
1342.391050	-2.973100	3.535500	-10.509000	25.579592	0.000810	20.872368
1343.393931	-2.984100	3.535700	-10.549000	25.590223	0.000811	20.896319
1344.383644	-2.988100	3.535400	-10.563000	25.602775	0.000810	20.856297
1345.387069	-3.022300	3.532000	-10.675000	25.620015	0.000809	20.873611
1346.394901	-3.015500	3.533400	-10.653000	25.636596	0.000809	20.885521
1347.387528	-3.038300	3.531600	-10.729000	25.626405	0.000809	20.871494
1348.385175	-3.020600	3.531600	-10.666000	25.590671	0.000808	20.868796
1349.390407	-3.009700	3.530900	-10.626000	25.582099	0.000807	20.889110
1350.384905	-3.004700	3.530800	-10.607000	25.618973	0.000808	20.879202
1351.387338	-2.997800	3.531600	-10.586000	25.604240	0.000808	20.865829
1352.379022	-2.983600	3.532500	-10.539000	25.627699	0.000806	20.888913
1353.386691	-2.999200	3.532300	-10.592000	25.669886	0.000805	20.886240
1354.389438	-3.007100	3.531500	-10.618000	25.671522	0.000805	20.882194
1355.382116	-3.018500	3.528700	-10.650000	25.673484	0.000804	20.876578
1356.389823	-2.970200	3.531700	-10.489000	25.653591	0.000804	20.894529
1357.409773	-2.973000	3.529600	-10.492000	25.641610	0.000803	20.873014
1358.389186	-2.999100	3.530000	-10.586000	25.671506	0.000803	20.888341
1359.383333	-3.000100	3.528500	-10.583000	25.658858	0.000802	20.892232
1360.389494	-3.005800	3.528700	-10.606000	25.677074	0.000802	20.884924
1361.390858	-3.011800	3.528600	-10.627000	25.694182	0.000802	20.888832
1362.393063	-2.996600	3.529300	-10.575000	25.699855	0.000801	20.886469
1363.395398	-2.999000	3.526600	-10.575000	25.703843	0.000801	20.881466
1364.384755	-3.029900	3.527000	-10.684000	25.669048	0.000801	20.887769
1365.396070	-2.994400	3.527800	-10.562000	25.639843	0.000801	20.883567
1366.399943	-2.990700	3.526100	-10.545000	25.625143	0.000801	20.901044
1367.408858	-3.003500	3.526300	-10.590000	25.583272	0.000798	20.895976
1368.386582	-3.007900	3.526300	-10.606000	25.594008	0.000799	20.913396
1369.386081	-3.001500	3.525200	-10.580000	25.599421	0.000797	20.896074
1370.395072	-2.993200	3.525300	-10.550000	25.626429	0.000799	20.888112
1371.392420	-2.997100	3.524900	-10.564000	25.622498	0.000796	20.887483
1372.399186	-3.032900	3.524100	-10.688000	25.659973	0.000796	20.866327
1373.393216	-2.961900	3.526300	-10.443000	25.653713	0.000796	20.875687
1374.386713	-3.008300	3.523900	-10.600000	25.684887	0.000794	20.897039
1375.399008	-2.974000	3.524500	-10.481000	25.674607	0.000796	20.890033
1376.402655	-2.999300	3.524700	-10.571000	25.669357	0.000795	20.883812
1377.409019	-2.981300	3.523600	-10.504000	25.688908	0.000795	20.874526
1378.398883	-2.991200	3.522000	-10.534000	25.682518	0.000795	20.882807
1379.394285	-3.007200	3.522900	-10.593000	25.685872	0.000795	20.888071
1380.399727	-2.993800	3.521700	-10.542000	25.665198	0.000793	20.872997
1381.396681	-3.001500	3.520500	-10.565000	25.676333	0.000791	20.876594
1382.395374	-2.997300	3.521400	-10.554000	25.659451	0.000793	20.868648
1383.394455	-2.987900	3.520900	-10.519000	25.655552	0.000793	20.869948
1384.396265	-2.971900	3.521400	-10.462000	25.669715	0.000791	20.882749
1385.403671	-2.969000	3.521700	-10.455000	25.663496	0.000791	20.870815
1386.395844	-2.992200	3.519000	-10.528000	25.694898	0.000791	20.870586
1387.399400	-3.014100	3.518800	-10.605000	25.661901	0.000789	20.859730
1388.411666	-2.991900	3.520200	-10.531000	25.660143	0.000790	20.870766
1389.403593	-2.997300	3.518900	-10.546000	25.662617	0.000788	20.870406
1390.396974	-2.995500	3.518000	-10.537000	25.655682	0.000788	20.844002
1391.406206	-3.009000	3.519400	-10.588000	25.669992	0.000786	20.869752
1392.397061	-3.035500	3.517400	-10.675000	25.623270	0.000786	20.871664
1393.392604	-3.015900	3.516300	-10.604000	25.603450	0.000786	20.866931
1394.398478	-2.973800	3.518600	-10.462000	25.557417	0.000786	20.839669
1395.396673	-3.011400	3.517800	-10.592000	25.596954	0.000785	20.852348
1396.403229	-3.007400	3.516700	-10.574000	25.613405	0.000785	20.866498
1397.393958	-2.989000	3.516800	-10.511000	25.653826	0.000784	20.840715
1398.396190	-2.999700	3.515800	-10.545000	25.661396	0.000784	20.872972
1399.398514	-2.998500	3.515000	-10.538000	25.667728	0.000786	20.867005
1400.403062	-2.999900	3.514300	-10.541000	25.654665	0.000786	20.846772
1401.405756	-2.986600	3.516100	-10.500000	25.591296	0.000782	20.851882
1402.406264	-2.994200	3.514600	-10.521000	25.564442	0.000782	20.870430
1403.398397	-2.985600	3.515600	-10.496000	25.580983	0.000782	20.851955
1404.412530	-2.997800	3.512700	-10.529000	25.572786	0.000782	20.852732
1405.398354	-2.991800	3.514500	-10.513000	25.596335	0.000780	20.856467
1406.432883	-2.974800	3.515000	-10.455000	25.586266	0.000782	20.833554
1407.404644	-3.037300	3.511100	-10.663000	25.603417	0.000781	20.846985
1408.403465	-3.007300	3.513500	-10.565000	25.613575	0.000779	20.849601
1409.407330	-3.011500	3.512200	-10.575000	25.637547	0.000780	20.845227
1410.407709	-2.999000	3.511600	-10.530000	25.632753	0.000778	20.842783
1411.418264	-3.020000	3.510100	-10.599000	25.599721	0.000779	20.855127
1412.423015	-2.997500	3.512300	-10.527000	25.646191	0.000777	20.864814
1413.406562	-3.018700	3.510200	-10.595000	25.639793	0.000776	20.849854
1414.410232	-2.998300	3.511600	-10.528000	25.637262	0.000779	20.857268
1415.410041	-2.988300	3.511500	-10.491000	25.645434	0.000775	20.866424
1416.420100	-3.004700	3.511200	-10.549000	25.660346	0.000775	20.868124
1417.402035	-2.991300	3.510100	-10.499000	25.668762	0.000774	20.865672
1418.402974	-2.998000	3.510800	-10.524000	25.660581	0.000777	20.852241
1419.415611	-3.016900	3.508200	-10.582000	25.648682	0.000774	20.822746
1420.415569	-3.008500	3.509400	-10.556000	25.577368	0.000773	20.838368
1421.405505	-2.992600	3.510100	-10.503000	25.553159	0.000775	20.842031
1422.403976	-3.000200	3.507400	-10.520000	25.554210	0.000773	20.869636
1423.408835	-3.003800	3.507700	-10.535000	25.568886	0.000773	20.843126
1424.417939	-3.000400	3.507000	-10.522000	25.575871	0.000773	20.851088
1425.413506	-3.002000	3.507700	-10.529000	25.590555	0.000772	20.842129
1426.416354	-3.004200	3.506900	-10.535000	25.556236	0.000773	20.839431
1427.422540	-2.991600	3.505900	-10.487000	25.541747	0.000771	20.850483
1428.417057	-3.003700	3.506800	-10.532000	25.539858	0.000770	20.843371
1429.415440	-2.981500	3.506100	-10.451000	25.567193	0.000769	20.846167
1430.414555	-2.988300	3.505800	-10.476000	25.563685	0.000769	20.842169
1431.416753	-3.006000	3.504500	-10.534000	25.579045	0.000768	20.839104
1432.419208	-2.998000	3.504700	-10.506000	25.575740	0.000770	20.836733
1433.420028	-3.004800	3.505100	-10.531000	25.546769	0.000769	20.834191
1434.419043	-2.988500	3.504700	-10.472000	25.541266	0.000767	20.850949
1435.417039	-2.992300	3.503400	-10.482000	25.561902	0.000767	20.839431
1436.411165	-2.975700	3.502900	-10.422000	25.559680	0.000767	20.841466
1437.422066	-2.993900	3.503300	-10.488000	25.567828	0.000766	20.831158
1438.415336	-2.999600	3.501900	-10.503000	25.557400	0.000765	20.833014
1439.411806	-2.997100	3.501900	-10.495000	25.544449	0.000765	20.834706
1440.418128	-3.008600	3.502300	-10.536000	25.532719	0.000764	20.834779
1441.417147	-2.987500	3.501400	-10.459000	25.537741	0.000763	20.826547
1442.427631	-2.996000	3.500200	-10.486000	25.560160	0.000764	20.834363
1443.403275	-3.009900	3.501700	-10.537000	25.585484	0.000761	20.834191
1444.413905	-3.004800	3.500900	-10.518000	25.587372	0.000762	20.845096
1445.431453	-3.008000	3.499600	-10.526000	25.627917	0.000761	20.829866
1446.418745	-2.993500	3.499500	-10.475000	25.637213	0.000760	20.835409
1447.407514	-3.025100	3.498700	-10.583000	25.671057	0.000760	20.822934
1448.400109	-3.008000	3.499000	-10.524000	25.675574	0.000761	20.854497
1449.397619	-3.007300	3.497900	-10.518000	25.693196	0.000760	20.818144
1450.422294	-3.003600	3.498300	-10.506000	25.675053	0.000759	20.851129
1451.401719	-2.999600	3.498700	-10.493000	25.664594	0.000759	20.828297
1452.406482	-3.010800	3.498000	-10.530000	25.660500	0.000757	20.832719
1453.421947	-3.010300	3.497900	-10.529000	25.663357	0.000755	20.845546
1454.426648	-3.011100	3.496400	-10.527000	25.659824	0.000758	20.823032
1455.434662	-2.976100	3.497900	-10.408000	25.640908	0.000756	20.847655
1456.421609	-2.990400	3.497000	-10.456000	25.666132	0.000756	20.834583
1457.416914	-3.005600	3.496300	-10.508000	25.651376	0.000756	20.825926
1458.419837	-2.998200	3.496600	-10.482000	25.676323	0.000754	20.822534
1459.423296	-2.997900	3.494700	-10.476000	25.666531	0.000753	20.830242
1460.394850	-3.008200	3.494100	-10.511000	25.664846	0.000753	20.852257
1461.398921	-3.015900	3.496000	-10.542000	25.622732	0.000754	20.825133
1462.394550	-3.001700	3.494200	-10.486000	25.608691	0.000753	20.825730
1463.398504	-3.010000	3.493600	-10.514000	25.624026	0.000752	20.821692
1464.401329	-2.995100	3.494000	-10.464000	25.602187	0.000753	20.831526
1465.432161	-2.981800	3.494100	-10.417000	25.573534	0.000753	20.821242
1466.430535	-3.003900	3.493400	-10.492000	25.529153	0.000752	20.801802
1467.425704	-2.975400	3.493800	-10.394000	25.505472	0.000750	20.809789
1468.422138	-3.010400	3.492200	-10.511000	25.483362	0.000751	20.835000
1469.435229	-3.000100	3.490600	-10.471000	25.494743	0.000750	20.829834
1470.409770	-2.984700	3.491900	-10.421000	25.485796	0.000749	20.842660
1471.402700	-3.011400	3.491100	-10.512000	25.489004	0.000750	20.808424
1472.407777	-2.982900	3.492900	-10.419000	25.504545	0.000751	20.821659
1473.410900	-2.988600	3.490200	-10.430000	25.526085	0.000750	20.815789
1474.421121	-3.012800	3.490100	-10.514000	25.562220	0.000748	20.802767
1475.406854	-2.966100	3.491200	-10.354000	25.609350	0.000746	20.844884
1476.407482	-2.999000	3.489900	-10.465000	25.639321	0.000746	20.823302
1477.421164	-3.002000	3.489100	-10.474000	25.685309	0.000747	20.829662
1478.424953	-2.984200	3.489000	-10.410000	25.676991	0.000746	20.816566
1479.426566	-3.003100	3.488800	-10.477000	25.676470	0.000747	20.822207
1480.411095	-2.976200	3.487100	-10.378000	25.679050	0.000743	20.806307
1481.409312	-3.009000	3.486400	-10.489000	25.668933	0.000746	20.812740
1482.421813	-2.994800	3.487000	-10.441000	25.653305	0.000745	20.820277
1483.415844	-2.996500	3.486200	-10.446000	25.676144	0.000742	20.810026
1484.428944	-3.004700	3.485800	-10.472000	25.670845	0.000744	20.819403
1485.431284	-3.015700	3.484800	-10.508000	25.707643	0.000743	20.809895
1486.430394	-2.986900	3.485000	-10.408000	25.712461	0.000744	20.822795
1487.429877	-3.011300	3.485200	-10.493000	25.737033	0.000743	20.802906
1488.431363	-3.006500	3.484000	-10.474000	25.722098	0.000742	20.799284
1489.407575	-3.003400	3.484200	-10.462000	25.678496	0.000744	20.817604
1490.410294	-2.990600	3.483800	-10.417000	25.629366	0.000743	20.812356
1491.410737	-2.994000	3.482700	-10.426000	25.628674	0.000741	20.818299
1492.413640	-3.008100	3.481900	-10.473000	25.654119	0.000742	20.803077
1493.419453	-3.009800	3.483300	-10.483000	25.633648	0.000741	20.800535
1494.425756	-3.015000	3.480900	-10.494000	25.615553	0.000741	20.817449
1495.411476	-2.999400	3.481800	-10.443000	25.583123	0.000740	20.817596
1496.415824	-3.004900	3.482500	-10.462000	25.583197	0.000741	20.818618
1497.432625	-2.984900	3.481500	-10.391000	25.554201	0.000738	20.816999
1498.416469	-2.997400	3.480600	-10.431000	25.559134	0.000739	20.804410
1499.409884	-3.032900	3.478500	-10.549000	25.562496	0.000739	20.793561
1500.415246	-3.004800	3.480800	-10.457000	25.537448	0.000737	20.802546
1501.417884	-3.030900	3.477700	-10.539000	25.592785	0.000736	20.801696
1502.410563	-3.003100	3.479900	-10.449000	25.620160	0.000737	20.797420
1503.417579	-3.016800	3.478300	-10.492000	25.626761	0.000738	20.804524
1504.417562	-3.010900	3.478200	-10.471000	25.641697	0.000735	20.810990
1505.408950	-2.994100	3.479100	-10.416000	25.675566	0.000735	20.800437
1506.423212	-3.005200	3.479900	-10.457000	25.655364	0.000736	20.799586
1507.413803	-2.983600	3.478000	-10.377000	25.636276	0.000736	20.805546
1508.418577	-2.963900	3.480500	-10.315000	25.628796	0.000735	20.788550
1509.422601	-2.997600	3.477600	-10.423000	25.616888	0.000735	20.791763
1510.438712	-3.004900	3.478200	-10.450000	25.609415	0.000735	20.790422
1511.416917	-3.007600	3.475900	-10.452000	25.589578	0.000732	20.807957
1512.437297	-3.001000	3.476800	-10.433000	25.578272	0.000733	20.797076
1513.418458	-2.980800	3.476400	-10.361000	25.594324	0.000732	20.803240
1514.413581	-2.993800	3.476000	-10.406000	25.588202	0.000732	20.808947
1515.433719	-3.018900	3.474100	-10.486000	25.592883	0.000731	20.815544
1516.415802	-3.000800	3.474900	-10.427000	25.618418	0.000730	20.794722
1517.434013	-2.982700	3.475900	-10.366000	25.621950	0.000731	20.798270
1518.437590	-2.998400	3.473800	-10.414000	25.638572	0.000730	20.789833
1519.447194	-2.984800	3.473900	-10.368000	25.689753	0.000731	20.787185
1520.426126	-3.013400	3.473300	-10.465000	25.707740	0.000729	20.783914
1521.409231	-3.028400	3.472800	-10.516000	25.714227	0.000729	20.788059
1522.418245	-2.986700	3.472700	-10.370000	25.719371	0.000728	20.800338
1523.413124	-3.000000	3.473300	-10.419000	25.697151	0.000728	20.789874
1524.409220	-2.991200	3.473500	-10.388000	25.688100	0.000727	20.791215
1525.411051	-2.983700	3.470900	-10.356000	25.659686	0.000726	20.794918
1526.418506	-2.988800	3.471700	-10.375000	25.620990	0.000726	20.780236
1527.416765	-2.980800	3.471600	-10.346000	25.665872	0.000726	20.784062
1528.419350	-3.008300	3.469700	-10.438000	25.675037	0.000727	20.797534
1529.428899	-3.005600	3.471400	-10.432000	25.673075	0.000726	20.804099
1530.429996	-2.979100	3.470800	-10.337000	25.655697	0.000725	20.787119
1531.420426	-3.001900	3.469700	-10.415000	25.620046	0.000724	20.769804
1532.425468	-3.002500	3.468600	-10.413000	25.625605	0.000722	20.785345
1533.424773	-2.971600	3.469600	-10.309000	25.627062	0.000723	20.772109
1534.414139	-3.012500	3.469100	-10.450000	25.653801	0.000723	20.795171
1535.427382	-2.998300	3.468100	-10.398000	25.682574	0.000724	20.800837
1536.423099	-2.998100	3.467700	-10.396000	25.692707	0.000722	20.778298
1537.420314	-3.011700	3.465300	-10.435000	25.709205	0.000719	20.793921
1538.412911	-3.001800	3.467000	-10.406000	25.733695	0.000719	20.770630
1539.416448	-2.996600	3.466900	-10.387000	25.740329	0.000718	20.776818
1540.419312	-3.015200	3.465600	-10.448000	25.757794	0.000721	20.773973
1541.426566	-2.988600	3.465900	-10.356000	25.758836	0.000720	20.790667
1542.421745	-3.001500	3.464900	-10.398000	25.729447	0.000718	20.768259
1543.424469	-2.983500	3.465100	-10.337000	25.682280	0.000718	20.799594
1544.431350	-2.990200	3.465300	-10.361000	25.658497	0.000719	20.795147
1545.422703	-3.000000	3.464600	-10.393000	25.637814	0.000718	20.776745
1546.430584	-2.991200	3.464100	-10.360000	25.606314	0.000716	20.779246
1547.429878	-2.961400	3.465300	-10.260000	25.612370	0.000715	20.763991
1548.423917	-3.019000	3.461900	-10.450000	25.615227	0.000715	20.779189
1549.423096	-2.993700	3.462200	-10.363000	25.631229	0.000714	20.778666
1550.424884	-2.985800	3.462700	-10.337000	25.612142	0.000714	20.777513
1551.423877	-3.011500	3.462900	-10.427000	25.645799	0.000713	20.760108
1552.425940	-2.982900	3.461700	-10.324000	25.648567	0.000714	20.766681
1553.440548	-2.985300	3.462100	-10.334000	25.627070	0.000713	20.781126
1554.438613	-3.020100	3.460800	-10.450000	25.652230	0.000711	20.754238
1555.455023	-3.008000	3.462100	-10.412000	25.635950	0.000712	20.771079
1556.461849	-3.011700	3.460300	-10.420000	25.651977	0.000712	20.761571
1557.452621	-3.003100	3.461700	-10.394000	25.664992	0.000714	20.764212
1558.430734	-3.047000	3.458200	-10.536000	25.691974	0.000710	20.763811
1559.428715	-3.026700	3.458100	-10.466000	25.720030	0.000709	20.770654
1560.432863	-2.982000	3.460500	-10.318000	25.700520	0.000711	20.769550
1561.425565	-2.998600	3.459600	-10.372000	25.685854	0.000709	20.770940
1562.431570	-3.014300	3.457700	-10.421000	25.711419	0.000708	20.752521
1563.425475	-2.982800	3.459000	-10.316000	25.735795	0.000706	20.783170
1564.426918	-3.002800	3.457400	-10.380000	25.737634	0.000707	20.753723
1565.432427	-2.995300	3.457100	-10.354000	25.755971	0.000708	20.760288
1566.445416	-3.000800	3.455400	-10.368000	25.760887	0.000708	20.751475
1567.457448	-3.025000	3.455100	-10.450000	25.775496	0.000706	20.755244
1568.456072	-2.996700	3.454700	-10.352000	25.806316	0.000706	20.776246
1569.451518	-2.992600	3.455800	-10.341000	25.769807	0.000707	20.749055
1570.454127	-3.011600	3.454300	-10.402000	25.789030	0.000706	20.737544
1571.448256	-3.037500	3.452200	-10.485000	25.785498	0.000706	20.760075
1572.427654	-3.006700	3.453600	-10.383000	25.746734	0.000705	20.764760
1573.436712	-3.001700	3.453200	-10.364000	25.749721	0.000704	20.760647
1574.460463	-3.008400	3.453900	-10.390000	25.709221	0.000704	20.749840
1575.439532	-3.012100	3.452200	-10.398000	25.684348	0.000703	20.754254
1576.435462	-2.997500	3.453200	-10.349000	25.632328	0.000704	20.767441
1577.433476	-2.999200	3.452400	-10.354000	25.634111	0.000703	20.738410
1578.431377	-3.010800	3.453700	-10.397000	25.613110	0.000703	20.765209
1579.435802	-2.978400	3.452600	-10.283000	25.595268	0.000703	20.745392
1580.432586	-3.022400	3.450200	-10.426000	25.591515	0.000703	20.726450
1581.428479	-2.992300	3.452000	-10.328000	25.577848	0.000700	20.742122
1582.441922	-3.019900	3.450800	-10.420000	25.542210	0.000700	20.756592
1583.444788	-3.007000	3.450300	-10.374000	25.521590	0.000700	20.753903
1584.440088	-2.992300	3.451800	-10.328000	25.527248	0.000702	20.759110
1585.446908	-2.998800	3.449600	-10.344000	25.510030	0.000698	20.734707
1586.451183	-3.003100	3.448000	-10.354000	25.543651	0.000700	20.744289
1587.440599	-2.993700	3.450200	-10.328000	25.575105	0.000700	20.745057
1588.454660	-3.023500	3.446700	-10.420000	25.596602	0.000700	20.752897
1589.433774	-3.040700	3.447100	-10.481000	25.632751	0.000698	20.767392
1590.458515	-2.993900	3.448800	-10.323000	25.633378	0.000697	20.725820
1591.462521	-3.004600	3.447400	-10.357000	25.636846	0.000697	20.738786
1592.454403	-3.002600	3.447000	-10.349000	25.633468	0.000697	20.729229
1593.471033	-2.997200	3.448900	-10.336000	25.627233	0.000696	20.718225
1594.461884	-3.012200	3.445800	-10.378000	25.607770	0.000695	20.757950
1595.464296	-3.011700	3.445800	-10.377000	25.607950	0.000698	20.742008
1596.471930	-2.994600	3.444800	-10.315000	25.630554	0.000695	20.754753
1597.445059	-3.013700	3.444000	-10.378000	25.628397	0.000693	20.737413
1598.435462	-3.010700	3.443800	-10.367000	25.643846	0.000692	20.747240
1599.435261	-2.986400	3.444500	-10.285000	25.652189	0.000693	20.752775
1600.437541	-2.977000	3.445000	-10.255000	25.660573	0.000692	20.742228
1601.439526	-3.009300	3.443500	-10.361000	25.694156	0.000693	20.722378
1602.438582	-3.014100	3.441400	-10.372000	25.700594	0.000691	20.729793
1603.443453	-2.976200	3.443600	-10.247000	25.656568	0.000690	20.740577
1604.438385	-2.996300	3.443800	-10.318000	25.665977	0.000691	20.749079
1605.433993	-2.998900	3.442400	-10.322000	25.674947	0.000690	20.735802
1606.438206	-3.000800	3.441600	-10.326000	25.689647	0.000690	20.741084
1607.444299	-3.027000	3.441000	-10.415000	25.716335	0.000689	20.733750
1608.456867	-3.010900	3.442200	-10.363000	25.697053	0.000690	20.715805
1609.437418	-2.988600	3.441400	-10.284000	25.691559	0.000690	20.733522
1610.441990	-2.994200	3.441000	-10.301000	25.708424	0.000689	20.737658
1611.441741	-3.012300	3.439000	-10.359000	25.718117	0.000690	20.735067
1612.444880	-2.969700	3.440700	-10.217000	25.725768	0.000688	20.730897
1613.445763	-2.981700	3.440300	-10.257000	25.720372	0.000688	20.731167
1614.439985	-2.990300	3.440400	-10.287000	25.733891	0.000686	20.732892
1615.435078	-2.995300	3.439300	-10.300000	25.698225	0.000687	20.715560
1616.454722	-2.991800	3.438100	-10.285000	25.647191	0.000686	20.708872
1617.449967	-2.998100	3.440200	-10.311000	25.629618	0.000686	20.722992
1618.442452	-3.009600	3.437100	-10.343000	25.630196	0.000684	20.720253
1619.442574	-2.987900	3.437600	-10.270000	25.578548	0.000687	20.710107
1620.448230	-2.974600	3.438900	-10.228000	25.562292	0.000686	20.708480
1621.446109	-2.984200	3.436700	-10.254000	25.550212	0.000685	20.724324
1622.455298	-3.008700	3.436500	-10.339000	25.575137	0.000684	20.716639
1623.447649	-2.999100	3.436000	-10.305000	25.606639	0.000684	20.719828
1624.450723	-3.007600	3.435100	-10.330000	25.635161	0.000682	20.723817
1625.449497	-2.985500	3.435100	-10.255000	25.639410	0.000684	20.718127
1626.450550	-3.016200	3.435800	-10.362000	25.618711	0.000682	20.709665
1627.440586	-2.993400	3.434900	-10.281000	25.588365	0.000680	20.707164
1628.467233	-3.009300	3.433300	-10.330000	25.608715	0.000680	20.704368
1629.453569	-2.989700	3.435200	-10.269000	25.603172	0.000679	20.712551
1630.450255	-3.016400	3.434000	-10.357000	25.602423	0.000680	20.716067
1631.448853	-2.990200	3.431200	-10.258000	25.623904	0.000678	20.709191
1632.443622	-2.997500	3.434200	-10.293000	25.629724	0.000679	20.700337
1633.448691	-2.983200	3.432100	-10.238000	25.629423	0.000677	20.713786
1634.440894	-3.002700	3.432000	-10.304000	25.618662	0.000676	20.712936
1635.449832	-2.983900	3.433100	-10.243000	25.615699	0.000676	20.718970
1636.442601	-3.006200	3.430800	-10.313000	25.615545	0.000677	20.706011
1637.454225	-2.998800	3.430400	-10.285000	25.600958	0.000679	20.701318
1638.454925	-3.026900	3.430100	-10.381000	25.610246	0.000677	20.717760
1639.457823	-3.016700	3.430100	-10.347000	25.611833	0.000675	20.709396
1640.468856	-2.993600	3.430200	-10.268000	25.643554	0.000674	20.690518
1641.455268	-3.003700	3.429900	-10.301000	25.636920	0.000674	20.693813
1642.447007	-2.986700	3.429000	-10.239000	25.684796	0.000674	20.694958
1643.447724	-2.997400	3.429600	-10.278000	25.715489	0.000674	20.691647
1644.457014	-2.998400	3.427500	-10.276000	25.736423	0.000673	20.724529
1645.443780	-2.988300	3.427000	-10.240000	25.747304	0.000673	20.691360
1646.444656	-2.994600	3.427300	-10.262000	25.766528	0.000671	20.723949
1647.444961	-2.991900	3.426900	-10.252000	25.782252	0.000672	20.696593
1648.444840	-3.024300	3.426100	-10.360000	25.809084	0.000671	20.685613
1649.455022	-3.001500	3.427400	-10.286000	25.744635	0.000673	20.697214
1650.458277	-2.978600	3.426500	-10.206000	25.710419	0.000671	20.706944
1651.450892	-2.987400	3.426700	-10.236000	25.718745	0.000670	20.698711
1652.454961	-2.992500	3.425500	-10.249000	25.684528	0.000670	20.683782
1653.452697	-3.010800	3.425100	-10.311000	25.720348	0.000669	20.687518
1654.469671	-2.991800	3.425500	-10.248000	25.679791	0.000669	20.690404
1655.450116	-2.995800	3.425500	-10.262000	25.656016	0.000669	20.700191
1656.469506	-3.005200	3.423700	-10.288000	25.653159	0.000669	20.708227
1657.450694	-3.010100	3.422300	-10.301000	25.672978	0.000668	20.694468
1658.452113	-3.008800	3.423900	-10.301000	25.699065	0.000668	20.700281
1659.477329	-2.992300	3.424200	-10.245000	25.695280	0.000667	20.695057
1660.480388	-2.974300	3.423000	-10.180000	25.709101	0.000666	20.704671
1661.473646	-2.989600	3.423300	-10.234000	25.694263	0.000668	20.699251
1662.472203	-3.004600	3.422100	-10.280000	25.702858	0.000667	20.705513
1663.486856	-2.996400	3.423100	-10.256000	25.667647	0.000665	20.703339
1664.470693	-3.000200	3.420800	-10.263000	25.708002	0.000666	20.715422
1665.477860	-3.012300	3.420300	-10.302000	25.714204	0.000664	20.718807
1666.473149	-2.990700	3.420200	-10.227000	25.732761	0.000663	20.693822
1667.470484	-2.982800	3.421300	-10.203000	25.690495	0.000662	20.699259
1668.482298	-3.027600	3.418900	-10.349000	25.700384	0.000664	20.679793
1669.484552	-3.002700	3.419900	-10.267000	25.716353	0.000662	20.701524
1670.456141	-2.990900	3.419500	-10.226000	25.703859	0.000661	20.700829
1671.464270	-2.994000	3.419500	-10.237000	25.670415	0.000662	20.696635
1672.481292	-2.992900	3.418200	-10.228000	25.667851	0.000661	20.706863
1673.455193	-2.991200	3.418500	-10.224000	25.672222	0.000660	20.718840
1674.489470	-3.010500	3.418200	-10.289000	25.671099	0.000660	20.691157
1675.469971	-2.996500	3.418000	-10.241000	25.659297	0.000658	20.703012
1676.479129	-3.011600	3.417400	-10.291000	25.663505	0.000658	20.692065
1677.479019	-2.991100	3.417900	-10.222000	25.685481	0.000657	20.715562
1678.482708	-3.002200	3.416500	-10.257000	25.739500	0.000657	20.700118
1679.479901	-3.001400	3.416700	-10.254000	25.781708	0.000657	20.690356
1680.477650	-2.990100	3.415300	-10.212000	25.780373	0.000659	20.699447
1681.463908	-3.014800	3.415000	-10.295000	25.787274	0.000656	20.693577
1682.463790	-2.997500	3.414300	-10.233000	25.818721	0.000657	20.698614
1683.464395	-2.992400	3.414600	-10.215000	25.821505	0.000655	20.699513
1684.484594	-2.987100	3.416300	-10.204000	25.854651	0.000655	20.714319
1685.474553	-3.003600	3.413700	-10.252000	25.858867	0.000655	20.689154
1686.480457	-3.006300	3.413300	-10.260000	25.826266	0.000653	20.700502
1687.456169	-3.011000	3.413900	-10.279000	25.830115	0.000652	20.702947
1688.485341	-3.019400	3.412400	-10.302000	25.809029	0.000652	20.708792
1689.492505	-3.001800	3.413000	-10.244000	25.843388	0.000652	20.669336
1690.468556	-2.999100	3.413700	-10.237000	25.868201	0.000651	20.705645
1691.495398	-3.003300	3.411800	-10.245000	25.861642	0.000652	20.691942
1692.491625	-3.011800	3.412800	-10.276000	25.846660	0.000652	20.695384
1693.486721	-2.994800	3.411700	-10.216000	25.866484	0.000649	20.702971
1694.486968	-3.001700	3.411600	-10.239000	25.863034	0.000651	20.702824
1695.489047	-2.995700	3.410800	-10.217000	25.866386	0.000650	20.709038
1696.484390	-3.025600	3.410900	-10.319000	25.873287	0.000649	20.715971
1697.496984	-3.011400	3.410600	-10.269000	25.888643	0.000648	20.694411
1698.492626	-2.989500	3.410000	-10.193000	25.877161	0.000648	20.714172
1699.482857	-2.983500	3.410000	-10.173000	25.861317	0.000646	20.712480
1700.496941	-2.999000	3.409800	-10.224000	25.856320	0.000647	20.699873
1701.486464	-2.996400	3.409400	-10.215000	25.838725	0.000647	20.720132
1702.504062	-3.005600	3.407300	-10.240000	25.785224	0.000645	20.697682
1703.497774	-3.014100	3.407100	-10.268000	25.809517	0.000647	20.703119
1704.496740	-3.017400	3.406800	-10.279000	25.814604	0.000647	20.707754
1705.490961	-2.978100	3.408100	-10.148000	25.809761	0.000646	20.710003
1706.482444	-3.002100	3.408300	-10.230000	25.833663	0.000645	20.694657
1707.474587	-3.010500	3.407300	-10.257000	25.815743	0.000645	20.694199
1708.475249	-3.019300	3.404600	-10.278000	25.820561	0.000645	20.716110
1709.473196	-3.006700	3.406600	-10.242000	25.733633	0.000643	20.697543
1710.462809	-3.009700	3.404000	-10.244000	25.704112	0.000643	20.713886
1711.472621	-3.000600	3.405200	-10.216000	25.679524	0.000644	20.718587
1712.466606	-2.995800	3.405200	-10.200000	25.640535	0.000642	20.718309
1713.472028	-2.997500	3.404100	-10.202000	25.653746	0.000645	20.730156
1714.467642	-2.993600	3.403400	-10.188000	25.652631	0.000640	20.682091
1715.468147	-2.981000	3.403200	-10.144000	25.623776	0.000643	20.722814
1716.484765	-3.023400	3.402700	-10.287000	25.656278	0.000641	20.726534
1717.495780	-2.997800	3.403100	-10.201000	25.689844	0.000641	20.720893
1718.495277	-3.005600	3.403300	-10.227000	25.720285	0.000639	20.720173
1719.491617	-2.983400	3.401700	-10.148000	25.742415	0.000640	20.711581
1720.472298	-2.979600	3.403800	-10.141000	25.735928	0.000639	20.707436
1721.465934	-2.979300	3.402200	-10.135000	25.726820	0.000639	20.716306
1722.484028	-2.979800	3.401600	-10.136000	25.733332	0.000638	20.705776
1723.470892	-3.015200	3.400700	-10.252000	25.727407	0.000637	20.707886
1724.493556	-3.026600	3.401400	-10.293000	25.753988	0.000636	20.725103
1725.495010	-2.995200	3.400100	-10.183000	25.796374	0.000635	20.715996
1726.491913	-2.992900	3.399900	-10.174000	25.808476	0.000636	20.718195
1727.500006	-2.991300	3.399800	-10.168000	25.825094	0.000636	20.708809
1728.504290	-3.008500	3.399600	-10.227000	25.854912	0.000636	20.708891
1729.493495	-3.001500	3.398500	-10.201000	25.826185	0.000636	20.737882
1730.492138	-3.004000	3.399400	-10.211000	25.825941	0.000635	20.728153
1731.497437	-2.978100	3.399200	-10.122000	25.833566	0.000633	20.724907
1732.484534	-3.000200	3.398400	-10.194000	25.760377	0.000635	20.720615
1733.494359	-3.000100	3.398200	-10.194000	25.724330	0.000633	20.717124
1734.476284	-3.005300	3.398400	-10.212000	25.697373	0.000633	20.717549
1735.473580	-2.995700	3.397900	-10.179000	25.687655	0.000631	20.705416
1736.483701	-2.994300	3.397200	-10.171000	25.671108	0.000632	20.730524
1737.494025	-3.002100	3.397200	-10.198000	25.681852	0.000632	20.710968
1738.507229	-3.002800	3.396300	-10.197000	25.704129	0.000630	20.721964
1739.476957	-3.009200	3.396800	-10.220000	25.706245	0.000632	20.710812
1740.478909	-3.006600	3.395600	-10.207000	25.656375	0.000630	20.723313
1741.478592	-2.992600	3.394900	-10.159000	25.633739	0.000632	20.732821
1742.479789	-2.994500	3.396400	-10.170000	25.664800	0.000628	20.732723
1743.481692	-3.017000	3.395600	-10.244000	25.668055	0.000630	20.710387
1744.486965	-2.992300	3.394000	-10.154000	25.710616	0.000630	20.709038
1745.509451	-2.996900	3.394500	-10.172000	25.731785	0.000629	20.715129
1746.483314	-2.985400	3.393200	-10.129000	25.718861	0.000628	20.719217
1747.477037	-3.000000	3.393200	-10.179000	25.717835	0.000627	20.728145
1748.477937	-3.000000	3.392800	-10.178000	25.726047	0.000627	20.735445
1749.484938	-3.012300	3.391700	-10.216000	25.723305	0.000628	20.732216
1750.475588	-3.004300	3.392600	-10.191000	25.719080	0.000626	20.731292
1751.477734	-3.022300	3.392000	-10.250000	25.730963	0.000625	20.727581
1752.480562	-2.979300	3.392800	-10.107000	25.764324	0.000625	20.735961
1753.479563	-3.000700	3.390500	-10.173000	25.797815	0.000624	20.726927
1754.479318	-3.027400	3.389500	-10.260000	25.815483	0.000623	20.740408
1755.503226	-2.992700	3.392100	-10.151000	25.814384	0.000624	20.719863
1756.499888	-3.011300	3.390100	-10.208000	25.798889	0.000625	20.731325
1757.509957	-3.001800	3.389900	-10.174000	25.777590	0.000623	20.732216
1758.495932	-3.001800	3.388900	-10.172000	25.747681	0.000625	20.733467
1759.478521	-3.007900	3.389200	-10.194000	25.718706	0.000622	20.709104
1760.476536	-3.018100	3.387600	-10.222000	25.725714	0.000624	20.729894
1761.483153	-2.986500	3.390500	-10.125000	25.717518	0.000620	20.714549
1762.482737	-3.003400	3.387900	-10.174000	25.725315	0.000622	20.749409
1763.488158	-3.007800	3.388300	-10.189000	25.767075	0.000620	20.730663
1764.480489	-3.018600	3.386700	-10.222000	25.751099	0.000621	20.734056
1765.481349	-2.983100	3.387400	-10.103000	25.757358	0.000620	20.709521
1766.482450	-3.000600	3.387700	-10.164000	25.761476	0.000619	20.741160
1767.481785	-3.003500	3.387900	-10.175000	25.756039	0.000617	20.739018
1768.488576	-2.999600	3.385800	-10.154000	25.753256	0.000619	20.748077
1769.475352	-2.988500	3.386900	-10.121000	25.786445	0.000618	20.757233
1770.482818	-2.998600	3.385900	-10.151000	25.783809	0.000617	20.740834
1771.488444	-3.006700	3.385500	-10.178000	25.785949	0.000617	20.730181
1772.481529	-3.016300	3.383500	-10.205000	25.784687	0.000616	20.744561
1773.486104	-2.991900	3.385800	-10.129000	25.779015	0.000616	20.744553
1774.500653	-3.021600	3.383500	-10.223000	25.789074	0.000616	20.745649
1775.478620	-3.001000	3.384000	-10.155000	25.764081	0.000616	20.749941
1776.485477	-2.980300	3.384400	-10.086000	25.754957	0.000615	20.748837
1777.505208	-2.989600	3.382600	-10.111000	25.770982	0.000614	20.736958
1778.499899	-2.977200	3.385000	-10.076000	25.767792	0.000614	20.751298
1779.508276	-2.971400	3.384000	-10.054000	25.788277	0.000615	20.731571
1780.501197	-3.014100	3.381800	-10.192000	25.770454	0.000612	20.755394
1781.491042	-2.994500	3.382700	-10.128000	25.846718	0.000613	20.737171
1782.490537	-3.020700	3.382100	-10.216000	25.871466	0.000612	20.748282
1783.496074	-3.021800	3.382000	-10.217000	25.881174	0.000611	20.751397
1784.513097	-2.999900	3.381300	-10.142000	25.932189	0.000612	20.734842
1785.513002	-3.018600	3.379700	-10.202000	25.896148	0.000610	20.746524
1786.501519	-2.976800	3.381800	-10.066000	25.900526	0.000610	20.740965
1787.487920	-3.025800	3.379600	-10.225000	25.898565	0.000610	20.751797
1788.487521	-3.009300	3.380300	-10.171000	25.909933	0.000609	20.724810
1789.491118	-3.004900	3.379200	-10.152000	25.929276	0.000609	20.752779
1790.510262	-2.987000	3.378900	-10.092000	25.941173	0.000609	20.752403
1791.520065	-3.020500	3.377600	-10.201000	25.933052	0.000608	20.758469
1792.518042	-3.022400	3.379700	-10.212000	25.924353	0.000607	20.763480
1793.485490	-3.002500	3.378000	-10.142000	25.929496	0.000605	20.761534
1794.511416	-3.017200	3.377200	-10.189000	25.938764	0.000607	20.744293
1795.512133	-3.003600	3.377000	-10.142000	25.920594	0.000606	20.763971
1796.509251	-2.970700	3.379400	-10.038000	25.939302	0.000607	20.740091
1797.504781	-2.999200	3.378400	-10.131000	25.953664	0.000605	20.764003
1798.514572	-2.986000	3.377300	-10.084000	25.922929	0.000603	20.749247
1799.494938	-3.004700	3.375400	-10.141000	25.934818	0.000603	20.763088
1800.494643	-3.000200	3.376600	-10.130000	25.927568	0.000605	20.755330
1801.497270	-2.994300	3.375900	-10.107000	25.889093	0.000603	20.756033
1802.497054	-3.007500	3.375500	-10.150000	25.899916	0.000600	20.776389
1803.506556	-3.001500	3.373800	-10.125000	25.870409	0.000601	20.770928
1804.488585	-2.998800	3.375500	-10.121000	25.855297	0.000602	20.760489
1805.490061	-3.024000	3.373200	-10.199000	25.897410	0.000601	20.762017
1806.491214	-2.994900	3.374600	-10.105000	25.934884	0.000601	20.773585
1807.491023	-2.975600	3.373700	-10.037000	25.940694	0.000600	20.765672
1808.506270	-3.000100	3.372800	-10.118000	25.940515	0.000601	20.761225
1809.518362	-3.011600	3.373300	-10.157000	25.918959	0.000600	20.759957
1810.506981	-3.007500	3.372500	-10.142000	25.902334	0.000599	20.776447
1811.516245	-3.004900	3.372800	-10.134000	25.866072	0.000599	20.765149
1812.517166	-2.981200	3.373200	-10.055000	25.863403	0.000598	20.752984
1813.515473	-3.009000	3.372400	-10.147000	25.822045	0.000598	20.767389
1814.512337	-2.995300	3.371100	-10.097000	25.856966	0.000597	20.758846
1815.518983	-2.998800	3.372500	-10.113000	25.878548	0.000599	20.762509
1816.521584	-2.995000	3.371000	-10.095000	25.884244	0.000598	20.760644
1817.526804	-3.020700	3.369100	-10.174000	25.943184	0.000595	20.763907
1818.505652	-3.006200	3.369900	-10.130000	25.944991	0.000595	20.775205
1819.516621	-3.003500	3.369800	-10.120000	25.952591	0.000596	20.777625
1820.518262	-3.016100	3.369300	-10.161000	25.936748	0.000596	20.791580
1821.520154	-3.010200	3.369300	-10.141000	25.907103	0.000596	20.793092
1822.522005	-3.005800	3.369000	-10.125000	25.896199	0.000594	20.761749
1823.511945	-2.990100	3.368800	-10.072000	25.894384	0.000594	20.771780
1824.519072	-2.974200	3.370000	-10.022000	25.868717	0.000594	20.782506
1825.523523	-2.958900	3.370200	-9.971600	25.837459	0.000592	20.793305
1826.519585	-2.990200	3.368000	-10.071000	25.864291	0.000594	20.793706
1827.512116	-3.003100	3.367700	-10.112000	25.899365	0.000592	20.786266
1828.513465	-2.993300	3.366200	-10.075000	25.912181	0.000592	20.803884
1829.516565	-2.995900	3.366400	-10.084000	25.924770	0.000590	20.775753
1830.519938	-2.996300	3.366300	-10.085000	25.975987	0.000591	20.786904
1831.534906	-2.998100	3.366400	-10.092000	26.007330	0.000590	20.794213
1832.512627	-2.995600	3.367700	-10.086000	25.976500	0.000591	20.786471
1833.518144	-3.012200	3.365300	-10.136000	25.991504	0.000592	20.795382
1834.526886	-3.017900	3.364000	-10.151000	26.020512	0.000589	20.783749
1835.521570	-2.989400	3.366000	-10.062000	26.039634	0.000588	20.797745
1836.529726	-3.009500	3.364900	-10.126000	26.015638	0.000588	20.803983
1837.529026	-2.976700	3.364500	-10.013000	26.009170	0.000587	20.793691
1838.533546	-2.987400	3.364500	-10.050000	25.998568	0.000587	20.812910
1839.525691	-3.026800	3.363600	-10.180000	26.025045	0.000587	20.786881
1840.524704	-3.027700	3.363400	-10.182000	26.025737	0.000586	20.785205
1841.521436	-2.994000	3.364800	-10.074000	26.034947	0.000586	20.783080
1842.527059	-3.013500	3.363600	-10.135000	26.043654	0.000583	20.815061
1843.532948	-2.997800	3.363200	-10.082000	26.071432	0.000583	20.781330
1844.524009	-2.993300	3.363400	-10.067000	26.054801	0.000584	20.802553
1845.539478	-3.003400	3.361400	-10.094000	26.072115	0.000582	20.794819
1846.526196	-2.991300	3.363400	-10.060000	26.077421	0.000584	20.796357
1847.535555	-3.000000	3.361300	-10.083000	26.108468	0.000584	20.791991
1848.521722	-2.996100	3.362200	-10.072000	26.144177	0.000580	20.797052
1849.530133	-3.002100	3.360700	-10.088000	26.136473	0.000580	20.804957
1850.532347	-2.993300	3.359300	-10.053000	26.073963	0.000581	20.795727
1851.529741	-2.996200	3.359900	-10.066000	26.066453	0.000581	20.806200
1852.539612	-3.029200	3.359100	-10.175000	26.074581	0.000579	20.813418
1853.533343	-3.008800	3.358400	-10.104000	26.077649	0.000578	20.814130
1854.530963	-3.013800	3.360000	-10.126000	26.047146	0.000580	20.829000
1855.533823	-2.981300	3.359600	-10.015000	26.059277	0.000577	20.793774
1856.529962	-2.992000	3.359500	-10.051000	26.080407	0.000579	20.830177
1857.525964	-3.002400	3.358400	-10.083000	26.091505	0.000577	20.802448
1858.548725	-2.992900	3.357600	-10.047000	26.104149	0.000576	20.826057
1859.531452	-3.007900	3.357500	-10.098000	26.106208	0.000575	20.817694
1860.531832	-3.001400	3.359000	-10.081000	26.103572	0.000575	20.813149
1861.531154	-2.990900	3.358300	-10.043000	26.091628	0.000576	20.805416
1862.533164	-3.015900	3.357900	-10.125000	26.102725	0.000575	20.825101
1863.530241	-3.008600	3.355800	-10.095000	26.107908	0.000575	20.806601
1864.540045	-2.979600	3.356800	-10.001000	26.102994	0.000574	20.814466
1865.544809	-3.018600	3.354400	-10.125000	26.091392	0.000573	20.814188
1866.538861	-3.007000	3.355000	-10.088000	26.079423	0.000573	20.802162
1867.534246	-2.972900	3.355600	-9.974300	26.084834	0.000572	20.843159
1868.527462	-3.017100	3.354500	-10.119000	26.109593	0.000573	20.812561
1869.535505	-3.019000	3.354800	-10.126000	26.117436	0.000572	20.816175
1870.530882	-3.004900	3.353400	-10.076000	26.093499	0.000573	20.826262
1871.541516	-3.000100	3.353900	-10.062000	26.113986	0.000569	20.815079
1872.533269	-2.986400	3.354500	-10.017000	26.118038	0.000571	20.825314
1873.541517	-2.995500	3.353600	-10.045000	26.115744	0.000572	20.819216
1874.528190	-3.020100	3.352200	-10.122000	26.103621	0.000571	20.835010
1875.534962	-2.956000	3.353500	-9.911900	26.095233	0.000569	20.808564
1876.533556	-3.011200	3.350500	-10.088000	26.100668	0.000568	20.815447
1877.536384	-3.012600	3.352100	-10.097000	26.095575	0.000569	20.831666
1878.541937	-3.007600	3.351500	-10.079000	26.074144	0.000567	20.833841
1879.536765	-2.975600	3.352700	-9.975600	26.047831	0.000568	20.837748
1880.543201	-3.019800	3.351000	-10.119000	26.025048	0.000568	20.820075
1881.535087	-2.996600	3.351300	-10.042000	26.014292	0.000567	20.829182
1882.541485	-3.025400	3.349700	-10.132000	26.014145	0.000566	20.821448
1883.545281	-2.997200	3.350600	-10.041000	26.051371	0.000566	20.824710
1884.538517	-3.004300	3.349300	-10.060000	26.045016	0.000567	20.827334
1885.538076	-3.005100	3.349200	-10.064000	26.085072	0.000566	20.837708
1886.542633	-3.001900	3.349800	-10.055000	26.116111	0.000563	20.820059
1887.543256	-2.992700	3.349300	-10.022000	26.141349	0.000564	20.835934
1888.533633	-2.989900	3.348400	-10.011000	26.148720	0.000562	20.832910
1889.534424	-2.995700	3.346900	-10.025000	26.146735	0.000562	20.834708
1890.538393	-2.983800	3.348600	-9.990700	26.155668	0.000562	20.830409
1891.542429	-3.000300	3.347300	-10.042000	26.201756	0.000561	20.840685
1892.546927	-2.989500	3.346800	-10.005000	26.157824	0.000559	20.834472
1893.553792	-3.009300	3.347500	-10.072000	26.148314	0.000559	20.835821
1894.540401	-3.026400	3.346000	-10.126000	26.130155	0.000559	20.840807
1895.530011	-2.981800	3.346600	-9.978300	26.136574	0.000559	20.838249
1896.537610	-2.997400	3.347500	-10.032000	26.175300	0.000559	20.838756
1897.536669	-2.997800	3.345400	-10.027000	26.168092	0.000558	20.850953
1898.536473	-2.985800	3.345900	-9.988900	26.185234	0.000557	20.848737
1899.529383	-2.989100	3.346000	-10.001000	26.200829	0.000558	20.848287
1900.543686	-2.978600	3.345100	-9.963100	26.199137	0.000555	20.860811
1901.548638	-2.995600	3.344500	-10.018000	26.206956	0.000555	20.852073
1902.551164	-2.969900	3.345100	-9.932900	26.225187	0.000556	20.851427
1903.549482	-2.991200	3.344200	-10.000000	26.226000	0.000556	20.863624
1904.533977	-3.011400	3.343100	-10.067000	26.224137	0.000554	20.864596
1905.539517	-3.020300	3.342700	-10.094000	26.223267	0.000554	20.851868
1906.547988	-3.011900	3.343200	-10.068000	26.227221	0.000554	20.846833
1907.536546	-3.018600	3.342300	-10.088000	26.224431	0.000553	20.844029
1908.545393	-2.998400	3.341400	-10.017000	26.221429	0.000553	20.848124
1909.541418	-3.008000	3.342700	-10.054000	26.251000	0.000553	20.857452
1910.535008	-3.009700	3.341300	-10.054000	26.254457	0.000553	20.838642
1911.535951	-3.002200	3.342000	-10.032000	26.221941	0.000552	20.852433
1912.550892	-3.039100	3.339600	-10.148000	26.181988	0.000550	20.867286
1913.546351	-2.995100	3.341100	-10.007000	26.171177	0.000550	20.871120
1914.542543	-2.989700	3.339400	-9.981100	26.161047	0.000550	20.842452
1915.540205	-2.985200	3.341200	-9.972500	26.146021	0.000551	20.846792
1916.547366	-3.022100	3.339100	-10.090000	26.182501	0.000550	20.845991
1917.547029	-2.975400	3.340600	-9.939000	26.196332	0.000549	20.838078
1918.555720	-2.984500	3.339100	-9.964500	26.173609	0.000549	20.851281
1919.546189	-2.985800	3.339600	-9.970300	26.155133	0.000547	20.837457
1920.538794	-3.016400	3.337300	-10.064000	26.189604	0.000548	20.856447
1921.549805	-2.992400	3.337200	-9.985400	26.156492	0.000548	20.832659
1922.549517	-3.008000	3.337700	-10.039000	26.117724	0.000547	20.834007
1923.557526	-2.979200	3.337200	-9.941400	26.078581	0.000546	20.848730
1924.558025	-3.007000	3.336900	-10.033000	26.054897	0.000544	20.840581
1925.537461	-2.964200	3.337700	-9.892200	26.040251	0.000545	20.830607
1926.542018	-2.968800	3.337200	-9.906500	26.032196	0.000544	20.833420
1927.553971	-2.994800	3.335900	-9.989400	26.022017	0.000544	20.844529
1928.551360	-2.994000	3.335400	-9.984700	26.058973	0.000544	20.834719
1929.540154	-2.992400	3.336500	-9.982800	26.065426	0.000543	20.840254
1930.546562	-2.961600	3.335000	-9.875700	26.072113	0.000543	20.829904
1931.542186	-3.000400	3.334400	-10.003000	26.065816	0.000543	20.809353
1932.542191	-2.986500	3.336200	-9.962300	26.065670	0.000541	20.798300
1933.549727	-3.014200	3.332800	-10.045000	26.103422	0.000542	20.810154
1934.549544	-3.022800	3.332400	-10.072000	26.104757	0.000541	20.810073
1935.557931	-3.014700	3.333000	-10.047000	26.129572	0.000539	20.811299
1936.545019	-2.988000	3.334000	-9.960900	26.155444	0.000540	20.823071
1937.551884	-2.996400	3.333600	-9.987400	26.164108	0.000541	20.829881
1938.553596	-2.981000	3.332300	-9.932200	26.170812	0.000538	20.822393
1939.543337	-2.995800	3.331900	-9.980300	26.166989	0.000538	20.819499
1940.559957	-3.011800	3.330400	-10.030000	26.153833	0.000537	20.803909
1941.567796	-2.996800	3.332700	-9.985900	26.171822	0.000537	20.811553
1942.548418	-2.980200	3.331100	-9.926400	26.183431	0.000537	20.810416
1943.556466	-2.991500	3.331300	-9.964000	26.208130	0.000538	20.812951
1944.545093	-2.994500	3.332500	-9.977600	26.208920	0.000536	20.800468
1945.546900	-2.997700	3.328600	-9.977300	26.203632	0.000536	20.818388
1946.557972	-2.974100	3.331200	-9.906000	26.171171	0.000537	20.806632
1947.550493	-3.003700	3.328400	-9.996200	26.181243	0.000534	20.814857
1948.560234	-3.006700	3.328600	-10.007000	26.192666	0.000536	20.802153
1949.550484	-2.990200	3.328200	-9.950600	26.221913	0.000536	20.817318
1950.555078	-2.992100	3.329500	-9.959900	26.244155	0.000535	20.802211
1951.557605	-2.990200	3.327500	-9.949100	26.276043	0.000534	20.802963
1952.560810	-2.998600	3.328000	-9.978600	26.298658	0.000535	20.792025
1953.547166	-2.984700	3.328400	-9.933600	26.285806	0.000535	20.815145
1954.552646	-2.995500	3.327200	-9.966300	26.274426	0.000532	20.815562
1955.557552	-2.981900	3.327400	-9.920900	26.241488	0.000534	20.791471
1956.550806	-3.002000	3.326700	-9.985900	26.207158	0.000533	20.823828
1957.551947	-3.002200	3.326400	-9.985100	26.198356	0.000533	20.804552
1958.564590	-2.989100	3.326100	-9.940800	26.245183	0.000532	20.799451
1959.563281	-2.991000	3.325800	-9.946700	26.231094	0.000532	20.807104
1960.560922	-2.985100	3.325400	-9.925300	26.254369	0.000533	20.780707
1961.554372	-3.003600	3.324100	-9.983000	26.258234	0.000533	20.801661
1962.568168	-3.004700	3.323600	-9.985300	26.231600	0.000529	20.783431
1963.566511	-3.008200	3.323600	-9.996100	26.206455	0.000529	20.787560
1964.553077	-2.986000	3.323000	-9.921900	26.202022	0.000531	20.785476
1965.551749	-2.993500	3.323000	-9.946400	26.152030	0.000530	20.802572
1966.557098	-3.015700	3.322900	-10.019000	26.126932	0.000528	20.800112
1967.558794	-2.990500	3.324200	-9.940200	26.112670	0.000527	20.804748
1968.559716	-2.984400	3.322600	-9.914800	26.067491	0.000528	20.805820
1969.569016	-2.974400	3.323900	-9.885300	26.081494	0.000527	20.800450
1970.566548	-3.009200	3.321800	-9.995200	26.109184	0.000527	20.806934
1971.562856	-3.035800	3.319300	-10.075000	26.140956	0.000527	20.817996
1972.563984	-2.979700	3.322400	-9.898900	26.144821	0.000526	20.808604
1973.565834	-2.992400	3.321700	-9.938300	26.131471	0.000525	20.789026
1974.553300	-3.019500	3.319100	-10.022000	26.143612	0.000526	20.788423
1975.547553	-3.001700	3.322300	-9.970700	26.164115	0.000524	20.788637
1976.576233	-2.980900	3.320800	-9.898100	26.184456	0.000525	20.784420
1977.564364	-3.002600	3.320400	-9.968700	26.223434	0.000523	20.797984
1978.568384	-3.028400	3.318100	-10.048000	26.203293	0.000525	20.792917
1979.575274	-3.028700	3.318700	-10.051000	26.195704	0.000523	20.790033
1980.564073	-3.021700	3.317800	-10.024000	26.217012	0.000523	20.780151
1981.577004	-2.997800	3.320000	-9.951900	26.211880	0.000523	20.795383
1982.570436	-3.018600	3.316900	-10.011000	26.240713	0.000522	20.799227
1983.565777	-3.025700	3.317600	-10.037000	26.271482	0.000521	20.798379
1984.567318	-2.996000	3.317600	-9.938900	26.310725	0.000520	20.784238
1985.575331	-2.996900	3.317300	-9.940400	26.310151	0.000520	20.781289
1986.560634	-3.001800	3.317100	-9.955500	26.297292	0.000521	20.791126
1987.564419	-2.999400	3.316100	-9.944300	26.318012	0.000519	20.800569
1988.563539	-3.016700	3.315500	-10.001000	26.365536	0.000519	20.770095
1989.567358	-3.013500	3.315700	-9.990800	26.372818	0.000517	20.779785
1990.563363	-2.999300	3.317000	-9.947500	26.368647	0.000520	20.789344
1991.566700	-2.992100	3.316100	-9.921200	26.386179	0.000517	20.782308
1992.561357	-2.981500	3.316600	-9.887800	26.368327	0.000516	20.779065
1993.575152	-3.023300	3.314200	-10.019000	26.406819	0.000517	20.786932
1994.565801	-3.006000	3.313300	-9.958900	26.428896	0.000517	20.789681
1995.570432	-3.004500	3.315700	-9.961500	26.390606	0.000515	20.788180
1996.570493	-2.999300	3.313900	-9.937500	26.375886	0.000516	20.801835
1997.566463	-2.994500	3.312600	-9.918300	26.344132	0.000515	20.796948
1998.566881	-2.994800	3.312900	-9.920600	26.336188	0.000515	20.815991
1999.561120	-2.990400	3.314200	-9.910200	26.307037	0.000514	20.797600
2000.563590	-3.006100	3.310800	-9.951200	26.298376	0.000515	20.783680
2001.577096	-2.989200	3.312700	-9.900100	26.271761	0.000515	20.794866
2002.573062	-3.013400	3.311700	-9.977700	26.259465	0.000514	20.794363
2003.576478	-2.991700	3.311900	-9.907800	26.215489	0.000513	20.800906
2004.575298	-3.015100	3.310700	-9.980200	26.250954	0.000514	20.809992
2005.576841	-2.993100	3.311000	-9.909000	26.276281	0.000511	20.785658
2006.573030	-2.994500	3.310700	-9.913100	26.282712	0.000512	20.793069
2007.575417	-2.988000	3.310100	-9.889500	26.292850	0.000510	20.786188
2008.567681	-2.981800	3.310900	-9.871800	26.301314	0.000512	20.799436
2009.568632	-2.991000	3.309600	-9.896500	26.324649	0.000509	20.816248
2010.583687	-3.002700	3.308200	-9.931700	26.316289	0.000511	20.783665
2011.570642	-3.000700	3.308400	-9.926700	26.293492	0.000508	20.795842
2012.572946	-2.997300	3.307700	-9.913300	26.274769	0.000509	20.796941
2013.586464	-3.018700	3.307200	-9.982300	26.296151	0.000509	20.787135
2014.582653	-2.989700	3.308800	-9.891300	26.292821	0.000507	20.796590
2015.574206	-3.006500	3.306100	-9.938500	26.304196	0.000508	20.786211
2016.576434	-3.010400	3.308000	-9.956500	26.333004	0.000508	20.799515
2017.566571	-3.006200	3.306200	-9.937100	26.391453	0.000509	20.780022
2018.566881	-2.983600	3.307300	-9.866600	26.329849	0.000507	20.784490
2019.578615	-3.003300	3.307100	-9.931300	26.313186	0.000506	20.797142
2020.578926	-2.977900	3.306900	-9.847100	26.284046	0.000506	20.800574
2021.578001	-3.013700	3.304900	-9.958100	26.245140	0.000505	20.799882
2022.579581	-2.984900	3.304200	-9.861700	26.272657	0.000504	20.794818
2023.579591	-2.997500	3.303800	-9.902600	26.294731	0.000502	20.809889
2024.571990	-2.993700	3.303900	-9.890300	26.304360	0.000506	20.804393
2025.587803	-3.019500	3.303500	-9.972900	26.293659	0.000503	20.829200
2026.576278	-3.002400	3.303400	-9.917000	26.274662	0.000502	20.809635
2027.573076	-3.003800	3.303800	-9.922700	26.309231	0.000503	20.820193
2028.584567	-3.002400	3.302100	-9.913500	26.326360	0.000501	20.800898
2029.582419	-2.986900	3.303900	-9.867100	26.321363	0.000502	20.806308
2030.574372	-3.007400	3.302300	-9.930500	26.363332	0.000498	20.815771
2031.569905	-2.978400	3.301900	-9.833800	26.381858	0.000500	20.815424
2032.582873	-3.016300	3.301000	-9.955200	26.418580	0.000500	20.816770
2033.569194	-3.012300	3.301100	-9.943400	26.438937	0.000498	20.794083
2034.572069	-2.992800	3.301400	-9.879400	26.473354	0.000498	20.807813
2035.585721	-3.011500	3.300400	-9.936700	26.480306	0.000499	20.803421
2036.575001	-3.014100	3.298900	-9.942400	26.496936	0.000498	20.796903
2037.576266	-2.988700	3.301200	-9.865300	26.512207	0.000498	20.809882
2038.579521	-3.012600	3.299500	-9.939000	26.526008	0.000498	20.816642
2039.591410	-3.023500	3.298700	-9.972600	26.517417	0.000497	20.808955
2040.580996	-3.037800	3.298100	-10.018000	26.523082	0.000497	20.827926
2041.576786	-2.994500	3.298500	-9.876600	26.480920	0.000493	20.817314
2042.576578	-3.020300	3.297700	-9.958500	26.470645	0.000494	20.822159
2043.589970	-2.987300	3.297900	-9.850200	26.501997	0.000492	20.817637
2044.589491	-2.995500	3.299000	-9.880600	26.508306	0.000493	20.803590
2045.589338	-2.987600	3.297300	-9.849900	26.502124	0.000492	20.804488
2046.583141	-2.999500	3.296900	-9.887700	26.513492	0.000492	20.809752
2047.573951	-3.008200	3.295700	-9.913000	26.533426	0.000490	20.804658
2048.582358	-2.998100	3.295700	-9.878000	26.524658	0.000489	20.799164
2049.585229	-3.009000	3.294700	-9.912400	26.542833	0.000489	20.812692
2050.587531	-2.991200	3.296100	-9.858300	26.550906	0.000488	20.798996
2051.583560	-2.974500	3.294300	-9.797400	26.572610	0.000487	20.819390
2052.591314	-2.999200	3.295000	-9.880600	26.564020	0.000487	20.809333
2053.584280	-2.998000	3.294000	-9.873400	26.616572	0.000486	20.808581
2054.584330	-3.012200	3.292700	-9.915600	26.580779	0.000488	20.816696
2055.579772	-2.996900	3.292600	-9.867000	26.541824	0.000486	20.822582
2056.581706	-3.013000	3.293400	-9.922000	26.481199	0.000485	20.800999
2057.590861	-2.992800	3.292400	-9.852500	26.435194	0.000484	20.815451
2058.566957	-3.020600	3.292400	-9.943400	26.410589	0.000482	20.811109
2059.571146	-3.011400	3.292100	-9.912400	26.404364	0.000482	20.820025
2060.560226	-2.997500	3.292000	-9.866700	26.376658	0.000482	20.821577
2061.568609	-3.041100	3.288700	-9.999800	26.362976	0.000481	20.807352
2062.567481	-3.015000	3.291200	-9.921400	26.360868	0.000480	20.821355
2063.572812	-3.030000	3.290200	-9.968800	26.323603	0.000480	20.814723
2064.571547	-2.977600	3.290200	-9.795700	26.361426	0.000480	20.828553
2065.572957	-2.978100	3.290800	-9.798800	26.337120	0.000479	20.825936
2066.575120	-2.986000	3.291100	-9.826500	26.352915	0.000478	20.824267
2067.572122	-3.004200	3.288900	-9.879300	26.361310	0.000478	20.815634
2068.573995	-3.026400	3.286800	-9.944900	26.371321	0.000477	20.810998
2069.575211	-2.992100	3.288600	-9.837900	26.364349	0.000478	20.811577
2070.571910	-2.988300	3.287700	-9.823200	26.406386	0.000476	20.830118
2071.573706	-2.984300	3.288200	-9.811400	26.436009	0.000477	20.823382
2072.575601	-3.006300	3.288100	-9.883700	26.486724	0.000474	20.825045
2073.580444	-2.999800	3.286800	-9.858400	26.521577	0.000476	20.807447
2074.579809	-2.997000	3.286700	-9.849100	26.572895	0.000475	20.813512
2075.587897	-2.989500	3.285500	-9.821200	26.565281	0.000474	20.823402
2076.576484	-2.993300	3.287000	-9.838100	26.602300	0.000476	20.819363
2077.583169	-2.985700	3.286000	-9.810100	26.631844	0.000472	20.815399
2078.571756	-2.984600	3.286300	-9.807700	26.655256	0.000472	20.828977
2079.571024	-2.995500	3.284700	-9.838600	26.684456	0.000472	20.817555
2080.576295	-2.998900	3.284100	-9.847200	26.706954	0.000468	20.791810
2081.574527	-3.019700	3.283400	-9.913600	26.669794	0.000471	20.815143
2082.575090	-2.988400	3.284300	-9.813500	26.658757	0.000468	20.809263
2083.575997	-2.970100	3.284200	-9.753500	26.640884	0.000471	20.811685
2084.570959	-2.985400	3.283400	-9.801800	26.646006	0.000467	20.808299
2085.569343	-3.001900	3.283300	-9.855300	26.656414	0.000468	20.833934
2086.578388	-2.988600	3.283400	-9.811500	26.610223	0.000468	20.808362
2087.579454	-2.995700	3.282600	-9.832400	26.605507	0.000469	20.798881
2088.584705	-2.991000	3.282700	-9.817400	26.569121	0.000468	20.813039
2089.575654	-2.988300	3.281600	-9.805800	26.582232	0.000467	20.816261
2090.580560	-3.017500	3.281300	-9.898900	26.568855	0.000466	20.809452
2091.581442	-3.001700	3.281300	-9.847500	26.546325	0.000464	20.795339
2092.576440	-3.002500	3.281200	-9.850400	26.527660	0.000467	20.809768
2093.582167	-2.984800	3.282000	-9.795600	26.568155	0.000464	20.806377
2094.569806	-2.987900	3.280700	-9.800700	26.585467	0.000463	20.808133
2095.589581	-3.017900	3.279500	-9.896100	26.557640	0.000464	20.804816
2096.580050	-2.995100	3.279300	-9.820300	26.537811	0.000462	20.809540
2097.582973	-2.993900	3.279000	-9.815200	26.547027	0.000462	20.849148
2098.582529	-2.997200	3.277700	-9.822100	26.535383	0.000463	20.821324
2099.587729	-3.009200	3.278800	-9.863100	26.501875	0.000462	20.823204
2100.579055	-2.985000	3.278600	-9.784900	26.518112	0.000459	20.800170
2101.589827	-2.998200	3.277200	-9.823900	26.504544	0.000459	20.822568
2102.583952	-3.009100	3.275700	-9.855800	26.549683	0.000460	20.802982
2103.576518	-2.992300	3.277100	-9.804900	26.583598	0.000458	20.819056
2104.580594	-2.999500	3.276200	-9.825500	26.552592	0.000458	20.816811
2105.591419	-3.008000	3.276600	-9.855200	26.545255	0.000458	20.801850
2106.600410	-3.008500	3.276200	-9.854900	26.554770	0.000456	20.831329
2107.588909	-3.005400	3.274700	-9.840600	26.535035	0.000456	20.829035
2108.582500	-3.020500	3.275300	-9.892700	26.547485	0.000456	20.812626
2109.582780	-3.003100	3.275100	-9.834100	26.565688	0.000456	20.797733
2110.593053	-2.991700	3.273900	-9.793400	26.553058	0.000454	20.820599
2111.584876	-2.993300	3.274100	-9.799800	26.603414	0.000454	20.828071
2112.580554	-3.019600	3.272500	-9.880500	26.631472	0.000453	20.824508
2113.589676	-3.006100	3.272100	-9.835400	26.593992	0.000453	20.824289
2114.587711	-3.003800	3.272300	-9.828500	26.615025	0.000452	20.801336
2115.575870	-3.003800	3.273000	-9.830700	26.617411	0.000451	20.840718
2116.582051	-2.997200	3.271900	-9.805500	26.654833	0.000450	20.797732
2117.587533	-2.996800	3.270900	-9.801400	26.618819	0.000449	20.824115
2118.596652	-2.980100	3.272100	-9.750300	26.603508	0.000448	20.811569
2119.586681	-2.978000	3.271800	-9.742200	26.587106	0.000449	20.809780
2120.584117	-2.994200	3.270900	-9.792800	26.557865	0.000450	20.822111
2121.592144	-2.970300	3.271100	-9.714300	26.554130	0.000448	20.824521
2122.601614	-3.015600	3.269900	-9.859200	26.563488	0.000446	20.824445
2123.592321	-3.005900	3.270100	-9.828300	26.586959	0.000446	20.822908
2124.577425	-2.988800	3.269400	-9.771100	26.624476	0.000445	20.818897
2125.581480	-3.007700	3.269100	-9.831100	26.632852	0.000446	20.814041
2126.583665	-2.950800	3.271200	-9.651700	26.658104	0.000443	20.826625
2127.580173	-3.014100	3.267900	-9.849000	26.645256	0.000445	20.824140
2128.588542	-2.997900	3.267500	-9.794800	26.662760	0.000443	20.815185
2129.582016	-3.005900	3.267000	-9.820200	26.650286	0.000444	20.833463
2130.585636	-3.020400	3.266400	-9.864400	26.661713	0.000442	20.820296
2131.580808	-2.988200	3.268200	-9.765500	26.672246	0.000441	20.819979
2132.584100	-2.976600	3.267900	-9.726800	26.687598	0.000440	20.817870
2133.591310	-3.009700	3.264900	-9.825200	26.662709	0.000438	20.826986
2134.587542	-2.993100	3.265200	-9.772500	26.610885	0.000440	20.824675
2135.586020	-2.995500	3.265100	-9.779700	26.588156	0.000439	20.825534
2136.581932	-3.030000	3.264000	-9.888800	26.551191	0.000439	20.839585
2137.597258	-3.015400	3.264000	-9.839900	26.605671	0.000439	20.820856
2138.597601	-2.991100	3.263700	-9.761000	26.648130	0.000438	20.835564
2139.582037	-3.022600	3.263700	-9.862400	26.635656	0.000437	20.833929
2140.597598	-3.007500	3.262900	-9.811300	26.642018	0.000434	20.824204
2141.589253	-2.998000	3.261500	-9.776600	26.635626	0.000435	20.826313
2142.586504	-2.969100	3.264400	-9.692200	26.654050	0.000435	20.846256
2143.595375	-2.986900	3.261900	-9.741500	26.674120	0.000433	20.829923
2144.586447	-2.992500	3.260900	-9.756800	26.683460	0.000433	20.819399
2145.581913	-3.011800	3.261500	-9.822000	26.671084	0.000431	20.838251
2146.595465	-3.001900	3.260000	-9.784500	26.651535	0.000432	20.848944
2147.593226	-3.009100	3.259000	-9.805300	26.611449	0.000431	20.820501
2148.584901	-2.997800	3.260000	-9.771000	26.610840	0.000430	20.820362
2149.589395	-3.007100	3.259800	-9.802100	26.586696	0.000431	20.830705
2150.590056	-2.996500	3.259300	-9.765300	26.586657	0.000428	20.837778
2151.587284	-2.994700	3.260300	-9.762500	26.598386	0.000429	20.833921
2152.583888	-2.994500	3.258900	-9.758100	26.659634	0.000427	20.857559
2153.590148	-3.018300	3.257600	-9.830200	26.678294	0.000425	20.836964
2154.593216	-2.983500	3.257700	-9.717700	26.724126	0.000426	20.818083
2155.596677	-2.980800	3.258600	-9.713400	26.736075	0.000426	20.829621
2156.585846	-2.961000	3.258700	-9.648000	26.731393	0.000425	20.846251
2157.610744	-2.997300	3.256800	-9.760000	26.764662	0.000425	20.847457
2158.602008	-2.987200	3.255900	-9.724900	26.755393	0.000424	20.849043
2159.589669	-3.006100	3.256400	-9.788400	26.778979	0.000422	20.847152
2160.609343	-3.000200	3.255400	-9.765800	26.794012	0.000422	20.833818
2161.602317	-3.010500	3.254200	-9.796000	26.829740	0.000422	20.842713
2162.595610	-2.987500	3.254200	-9.721100	26.850298	0.000420	20.823556
2163.592187	-2.991700	3.255700	-9.739300	26.871205	0.000421	20.835569
2164.591078	-3.019400	3.255700	-9.829500	26.840766	0.000420	20.831989
2165.593457	-3.019700	3.253200	-9.821700	26.796394	0.000418	20.849015
2166.596934	-2.993800	3.254800	-9.743000	26.749229	0.000419	20.823881
2167.594374	-2.979500	3.253800	-9.694500	26.690607	0.000419	20.849816
2168.604158	-3.007800	3.252700	-9.782600	26.694961	0.000416	20.850400
2169.605793	-2.991400	3.253600	-9.730900	26.703633	0.000419	20.861015
2170.595827	-3.014600	3.252500	-9.803900	26.740156	0.000416	20.846052
2171.593711	-2.992600	3.252000	-9.731200	26.767722	0.000413	20.852429
2172.597000	-2.999600	3.250500	-9.749200	26.806158	0.000414	20.855986
2173.601077	-2.996500	3.251500	-9.742200	26.787576	0.000414	20.855321
2174.601212	-2.993700	3.249200	-9.725900	26.780242	0.000413	20.839888
2175.593487	-2.972400	3.251800	-9.665600	26.742451	0.000413	20.841722
2176.594435	-2.973900	3.250400	-9.665300	26.704237	0.000412	20.868734
2177.597732	-3.001100	3.249300	-9.749700	26.650579	0.000412	20.856517
2178.618646	-3.001300	3.246800	-9.743500	26.619830	0.000412	20.839830
2179.596700	-3.012300	3.246900	-9.779300	26.585438	0.000408	20.855517
2180.603267	-3.006900	3.247700	-9.763900	26.607269	0.000409	20.849489
2181.605590	-2.974800	3.247900	-9.660800	26.666607	0.000410	20.860302
2182.600413	-2.994900	3.246800	-9.722900	26.684300	0.000409	20.870501
2183.614582	-2.991200	3.248100	-9.714400	26.735936	0.000408	20.842284
2184.600990	-2.982700	3.247200	-9.684300	26.781968	0.000409	20.862485
2185.598503	-3.011200	3.245600	-9.772300	26.851204	0.000407	20.874251
2186.600784	-2.986700	3.245900	-9.693100	26.861668	0.000405	20.865333
2187.604095	-3.020300	3.243800	-9.796800	26.892179	0.000405	20.859503
2188.602996	-3.003600	3.244700	-9.745100	26.909663	0.000404	20.852901
2189.603985	-2.991700	3.244600	-9.705400	26.887143	0.000405	20.861551
2190.602238	-3.009700	3.243600	-9.761500	26.870897	0.000403	20.872715
2191.602562	-3.001100	3.243300	-9.732300	26.886195	0.000401	20.878614
2192.597459	-2.971400	3.243700	-9.637000	26.901174	0.000402	20.874710
2193.600447	-3.008100	3.242900	-9.754100	26.896294	0.000400	20.872174
2194.601089	-2.999600	3.241000	-9.720800	26.892013	0.000400	20.879722
2195.599783	-3.026100	3.242300	-9.810600	26.882147	0.000400	20.861743
2196.603611	-3.006600	3.240800	-9.741800	26.887793	0.000401	20.878799
2197.604128	-3.014400	3.240400	-9.766700	26.880035	0.000400	20.866257
2198.602945	-3.020900	3.239300	-9.784800	26.803977	0.000398	20.872285
2199.610343	-3.002700	3.239600	-9.726300	26.788849	0.000399	20.877937
2200.608720	-2.989400	3.240300	-9.685500	26.796309	0.000398	20.865523
2201.609920	-2.989400	3.238900	-9.680900	26.798129	0.000396	20.884422
2202.604607	-2.994700	3.239100	-9.698400	26.794197	0.000398	20.875727
2203.604571	-2.972700	3.237700	-9.623900	26.738408	0.000396	20.885544
2204.607782	-2.993000	3.237000	-9.687400	26.757359	0.000395	20.878519
2205.610692	-3.002100	3.235200	-9.711300	26.768916	0.000396	20.866905
2206.605376	-2.988700	3.236800	-9.673600	26.753513	0.000395	20.868489
2207.607472	-3.009500	3.236300	-9.738600	26.749084	0.000392	20.882527
2208.602513	-3.013500	3.235000	-9.748700	26.783893	0.000393	20.880541
2209.601711	-3.006900	3.236300	-9.730400	26.785071	0.000393	20.870820
2210.600043	-3.001400	3.235600	-9.710700	26.778108	0.000392	20.882310
2211.605444	-3.018200	3.233100	-9.757500	26.800811	0.000391	20.871946
2212.628057	-3.019500	3.235100	-9.767900	26.844184	0.000391	20.880468
2213.598068	-3.030100	3.233000	-9.794900	26.870904	0.000390	20.895006
2214.599221	-3.004500	3.232900	-9.712700	26.900399	0.000390	20.893370
2215.607302	-2.979000	3.233800	-9.632300	26.906395	0.000388	20.890390
2216.610946	-3.005200	3.232500	-9.712900	26.905887	0.000387	20.889405
2217.605529	-2.979100	3.232000	-9.628000	26.961594	0.000388	20.885205
2218.609516	-3.018300	3.231400	-9.751800	26.944259	0.000386	20.902385
2219.602369	-2.983200	3.231900	-9.640900	26.899972	0.000388	20.901001
2220.606734	-3.006400	3.231800	-9.713300	26.865415	0.000387	20.881901
2221.604568	-2.995100	3.230900	-9.675500	26.845323	0.000386	20.910534
2222.623886	-3.005900	3.229800	-9.707700	26.848416	0.000384	20.903687
2223.628561	-3.021000	3.228900	-9.753700	26.835841	0.000386	20.917120
2224.619661	-2.973800	3.229200	-9.601500	26.832159	0.000383	20.899196
2225.610105	-2.992700	3.230000	-9.665800	26.875609	0.000383	20.903530
2226.611672	-2.987300	3.228300	-9.642700	26.915106	0.000381	20.917165
2227.611590	-2.996800	3.228200	-9.673600	26.924526	0.000382	20.912887
2228.612716	-2.971200	3.229200	-9.594000	26.946328	0.000381	20.927697
2229.614219	-2.995800	3.227900	-9.669000	26.938048	0.000379	20.902303
2230.607138	-2.993700	3.225700	-9.655500	26.904512	0.000379	20.912202
2231.615240	-2.994300	3.226300	-9.659700	26.896362	0.000380	20.888836
2232.630696	-3.010200	3.225200	-9.707300	26.856585	0.000379	20.923753
2233.611439	-3.007100	3.226200	-9.699600	26.906066	0.000377	20.915662
2234.612375	-2.974400	3.225600	-9.593600	26.892828	0.000378	20.916100
2235.613008	-2.984600	3.226600	-9.629500	26.956421	0.000376	20.914614
2236.616225	-3.012100	3.223800	-9.708100	26.982147	0.000376	20.924361
2237.611246	-2.992900	3.223900	-9.647700	26.949799	0.000375	20.907481
2238.612608	-3.023600	3.222100	-9.741600	26.973360	0.000374	20.933542
2239.633068	-2.980400	3.222800	-9.603900	27.002284	0.000375	20.936076
2240.612797	-3.013000	3.220400	-9.701500	27.011605	0.000371	20.913209
2241.614389	-2.976300	3.223000	-9.591400	27.037949	0.000372	20.928795
2242.620429	-2.985400	3.221600	-9.616700	27.067019	0.000372	20.930054
2243.627963	-2.979000	3.221700	-9.595700	27.053434	0.000370	20.935358
2244.618324	-2.996600	3.219400	-9.646200	27.039399	0.000371	20.928357
2245.619514	-3.012300	3.220000	-9.698300	27.047108	0.000372	20.917145
2246.618989	-3.024300	3.218700	-9.733000	27.051912	0.000369	20.931931
2247.624674	-3.002600	3.220000	-9.666900	27.092149	0.000369	20.939679
2248.618809	-3.003500	3.217400	-9.662600	27.104618	0.000368	20.919032
2249.623002	-3.009200	3.218700	-9.684400	27.099918	0.000367	20.918572
2250.622056	-2.996600	3.216800	-9.637800	27.134721	0.000366	20.939348
2251.617351	-3.000700	3.218100	-9.656000	27.137786	0.000367	20.924889
2252.617566	-2.986100	3.217000	-9.605600	27.142167	0.000368	20.938776
2253.618876	-2.977100	3.217800	-9.578000	27.096624	0.000365	20.932327
2254.619723	-3.009400	3.215800	-9.676100	27.103116	0.000364	20.927003
2255.620313	-3.008100	3.214600	-9.669300	27.116754	0.000365	20.949251
2256.623718	-3.006300	3.212900	-9.657500	27.106696	0.000363	20.936766
2257.621334	-2.998800	3.214000	-9.637100	27.080207	0.000365	20.928619
2258.622427	-3.004100	3.213800	-9.653900	27.054759	0.000362	20.937165
2259.635286	-3.007200	3.212300	-9.659100	27.091552	0.000363	20.920590
2260.620915	-3.000500	3.212600	-9.638000	27.113054	0.000359	20.970657
2261.623030	-2.973800	3.213900	-9.556300	27.110514	0.000361	20.939184
2262.620577	-2.995000	3.214600	-9.626700	27.104327	0.000362	20.947659
2263.626740	-3.029200	3.211100	-9.725500	27.133991	0.000360	20.958525
2264.621232	-2.990300	3.211900	-9.604400	27.167900	0.000359	20.961336
2265.620204	-2.992000	3.211700	-9.608200	27.196823	0.000357	20.943961
2266.621926	-2.980300	3.210600	-9.567300	27.184406	0.000358	20.929103
2267.622100	-3.010000	3.210600	-9.662800	27.177796	0.000357	20.943317
2268.624562	-3.003300	3.209700	-9.638500	27.205203	0.000358	20.940063
2269.627203	-2.979800	3.209000	-9.560400	27.235315	0.000357	20.970820
2270.619367	-3.006300	3.208000	-9.642500	27.245054	0.000357	20.948377
2271.621430	-2.982700	3.209300	-9.571600	27.202320	0.000355	20.946645
2272.621701	-3.021200	3.207700	-9.689200	27.202881	0.000355	20.954321
2273.626555	-3.014200	3.207300	-9.666100	27.221780	0.000353	20.954364
2274.624546	-2.999400	3.208200	-9.621900	27.215221	0.000354	20.951560
2275.628010	-2.988000	3.204700	-9.574700	27.200669	0.000355	20.961578
2276.625821	-2.979200	3.206000	-9.550300	27.187960	0.000353	20.945004
2277.630153	-3.004600	3.204300	-9.626300	27.188444	0.000351	20.945965
2278.629789	-3.003200	3.204100	-9.621300	27.236620	0.000349	20.965970
2279.627823	-3.019900	3.203900	-9.674400	27.221450	0.000351	20.960669
2280.623740	-3.028100	3.203700	-9.699200	27.194050	0.000350	20.965826
2281.624153	-3.007200	3.203900	-9.634100	27.138389	0.000349	20.960103
2282.627249	-3.000700	3.202300	-9.608100	27.148182	0.000350	20.971374
2283.630830	-3.003600	3.203400	-9.620800	27.157950	0.000348	20.976456
2284.632633	-2.984500	3.203500	-9.559600	27.193668	0.000348	20.973501
2285.628964	-3.014600	3.202400	-9.652100	27.263029	0.000346	20.953655
2286.627504	-2.999700	3.201800	-9.602900	27.292594	0.000346	20.972486
2287.631185	-3.036300	3.199900	-9.715100	27.252269	0.000346	20.974597
2288.637038	-2.999900	3.200600	-9.600400	27.223040	0.000345	20.968905
2289.637421	-2.985900	3.201700	-9.559100	27.198192	0.000343	20.994169
2290.633397	-2.995400	3.199400	-9.583100	27.234208	0.000344	20.980611
2291.646450	-2.998200	3.198700	-9.589800	27.246631	0.000344	20.977461
2292.631271	-2.996900	3.198600	-9.585100	27.269003	0.000343	20.976256
2293.633646	-3.005900	3.197900	-9.609800	27.294573	0.000344	20.959305
2294.630966	-3.004700	3.199000	-9.610100	27.307812	0.000341	20.974517
2295.630087	-2.996700	3.199200	-9.586500	27.338566	0.000341	20.979848
2296.630345	-3.015800	3.196600	-9.639200	27.365572	0.000341	20.996581
2297.632437	-3.015100	3.193300	-9.627200	27.342668	0.000340	20.985397
2298.651392	-3.002900	3.194600	-9.592400	27.319019	0.000339	20.980574
2299.630133	-3.015100	3.196600	-9.637000	27.284500	0.000340	20.999427
2300.635780	-2.987800	3.194800	-9.544700	27.287172	0.000339	20.975566
2301.632987	-2.997300	3.193600	-9.571100	27.198493	0.000338	20.994946
2302.640570	-2.986900	3.193600	-9.537800	27.149507	0.000338	20.983136
2303.636488	-3.013800	3.191900	-9.618500	27.149699	0.000338	20.998500
2304.649146	-2.997400	3.192700	-9.569200	27.160285	0.000338	20.989708
2305.649900	-3.000400	3.191900	-9.575900	27.172285	0.000336	20.993242
2306.633467	-2.986500	3.193200	-9.536100	27.200639	0.000336	20.980037
2307.635907	-2.996800	3.190700	-9.561400	27.255040	0.000335	20.997295
2308.633378	-2.990900	3.189500	-9.538100	27.285053	0.000335	20.990975
2309.636162	-2.992200	3.189500	-9.543100	27.331387	0.000334	20.996332
2310.634682	-2.999600	3.189400	-9.565900	27.365465	0.000332	21.003110
2311.637390	-2.977700	3.189500	-9.496400	27.371486	0.000332	21.008218
2312.637540	-2.995000	3.188600	-9.549200	27.391746	0.000334	20.982611
2313.635077	-3.000500	3.187800	-9.563500	27.407169	0.000331	20.990539
2314.641533	-2.996000	3.186600	-9.546400	27.441518	0.000333	20.987637
2315.641741	-2.988600	3.187400	-9.525200	27.450690	0.000329	21.010611
2316.639894	-3.037100	3.187100	-9.677900	27.426945	0.000330	21.021334
2317.639850	-3.019400	3.186100	-9.619300	27.388312	0.000329	20.998594
2318.637991	-3.027700	3.186600	-9.647500	27.370493	0.000329	21.020019
2319.647088	-2.998100	3.185000	-9.547600	27.369570	0.000326	21.027150
2320.645451	-2.980800	3.185300	-9.493800	27.380628	0.000328	21.000821
2321.641130	-3.010600	3.184400	-9.585400	27.379827	0.000327	21.016133
2322.639066	-3.006000	3.182300	-9.565200	27.355310	0.000326	20.993845
2323.642498	-3.003200	3.182500	-9.556900	27.351160	0.000326	21.016693
2324.641304	-2.993400	3.181200	-9.521200	27.340860	0.000326	21.001119
2325.645661	-3.014700	3.180300	-9.586000	27.356060	0.000326	20.998866
2326.656800	-3.016000	3.182100	-9.596500	27.331419	0.000324	21.007268
2327.646962	-2.988600	3.181000	-9.506100	27.337291	0.000326	21.006537
2328.644895	-2.992600	3.179000	-9.512900	27.325252	0.000323	21.003435
2329.645534	-2.994200	3.179100	-9.517300	27.303912	0.000323	21.000936
2330.654978	-2.990800	3.181000	-9.511400	27.296885	0.000323	21.025156
2331.654602	-2.980900	3.178300	-9.472600	27.287202	0.000322	21.018736
2332.645474	-2.982900	3.183200	-9.493700	27.267770	0.000320	21.025741
2333.646179	-2.999400	3.179100	-9.533800	27.222236	0.000318	21.022141
2334.646605	-3.012600	3.177900	-9.572400	27.208137	0.000321	21.024555
2335.654039	-2.983300	3.176600	-9.476300	27.178458	0.000320	21.026946
2336.658382	-3.006200	3.176700	-9.549000	27.185649	0.000317	21.036547
2337.647061	-3.000300	3.176300	-9.528900	27.192637	0.000316	21.023190
2338.654546	-3.014700	3.175200	-9.571600	27.227194	0.000317	21.033764
2339.655257	-3.023200	3.172900	-9.590700	27.310223	0.000318	21.027668
2340.652445	-3.021600	3.172000	-9.582400	27.328205	0.000316	21.024894
2341.656024	-3.004400	3.172700	-9.530100	27.352635	0.000316	21.025287
2342.651262	-2.997400	3.172300	-9.506300	27.360417	0.000316	21.045914
2343.651954	-3.010800	3.172200	-9.550200	27.300078	0.000315	21.050174
2344.652609	-2.998300	3.171700	-9.509100	27.308435	0.000315	21.045780
2345.649555	-2.994700	3.170200	-9.492400	27.355118	0.000315	21.053857
2346.658300	-3.003700	3.170800	-9.523000	27.387039	0.000314	21.039506
2347.654830	-3.001000	3.172200	-9.518300	27.364508	0.000312	21.059509
2348.650727	-3.015400	3.169900	-9.558200	27.388614	0.000311	21.051045
2349.650820	-3.001000	3.170400	-9.513900	27.435518	0.000311	21.059348
2350.658971	-2.996800	3.169200	-9.495400	27.453819	0.000310	21.061638
2351.650050	-2.966300	3.168900	-9.399500	27.429581	0.000311	21.068072
2352.654193	-3.015300	3.167800	-9.550100	27.453735	0.000310	21.041644
2353.657186	-2.987600	3.165700	-9.456100	27.462213	0.000310	21.040216
2354.654238	-2.996800	3.166300	-9.487500	27.492418	0.000309	21.057324
2355.666522	-2.987400	3.165400	-9.454800	27.469891	0.000309	21.049835
2356.655806	-3.019300	3.164000	-9.552300	27.472565	0.000309	21.058213
2357.653478	-3.005100	3.164700	-9.509200	27.451402	0.000308	21.048779
2358.652809	-2.973600	3.165900	-9.412600	27.454746	0.000306	21.056408
2359.665355	-3.003900	3.163000	-9.500400	27.432638	0.000307	21.062614
2360.656704	-3.003500	3.163000	-9.499400	27.423952	0.000305	21.072365
2361.652692	-3.009800	3.162100	-9.516300	27.406756	0.000308	21.062181
2362.668354	-3.012500	3.160900	-9.520900	27.419526	0.000305	21.049426
2363.661942	-3.001500	3.161200	-9.487700	27.430262	0.000307	21.033678
2364.655993	-2.980600	3.160500	-9.418600	27.475874	0.000304	21.060594
2365.663474	-2.977600	3.160000	-9.407500	27.513944	0.000305	21.051483
2366.659902	-3.005700	3.159200	-9.493800	27.511459	0.000302	21.051353
2367.655732	-2.999700	3.157600	-9.470900	27.476330	0.000304	21.063423
2368.669953	-2.984400	3.158800	-9.426200	27.453085	0.000303	21.056160
2369.658128	-2.994900	3.157500	-9.454900	27.433185	0.000304	21.061742
2370.658952	-2.996400	3.156400	-9.456900	27.452405	0.000301	21.060216
2371.662598	-2.999700	3.155200	-9.462200	27.467704	0.000303	21.067545
2372.660598	-3.024000	3.153100	-9.532700	27.446889	0.000303	21.045187
2373.666349	-3.008200	3.154400	-9.486900	27.403746	0.000300	21.050621
2374.679662	-2.995500	3.154200	-9.447600	27.410587	0.000303	21.057975
2375.660975	-3.030700	3.153800	-9.556700	27.455408	0.000299	21.063236
2376.667133	-2.996200	3.152400	-9.444500	27.417352	0.000300	21.074260
2377.680094	-2.997700	3.152500	-9.449500	27.410202	0.000299	21.031989
2378.663352	-2.996100	3.151700	-9.441700	27.445595	0.000299	21.036775
2379.663328	-3.000600	3.150900	-9.453600	27.438696	0.000300	21.053538
2380.664672	-2.997500	3.152000	-9.447000	27.454938	0.000299	21.049491
2381.660835	-2.979900	3.151000	-9.388900	27.459276	0.000298	21.048165
2382.659033	-3.019300	3.149200	-9.507300	27.456864	0.000298	21.057116
2383.666239	-2.992900	3.148500	-9.421300	27.472834	0.000299	21.034307
2384.665315	-3.004200	3.147300	-9.452900	27.518718	0.000297	21.043012
2385.660733	-3.002900	3.146300	-9.446600	27.517548	0.000296	21.041834
2386.667304	-2.990000	3.146100	-9.406300	27.506332	0.000296	21.047618
2387.661358	-2.994500	3.145900	-9.419700	27.505287	0.000296	21.043249
2388.665230	-2.990800	3.146100	-9.408100	27.507291	0.000295	21.040997
2389.666171	-3.005100	3.144000	-9.447200	27.491016	0.000295	21.023204
2390.678009	-3.005400	3.144400	-9.448700	27.472559	0.000295	21.022653
2391.680809	-3.015600	3.142500	-9.476000	27.438769	0.000295	21.024694
2392.664162	-2.993700	3.143800	-9.410100	27.450226	0.000294	21.013463
2393.666379	-3.018500	3.140300	-9.477600	27.479889	0.000294	21.019597
2394.668928	-2.989700	3.140800	-9.388800	27.470881	0.000292	21.020018
2395.678020	-2.972200	3.140300	-9.332300	27.487868	0.000295	21.042319
2396.663888	-3.019600	3.137800	-9.474100	27.528121	0.000294	21.022130
2397.673503	-3.023200	3.137900	-9.486000	27.527647	0.000293	21.029238
2398.671222	-2.999000	3.137800	-9.409800	27.541359	0.000293	21.025018
2399.678769	-2.992400	3.137800	-9.388100	27.527144	0.000290	21.040583
2400.666345	-3.018700	3.135100	-9.462000	27.540088	0.000292	21.029427
2401.664673	-3.000400	3.136300	-9.408800	27.520712	0.000293	21.031269
2402.673465	-3.036200	3.135600	-9.518700	27.557791	0.000292	21.025429
2403.676206	-2.992600	3.134100	-9.376700	27.559128	0.000290	21.028196
2404.675962	-3.018900	3.134300	-9.461500	27.537000	0.000290	21.020158
2405.666190	-2.977700	3.134700	-9.332000	27.539179	0.000289	21.048898
2406.685091	-2.990400	3.133700	-9.369500	27.561648	0.000288	21.024568
2407.671030	-3.017500	3.130700	-9.445500	27.618193	0.000287	21.033098
2408.673068	-3.032700	3.129900	-9.490500	27.631532	0.000287	21.037036
2409.678738	-3.000700	3.130300	-9.392000	27.605165	0.000287	21.028525
2410.671779	-2.986400	3.130300	-9.347400	27.602783	0.000287	21.029921
2411.678856	-2.984400	3.129300	-9.336400	27.595090	0.000287	21.029767
2412.669943	-3.020500	3.127900	-9.447000	27.608432	0.000287	21.006212
2413.673461	-2.992200	3.127100	-9.354800	27.648979	0.000287	21.008130
2414.672504	-2.996800	3.126500	-9.369000	27.683598	0.000287	21.017833
2415.674624	-3.031100	3.126800	-9.475800	27.725084	0.000283	21.028759
2416.676609	-2.988100	3.125600	-9.338800	27.751665	0.000285	21.007149
2417.677306	-3.003100	3.123900	-9.379200	27.747670	0.000286	21.022092
2418.670874	-2.982100	3.125000	-9.317600	27.738815	0.000284	21.014130
2419.678333	-3.002800	3.122800	-9.374800	27.733406	0.000284	21.033340
2420.677635	-2.990600	3.122600	-9.338000	27.717085	0.000284	21.031141
2421.684092	-2.992900	3.122400	-9.343400	27.705180	0.000283	21.013948
2422.681434	-2.985000	3.121200	-9.315600	27.726753	0.000283	21.001520
2423.676148	-2.980900	3.120800	-9.300400	27.750655	0.000283	21.002340
2424.682408	-3.002900	3.119000	-9.364600	27.735874	0.000284	21.020652
2425.681729	-2.996500	3.117200	-9.338900	27.764959	0.000282	21.002036
2426.679811	-2.995000	3.118100	-9.337500	27.794144	0.000282	21.024764
2427.697246	-2.984400	3.116600	-9.299700	27.729716	0.000281	21.020620
2428.685240	-2.969200	3.117200	-9.254400	27.747098	0.000283	21.024834
2429.693187	-2.996000	3.117000	-9.337400	27.773356	0.000283	21.013803
2430.690207	-2.988900	3.114100	-9.306600	27.781289	0.000281	21.022259
2431.695613	-2.986900	3.113300	-9.298300	27.830037	0.000283	21.003044
2432.679506	-2.992400	3.111500	-9.309700	27.826168	0.000280	21.028542
2433.687997	-2.985200	3.112100	-9.287700	27.852449	0.000280	21.007581
2434.679347	-3.008200	3.110000	-9.354400	27.856737	0.000282	21.012844
2435.680348	-3.010500	3.111100	-9.364300	27.778650	0.000280	21.026714
2436.689322	-2.997100	3.108500	-9.316000	27.765555	0.000280	21.005953
2437.680565	-3.014600	3.107700	-9.366700	27.750500	0.000282	21.016880
2438.685405	-3.009400	3.107000	-9.349200	27.768750	0.000278	21.025761
2439.682840	-3.037600	3.106000	-9.434000	27.762996	0.000281	21.010490
2440.691569	-2.989600	3.105900	-9.284000	27.768424	0.000279	21.026381
2441.690779	-3.013800	3.105300	-9.357100	27.698192	0.000281	21.008814
2442.686564	-2.987800	3.104900	-9.275700	27.653054	0.000279	21.018393
2443.694164	-3.018500	3.103600	-9.367600	27.660120	0.000278	21.000376
2444.689141	-3.019200	3.102100	-9.364900	27.678073	0.000279	20.999002
2445.691591	-2.996800	3.101900	-9.294300	27.732681	0.000278	21.021232
2446.691733	-3.004800	3.100900	-9.316100	27.767222	0.000276	21.006683
2447.686327	-3.004600	3.100200	-9.313200	27.784008	0.000277	21.011721
2448.696310	-2.986400	3.099900	-9.256600	27.773295	0.000276	21.009475
2449.691209	-2.975400	3.099900	-9.222300	27.766969	0.000277	21.005006
2450.690767	-2.986400	3.098300	-9.250900	27.696688	0.000276	20.999715
2451.690209	-2.996300	3.095700	-9.274700	27.691528	0.000275	20.993575
2452.688822	-3.004900	3.095700	-9.301800	27.715135	0.000276	21.008320
2453.690981	-3.000400	3.095700	-9.285800	27.722970	0.000276	21.002455
2454.694337	-3.010000	3.092300	-9.307000	27.710619	0.000275	21.010887
2455.691700	-3.016000	3.092300	-9.325400	27.735987	0.000275	21.020766
2456.699301	-3.004400	3.090100	-9.283000	27.733704	0.000275	21.009936
2457.699040	-3.009400	3.089900	-9.297200	27.747713	0.000275	20.988002
2458.691320	-2.989100	3.091300	-9.239600	27.798102	0.000275	20.993665
2459.702621	-2.991200	3.089400	-9.240500	27.816847	0.000272	21.013949
2460.696658	-2.971900	3.087700	-9.174700	27.785428	0.000275	21.020734
2461.702981	-3.001200	3.087200	-9.264200	27.736327	0.000276	21.018264
2462.696265	-2.981300	3.087300	-9.203200	27.759784	0.000273	21.006784
2463.698679	-2.999800	3.085400	-9.254000	27.786565	0.000273	21.001494
2464.703358	-3.023500	3.084500	-9.325200	27.802434	0.000273	21.020305
2465.695992	-2.978300	3.085000	-9.187100	27.816815	0.000274	21.012021
2466.697550	-2.994800	3.082800	-9.230800	27.871589	0.000272	20.984649
2467.698544	-3.006800	3.081100	-9.263300	27.883242	0.000275	21.006330
2468.695316	-2.997400	3.080500	-9.231500	27.912102	0.000272	21.014987
2469.697989	-2.996000	3.079900	-9.226100	27.917358	0.000273	21.012691
2470.706949	-3.006200	3.077800	-9.251000	27.917654	0.000273	20.996397
2471.694315	-3.019500	3.076400	-9.289000	27.900645	0.000273	21.008672
2472.695272	-3.020600	3.075700	-9.288700	27.898189	0.000274	20.996720
2473.694888	-2.983600	3.077200	-9.180400	27.868013	0.000274	21.005228
2474.694100	-3.008200	3.074400	-9.247600	27.896228	0.000272	21.009443
2475.700779	-2.983900	3.075300	-9.175400	27.891244	0.000275	21.002531
2476.698130	-2.990500	3.073100	-9.188900	27.844057	0.000272	20.984441
2477.697025	-2.978900	3.073300	-9.153400	27.820327	0.000272	21.010339
2478.708568	-3.004600	3.071800	-9.228700	27.783899	0.000271	21.012559
2479.693189	-3.024900	3.068800	-9.281100	27.749975	0.000270	20.997863
2480.702259	-3.007400	3.068900	-9.228200	27.700029	0.000270	21.008291
2481.698537	-3.016600	3.067400	-9.252100	27.684603	0.000272	20.989453
2482.711028	-3.015300	3.065300	-9.241700	27.655711	0.000270	20.989303
2483.709881	-2.978300	3.067200	-9.133700	27.643335	0.000271	20.992970
2484.698382	-3.006000	3.064500	-9.211100	27.691273	0.000273	20.982415
2485.709337	-2.991800	3.065000	-9.168000	27.715601	0.000271	21.014951
2486.699557	-2.987800	3.063000	-9.150500	27.790714	0.000272	21.027002
2487.701272	-2.991000	3.060800	-9.153800	27.794756	0.000273	21.013054
2488.701517	-2.996000	3.062300	-9.173000	27.776455	0.000269	20.972358
2489.700190	-2.982400	3.061500	-9.129100	27.809783	0.000270	20.992619
2490.696721	-2.983700	3.059900	-9.127100	27.794086	0.000270	20.992469
2491.701785	-3.008500	3.057800	-9.198900	27.753095	0.000270	20.988676
2492.699690	-2.959900	3.057400	-9.047300	27.693627	0.000270	20.999006
2493.706516	-2.996900	3.056100	-9.157500	27.669992	0.000269	20.997982
2494.711351	-2.996100	3.055000	-9.152200	27.683731	0.000270	20.994264
2495.697960	-2.988300	3.053000	-9.122300	27.719021	0.000268	20.989948
2496.705221	-2.988800	3.053500	-9.125200	27.773354	0.000269	21.003371
2497.709494	-3.007900	3.051500	-9.176200	27.783744	0.000270	20.980641
2498.708571	-3.009700	3.048400	-9.174000	27.754160	0.000269	21.010133
2499.709863	-3.003200	3.049300	-9.155000	27.732263	0.000267	21.002324
2500.709965	-3.003600	3.046700	-9.150200	27.719566	0.000267	20.990971
2501.708716	-3.019800	3.046100	-9.197200	27.684649	0.000268	21.005617
2502.708072	-3.016400	3.044400	-9.180900	27.695561	0.000267	20.995263
2503.706616	-3.003100	3.044600	-9.141800	27.716740	0.000268	20.988127
2504.712593	-3.036900	3.041500	-9.235900	27.696628	0.000267	20.995862
2505.715771	-2.982300	3.043300	-9.075500	27.675994	0.000265	21.003547
2506.719622	-2.988200	3.040900	-9.086600	27.671035	0.000268	20.996661
2507.711154	-2.977700	3.042100	-9.057700	27.619127	0.000267	20.998008
2508.711698	-2.992200	3.039000	-9.092200	27.588001	0.000265	20.998458
2509.711608	-3.015300	3.036600	-9.155700	27.517139	0.000266	21.001602
2510.719880	-3.008500	3.036200	-9.132600	27.530633	0.000266	21.005220
2511.713478	-2.982800	3.036800	-9.057000	27.520092	0.000267	20.983239
2512.713830	-2.985100	3.035000	-9.059000	27.577834	0.000270	20.974007
2513.710789	-2.977700	3.034500	-9.034800	27.592815	0.000267	20.981493
2514.714968	-3.007500	3.032300	-9.118800	27.615534	0.000267	20.989653
2515.712556	-3.003100	3.031000	-9.100800	27.631506	0.000265	20.990551
2516.711321	-2.990300	3.031600	-9.064300	27.673320	0.000265	20.984738
2517.711105	-2.990700	3.029000	-9.058000	27.716621	0.000264	20.985163
2518.714469	-2.982000	3.028000	-9.028000	27.766095	0.000265	20.959563
2519.712433	-2.986800	3.026100	-9.037600	27.746852	0.000265	20.980972
2520.713218	-2.990700	3.025500	-9.048200	27.756921	0.000267	20.983992
2521.717293	-2.997800	3.022800	-9.061100	27.766146	0.000266	21.011289
2522.712920	-3.003700	3.021400	-9.074100	27.795581	0.000265	20.974062
2523.712642	-2.988800	3.021300	-9.029100	27.816709	0.000266	20.987736
2524.713578	-2.989500	3.021000	-9.029300	27.820256	0.000267	20.985616
2525.725969	-2.984800	3.019000	-9.010400	27.827943	0.000266	20.974389
2526.715367	-2.983800	3.017800	-9.003700	27.847335	0.000266	20.992005
2527.714525	-3.023100	3.016900	-9.119800	27.854898	0.000265	20.988238
2528.721302	-3.012800	3.014200	-9.080500	27.870520	0.000265	20.985469
2529.717162	-2.969600	3.014200	-8.949800	27.886762	0.000264	20.973843
2530.720482	-3.012200	3.013300	-9.075700	27.898714	0.000264	20.994878
2531.713047	-3.014400	3.010700	-9.074100	27.938386	0.000263	20.984549
2532.723489	-2.999900	3.009400	-9.026500	27.952867	0.000265	20.986796
2533.714014	-2.993800	3.009800	-9.010100	27.937421	0.000264	20.991637
2534.727581	-2.990500	3.008000	-8.994500	27.962661	0.000263	20.972949
2535.717501	-2.996000	3.005600	-9.003400	27.990208	0.000266	20.961797
2536.719351	-3.005300	3.006900	-9.036300	28.021671	0.000264	21.008158
2537.729331	-2.983700	3.005300	-8.965600	28.023432	0.000263	20.983856
2538.717873	-3.004300	3.004000	-9.024000	28.010194	0.000261	20.970059
2539.720312	-3.008600	3.000700	-9.026900	27.994973	0.000264	20.979867
2540.715321	-2.987400	3.001800	-8.966300	28.004866	0.000263	20.978445
2541.718901	-2.979800	2.999800	-8.937800	28.009751	0.000265	20.972458
2542.727023	-3.013700	2.997400	-9.031300	28.019867	0.000264	20.991647
2543.719296	-3.011000	2.996200	-9.020300	28.045900	0.000264	20.976602
2544.717648	-2.990800	2.994500	-8.955800	28.076865	0.000263	20.988331
2545.722229	-3.009700	2.992600	-9.005600	28.043697	0.000264	20.984814
2546.724760	-2.997800	2.992200	-8.969400	28.017914	0.000263	20.968822
2547.721452	-3.011100	2.991700	-9.006600	27.951916	0.000263	20.961187
2548.728108	-3.018800	2.988500	-9.020500	27.950653	0.000260	20.966552
2549.723408	-2.995300	2.989000	-8.952300	27.913513	0.000263	20.958096
2550.721480	-2.999400	2.987900	-8.960800	27.865957	0.000262	20.966181
2551.728026	-2.992000	2.985700	-8.932200	27.867446	0.000264	20.974791
2552.723685	-2.995800	2.985100	-8.941500	27.886317	0.000263	20.973870
2553.719550	-2.968700	2.984000	-8.857200	27.898592	0.000263	20.960147
2554.728975	-2.971300	2.982100	-8.858100	27.873054	0.000265	20.963367
2555.727461	-2.996000	2.980600	-8.928900	27.859344	0.000260	20.956682
2556.730425	-3.029000	2.977600	-9.017800	27.835418	0.000261	20.947776
2557.720306	-2.991700	2.977800	-8.907100	27.878861	0.000261	20.968263
2558.719554	-3.003900	2.977000	-8.942400	27.895128	0.000261	20.962350
2559.721545	-3.011000	2.975200	-8.956600	27.945983	0.000260	20.953320
2560.730863	-3.019500	2.972800	-8.975000	27.936985	0.000264	20.964176
2561.724633	-2.964700	2.973800	-8.815600	27.897712	0.000262	20.953098
2562.721493	-2.998400	2.970500	-8.906100	27.898879	0.000258	20.960436
2563.725862	-2.994100	2.970200	-8.891900	27.915220	0.000261	20.935635
2564.727566	-3.005200	2.969000	-8.920400	27.871534	0.000263	20.958518
2565.735796	-3.002500	2.967100	-8.907200	27.914381	0.000261	20.964184
2566.729836	-2.998700	2.966100	-8.893700	27.938185	0.000263	20.951635
2567.737143	-2.988100	2.963300	-8.853200	27.997071	0.000265	20.951637
2568.723540	-3.003800	2.962600	-8.897500	28.031113	0.000263	20.959824
2569.728846	-2.985100	2.960200	-8.835600	28.096712	0.000263	20.959002
2570.724426	-3.001100	2.959000	-8.879600	28.127701	0.000262	20.952266
2571.732494	-3.003200	2.957400	-8.881500	28.144857	0.000263	20.953890
2572.731396	-2.984200	2.955900	-8.819900	28.171853	0.000263	20.946456
2573.726605	-3.029500	2.954600	-8.950500	28.190967	0.000263	20.960955
2574.726607	-2.988500	2.953000	-8.824400	28.242552	0.000263	20.960259
2575.725565	-3.027600	2.949500	-8.928400	28.210677	0.000264	20.948558
2576.730327	-3.008300	2.949100	-8.870500	28.228898	0.000262	20.963582
2577.738000	-2.985400	2.947900	-8.799000	28.201039	0.000263	20.937433
2578.725487	-3.000100	2.946800	-8.839600	28.206842	0.000263	20.938060
2579.739180	-3.051700	2.944600	-8.983400	28.228112	0.000262	20.951886
2580.735089	-2.995500	2.944000	-8.817700	28.259297	0.000261	20.955781
2581.729587	-2.991100	2.942400	-8.799400	28.294172	0.000263	20.947748
2582.736338	-2.987000	2.941400	-8.785400	28.337423	0.000262	20.966164
2583.725976	-3.021700	2.938800	-8.879000	28.349547	0.000263	20.927168
2584.728816	-3.018300	2.938500	-8.866800	28.333117	0.000261	20.947606
2585.738362	-2.983300	2.938300	-8.764900	28.338495	0.000262	20.931212
2586.743673	-3.021800	2.933900	-8.865100	28.336317	0.000260	20.961731
2587.731617	-3.000700	2.931700	-8.795100	28.368414	0.000262	20.934785
2588.727328	-3.011700	2.930800	-8.825400	28.357313	0.000261	20.945891
2589.726524	-2.978100	2.930700	-8.726900	28.379200	0.000262	20.943274
2590.734697	-3.001600	2.928900	-8.790900	28.348594	0.000261	20.943276
2591.728871	-2.992000	2.928200	-8.760400	28.312188	0.000260	20.934121
2592.728160	-2.972900	2.925500	-8.696300	28.304283	0.000265	20.936593
2593.733538	-3.021600	2.923100	-8.831200	28.288200	0.000261	20.943159
2594.741323	-2.997100	2.922700	-8.758300	28.273231	0.000262	20.949897
2595.737726	-3.004100	2.921500	-8.775200	28.285404	0.000261	20.939869
2596.736207	-3.033600	2.916700	-8.847000	28.324319	0.000260	20.935904
2597.735074	-3.019600	2.917400	-8.808300	28.362266	0.000265	20.916743
2598.737388	-3.009100	2.915700	-8.773100	28.366233	0.000261	20.916470
2599.732400	-3.016900	2.913900	-8.790100	28.407377	0.000261	20.955049
2600.743872	-2.977900	2.914300	-8.677500	28.439002	0.000262	20.937585
2601.732887	-3.001300	2.912300	-8.739800	28.480340	0.000262	20.924687
2602.732384	-3.033600	2.907800	-8.819700	28.504429	0.000263	20.936142
2603.734881	-2.984900	2.907100	-8.676300	28.507008	0.000262	20.912664
2604.738247	-3.011700	2.906300	-8.752300	28.491202	0.000262	20.934202
2605.737269	-2.996800	2.904600	-8.702400	28.472121	0.000259	20.905981
2606.733701	-3.013200	2.901300	-8.740700	28.457231	0.000261	20.940769
2607.738678	-2.971500	2.901900	-8.622500	28.415551	0.000260	20.925351
2608.740900	-3.008100	2.898700	-8.717400	28.377907	0.000262	20.904518
2609.740097	-2.981500	2.897400	-8.637300	28.334364	0.000261	20.930371
2610.754901	-2.982500	2.896500	-8.637200	28.289604	0.000260	20.911859
2611.737183	-3.018000	2.892100	-8.727200	28.261649	0.000260	20.919273
2612.743721	-2.999900	2.891800	-8.674500	28.277464	0.000262	20.935669
2613.737567	-2.986100	2.889100	-8.626100	28.289141	0.000260	20.929408
2614.748158	-3.002700	2.887900	-8.670300	28.323620	0.000260	20.918607
2615.737720	-2.974000	2.886500	-8.583400	28.370515	0.000260	20.919359
2616.741186	-3.007100	2.884600	-8.672300	28.420654	0.000263	20.913896
2617.737290	-2.980800	2.882900	-8.591900	28.424052	0.000262	20.916843
2618.741613	-3.009900	2.880000	-8.667700	28.462764	0.000261	20.918842
2619.747178	-3.011300	2.878300	-8.665300	28.479124	0.000260	20.923936
2620.743789	-2.967500	2.877700	-8.538100	28.509060	0.000261	20.927056
2621.740526	-2.976000	2.874700	-8.552900	28.508692	0.000262	20.915308
2622.739978	-2.995400	2.873300	-8.605700	28.479034	0.000259	20.907252
2623.746033	-3.008400	2.870600	-8.635000	28.469520	0.000260	20.901940
2624.743773	-3.001000	2.868900	-8.608400	28.413838	0.000263	20.918412
2625.746020	-3.015900	2.866400	-8.642700	28.367867	0.000262	20.910529
2626.748487	-2.983600	2.866200	-8.549500	28.352778	0.000259	20.902449
2627.748141	-3.017600	2.862600	-8.637400	28.343114	0.000263	20.914054
2628.748841	-3.014300	2.862600	-8.627900	28.293523	0.000262	20.899685
2629.745717	-2.980700	2.859900	-8.523300	28.208061	0.000259	20.900411
2630.751295	-3.003800	2.858400	-8.585500	28.205883	0.000262	20.909123
2631.755142	-3.024100	2.854600	-8.630700	28.214042	0.000264	20.899794
2632.751441	-2.996900	2.853800	-8.551700	28.229191	0.000262	20.899399
2633.753052	-2.998200	2.851700	-8.548500	28.256261	0.000262	20.924280
2634.751835	-3.001100	2.849500	-8.550700	28.257232	0.000262	20.896337
2635.752427	-3.015000	2.846200	-8.580200	28.214576	0.000262	20.902228
2636.760312	-2.983400	2.846200	-8.490400	28.202533	0.000261	20.922818
2637.753932	-3.032000	2.843200	-8.619200	28.236050	0.000261	20.907252
2638.753504	-2.989400	2.842100	-8.495600	28.246066	0.000261	20.912594
2639.758346	-2.992200	2.838800	-8.493300	28.249638	0.000261	20.885372
2640.756485	-3.016700	2.835200	-8.551400	28.220269	0.000260	20.907959
2641.753936	-3.015700	2.834600	-8.547400	28.207359	0.000260	20.902549
2642.757511	-3.006500	2.833900	-8.518700	28.180465	0.000262	20.892070
2643.752404	-2.998100	2.830300	-8.484200	28.172785	0.000262	20.896191
2644.755789	-3.019600	2.827500	-8.536600	28.226109	0.000263	20.892503
2645.755564	-3.011400	2.825000	-8.506300	28.243042	0.000262	20.918083
2646.757569	-3.004300	2.823800	-8.482600	28.219249	0.000263	20.878011
2647.756043	-3.004800	2.821800	-8.477800	28.249222	0.000262	20.902496
2648.754649	-2.979200	2.819000	-8.397900	28.279762	0.000261	20.885830
2649.756122	-3.004500	2.817700	-8.464800	28.314440	0.000262	20.897511
2650.760600	-2.986700	2.815600	-8.408000	28.360370	0.000263	20.894921
2651.757608	-2.999900	2.813900	-8.440500	28.412222	0.000258	20.869847
2652.755340	-2.980800	2.810100	-8.375000	28.453265	0.000258	20.873719
2653.757205	-3.049700	2.806400	-8.557800	28.451014	0.000260	20.897528
2654.763415	-2.974500	2.805200	-8.343200	28.486254	0.000262	20.878490
2655.758487	-2.991900	2.802800	-8.384200	28.465146	0.000263	20.888053
2656.760164	-2.993500	2.800300	-8.380800	28.480887	0.000260	20.903903
2657.759833	-3.035500	2.797500	-8.490500	28.512436	0.000259	20.887786
2658.757209	-2.999600	2.796200	-8.386300	28.545150	0.000261	20.909824
2659.758706	-2.998200	2.793800	-8.374500	28.577664	0.000260	20.902267
2660.764906	-3.013600	2.789700	-8.405200	28.599250	0.000260	20.878490
2661.771856	-2.995800	2.786900	-8.348100	28.605400	0.000261	20.888951
2662.762506	-2.987500	2.784500	-8.317200	28.603347	0.000260	20.883564
2663.759961	-2.992400	2.781500	-8.320800	28.608852	0.000260	20.873463
2664.763127	-2.983200	2.778800	-8.288600	28.654447	0.000258	20.873865
2665.765862	-3.007500	2.775800	-8.347400	28.665031	0.000260	20.903964
2666.768345	-2.976200	2.774700	-8.257100	28.688201	0.000258	20.885577
2667.764782	-3.005000	2.772200	-8.329400	28.651338	0.000261	20.884959
2668.764441	-3.020800	2.769500	-8.364400	28.649584	0.000261	20.891251
2669.764391	-3.001300	2.765000	-8.297600	28.652833	0.000260	20.878878
2670.764916	-2.991400	2.765300	-8.270500	28.641787	0.000259	20.889089
2671.765254	-2.991400	2.759400	-8.253200	28.593871	0.000259	20.893460
2672.768698	-3.009800	2.756900	-8.296100	28.597539	0.000260	20.891939
2673.768206	-2.990700	2.753300	-8.233000	28.616080	0.000260	20.915352
2674.771517	-3.019100	2.751400	-8.305300	28.634691	0.000260	20.894743
2675.775554	-2.992700	2.747700	-8.221900	28.647059	0.000260	20.901984
2676.767269	-3.012200	2.744600	-8.265100	28.610096	0.000260	20.889887
2677.766603	-3.039800	2.740500	-8.329000	28.592927	0.000262	20.886346
2678.768472	-3.024600	2.736500	-8.275500	28.534130	0.000261	20.899676
2679.766949	-2.997300	2.735200	-8.197200	28.482517	0.000259	20.886106
2680.769996	-2.995200	2.731300	-8.180000	28.482324	0.000261	20.896342
2681.769246	-3.007900	2.729300	-8.208000	28.478636	0.000258	20.879827
2682.776945	-3.002700	2.724300	-8.178900	28.495862	0.000259	20.876786
2683.767848	-2.989500	2.722700	-8.138600	28.499682	0.000261	20.889167
2684.772557	-2.988900	2.719500	-8.126400	28.531010	0.000258	20.905542
2685.776752	-3.015800	2.714500	-8.185200	28.541347	0.000259	20.892246
2686.776902	-3.017900	2.710900	-8.180400	28.560754	0.000259	20.883342
2687.769239	-2.978700	2.708800	-8.067600	28.604420	0.000260	20.887964
2688.770805	-2.996200	2.705600	-8.105000	28.650857	0.000260	20.902490
2689.778837	-3.030600	2.701300	-8.185400	28.663298	0.000262	20.885151
2690.775730	-2.976600	2.698400	-8.031500	28.673661	0.000259	20.883735
2691.776950	-2.993000	2.693800	-8.061300	28.719799	0.000260	20.888006
2692.773570	-3.033300	2.689600	-8.155900	28.765040	0.000257	20.874783
2693.778714	-3.001000	2.685900	-8.057400	28.755660	0.000259	20.897574
2694.771947	-3.020700	2.682000	-8.099900	28.743771	0.000260	20.894609
2695.772609	-2.997500	2.678700	-8.027800	28.734212	0.000260	20.887351
2696.772310	-3.018100	2.675900	-8.074800	28.703322	0.000258	20.885160
2697.776545	-3.012000	2.669900	-8.039700	28.646885	0.000260	20.884266
2698.774556	-3.002700	2.666400	-8.005500	28.631727	0.000260	20.886543
2699.773826	-2.996700	2.661700	-7.975000	28.669963	0.000262	20.895182
2700.772778	-2.987700	2.659100	-7.943800	28.697545	0.000258	20.909686
2701.777682	-3.003100	2.654700	-7.970200	28.697228	0.000259	20.894669
2702.776486	-3.017100	2.649800	-7.993500	28.714650	0.000257	20.888984
2703.774318	-3.014800	2.645300	-7.973900	28.724045	0.000259	20.893705
2704.777732	-3.018500	2.642300	-7.975100	28.747239	0.000258	20.892886
2705.774992	-3.005700	2.637700	-7.927300	28.796644	0.000259	20.873901
2706.776225	-3.005600	2.631800	-7.909500	28.838540	0.000259	20.911835
2707.781170	-3.017600	2.627200	-7.926000	28.864335	0.000261	20.903682
2708.777673	-2.986100	2.624500	-7.836200	28.872886	0.000261	20.895227
2709.776145	-2.989300	2.618900	-7.826300	28.884234	0.000257	20.891961
2710.781059	-2.997200	2.614300	-7.834400	28.907007	0.000259	20.904945
2711.778461	-3.014700	2.609700	-7.866500	28.953110	0.000258	20.900183
2712.777961	-3.020500	2.603000	-7.861800	28.976494	0.000259	20.922318
2713.778038	-3.011000	2.599100	-7.824400	28.969021	0.000261	20.908626
2714.778465	-3.015900	2.593400	-7.820500	28.959661	0.000260	20.892085
2715.779235	-3.033200	2.588300	-7.849700	28.940840	0.000260	20.902046
2716.777982	-2.974300	2.584500	-7.685800	28.937922	0.000258	20.915700
2717.779907	-2.992200	2.579600	-7.717100	28.939117	0.000259	20.885138
2718.778148	-3.005200	2.572000	-7.728300	28.969760	0.000260	20.891354
2719.784784	-3.006700	2.567300	-7.718000	28.967685	0.000260	20.899221
2720.783109	-2.976600	2.563000	-7.627100	28.901479	0.000259	20.902695
2721.778898	-2.978700	2.558600	-7.620400	28.840419	0.000258	20.898556
2722.780118	-3.005900	2.550700	-7.666400	28.790209	0.000260	20.891125
2723.780355	-2.991200	2.544700	-7.610500	28.782805	0.000261	20.885564
2724.779816	-3.003200	2.539100	-7.623600	28.838924	0.000259	20.900369
2725.781297	-2.971900	2.532800	-7.526000	28.867666	0.000259	20.893762
2726.782172	-3.006300	2.527500	-7.597600	28.908148	0.000260	20.902775
2727.781845	-2.999900	2.522100	-7.565300	28.961233	0.000261	20.917848
2728.783642	-2.999000	2.514300	-7.539700	29.007784	0.000260	20.894103
2729.783446	-2.987400	2.509300	-7.495400	29.075577	0.000262	20.912621
2730.783536	-3.023200	2.501500	-7.562200	29.119445	0.000259	20.899451
2731.785684	-2.983300	2.495000	-7.442200	29.097358	0.000259	20.900429
