LabVIEW Measurement	
Writer_Version	2
Reader_Version	2
Separator	Tab
Decimal_Separator	.
Multi_Headings	No
X_Columns	One
Time_Pref	Absolute
Operator	admin
Description	Clolumns are: time, Current, Voltage, Power, Battery Temp, and Chamber Temp
Date	2024/08/16
Time	13:06:06.104549407958984375
***End_of_Header***	
	
Channels	6						
Samples	1	1	1	1	1	1	
Date	2024/09/02	2024/09/02	2024/09/02	2024/09/02	2024/09/02	2024/09/02	
Time	11:06:01.88442230224609375	11:06:01.8908319473266601562	11:06:01.8967137336730957031	11:06:01.8683929443359375	11:06:01.8683929443359375	11:06:01.8683929443359375	
X_Dimension	Time	Time	Time	Time	Time	Time	
X0	0.0000000000000000E+0	0.0000000000000000E+0	0.0000000000000000E+0	0.0000000000000000E+0	0.0000000000000000E+0	0.0000000000000000E+0	
Delta_X	1.000000	1.000000	1.000000	1.000000	1.000000	1.000000	
***End_of_Header***							
X_Value	Untitled	Untitled 1	Untitled 2	Untitled 3	Untitled 4	Untitled 5	Comment
0.000000	0.030213	4.103700	0.123930	20.956337	0.000936	20.654778
0.999885	-3.004800	3.936000	-11.825000	20.971112	0.000933	20.653434
2.001474	-3.011000	3.929000	-11.829000	20.933432	0.000932	20.664114
3.006124	-2.995300	3.925700	-11.757000	20.961078	0.000930	20.667107
4.003239	-2.989100	3.920500	-11.718000	20.966318	0.000930	20.663338
5.002906	-3.003800	3.918100	-11.768000	20.976847	0.000930	20.648263
6.007543	-3.015900	3.914300	-11.803000	20.954313	0.000928	20.664134
7.002714	-2.997900	3.911900	-11.726000	20.968235	0.000929	20.645813
8.002614	-2.995600	3.909100	-11.709000	20.976166	0.000929	20.651376
9.002699	-3.014500	3.906600	-11.775000	20.966940	0.000928	20.667755
10.001754	-2.977400	3.906600	-11.631000	20.981109	0.000925	20.680030
11.002800	-3.003300	3.903500	-11.721000	20.986126	0.000926	20.665132
12.002886	-2.974600	3.903400	-11.610000	20.990723	0.000927	20.663565
13.003995	-2.989400	3.901900	-11.663000	20.972877	0.000926	20.662786
14.003658	-3.009100	3.898700	-11.730000	20.986530	0.000925	20.640877
15.010447	-3.007600	3.897200	-11.721000	20.995641	0.000922	20.659475
16.004238	-3.008300	3.896700	-11.720000	20.997685	0.000923	20.662468
17.005904	-3.023600	3.897200	-11.783000	21.020939	0.000921	20.662967
18.004744	-3.005900	3.896100	-11.710000	21.004248	0.000923	20.671404
19.008413	-3.001700	3.894500	-11.689000	21.021339	0.000921	20.661471
20.009032	-3.014300	3.892200	-11.731000	21.023062	0.000918	20.661772
21.006634	-2.987400	3.893200	-11.630000	21.014830	0.000920	20.654959
22.010095	-2.988800	3.891600	-11.630000	21.043047	0.000922	20.651887
23.006837	-2.983500	3.892000	-11.611000	21.028825	0.000919	20.662320
24.007991	-2.992300	3.889300	-11.637000	21.048233	0.000918	20.665136
25.009230	-2.999700	3.888700	-11.665000	21.028322	0.000918	20.660394
26.008275	-3.012300	3.888500	-11.713000	21.038607	0.000918	20.671631
27.007065	-3.009200	3.887200	-11.694000	21.075134	0.000918	20.652687
28.012249	-3.008300	3.887300	-11.692000	21.067475	0.000920	20.660201
29.009026	-3.010400	3.885100	-11.695000	21.056968	0.000914	20.647793
30.010402	-2.984300	3.886700	-11.598000	21.044115	0.000916	20.678088
31.011815	-3.003000	3.884800	-11.665000	21.074182	0.000913	20.666909
32.009591	-3.006500	3.884800	-11.679000	21.099553	0.000915	20.655302
33.013320	-2.989300	3.884100	-11.609000	21.068167	0.000916	20.669429
34.017019	-2.989100	3.883900	-11.607000	21.080344	0.000914	20.648415
35.010478	-3.015900	3.882300	-11.706000	21.092042	0.000915	20.667231
36.012424	-3.017200	3.881500	-11.711000	21.100678	0.000913	20.669705
37.009243	-2.976000	3.881500	-11.551000	21.111902	0.000911	20.668604
38.010008	-2.999800	3.881400	-11.642000	21.099730	0.000912	20.668283
39.016730	-2.993000	3.881100	-11.615000	21.121585	0.000913	20.650312
40.010293	-2.997900	3.880900	-11.633000	21.132466	0.000911	20.673528
41.010736	-3.016900	3.879000	-11.701000	21.105377	0.000908	20.681993
42.012959	-3.005100	3.879000	-11.656000	21.150759	0.000912	20.657211
43.009635	-2.991200	3.879700	-11.604000	21.163706	0.000909	20.666369
44.011105	-2.984000	3.880400	-11.578000	21.164481	0.000907	20.686113
45.009715	-2.997700	3.877600	-11.623000	21.167770	0.000911	20.662848
46.013760	-3.015700	3.878300	-11.695000	21.187332	0.000908	20.674831
47.017718	-3.002400	3.878000	-11.643000	21.169546	0.000909	20.666522
48.011638	-3.033000	3.875600	-11.753000	21.192051	0.000907	20.643987
49.010490	-2.999000	3.876000	-11.622000	21.205046	0.000908	20.654143
50.011566	-3.020200	3.877100	-11.709000	21.198209	0.000908	20.650147
51.012101	-2.997600	3.876700	-11.620000	21.216026	0.000908	20.676509
52.013939	-3.021400	3.874400	-11.705000	21.208768	0.000905	20.676361
53.014012	-2.997500	3.874900	-11.614000	21.240154	0.000906	20.683103
54.010883	-3.024700	3.874300	-11.717000	21.229051	0.000909	20.672942
55.011858	-3.023000	3.874200	-11.710000	21.255321	0.000910	20.677412
56.012410	-2.992900	3.874900	-11.596000	21.240706	0.000908	20.659945
57.011819	-2.979300	3.875300	-11.544000	21.256545	0.000905	20.683379
58.014742	-2.994700	3.874700	-11.603000	21.247041	0.000907	20.662489
59.013855	-3.004100	3.873300	-11.633000	21.258890	0.000903	20.658696
60.016254	-3.013200	3.874600	-11.674000	21.265208	0.000906	20.666914
61.013174	-2.996200	3.872500	-11.602000	21.279452	0.000906	20.663619
62.012897	-2.990800	3.873200	-11.583000	21.288956	0.000905	20.668860
63.017641	-3.016200	3.872800	-11.680000	21.297215	0.000906	20.687082
64.013654	-2.987300	3.874400	-11.573000	21.320092	0.000906	20.667293
65.011616	-3.012700	3.872400	-11.665000	21.321963	0.000907	20.678175
66.013918	-3.005600	3.872000	-11.636000	21.302709	0.000904	20.680249
67.013559	-2.993700	3.872500	-11.592000	21.312760	0.000907	20.668967
68.013432	-3.009600	3.870700	-11.648000	21.325334	0.000906	20.682971
69.017190	-2.982600	3.871100	-11.545000	21.328203	0.000904	20.674934
70.013434	-3.013800	3.869600	-11.661000	21.317030	0.000905	20.683198
71.011734	-3.019100	3.869400	-11.681000	21.325108	0.000904	20.668992
72.013855	-3.005000	3.870300	-11.629000	21.349958	0.000903	20.667776
73.013119	-2.998500	3.869300	-11.601000	21.337859	0.000906	20.670370
74.018133	-3.012000	3.868600	-11.650000	21.340954	0.000905	20.669199
75.014232	-3.006200	3.868900	-11.630000	21.353078	0.000908	20.669001
76.015551	-3.003700	3.869200	-11.621000	21.359940	0.000908	20.673495
77.013532	-3.035100	3.866700	-11.735000	21.360261	0.000908	20.681878
78.013113	-2.985400	3.869300	-11.550000	21.367774	0.000909	20.687973
79.016638	-2.988600	3.868500	-11.559000	21.395805	0.000906	20.687094
80.012609	-3.004500	3.867200	-11.618000	21.412470	0.000905	20.674844
81.015708	-2.996000	3.866600	-11.584000	21.398051	0.000907	20.692187
82.014388	-3.016700	3.867300	-11.666000	21.413615	0.000906	20.704442
83.013598	-2.996500	3.866600	-11.585000	21.433494	0.000907	20.680707
84.014392	-3.022800	3.865400	-11.682000	21.403412	0.000907	20.680006
85.015146	-3.011500	3.865100	-11.637000	21.437083	0.000907	20.684773
86.014744	-2.990500	3.866400	-11.561000	21.440252	0.000906	20.680357
87.017446	-3.006300	3.865900	-11.620000	21.455186	0.000907	20.685816
88.020061	-2.973500	3.865500	-11.493000	21.475637	0.000907	20.709126
89.017745	-2.997600	3.866300	-11.588000	21.462195	0.000909	20.708004
90.021559	-3.030100	3.864200	-11.707000	21.473065	0.000905	20.679998
91.016897	-2.986100	3.865500	-11.542000	21.477099	0.000906	20.690199
92.021190	-2.999700	3.864800	-11.593000	21.492412	0.000907	20.687977
93.015427	-3.008800	3.864800	-11.627000	21.502462	0.000910	20.677169
94.017175	-2.982300	3.864900	-11.526000	21.518693	0.000912	20.690566
95.019776	-3.003800	3.862700	-11.601000	21.517020	0.000909	20.701695
96.023979	-2.995400	3.862200	-11.567000	21.536019	0.000908	20.706008
97.018977	-2.984800	3.863800	-11.531000	21.561380	0.000907	20.700565
98.018723	-2.987300	3.864500	-11.542000	21.514613	0.000910	20.685061
99.019067	-3.008000	3.863500	-11.620000	21.543090	0.000909	20.708342
100.019179	-3.024700	3.862500	-11.681000	21.548772	0.000909	20.696957
101.023827	-3.014600	3.863400	-11.646000	21.551911	0.000910	20.700574
102.018344	-3.006300	3.862500	-11.611000	21.549839	0.000908	20.684748
103.023398	-2.996900	3.862000	-11.573000	21.567610	0.000911	20.705851
104.019039	-3.004600	3.860600	-11.599000	21.568080	0.000911	20.685931
105.020798	-3.000200	3.860800	-11.582000	21.563436	0.000906	20.696458
106.023707	-3.007900	3.860200	-11.610000	21.572785	0.000910	20.684950
107.020483	-3.000300	3.862000	-11.586000	21.588792	0.000910	20.714247
108.020496	-3.011300	3.860500	-11.624000	21.598586	0.000910	20.715513
109.020610	-3.003200	3.860800	-11.594000	21.602496	0.000909	20.695716
110.021343	-2.997900	3.861200	-11.575000	21.619051	0.000910	20.708491
111.028890	-3.005600	3.860800	-11.603000	21.647220	0.000911	20.707282
112.020663	-2.980900	3.861500	-11.510000	21.636644	0.000910	20.722304
113.024443	-3.006500	3.859900	-11.604000	21.645165	0.000912	20.697638
114.023604	-2.981400	3.860300	-11.508000	21.643615	0.000912	20.722168
115.024951	-3.008700	3.858200	-11.606000	21.678821	0.000912	20.713777
116.023082	-2.994900	3.858600	-11.556000	21.661731	0.000910	20.715641
117.032143	-2.985400	3.859900	-11.521000	21.671006	0.000912	20.718284
118.024627	-2.999300	3.859500	-11.575000	21.670276	0.000910	20.692896
119.027744	-2.995700	3.860100	-11.562000	21.665757	0.000909	20.725834
120.026175	-2.998400	3.859400	-11.571000	21.656751	0.000912	20.726304
121.028160	-3.030600	3.857200	-11.689000	21.670763	0.000910	20.736534
122.037378	-3.018200	3.858300	-11.644000	21.687716	0.000909	20.723628
123.031451	-3.008000	3.857300	-11.601000	21.665770	0.000911	20.743391
124.033066	-2.999700	3.858100	-11.572000	21.692026	0.000911	20.718932
125.029680	-3.001400	3.857000	-11.575000	21.683321	0.000909	20.741990
126.029382	-3.007100	3.856400	-11.596000	21.716008	0.000910	20.734399
127.033211	-2.987600	3.859100	-11.529000	21.720568	0.000911	20.715254
128.032201	-2.998100	3.857800	-11.564000	21.728944	0.000913	20.739759
129.032399	-2.988700	3.856600	-11.526000	21.731136	0.000912	20.732944
130.033371	-3.004900	3.856800	-11.588000	21.760208	0.000909	20.739755
131.034519	-2.996900	3.857100	-11.558000	21.753724	0.000912	20.738481
132.033344	-2.986200	3.855800	-11.513000	21.754725	0.000912	20.735690
133.036548	-2.996900	3.856300	-11.555000	21.754000	0.000912	20.725955
134.035703	-2.993400	3.856100	-11.542000	21.788156	0.000915	20.746864
135.039314	-3.013000	3.854900	-11.613000	21.799052	0.000912	20.737855
136.038444	-2.986200	3.855500	-11.512000	21.800671	0.000912	20.746588
137.035770	-2.982900	3.855500	-11.498000	21.791419	0.000912	20.726895
138.042933	-3.018400	3.853300	-11.630000	21.813960	0.000913	20.724326
139.037101	-2.978900	3.856300	-11.487000	21.797853	0.000914	20.741397
140.036561	-2.981300	3.856100	-11.493000	21.816704	0.000915	20.745565
141.035085	-2.998000	3.856200	-11.560000	21.840040	0.000914	20.720557
142.036750	-2.985400	3.855500	-11.509000	21.836349	0.000914	20.755271
143.037182	-2.987800	3.854900	-11.516000	21.838092	0.000914	20.743739
144.041571	-2.983700	3.853900	-11.498000	21.835624	0.000914	20.742691
145.037945	-2.978100	3.853800	-11.476000	21.848592	0.000914	20.736230
146.036553	-3.010300	3.854600	-11.602000	21.845004	0.000916	20.744019
147.037696	-2.994700	3.853400	-11.539000	21.871405	0.000916	20.747210
148.038095	-2.996300	3.852300	-11.541000	21.871631	0.000917	20.746963
149.040071	-3.002800	3.853300	-11.569000	21.870383	0.000915	20.745714
150.038613	-3.010300	3.852400	-11.596000	21.889735	0.000915	20.762714
151.038206	-2.996100	3.852200	-11.540000	21.888042	0.000917	20.732094
152.038960	-2.991700	3.851900	-11.522000	21.920126	0.000916	20.758994
153.039304	-3.012300	3.852600	-11.604000	21.942994	0.000918	20.765764
154.038003	-2.996900	3.852000	-11.543000	21.930279	0.000916	20.728853
155.037907	-3.021000	3.851600	-11.634000	21.947335	0.000915	20.765843
156.038980	-3.004100	3.851100	-11.567000	21.948060	0.000917	20.743808
157.037375	-2.998300	3.852100	-11.547000	21.957855	0.000917	20.748872
158.037895	-3.002900	3.851200	-11.564000	21.947686	0.000913	20.747701
159.038048	-2.990800	3.851300	-11.517000	21.935897	0.000920	20.748702
160.037842	-2.994500	3.850200	-11.529000	21.957736	0.000918	20.761554
161.043318	-3.010500	3.851600	-11.594000	21.965792	0.000918	20.751127
162.039776	-2.996800	3.849800	-11.536000	21.997828	0.000919	20.767075
163.040101	-2.996500	3.850600	-11.538000	22.002968	0.000920	20.754202
164.046314	-2.976900	3.850500	-11.462000	22.011523	0.000920	20.753283
165.040131	-2.987800	3.849400	-11.500000	21.990307	0.000922	20.751959
166.041527	-3.008300	3.849700	-11.580000	22.010526	0.000923	20.753708
167.039975	-2.993000	3.848800	-11.519000	22.000781	0.000921	20.753910
168.037448	-2.993100	3.849400	-11.521000	22.019031	0.000921	20.769334
169.041422	-2.986700	3.848600	-11.494000	22.025761	0.000922	20.754734
170.041688	-3.021100	3.848400	-11.625000	22.030428	0.000922	20.771260
171.039292	-3.006500	3.847600	-11.566000	22.032870	0.000924	20.756161
172.039586	-2.989200	3.848700	-11.503000	22.008792	0.000922	20.765722
173.038751	-3.004400	3.848300	-11.561000	22.008471	0.000924	20.749753
174.041466	-2.996000	3.848600	-11.530000	22.050201	0.000925	20.776356
175.041298	-2.996700	3.847000	-11.528000	22.029336	0.000927	20.788185
176.039721	-3.000300	3.845900	-11.538000	22.021436	0.000922	20.751827
177.046313	-2.997400	3.847500	-11.531000	22.036618	0.000926	20.761335
178.043049	-2.976800	3.846700	-11.450000	22.033652	0.000923	20.764531
179.042355	-2.983000	3.846000	-11.471000	22.041482	0.000926	20.766205
180.041430	-2.979700	3.846200	-11.460000	22.049085	0.000926	20.779506
181.043137	-3.009100	3.846300	-11.573000	22.058084	0.000927	20.765755
182.039889	-3.010000	3.845400	-11.574000	22.031189	0.000925	20.750685
183.050713	-3.010700	3.844400	-11.572000	22.044925	0.000926	20.791463
184.047918	-3.028500	3.844900	-11.643000	22.055497	0.000926	20.764588
185.040106	-3.008900	3.845300	-11.569000	22.079179	0.000926	20.793038
186.041842	-3.010800	3.844900	-11.575000	22.091118	0.000929	20.774170
187.040114	-2.999900	3.845400	-11.534000	22.094413	0.000928	20.762296
188.040596	-3.020000	3.844300	-11.609000	22.105553	0.000927	20.764440
189.043643	-3.002200	3.845700	-11.544000	22.117220	0.000926	20.783707
190.042203	-2.999100	3.845400	-11.531000	22.141749	0.000930	20.775073
191.045503	-2.986900	3.843500	-11.479000	22.143322	0.000930	20.748673
192.041706	-3.009500	3.844800	-11.570000	22.159227	0.000930	20.766019
193.046374	-2.973500	3.844200	-11.429000	22.160450	0.000930	20.778149
194.045143	-2.994900	3.844200	-11.512000	22.161920	0.000932	20.765870
195.045703	-2.974800	3.844600	-11.436000	22.164070	0.000933	20.768971
196.051097	-2.986500	3.844200	-11.479000	22.192835	0.000931	20.800616
197.049892	-2.993200	3.843700	-11.503000	22.184734	0.000932	20.764530
198.046357	-2.991800	3.843200	-11.497000	22.216287	0.000934	20.770043
199.051434	-3.004200	3.840300	-11.536000	22.212354	0.000934	20.768476
200.046394	-2.969500	3.843400	-11.412000	22.246978	0.000935	20.783703
201.045699	-3.013500	3.842500	-11.578000	22.255176	0.000936	20.788593
202.045856	-2.977300	3.841300	-11.436000	22.238680	0.000936	20.795784
203.046314	-2.982300	3.842300	-11.458000	22.250420	0.000936	20.778141
204.048295	-2.978000	3.841100	-11.437000	22.261839	0.000939	20.781513
205.048242	-2.993800	3.841400	-11.498000	22.270593	0.000937	20.779848
206.047298	-3.002100	3.841200	-11.530000	22.266060	0.000934	20.790955
207.052419	-3.004500	3.841800	-11.542000	22.261699	0.000935	20.791330
208.047230	-3.004600	3.840600	-11.539000	22.287175	0.000939	20.790287
209.048215	-3.010100	3.839700	-11.555000	22.273871	0.000938	20.780759
210.048308	-2.996800	3.841300	-11.509000	22.283165	0.000937	20.796703
211.049236	-2.993100	3.840200	-11.493000	22.282922	0.000937	20.794563
212.048686	-2.992700	3.839300	-11.488000	22.279208	0.000939	20.784680
213.051988	-2.992900	3.839600	-11.490000	22.285096	0.000940	20.794843
214.048122	-2.991500	3.841500	-11.490000	22.308377	0.000939	20.782119
215.049999	-2.998700	3.840500	-11.514000	22.319446	0.000939	20.799840
216.050497	-2.983100	3.839000	-11.451000	22.326474	0.000940	20.807827
217.053353	-3.012200	3.838400	-11.561000	22.332931	0.000941	20.801964
218.055254	-3.007100	3.838900	-11.543000	22.352077	0.000942	20.811179
219.051133	-3.010000	3.839300	-11.555000	22.352975	0.000942	20.785999
220.051294	-3.006900	3.837000	-11.536000	22.350537	0.000941	20.785929
221.050821	-3.020800	3.837300	-11.590000	22.331177	0.000941	20.787405
222.052549	-3.007300	3.837400	-11.539000	22.354955	0.000945	20.782767
223.054048	-3.003800	3.838300	-11.528000	22.385338	0.000940	20.790432
224.051486	-3.003100	3.837400	-11.524000	22.353539	0.000947	20.784668
225.053210	-2.971000	3.837300	-11.399000	22.366451	0.000946	20.820357
226.053240	-3.008900	3.835500	-11.540000	22.366727	0.000947	20.798822
227.052597	-3.013200	3.835700	-11.556000	22.362140	0.000946	20.810824
228.060966	-3.006400	3.836000	-11.532000	22.378170	0.000947	20.787995
229.055277	-3.010100	3.836000	-11.545000	22.389385	0.000947	20.806339
230.055803	-2.991500	3.835900	-11.474000	22.362844	0.000949	20.792089
231.055191	-3.008000	3.835700	-11.536000	22.382229	0.000947	20.812923
232.054712	-2.996800	3.836900	-11.497000	22.391506	0.000949	20.808462
233.053870	-2.999300	3.835300	-11.501000	22.377478	0.000945	20.819071
234.058923	-2.994100	3.834800	-11.481000	22.391580	0.000952	20.792889
235.055309	-2.994600	3.834500	-11.481000	22.415954	0.000950	20.795487
236.055755	-2.985700	3.835100	-11.449000	22.435663	0.000951	20.807637
237.056256	-2.980000	3.834900	-11.427000	22.437656	0.000950	20.815323
238.054027	-3.027400	3.833100	-11.603000	22.440600	0.000952	20.810684
239.059724	-2.992400	3.834000	-11.471000	22.453931	0.000953	20.798905
240.056733	-2.996300	3.834600	-11.488000	22.453956	0.000952	20.806042
241.057524	-2.998300	3.833200	-11.492000	22.450119	0.000955	20.811208
242.055643	-2.984600	3.833800	-11.441000	22.498362	0.000955	20.823960
243.056261	-2.981400	3.833200	-11.427000	22.489568	0.000955	20.825585
244.057717	-3.005700	3.832200	-11.516000	22.508428	0.000954	20.804170
245.057648	-2.979100	3.833900	-11.421000	22.515707	0.000954	20.818572
246.057202	-2.992200	3.832300	-11.466000	22.521088	0.000957	20.825383
247.057922	-2.998800	3.831000	-11.487000	22.517230	0.000956	20.818675
248.056336	-3.012000	3.831500	-11.540000	22.505863	0.000956	20.824360
249.060966	-2.992600	3.831300	-11.464000	22.517152	0.000955	20.817174
250.057076	-3.019900	3.830600	-11.566000	22.509330	0.000957	20.822142
251.057991	-2.995700	3.832400	-11.479000	22.511619	0.000958	20.814952
252.061467	-2.988000	3.832400	-11.449000	22.525299	0.000958	20.820592
253.059518	-2.997100	3.831200	-11.481000	22.532652	0.000957	20.835068
254.058628	-3.002200	3.830600	-11.499000	22.526398	0.000958	20.821219
255.062894	-2.999400	3.829500	-11.485000	22.528893	0.000959	20.821821
256.058327	-2.999800	3.829400	-11.486000	22.532158	0.000958	20.809443
257.061275	-2.991000	3.830700	-11.456000	22.522911	0.000959	20.834321
258.059619	-2.985600	3.831400	-11.438000	22.535279	0.000959	20.807827
259.060256	-3.001300	3.830800	-11.496000	22.548930	0.000960	20.825292
260.059520	-2.984300	3.830400	-11.429000	22.572325	0.000959	20.842559
261.061450	-3.004500	3.829400	-11.504000	22.574025	0.000957	20.840469
262.059534	-3.004600	3.829500	-11.505000	22.576718	0.000961	20.833208
263.061826	-2.988700	3.829200	-11.444000	22.596379	0.000960	20.836779
264.060704	-3.001500	3.829700	-11.494000	22.603352	0.000962	20.826694
265.061101	-3.010300	3.829200	-11.526000	22.621325	0.000963	20.827152
266.064924	-3.004900	3.828500	-11.502000	22.630962	0.000964	20.838226
267.060503	-2.986600	3.829100	-11.436000	22.605205	0.000964	20.813851
268.062169	-2.993600	3.827600	-11.457000	22.625141	0.000964	20.836189
269.061287	-3.000700	3.826900	-11.483000	22.634136	0.000965	20.830500
270.062436	-2.985500	3.828600	-11.429000	22.650404	0.000964	20.840156
271.064286	-2.996200	3.825300	-11.459000	22.651729	0.000966	20.816354
272.064357	-2.998300	3.827800	-11.475000	22.668001	0.000964	20.839764
273.063598	-3.012300	3.826800	-11.527000	22.682701	0.000966	20.854487
274.066791	-3.015400	3.824700	-11.532000	22.684520	0.000967	20.853465
275.065713	-2.984000	3.827100	-11.419000	22.684565	0.000970	20.812734
276.068567	-2.997700	3.825700	-11.466000	22.672464	0.000968	20.830483
277.065341	-3.010100	3.824700	-11.511000	22.668228	0.000968	20.858956
278.067553	-3.009300	3.824400	-11.507000	22.641047	0.000970	20.824621
279.066320	-2.999700	3.824700	-11.471000	22.672641	0.000971	20.813117
280.066709	-2.991500	3.825900	-11.444000	22.684644	0.000972	20.832726
281.068672	-2.990300	3.825000	-11.436000	22.705106	0.000970	20.829989
282.069349	-2.994600	3.825000	-11.453000	22.698232	0.000972	20.842069
283.067091	-2.996400	3.822800	-11.454000	22.728374	0.000969	20.839072
284.067546	-2.994800	3.823800	-11.450000	22.714894	0.000972	20.823672
285.070536	-3.019900	3.823000	-11.544000	22.744065	0.000973	20.847202
286.066776	-3.014500	3.822800	-11.524000	22.717014	0.000975	20.830537
287.069348	-3.016200	3.822200	-11.528000	22.736668	0.000973	20.816086
288.066786	-2.979300	3.823300	-11.390000	22.741229	0.000975	20.831560
289.067536	-2.995300	3.822400	-11.447000	22.756129	0.000970	20.829416
290.065330	-3.002800	3.823100	-11.477000	22.772823	0.000974	20.846138
291.066710	-2.986200	3.822600	-11.415000	22.775462	0.000975	20.837876
292.066366	-3.018800	3.820200	-11.531000	22.800898	0.000976	20.810726
293.065759	-3.005600	3.821200	-11.484000	22.822197	0.000977	20.799821
294.066028	-3.011100	3.822100	-11.507000	22.834153	0.000978	20.827919
295.065019	-3.003800	3.820600	-11.475000	22.833211	0.000978	20.817018
296.068770	-2.986100	3.822200	-11.413000	22.846163	0.000978	20.828096
297.066847	-3.000400	3.821400	-11.465000	22.847085	0.000978	20.808158
298.070662	-2.981700	3.821600	-11.392000	22.840537	0.000980	20.811081
299.068231	-3.000200	3.820000	-11.460000	22.882364	0.000981	20.815051
300.067911	-3.024800	3.820300	-11.554000	22.861811	0.000981	20.810582
301.069355	-2.995200	3.819300	-11.438000	22.864848	0.000983	20.812677
302.070239	-2.981700	3.820400	-11.389000	22.868836	0.000983	20.792964
303.071488	-2.978600	3.819600	-11.376000	22.856436	0.000981	20.805672
304.070056	-3.001400	3.819100	-11.462000	22.867071	0.000982	20.825334
305.071797	-3.013100	3.818400	-11.504000	22.840471	0.000982	20.801058
306.070262	-2.988600	3.818100	-11.408000	22.842488	0.000983	20.796914
307.071821	-3.017100	3.817900	-11.518000	22.838578	0.000982	20.812438
308.077994	-2.999500	3.819000	-11.454000	22.855666	0.000983	20.787831
309.073276	-3.011200	3.817600	-11.494000	22.859477	0.000985	20.801606
310.071520	-2.974700	3.818300	-11.356000	22.882891	0.000986	20.805622
311.071120	-2.996500	3.816900	-11.437000	22.880031	0.000986	20.785687
312.071011	-2.996000	3.818000	-11.438000	22.882195	0.000987	20.795442
313.073113	-3.000200	3.816600	-11.450000	22.891143	0.000988	20.816260
314.075461	-3.018900	3.816600	-11.520000	22.892632	0.000987	20.811588
315.074703	-3.005400	3.816400	-11.469000	22.926536	0.000987	20.788182
316.080632	-3.015900	3.814500	-11.501000	22.900259	0.000989	20.794573
317.074084	-3.005800	3.816500	-11.471000	22.913539	0.000987	20.800766
318.080307	-2.998300	3.817300	-11.445000	22.901831	0.000990	20.796148
319.078690	-2.983200	3.815900	-11.382000	22.919268	0.000989	20.811720
320.076266	-2.999000	3.814900	-11.440000	22.913568	0.000990	20.797475
321.076421	-2.993400	3.815200	-11.419000	22.943133	0.000990	20.790586
322.073840	-2.978200	3.816200	-11.365000	22.919918	0.000990	20.813320
323.074082	-2.999700	3.814200	-11.441000	22.907490	0.000992	20.807033
324.075090	-2.978300	3.815700	-11.363000	22.935491	0.000989	20.803318
325.079128	-2.990700	3.815800	-11.411000	22.921692	0.000990	20.785700
326.078634	-3.003400	3.814200	-11.455000	22.926375	0.000992	20.798927
327.077059	-2.993800	3.812400	-11.413000	22.959261	0.000994	20.793942
328.077720	-3.008300	3.813600	-11.471000	22.944561	0.000993	20.814302
329.079438	-3.020600	3.812800	-11.516000	22.952961	0.000994	20.817027
330.080240	-3.000600	3.812600	-11.439000	22.959459	0.000994	20.790347
331.076343	-3.018700	3.811200	-11.504000	22.958270	0.000994	20.784414
332.075730	-2.988900	3.812500	-11.393000	22.961627	0.000994	20.774028
333.076764	-3.036600	3.811000	-11.571000	22.966290	0.000994	20.788657
334.078261	-3.034600	3.809900	-11.561000	22.966541	0.000996	20.788908
335.081298	-2.986300	3.811800	-11.382000	22.959541	0.000996	20.792800
336.077036	-2.990600	3.812100	-11.399000	22.945249	0.000998	20.786068
337.078890	-2.999700	3.811800	-11.432000	22.961389	0.000996	20.801290
338.077244	-2.990900	3.811700	-11.399000	22.956434	0.000997	20.775937
339.077470	-3.013300	3.809800	-11.478000	22.957303	0.000997	20.780126
340.081236	-2.975700	3.810400	-11.336000	22.944829	0.000997	20.782328
341.086397	-3.007400	3.809500	-11.456000	22.930162	0.000999	20.770952
342.078483	-3.023700	3.809700	-11.518000	22.962192	0.000999	20.775541
343.077858	-3.018100	3.808400	-11.493000	22.953476	0.000999	20.790042
344.078563	-2.993200	3.808800	-11.399000	22.939603	0.000998	20.792739
345.078368	-2.982300	3.810200	-11.362000	22.971513	0.001001	20.775871
346.082815	-3.003600	3.808200	-11.437000	22.961851	0.001000	20.789424
347.079109	-2.989400	3.809100	-11.386000	22.996472	0.001003	20.761997
348.078394	-2.993700	3.809500	-11.404000	23.024450	0.001002	20.779125
349.077913	-3.001000	3.806600	-11.423000	22.997097	0.001001	20.778745
350.079095	-3.010000	3.806300	-11.456000	23.032820	0.001003	20.781822
351.080333	-2.988000	3.807800	-11.376000	23.041935	0.001003	20.779574
352.079004	-2.994900	3.807900	-11.402000	23.017903	0.001002	20.759288
353.080643	-3.010500	3.806700	-11.459000	23.036083	0.001002	20.786988
354.079688	-3.011400	3.806500	-11.461000	23.020545	0.001005	20.771893
355.080678	-2.994200	3.807100	-11.398000	23.019101	0.001005	20.773291
356.083682	-3.004800	3.805500	-11.432000	23.042841	0.001005	20.763886
357.081605	-3.011800	3.805800	-11.461000	23.042717	0.001006	20.770401
358.080024	-3.006600	3.806400	-11.444000	23.023591	0.001006	20.775893
359.080950	-2.999900	3.805800	-11.416000	23.042800	0.001004	20.782338
360.080455	-2.996500	3.804500	-11.400000	23.036347	0.001005	20.770183
361.080140	-2.991700	3.805500	-11.384000	23.049622	0.001006	20.772578
362.082747	-2.999800	3.804900	-11.413000	23.049005	0.001005	20.770063
363.081179	-3.005200	3.804000	-11.431000	23.048232	0.001007	20.767391
364.082576	-3.011800	3.803100	-11.453000	23.075160	0.001007	20.769717
365.080802	-3.010100	3.803100	-11.445000	23.083381	0.001007	20.759463
366.080534	-3.009900	3.802700	-11.445000	23.087216	0.001009	20.764728
367.083568	-3.040300	3.802600	-11.560000	23.058803	0.001007	20.772768
368.081491	-3.017900	3.801900	-11.473000	23.053425	0.001009	20.763112
369.081396	-2.991800	3.803000	-11.377000	23.047594	0.001011	20.789038
370.080113	-2.999700	3.802600	-11.404000	23.045780	0.001010	20.756399
371.082835	-3.002200	3.802300	-11.415000	23.070737	0.001010	20.773820
372.087221	-2.996300	3.801500	-11.389000	23.039327	0.001010	20.768427
373.087675	-2.999700	3.801800	-11.403000	23.029818	0.001009	20.742302
374.083527	-3.000100	3.801700	-11.404000	23.062770	0.001010	20.776269
375.085910	-3.005900	3.802300	-11.429000	23.047504	0.001010	20.778042
376.087762	-3.009400	3.801300	-11.439000	23.044768	0.001011	20.759653
377.087093	-3.026800	3.801400	-11.504000	23.055751	0.001014	20.749794
378.091067	-3.005400	3.801300	-11.424000	23.097693	0.001013	20.734448
379.087173	-2.984100	3.802300	-11.345000	23.098442	0.001014	20.777399
380.087389	-3.006200	3.801700	-11.427000	23.112909	0.001013	20.744005
381.085051	-3.001300	3.800100	-11.404000	23.129446	0.001014	20.764844
382.088283	-2.995300	3.801000	-11.384000	23.136194	0.001014	20.768761
383.087107	-2.989300	3.800100	-11.358000	23.119007	0.001015	20.753909
384.086848	-3.015500	3.798900	-11.455000	23.115798	0.001014	20.741210
385.090281	-3.021000	3.798600	-11.474000	23.134129	0.001015	20.770485
386.087317	-2.987900	3.799200	-11.351000	23.132265	0.001015	20.750125
387.089453	-2.981000	3.799400	-11.325000	23.153480	0.001015	20.752891
388.088359	-2.977200	3.798700	-11.309000	23.174126	0.001016	20.749873
389.089055	-2.995500	3.798400	-11.378000	23.187745	0.001019	20.756882
390.088030	-2.976400	3.798600	-11.304000	23.202796	0.001018	20.764853
391.090743	-3.011200	3.795800	-11.429000	23.200603	0.001019	20.745585
392.089734	-3.013700	3.798100	-11.446000	23.196620	0.001018	20.736378
393.090731	-3.001000	3.797200	-11.394000	23.207749	0.001018	20.754644
394.093203	-3.001200	3.796400	-11.393000	23.198661	0.001019	20.747432
395.091331	-2.987500	3.797100	-11.344000	23.189745	0.001020	20.758412
396.091746	-2.993800	3.796300	-11.364000	23.208922	0.001019	20.738749
397.089975	-2.994300	3.795200	-11.363000	23.223668	0.001019	20.742147
398.092584	-3.014500	3.794300	-11.437000	23.210416	0.001020	20.746410
399.091368	-3.017200	3.794100	-11.447000	23.207853	0.001020	20.747634
400.097007	-3.002300	3.794500	-11.391000	23.193386	0.001019	20.760639
401.094514	-3.006200	3.793800	-11.404000	23.208301	0.001020	20.733859
402.095595	-3.001800	3.794900	-11.391000	23.222224	0.001022	20.761563
403.091771	-3.013700	3.793800	-11.431000	23.225013	0.001023	20.730692
404.096325	-3.003100	3.793100	-11.390000	23.236669	0.001023	20.740951
405.097359	-2.998500	3.793200	-11.372000	23.246630	0.001022	20.738605
406.095515	-2.984300	3.794600	-11.323000	23.245708	0.001024	20.749061
407.095024	-2.980200	3.793900	-11.305000	23.251859	0.001025	20.742423
408.093294	-2.988900	3.793500	-11.337000	23.221578	0.001023	20.755226
409.096198	-3.000200	3.792400	-11.377000	23.267995	0.001024	20.776138
410.095317	-3.016500	3.789200	-11.428000	23.241100	0.001023	20.760091
411.096785	-2.994700	3.792100	-11.356000	23.284278	0.001023	20.744093
412.095802	-3.030200	3.789900	-11.483000	23.308810	0.001023	20.746868
413.097133	-2.995600	3.791700	-11.357000	23.308362	0.001024	20.743573
414.094229	-2.998400	3.791900	-11.369000	23.320835	0.001024	20.738531
415.096083	-3.012000	3.790600	-11.415000	23.321362	0.001026	20.758500
416.099099	-3.003600	3.790200	-11.382000	23.304207	0.001025	20.740832
417.097518	-2.987600	3.791200	-11.326000	23.326147	0.001026	20.744803
418.096552	-2.999200	3.790500	-11.367000	23.324427	0.001027	20.740708
419.096760	-3.040600	3.788500	-11.518000	23.307947	0.001026	20.734148
420.100190	-3.018800	3.788000	-11.435000	23.333721	0.001028	20.719675
421.097594	-3.015200	3.787500	-11.419000	23.346297	0.001026	20.740341
422.102090	-2.986300	3.789600	-11.316000	23.332824	0.001028	20.741063
423.099779	-3.002500	3.787600	-11.372000	23.337411	0.001028	20.738074
424.099741	-2.984200	3.788300	-11.304000	23.332705	0.001027	20.750427
425.109065	-3.012700	3.787000	-11.408000	23.332808	0.001030	20.732038
426.104902	-3.011900	3.787400	-11.407000	23.339176	0.001029	20.753594
427.100481	-3.011800	3.786300	-11.402000	23.321256	0.001030	20.730891
428.100546	-3.003100	3.787000	-11.371000	23.310473	0.001029	20.745216
429.100912	-3.009000	3.787400	-11.395000	23.281371	0.001027	20.731222
430.100379	-3.012100	3.785300	-11.400000	23.302238	0.001029	20.739806
431.101884	-2.993300	3.785900	-11.332000	23.303933	0.001030	20.726331
432.101059	-3.009200	3.784900	-11.388000	23.280947	0.001029	20.721313
433.104486	-2.994600	3.786100	-11.338000	23.308018	0.001032	20.717623
434.102639	-3.009300	3.784700	-11.388000	23.283317	0.001031	20.739336
435.106488	-2.987100	3.786700	-11.309000	23.291809	0.001031	20.727457
436.104635	-3.003200	3.784000	-11.363000	23.294549	0.001029	20.715978
437.104414	-3.012600	3.785000	-11.401000	23.284412	0.001030	20.712456
438.105050	-3.005400	3.784900	-11.374000	23.348511	0.001032	20.716955
439.104053	-3.010900	3.784800	-11.394000	23.358422	0.001032	20.708870
440.105896	-3.019800	3.782600	-11.421000	23.363527	0.001031	20.728686
441.105655	-3.008900	3.783900	-11.384000	23.397613	0.001032	20.741514
442.106244	-3.006600	3.783700	-11.374000	23.419522	0.001034	20.729334
443.106150	-3.031100	3.782100	-11.463000	23.410283	0.001032	20.732875
444.106091	-3.009500	3.782200	-11.382000	23.415347	0.001031	20.719459
445.105328	-3.012800	3.781300	-11.391000	23.428416	0.001034	20.719756
446.107285	-3.002600	3.781400	-11.352000	23.426947	0.001035	20.746734
447.108447	-3.010100	3.781400	-11.381000	23.439473	0.001033	20.727994
448.108102	-3.019700	3.779300	-11.412000	23.460484	0.001034	20.716337
449.108390	-3.005200	3.780700	-11.361000	23.445150	0.001036	20.711872
450.107317	-3.005500	3.781100	-11.362000	23.432081	0.001034	20.719636
451.108428	-3.008000	3.780700	-11.372000	23.448490	0.001034	20.731817
452.109374	-3.006100	3.780300	-11.363000	23.426429	0.001034	20.707806
453.110197	-3.001000	3.779000	-11.340000	23.445903	0.001033	20.699349
454.111635	-3.007100	3.779300	-11.364000	23.447376	0.001034	20.732122
455.110908	-2.991900	3.778800	-11.305000	23.471028	0.001036	20.718371
456.110063	-3.005000	3.778300	-11.352000	23.465031	0.001034	20.697185
457.112172	-2.993300	3.779800	-11.313000	23.473299	0.001037	20.704051
458.113165	-2.976700	3.779100	-11.248000	23.462143	0.001035	20.728432
459.114519	-2.998600	3.778100	-11.328000	23.473299	0.001037	20.722544
460.119524	-2.989200	3.778700	-11.295000	23.486997	0.001036	20.709721
461.112834	-2.992800	3.777700	-11.305000	23.463838	0.001035	20.704999
462.115127	-3.000800	3.778000	-11.336000	23.452238	0.001039	20.716132
463.119837	-3.020800	3.777200	-11.410000	23.494314	0.001036	20.721798
464.116102	-3.017500	3.775500	-11.391000	23.473377	0.001035	20.716458
465.120265	-2.996100	3.775700	-11.312000	23.488194	0.001037	20.709498
466.116326	-3.002400	3.777100	-11.339000	23.493245	0.001037	20.718355
467.116131	-3.011600	3.775000	-11.367000	23.448631	0.001038	20.692126
468.120910	-3.029200	3.773800	-11.430000	23.462695	0.001038	20.711440
469.125444	-2.984800	3.775800	-11.267000	23.448454	0.001036	20.714710
470.121681	-3.004600	3.775200	-11.341000	23.457545	0.001039	20.707226
471.118783	-3.009800	3.774500	-11.359000	23.435657	0.001037	20.705201
472.124007	-3.006600	3.775400	-11.350000	23.432971	0.001039	20.689232
473.123870	-2.991600	3.774700	-11.292000	23.476038	0.001038	20.706323
474.122184	-2.999200	3.774300	-11.319000	23.486598	0.001038	20.709321
475.124323	-3.013200	3.773900	-11.370000	23.500887	0.001039	20.698039
476.128799	-2.992700	3.773300	-11.291000	23.530884	0.001040	20.699659
477.122086	-2.995000	3.773000	-11.300000	23.528244	0.001039	20.700331
478.123281	-3.008700	3.772700	-11.350000	23.542611	0.001038	20.701932
479.125727	-3.002700	3.772300	-11.325000	23.512166	0.001040	20.685636
480.123428	-3.007500	3.772500	-11.344000	23.493162	0.001040	20.728230
481.129369	-2.991700	3.771600	-11.282000	23.490875	0.001039	20.698909
482.122693	-3.001900	3.772600	-11.323000	23.489954	0.001043	20.696088
483.123926	-3.024000	3.770500	-11.401000	23.506510	0.001039	20.714582
484.127141	-2.997800	3.771900	-11.306000	23.494783	0.001041	20.699981
485.123268	-3.006100	3.771000	-11.335000	23.520794	0.001040	20.692389
486.126480	-2.987000	3.772000	-11.266000	23.513300	0.001041	20.684402
487.128773	-3.013100	3.770100	-11.358000	23.521835	0.001042	20.697226
488.127119	-3.023100	3.770100	-11.395000	23.528811	0.001040	20.690468
489.135882	-3.012900	3.769700	-11.357000	23.528609	0.001040	20.713501
490.123382	-2.982100	3.770700	-11.244000	23.528363	0.001044	20.681009
491.129295	-2.982600	3.770400	-11.245000	23.508673	0.001042	20.691618
492.121866	-2.993400	3.769200	-11.282000	23.533113	0.001043	20.686719
493.127822	-2.993400	3.768300	-11.280000	23.535404	0.001040	20.692335
494.126968	-2.973700	3.769300	-11.207000	23.553876	0.001042	20.672444
495.125403	-2.999100	3.767100	-11.297000	23.512350	0.001043	20.688666
496.128087	-2.985800	3.768600	-11.250000	23.527565	0.001041	20.702022
497.125451	-3.010200	3.765400	-11.334000	23.504736	0.001042	20.692888
498.123120	-3.009200	3.766700	-11.334000	23.491339	0.001042	20.680881
499.127759	-3.007500	3.766200	-11.325000	23.523875	0.001044	20.695952
500.126879	-3.021700	3.766200	-11.378000	23.540932	0.001044	20.683177
501.126482	-3.009500	3.765200	-11.331000	23.564977	0.001041	20.706334
502.129423	-2.995300	3.766300	-11.281000	23.572919	0.001044	20.716193
503.124422	-3.017700	3.764000	-11.358000	23.603968	0.001043	20.692315
504.125607	-3.012100	3.766000	-11.343000	23.598609	0.001042	20.688839
505.131609	-2.984500	3.766000	-11.239000	23.567416	0.001044	20.713047
506.125466	-3.007100	3.764100	-11.318000	23.561695	0.001043	20.698776
507.125932	-3.022400	3.763700	-11.374000	23.571200	0.001043	20.687441
508.128429	-3.014900	3.762500	-11.342000	23.583226	0.001042	20.684798
509.129291	-3.011500	3.764100	-11.335000	23.607797	0.001045	20.685247
510.128264	-3.017800	3.763000	-11.355000	23.634135	0.001043	20.687944
511.134026	-3.021100	3.761400	-11.363000	23.623898	0.001044	20.676732
512.129989	-3.011700	3.763400	-11.333000	23.646778	0.001044	20.693032
513.130656	-2.990800	3.762800	-11.252000	23.646029	0.001043	20.709353
514.129877	-2.996000	3.762100	-11.270000	23.650113	0.001045	20.711550
515.131275	-2.999600	3.762100	-11.283000	23.663800	0.001044	20.680224
516.135063	-3.005300	3.761900	-11.304000	23.658026	0.001043	20.680126
517.131629	-3.016600	3.760600	-11.343000	23.664775	0.001041	20.680254
518.131419	-2.996600	3.762500	-11.274000	23.666810	0.001043	20.682769
519.133652	-3.000200	3.760600	-11.281000	23.668180	0.001045	20.681771
520.131225	-2.990700	3.761400	-11.248000	23.658277	0.001044	20.687016
521.133982	-3.010900	3.759200	-11.317000	23.672116	0.001046	20.685243
522.131029	-3.015800	3.759300	-11.336000	23.701163	0.001045	20.671215
523.132674	-2.994100	3.760700	-11.258000	23.690836	0.001043	20.676509
524.131603	-3.019400	3.758700	-11.348000	23.739416	0.001043	20.704829
525.132333	-3.008200	3.758500	-11.306000	23.735662	0.001043	20.697271
526.134741	-3.004800	3.759600	-11.296000	23.724415	0.001044	20.691684
527.135341	-3.005600	3.757200	-11.292000	23.704852	0.001043	20.688191
528.134134	-3.011900	3.757300	-11.316000	23.715503	0.001046	20.706458
529.137239	-2.980200	3.759500	-11.203000	23.719262	0.001044	20.681775
530.135338	-3.019500	3.757200	-11.343000	23.752272	0.001045	20.671722
531.135293	-2.997800	3.757300	-11.263000	23.744722	0.001044	20.673635
532.139867	-3.019700	3.755300	-11.339000	23.762397	0.001047	20.686616
533.136810	-3.003500	3.756200	-11.279000	23.746149	0.001044	20.686447
534.139266	-3.003800	3.756000	-11.281000	23.758864	0.001045	20.687342
535.138990	-3.018500	3.755400	-11.335000	23.739829	0.001045	20.673471
536.136325	-2.996400	3.755900	-11.253000	23.740647	0.001044	20.695630
537.141003	-3.019600	3.754800	-11.336000	23.755406	0.001045	20.682452
538.143730	-3.008400	3.754600	-11.294000	23.732977	0.001044	20.686043
539.137850	-3.002100	3.753500	-11.267000	23.746302	0.001045	20.681858
540.139210	-3.008800	3.752800	-11.290000	23.726414	0.001046	20.688472
541.138588	-2.983600	3.752800	-11.197000	23.756105	0.001045	20.681730
542.138727	-2.998400	3.752700	-11.251000	23.779952	0.001045	20.688571
543.143725	-2.989100	3.754000	-11.219000	23.810066	0.001045	20.702170
544.139296	-3.001000	3.752800	-11.261000	23.805036	0.001046	20.680530
545.142383	-2.986800	3.753000	-11.208000	23.799509	0.001046	20.698224
546.140569	-2.986900	3.753000	-11.209000	23.814001	0.001045	20.694736
547.141010	-2.991600	3.752100	-11.225000	23.826868	0.001046	20.663537
548.144843	-3.004100	3.751500	-11.269000	23.823557	0.001044	20.687722
549.142982	-2.996900	3.751000	-11.240000	23.832867	0.001047	20.688047
550.144167	-3.005700	3.751400	-11.273000	23.843640	0.001046	20.696480
551.143336	-2.996700	3.750900	-11.238000	23.851926	0.001047	20.698624
552.146612	-3.024100	3.750100	-11.340000	23.864019	0.001047	20.694154
553.148491	-3.002000	3.749100	-11.254000	23.881441	0.001045	20.708305
554.144320	-3.018500	3.749300	-11.317000	23.890129	0.001046	20.679557
555.146588	-3.013200	3.750200	-11.299000	23.867728	0.001045	20.684121
556.146640	-3.032900	3.748400	-11.367000	23.849163	0.001044	20.676885
557.146650	-3.034800	3.747900	-11.373000	23.817352	0.001045	20.696673
558.146066	-3.004200	3.749000	-11.262000	23.821283	0.001044	20.682595
559.147894	-3.005500	3.748600	-11.266000	23.819741	0.001046	20.682946
560.148941	-2.995200	3.748300	-11.227000	23.828327	0.001045	20.698669
561.146597	-3.005600	3.747400	-11.262000	23.833154	0.001047	20.681222
562.153749	-3.005500	3.746500	-11.259000	23.824869	0.001044	20.677656
563.149758	-2.987400	3.746500	-11.191000	23.842809	0.001047	20.697543
564.153033	-2.993300	3.747300	-11.216000	23.860261	0.001046	20.692282
565.149932	-2.981000	3.748000	-11.172000	23.869521	0.001045	20.706310
566.151849	-3.021600	3.744800	-11.314000	23.892189	0.001047	20.703910
567.150620	-2.985800	3.746700	-11.185000	23.842690	0.001046	20.682723
568.150515	-2.997100	3.746500	-11.227000	23.836469	0.001046	20.685969
569.152236	-3.001800	3.745600	-11.243000	23.811381	0.001047	20.690686
570.149718	-2.991000	3.746400	-11.205000	23.815613	0.001045	20.693506
571.151833	-3.020800	3.744000	-11.309000	23.775391	0.001046	20.703440
572.152926	-2.999600	3.745100	-11.233000	23.783308	0.001045	20.705687
573.152761	-2.989600	3.744200	-11.193000	23.789056	0.001045	20.705761
574.155207	-2.989100	3.744000	-11.189000	23.809514	0.001046	20.714420
575.154795	-2.991200	3.742800	-11.195000	23.848542	0.001045	20.714198
576.152519	-3.019000	3.743600	-11.302000	23.851778	0.001046	20.700846
577.152685	-3.024500	3.743000	-11.320000	23.859895	0.001046	20.707089
578.152491	-3.002200	3.742800	-11.236000	23.867983	0.001047	20.710932
579.152352	-3.014200	3.741200	-11.275000	23.875574	0.001045	20.726131
580.158235	-3.009300	3.741500	-11.259000	23.880327	0.001044	20.699601
581.154688	-3.000700	3.741400	-11.225000	23.884011	0.001047	20.692389
582.156646	-3.002800	3.741300	-11.233000	23.897778	0.001046	20.671104
583.153376	-3.008300	3.741000	-11.252000	23.885159	0.001044	20.709662
584.153231	-2.994300	3.741900	-11.203000	23.868234	0.001046	20.712132
585.154772	-3.016900	3.739700	-11.280000	23.836605	0.001044	20.719299
586.157303	-3.015700	3.740000	-11.277000	23.848875	0.001046	20.687029
587.154802	-3.004500	3.740500	-11.237000	23.821473	0.001044	20.713135
588.155371	-2.987800	3.742000	-11.179000	23.837679	0.001046	20.716582
589.154159	-2.995700	3.739600	-11.202000	23.856323	0.001044	20.751399
590.155886	-3.009400	3.738800	-11.251000	23.858214	0.001045	20.706826
591.159290	-3.013700	3.738000	-11.264000	23.864258	0.001045	20.727113
592.156740	-3.008000	3.738500	-11.244000	23.875834	0.001044	20.706950
593.160476	-3.018700	3.737400	-11.279000	23.915228	0.001043	20.710892
594.159916	-3.007700	3.738200	-11.242000	23.924936	0.001045	20.707350
595.157814	-2.991400	3.739100	-11.184000	23.956991	0.001044	20.724322
596.156919	-3.004200	3.737500	-11.226000	23.928123	0.001043	20.720029
597.155667	-3.009600	3.736900	-11.246000	23.935314	0.001045	20.696893
598.182263	-3.009600	3.736600	-11.245000	23.938131	0.001044	20.716314
599.158378	-2.995600	3.736000	-11.190000	23.938579	0.001044	20.697322
600.156751	-3.009700	3.735400	-11.242000	23.935668	0.001043	20.725225
601.158930	-2.982800	3.737500	-11.147000	23.956724	0.001044	20.707458
602.161781	-2.994000	3.736400	-11.186000	23.936121	0.001044	20.727101
603.159340	-2.977200	3.735500	-11.120000	23.965539	0.001043	20.743801
604.170674	-3.001600	3.735600	-11.211000	23.963525	0.001045	20.727081
605.159178	-2.990200	3.735700	-11.169000	23.968804	0.001043	20.735221
606.158004	-3.007600	3.733800	-11.228000	23.984831	0.001042	20.704824
607.161356	-2.984600	3.734500	-11.145000	23.995710	0.001045	20.708622
608.159374	-2.985200	3.734100	-11.145000	24.040380	0.001043	20.730661
609.162549	-3.005500	3.733000	-11.219000	24.042197	0.001043	20.715887
610.160678	-2.987500	3.733600	-11.154000	24.043069	0.001043	20.734306
611.163155	-2.994700	3.732800	-11.178000	24.070071	0.001043	20.730092
612.164861	-3.020900	3.732600	-11.274000	24.101521	0.001043	20.734133
613.165306	-3.013500	3.731300	-11.243000	24.098738	0.001043	20.729445
614.160646	-2.994500	3.731400	-11.173000	24.087421	0.001043	20.710981
615.159767	-2.991000	3.731800	-11.162000	24.049574	0.001043	20.721389
616.160643	-2.991300	3.732000	-11.163000	24.038551	0.001044	20.737362
617.159786	-2.998700	3.731100	-11.188000	24.045047	0.001045	20.728704
618.162835	-3.014400	3.730600	-11.245000	24.032454	0.001042	20.718919
619.160479	-2.988100	3.730200	-11.146000	24.013374	0.001042	20.730131
620.164327	-3.012900	3.730200	-11.238000	24.002972	0.001043	20.716853
621.162810	-3.004500	3.729900	-11.205000	23.971318	0.001044	20.727784
622.161270	-3.005600	3.729400	-11.208000	23.971791	0.001042	20.726836
623.164909	-2.980300	3.729700	-11.115000	23.987921	0.001043	20.743960
624.164144	-2.982800	3.729800	-11.124000	24.018353	0.001042	20.728960
625.161271	-3.003300	3.729100	-11.199000	24.007701	0.001043	20.720647
626.161370	-3.012300	3.726900	-11.226000	24.040373	0.001042	20.725912
627.160548	-3.005800	3.728800	-11.207000	24.051129	0.001042	20.747131
628.161173	-2.997900	3.727500	-11.174000	24.059934	0.001044	20.741738
629.163868	-2.989500	3.727100	-11.142000	24.076757	0.001043	20.725418
630.161141	-3.001400	3.727300	-11.186000	24.095245	0.001043	20.717406
631.162413	-3.001800	3.726700	-11.187000	24.090374	0.001043	20.746662
632.161525	-2.977400	3.728500	-11.101000	24.088976	0.001044	20.732456
633.161987	-3.011700	3.725600	-11.220000	24.110999	0.001043	20.743165
634.166899	-2.996600	3.725800	-11.162000	24.130485	0.001040	20.735207
635.163731	-3.015900	3.725300	-11.234000	24.152955	0.001041	20.721708
636.166059	-2.979700	3.725300	-11.098000	24.128249	0.001042	20.744345
637.163297	-3.007000	3.723500	-11.195000	24.138699	0.001041	20.733488
638.166583	-2.991800	3.724900	-11.143000	24.125885	0.001041	20.748612
639.167137	-3.002600	3.724700	-11.183000	24.124590	0.001042	20.753003
640.171486	-2.991800	3.722900	-11.136000	24.143480	0.001041	20.728800
641.165900	-2.997700	3.723100	-11.160000	24.135689	0.001041	20.738531
642.165294	-2.984100	3.723300	-11.109000	24.165004	0.001039	20.754657
643.165746	-2.977100	3.723400	-11.084000	24.189409	0.001038	20.748790
644.167608	-2.954200	3.724700	-11.002000	24.182569	0.001042	20.762792
645.166035	-2.994600	3.722000	-11.145000	24.179906	0.001040	20.743050
646.169902	-3.011800	3.722500	-11.209000	24.193890	0.001040	20.748542
647.169962	-2.997900	3.721400	-11.154000	24.192546	0.001039	20.745772
648.167322	-3.024300	3.720700	-11.251000	24.208495	0.001040	20.741855
649.167204	-2.999100	3.720700	-11.158000	24.192300	0.001040	20.740308
650.170319	-3.022400	3.721200	-11.246000	24.213819	0.001039	20.760945
651.167928	-3.020600	3.720600	-11.238000	24.212799	0.001039	20.756603
652.169695	-3.005800	3.719900	-11.180000	24.211607	0.001038	20.757305
653.169790	-2.975600	3.720400	-11.070000	24.193245	0.001040	20.752163
654.172009	-2.994100	3.720000	-11.137000	24.185332	0.001037	20.755606
655.171626	-2.988400	3.721200	-11.119000	24.210086	0.001042	20.753408
656.175671	-2.985500	3.720000	-11.105000	24.230989	0.001038	20.755408
657.172848	-2.978200	3.720200	-11.078000	24.220416	0.001035	20.758554
658.205188	-3.002000	3.718600	-11.163000	24.245894	0.001038	20.764195
659.171280	-2.994100	3.718700	-11.133000	24.264156	0.001037	20.754064
660.171748	-2.983800	3.719900	-11.099000	24.260798	0.001037	20.727461
661.171947	-2.990200	3.718000	-11.117000	24.275476	0.001038	20.754039
662.172164	-2.969300	3.718500	-11.040000	24.247390	0.001037	20.778498
663.174815	-2.997700	3.717800	-11.144000	24.233608	0.001036	20.759457
664.174406	-3.017400	3.715900	-11.211000	24.209174	0.001038	20.767667
665.173134	-3.018300	3.716600	-11.216000	24.172051	0.001036	20.766941
666.175016	-2.996500	3.717500	-11.139000	24.201389	0.001037	20.761280
667.175914	-2.984000	3.716800	-11.089000	24.198055	0.001036	20.765997
668.172851	-3.006200	3.716400	-11.171000	24.208115	0.001036	20.763759
669.171861	-3.020300	3.716100	-11.223000	24.220553	0.001035	20.755846
670.172675	-3.003300	3.715900	-11.159000	24.260857	0.001037	20.792954
671.175925	-3.009600	3.714200	-11.177000	24.271704	0.001037	20.758316
672.174055	-2.978700	3.716400	-11.069000	24.274269	0.001036	20.766105
673.174895	-3.013700	3.713300	-11.190000	24.270615	0.001036	20.738257
674.174416	-2.998600	3.714000	-11.135000	24.311488	0.001037	20.749859
675.173834	-3.005000	3.712500	-11.154000	24.316569	0.001036	20.780087
676.175482	-3.014800	3.713200	-11.192000	24.334333	0.001038	20.765190
677.177806	-3.017700	3.713100	-11.204000	24.353963	0.001036	20.765442
678.174620	-3.023200	3.712500	-11.221000	24.364859	0.001036	20.770208
679.172610	-3.010300	3.711400	-11.172000	24.367925	0.001035	20.775656
680.172919	-2.990900	3.713100	-11.104000	24.348970	0.001037	20.758536
681.174575	-2.996600	3.713600	-11.126000	24.359319	0.001034	20.774134
682.173701	-2.987200	3.712600	-11.089000	24.351806	0.001035	20.757114
683.176817	-3.000400	3.711900	-11.136000	24.341038	0.001033	20.759114
684.173064	-3.005600	3.710800	-11.152000	24.299521	0.001036	20.779107
685.173279	-3.009200	3.710400	-11.164000	24.277128	0.001034	20.775611
686.173746	-2.982600	3.711000	-11.066000	24.303450	0.001036	20.768350
687.179539	-2.992000	3.710200	-11.100000	24.283922	0.001034	20.774840
688.173652	-3.008400	3.709100	-11.157000	24.240985	0.001032	20.778238
689.175038	-3.000300	3.709200	-11.128000	24.255437	0.001032	20.768552
690.175268	-2.975500	3.710000	-11.038000	24.284572	0.001032	20.777862
691.174797	-2.994600	3.708600	-11.104000	24.260445	0.001032	20.777842
692.175107	-3.018800	3.708600	-11.193000	24.272907	0.001033	20.776593
693.173963	-3.015900	3.708400	-11.182000	24.256638	0.001034	20.789197
694.174919	-3.000600	3.708400	-11.127000	24.251237	0.001032	20.786150
695.174703	-3.016800	3.708200	-11.185000	24.248676	0.001032	20.796384
696.175613	-2.999800	3.708300	-11.124000	24.269928	0.001033	20.762698
697.174881	-3.008200	3.707600	-11.152000	24.249774	0.001034	20.783734
698.175767	-3.020800	3.706700	-11.197000	24.273611	0.001035	20.802429
699.176275	-3.016000	3.707100	-11.179000	24.340480	0.001032	20.767089
700.178360	-2.980200	3.707200	-11.047000	24.336004	0.001032	20.781566
701.178216	-2.994900	3.706900	-11.100000	24.330386	0.001033	20.786362
702.178211	-2.985400	3.706200	-11.062000	24.339835	0.001033	20.778296
703.178496	-3.005400	3.704600	-11.133000	24.339913	0.001032	20.793074
704.179187	-2.982800	3.706300	-11.054000	24.378971	0.001032	20.795746
705.180621	-2.976900	3.707200	-11.034000	24.391211	0.001032	20.790007
706.178611	-2.973700	3.706600	-11.022000	24.359691	0.001032	20.788732
707.178210	-2.995100	3.705400	-11.097000	24.371335	0.001031	20.780973
708.180411	-2.995200	3.704700	-11.095000	24.383402	0.001030	20.805406
709.180896	-3.012200	3.704000	-11.156000	24.381409	0.001028	20.783966
710.177872	-3.021500	3.703300	-11.188000	24.410146	0.001030	20.805209
711.177598	-2.990500	3.704700	-11.077000	24.396636	0.001030	20.790234
712.178352	-3.020400	3.703100	-11.185000	24.420992	0.001031	20.802339
713.180136	-3.008300	3.702600	-11.138000	24.413085	0.001031	20.793932
714.182273	-2.985500	3.702500	-11.052000	24.387488	0.001030	20.810454
715.180239	-3.006100	3.702200	-11.129000	24.411022	0.001031	20.798027
716.182082	-2.987500	3.703300	-11.062000	24.405325	0.001030	20.809382
717.179653	-3.008200	3.701900	-11.134000	24.422965	0.001030	20.814276
718.179482	-3.002000	3.700900	-11.109000	24.445154	0.001032	20.805243
719.185510	-3.000500	3.701200	-11.103000	24.417643	0.001030	20.780488
720.182987	-2.994300	3.702400	-11.084000	24.428139	0.001029	20.793863
721.182783	-3.004700	3.699400	-11.114000	24.461872	0.001027	20.812058
722.181483	-3.006300	3.700800	-11.125000	24.441953	0.001028	20.792074
723.183328	-3.000400	3.700000	-11.100000	24.440629	0.001027	20.802126
724.182814	-3.016700	3.700000	-11.160000	24.448043	0.001028	20.799607
725.185361	-3.017900	3.699800	-11.163000	24.460652	0.001027	20.819368
726.182518	-3.001600	3.699600	-11.104000	24.441599	0.001027	20.812582
727.183178	-2.987300	3.699800	-11.052000	24.462842	0.001028	20.822040
728.184235	-2.989000	3.700100	-11.058000	24.463537	0.001025	20.802348
729.184511	-2.999000	3.699400	-11.094000	24.492148	0.001028	20.811613
730.186747	-3.003700	3.698700	-11.109000	24.486748	0.001027	20.791971
731.183719	-3.000000	3.698300	-11.093000	24.477050	0.001026	20.804526
732.184936	-3.013400	3.697600	-11.141000	24.457570	0.001025	20.813905
733.192000	-3.016200	3.697100	-11.151000	24.444686	0.001026	20.814256
734.184478	-3.001200	3.698200	-11.098000	24.425357	0.001026	20.813831
735.184528	-2.987100	3.696900	-11.042000	24.435189	0.001024	20.810892
736.184125	-3.008200	3.696100	-11.118000	24.424638	0.001026	20.821170
737.183869	-2.986400	3.697500	-11.040000	24.422723	0.001025	20.809292
738.184046	-2.999000	3.695600	-11.082000	24.409042	0.001024	20.828757
739.183503	-2.993000	3.695700	-11.060000	24.426056	0.001024	20.805998
740.184774	-3.000600	3.695100	-11.087000	24.433121	0.001024	20.835370
741.184598	-2.992800	3.695700	-11.060000	24.470803	0.001024	20.807267
742.184074	-2.986500	3.695500	-11.035000	24.509876	0.001023	20.828925
743.188429	-2.996000	3.694900	-11.069000	24.480432	0.001024	20.834471
744.185405	-3.017000	3.694400	-11.145000	24.480653	0.001024	20.812409
745.186199	-3.002600	3.694100	-11.091000	24.490529	0.001024	20.818049
746.189511	-2.998900	3.694100	-11.077000	24.506548	0.001023	20.819422
747.184296	-3.010600	3.694100	-11.121000	24.492262	0.001021	20.834487
748.184227	-3.018300	3.692800	-11.145000	24.532585	0.001023	20.829424
749.186473	-3.016700	3.692100	-11.136000	24.519328	0.001021	20.840304
750.186402	-3.008600	3.694300	-11.114000	24.500798	0.001022	20.818395
751.187248	-3.012300	3.692800	-11.123000	24.476001	0.001022	20.825759
752.188938	-2.995700	3.693300	-11.063000	24.470695	0.001023	20.843194
753.189167	-2.991200	3.692800	-11.045000	24.490574	0.001023	20.843223
754.187629	-3.023000	3.692100	-11.160000	24.519599	0.001022	20.854800
755.189482	-3.013900	3.692000	-11.127000	24.521120	0.001022	20.844473
756.191910	-3.016800	3.690100	-11.130000	24.545044	0.001021	20.851881
757.198581	-3.026200	3.691800	-11.172000	24.562032	0.001022	20.850908
758.189475	-3.005900	3.692200	-11.097000	24.571336	0.001021	20.838907
759.189562	-3.007900	3.691300	-11.101000	24.574521	0.001021	20.834516
760.193783	-3.014400	3.690900	-11.125000	24.564198	0.001021	20.839806
761.191229	-2.982100	3.690900	-11.006000	24.566827	0.001021	20.840073
762.192779	-2.990600	3.689400	-11.032000	24.560989	0.001018	20.844646
763.192949	-2.982800	3.690700	-11.006000	24.520938	0.001020	20.830541
764.193377	-3.010700	3.688800	-11.104000	24.508503	0.001018	20.840823
765.191407	-3.008100	3.690100	-11.099000	24.485272	0.001019	20.843120
766.192344	-3.012800	3.689200	-11.114000	24.457836	0.001019	20.833138
767.196131	-2.999700	3.688800	-11.064000	24.507405	0.001017	20.841145
768.193937	-3.011200	3.687700	-11.103000	24.511063	0.001017	20.845288
769.197795	-3.000600	3.687500	-11.063000	24.527451	0.001018	20.819532
770.196267	-2.981200	3.689000	-10.997000	24.540412	0.001017	20.833958
771.197468	-2.977500	3.688000	-10.980000	24.477582	0.001019	20.833509
772.199335	-3.018000	3.685800	-11.122000	24.481486	0.001018	20.828891
773.201704	-2.989300	3.687000	-11.020000	24.463626	0.001017	20.820930
774.198333	-3.000400	3.685300	-11.057000	24.489866	0.001021	20.815961
775.198806	-3.000100	3.685200	-11.055000	24.495069	0.001017	20.821181
776.199577	-3.005300	3.685200	-11.074000	24.547797	0.001017	20.831410
777.199159	-2.999300	3.685900	-11.055000	24.561900	0.001017	20.815689
778.203314	-3.009100	3.685200	-11.087000	24.592937	0.001016	20.803209
779.199778	-3.021800	3.683900	-11.132000	24.595123	0.001014	20.823894
780.203820	-3.020800	3.683900	-11.127000	24.614679	0.001015	20.838300
781.203027	-3.019600	3.682900	-11.120000	24.600925	0.001014	20.811224
782.202452	-3.016700	3.683200	-11.110000	24.578390	0.001015	20.822278
783.203361	-3.018300	3.684000	-11.117000	24.545631	0.001013	20.806478
784.201634	-2.986800	3.684600	-11.005000	24.540831	0.001015	20.818732
785.203224	-3.010200	3.683200	-11.087000	24.530090	0.001013	20.795627
786.202199	-3.008900	3.683300	-11.081000	24.510044	0.001011	20.821507
787.204335	-2.988200	3.684500	-11.009000	24.475889	0.001014	20.823750
788.203411	-3.011900	3.682800	-11.091000	24.479227	0.001011	20.795804
789.207557	-3.007400	3.681800	-11.071000	24.461892	0.001013	20.796906
790.202383	-2.979700	3.683000	-10.974000	24.495172	0.001012	20.800422
791.202150	-2.998500	3.682200	-11.040000	24.459406	0.001013	20.783031
792.206704	-3.016300	3.681200	-11.102000	24.446424	0.001010	20.812681
793.204111	-3.004200	3.682400	-11.062000	24.476174	0.001012	20.810759
794.210037	-2.986400	3.681800	-10.994000	24.483066	0.001010	20.810562
795.207170	-3.007600	3.680800	-11.068000	24.476651	0.001008	20.804600
796.205029	-2.993400	3.680000	-11.014000	24.475632	0.001010	20.809741
797.207911	-2.991700	3.679000	-11.006000	24.468892	0.001010	20.787807
798.211205	-2.998100	3.680600	-11.034000	24.497992	0.001010	20.803726
799.210119	-2.978800	3.680400	-10.962000	24.489288	0.001009	20.770811
800.209394	-2.995000	3.678700	-11.017000	24.525033	0.001011	20.775380
801.209367	-2.999800	3.677300	-11.030000	24.541327	0.001008	20.777504
802.209746	-2.995800	3.679600	-11.023000	24.551551	0.001009	20.809099
803.209860	-3.010100	3.677300	-11.068000	24.540829	0.001010	20.794548
804.210765	-2.992700	3.677600	-11.005000	24.532352	0.001008	20.807380
805.210678	-2.984300	3.677300	-10.974000	24.522699	0.001007	20.794375
806.209561	-2.992000	3.677400	-11.001000	24.474917	0.001007	20.791955
807.209527	-2.999600	3.677400	-11.029000	24.484842	0.001009	20.782946
808.208838	-2.999400	3.676500	-11.026000	24.505292	0.001006	20.793506
809.213525	-3.012000	3.675800	-11.070000	24.514920	0.001007	20.761441
810.210412	-2.995500	3.675800	-11.010000	24.549419	0.001005	20.796054
811.210145	-2.998200	3.676700	-11.022000	24.536659	0.001004	20.787519
812.210242	-2.990600	3.676100	-10.992000	24.519946	0.001005	20.774544
813.211133	-2.984800	3.677800	-10.976000	24.490301	0.001006	20.784630
814.215582	-2.987200	3.676700	-10.982000	24.493855	0.001005	20.782506
815.213311	-3.012200	3.674400	-11.066000	24.484797	0.001006	20.769151
816.213642	-2.987900	3.675200	-10.980000	24.462117	0.001005	20.791915
817.211749	-3.008700	3.673900	-11.052000	24.499379	0.001005	20.781884
818.212824	-3.002700	3.674500	-11.032000	24.551388	0.001004	20.775744
819.214788	-3.010000	3.675400	-11.062000	24.547188	0.001005	20.780540
820.212583	-2.993200	3.674600	-10.998000	24.553558	0.001004	20.771284
821.212280	-3.013400	3.674000	-11.070000	24.541768	0.001004	20.782688
822.213279	-2.986600	3.673800	-10.971000	24.554606	0.001006	20.778974
823.214795	-2.998500	3.671400	-11.007000	24.546922	0.001003	20.748503
824.217412	-3.027200	3.673200	-11.117000	24.531844	0.001002	20.777947
825.215963	-3.015100	3.671300	-11.067000	24.534039	0.001003	20.775407
826.214437	-2.999000	3.673300	-11.015000	24.532769	0.001002	20.781720
827.215437	-2.998800	3.672200	-11.010000	24.549265	0.001002	20.750854
828.217049	-2.982800	3.672400	-10.953000	24.574685	0.001002	20.786792
829.216135	-2.994700	3.671600	-10.994000	24.596649	0.001001	20.785122
830.218568	-3.014200	3.669100	-11.059000	24.620375	0.001000	20.775738
831.215157	-2.996200	3.670800	-10.997000	24.644898	0.000999	20.772844
832.219113	-3.025200	3.669900	-11.101000	24.644405	0.001000	20.763340
833.216267	-3.015900	3.670900	-11.070000	24.636052	0.000999	20.771554
834.216495	-3.029000	3.669200	-11.111000	24.655475	0.001000	20.767810
835.218258	-3.013700	3.669700	-11.058000	24.665698	0.001001	20.785181
836.219403	-3.007900	3.669200	-11.036000	24.671570	0.001001	20.778745
837.216721	-2.991600	3.668600	-10.973000	24.681074	0.000999	20.753194
838.222130	-3.002600	3.668300	-11.013000	24.715971	0.000999	20.771617
839.215259	-2.987300	3.668200	-10.957000	24.721744	0.000996	20.745641
840.216110	-2.980500	3.670700	-10.939000	24.689392	0.000999	20.776714
841.218970	-2.995100	3.668400	-10.986000	24.684145	0.000997	20.751534
842.215737	-3.015600	3.668200	-11.061000	24.701357	0.000997	20.747469
843.220258	-3.010900	3.666400	-11.038000	24.719587	0.000997	20.753435
844.215059	-2.988600	3.668300	-10.963000	24.751274	0.000998	20.746826
845.216790	-2.993300	3.667000	-10.975000	24.739294	0.000997	20.763254
846.217093	-2.993900	3.667100	-10.978000	24.755679	0.000996	20.755988
847.217391	-2.982000	3.666500	-10.932000	24.774425	0.000997	20.757732
848.216582	-3.014100	3.666700	-11.050000	24.790002	0.000996	20.774312
849.216798	-3.006500	3.666000	-11.021000	24.762470	0.000995	20.748105
850.216677	-3.015200	3.665600	-11.050000	24.737783	0.000996	20.761263
851.217470	-2.980000	3.665200	-10.922000	24.690832	0.000996	20.742597
852.222902	-2.987400	3.664900	-10.946000	24.692181	0.000994	20.768133
853.219254	-2.990800	3.665300	-10.961000	24.694642	0.000994	20.746420
854.219750	-2.968700	3.665300	-10.880000	24.709540	0.000994	20.747620
855.219980	-3.001100	3.664600	-10.996000	24.737496	0.000994	20.749121
856.218925	-3.013000	3.663200	-11.036000	24.738535	0.000993	20.747793
857.219166	-2.992200	3.663600	-10.960000	24.754634	0.000993	20.747353
858.218596	-3.010300	3.663100	-11.025000	24.760225	0.000993	20.757232
859.221360	-3.009500	3.664100	-11.025000	24.787535	0.000991	20.747180
860.218389	-3.003400	3.662700	-10.999000	24.801015	0.000993	20.762605
861.218923	-3.008800	3.662900	-11.019000	24.802432	0.000992	20.744587
862.225659	-3.027200	3.661100	-11.081000	24.787165	0.000991	20.752974
863.222905	-2.961400	3.663600	-10.849000	24.747310	0.000990	20.731942
864.221424	-2.985000	3.662000	-10.930000	24.730423	0.000991	20.762886
865.225648	-3.020700	3.661300	-11.059000	24.696732	0.000992	20.770330
866.221727	-2.970800	3.662100	-10.877000	24.679594	0.000992	20.766408
867.222366	-2.993300	3.662200	-10.961000	24.643367	0.000990	20.731003
868.222106	-3.007500	3.660900	-11.009000	24.644710	0.000989	20.734722
869.223859	-2.976600	3.661300	-10.897000	24.645931	0.000989	20.741637
870.222944	-2.970600	3.662000	-10.876000	24.671004	0.000990	20.747356
871.223308	-2.980500	3.662300	-10.914000	24.692041	0.000990	20.752819
872.222886	-2.976100	3.660900	-10.894000	24.701521	0.000988	20.742570
873.225008	-2.995000	3.659300	-10.958000	24.750813	0.000988	20.741622
874.221762	-2.994000	3.659600	-10.956000	24.769988	0.000988	20.721034
875.222942	-2.989300	3.659000	-10.937000	24.788862	0.000986	20.719587
876.223779	-2.984100	3.659000	-10.917000	24.804960	0.000988	20.723415
877.223457	-2.979500	3.659000	-10.900000	24.809310	0.000986	20.730626
878.230095	-2.989500	3.658400	-10.936000	24.817047	0.000985	20.725588
879.223624	-3.017500	3.656700	-11.033000	24.790347	0.000986	20.737674
880.224981	-2.999900	3.658600	-10.974000	24.804645	0.000986	20.723572
881.225350	-2.978900	3.658000	-10.896000	24.802961	0.000986	20.747014
882.225714	-3.004300	3.658200	-10.989000	24.818331	0.000983	20.734463
883.229068	-3.006000	3.657200	-10.992000	24.843174	0.000984	20.737585
884.227047	-2.986400	3.656000	-10.917000	24.802424	0.000985	20.744579
885.230947	-3.003600	3.655600	-10.979000	24.803148	0.000984	20.722544
886.227084	-2.969900	3.656400	-10.858000	24.781212	0.000984	20.768337
887.225333	-2.997100	3.656500	-10.958000	24.783653	0.000984	20.723843
888.230274	-3.000800	3.655300	-10.968000	24.769238	0.000983	20.740197
889.227921	-3.000600	3.656400	-10.970000	24.784706	0.000982	20.724900
890.227661	-3.009800	3.655200	-11.000000	24.783043	0.000983	20.721808
891.227046	-2.973200	3.657400	-10.873000	24.818384	0.000983	20.731197
892.226293	-3.003100	3.654600	-10.974000	24.842784	0.000982	20.730081
893.225724	-2.991300	3.653800	-10.929000	24.845043	0.000981	20.745151
894.229327	-3.008700	3.654000	-10.992000	24.868793	0.000980	20.731054
895.227011	-3.021500	3.653100	-11.036000	24.839752	0.000981	20.724193
896.226169	-3.045000	3.652100	-11.119000	24.832193	0.000981	20.722296
897.228016	-3.022300	3.653400	-11.040000	24.830332	0.000981	20.724697
898.226281	-2.987800	3.652700	-10.913000	24.815189	0.000978	20.732259
899.236913	-3.006600	3.651100	-10.976000	24.768218	0.000980	20.744864
900.229253	-2.983000	3.652900	-10.895000	24.765762	0.000979	20.714422
901.229895	-2.996700	3.653200	-10.946000	24.739500	0.000978	20.714620
902.231411	-2.990400	3.651300	-10.917000	24.757237	0.000978	20.718196
903.228922	-3.005400	3.652000	-10.973000	24.802196	0.000980	20.720167
904.231088	-2.982700	3.652000	-10.891000	24.820775	0.000979	20.736916
905.230999	-3.000400	3.651400	-10.955000	24.826296	0.000977	20.720646
906.229517	-2.991200	3.651600	-10.922000	24.825101	0.000977	20.715652
907.229920	-2.989200	3.650000	-10.910000	24.829156	0.000978	20.710238
908.228693	-3.021500	3.650500	-11.029000	24.770895	0.000976	20.714832
909.229150	-3.008800	3.649400	-10.980000	24.788229	0.000977	20.738867
910.229798	-2.995900	3.650400	-10.935000	24.814987	0.000976	20.720201
911.229671	-3.024100	3.649400	-11.035000	24.782190	0.000977	20.715736
912.236261	-3.001600	3.649300	-10.953000	24.802801	0.000977	20.715084
913.230317	-2.989600	3.648200	-10.905000	24.799666	0.000976	20.717154
914.232653	-3.011200	3.648000	-10.984000	24.775398	0.000977	20.717455
915.238767	-3.032500	3.647800	-11.060000	24.800567	0.000974	20.699090
916.232374	-2.994800	3.647600	-10.921000	24.826754	0.000976	20.720631
917.233062	-2.999300	3.648500	-10.941000	24.840032	0.000975	20.733483
918.235240	-3.005900	3.647600	-10.962000	24.844658	0.000974	20.724375
919.235730	-3.020900	3.646600	-11.014000	24.847665	0.000974	20.729764
920.236779	-3.015300	3.646200	-10.994000	24.838934	0.000973	20.712940
921.238179	-2.993700	3.647400	-10.918000	24.812634	0.000971	20.698872
922.234688	-3.025500	3.646500	-11.032000	24.781393	0.000971	20.724419
923.235067	-3.031900	3.644900	-11.049000	24.766874	0.000971	20.679499
924.236509	-3.002200	3.646000	-10.945000	24.787165	0.000970	20.723100
925.235294	-2.990500	3.646900	-10.905000	24.802260	0.000971	20.704582
926.241074	-3.001300	3.645600	-10.940000	24.812629	0.000972	20.704558
927.236967	-3.000400	3.645800	-10.938000	24.823648	0.000969	20.717040
928.238574	-3.012300	3.645700	-10.980000	24.846026	0.000971	20.704884
929.237340	-3.005200	3.645000	-10.953000	24.850627	0.000970	20.695276
930.237057	-2.983000	3.645300	-10.873000	24.862763	0.000970	20.708880
931.237277	-3.000800	3.644700	-10.936000	24.854830	0.000969	20.723204
932.236586	-3.002700	3.643900	-10.939000	24.852768	0.000968	20.708806
933.236306	-3.004200	3.642800	-10.942000	24.834244	0.000968	20.702542
934.237894	-2.988500	3.644400	-10.890000	24.863235	0.000970	20.711725
935.237702	-3.020400	3.641200	-10.997000	24.877630	0.000969	20.686341
936.237779	-3.026200	3.642300	-11.021000	24.868860	0.000967	20.697454
937.238528	-3.012600	3.640600	-10.966000	24.902349	0.000968	20.695978
938.239233	-2.975700	3.644600	-10.844000	24.885174	0.000967	20.700551
939.241891	-3.003300	3.642500	-10.939000	24.922618	0.000967	20.704469
940.240436	-3.007800	3.641300	-10.951000	24.930624	0.000968	20.729576
941.240116	-2.997400	3.641600	-10.915000	24.906334	0.000966	20.690969
942.244595	-3.005600	3.640900	-10.942000	24.904273	0.000966	20.707867
943.238531	-3.000000	3.641500	-10.922000	24.880007	0.000965	20.707220
944.242392	-3.020000	3.640400	-10.992000	24.907338	0.000966	20.699563
945.241488	-2.979400	3.640700	-10.846000	24.916358	0.000965	20.700556
946.241540	-3.022600	3.637500	-10.994000	24.893712	0.000966	20.695844
947.243688	-2.994000	3.639100	-10.894000	24.877128	0.000965	20.693424
948.244786	-2.995300	3.639400	-10.900000	24.866360	0.000963	20.692100
949.242990	-2.985500	3.640200	-10.866000	24.820065	0.000963	20.694950
950.243224	-2.972400	3.639700	-10.817000	24.780954	0.000962	20.684147
951.243193	-2.985400	3.639000	-10.862000	24.778193	0.000963	20.698447
952.243322	-3.016100	3.637600	-10.970000	24.793440	0.000961	20.689566
953.248020	-3.018300	3.637000	-10.977000	24.808332	0.000960	20.694555
954.243320	-2.989800	3.637500	-10.875000	24.798194	0.000961	20.702398
955.247959	-2.987800	3.637900	-10.869000	24.842954	0.000962	20.670978
956.243915	-2.998800	3.637200	-10.906000	24.830449	0.000960	20.703001
957.243607	-3.019700	3.635300	-10.976000	24.851808	0.000962	20.679864
958.254578	-2.997800	3.637400	-10.902000	24.837590	0.000959	20.665119
959.243491	-3.009400	3.635700	-10.941000	24.829981	0.000959	20.700635
960.251495	-3.027900	3.634100	-11.002000	24.864224	0.000958	20.689007
961.244139	-3.006900	3.636500	-10.933000	24.850602	0.000957	20.683870
962.244625	-3.003200	3.635800	-10.918000	24.844735	0.000959	20.684621
963.248339	-3.009800	3.634100	-10.937000	24.820813	0.000957	20.665351
964.244339	-2.990900	3.638100	-10.879000	24.812008	0.000956	20.706779
965.245016	-2.999700	3.635900	-10.906000	24.783321	0.000955	20.698851
966.245520	-3.009500	3.634100	-10.935000	24.793021	0.000957	20.683455
967.246706	-3.024700	3.634800	-10.992000	24.809483	0.000956	20.678165
968.246010	-2.992000	3.634400	-10.873000	24.789369	0.000955	20.669357
969.248035	-2.988800	3.634400	-10.861000	24.813411	0.000956	20.678787
970.245276	-2.997100	3.633500	-10.889000	24.798321	0.000954	20.680239
971.246336	-3.019900	3.631900	-10.966000	24.785245	0.000956	20.688928
972.250590	-3.005100	3.633700	-10.918000	24.765224	0.000953	20.668834
973.250211	-2.998300	3.633100	-10.892000	24.753938	0.000954	20.676001
974.252875	-2.993000	3.633800	-10.874000	24.762940	0.000955	20.685510
975.248018	-2.996500	3.632600	-10.884000	24.775648	0.000954	20.687357
976.250018	-3.001300	3.631000	-10.896000	24.799945	0.000954	20.672859
977.250987	-2.987000	3.632500	-10.849000	24.786741	0.000953	20.705604
978.258016	-2.983300	3.631500	-10.833000	24.761478	0.000952	20.688310
979.250474	-2.980500	3.631900	-10.825000	24.748947	0.000953	20.679053
980.251942	-2.968700	3.631200	-10.779000	24.751728	0.000952	20.702235
981.252320	-2.981000	3.631200	-10.822000	24.739345	0.000951	20.699765
982.251670	-3.005300	3.629500	-10.907000	24.717143	0.000952	20.672266
983.251981	-2.988500	3.630400	-10.848000	24.702441	0.000953	20.706354
984.252097	-2.975400	3.631800	-10.806000	24.723654	0.000949	20.676905
985.253693	-2.967400	3.630200	-10.771000	24.767300	0.000952	20.696525
986.252814	-2.985300	3.629900	-10.834000	24.780333	0.000952	20.697275
987.253603	-2.979400	3.628700	-10.811000	24.824425	0.000949	20.677512
988.251483	-2.990900	3.629700	-10.855000	24.837132	0.000950	20.689318
989.252163	-3.028700	3.627300	-10.985000	24.876620	0.000949	20.680110
990.255003	-3.016600	3.626900	-10.940000	24.893253	0.000950	20.702496
991.253808	-2.991500	3.627400	-10.851000	24.924059	0.000949	20.683627
992.253235	-2.990800	3.628200	-10.850000	24.913818	0.000945	20.684255
993.255804	-2.991700	3.627300	-10.850000	24.929629	0.000947	20.689219
994.257310	-2.991500	3.626100	-10.847000	24.947979	0.000946	20.671599
995.260255	-2.999600	3.626700	-10.878000	24.950789	0.000947	20.691491
996.257428	-3.000200	3.626800	-10.880000	24.947280	0.000945	20.691289
997.258753	-2.983000	3.626700	-10.818000	24.950440	0.000947	20.701573
998.259034	-2.985800	3.627500	-10.830000	24.958869	0.000946	20.672573
999.258167	-3.009100	3.626200	-10.911000	24.960537	0.000946	20.660495
1000.257785	-3.003800	3.625500	-10.888000	24.991562	0.000945	20.699701
1001.260088	-3.004800	3.623600	-10.886000	25.007554	0.000945	20.680664
1002.259926	-2.991400	3.624200	-10.840000	25.041314	0.000944	20.670453
1003.260462	-3.001300	3.624600	-10.877000	25.055981	0.000946	20.679014
1004.257943	-2.994300	3.622400	-10.845000	25.087855	0.000943	20.677344
1005.261039	-2.971800	3.624700	-10.771000	25.076268	0.000943	20.679938
1006.262529	-2.992600	3.623200	-10.842000	25.073557	0.000944	20.693339
1007.258738	-2.985100	3.622900	-10.812000	25.063293	0.000938	20.691570
1008.260771	-3.000900	3.622900	-10.871000	25.089193	0.000942	20.671575
1009.259527	-3.003100	3.621700	-10.875000	25.052330	0.000940	20.682936
1010.259914	-3.017200	3.622200	-10.927000	25.027369	0.000940	20.667361
1011.263621	-2.995300	3.621700	-10.847000	25.003598	0.000940	20.700402
1012.260646	-2.984500	3.621500	-10.807000	25.048675	0.000938	20.676421
1013.263165	-2.999400	3.620800	-10.859000	25.039252	0.000940	20.689723
1014.260205	-3.001500	3.620200	-10.865000	25.035675	0.000941	20.704625
1015.266963	-3.010800	3.619900	-10.898000	25.069709	0.000940	20.689476
1016.262095	-3.011500	3.620100	-10.900000	25.073084	0.000939	20.688122
1017.263453	-3.024300	3.619500	-10.945000	25.074674	0.000939	20.706315
1018.258025	-2.991600	3.619900	-10.829000	25.081715	0.000937	20.691096
1019.259854	-2.989400	3.618500	-10.816000	25.086659	0.000935	20.690370
1020.269659	-3.013000	3.619300	-10.903000	25.070378	0.000936	20.673551
1021.261803	-2.977200	3.619500	-10.775000	25.073035	0.000937	20.700402
1022.261469	-3.001700	3.618100	-10.859000	25.093051	0.000937	20.690622
1023.261487	-2.976300	3.618800	-10.769000	25.106724	0.000935	20.692494
1024.261186	-2.975200	3.617400	-10.761000	25.100406	0.000935	20.674771
1025.262972	-2.993700	3.617800	-10.829000	25.112072	0.000935	20.687905
1026.261530	-2.976400	3.618800	-10.769000	25.085223	0.000933	20.714534
1027.259933	-2.979500	3.617400	-10.776000	25.041663	0.000934	20.701627
1028.260447	-2.994900	3.615800	-10.827000	25.015442	0.000936	20.690004
1029.265211	-2.971200	3.616200	-10.744000	25.013272	0.000932	20.719123
1030.261355	-3.002300	3.616400	-10.857000	24.994903	0.000934	20.710167
1031.260767	-3.005600	3.615100	-10.864000	25.019290	0.000933	20.704774
1032.266357	-3.004800	3.616200	-10.864000	25.006137	0.000934	20.696786
1033.263157	-3.014800	3.614500	-10.896000	25.022050	0.000931	20.691422
1034.264889	-3.026100	3.614000	-10.935000	25.031743	0.000932	20.700204
1035.263579	-2.997000	3.614800	-10.833000	25.074733	0.000930	20.716332
1036.263067	-2.985600	3.614000	-10.789000	25.037313	0.000931	20.695364
1037.264406	-2.992600	3.613100	-10.812000	25.022818	0.000931	20.698831
1038.265838	-2.996500	3.613600	-10.827000	24.977174	0.000930	20.700432
1039.263151	-2.982000	3.616100	-10.782000	24.967977	0.000931	20.692148
1040.261099	-2.980800	3.613200	-10.769000	24.989127	0.000929	20.696307
1041.263089	-2.975400	3.614100	-10.752000	25.027812	0.000928	20.696258
1042.262640	-2.990700	3.612600	-10.803000	25.016431	0.000929	20.703326
1043.266250	-2.977900	3.613900	-10.761000	25.027640	0.000929	20.698930
1044.262799	-2.991000	3.611600	-10.801000	25.039621	0.000929	20.700051
1045.268737	-3.004100	3.611100	-10.847000	25.078723	0.000928	20.711328
1046.263661	-2.997500	3.610300	-10.820000	25.119939	0.000928	20.710978
1047.265034	-2.996800	3.610700	-10.820000	25.119792	0.000928	20.711778
1048.270559	-2.979800	3.612300	-10.763000	25.150187	0.000926	20.708626
1049.268490	-3.008700	3.609800	-10.860000	25.172081	0.000924	20.714011
1050.266860	-3.014900	3.610200	-10.883000	25.134276	0.000927	20.714465
1051.265763	-3.015100	3.609400	-10.881000	25.133347	0.000924	20.701677
1052.264811	-2.986900	3.609000	-10.778000	25.153681	0.000924	20.699330
1053.268284	-2.991400	3.610700	-10.801000	25.163176	0.000925	20.694638
1054.267027	-3.021600	3.608900	-10.904000	25.131708	0.000926	20.725164
1055.268901	-3.030300	3.607800	-10.932000	25.090212	0.000923	20.736613
1056.265298	-2.986500	3.610100	-10.780000	25.086950	0.000923	20.728597
1057.266408	-2.997300	3.608400	-10.815000	25.082202	0.000924	20.720985
1058.269120	-3.012200	3.607700	-10.866000	25.039917	0.000922	20.727851
1059.267893	-3.005000	3.607500	-10.839000	25.030209	0.000921	20.743711
1060.268033	-3.003900	3.607400	-10.835000	25.030839	0.000919	20.721109
1061.267748	-2.997400	3.607100	-10.810000	25.021608	0.000922	20.732232
1062.267293	-2.998600	3.607600	-10.817000	25.040753	0.000919	20.736752
1063.267272	-2.995500	3.606000	-10.801000	25.055190	0.000920	20.732751
1064.269749	-2.983600	3.606400	-10.759000	25.099713	0.000920	20.724339
1065.267298	-2.971400	3.606600	-10.716000	25.119103	0.000920	20.728632
1066.268467	-2.992800	3.605100	-10.788000	25.157661	0.000918	20.738417
1067.267811	-2.979500	3.606000	-10.743000	25.136132	0.000919	20.726285
1068.266667	-2.996700	3.604400	-10.799000	25.105770	0.000917	20.725678
1069.269804	-3.014400	3.603300	-10.861000	25.099635	0.000918	20.743228
1070.268829	-2.995400	3.604300	-10.795000	25.107763	0.000916	20.730998
1071.271789	-2.977100	3.605600	-10.734000	25.123694	0.000917	20.740353
1072.269535	-3.006900	3.602700	-10.832000	25.125903	0.000916	20.727871
1073.269134	-2.999900	3.603600	-10.809000	25.148953	0.000915	20.733467
1074.271887	-3.016600	3.603900	-10.870000	25.162793	0.000913	20.717963
1075.271482	-2.993000	3.603000	-10.783000	25.138484	0.000914	20.732914
1076.269157	-2.984100	3.602200	-10.748000	25.124334	0.000915	20.722976
1077.270720	-2.994600	3.603100	-10.789000	25.085376	0.000913	20.741716
1078.269567	-2.971600	3.602300	-10.704000	25.105485	0.000914	20.736298
1079.271657	-3.006100	3.600700	-10.824000	25.072372	0.000913	20.738619
1080.272834	-3.030300	3.601800	-10.914000	25.060435	0.000912	20.742759
1081.271807	-3.021600	3.600400	-10.878000	25.076348	0.000912	20.753991
1082.274965	-3.001700	3.600400	-10.805000	25.070035	0.000910	20.737696
1083.272116	-2.993500	3.601300	-10.779000	25.062025	0.000911	20.736293
1084.274801	-2.967100	3.600400	-10.681000	25.085647	0.000909	20.735824
1085.277458	-2.989900	3.600500	-10.764000	25.092722	0.000911	20.745772
1086.274766	-3.008900	3.598800	-10.827000	25.104314	0.000910	20.721371
1087.275094	-2.997700	3.599000	-10.788000	25.105333	0.000909	20.730455
1088.272996	-2.997300	3.599300	-10.788000	25.142543	0.000908	20.742680
1089.272799	-3.007300	3.598900	-10.822000	25.156038	0.000909	20.743426
1090.274875	-2.972100	3.600800	-10.701000	25.176943	0.000908	20.756826
1091.276669	-2.984900	3.598400	-10.740000	25.193724	0.000908	20.751862
1092.274520	-2.995200	3.598600	-10.778000	25.167797	0.000907	20.744325
1093.273569	-2.987100	3.597100	-10.744000	25.180844	0.000904	20.753156
1094.271682	-2.995500	3.597600	-10.776000	25.197753	0.000905	20.753536
1095.273637	-3.006300	3.596500	-10.812000	25.218082	0.000906	20.758298
1096.276713	-3.011400	3.597200	-10.831000	25.212242	0.000903	20.751961
1097.272265	-3.002800	3.596700	-10.800000	25.204365	0.000905	20.752588
1098.274329	-2.999700	3.595900	-10.786000	25.197060	0.000903	20.739563
1099.273154	-2.977200	3.596300	-10.705000	25.217216	0.000903	20.746523
1100.272410	-2.992700	3.595900	-10.760000	25.229396	0.000903	20.745950
1101.272780	-2.997000	3.594100	-10.770000	25.232230	0.000902	20.760649
1102.279390	-2.997300	3.593600	-10.770000	25.215277	0.000902	20.762121
1103.271812	-3.004000	3.594800	-10.796000	25.182842	0.000901	20.737617
1104.273631	-3.015800	3.593100	-10.835000	25.195495	0.000903	20.747476
1105.275014	-2.978700	3.594800	-10.706000	25.225968	0.000899	20.742981
1106.273663	-3.024100	3.592700	-10.863000	25.233726	0.000901	20.757409
1107.277886	-2.977500	3.592900	-10.697000	25.237632	0.000901	20.756589
1108.276235	-2.986200	3.593500	-10.730000	25.230794	0.000901	20.766319
1109.278935	-3.011100	3.592600	-10.817000	25.233804	0.000898	20.760333
1110.276555	-3.025000	3.590900	-10.859000	25.233337	0.000898	20.752277
1111.275905	-3.012300	3.591500	-10.818000	25.219537	0.000897	20.754070
1112.280219	-3.001300	3.591400	-10.777000	25.166325	0.000898	20.778410
1113.276403	-3.005900	3.590700	-10.791000	25.191879	0.000897	20.758544
1114.276721	-3.017800	3.589400	-10.831000	25.167098	0.000897	20.766383
1115.278120	-3.007300	3.591200	-10.799000	25.158749	0.000896	20.768433
1116.280856	-2.991800	3.590200	-10.739000	25.181444	0.000897	20.789320
1117.279580	-2.989800	3.589800	-10.732000	25.158749	0.000898	20.772700
1118.292173	-2.977700	3.589400	-10.687000	25.186595	0.000895	20.763671
1119.282202	-2.967200	3.590000	-10.651000	25.152737	0.000896	20.775199
1120.278261	-2.984900	3.589300	-10.712000	25.155501	0.000895	20.746680
1121.278966	-2.975900	3.588100	-10.677000	25.211016	0.000893	20.763058
1122.281065	-3.019400	3.587500	-10.831000	25.189315	0.000894	20.755971
1123.281270	-2.995600	3.590100	-10.753000	25.243579	0.000894	20.769198
1124.281800	-3.005800	3.588500	-10.785000	25.259488	0.000892	20.764782
1125.279467	-3.016000	3.586500	-10.815000	25.276918	0.000893	20.771376
1126.280222	-3.006300	3.586600	-10.781000	25.269283	0.000893	20.768452
1127.290937	-3.007200	3.587400	-10.787000	25.298990	0.000890	20.783107
1128.280698	-2.992500	3.587100	-10.734000	25.302399	0.000890	20.757605
1129.283599	-3.004900	3.586400	-10.775000	25.291538	0.000891	20.769934
1130.281526	-2.995700	3.586500	-10.743000	25.275087	0.000889	20.773806
1131.283295	-3.010700	3.584800	-10.791000	25.305213	0.000890	20.767069
1132.285717	-3.019800	3.584500	-10.823000	25.332082	0.000889	20.761329
1133.285409	-3.003900	3.584500	-10.767000	25.358059	0.000889	20.774611
1134.285253	-2.995100	3.586100	-10.739000	25.395187	0.000887	20.756889
1135.285913	-2.994200	3.584400	-10.731000	25.413254	0.000887	20.793049
1136.286310	-3.011000	3.583500	-10.789000	25.437891	0.000885	20.777960
1137.284463	-3.006400	3.584100	-10.774000	25.424247	0.000887	20.788441
1138.287841	-3.020100	3.583300	-10.821000	25.434886	0.000887	20.759294
1139.286095	-2.986000	3.583200	-10.699000	25.435904	0.000884	20.778809
1140.287203	-3.008800	3.582400	-10.778000	25.412668	0.000886	20.788668
1141.287577	-2.979400	3.582400	-10.673000	25.383470	0.000884	20.777367
1142.287253	-3.001100	3.581600	-10.748000	25.401788	0.000883	20.775372
1143.296634	-2.994600	3.583100	-10.729000	25.397686	0.000883	20.792115
1144.288016	-2.979400	3.582300	-10.672000	25.370253	0.000883	20.773579
1145.296723	-3.014800	3.579300	-10.790000	25.363470	0.000882	20.794743
1146.287313	-2.996800	3.580300	-10.729000	25.333744	0.000882	20.778172
1147.286025	-3.010400	3.580300	-10.777000	25.331929	0.000881	20.774927
1148.289798	-3.003900	3.580600	-10.755000	25.341201	0.000879	20.768590
1149.288463	-3.030100	3.579400	-10.844000	25.352092	0.000881	20.793750
1150.289119	-3.013000	3.579700	-10.784000	25.330173	0.000881	20.777431
1151.287842	-3.010600	3.580200	-10.777000	25.332937	0.000880	20.785897
1152.288023	-3.005700	3.579900	-10.759000	25.366883	0.000879	20.790584
1153.288010	-3.002700	3.580700	-10.750000	25.392511	0.000881	20.782178
1154.290199	-3.005100	3.578000	-10.751000	25.384901	0.000879	20.788761
1155.289523	-3.010400	3.577500	-10.768000	25.426981	0.000877	20.795928
1156.290454	-3.013600	3.576800	-10.778000	25.406254	0.000879	20.800719
1157.290631	-3.016300	3.578000	-10.790000	25.411974	0.000878	20.788445
1158.290718	-3.003000	3.577600	-10.742000	25.395270	0.000876	20.794432
1159.292840	-3.002600	3.577100	-10.740000	25.376087	0.000875	20.788445
1160.290670	-3.020700	3.576500	-10.803000	25.365300	0.000876	20.779985
1161.292628	-3.010300	3.575800	-10.764000	25.364999	0.000878	20.794382
1162.289474	-3.016600	3.574800	-10.783000	25.380061	0.000875	20.823256
1163.291409	-2.992100	3.577500	-10.703000	25.386726	0.000874	20.807189
1164.294046	-3.003600	3.575900	-10.740000	25.384237	0.000874	20.804690
1165.295417	-3.004500	3.575200	-10.740000	25.383863	0.000873	20.804789
1166.293857	-3.020500	3.574300	-10.795000	25.394626	0.000871	20.815121
1167.291283	-2.981300	3.574600	-10.656000	25.413140	0.000872	20.799573
1168.293200	-3.005700	3.573200	-10.739000	25.390204	0.000872	20.795034
1169.293824	-3.008700	3.574600	-10.753000	25.402476	0.000873	20.824901
1170.296511	-2.995900	3.573500	-10.705000	25.365349	0.000870	20.808483
1171.294351	-3.031100	3.572000	-10.826000	25.391670	0.000870	20.810730
1172.296461	-3.017600	3.571900	-10.778000	25.380460	0.000869	20.812751
1173.293058	-2.995000	3.573400	-10.702000	25.340321	0.000870	20.810854
1174.294162	-2.976200	3.572900	-10.631000	25.359530	0.000870	20.816391
1175.297722	-2.996800	3.571600	-10.703000	25.348796	0.000869	20.808933
1176.294796	-3.005800	3.571400	-10.734000	25.388015	0.000869	20.803742
1177.294824	-3.005600	3.570000	-10.729000	25.416692	0.000869	20.814993
1178.294075	-3.007200	3.569700	-10.734000	25.418605	0.000867	20.823552
1179.298795	-2.999200	3.570100	-10.705000	25.422904	0.000868	20.814119
1180.295423	-3.009200	3.571200	-10.745000	25.411448	0.000869	20.807357
1181.300109	-2.993100	3.570400	-10.685000	25.402324	0.000864	20.810523
1182.295121	-2.998700	3.569100	-10.702000	25.361015	0.000869	20.799865
1183.294899	-2.979100	3.570000	-10.634000	25.396530	0.000865	20.817507
1184.294919	-2.997500	3.569700	-10.699000	25.431389	0.000866	20.816949
1185.297630	-2.985700	3.570100	-10.658000	25.419215	0.000864	20.817527
1186.298051	-3.007000	3.567800	-10.727000	25.412029	0.000865	20.812682
1187.295864	-2.996400	3.567600	-10.690000	25.409791	0.000862	20.839357
1188.298043	-3.014800	3.567500	-10.754000	25.434546	0.000862	20.806844
1189.297851	-2.999500	3.568700	-10.703000	25.451516	0.000864	20.830995
1190.297923	-3.018600	3.567600	-10.768000	25.427508	0.000861	20.821112
1191.299724	-2.990800	3.566800	-10.667000	25.431231	0.000863	20.831015
1192.296962	-2.990800	3.567400	-10.668000	25.392211	0.000862	20.836404
1193.299646	-2.999000	3.567200	-10.696000	25.406028	0.000861	20.842217
1194.295875	-2.980700	3.567100	-10.632000	25.430134	0.000860	20.814741
1195.296495	-3.022300	3.566100	-10.777000	25.450537	0.000860	20.822900
1196.306710	-2.961600	3.566800	-10.562000	25.461717	0.000860	20.833653
1197.299047	-2.983500	3.565300	-10.635000	25.502397	0.000859	20.837994
1198.299148	-2.986000	3.565200	-10.646000	25.513355	0.000857	20.852317
1199.299798	-2.994900	3.564600	-10.675000	25.521873	0.000856	20.822940
1200.298499	-2.994500	3.563800	-10.671000	25.533082	0.000858	20.829929
1201.300232	-2.993800	3.564400	-10.670000	25.549332	0.000857	20.836764
1202.301408	-3.020300	3.563000	-10.760000	25.561332	0.000857	20.830324
1203.300646	-2.989100	3.564000	-10.652000	25.594061	0.000856	20.843279
1204.300701	-2.962400	3.563900	-10.556000	25.569132	0.000854	20.843373
1205.299068	-3.009800	3.561100	-10.717000	25.544379	0.000854	20.845541
1206.299812	-3.020600	3.561300	-10.756000	25.564760	0.000854	20.839930
1207.304949	-3.013000	3.561600	-10.731000	25.576091	0.000852	20.831396
1208.299519	-3.025100	3.561000	-10.771000	25.583891	0.000852	20.840177
1209.301511	-3.017100	3.560300	-10.741000	25.595620	0.000853	20.842000
1210.300251	-2.991700	3.561700	-10.653000	25.556655	0.000852	20.827049
1211.300537	-3.006100	3.560500	-10.701000	25.579071	0.000855	20.841027
1212.303778	-2.969800	3.560600	-10.574000	25.565473	0.000851	20.853448
1213.305142	-2.989800	3.560100	-10.643000	25.573224	0.000850	20.842266
1214.301478	-2.983400	3.558700	-10.616000	25.590373	0.000852	20.837204
1215.302133	-2.969000	3.561500	-10.574000	25.574099	0.000852	20.849309
1216.310387	-2.983000	3.559100	-10.616000	25.547183	0.000849	20.851201
1217.302642	-2.988800	3.559800	-10.639000	25.552878	0.000847	20.849808
1218.304608	-2.993300	3.558900	-10.652000	25.555455	0.000848	20.846706
1219.303386	-3.009000	3.557700	-10.703000	25.518131	0.000848	20.845259
1220.308084	-3.016200	3.556700	-10.727000	25.520093	0.000847	20.824946
1221.303723	-3.013800	3.557100	-10.719000	25.459105	0.000846	20.855685
1222.304419	-3.025000	3.556900	-10.758000	25.485822	0.000846	20.859281
1223.305741	-2.996000	3.557200	-10.656000	25.476153	0.000844	20.837244
1224.304856	-3.003600	3.556500	-10.680000	25.459381	0.000846	20.850747
1225.306267	-2.989700	3.557200	-10.634000	25.494071	0.000845	20.831529
1226.307436	-2.994100	3.556400	-10.648000	25.454659	0.000843	20.838419
1227.306083	-3.002200	3.555600	-10.674000	25.421158	0.000841	20.850771
1228.306507	-2.990200	3.556300	-10.633000	25.445786	0.000842	20.849897
1229.305847	-2.998400	3.555900	-10.661000	25.466016	0.000842	20.842237
1230.306402	-2.993700	3.554100	-10.638000	25.459705	0.000842	20.830685
1231.305834	-3.001000	3.554500	-10.666000	25.465318	0.000842	20.849122
1232.305593	-2.988900	3.555000	-10.625000	25.479586	0.000841	20.834527
1233.306215	-2.992000	3.553800	-10.632000	25.479930	0.000841	20.841511
1234.305159	-2.986800	3.554200	-10.615000	25.478194	0.000841	20.830285
1235.306348	-3.000900	3.552400	-10.659000	25.467929	0.000841	20.828512
1236.305976	-2.999200	3.551900	-10.652000	25.451329	0.000840	20.840291
1237.305094	-2.977900	3.554000	-10.583000	25.471156	0.000840	20.806622
1238.306846	-3.019100	3.552500	-10.724000	25.474063	0.000838	20.851739
1239.308358	-2.992000	3.553600	-10.631000	25.443622	0.000837	20.822595
1240.307029	-3.007500	3.551400	-10.680000	25.450232	0.000839	20.820698
1241.309406	-2.994100	3.552200	-10.634000	25.441187	0.000837	20.813038
1242.306654	-2.992600	3.550600	-10.624000	25.433903	0.000836	20.838913
1243.308255	-2.996500	3.549100	-10.634000	25.455923	0.000837	20.816930
1244.317441	-3.001100	3.551000	-10.656000	25.426849	0.000835	20.816184
1245.308019	-2.997800	3.548300	-10.635000	25.435422	0.000835	20.823370
1246.308825	-2.999700	3.550000	-10.647000	25.427917	0.000832	20.830532
1247.307034	-2.987500	3.548800	-10.601000	25.393471	0.000832	20.831030
1248.308836	-3.027500	3.548300	-10.741000	25.391257	0.000833	20.802730
1249.306774	-3.018200	3.547600	-10.706000	25.396850	0.000833	20.838691
1250.312850	-3.008900	3.549400	-10.679000	25.410937	0.000835	20.810163
1251.309818	-3.029100	3.547400	-10.744000	25.403677	0.000833	20.837486
1252.310238	-3.016900	3.547400	-10.701000	25.438398	0.000833	20.803125
1253.309974	-3.023700	3.546200	-10.722000	25.458505	0.000830	20.819049
1254.310231	-3.001600	3.548300	-10.649000	25.426790	0.000831	20.800952
1255.314444	-2.991200	3.548200	-10.612000	25.440489	0.000829	20.829406
1256.311310	-2.979700	3.547200	-10.569000	25.418689	0.000829	20.817473
1257.311490	-2.990400	3.546200	-10.604000	25.384425	0.000829	20.802508
1258.310935	-2.997400	3.545500	-10.626000	25.420583	0.000827	20.798038
1259.312147	-2.997700	3.546400	-10.629000	25.430002	0.000829	20.807970
1260.312090	-3.007500	3.544200	-10.657000	25.462711	0.000826	20.807150
1261.311173	-3.005800	3.544300	-10.651000	25.484824	0.000826	20.811813
1262.312952	-2.985500	3.546000	-10.585000	25.490072	0.000826	20.813764
1263.310791	-3.000800	3.544400	-10.634000	25.471230	0.000827	20.807644
1264.310879	-2.990300	3.544700	-10.599000	25.478022	0.000824	20.816362
1265.315815	-3.014300	3.543700	-10.681000	25.497450	0.000825	20.809793
1266.311940	-2.992800	3.543400	-10.603000	25.477525	0.000826	20.817285
1267.313050	-2.960000	3.544800	-10.492000	25.488331	0.000824	20.803006
1268.311561	-2.987300	3.543500	-10.584000	25.511270	0.000823	20.796171
1269.312098	-3.000700	3.541900	-10.627000	25.493800	0.000823	20.826990
1270.315096	-2.994300	3.542400	-10.606000	25.479512	0.000822	20.786564
1271.316875	-2.990400	3.543100	-10.594000	25.447080	0.000822	20.814687
1272.311494	-2.995100	3.543100	-10.610000	25.429663	0.000822	20.811423
1273.313139	-3.013400	3.541500	-10.671000	25.434424	0.000821	20.802453
1274.320051	-2.986600	3.542700	-10.579000	25.443548	0.000823	20.796442
1275.315518	-3.012600	3.540500	-10.665000	25.478765	0.000821	20.783917
1276.319963	-3.007600	3.540200	-10.646000	25.498025	0.000821	20.817009
1277.314563	-3.027700	3.539900	-10.717000	25.507763	0.000819	20.800236
1278.318894	-3.000100	3.540600	-10.621000	25.516587	0.000818	20.807674
1279.317165	-3.016400	3.539200	-10.674000	25.488508	0.000819	20.800339
1280.316778	-3.003000	3.538800	-10.626000	25.509701	0.000818	20.780845
1281.316983	-3.002700	3.538200	-10.622000	25.524239	0.000816	20.791651
1282.316598	-2.994100	3.539100	-10.594000	25.544443	0.000817	20.793449
1283.315459	-3.001200	3.538000	-10.618000	25.536968	0.000817	20.796847
1284.314666	-2.992700	3.538700	-10.589000	25.574989	0.000815	20.797099
1285.316421	-3.006100	3.537100	-10.632000	25.586911	0.000815	20.802908
1286.315278	-2.991400	3.538200	-10.582000	25.611790	0.000814	20.804187
1287.318857	-2.992700	3.537200	-10.584000	25.621178	0.000815	20.784692
1288.317116	-2.984000	3.536400	-10.551000	25.624611	0.000815	20.773915
1289.318210	-3.004300	3.536800	-10.624000	25.581924	0.000812	20.797425
1290.317854	-3.003300	3.535900	-10.618000	25.559753	0.000813	20.796023
1291.319538	-2.982200	3.536600	-10.546000	25.560530	0.000811	20.778785
1292.320620	-2.993000	3.534900	-10.579000	25.572083	0.000810	20.775214
1293.317689	-2.989600	3.535400	-10.568000	25.569471	0.000811	20.778281
1294.320721	-2.973700	3.534700	-10.510000	25.552327	0.000810	20.783349
1295.319757	-2.963700	3.536600	-10.481000	25.585278	0.000809	20.780879
1296.323225	-2.984400	3.535100	-10.549000	25.593579	0.000810	20.767405
1297.324443	-3.004700	3.533100	-10.615000	25.622152	0.000809	20.797524
1298.323985	-3.012400	3.533500	-10.643000	25.608884	0.000809	20.776137
1299.320929	-3.013200	3.532100	-10.642000	25.641587	0.000806	20.776266
1300.322346	-3.002500	3.532300	-10.605000	25.639497	0.000809	20.777012
1301.319529	-2.973800	3.534600	-10.509000	25.657363	0.000807	20.790688
1302.320700	-3.010400	3.531300	-10.630000	25.603789	0.000806	20.775762
1303.323709	-3.004800	3.531600	-10.611000	25.617431	0.000808	20.778084
1304.321907	-2.996200	3.532300	-10.581000	25.603641	0.000806	20.784623
1305.328749	-3.007900	3.530900	-10.620000	25.624217	0.000806	20.787270
1306.321128	-3.013700	3.530800	-10.640000	25.603587	0.000803	20.779827
1307.321808	-3.000900	3.530100	-10.592000	25.569648	0.000806	20.788890
1308.324787	-3.035100	3.529300	-10.711000	25.527033	0.000802	20.777861
1309.321290	-3.009000	3.528400	-10.615000	25.490677	0.000801	20.790189
1310.322051	-3.010500	3.527700	-10.619000	25.478548	0.000802	20.780380
1311.322115	-3.016500	3.528200	-10.642000	25.486850	0.000800	20.789192
1312.320963	-3.020100	3.527300	-10.651000	25.513690	0.000799	20.772996
1313.324537	-3.004800	3.528700	-10.601000	25.556975	0.000799	20.794654
1314.324263	-3.017900	3.526800	-10.642000	25.567957	0.000800	20.781976
1315.327293	-3.014400	3.526500	-10.629000	25.607693	0.000799	20.781580
1316.327348	-3.015900	3.526600	-10.635000	25.612390	0.000799	20.774443
1317.324012	-3.021800	3.527400	-10.658000	25.622004	0.000798	20.787893
1318.324375	-3.012100	3.525300	-10.618000	25.605461	0.000799	20.801149
1319.334206	-3.012700	3.524600	-10.617000	25.584810	0.000798	20.778987
1320.325550	-3.003700	3.525600	-10.589000	25.589925	0.000795	20.791711
1321.326534	-3.025900	3.524500	-10.664000	25.611869	0.000798	20.786248
1322.326749	-2.999500	3.525300	-10.573000	25.627896	0.000794	20.757299
1323.333807	-3.008700	3.524300	-10.603000	25.640692	0.000794	20.791488
1324.326813	-2.996700	3.524900	-10.562000	25.652942	0.000794	20.772497
1325.329084	-3.001600	3.525400	-10.579000	25.659802	0.000794	20.774172
1326.326932	-3.003700	3.523600	-10.583000	25.660475	0.000794	20.781012
1327.328578	-2.994000	3.524400	-10.551000	25.642683	0.000794	20.765513
1328.328684	-2.981600	3.523300	-10.503000	25.658336	0.000792	20.786925
1329.327831	-3.015400	3.522000	-10.618000	25.654137	0.000792	20.775120
1330.329295	-2.999200	3.523300	-10.567000	25.643681	0.000791	20.774577
1331.329251	-2.998500	3.521700	-10.559000	25.610236	0.000791	20.762322
1332.330280	-3.005500	3.522100	-10.585000	25.612621	0.000791	20.766615
1333.333312	-3.005600	3.520900	-10.582000	25.574748	0.000791	20.784529
1334.334538	-2.994300	3.521400	-10.543000	25.583301	0.000789	20.774152
1335.331807	-3.011100	3.519700	-10.597000	25.598856	0.000790	20.771282
1336.331854	-2.968600	3.521900	-10.453000	25.621886	0.000790	20.765014
1337.342996	-2.985100	3.521500	-10.510000	25.623278	0.000788	20.770205
1338.329408	-2.994000	3.519300	-10.535000	25.623357	0.000788	20.775026
1339.330419	-2.974500	3.520000	-10.468000	25.635326	0.000788	20.744373
1340.333964	-2.979600	3.519300	-10.486000	25.667104	0.000788	20.764911
1341.332480	-2.971900	3.519600	-10.458000	25.678783	0.000789	20.761468
1342.330372	-2.987500	3.518000	-10.509000	25.674309	0.000787	20.769302
1343.333358	-3.004300	3.517100	-10.566000	25.666111	0.000787	20.774344
1344.331496	-2.993400	3.518100	-10.530000	25.657589	0.000785	20.766259
1345.331134	-3.022000	3.517000	-10.626000	25.646755	0.000785	20.760120
1346.338092	-2.986500	3.517600	-10.504000	25.626504	0.000784	20.776765
1347.333155	-2.990500	3.517700	-10.519000	25.576632	0.000784	20.774567
1348.334355	-3.021300	3.516800	-10.625000	25.540376	0.000785	20.781304
1349.332867	-2.990200	3.515500	-10.511000	25.498753	0.000784	20.756573
1350.333385	-3.003400	3.516100	-10.559000	25.467545	0.000784	20.770279
1351.334821	-2.993600	3.516400	-10.526000	25.456233	0.000782	20.757971
1352.337847	-3.034900	3.513700	-10.661000	25.459366	0.000784	20.747366
1353.337650	-3.009600	3.515100	-10.577000	25.491818	0.000779	20.762886
1354.334186	-3.021900	3.513600	-10.617000	25.507252	0.000781	20.774591
1355.337067	-3.016100	3.514000	-10.598000	25.491592	0.000780	20.747011
1356.336839	-3.005400	3.514200	-10.560000	25.511722	0.000781	20.772917
1357.339113	-3.006600	3.513300	-10.562000	25.546258	0.000781	20.771090
1358.338820	-3.001000	3.513600	-10.544000	25.583458	0.000779	20.750128
1359.340010	-3.010700	3.513200	-10.577000	25.598989	0.000779	20.763355
1360.338574	-3.002400	3.512300	-10.545000	25.616983	0.000779	20.764832
1361.338584	-2.996900	3.511100	-10.522000	25.615710	0.000778	20.774932
1362.340418	-3.016700	3.511500	-10.592000	25.613049	0.000776	20.732430
1363.342414	-3.016200	3.511200	-10.589000	25.645103	0.000777	20.749451
1364.338896	-2.997000	3.512000	-10.525000	25.647463	0.000775	20.766047
1365.339295	-3.009700	3.511400	-10.566000	25.643962	0.000775	20.785764
1366.339487	-2.999000	3.510800	-10.528000	25.634466	0.000776	20.760579
1367.339053	-3.002000	3.509600	-10.535000	25.616555	0.000774	20.759186
1368.338738	-3.001800	3.509200	-10.533000	25.595360	0.000775	20.761606
1369.340179	-2.978700	3.509100	-10.451000	25.592925	0.000773	20.756316
1370.341993	-2.992700	3.510600	-10.504000	25.602323	0.000773	20.753901
1371.338789	-2.999900	3.508800	-10.525000	25.616629	0.000774	20.744087
1372.339548	-3.013900	3.507600	-10.571000	25.626376	0.000771	20.774740
1373.343094	-3.000900	3.507900	-10.525000	25.651766	0.000770	20.733857
1374.339801	-3.005600	3.506700	-10.539000	25.679049	0.000771	20.753200
1375.339728	-3.008500	3.508100	-10.553000	25.675769	0.000771	20.744689
1376.341669	-2.994100	3.506800	-10.499000	25.680318	0.000770	20.747361
1377.341156	-3.008000	3.505700	-10.544000	25.672740	0.000770	20.745914
1378.340050	-3.015000	3.505800	-10.568000	25.690158	0.000770	20.752977
1379.343269	-3.017000	3.505700	-10.576000	25.713338	0.000769	20.753975
1380.339372	-3.012400	3.505300	-10.557000	25.709242	0.000767	20.750335
1381.340915	-2.994100	3.505100	-10.493000	25.722485	0.000769	20.749885
1382.342357	-2.980500	3.506300	-10.449000	25.701664	0.000767	20.749362
1383.340934	-2.990500	3.504200	-10.479000	25.682732	0.000766	20.743148
1384.347158	-2.978000	3.505300	-10.438000	25.709291	0.000767	20.755126
1385.343507	-2.989900	3.503000	-10.471000	25.691530	0.000766	20.736337
1386.343943	-2.997300	3.503700	-10.500000	25.683204	0.000766	20.747890
1387.342366	-3.004200	3.502300	-10.521000	25.699555	0.000764	20.748665
1388.341857	-3.005200	3.503500	-10.528000	25.697893	0.000764	20.750789
1389.348368	-2.996900	3.503900	-10.500000	25.714514	0.000764	20.764639
1390.342751	-3.007000	3.501800	-10.529000	25.728405	0.000763	20.725959
1391.342774	-2.992600	3.502900	-10.482000	25.771657	0.000761	20.751861
1392.342054	-2.986100	3.502300	-10.457000	25.751959	0.000763	20.739661
1393.344087	-3.029500	3.499800	-10.601000	25.761793	0.000762	20.735314
1394.343370	-2.994500	3.501500	-10.484000	25.757717	0.000763	20.717468
1395.346122	-3.002200	3.500400	-10.508000	25.756704	0.000762	20.740634
1396.342582	-2.992500	3.500000	-10.473000	25.732231	0.000758	20.746398
1397.344672	-2.999500	3.500500	-10.498000	25.697145	0.000761	20.744348
1398.343081	-3.000700	3.499700	-10.501000	25.677392	0.000758	20.724033
1399.343193	-3.010300	3.499400	-10.533000	25.667950	0.000760	20.728300
1400.345099	-2.991500	3.498600	-10.464000	25.631648	0.000760	20.735937
1401.342677	-2.981600	3.498600	-10.430000	25.645914	0.000758	20.715176
1402.344157	-3.017000	3.496700	-10.549000	25.665122	0.000757	20.734470
1403.344081	-2.997000	3.498300	-10.483000	25.673246	0.000756	20.746897
1404.344141	-3.014200	3.497700	-10.541000	25.677446	0.000757	20.722665
1405.345833	-3.001300	3.497500	-10.496000	25.690708	0.000756	20.728873
1406.343250	-3.009400	3.496000	-10.520000	25.663008	0.000756	20.729026
1407.347970	-2.999100	3.496300	-10.485000	25.660647	0.000752	20.725233
1408.343607	-2.988800	3.496200	-10.449000	25.604964	0.000753	20.730474
1409.346253	-2.997800	3.496100	-10.479000	25.572412	0.000755	20.745672
1410.345881	-3.001900	3.495400	-10.491000	25.566299	0.000753	20.729575
1411.347176	-2.974200	3.495000	-10.393000	25.546671	0.000754	20.718871
1412.345755	-2.994800	3.495000	-10.466000	25.553502	0.000753	20.723361
1413.346618	-2.992200	3.494100	-10.454000	25.536904	0.000750	20.743202
1414.343439	-2.995100	3.494800	-10.465000	25.532954	0.000751	20.750616
1415.345294	-2.966200	3.494500	-10.364000	25.486334	0.000749	20.726083
1416.343281	-2.996100	3.493000	-10.464000	25.482010	0.000749	20.718896
1417.344789	-3.009600	3.491700	-10.508000	25.517772	0.000750	20.723514
1418.345754	-3.019300	3.492000	-10.543000	25.517349	0.000749	20.720244
1419.346264	-3.014700	3.492300	-10.527000	25.578648	0.000750	20.745771
1420.345185	-3.000100	3.491200	-10.473000	25.602599	0.000749	20.722882
1421.350387	-3.012200	3.491100	-10.514000	25.624266	0.000749	20.723781
1422.348109	-2.986200	3.491100	-10.424000	25.658961	0.000749	20.733971
1423.347178	-2.998100	3.490000	-10.462000	25.676398	0.000749	20.712129
1424.347666	-2.966300	3.491000	-10.355000	25.660618	0.000747	20.721884
1425.345672	-3.024300	3.486900	-10.544000	25.655056	0.000746	20.741903
1426.347990	-2.983200	3.489200	-10.408000	25.643249	0.000746	20.703490
1427.350371	-2.987100	3.488400	-10.418000	25.652440	0.000746	20.729792
1428.347001	-2.993100	3.489400	-10.443000	25.668521	0.000746	20.715596
1429.347080	-2.999000	3.488800	-10.462000	25.633310	0.000746	20.706310
1430.347359	-3.010700	3.488100	-10.501000	25.614574	0.000744	20.717365
1431.350089	-2.995900	3.488400	-10.449000	25.595286	0.000746	20.711269
1432.347103	-2.984200	3.486900	-10.405000	25.600902	0.000743	20.725446
1433.347699	-2.990600	3.486800	-10.427000	25.592232	0.000744	20.729066
1434.347114	-3.009200	3.486300	-10.490000	25.590191	0.000742	20.712791
1435.347406	-3.016300	3.484600	-10.509000	25.573991	0.000742	20.711694
1436.350883	-3.009700	3.484800	-10.487000	25.587279	0.000743	20.717454
1437.350930	-2.975900	3.486400	-10.375000	25.633694	0.000744	20.699583
1438.349556	-2.990500	3.484800	-10.420000	25.646342	0.000744	20.708019
1439.355795	-3.007900	3.484700	-10.481000	25.657717	0.000742	20.705219
1440.350681	-3.011600	3.485200	-10.494000	25.667557	0.000743	20.710361
1441.352408	-3.001000	3.483800	-10.454000	25.650109	0.000742	20.706113
1442.352810	-3.006100	3.483100	-10.470000	25.693290	0.000740	20.717242
1443.352597	-2.995400	3.484500	-10.435000	25.693064	0.000741	20.716066
1444.354078	-2.993500	3.482800	-10.425000	25.679448	0.000740	20.700018
1445.353651	-3.012500	3.481100	-10.486000	25.656139	0.000738	20.712169
1446.350715	-3.003100	3.481600	-10.453000	25.617672	0.000739	20.698664
1447.350966	-2.996700	3.481400	-10.431000	25.590334	0.000738	20.689225
1448.356134	-3.011100	3.481000	-10.480000	25.581491	0.000737	20.709744
1449.354438	-3.012300	3.481200	-10.485000	25.572811	0.000737	20.714303
1450.351206	-3.017600	3.479800	-10.498000	25.600121	0.000738	20.702374
1451.356670	-2.980700	3.481300	-10.375000	25.658431	0.000738	20.698823
1452.352273	-2.978000	3.479900	-10.361000	25.656990	0.000736	20.714446
1453.358956	-2.991500	3.478700	-10.405000	25.646147	0.000735	20.696442
1454.352077	-3.024700	3.477200	-10.516000	25.615883	0.000735	20.708722
1455.352809	-2.994600	3.477900	-10.413000	25.642016	0.000734	20.700829
1456.352730	-2.999700	3.478500	-10.432000	25.674787	0.000735	20.720942
1457.353391	-2.991600	3.477800	-10.403000	25.686638	0.000735	20.712930
1458.354001	-3.012400	3.479000	-10.478000	25.669815	0.000733	20.702671
1459.353225	-3.009900	3.477300	-10.465000	25.672446	0.000732	20.703891
1460.353600	-3.011900	3.475500	-10.467000	25.648444	0.000732	20.722933
1461.353901	-2.976000	3.477100	-10.346000	25.636090	0.000730	20.698670
1462.354242	-2.979900	3.476800	-10.358000	25.608084	0.000730	20.695672
1463.354155	-2.999300	3.476600	-10.425000	25.573693	0.000730	20.698592
1464.354173	-3.006100	3.475000	-10.445000	25.542360	0.000728	20.721654
1465.362145	-2.996100	3.475500	-10.411000	25.528289	0.000727	20.726016
1466.362104	-3.027500	3.473000	-10.513000	25.500855	0.000727	20.697041
1467.354685	-2.999700	3.474200	-10.420000	25.484629	0.000727	20.717258
1468.357565	-2.992600	3.475200	-10.400000	25.492804	0.000727	20.711242
1469.360877	-2.980500	3.474300	-10.354000	25.531515	0.000726	20.724514
1470.357042	-2.979300	3.473600	-10.347000	25.569114	0.000726	20.691622
1471.357866	-3.022200	3.472500	-10.494000	25.615579	0.000725	20.685655
1472.357831	-3.010100	3.472000	-10.450000	25.663236	0.000724	20.719298
1473.358586	-3.008000	3.471100	-10.440000	25.718941	0.000725	20.698908
1474.357178	-3.009200	3.471200	-10.444000	25.719984	0.000724	20.690945
1475.361477	-3.006400	3.471600	-10.434000	25.769028	0.000725	20.708915
1476.357954	-3.013100	3.470300	-10.454000	25.761751	0.000724	20.705398
1477.357969	-2.992900	3.471100	-10.387000	25.768900	0.000723	20.708787
1478.361829	-3.008800	3.469600	-10.438000	25.744777	0.000722	20.704470
1479.360342	-3.021800	3.467600	-10.477000	25.703412	0.000720	20.716028
1480.364384	-3.014800	3.469100	-10.457000	25.651154	0.000721	20.704317
1481.360991	-2.987900	3.469700	-10.367000	25.637881	0.000719	20.690037
1482.361795	-2.978700	3.468700	-10.331000	25.637340	0.000719	20.707513
1483.361699	-2.995100	3.467900	-10.385000	25.644840	0.000719	20.689439
1484.361656	-2.993000	3.469100	-10.382000	25.653514	0.000718	20.706688
1485.365158	-2.997000	3.468600	-10.394000	25.681368	0.000718	20.704317
1486.361475	-2.983200	3.467000	-10.341000	25.679553	0.000718	20.694433
1487.362934	-3.012600	3.466300	-10.441000	25.675998	0.000720	20.697501
1488.363126	-2.993600	3.467200	-10.377000	25.681884	0.000715	20.708155
1489.363989	-3.028400	3.465800	-10.494000	25.691055	0.000717	20.695554
1490.364494	-3.002100	3.466200	-10.405000	25.745092	0.000716	20.695777
1491.366984	-3.008200	3.465700	-10.425000	25.757021	0.000718	20.696853
1492.363846	-2.999200	3.465800	-10.393000	25.772721	0.000716	20.678957
1493.365275	-3.015400	3.464600	-10.446000	25.780869	0.000715	20.703265
1494.368984	-2.991700	3.465200	-10.364000	25.806658	0.000714	20.718740
1495.363345	-3.020400	3.463100	-10.459000	25.782659	0.000714	20.709805
1496.366362	-2.983500	3.463900	-10.333000	25.765100	0.000713	20.698804
1497.364665	-3.005800	3.462800	-10.408000	25.799185	0.000713	20.718819
1498.366646	-2.997000	3.461900	-10.374000	25.796225	0.000712	20.696878
1499.365356	-3.009800	3.462400	-10.420000	25.784478	0.000712	20.702623
1500.364989	-3.002700	3.463000	-10.397000	25.824226	0.000710	20.712679
1501.367869	-3.026900	3.461000	-10.474000	25.798294	0.000711	20.723141
1502.368930	-2.997600	3.461800	-10.375000	25.766221	0.000712	20.717475
1503.364893	-2.996000	3.461800	-10.370000	25.725226	0.000710	20.695263
1504.364722	-3.019300	3.460300	-10.446000	25.701027	0.000711	20.711262
1505.366429	-2.999200	3.461300	-10.379000	25.660010	0.000708	20.694719
1506.366063	-3.003500	3.460800	-10.394000	25.622985	0.000709	20.700681
1507.371049	-2.992800	3.460600	-10.355000	25.609092	0.000710	20.697634
1508.368748	-3.022000	3.457200	-10.446000	25.600151	0.000707	20.689128
1509.371076	-2.995000	3.457700	-10.355000	25.558329	0.000709	20.706870
1510.370119	-2.984600	3.459500	-10.323000	25.557660	0.000708	20.684386
1511.368971	-3.002800	3.457600	-10.382000	25.542827	0.000706	20.716433
1512.374657	-2.997000	3.457800	-10.362000	25.520115	0.000706	20.696942
1513.367244	-2.993400	3.457700	-10.349000	25.513805	0.000706	20.716685
1514.367667	-3.037800	3.454900	-10.494000	25.557144	0.000706	20.713267
1515.367651	-3.017600	3.457200	-10.431000	25.540693	0.000704	20.697693
1516.369367	-3.010000	3.456000	-10.402000	25.536994	0.000704	20.709152
1517.368198	-2.993400	3.456500	-10.345000	25.572778	0.000705	20.709527
1518.369917	-3.022500	3.455600	-10.443000	25.599438	0.000703	20.708327
1519.368048	-2.994100	3.455500	-10.345000	25.602049	0.000704	20.707631
1520.367700	-2.986800	3.455200	-10.319000	25.605979	0.000702	20.712526
1521.367979	-3.005200	3.453800	-10.379000	25.599369	0.000702	20.724854
1522.368672	-2.998600	3.454300	-10.357000	25.604587	0.000702	20.706860
1523.372417	-3.003000	3.453400	-10.369000	25.636646	0.000700	20.693538
1524.379529	-2.995500	3.452500	-10.341000	25.638633	0.000701	20.709759
1525.372541	-2.992800	3.452400	-10.332000	25.661868	0.000702	20.719347
1526.369607	-2.975500	3.454300	-10.276000	25.669869	0.000700	20.709838
1527.372075	-3.014500	3.450800	-10.401000	25.681647	0.000699	20.716926
1528.372383	-2.991100	3.451700	-10.323000	25.703215	0.000699	20.703975
1529.372931	-2.992900	3.451700	-10.329000	25.713281	0.000699	20.720251
1530.373316	-2.993700	3.449800	-10.326000	25.683196	0.000699	20.695721
1531.371770	-3.002900	3.449600	-10.357000	25.675170	0.000697	20.703308
1532.371906	-3.011800	3.450100	-10.389000	25.687120	0.000698	20.714837
1533.372882	-3.016800	3.448900	-10.403000	25.699792	0.000697	20.720453
1534.372726	-3.003000	3.449300	-10.357000	25.701036	0.000697	20.694200
1535.373687	-2.993000	3.450700	-10.326000	25.705708	0.000698	20.701263
1536.372715	-3.003900	3.448600	-10.358000	25.698135	0.000695	20.727323
1537.372849	-2.985400	3.449900	-10.297000	25.695224	0.000693	20.701164
1538.372584	-2.985500	3.447800	-10.292000	25.681061	0.000694	20.717761
1539.374012	-2.969400	3.448400	-10.238000	25.675598	0.000695	20.708480
1540.373461	-2.983500	3.446500	-10.281000	25.640811	0.000695	20.748459
1541.375829	-2.993400	3.446100	-10.314000	25.665487	0.000693	20.722982
1542.373702	-2.989100	3.446900	-10.302000	25.656021	0.000692	20.726276
1543.374471	-2.998300	3.445800	-10.331000	25.655224	0.000692	20.727847
1544.374925	-2.990200	3.445800	-10.303000	25.688221	0.000692	20.715943
1545.373108	-3.015900	3.444600	-10.387000	25.706317	0.000692	20.732697
1546.375237	-2.993400	3.444700	-10.311000	25.724674	0.000691	20.721263
1547.374208	-3.031400	3.444200	-10.438000	25.755284	0.000691	20.726879
1548.372515	-2.995200	3.444300	-10.316000	25.775478	0.000691	20.696901
1549.374823	-3.012900	3.443500	-10.374000	25.752850	0.000689	20.724908
1550.374021	-3.020600	3.442600	-10.397000	25.726267	0.000688	20.725708
1551.374570	-3.000300	3.444000	-10.332000	25.689918	0.000690	20.725234
1552.373886	-3.029400	3.441800	-10.426000	25.669943	0.000688	20.735992
1553.375081	-3.000000	3.442600	-10.327000	25.678691	0.000688	20.733873
1554.375126	-2.990500	3.442200	-10.293000	25.658219	0.000688	20.727536
1555.378397	-2.991400	3.441800	-10.294000	25.697898	0.000689	20.737992
1556.378591	-2.998500	3.442300	-10.321000	25.695513	0.000688	20.735597
1557.382471	-3.026000	3.440500	-10.408000	25.726695	0.000687	20.720448
1558.377919	-3.010900	3.439800	-10.355000	25.721531	0.000687	20.710045
1559.376627	-2.994700	3.441100	-10.304000	25.746275	0.000687	20.753393
1560.385174	-3.007400	3.440400	-10.345000	25.772184	0.000686	20.736268
1561.378941	-3.003000	3.439400	-10.326000	25.807566	0.000683	20.729610
1562.378884	-3.005200	3.439900	-10.336000	25.782549	0.000685	20.746680
1563.379145	-3.005400	3.438600	-10.333000	25.791463	0.000684	20.739988
1564.379880	-3.008100	3.439900	-10.346000	25.810895	0.000684	20.736747
1565.380287	-3.003500	3.439000	-10.327000	25.802497	0.000682	20.713137
1566.383772	-3.019300	3.436900	-10.376000	25.786895	0.000681	20.748676
1567.381153	-2.993000	3.437200	-10.287000	25.770994	0.000681	20.723219
1568.381299	-2.998000	3.437300	-10.304000	25.761877	0.000682	20.747253
1569.381912	-2.995300	3.437300	-10.295000	25.702221	0.000681	20.732850
1570.380236	-3.019500	3.434800	-10.369000	25.659419	0.000681	20.727318
1571.384762	-3.019900	3.436100	-10.375000	25.645226	0.000681	20.734401
1572.382019	-2.981200	3.436100	-10.242000	25.634393	0.000680	20.745332
1573.383715	-3.016500	3.434100	-10.358000	25.613345	0.000679	20.737943
1574.383559	-3.004000	3.435100	-10.317000	25.621321	0.000681	20.738842
1575.383867	-3.012100	3.434300	-10.343000	25.647961	0.000680	20.742838
1576.384355	-3.014100	3.432800	-10.346000	25.674698	0.000678	20.754993
1577.385353	-3.012900	3.432300	-10.341000	25.713231	0.000679	20.736323
1578.383511	-3.006200	3.433100	-10.319000	25.760466	0.000677	20.751526
1579.382707	-3.003000	3.432600	-10.307000	25.808609	0.000677	20.770962
1580.384367	-3.000200	3.431600	-10.295000	25.840711	0.000676	20.725920
1581.382905	-2.987200	3.431800	-10.250000	25.876809	0.000675	20.743218
1582.386076	-2.988300	3.431800	-10.255000	25.890969	0.000675	20.756495
1583.385124	-3.008500	3.431400	-10.322000	25.922769	0.000675	20.731541
1584.388556	-3.010400	3.430200	-10.323000	25.910822	0.000674	20.740402
1585.384400	-3.006200	3.429700	-10.309000	25.877438	0.000674	20.757127
1586.386301	-3.027600	3.429900	-10.384000	25.848995	0.000674	20.751787
1587.387103	-3.002600	3.429000	-10.295000	25.783660	0.000674	20.744477
1588.383064	-3.010500	3.428500	-10.320000	25.764979	0.000674	20.753689
1589.384155	-3.003600	3.428900	-10.298000	25.764453	0.000672	20.746996
1590.387786	-2.995400	3.428400	-10.268000	25.788139	0.000671	20.748503
1591.389562	-3.009100	3.428000	-10.314000	25.787219	0.000671	20.728138
1592.385396	-3.015600	3.426100	-10.330000	25.803495	0.000671	20.744013
1593.388538	-3.026500	3.425700	-10.367000	25.812414	0.000671	20.748231
1594.387647	-3.005000	3.426800	-10.297000	25.849909	0.000669	20.747964
1595.387367	-2.997600	3.427300	-10.271000	25.874876	0.000670	20.742699
1596.386070	-3.017800	3.424700	-10.334000	25.884965	0.000669	20.761843
1597.388091	-2.997100	3.425800	-10.266000	25.889139	0.000669	20.755605
1598.390213	-3.028200	3.425900	-10.373000	25.922503	0.000668	20.752612
1599.388849	-3.022600	3.424900	-10.351000	25.906234	0.000668	20.758554
1600.387862	-2.991500	3.425700	-10.247000	25.900968	0.000665	20.747574
1601.387083	-2.989500	3.425600	-10.239000	25.881391	0.000667	20.742131
1602.387167	-3.009600	3.423600	-10.303000	25.902360	0.000667	20.752765
1603.387607	-2.999500	3.424400	-10.270000	25.928122	0.000667	20.756361
1604.389583	-3.002700	3.424400	-10.281000	25.943402	0.000667	20.767918
1605.387216	-3.046300	3.421700	-10.423000	25.906642	0.000665	20.769395
1606.387102	-3.014500	3.423100	-10.316000	25.895265	0.000666	20.769346
1607.387262	-3.010500	3.422700	-10.303000	25.901996	0.000663	20.747183
1608.387939	-3.021700	3.422100	-10.340000	25.941942	0.000664	20.774986
1609.389681	-3.017000	3.420900	-10.319000	25.976695	0.000664	20.741622
1610.389227	-3.014000	3.421100	-10.311000	25.964778	0.000663	20.767108
1611.389134	-3.015900	3.420700	-10.315000	25.944508	0.000663	20.752434
1612.388696	-3.011500	3.420500	-10.299000	25.941376	0.000663	20.767306
1613.388690	-3.001300	3.421100	-10.267000	25.916190	0.000662	20.756227
1614.393410	-3.005800	3.418700	-10.275000	25.900668	0.000661	20.737314
1615.390598	-3.001700	3.420200	-10.265000	25.874188	0.000659	20.758603
1616.393438	-2.988900	3.418600	-10.217000	25.895152	0.000661	20.764490
1617.390237	-3.004900	3.418200	-10.270000	25.919007	0.000658	20.756686
1618.390358	-2.997800	3.419100	-10.249000	25.923599	0.000659	20.760351
1619.393817	-3.001500	3.416800	-10.254000	25.920103	0.000661	20.787186
1620.390819	-2.980100	3.419000	-10.188000	25.943003	0.000659	20.762776
1621.395043	-2.998500	3.416800	-10.245000	25.936347	0.000659	20.760830
1622.391867	-2.999500	3.417200	-10.248000	25.979620	0.000659	20.766846
1623.397376	-3.021300	3.415800	-10.319000	25.967231	0.000658	20.790910
1624.394185	-3.008800	3.416800	-10.279000	25.975574	0.000659	20.771316
1625.393188	-2.988000	3.416600	-10.208000	25.967826	0.000656	20.781076
1626.395476	-2.981200	3.416000	-10.183000	25.948893	0.000657	20.773435
1627.393882	-2.988800	3.415700	-10.207000	25.900540	0.000656	20.767059
1628.394227	-2.982500	3.414100	-10.182000	25.914100	0.000655	20.773569
1629.394604	-3.005000	3.415400	-10.263000	25.918122	0.000656	20.776186
1630.396297	-2.994500	3.413500	-10.220000	25.926376	0.000654	20.777367
1631.397832	-2.992400	3.414100	-10.216000	25.915196	0.000654	20.788421
1632.398480	-2.988600	3.413900	-10.201000	25.943716	0.000654	20.764915
1633.394243	-3.007800	3.413600	-10.267000	25.969325	0.000652	20.776418
1634.395141	-3.005500	3.412400	-10.256000	25.972904	0.000653	20.768160
1635.397876	-3.005900	3.411900	-10.254000	25.969777	0.000651	20.792994
1636.394132	-3.037300	3.411300	-10.360000	25.957806	0.000651	20.805623
1637.397350	-3.027500	3.410400	-10.324000	25.948593	0.000650	20.783091
1638.395559	-3.009400	3.411500	-10.266000	25.960097	0.000652	20.773786
1639.396474	-2.992600	3.411900	-10.209000	25.977830	0.000651	20.784015
1640.398074	-2.999300	3.410500	-10.228000	25.998571	0.000650	20.790154
1641.399478	-2.994100	3.410600	-10.211000	25.967477	0.000650	20.766501
1642.396610	-3.021600	3.410300	-10.302000	25.992342	0.000650	20.796699
1643.399450	-3.011500	3.410100	-10.268000	25.985661	0.000647	20.787616
1644.397894	-3.007600	3.410800	-10.257000	25.962069	0.000648	20.791888
1645.395437	-3.005300	3.408900	-10.243000	25.931214	0.000648	20.791710
1646.397083	-2.968700	3.410300	-10.123000	25.901111	0.000646	20.789917
1647.401165	-3.016700	3.408100	-10.279000	25.869890	0.000647	20.776572
1648.396632	-3.020400	3.406800	-10.287000	25.901091	0.000648	20.794639
1649.394660	-2.986600	3.408100	-10.177000	25.864226	0.000644	20.789374
1650.396400	-2.996000	3.406900	-10.204000	25.863956	0.000646	20.793844
1651.397454	-2.991400	3.407900	-10.192000	25.876852	0.000644	20.775031
1652.397725	-2.990500	3.407200	-10.188000	25.879109	0.000645	20.787729
1653.397010	-3.014500	3.405500	-10.265000	25.871341	0.000644	20.800314
1654.397727	-3.004800	3.404900	-10.230000	25.875441	0.000645	20.787838
1655.397563	-2.995500	3.405800	-10.201000	25.877501	0.000643	20.789907
1656.398205	-2.987700	3.405800	-10.174000	25.887020	0.000644	20.787616
1657.399335	-3.013400	3.405400	-10.260000	25.907541	0.000642	20.775515
1658.398056	-3.014200	3.403900	-10.259000	25.896317	0.000642	20.795533
1659.398612	-2.987400	3.404800	-10.170000	25.870156	0.000640	20.784425
1660.398676	-3.004900	3.403800	-10.226000	25.826756	0.000640	20.795829
1661.400461	-3.004300	3.403700	-10.225000	25.826830	0.000639	20.795903
1662.399390	-2.988500	3.403200	-10.169000	25.842583	0.000639	20.806513
1663.396975	-3.002800	3.402600	-10.215000	25.827828	0.000638	20.791690
1664.398077	-3.004100	3.403200	-10.222000	25.865441	0.000639	20.788697
1665.398429	-3.001300	3.401500	-10.208000	25.894508	0.000638	20.796560
1666.399117	-3.005600	3.402300	-10.225000	25.925880	0.000636	20.791567
1667.402264	-3.018700	3.401100	-10.265000	25.930132	0.000638	20.791572
1668.400327	-2.997200	3.401800	-10.195000	25.928446	0.000636	20.804577
1669.403325	-3.024800	3.401300	-10.287000	25.943795	0.000636	20.811936
1670.401340	-3.009300	3.400900	-10.232000	25.972167	0.000635	20.807723
1671.402006	-3.038800	3.398600	-10.326000	25.966282	0.000637	20.814139
1672.406209	-3.015200	3.399000	-10.248000	25.985947	0.000637	20.800704
1673.403101	-2.978100	3.399800	-10.123000	25.958377	0.000635	20.814731
1674.402349	-3.020900	3.397900	-10.264000	25.945491	0.000636	20.793725
1675.403412	-3.009000	3.397500	-10.221000	25.920270	0.000633	20.801104
1676.402511	-3.017100	3.398600	-10.253000	25.916780	0.000636	20.798546
1677.404159	-2.985200	3.398800	-10.146000	25.905423	0.000633	20.785714
1678.404173	-2.981600	3.397300	-10.128000	25.898421	0.000632	20.792906
1679.405017	-2.977100	3.399200	-10.118000	25.886474	0.000632	20.796076
1680.403393	-2.969100	3.397800	-10.088000	25.897487	0.000632	20.793864
1681.406106	-2.998000	3.397900	-10.185000	25.866134	0.000632	20.803144
1682.403060	-3.014500	3.394800	-10.233000	25.864074	0.000630	20.820041
1683.408443	-2.994000	3.396200	-10.167000	25.838566	0.000630	20.815280
1684.406934	-3.006400	3.394500	-10.204000	25.833000	0.000630	20.807318
1685.408341	-2.991600	3.397000	-10.162000	25.802594	0.000629	20.817077
1686.409120	-2.992100	3.395600	-10.159000	25.800662	0.000628	20.808973
1687.407371	-2.968500	3.395600	-10.079000	25.784510	0.000629	20.825938
1688.408828	-3.001500	3.394100	-10.186000	25.780488	0.000627	20.792975
1689.408432	-2.999200	3.394600	-10.180000	25.800864	0.000629	20.840468
1690.409657	-3.004000	3.394100	-10.195000	25.804861	0.000626	20.824096
1691.407572	-2.994500	3.392700	-10.159000	25.825586	0.000628	20.804611
1692.409008	-2.982400	3.393000	-10.118000	25.846409	0.000626	20.833589
1693.408778	-2.999900	3.393700	-10.180000	25.894577	0.000627	20.807061
1694.409687	-2.976000	3.393900	-10.100000	25.908437	0.000626	20.818614
1695.408204	-3.002000	3.392600	-10.183000	25.929233	0.000625	20.839506
1696.412391	-3.008000	3.390500	-10.198000	25.977722	0.000625	20.821839
1697.412945	-2.997500	3.391000	-10.164000	26.015178	0.000624	20.813477
1698.411699	-3.005000	3.390300	-10.186000	26.004820	0.000624	20.817295
1699.415214	-2.992400	3.392000	-10.147000	25.959046	0.000624	20.835792
1700.410468	-2.980600	3.390400	-10.105000	25.960191	0.000623	20.832201
1701.415368	-2.990100	3.391200	-10.138000	25.976484	0.000622	20.826758
1702.411486	-2.999100	3.389400	-10.165000	25.991188	0.000623	20.837737
1703.413225	-2.992100	3.388500	-10.138000	26.004604	0.000622	20.815655
1704.412794	-2.990700	3.390000	-10.137000	26.025516	0.000620	20.824338
1705.415828	-2.999400	3.388000	-10.161000	26.049339	0.000621	20.849695
1706.414037	-2.976800	3.388600	-10.086000	26.058777	0.000622	20.829781
1707.412175	-2.986200	3.387600	-10.116000	26.006747	0.000618	20.814964
1708.414797	-2.990500	3.388000	-10.130000	26.009525	0.000619	20.828186
1709.419130	-2.985000	3.390000	-10.118000	25.963525	0.000619	20.831757
1710.413032	-2.990200	3.387100	-10.126000	25.933619	0.000619	20.822575
1711.415386	-2.998300	3.387100	-10.155000	25.921888	0.000618	20.835920
1712.414267	-2.999100	3.386500	-10.155000	25.948943	0.000618	20.819004
1713.415000	-2.992600	3.386500	-10.133000	25.955231	0.000617	20.822950
1714.416957	-2.993100	3.386600	-10.135000	25.965712	0.000617	20.848653
1715.414756	-2.981800	3.385600	-10.094000	25.981660	0.000615	20.835752
1716.413989	-2.997700	3.385200	-10.147000	25.989335	0.000615	20.845832
1717.413458	-3.001900	3.384900	-10.160000	25.988966	0.000614	20.817014
1718.414472	-3.030500	3.383200	-10.251000	25.965467	0.000615	20.846983
1719.415494	-3.009700	3.383100	-10.182000	25.959729	0.000615	20.841694
1720.415452	-3.010300	3.383500	-10.184000	25.974011	0.000614	20.826645
1721.416679	-2.988900	3.383400	-10.112000	25.975825	0.000613	20.838424
1722.415159	-2.995000	3.383600	-10.133000	25.981788	0.000609	20.848208
1723.416093	-2.979900	3.383200	-10.081000	26.024332	0.000610	20.833579
1724.417301	-2.973400	3.383000	-10.058000	26.020237	0.000612	20.815241
1725.418407	-2.991000	3.381400	-10.113000	26.013807	0.000610	20.843867
1726.415831	-3.010100	3.381100	-10.176000	25.980097	0.000610	20.830863
1727.418498	-3.020500	3.380100	-10.209000	25.955334	0.000610	20.843442
1728.418110	-3.005800	3.380600	-10.160000	25.957119	0.000609	20.845709
1729.415241	-3.002200	3.380800	-10.149000	25.974788	0.000610	20.813675
1730.418683	-2.995800	3.382000	-10.130000	25.971676	0.000609	20.820980
1731.419155	-2.988300	3.380400	-10.101000	26.003768	0.000607	20.821454
1732.415432	-2.996200	3.379900	-10.125000	26.008168	0.000610	20.821607
1733.417073	-3.003900	3.378900	-10.149000	26.020832	0.000606	20.818209
1734.416874	-2.983200	3.379800	-10.082000	26.041301	0.000605	20.805111
1735.419503	-2.975100	3.379000	-10.051000	26.059682	0.000606	20.819310
1736.421746	-2.994500	3.377600	-10.112000	26.075727	0.000607	20.806983
1737.417906	-3.009800	3.377600	-10.165000	26.095149	0.000604	20.806108
1738.423911	-2.996900	3.377500	-10.120000	26.081645	0.000606	20.807240
1739.419110	-2.997500	3.378200	-10.124000	26.099351	0.000605	20.810806
1740.419890	-3.006800	3.377100	-10.153000	26.096943	0.000604	20.817868
1741.424522	-3.016100	3.376400	-10.182000	26.071209	0.000604	20.814772
1742.420125	-3.006800	3.376500	-10.152000	26.065630	0.000605	20.815804
1743.420022	-3.018800	3.376300	-10.191000	26.057460	0.000602	20.793371
1744.419713	-3.022800	3.374900	-10.201000	26.069233	0.000603	20.797139
1745.421945	-2.999200	3.375500	-10.123000	26.050234	0.000601	20.808395
1746.423030	-2.986400	3.375700	-10.080000	26.035880	0.000603	20.801086
1747.427723	-3.001200	3.374300	-10.126000	26.064613	0.000601	20.782065
1748.423373	-2.992600	3.374000	-10.096000	26.099568	0.000600	20.802963
1749.425440	-2.988400	3.374600	-10.084000	26.128078	0.000599	20.800315
1750.423968	-2.978500	3.373800	-10.048000	26.130541	0.000600	20.794255
1751.427170	-2.974900	3.374800	-10.038000	26.133775	0.000599	20.797505
1752.426983	-2.986600	3.373100	-10.073000	26.127641	0.000597	20.792289
1753.427536	-2.999600	3.372500	-10.115000	26.092254	0.000597	20.790398
1754.426747	-2.977800	3.374500	-10.048000	26.096826	0.000598	20.807319
1755.425519	-2.993900	3.372700	-10.096000	26.130305	0.000597	20.797337
1756.426438	-2.994800	3.371900	-10.097000	26.133343	0.000597	20.783320
1757.426922	-2.957300	3.373900	-9.975800	26.098571	0.000596	20.785839
1758.425800	-3.012200	3.371700	-10.156000	26.135727	0.000596	20.779552
1759.425667	-2.992600	3.370900	-10.087000	26.151053	0.000595	20.769347
1760.426738	-2.988900	3.372100	-10.078000	26.156097	0.000595	20.785321
1761.425079	-3.007400	3.369800	-10.133000	26.133624	0.000594	20.785973
1762.426932	-2.976800	3.370400	-10.032000	26.143838	0.000596	20.780589
1763.429152	-2.970800	3.371400	-10.015000	26.151236	0.000594	20.772375
1764.429366	-2.998500	3.368700	-10.100000	26.125238	0.000593	20.790349
1765.428635	-2.966400	3.370800	-9.997800	26.140412	0.000592	20.792320
1766.430118	-2.954500	3.371200	-9.958400	26.107955	0.000592	20.780096
1767.428159	-2.987400	3.368300	-10.061000	26.108162	0.000593	20.763233
1768.432025	-3.006600	3.368500	-10.127000	26.106776	0.000591	20.792187
1769.429470	-2.999700	3.366700	-10.097000	26.094605	0.000591	20.755775
1770.430593	-2.998100	3.367300	-10.095000	26.127986	0.000591	20.782205
1771.428850	-2.990700	3.367000	-10.068000	26.121832	0.000589	20.772702
1772.428730	-2.996100	3.365900	-10.084000	26.133635	0.000589	20.778397
1773.432555	-3.006700	3.366200	-10.119000	26.180822	0.000590	20.768440
1774.432176	-3.009200	3.366100	-10.128000	26.185005	0.000587	20.769324
1775.432786	-2.999900	3.366700	-10.099000	26.198615	0.000588	20.761664
1776.431954	-3.009900	3.365900	-10.129000	26.212948	0.000588	20.782705
1777.431487	-3.011900	3.365100	-10.135000	26.200164	0.000587	20.777919
1778.433366	-3.016900	3.365300	-10.151000	26.151120	0.000587	20.771311
1779.434541	-3.003500	3.364800	-10.104000	26.098470	0.000585	20.763927
1780.433254	-2.999500	3.364400	-10.090000	26.040061	0.000584	20.777312
1781.433083	-3.003800	3.364600	-10.106000	26.003325	0.000585	20.765532
1782.432403	-3.015300	3.362900	-10.139000	26.013791	0.000584	20.754236
1783.432645	-2.995000	3.363200	-10.072000	26.023977	0.000584	20.764945
1784.434302	-3.013900	3.362300	-10.133000	26.074355	0.000581	20.761507
1785.435941	-3.008900	3.362500	-10.117000	26.122420	0.000584	20.756223
1786.436232	-3.006500	3.362400	-10.107000	26.130270	0.000582	20.766956
1787.434040	-2.999900	3.362200	-10.085000	26.140490	0.000583	20.780070
1788.433770	-3.003500	3.363100	-10.101000	26.160235	0.000580	20.751072
1789.437605	-3.015800	3.361100	-10.136000	26.197817	0.000581	20.755646
1790.435519	-3.000500	3.361000	-10.084000	26.221641	0.000580	20.750662
1791.439371	-3.033900	3.359200	-10.190000	26.197950	0.000581	20.756254
1792.437250	-2.964100	3.361500	-9.963000	26.193635	0.000579	20.759504
1793.436397	-3.009500	3.359400	-10.108000	26.194633	0.000580	20.736798
1794.435027	-2.981700	3.359100	-10.015000	26.171664	0.000578	20.759238
1795.443895	-3.000400	3.359100	-10.078000	26.117875	0.000578	20.725577
1796.436513	-2.989600	3.360000	-10.044000	26.110153	0.000578	20.744845
1797.434923	-3.009500	3.357900	-10.105000	26.088028	0.000579	20.744425
1798.435920	-3.009400	3.358500	-10.106000	26.105622	0.000576	20.749775
1799.435260	-3.000200	3.358800	-10.075000	26.115458	0.000577	20.750175
1800.442018	-2.999400	3.357300	-10.070000	26.106694	0.000577	20.752275
1801.438573	-2.997600	3.356300	-10.059000	26.078562	0.000575	20.755777
1802.439995	-2.983600	3.358400	-10.020000	26.060850	0.000575	20.751732
1803.438603	-3.004200	3.357100	-10.085000	26.039546	0.000574	20.759250
1804.437818	-2.981200	3.356700	-10.006000	26.024847	0.000573	20.751594
1805.441031	-2.993600	3.357200	-10.049000	26.038460	0.000574	20.752468
1806.437315	-3.011200	3.354600	-10.100000	26.054314	0.000574	20.744689
1807.441246	-3.003200	3.355100	-10.075000	26.104532	0.000574	20.747732
1808.439394	-2.997800	3.355500	-10.058000	26.120282	0.000572	20.737004
1809.438479	-3.002900	3.355700	-10.076000	26.146088	0.000572	20.729743
1810.438990	-3.032000	3.353600	-10.166000	26.147233	0.000572	20.740852
1811.439287	-3.014800	3.354600	-10.112000	26.128634	0.000571	20.729748
1812.438902	-3.003200	3.354000	-10.072000	26.120961	0.000572	20.760446
1813.438859	-3.001800	3.353600	-10.066000	26.118282	0.000571	20.752065
1814.438404	-3.006100	3.353200	-10.078000	26.148610	0.000570	20.742236
1815.438638	-3.009300	3.352900	-10.089000	26.153831	0.000570	20.735153
1816.439622	-2.976600	3.353300	-9.980100	26.158771	0.000568	20.723521
1817.438703	-3.029200	3.351600	-10.151000	26.128472	0.000567	20.734802
1818.441807	-2.999000	3.352700	-10.054000	26.101727	0.000567	20.744913
1819.438138	-3.025200	3.350400	-10.134000	26.078806	0.000569	20.739900
1820.438016	-2.979600	3.351200	-9.983800	26.112954	0.000565	20.754772
1821.441877	-2.995300	3.351100	-10.037000	26.105483	0.000566	20.729246
1822.441159	-3.009600	3.350000	-10.081000	26.118145	0.000565	20.738176
1823.440899	-3.001400	3.350000	-10.054000	26.074809	0.000565	20.724030
1824.440416	-2.990900	3.350200	-10.020000	26.098429	0.000564	20.726900
1825.440171	-2.986000	3.351100	-10.005000	26.137975	0.000563	20.727281
1826.439185	-2.997800	3.349900	-10.042000	26.186056	0.000564	20.741457
1827.442495	-2.993200	3.350100	-10.027000	26.204581	0.000563	20.733045
1828.439271	-2.996300	3.349800	-10.036000	26.172948	0.000560	20.738241
1829.444983	-3.006900	3.347800	-10.065000	26.151242	0.000561	20.717852
1830.440681	-3.000400	3.347800	-10.042000	26.158050	0.000561	20.725167
1831.441424	-3.002600	3.348100	-10.052000	26.154275	0.000560	20.732754
1832.443310	-2.995400	3.347600	-10.027000	26.178394	0.000559	20.726170
1833.441955	-3.003000	3.346800	-10.050000	26.200400	0.000559	20.712720
1834.442669	-2.999600	3.347100	-10.039000	26.237326	0.000561	20.719956
1835.443375	-2.979100	3.347100	-9.970000	26.234673	0.000558	20.737679
1836.443168	-3.004200	3.345800	-10.050000	26.268895	0.000556	20.708532
1837.443966	-3.006900	3.344400	-10.055000	26.274666	0.000559	20.719073
1838.445330	-3.001400	3.345800	-10.041000	26.291804	0.000557	20.704053
1839.443598	-3.001100	3.345700	-10.039000	26.317699	0.000556	20.745252
1840.444385	-3.009500	3.344300	-10.064000	26.289617	0.000556	20.729357
1841.443126	-3.004200	3.344100	-10.045000	26.240307	0.000555	20.721529
1842.443707	-2.999600	3.344100	-10.030000	26.184181	0.000553	20.720131
1843.446850	-2.986900	3.343800	-9.986200	26.168070	0.000553	20.714372
1844.444365	-2.988300	3.343200	-9.989700	26.136159	0.000554	20.721189
1845.444110	-3.001300	3.343100	-10.032000	26.098861	0.000553	20.715005
1846.445896	-3.008200	3.342000	-10.052000	26.094835	0.000554	20.717124
1847.447228	-3.003600	3.342900	-10.040000	26.087988	0.000554	20.722572
1848.452314	-2.999800	3.341600	-10.023000	26.118184	0.000552	20.714506
1849.444582	-3.009000	3.341900	-10.054000	26.114149	0.000552	20.727522
1850.446304	-2.988400	3.341600	-9.985000	26.125125	0.000554	20.723852
1851.445093	-2.984900	3.342700	-9.976300	26.163255	0.000552	20.714749
1852.449623	-3.020000	3.340500	-10.088000	26.199313	0.000548	20.733440
1853.448147	-3.009700	3.339900	-10.051000	26.214510	0.000550	20.725952
1854.447219	-2.994100	3.341600	-10.004000	26.249461	0.000548	20.742583
1855.449332	-2.965100	3.342500	-9.909700	26.263371	0.000548	20.713886
1856.446689	-2.992600	3.339500	-9.992700	26.262053	0.000549	20.724891
1857.446999	-2.986400	3.339600	-9.972500	26.243780	0.000549	20.704155
1858.446749	-2.979000	3.338600	-9.945100	26.250784	0.000545	20.719255
1859.449251	-2.984200	3.339600	-9.965200	26.253817	0.000546	20.735106
1860.448846	-2.975900	3.338400	-9.932800	26.236241	0.000545	20.707960
1861.450448	-3.002400	3.336900	-10.017000	26.200657	0.000545	20.713927
1862.450397	-3.006900	3.338100	-10.037000	26.191318	0.000544	20.710706
1863.449824	-2.993900	3.336100	-9.987200	26.209903	0.000543	20.696190
1864.452992	-2.985500	3.336700	-9.960800	26.214223	0.000544	20.691522
1865.451439	-2.987900	3.336600	-9.968400	26.265732	0.000545	20.716259
1866.455981	-3.006900	3.336200	-10.030000	26.271296	0.000542	20.728015
1867.452222	-3.013100	3.337100	-10.055000	26.260695	0.000544	20.723999
1868.451234	-2.984700	3.336500	-9.956300	26.227892	0.000542	20.719011
1869.453728	-3.012400	3.334300	-10.042000	26.265478	0.000540	20.702726
1870.455793	-2.992700	3.335800	-9.982800	26.267586	0.000542	20.708639
1871.451086	-2.964000	3.337000	-9.890500	26.269602	0.000539	20.689800
1872.450731	-2.999500	3.335600	-10.004000	26.260274	0.000541	20.712671
1873.452250	-3.014500	3.335100	-10.054000	26.264392	0.000539	20.686935
1874.452837	-2.978800	3.334700	-9.931900	26.287768	0.000537	20.702841
1875.457341	-2.983300	3.333200	-9.942700	26.327350	0.000538	20.694731
1876.453712	-3.012600	3.331700	-10.036000	26.342257	0.000538	20.713981
1877.460695	-2.987900	3.331800	-9.953700	26.376781	0.000537	20.709798
1878.453792	-3.002800	3.333200	-10.008000	26.398232	0.000536	20.706226
1879.454923	-3.007200	3.332400	-10.021000	26.412371	0.000536	20.685822
1880.455874	-2.987900	3.332400	-9.956600	26.398567	0.000536	20.703718
1881.456332	-3.008400	3.331900	-10.023000	26.377215	0.000534	20.699801
1882.453858	-3.001400	3.331600	-9.998500	26.339906	0.000534	20.707824
1883.454494	-2.998600	3.331300	-9.988200	26.257113	0.000534	20.696690
1884.454400	-2.995700	3.331400	-9.978600	26.197622	0.000535	20.688590
1885.454824	-3.002800	3.329600	-9.997500	26.164996	0.000535	20.702748
1886.456465	-2.987200	3.330500	-9.947600	26.150313	0.000534	20.695580
1887.454503	-3.001100	3.328200	-9.987100	26.129954	0.000531	20.697882
1888.459306	-2.998400	3.329400	-9.981900	26.114431	0.000534	20.683232
1889.454724	-2.985300	3.329800	-9.938100	26.145409	0.000532	20.689703
1890.454883	-2.994400	3.327800	-9.963500	26.152591	0.000531	20.707827
1891.458280	-3.011900	3.327300	-10.021000	26.172232	0.000533	20.686310
1892.455114	-3.013100	3.327200	-10.025000	26.184806	0.000530	20.694204
1893.457555	-3.003100	3.327200	-9.990900	26.174774	0.000530	20.672267
1894.454138	-3.001200	3.325900	-9.981100	26.117210	0.000530	20.698828
1895.454327	-3.014300	3.326500	-10.026000	26.113613	0.000527	20.692367
1896.458345	-2.995900	3.326200	-9.964000	26.082590	0.000528	20.692491
1897.462318	-2.993800	3.325100	-9.954500	26.043672	0.000528	20.679940
1898.457414	-3.016400	3.325000	-10.029000	26.070400	0.000527	20.694467
1899.458825	-3.009300	3.325000	-10.005000	26.074450	0.000526	20.685260
1900.465563	-3.011000	3.325000	-10.011000	26.087296	0.000525	20.696745
1901.457050	-3.016400	3.325100	-10.028000	26.084917	0.000525	20.690561
1902.463805	-3.047900	3.322400	-10.124000	26.117000	0.000527	20.690081
1903.457170	-2.986500	3.325700	-9.930000	26.111368	0.000526	20.674463
1904.457945	-3.014000	3.323200	-10.016000	26.167846	0.000525	20.672892
1905.457511	-2.997900	3.323500	-9.962600	26.190997	0.000522	20.684303
1906.457098	-2.982100	3.323400	-9.909300	26.161693	0.000524	20.681883
1907.462160	-2.998800	3.322800	-9.963800	26.170192	0.000524	20.696589
1908.462479	-3.034200	3.322100	-10.078000	26.173121	0.000519	20.697162
1909.462468	-3.016000	3.320500	-10.014000	26.159025	0.000522	20.659286
1910.460471	-2.996600	3.321600	-9.951900	26.165730	0.000520	20.683569
1911.464890	-2.995500	3.320800	-9.946500	26.133923	0.000519	20.658244
1912.462199	-2.989200	3.321400	-9.927100	26.120931	0.000520	20.664631
1913.462052	-2.984100	3.321400	-9.910100	26.124289	0.000521	20.680809
1914.460762	-3.006500	3.320400	-9.981700	26.137153	0.000518	20.697055
1915.461533	-2.992700	3.318700	-9.931000	26.151039	0.000518	20.683980
1916.460157	-2.991300	3.318800	-9.926100	26.134897	0.000516	20.678665
1917.463143	-3.004400	3.318500	-9.969200	26.132267	0.000517	20.679342
1918.467739	-3.020900	3.317900	-10.022000	26.135999	0.000516	20.658908
1919.461283	-2.992600	3.318100	-9.928700	26.142218	0.000516	20.689816
1920.461023	-2.977900	3.319700	-9.884800	26.189645	0.000514	20.675831
1921.460880	-2.979900	3.317600	-9.884600	26.219033	0.000515	20.681182
1922.460287	-2.987100	3.317800	-9.909500	26.241878	0.000513	20.672843
1923.467631	-3.002700	3.316300	-9.957000	26.244095	0.000513	20.672701
1924.460573	-2.991500	3.316600	-9.920900	26.225822	0.000515	20.672830
1925.461620	-2.990400	3.317500	-9.920300	26.205808	0.000514	20.683539
1926.460372	-2.989500	3.316200	-9.911900	26.255572	0.000514	20.682813
1927.461304	-2.994000	3.316100	-9.926600	26.269187	0.000514	20.686538
1928.462728	-3.021800	3.314900	-10.015000	26.276638	0.000513	20.686439
1929.463399	-3.029700	3.315000	-10.041000	26.250344	0.000510	20.676136
1930.460828	-2.980900	3.316100	-9.883900	26.200059	0.000510	20.686297
1931.459940	-3.005700	3.314100	-9.960300	26.215133	0.000511	20.676314
1932.466722	-2.976300	3.314600	-9.864200	26.204611	0.000509	20.672378
1933.461275	-2.992100	3.313600	-9.914100	26.269626	0.000508	20.693618
1934.464653	-2.998200	3.313300	-9.932900	26.275116	0.000508	20.661674
1935.460835	-3.007300	3.313600	-9.963600	26.320121	0.000509	20.661858
1936.464651	-3.008000	3.313300	-9.965600	26.361811	0.000509	20.668669
1937.463648	-3.022800	3.311500	-10.009000	26.393922	0.000509	20.668700
1938.460589	-2.999900	3.311800	-9.934800	26.406629	0.000506	20.668195
1939.465836	-3.019100	3.311300	-9.995800	26.428439	0.000506	20.684902
1940.463415	-3.021900	3.311200	-10.005000	26.432887	0.000505	20.695537
1941.466602	-3.023200	3.309900	-10.005000	26.425816	0.000505	20.661400
1942.467869	-2.988700	3.311600	-9.896700	26.428947	0.000502	20.686835
1943.464966	-3.000000	3.310200	-9.929300	26.443448	0.000504	20.677702
1944.465529	-2.989700	3.310600	-9.896500	26.384361	0.000505	20.682800
1945.468225	-2.992200	3.310800	-9.905400	26.369834	0.000503	20.681002
1946.466534	-3.001500	3.309200	-9.931700	26.355637	0.000500	20.687123
1947.467192	-2.990600	3.308800	-9.893800	26.358443	0.000500	20.678088
1948.465452	-3.018700	3.308800	-9.987600	26.355962	0.000501	20.674171
1949.464324	-2.990900	3.308700	-9.894600	26.377669	0.000501	20.675600
1950.470804	-3.014500	3.309000	-9.974100	26.389494	0.000501	20.679898
1951.466555	-3.008500	3.307700	-9.950100	26.385523	0.000499	20.681597
1952.470500	-3.009100	3.307900	-9.952600	26.390118	0.000499	20.681000
1953.467685	-3.004400	3.307800	-9.937100	26.410257	0.000500	20.693181
1954.465634	-3.014500	3.306600	-9.966200	26.427559	0.000499	20.659359
1955.481511	-3.001800	3.306100	-9.921100	26.452249	0.000497	20.687496
1956.466024	-3.005500	3.306400	-9.936500	26.454190	0.000495	20.686129
1957.468190	-2.992900	3.305900	-9.891600	26.457664	0.000498	20.673972
1958.468106	-3.004000	3.305100	-9.926800	26.457517	0.000494	20.670030
1959.467221	-2.976300	3.307300	-9.841900	26.426093	0.000496	20.678750
1960.466919	-3.010200	3.304100	-9.945300	26.435779	0.000494	20.670467
1961.468180	-3.050700	3.302800	-10.074000	26.403571	0.000494	20.658957
1962.466850	-3.005800	3.305300	-9.932900	26.384927	0.000493	20.668194
1963.468788	-3.006500	3.304800	-9.935500	26.367526	0.000492	20.689588
1964.468498	-3.016200	3.302400	-9.959900	26.348084	0.000493	20.666728
1965.469063	-3.015600	3.303300	-9.960200	26.344905	0.000491	20.679655
1966.474628	-3.001100	3.302100	-9.908600	26.335842	0.000491	20.694730
1967.470887	-3.010100	3.302600	-9.940300	26.363536	0.000490	20.688423
1968.473210	-2.968800	3.303400	-9.805900	26.409175	0.000491	20.695887
1969.471927	-3.005200	3.302200	-9.921600	26.398999	0.000488	20.670483
1970.470623	-2.983100	3.301500	-9.847100	26.393564	0.000489	20.689205
1971.474813	-2.986800	3.300800	-9.856800	26.359277	0.000487	20.672287
1972.470284	-2.965600	3.302000	-9.791300	26.383313	0.000488	20.667046
1973.470595	-2.978700	3.301600	-9.833000	26.390071	0.000488	20.669571
1974.470453	-2.981400	3.300500	-9.839200	26.418058	0.000487	20.688693
1975.475635	-2.996700	3.299800	-9.887900	26.452869	0.000487	20.678162
1976.473396	-3.011700	3.298500	-9.932900	26.479139	0.000487	20.687024
1977.471491	-3.004400	3.299600	-9.912400	26.536694	0.000486	20.703626
1978.472242	-2.985600	3.298600	-9.847500	26.565192	0.000484	20.692443
1979.472473	-3.000900	3.296900	-9.892600	26.603104	0.000486	20.681240
1980.474769	-2.997800	3.297400	-9.883300	26.650026	0.000485	20.684787
1981.473039	-3.000400	3.297500	-9.892700	26.632776	0.000482	20.683568
1982.477497	-2.998300	3.297900	-9.886300	26.643183	0.000482	20.702092
1983.476797	-2.989900	3.297000	-9.855600	26.634919	0.000480	20.685248
1984.474388	-3.029700	3.295800	-9.984300	26.634919	0.000480	20.682403
1985.474959	-3.015700	3.296000	-9.939100	26.635623	0.000478	20.694965
1986.476669	-3.004000	3.296500	-9.901700	26.608959	0.000479	20.678590
1987.479863	-2.990600	3.296800	-9.858400	26.599378	0.000480	20.702626
1988.476028	-3.010600	3.296000	-9.921300	26.523692	0.000478	20.709049
1989.480981	-2.999600	3.294200	-9.879900	26.478688	0.000480	20.678509
1990.478648	-2.990000	3.295400	-9.852100	26.485587	0.000479	20.690660
1991.478180	-2.991400	3.294300	-9.853900	26.455573	0.000478	20.683251
1992.483404	-2.995900	3.294500	-9.869200	26.457343	0.000478	20.689772
1993.480721	-2.995400	3.293500	-9.864000	26.410021	0.000477	20.698160
1994.481302	-2.986600	3.292700	-9.832300	26.430912	0.000476	20.698768
1995.480600	-3.009400	3.291300	-9.903700	26.490749	0.000477	20.698695
1996.479386	-3.024600	3.292500	-9.957800	26.526851	0.000476	20.706534
1997.480783	-2.988900	3.293700	-9.843400	26.578449	0.000476	20.694863
1998.485760	-2.989600	3.292300	-9.841600	26.594830	0.000474	20.702321
1999.482126	-3.013000	3.290700	-9.913100	26.629145	0.000474	20.707894
2000.488451	-2.976500	3.292000	-9.796400	26.615968	0.000474	20.703182
2001.480574	-3.019700	3.292100	-9.939500	26.595196	0.000472	20.695102
2002.482781	-3.019700	3.290100	-9.933800	26.609621	0.000472	20.700121
2003.483342	-3.004000	3.290200	-9.882200	26.643759	0.000472	20.705041
2004.480543	-3.014000	3.288500	-9.910400	26.641529	0.000471	20.710861
2005.481579	-3.010400	3.288400	-9.898900	26.626092	0.000472	20.719525
2006.483729	-3.008200	3.288000	-9.889700	26.580964	0.000469	20.693598
2007.481499	-2.996200	3.287100	-9.847200	26.577472	0.000472	20.701468
2008.482443	-2.964900	3.289300	-9.751400	26.600260	0.000468	20.706358
2009.485311	-2.974400	3.287800	-9.778200	26.592100	0.000468	20.692464
2010.481480	-2.997000	3.287700	-9.851800	26.611071	0.000466	20.720546
2011.482577	-3.031100	3.285500	-9.957000	26.574512	0.000467	20.705131
2012.484336	-2.997000	3.287300	-9.849600	26.539037	0.000467	20.718310
2013.482016	-2.991400	3.287400	-9.833100	26.577740	0.000466	20.708376
2014.485086	-3.008800	3.286200	-9.885700	26.635517	0.000464	20.727577
2015.483907	-3.013300	3.284800	-9.898100	26.624601	0.000463	20.692419
2016.486941	-3.018000	3.284400	-9.911800	26.650199	0.000462	20.720051
2017.484592	-2.988500	3.284800	-9.814800	26.664428	0.000464	20.722976
2018.483547	-3.005900	3.284100	-9.870600	26.633923	0.000462	20.700843
2019.487085	-2.985100	3.284900	-9.805100	26.577279	0.000462	20.714077
2020.486372	-3.002400	3.284000	-9.858900	26.578350	0.000462	20.708990
2021.484748	-2.988900	3.283700	-9.814000	26.589928	0.000461	20.717783
2022.485013	-2.988400	3.283500	-9.810800	26.623030	0.000460	20.679934
2023.484226	-2.976900	3.282800	-9.771200	26.624273	0.000459	20.711532
2024.483227	-2.976600	3.283900	-9.773200	26.642895	0.000458	20.722192
2025.486859	-2.997000	3.281700	-9.834100	26.670281	0.000459	20.707522
2026.485894	-3.007400	3.280600	-9.865300	26.702958	0.000460	20.715719
2027.489163	-3.003200	3.281900	-9.855200	26.684760	0.000456	20.714019
2028.485101	-3.014100	3.280600	-9.887100	26.676999	0.000455	20.722813
2029.487220	-2.995600	3.282100	-9.831800	26.675070	0.000456	20.700008
2030.490854	-2.995900	3.280700	-9.827100	26.690689	0.000455	20.720928
2031.484268	-3.014200	3.279400	-9.883100	26.703778	0.000457	20.700894
2032.484385	-3.006800	3.280000	-9.861500	26.726421	0.000455	20.721764
2033.483836	-3.014600	3.279100	-9.883900	26.761394	0.000454	20.729899
2034.485569	-3.009600	3.279900	-9.870200	26.762221	0.000451	20.715557
2035.484735	-2.986600	3.280100	-9.795500	26.740159	0.000450	20.724196
2036.486408	-2.993800	3.277900	-9.812600	26.718097	0.000452	20.722404
2037.485339	-2.980800	3.279000	-9.773100	26.705791	0.000450	20.724257
2038.486043	-3.001700	3.276900	-9.835100	26.678663	0.000453	20.707414
2039.485968	-2.988500	3.277500	-9.794000	26.657867	0.000448	20.720174
2040.485007	-2.999400	3.276400	-9.826300	26.655313	0.000450	20.711442
2041.489065	-3.000800	3.277000	-9.832400	26.663937	0.000448	20.718689
2042.486417	-3.007200	3.275500	-9.849100	26.656544	0.000448	20.723111
2043.491032	-2.994100	3.276700	-9.809800	26.653046	0.000447	20.720069
2044.489699	-3.024500	3.274400	-9.902400	26.666381	0.000445	20.717827
2045.488199	-3.010300	3.275800	-9.860100	26.655342	0.000447	20.722852
2046.487694	-3.013000	3.275300	-9.866700	26.650932	0.000447	20.718892
2047.490509	-3.006700	3.274000	-9.842100	26.653235	0.000446	20.710301
2048.490456	-3.011100	3.273800	-9.857000	26.649070	0.000445	20.729822
2049.490229	-3.022500	3.273700	-9.893500	26.690758	0.000445	20.729058
2050.492527	-3.008600	3.273900	-9.848600	26.693759	0.000443	20.729705
2051.490317	-2.974600	3.273500	-9.736200	26.743910	0.000444	20.729391
2052.491237	-3.016400	3.272200	-9.868300	26.774883	0.000442	20.726866
2053.491383	-3.001900	3.273400	-9.825500	26.796209	0.000441	20.719384
2054.493165	-3.018500	3.270900	-9.871600	26.821705	0.000439	20.749287
2055.490226	-2.987000	3.272800	-9.774700	26.794059	0.000440	20.736189
2056.491613	-2.988200	3.271500	-9.774100	26.822060	0.000438	20.740635
2057.494018	-2.998400	3.270600	-9.805500	26.801114	0.000439	20.733799
2058.489623	-2.976300	3.271500	-9.736200	26.793428	0.000438	20.710897
2059.492731	-2.993600	3.270900	-9.791200	26.787983	0.000437	20.714432
2060.492988	-3.008100	3.268700	-9.831600	26.774185	0.000436	20.728534
2061.493913	-2.983300	3.268200	-9.748400	26.734826	0.000435	20.739699
2062.495322	-2.998500	3.269400	-9.802500	26.696851	0.000438	20.720011
2063.499222	-2.989600	3.270100	-9.775800	26.698198	0.000436	20.751239
2064.495077	-2.977300	3.268100	-9.729100	26.694076	0.000435	20.722437
2065.495049	-2.981700	3.267900	-9.742000	26.720040	0.000434	20.743800
2066.497387	-2.981100	3.267900	-9.741500	26.728530	0.000432	20.726255
2067.494114	-2.984100	3.267200	-9.748000	26.697880	0.000431	20.742857
2068.500264	-2.978800	3.267600	-9.732400	26.685029	0.000431	20.739895
2069.496087	-2.980800	3.266600	-9.735800	26.654225	0.000431	20.722677
2070.499780	-3.001800	3.265800	-9.802100	26.630887	0.000431	20.747580
2071.497924	-3.023600	3.263700	-9.866800	26.658029	0.000430	20.739304
2072.497415	-2.981400	3.265200	-9.733300	26.668080	0.000432	20.744667
2073.501498	-3.032400	3.263000	-9.893700	26.674610	0.000429	20.746490
2074.498902	-2.988400	3.264100	-9.753300	26.662727	0.000427	20.753984
2075.498141	-3.003500	3.264100	-9.802900	26.659897	0.000428	20.743078
2076.497547	-3.003800	3.264300	-9.804300	26.619113	0.000428	20.745702
2077.500751	-2.999900	3.262500	-9.785700	26.611389	0.000426	20.746471
2078.499319	-2.984900	3.264300	-9.742200	26.615763	0.000427	20.753713
2079.501675	-3.007200	3.261700	-9.806300	26.686688	0.000424	20.738718
2080.499361	-2.998900	3.262400	-9.783000	26.684006	0.000425	20.736495
2081.499498	-3.023600	3.260900	-9.857600	26.732883	0.000424	20.723994
2082.500755	-3.000200	3.261800	-9.785100	26.744827	0.000424	20.773936
2083.499304	-2.966700	3.262500	-9.677300	26.815965	0.000426	20.754895
2084.502971	-2.994200	3.261300	-9.763700	26.831576	0.000423	20.747832
2085.501360	-3.001700	3.259000	-9.781300	26.860225	0.000424	20.739180
2086.501944	-2.990800	3.260000	-9.749500	26.904453	0.000423	20.768480
2087.502272	-3.000300	3.260800	-9.782300	26.937191	0.000420	20.760622
2088.502170	-2.996800	3.260400	-9.769500	26.987196	0.000419	20.772501
2089.505906	-2.995100	3.258900	-9.759100	27.001017	0.000422	20.769804
2090.503259	-2.997500	3.258900	-9.767800	27.038595	0.000418	20.755911
2091.503782	-3.012300	3.257900	-9.813300	27.036360	0.000418	20.762673
2092.503487	-2.990200	3.257800	-9.740400	27.043732	0.000415	20.771509
2093.503986	-2.978200	3.258100	-9.702100	26.995371	0.000418	20.766971
2094.505149	-2.989000	3.257700	-9.736200	26.959162	0.000416	20.768018
2095.504759	-2.976900	3.257200	-9.695300	26.979535	0.000417	20.769064
2096.503959	-2.991900	3.255900	-9.740200	26.976437	0.000414	20.755043
2097.503832	-3.019400	3.255800	-9.829500	27.014279	0.000416	20.761330
2098.504881	-3.009200	3.256200	-9.797300	27.059493	0.000415	20.772186
2099.503899	-3.004100	3.256500	-9.780900	27.070808	0.000415	20.771238
2100.510038	-2.975700	3.254900	-9.683500	27.083048	0.000412	20.779280
2101.504371	-3.005100	3.254200	-9.778000	27.091804	0.000414	20.769120
2102.504693	-2.999100	3.255700	-9.763400	27.022595	0.000413	20.777753
2103.506555	-2.992600	3.254100	-9.737000	26.996038	0.000411	20.772384
2104.505951	-3.019800	3.251900	-9.818300	26.964949	0.000412	20.773837
2105.507466	-3.024000	3.252700	-9.835600	26.912854	0.000409	20.775980
2106.506662	-3.000500	3.253200	-9.760300	26.918384	0.000408	20.764945
2107.507693	-3.008600	3.252700	-9.782900	26.908066	0.000410	20.763103
2108.505104	-2.998600	3.252500	-9.752300	26.898261	0.000409	20.772685
2109.506114	-3.007400	3.251900	-9.778600	26.877807	0.000410	20.773455
2110.507851	-3.003600	3.250100	-9.760600	26.830920	0.000406	20.768510
2111.509381	-2.966900	3.251200	-9.643900	26.853133	0.000404	20.776620
2112.503744	-3.002900	3.249900	-9.757900	26.845912	0.000405	20.785007
2113.502971	-3.011000	3.250200	-9.785100	26.830375	0.000405	20.777920
2114.507811	-3.016200	3.248900	-9.798300	26.885419	0.000405	20.774946
2115.505080	-3.026300	3.248800	-9.831200	26.893111	0.000404	20.786947
2116.509441	-3.006900	3.247500	-9.763800	26.922175	0.000402	20.773973
2117.507007	-2.998100	3.247800	-9.735900	26.915990	0.000401	20.781978
2118.509439	-2.980800	3.248700	-9.682900	26.922524	0.000399	20.809411
2119.505901	-3.007400	3.246600	-9.762500	26.915721	0.000400	20.786923
2120.505694	-2.991200	3.247800	-9.713900	26.937730	0.000402	20.783924
2121.507632	-2.968900	3.248400	-9.642500	26.978213	0.000399	20.790494
2122.505444	-2.995800	3.247400	-9.727600	26.993093	0.000400	20.784595
2123.504378	-2.991400	3.245300	-9.706800	27.001531	0.000397	20.799245
2124.517792	-2.994900	3.244500	-9.715800	27.002725	0.000397	20.803290
2125.506130	-2.995000	3.246500	-9.722600	26.983791	0.000395	20.798001
2126.506823	-2.997400	3.245600	-9.727100	26.996155	0.000395	20.799054
2127.508892	-2.999400	3.244300	-9.730100	27.002309	0.000394	20.791492
2128.509476	-2.997900	3.243700	-9.723300	26.976921	0.000393	20.803420
2129.509670	-2.988500	3.245100	-9.696100	26.985476	0.000393	20.795427
2130.509058	-3.004600	3.244200	-9.745500	27.000447	0.000394	20.804793
2131.510265	-2.997200	3.242200	-9.717300	27.019288	0.000393	20.799084
2132.511493	-2.957500	3.243100	-9.590700	27.044969	0.000391	20.797409
2133.510045	-2.983000	3.242400	-9.671200	26.987698	0.000389	20.809041
2134.512724	-2.975500	3.242500	-9.646700	26.986136	0.000388	20.791350
2135.511477	-2.992600	3.242300	-9.701900	26.996663	0.000388	20.811418
2136.511701	-2.998600	3.239900	-9.714100	26.993460	0.000388	20.817206
2137.512107	-3.009900	3.241900	-9.756800	27.003790	0.000386	20.803887
2138.513726	-3.022100	3.239600	-9.789200	26.993417	0.000385	20.819534
2139.511835	-3.022500	3.239900	-9.791700	27.012754	0.000384	20.820488
2140.511934	-3.000700	3.239400	-9.719200	27.024842	0.000385	20.813204
2141.511738	-2.993200	3.239900	-9.696200	27.028467	0.000385	20.811159
2142.510750	-3.004500	3.239200	-9.731300	27.035912	0.000385	20.809164
2143.514578	-3.007200	3.238600	-9.737700	27.043383	0.000384	20.830427
2144.512871	-3.007200	3.237800	-9.736100	27.012368	0.000383	20.791177
2145.514509	-2.989500	3.238300	-9.680400	27.003159	0.000383	20.829331
2146.512205	-3.007100	3.237000	-9.731600	26.999736	0.000380	20.813561
2147.515131	-2.995900	3.236500	-9.694900	26.977232	0.000380	20.802310
2148.519126	-3.005500	3.235500	-9.723700	27.016024	0.000380	20.820931
2149.516462	-2.990200	3.236900	-9.677100	27.039892	0.000380	20.808425
2150.512805	-2.988600	3.236000	-9.670400	27.047987	0.000379	20.817040
2151.514243	-2.995300	3.234800	-9.688400	27.099775	0.000377	20.838302
2152.515414	-3.001300	3.235100	-9.708800	27.123421	0.000377	20.818936
2153.512964	-2.981600	3.233400	-9.638100	27.141691	0.000376	20.814552
2154.513294	-3.015100	3.232800	-9.746400	27.115216	0.000377	20.838185
2155.513531	-3.001500	3.232400	-9.701500	27.110606	0.000378	20.825014
2156.517190	-3.007900	3.232000	-9.720100	27.122441	0.000376	20.829330
2157.514320	-2.978600	3.231900	-9.625300	27.131080	0.000374	20.823794
2158.516304	-2.991100	3.232200	-9.667300	27.137533	0.000371	20.812741
2159.518410	-2.986900	3.231900	-9.652600	27.111102	0.000373	20.840211
2160.515326	-2.992900	3.232200	-9.672700	27.136688	0.000373	20.830383
2161.515954	-3.005400	3.230500	-9.708200	27.146393	0.000371	20.835401
2162.514413	-2.991600	3.230000	-9.662100	27.142768	0.000370	20.827015
2163.514317	-2.989400	3.228900	-9.650400	27.181272	0.000372	20.810740
2164.513933	-2.977700	3.231100	-9.619800	27.203490	0.000370	20.830715
2165.519224	-3.016700	3.227800	-9.736000	27.209147	0.000370	20.812698
2166.516298	-3.000100	3.229100	-9.687000	27.238098	0.000368	20.808628
2167.516907	-3.018600	3.227300	-9.739700	27.263063	0.000367	20.834213
2168.517243	-3.012300	3.227600	-9.721400	27.298564	0.000365	20.816817
2169.517285	-3.007900	3.226900	-9.705500	27.279611	0.000366	20.805813
2170.520347	-3.000600	3.226200	-9.680000	27.263161	0.000366	20.821984
2171.518014	-2.965100	3.226400	-9.566000	27.276066	0.000365	20.810783
2172.521192	-2.988400	3.225500	-9.637900	27.291248	0.000365	20.809933
2173.518853	-2.958100	3.226200	-9.542400	27.288567	0.000363	20.814822
2174.518899	-2.992900	3.225500	-9.651800	27.264631	0.000362	20.810660
2175.519458	-2.991500	3.225500	-9.648500	27.273556	0.000363	20.806836
2176.517875	-3.003300	3.223700	-9.680800	27.289510	0.000360	20.803443
2177.520707	-2.996100	3.223300	-9.656300	27.332698	0.000360	20.813695
2178.520082	-2.981600	3.223500	-9.609600	27.358965	0.000360	20.822101
2179.519188	-3.000000	3.222400	-9.666300	27.351080	0.000360	20.818437
2180.520105	-3.015900	3.223500	-9.720400	27.359589	0.000357	20.796177
2181.521467	-2.980000	3.222200	-9.601700	27.356461	0.000358	20.804884
2182.521188	-2.988900	3.222800	-9.631900	27.365563	0.000357	20.809299
2183.520774	-3.004400	3.221500	-9.677800	27.312197	0.000357	20.804927
2184.520669	-2.979600	3.222000	-9.598900	27.284416	0.000356	20.805432
2185.521551	-2.991500	3.219700	-9.630500	27.278460	0.000356	20.803708
2186.530417	-3.005800	3.219200	-9.674400	27.270147	0.000354	20.806725
2187.521687	-3.023400	3.221800	-9.740300	27.235117	0.000355	20.792827
2188.525464	-3.004300	3.220300	-9.673100	27.226601	0.000353	20.812710
2189.523217	-3.004200	3.217800	-9.665600	27.210323	0.000353	20.802975
2190.524405	-2.988800	3.217200	-9.614600	27.216745	0.000354	20.813228
2191.526617	-3.003100	3.217600	-9.662100	27.195329	0.000353	20.777463
2192.528263	-3.005100	3.218000	-9.669200	27.223014	0.000352	20.805783
2193.526301	-2.983800	3.216400	-9.595800	27.268494	0.000351	20.787045
2194.525709	-3.001400	3.216300	-9.653200	27.251916	0.000352	20.775585
2195.525130	-3.009400	3.216200	-9.678100	27.277793	0.000349	20.803511
2196.524877	-2.998700	3.214800	-9.637700	27.290490	0.000351	20.801584
2197.533003	-3.022400	3.212700	-9.709200	27.312864	0.000349	20.799909
2198.525892	-3.004700	3.214800	-9.658900	27.298595	0.000348	20.766588
2199.533450	-2.997700	3.213500	-9.631500	27.310894	0.000349	20.808832
2200.525386	-3.029100	3.212100	-9.728600	27.316495	0.000348	20.796923
2201.526113	-3.009400	3.212100	-9.665100	27.326516	0.000348	20.799891
2202.529905	-2.985900	3.212800	-9.591700	27.342885	0.000346	20.783166
2203.525434	-3.015200	3.213300	-9.687200	27.353720	0.000344	20.795962
2204.526077	-2.989800	3.211000	-9.599400	27.371925	0.000345	20.786775
2205.528876	-2.989100	3.212800	-9.602700	27.425802	0.000344	20.792613
2206.528675	-3.019800	3.211100	-9.695800	27.417539	0.000345	20.787619
2207.529888	-3.007200	3.210400	-9.652200	27.390668	0.000341	20.785242
2208.532509	-3.010100	3.210700	-9.664000	27.370940	0.000344	20.775827
2209.527686	-3.001700	3.210100	-9.635300	27.337891	0.000344	20.796634
2210.531961	-3.002900	3.211000	-9.641500	27.333918	0.000344	20.785526
2211.532078	-3.003100	3.208600	-9.635700	27.318712	0.000343	20.799627
2212.530396	-2.979800	3.208200	-9.557900	27.320536	0.000341	20.770642
2213.535085	-3.005400	3.208600	-9.641500	27.298872	0.000341	20.796265
2214.533506	-3.009400	3.207000	-9.650200	27.280507	0.000341	20.801974
2215.531697	-2.993100	3.206600	-9.596900	27.264382	0.000339	20.789073
2216.532579	-3.019600	3.207200	-9.683600	27.246611	0.000339	20.781154
2217.532933	-3.000300	3.206300	-9.618800	27.248221	0.000339	20.781351
2218.537976	-3.012400	3.205200	-9.654600	27.283024	0.000336	20.792177
2219.534276	-2.987500	3.204300	-9.571700	27.334770	0.000337	20.799185
2220.535627	-2.956000	3.207600	-9.480900	27.356030	0.000335	20.801131
2221.533449	-3.020200	3.202700	-9.671700	27.345850	0.000335	20.785201
2222.541512	-2.988300	3.205400	-9.577400	27.382290	0.000335	20.791038
2223.533250	-2.997300	3.203600	-9.599600	27.402257	0.000334	20.769874
2224.533122	-2.986900	3.202800	-9.565000	27.429931	0.000332	20.781593
2225.534175	-2.989600	3.202900	-9.573700	27.437000	0.000333	20.788705
2226.537447	-3.007300	3.201700	-9.627800	27.406708	0.000334	20.763920
2227.535055	-3.011400	3.201900	-9.641000	27.367435	0.000332	20.791267
2228.535442	-2.996000	3.202500	-9.593300	27.325234	0.000332	20.795756
2229.537406	-3.016600	3.198400	-9.647300	27.300252	0.000330	20.790541
2230.536926	-3.001800	3.200300	-9.605600	27.318923	0.000330	20.782296
2231.538696	-2.988000	3.201500	-9.564200	27.352836	0.000330	20.793177
2232.537464	-2.974900	3.199100	-9.515700	27.400190	0.000328	20.799088
2233.537146	-3.003000	3.198200	-9.602900	27.427973	0.000328	20.773933
2234.549953	-3.004700	3.196700	-9.603300	27.465573	0.000325	20.782838
2235.541090	-2.962700	3.198000	-9.472500	27.484755	0.000326	20.774161
2236.539133	-3.035600	3.196200	-9.700800	27.535127	0.000324	20.784537
2237.538288	-3.000200	3.196400	-9.589400	27.552435	0.000323	20.797210
2238.538351	-3.009000	3.195400	-9.613800	27.547000	0.000322	20.796484
2239.538834	-3.004200	3.195100	-9.596600	27.532691	0.000321	20.767862
2240.542708	-3.018700	3.195100	-9.643600	27.482981	0.000322	20.783755
2241.540226	-2.998900	3.193500	-9.575900	27.478390	0.000325	20.793836
2242.540332	-3.028700	3.191700	-9.665100	27.510364	0.000321	20.772899
2243.539357	-3.000100	3.196200	-9.588300	27.536057	0.000321	20.794008
2244.539981	-2.991600	3.193100	-9.551500	27.531724	0.000319	20.761673
2245.542920	-3.009100	3.191700	-9.603400	27.533413	0.000320	20.781391
2246.542511	-2.997800	3.192600	-9.570000	27.522500	0.000319	20.781791
2247.544130	-3.013900	3.191600	-9.617700	27.536442	0.000317	20.778275
2248.541595	-3.004700	3.192200	-9.590500	27.568335	0.000317	20.771008
2249.541826	-2.994500	3.192800	-9.559800	27.572631	0.000317	20.769641
2250.547722	-2.973500	3.189800	-9.483600	27.572264	0.000315	20.768323
2251.542835	-2.986000	3.191600	-9.529600	27.602992	0.000316	20.754197
2252.544083	-3.002400	3.191600	-9.581800	27.591903	0.000316	20.773385
2253.541459	-3.034200	3.186400	-9.667700	27.533719	0.000313	20.754197
2254.543146	-2.989200	3.187100	-9.526000	27.483421	0.000312	20.764283
2255.543829	-2.989900	3.187300	-9.528900	27.416055	0.000314	20.756727
2256.549515	-2.987100	3.186700	-9.518200	27.343347	0.000313	20.785054
2257.543001	-2.979800	3.188400	-9.500400	27.338805	0.000311	20.761044
2258.545496	-3.012800	3.185500	-9.595500	27.360615	0.000312	20.773976
2259.541035	-3.004300	3.186000	-9.570200	27.393039	0.000310	20.786679
2260.542846	-3.027500	3.186300	-9.644800	27.354616	0.000308	20.776476
2261.545351	-2.970500	3.186300	-9.463900	27.378998	0.000309	20.766863
2262.545938	-2.999300	3.184800	-9.551700	27.405232	0.000308	20.784721
2263.545652	-3.001100	3.183500	-9.553300	27.440826	0.000308	20.774536
2264.543386	-2.977500	3.182400	-9.474400	27.451592	0.000306	20.760711
2265.544820	-2.995800	3.182900	-9.534600	27.470224	0.000306	20.780404
2266.546398	-2.999000	3.181300	-9.539600	27.480494	0.000305	20.772245
2267.545522	-3.005500	3.183300	-9.566300	27.467500	0.000306	20.763439
2268.544423	-2.995800	3.180600	-9.527200	27.492502	0.000302	20.771050
2269.546206	-2.987900	3.180700	-9.502400	27.510937	0.000304	20.777269
2270.548542	-3.010300	3.180200	-9.572200	27.491762	0.000304	20.768408
2271.546185	-3.017900	3.178500	-9.590600	27.455350	0.000304	20.772078
2272.550836	-3.014200	3.178600	-9.579600	27.425541	0.000301	20.752520
2273.548498	-2.961700	3.179600	-9.415800	27.409792	0.000302	20.768444
2274.549266	-2.973600	3.179300	-9.452700	27.389929	0.000303	20.763635
2275.549551	-2.994500	3.177300	-9.513700	27.403915	0.000298	20.765378
2276.548041	-2.986800	3.178300	-9.492200	27.450698	0.000300	20.733731
2277.552841	-2.987000	3.174600	-9.481800	27.468441	0.000299	20.781930
2278.549725	-2.991100	3.174300	-9.492100	27.509700	0.000299	20.767015
2279.556838	-3.002100	3.175200	-9.530900	27.507209	0.000296	20.759293
2280.550655	-3.015600	3.173100	-9.567400	27.463092	0.000300	20.761849
2281.550150	-3.010400	3.172900	-9.550400	27.435034	0.000296	20.752113
2282.549774	-3.003800	3.171700	-9.525800	27.439233	0.000294	20.748276
2283.555110	-3.018400	3.174700	-9.581400	27.435658	0.000295	20.755112
2284.552320	-2.977900	3.172300	-9.445400	27.439857	0.000294	20.760284
2285.552135	-2.999800	3.172300	-9.514500	27.439386	0.000294	20.768345
2286.551325	-2.981900	3.172100	-9.457400	27.384443	0.000293	20.743417
2287.552050	-3.000700	3.170200	-9.510800	27.380501	0.000293	20.757470
2288.556966	-2.995000	3.170900	-9.495900	27.356139	0.000291	20.747660
2289.553895	-3.006900	3.172100	-9.536600	27.349919	0.000291	20.749938
2290.558773	-3.026200	3.168500	-9.587700	27.401711	0.000293	20.746090
2291.554188	-3.003300	3.168400	-9.514800	27.380256	0.000290	20.761965
2292.555791	-3.001200	3.168200	-9.507700	27.379516	0.000291	20.746047
2293.557009	-2.993900	3.167300	-9.482200	27.414846	0.000291	20.734173
2294.559803	-3.012400	3.167200	-9.540100	27.431134	0.000288	20.755302
2295.556926	-3.013000	3.165500	-9.536200	27.430669	0.000286	20.724013
2296.555415	-2.989700	3.166200	-9.464100	27.421347	0.000286	20.746403
2297.556001	-3.014500	3.165900	-9.542300	27.389891	0.000286	20.743207
2298.560158	-3.016600	3.164600	-9.545100	27.413775	0.000287	20.768659
2299.558569	-2.995000	3.164200	-9.476100	27.413579	0.000286	20.768936
2300.556258	-2.988900	3.164100	-9.456100	27.435015	0.000284	20.737868
2301.561323	-3.011300	3.164500	-9.528000	27.425858	0.000285	20.743829
2302.557899	-3.003400	3.162400	-9.496400	27.460288	0.000284	20.758079
2303.560360	-2.998900	3.162100	-9.482300	27.445800	0.000283	20.740658
2304.561485	-3.010500	3.162200	-9.518200	27.428563	0.000284	20.731378
2305.559661	-3.007200	3.161000	-9.503300	27.418660	0.000283	20.732320
2306.561490	-2.993000	3.161400	-9.461200	27.431881	0.000282	20.732345
2307.561022	-2.980300	3.160800	-9.419300	27.459070	0.000282	20.748319
2308.560734	-3.002000	3.159300	-9.482800	27.515257	0.000283	20.712386
2309.564329	-3.012000	3.158600	-9.512400	27.468373	0.000280	20.762895
2310.561610	-3.005900	3.156800	-9.488200	27.441632	0.000281	20.736939
2311.560614	-3.016400	3.157500	-9.522600	27.415263	0.000281	20.722738
2312.564541	-3.012100	3.156700	-9.507600	27.365816	0.000277	20.718513
2313.561430	-3.015200	3.156000	-9.514400	27.329872	0.000279	20.756799
2314.562145	-2.988900	3.154900	-9.428700	27.291324	0.000279	20.726082
2315.561117	-2.972000	3.157000	-9.381900	27.284871	0.000278	20.743774
2316.560428	-3.004400	3.152700	-9.472000	27.308911	0.000278	20.737610
2317.564625	-3.013100	3.152900	-9.498800	27.374527	0.000277	20.713999
2318.567358	-3.002200	3.151700	-9.460700	27.405316	0.000277	20.719369
2319.562189	-2.994200	3.153000	-9.440300	27.436766	0.000276	20.742001
2320.565199	-2.990600	3.151600	-9.424400	27.463703	0.000277	20.732117
2321.563363	-2.981900	3.150500	-9.394100	27.409062	0.000275	20.738786
2322.562251	-2.997900	3.149900	-9.441200	27.388244	0.000273	20.730645
2323.563175	-3.034300	3.149300	-9.554300	27.364629	0.000273	20.732493
2324.562237	-3.004300	3.150500	-9.463800	27.404172	0.000273	20.744772
2325.565981	-2.991400	3.148900	-9.418300	27.420447	0.000273	20.708038
2326.566614	-2.978400	3.148400	-9.375700	27.397720	0.000273	20.721685
2327.565242	-3.030300	3.144800	-9.527900	27.458415	0.000273	20.716364
2328.565348	-3.012800	3.145700	-9.476000	27.491730	0.000272	20.725700
2329.565610	-2.992700	3.145200	-9.410800	27.552444	0.000273	20.720878
2330.565744	-3.027600	3.143600	-9.516900	27.554923	0.000271	20.714837
2331.568936	-3.020900	3.143300	-9.494500	27.563485	0.000271	20.720133
2332.567294	-3.023100	3.141800	-9.497000	27.604446	0.000269	20.729106
2333.569390	-3.013400	3.143000	-9.469800	27.640810	0.000271	20.741040
2334.567879	-3.006600	3.141800	-9.445500	27.684828	0.000269	20.721322
2335.568648	-2.986300	3.141000	-9.379200	27.728624	0.000267	20.733152
2336.568971	-3.009900	3.139900	-9.449600	27.735961	0.000268	20.718249
2337.570508	-3.018500	3.139500	-9.475500	27.731623	0.000267	20.726686
2338.570331	-2.975700	3.141000	-9.345000	27.689534	0.000268	20.723687
2339.571872	-2.995600	3.138200	-9.399600	27.635199	0.000268	20.732074
2340.572972	-3.043500	3.137600	-9.547700	27.624954	0.000266	20.714179
2341.571819	-3.005900	3.136900	-9.428200	27.650180	0.000265	20.739088
2342.574155	-3.019600	3.136100	-9.469000	27.659824	0.000266	20.726982
2343.572936	-3.019200	3.136400	-9.468300	27.670827	0.000265	20.713871
2344.572629	-3.014600	3.135000	-9.449900	27.662156	0.000265	20.735018
2345.574446	-3.011200	3.134600	-9.436600	27.698310	0.000265	20.715447
2346.573517	-3.014800	3.132800	-9.443300	27.745807	0.000264	20.703500
2347.579338	-3.010000	3.133400	-9.430600	27.746474	0.000263	20.709387
2348.576118	-2.977800	3.132600	-9.326500	27.724879	0.000262	20.729857
2349.577854	-2.991700	3.132400	-9.370100	27.687386	0.000263	20.711567
2350.576406	-3.013800	3.130900	-9.434900	27.657229	0.000261	20.739544
2351.576515	-2.978200	3.131900	-9.327000	27.656158	0.000263	20.725664
2352.574558	-2.993300	3.129500	-9.366300	27.659751	0.000262	20.712682
2353.578247	-3.003800	3.129500	-9.399900	27.726789	0.000261	20.707595
2354.576916	-2.981900	3.127600	-9.325200	27.721801	0.000259	20.706844
2355.576672	-2.995900	3.127400	-9.368000	27.745060	0.000262	20.731674
2356.575871	-3.000800	3.126100	-9.379600	27.725969	0.000259	20.729531
2357.575396	-2.983300	3.125800	-9.324000	27.707195	0.000256	20.713957
2358.582186	-3.013700	3.125300	-9.418400	27.708333	0.000259	20.725060
2359.576083	-2.996300	3.125000	-9.362700	27.677510	0.000259	20.717750
2360.579030	-3.000200	3.124500	-9.373900	27.671427	0.000258	20.714000
2361.577285	-3.006100	3.122600	-9.385700	27.658282	0.000259	20.708833
2362.576905	-2.995500	3.123200	-9.354600	27.650394	0.000259	20.710379
2363.578722	-3.023500	3.121300	-9.435900	27.668624	0.000259	20.727302
2364.577196	-2.996800	3.119800	-9.347800	27.653644	0.000258	20.695630
2365.577087	-3.010800	3.120800	-9.395100	27.624648	0.000256	20.704387
2366.577930	-3.007900	3.119700	-9.382300	27.628020	0.000255	20.690709
2367.583063	-3.012400	3.118400	-9.391900	27.615071	0.000256	20.694275
2368.580544	-3.008500	3.119400	-9.383200	27.647114	0.000256	20.708501
2369.579798	-3.007700	3.118000	-9.377600	27.669090	0.000255	20.701216
2370.580141	-2.999800	3.116700	-9.348200	27.642004	0.000258	20.713317
2371.579475	-2.992200	3.115300	-9.320200	27.657132	0.000256	20.695821
2372.581107	-3.004400	3.114500	-9.355800	27.676084	0.000255	20.700193
2373.580078	-2.988900	3.113400	-9.304800	27.741995	0.000254	20.695396
2374.582788	-2.972200	3.113500	-9.252100	27.766820	0.000254	20.706155
2375.580890	-3.003700	3.112500	-9.347100	27.777235	0.000255	20.686762
2376.588450	-2.987600	3.112100	-9.296600	27.738819	0.000255	20.714487
2377.579938	-2.987800	3.111000	-9.294100	27.725657	0.000255	20.694602
2378.580409	-2.999400	3.108500	-9.322000	27.762555	0.000253	20.706130
2379.582995	-2.989500	3.108400	-9.291700	27.798014	0.000254	20.710521
2380.584498	-2.967100	3.109400	-9.224100	27.821100	0.000253	20.694398
2381.580308	-3.004900	3.105900	-9.332000	27.850035	0.000253	20.695070
2382.583723	-2.991600	3.107800	-9.296400	27.847092	0.000251	20.691633
2383.582163	-3.005400	3.105400	-9.332300	27.826827	0.000253	20.709647
2384.583282	-3.003400	3.104700	-9.323300	27.797145	0.000251	20.675504
2385.585271	-2.980300	3.103700	-9.248600	27.757636	0.000251	20.690747
2386.586038	-3.023100	3.101500	-9.375500	27.705360	0.000252	20.701204
2387.587666	-3.004100	3.102600	-9.317500	27.697778	0.000251	20.712541
2388.584586	-2.979900	3.102200	-9.242500	27.702582	0.000251	20.698408
2389.585056	-2.989300	3.100400	-9.266100	27.696805	0.000250	20.682162
2390.587891	-2.976300	3.100300	-9.226300	27.716992	0.000249	20.708169
2391.585573	-2.991300	3.099000	-9.268200	27.718602	0.000249	20.702201
2392.586284	-2.993400	3.098900	-9.274800	27.739982	0.000249	20.696690
2393.585083	-2.998400	3.098000	-9.287300	27.786401	0.000249	20.698833
2394.586970	-3.005300	3.096000	-9.304000	27.803888	0.000248	20.694620
2395.586953	-2.999100	3.095400	-9.282800	27.832420	0.000248	20.685876
2396.587684	-3.007100	3.093900	-9.302900	27.862352	0.000245	20.702725
2397.587443	-3.014700	3.093400	-9.325200	27.911842	0.000248	20.714130
2398.587196	-3.018300	3.092500	-9.333300	27.941521	0.000247	20.700379
2399.587202	-3.002200	3.091100	-9.279100	27.957838	0.000247	20.688825
2400.588276	-3.001900	3.090700	-9.276600	27.969614	0.000246	20.692145
2401.590234	-3.017400	3.089200	-9.320600	27.957269	0.000245	20.681614
2402.589155	-3.004600	3.090700	-9.285800	27.942267	0.000246	20.703501
2403.591067	-2.991900	3.088800	-9.240500	27.900120	0.000245	20.700434
2404.589633	-2.996700	3.088500	-9.253800	27.882512	0.000244	20.688875
2405.588127	-3.007600	3.086100	-9.280900	27.880505	0.000245	20.695390
2406.593438	-2.997400	3.085100	-9.246400	27.911701	0.000245	20.700711
2407.592316	-3.031000	3.083600	-9.345900	27.917801	0.000245	20.702109
2408.590110	-2.991700	3.083600	-9.224600	27.911977	0.000245	20.687710
2409.591269	-3.020900	3.081900	-9.307500	27.877384	0.000245	20.682291
2410.589459	-2.972600	3.083100	-9.163500	27.888672	0.000244	20.670417
2411.590534	-3.007000	3.080100	-9.259600	27.880198	0.000244	20.688917
2412.590992	-2.975400	3.080300	-9.164200	27.854752	0.000243	20.695076
2413.592162	-2.984500	3.078900	-9.188200	27.855131	0.000244	20.685973
2414.592587	-2.973900	3.080100	-9.159200	27.879262	0.000243	20.674223
2415.592374	-3.003200	3.077300	-9.240300	27.868696	0.000242	20.681607
2416.591529	-3.035900	3.074100	-9.331100	27.887595	0.000242	20.666962
2417.596074	-3.013400	3.075100	-9.265300	27.849386	0.000243	20.683036
2418.592712	-3.014500	3.073800	-9.264200	27.809040	0.000242	20.694589
2419.603712	-2.981000	3.074000	-9.162000	27.818866	0.000240	20.669388
2420.604362	-3.007600	3.072100	-9.239300	27.823008	0.000241	20.698690
2421.604362	-2.998500	3.072100	-9.210800	27.895861	0.000240	20.683343
2422.599877	-3.000900	3.070400	-9.213100	27.906696	0.000241	20.687611
2423.608879	-3.012000	3.068300	-9.240900	27.954551	0.000240	20.695950
2424.599878	-2.992700	3.067900	-9.180000	27.999847	0.000240	20.691756
2425.594894	-2.993700	3.067000	-9.180400	28.008632	0.000239	20.681157
2426.600881	-2.978000	3.066400	-9.130600	28.048940	0.000240	20.679057
2427.594879	-2.992700	3.064700	-9.171200	28.075048	0.000238	20.686847
2428.595914	-3.001600	3.062500	-9.191200	28.080009	0.000238	20.686625
2429.593915	-3.003900	3.062600	-9.199000	28.105591	0.000240	20.679660
2430.596914	-2.992000	3.062000	-9.160100	28.113304	0.000239	20.695961
2431.592912	-3.020700	3.060700	-9.244400	28.135765	0.000239	20.674949
2432.606531	-3.022500	3.058900	-9.244500	28.091564	0.000238	20.665539
2433.596533	-2.986400	3.059500	-9.136000	28.049276	0.000238	20.698363
2434.593201	-2.990500	3.057600	-9.143300	28.021906	0.000239	20.673181
2436.862459	-3.008200	3.057300	-9.195700	27.998409	0.000238	20.687937
2437.899432	-3.027000	3.055200	-9.246800	27.976269	0.000238	20.686514
2438.859392	-3.004700	3.053300	-9.173800	27.988045	0.000238	20.692679
2439.862779	-3.008000	3.052100	-9.180000	27.996427	0.000237	20.679303
2440.860074	-2.993200	3.053000	-9.137700	27.967367	0.000238	20.680399
2441.873738	-3.005600	3.052000	-9.171700	27.982570	0.000237	20.663457
2442.860731	-3.021400	3.049100	-9.211600	27.957780	0.000237	20.682603
2443.862732	-3.009500	3.049300	-9.175600	27.980416	0.000237	20.694483
2444.862662	-3.008900	3.048100	-9.170100	27.969410	0.000239	20.681507
2445.866294	-3.004400	3.048400	-9.157700	28.005456	0.000236	20.672270
2446.861195	-2.997600	3.047500	-9.134700	28.053282	0.000235	20.679635
2447.861366	-2.983200	3.044700	-9.082000	28.077403	0.000236	20.709608
2448.862557	-2.979200	3.044400	-9.067700	28.094433	0.000239	20.674117
2449.864073	-3.017400	3.041700	-9.176800	28.094934	0.000238	20.667035
2450.866259	-3.025900	3.040000	-9.198000	28.078075	0.000237	20.678040
2451.864161	-2.999400	3.040100	-9.117700	28.092524	0.000236	20.692586
2452.864577	-2.964300	3.040600	-9.011400	28.063046	0.000238	20.705112
2453.863544	-2.993600	3.038100	-9.093100	28.018071	0.000235	20.668371
2454.865503	-2.989800	3.037200	-9.079100	28.044455	0.000237	20.683552
2455.868550	-2.978800	3.037600	-9.046800	28.081293	0.000237	20.683650
2456.864741	-3.011100	3.033400	-9.132900	28.100953	0.000237	20.715298
2457.865006	-3.005700	3.032500	-9.113400	28.093705	0.000238	20.706578
2458.867589	-3.027500	3.031600	-9.177500	28.105951	0.000237	20.706578
2459.865705	-3.005100	3.031000	-9.107900	28.133912	0.000236	20.697267
2460.866446	-2.984000	3.030700	-9.042300	28.141056	0.000236	20.700192
2461.868809	-3.009400	3.027900	-9.111500	28.205428	0.000235	20.699090
2462.868227	-3.000600	3.026200	-9.078900	28.244364	0.000236	20.696565
2463.867765	-3.034000	3.024300	-9.174300	28.266847	0.000237	20.702132
2464.867127	-2.996500	3.025200	-9.064000	28.229985	0.000235	20.699158
2465.867126	-2.995400	3.024000	-9.057100	28.135392	0.000236	20.722941
2466.870138	-3.027900	3.023300	-9.152700	28.073042	0.000234	20.714227
2467.869246	-3.008200	3.021100	-9.087000	28.052512	0.000235	20.716321
2468.871104	-3.005600	3.019300	-9.074000	28.043709	0.000234	20.694656
2469.870105	-3.010500	3.017600	-9.083600	28.043330	0.000234	20.710397
2470.868066	-3.010500	3.017200	-9.082100	28.026795	0.000233	20.703235
2471.869299	-2.999500	3.016300	-9.046300	27.972054	0.000234	20.694127
2472.872430	-2.973600	3.014800	-8.962900	27.962902	0.000235	20.700088
2473.869470	-2.990000	3.014800	-9.013400	27.931878	0.000232	20.720546
2474.869628	-2.979300	3.013200	-8.976100	27.951590	0.000234	20.697711
2475.871574	-3.007500	3.012900	-9.059800	27.945289	0.000235	20.681410
2476.869947	-3.024800	3.009400	-9.102000	27.953964	0.000232	20.711481
2477.873138	-2.993900	3.008500	-9.005700	27.991228	0.000234	20.704418
2478.870571	-3.008900	3.007900	-9.049600	27.994721	0.000234	20.711254
2479.872552	-2.992800	3.007500	-8.999500	28.008632	0.000234	20.718145
2480.870700	-2.985900	3.006500	-8.976100	28.047772	0.000237	20.692582
2481.872641	-2.987400	3.005000	-8.976400	28.083222	0.000234	20.713569
2482.874774	-2.997500	3.003400	-9.002300	28.107586	0.000235	20.693050
2483.874669	-2.985000	3.001200	-8.957400	28.162889	0.000234	20.713163
2484.872279	-2.988500	3.001600	-8.969000	28.164350	0.000233	20.719851
2485.873632	-2.959200	2.999100	-8.874200	28.177140	0.000233	20.715657
2486.871775	-2.993200	2.997800	-8.971900	28.141070	0.000233	20.709690
2487.871767	-3.003200	2.995900	-8.995600	28.148875	0.000234	20.727980
2488.873240	-3.021600	2.993300	-9.043900	28.132586	0.000233	20.711581
2489.871271	-2.990900	2.993100	-8.950900	28.134813	0.000234	20.719987
2490.878144	-3.002400	2.992400	-8.983300	28.084831	0.000234	20.728467
2491.870415	-2.989500	2.991800	-8.942700	28.075240	0.000234	20.691782
2492.870693	-2.997100	2.989700	-8.959200	28.049180	0.000233	20.704905
2493.879219	-2.982800	2.988600	-8.913900	28.053291	0.000234	20.714260
2494.871302	-2.993700	2.986900	-8.940700	28.087548	0.000232	20.729779
2495.871706	-2.982800	2.986100	-8.905100	28.118335	0.000232	20.738013
2496.873659	-2.978400	2.984700	-8.888500	28.176909	0.000232	20.734866
2497.872421	-2.997800	2.982600	-8.940500	28.205859	0.000232	20.721336
2498.871979	-3.007200	2.981300	-8.964400	28.256000	0.000231	20.721084
2499.872983	-2.977300	2.981100	-8.874600	28.279174	0.000232	20.717863
2500.871902	-2.998300	2.977300	-8.925100	28.244887	0.000233	20.716059
2501.871947	-3.017500	2.976400	-8.980600	28.255939	0.000232	20.723394
2502.873371	-3.016500	2.975600	-8.975300	28.254949	0.000232	20.721922
2503.872367	-2.971800	2.976500	-8.843900	28.243065	0.000232	20.738408
2504.873757	-2.973400	2.974500	-8.844000	28.232454	0.000233	20.745742
2505.872972	-3.023100	2.970000	-8.977600	28.193761	0.000233	20.721959
2506.874522	-2.992700	2.971100	-8.890600	28.188226	0.000235	20.733457
2507.874368	-2.989400	2.969000	-8.873900	28.154383	0.000232	20.726887
2508.872522	-3.002900	2.967500	-8.910500	28.095086	0.000234	20.731678
2509.876650	-3.011200	2.967200	-8.933800	28.089091	0.000231	20.743661
2510.875667	-3.015700	2.965000	-8.940900	28.110550	0.000233	20.740133
2511.873541	-2.995300	2.964700	-8.879000	28.121603	0.000231	20.745571
2512.872509	-3.031600	2.960400	-8.973000	28.193952	0.000231	20.734006
2513.874424	-3.002400	2.959700	-8.885600	28.240308	0.000231	20.747486
2514.872214	-3.008800	2.958900	-8.902100	28.300387	0.000231	20.732110
2515.875472	-3.020500	2.955900	-8.927800	28.329064	0.000230	20.754821
2516.874363	-2.992100	2.957000	-8.847000	28.344848	0.000230	20.729462
2517.877134	-3.009900	2.954000	-8.890400	28.276755	0.000231	20.753362
2518.875942	-3.014600	2.953000	-8.901400	28.227428	0.000231	20.769133
2519.876801	-2.994300	2.952000	-8.837900	28.139331	0.000232	20.731648
2520.883456	-3.016000	2.950000	-8.896000	28.124125	0.000232	20.751903
2521.878328	-3.011100	2.947000	-8.872900	28.131985	0.000232	20.750332
2522.881356	-3.007100	2.946200	-8.858300	28.154239	0.000231	20.731483
2523.878439	-3.016800	2.945300	-8.884500	28.181880	0.000230	20.748405
2524.879940	-2.987400	2.943500	-8.791900	28.215857	0.000230	20.752741
2525.879550	-2.989100	2.942800	-8.795500	28.188987	0.000231	20.758406
2526.882746	-3.018500	2.939100	-8.870600	28.161597	0.000230	20.754539
2527.879197	-2.985200	2.940600	-8.777400	28.118064	0.000230	20.755758
2528.879392	-3.004000	2.936500	-8.820200	28.142495	0.000230	20.746688
2529.881111	-3.008100	2.936100	-8.829800	28.087149	0.000230	20.744551
2530.879583	-3.001800	2.934900	-8.809600	28.048194	0.000228	20.747538
2531.886276	-3.009400	2.931800	-8.821500	28.063469	0.000230	20.754854
2532.880139	-2.990300	2.931900	-8.766400	28.099138	0.000230	20.758044
2533.884984	-3.005800	2.929600	-8.804500	28.108956	0.000231	20.755599
2534.881150	-3.013600	2.927400	-8.820000	28.134164	0.000230	20.742569
2535.880760	-3.004300	2.924700	-8.785200	28.099481	0.000230	20.734680
2536.880766	-3.038700	2.924400	-8.884600	28.126427	0.000229	20.739046
2537.882342	-2.973800	2.924500	-8.695700	28.166259	0.000229	20.754491
2538.883473	-2.990500	2.922700	-8.738100	28.203986	0.000233	20.755963
2539.883165	-2.996400	2.921400	-8.752500	28.193747	0.000231	20.763673
2540.884615	-3.005900	2.917200	-8.768200	28.158742	0.000231	20.766364
2541.884179	-3.002100	2.916100	-8.752900	28.147610	0.000231	20.750415
2542.884664	-2.992800	2.914500	-8.721400	28.130403	0.000233	20.743998
2543.893182	-2.979900	2.913600	-8.681000	28.124231	0.000232	20.766709
2544.885524	-3.017300	2.910400	-8.780700	28.130599	0.000232	20.751782
2545.886135	-3.009800	2.909200	-8.754900	28.115968	0.000232	20.769296
2546.885995	-3.016100	2.908000	-8.768500	28.111527	0.000232	20.753919
2547.892734	-3.000900	2.906600	-8.720800	28.107655	0.000231	20.758557
2548.888552	-2.987800	2.904100	-8.674900	28.079664	0.000232	20.761673
2549.889685	-2.978000	2.903100	-8.644900	28.036592	0.000233	20.761464
2550.888481	-2.959000	2.903800	-8.591200	28.078043	0.000231	20.766206
2551.887555	-2.993100	2.899600	-8.676300	28.108054	0.000233	20.752794
2552.888036	-3.026400	2.895200	-8.761300	28.113878	0.000232	20.782839
2553.891362	-3.027200	2.894600	-8.761400	28.127580	0.000233	20.769132
2554.888726	-2.992300	2.894800	-8.662100	28.119935	0.000230	20.773763
2555.887750	-2.991900	2.892500	-8.651700	28.153534	0.000233	20.781035
2556.888803	-2.992100	2.890600	-8.647800	28.199874	0.000231	20.774109
2557.891948	-2.995200	2.889700	-8.653800	28.259086	0.000230	20.794368
2558.894607	-2.987700	2.887500	-8.624700	28.300131	0.000233	20.763148
2559.892806	-3.001500	2.884400	-8.656400	28.272977	0.000232	20.791284
2560.903028	-3.002800	2.883300	-8.656700	28.272427	0.000232	20.758013
2561.893292	-3.009400	2.880600	-8.667300	28.281424	0.000234	20.768494
2562.893646	-2.994400	2.880700	-8.624900	28.326357	0.000231	20.781968
2563.894464	-3.004800	2.877200	-8.643300	28.382609	0.000234	20.791193
2564.896474	-3.002700	2.874800	-8.631100	28.381759	0.000234	20.763784
2565.894637	-2.988000	2.873500	-8.585100	28.436430	0.000234	20.774740
2566.894339	-2.984300	2.871900	-8.569900	28.476379	0.000233	20.796951
2567.895241	-2.983500	2.870100	-8.561400	28.466847	0.000232	20.793042
2568.895266	-2.985100	2.868000	-8.560700	28.467856	0.000233	20.779834
2569.898742	-2.998700	2.866200	-8.594000	28.477518	0.000233	20.774390
2570.897141	-3.009500	2.864000	-8.617700	28.533670	0.000234	20.802015
2571.896437	-2.985700	2.862800	-8.546500	28.520921	0.000232	20.790125
2572.898693	-2.987600	2.860000	-8.543800	28.523765	0.000233	20.798204
2573.897514	-2.999700	2.857300	-8.569300	28.484161	0.000232	20.801468
2574.899855	-3.000600	2.855300	-8.567000	28.444805	0.000233	20.790760
2575.895881	-3.007300	2.855500	-8.586300	28.396403	0.000234	20.783272
2576.901545	-2.985300	2.852800	-8.515800	28.384351	0.000234	20.776351
2577.896755	-3.020400	2.850200	-8.607700	28.384076	0.000232	20.784135
2578.898294	-2.995200	2.849300	-8.532900	28.391971	0.000231	20.793982
2579.901169	-3.017000	2.844800	-8.581900	28.378634	0.000232	20.796674
2580.903280	-3.012700	2.843100	-8.564300	28.385918	0.000231	20.803534
2581.900438	-3.005100	2.841400	-8.537400	28.398773	0.000233	20.800357
2582.901543	-3.005700	2.839600	-8.533400	28.452024	0.000232	20.801823
2583.900530	-3.006300	2.836000	-8.524800	28.479157	0.000232	20.803067
2584.902285	-2.975400	2.837100	-8.440400	28.506337	0.000230	20.792033
2585.903232	-2.997000	2.832000	-8.486200	28.503659	0.000230	20.815888
2586.900952	-2.979500	2.830700	-8.433000	28.447127	0.000231	20.792150
2587.905261	-2.984600	2.829000	-8.440800	28.398255	0.000233	20.806000
2588.902698	-2.988100	2.825400	-8.440500	28.355453	0.000230	20.800359
2589.901352	-2.978900	2.825000	-8.414300	28.383505	0.000232	20.795415
2590.905037	-2.971600	2.822300	-8.385400	28.419139	0.000231	20.803322
2591.903161	-3.018600	2.818000	-8.505600	28.489046	0.000231	20.812552
2592.902050	-3.018800	2.816900	-8.502200	28.543760	0.000229	20.824505
2593.904591	-3.022700	2.814800	-8.506300	28.538679	0.000232	20.802318
2594.903852	-3.000900	2.813300	-8.440900	28.559370	0.000232	20.820311
2595.909672	-2.965000	2.812300	-8.337000	28.588383	0.000230	20.831512
2596.907564	-2.987100	2.809300	-8.390000	28.586298	0.000230	20.825146
2597.906210	-2.998200	2.806400	-8.411800	28.584538	0.000228	20.810570
2598.905278	-2.981600	2.803100	-8.356200	28.565308	0.000229	20.826765
2599.905937	-2.985000	2.801700	-8.362000	28.579952	0.000231	20.807375
2600.912651	-3.020300	2.798200	-8.450700	28.572640	0.000230	20.811864
2601.913223	-3.010300	2.793700	-8.409400	28.603462	0.000229	20.825362
2602.908277	-2.982500	2.792700	-8.326500	28.582649	0.000230	20.813884
2603.908543	-2.994300	2.790000	-8.353300	28.583133	0.000231	20.816268
2604.905756	-2.986900	2.787500	-8.324700	28.569284	0.000228	20.820338
2605.907150	-2.985700	2.786200	-8.317600	28.602833	0.000229	20.819987
2606.907523	-3.011900	2.782000	-8.377400	28.608806	0.000231	20.820313
2607.908826	-2.996800	2.779100	-8.326700	28.622165	0.000230	20.810535
2608.907043	-2.993100	2.778100	-8.314300	28.573521	0.000231	20.833614
2609.906913	-3.000800	2.773000	-8.318900	28.564619	0.000229	20.839821
2610.906006	-3.004500	2.770800	-8.323300	28.554408	0.000229	20.817211
2611.907342	-2.978700	2.769300	-8.247800	28.551162	0.000231	20.840019
2612.907202	-2.981900	2.766000	-8.246500	28.558224	0.000228	20.832433
2613.906463	-2.982900	2.763000	-8.241200	28.514927	0.000230	20.805425
2614.907715	-3.033500	2.757300	-8.363300	28.538224	0.000230	20.827938
2615.906794	-3.006700	2.756100	-8.285700	28.531798	0.000231	20.823837
2616.907228	-3.027100	2.752300	-8.330600	28.559233	0.000228	20.850044
2617.913346	-3.027300	2.748900	-8.320100	28.538836	0.000231	20.832347
2618.912946	-3.029200	2.746500	-8.318300	28.509566	0.000229	20.842225
2619.907796	-3.007400	2.743100	-8.248400	28.560635	0.000228	20.838179
2620.908048	-2.995700	2.741400	-8.211000	28.612055	0.000230	20.845870
2621.914046	-2.989500	2.738200	-8.185400	28.629817	0.000231	20.831517
2622.909490	-3.020900	2.733100	-8.255400	28.644160	0.000233	20.854497
2623.912554	-2.975800	2.731000	-8.125600	28.644258	0.000229	20.823777
2624.911273	-2.972400	2.729900	-8.112500	28.653031	0.000229	20.846837
2625.910137	-3.038400	2.723200	-8.273100	28.668292	0.000232	20.840396
2626.909326	-2.981400	2.722200	-8.115300	28.693933	0.000231	20.837774
2627.912091	-3.016400	2.716600	-8.193200	28.715832	0.000230	20.828063
2628.920258	-3.002300	2.715700	-8.152100	28.727704	0.000230	20.825797
2629.914874	-3.025300	2.711200	-8.200900	28.762086	0.000229	20.861850
2630.919355	-3.008300	2.707500	-8.143600	28.791123	0.000229	20.839418
2631.915400	-3.023200	2.702000	-8.168100	28.839751	0.000230	20.851893
2632.914872	-3.009700	2.700900	-8.127200	28.856176	0.000231	20.859904
2633.915826	-2.992000	2.697000	-8.068400	28.883946	0.000227	20.861327
2634.916760	-3.002000	2.694200	-8.086700	28.906140	0.000231	20.854289
2635.913980	-2.981800	2.689500	-8.018500	28.885926	0.000230	20.861899
2636.913235	-2.983900	2.686900	-8.015900	28.860804	0.000230	20.841808
2637.912755	-3.046500	2.680100	-8.163800	28.885235	0.000231	20.864522
2638.913894	-2.998200	2.677800	-8.027900	28.908940	0.000229	20.850471
2639.915921	-2.983600	2.674600	-7.979300	28.909013	0.000230	20.869036
2640.913760	-2.997200	2.670200	-8.001800	28.943939	0.000229	20.860600
2641.917441	-2.958600	2.666900	-7.889400	28.906782	0.000228	20.845453
2642.915972	-2.974400	2.662100	-7.917100	28.915308	0.000230	20.853094
2643.914948	-3.005200	2.657100	-7.984500	28.850112	0.000231	20.865175
2644.921037	-3.019500	2.653600	-8.010700	28.855735	0.000228	20.872262
2645.914300	-3.022600	2.648400	-8.004300	28.834952	0.000228	20.854171
2646.916171	-2.990200	2.646200	-7.912100	28.852661	0.000232	20.844036
2647.915730	-2.985800	2.641600	-7.886300	28.909495	0.000230	20.854349
2648.914730	-2.990500	2.636500	-7.883300	28.929654	0.000230	20.845261
2649.916430	-2.978700	2.634500	-7.846500	28.927570	0.000231	20.863075
2650.918880	-3.011600	2.628200	-7.913800	28.904954	0.000230	20.876800
2651.919950	-2.989800	2.623400	-7.842900	28.882294	0.000231	20.857293
2652.920578	-3.036600	2.617900	-7.948500	28.915431	0.000230	20.870286
2653.917193	-3.016900	2.613200	-7.882100	28.941964	0.000231	20.865249
2654.921647	-2.993300	2.608500	-7.807400	28.972408	0.000231	20.867945
2655.919425	-2.994000	2.603000	-7.792100	28.994356	0.000229	20.879152
2656.918805	-2.999700	2.598600	-7.793800	29.044435	0.000230	20.861332
2657.920619	-2.957200	2.595400	-7.674200	29.025239	0.000231	20.864750
2658.927423	-2.996700	2.588600	-7.757100	28.988507	0.000231	20.883216
2659.918407	-2.970500	2.583200	-7.672100	28.994154	0.000229	20.861880
2660.919665	-2.986400	2.578000	-7.698500	28.993286	0.000229	20.868592
2661.921362	-3.025900	2.570100	-7.774800	28.984394	0.000230	20.862952
2662.921919	-2.952200	2.567000	-7.576300	29.044827	0.000230	20.854615
2663.919654	-3.005900	2.561100	-7.697600	29.081606	0.000230	20.855637
2664.919430	-2.968700	2.555800	-7.586200	29.121207	0.000231	20.856659
2665.924949	-3.000100	2.549400	-7.646500	29.149612	0.000230	20.863470
2666.923488	-2.999600	2.543000	-7.627700	29.197905	0.000232	20.853340
2667.920077	-3.039600	2.535500	-7.705600	29.200038	0.000230	20.863549
2668.926404	-3.020700	2.530400	-7.642400	29.187157	0.000232	20.846777
2669.922458	-3.026500	2.523300	-7.635400	29.182867	0.000230	20.859049
2670.921243	-2.954900	2.519300	-7.443100	29.159017	0.000230	20.840232
2671.926162	-2.994800	2.512500	-7.523300	29.141998	0.000232	20.862910
2672.926841	-3.016500	2.505600	-7.556800	29.156933	0.000231	20.869899
2673.924321	-2.997400	2.500700	-7.494600	29.198158	0.000231	20.845061
2674.923619	-3.024400	2.493000	-7.538700	29.246009	0.000230	20.874314
