LabVIEW Measurement	
Writer_Version	2
Reader_Version	2
Separator	Tab
Decimal_Separator	.
Multi_Headings	No
X_Columns	One
Time_Pref	Absolute
Operator	admin
Description	Clolumns are: time, Current, Voltage, Power, Battery Temp, and Chamber Temp
Date	2024/08/16
Time	13:06:06.104549407958984375
***End_of_Header***	
	
Channels	6						
Samples	1	1	1	1	1	1	
Date	2024/09/03	2024/09/03	2024/09/03	2024/09/03	2024/09/03	2024/09/03	
Time	18:00:19.2218408584594726563	18:00:19.2283840179443359375	18:00:19.2333750724792480469	18:00:19.2058415412902832031	18:00:19.2058415412902832031	18:00:19.2058415412902832031	
X_Dimension	Time	Time	Time	Time	Time	Time	
X0	0.0000000000000000E+0	0.0000000000000000E+0	0.0000000000000000E+0	0.0000000000000000E+0	0.0000000000000000E+0	0.0000000000000000E+0	
Delta_X	1.000000	1.000000	1.000000	1.000000	1.000000	1.000000	
***End_of_Header***							
X_Value	Untitled	Untitled 1	Untitled 2	Untitled 3	Untitled 4	Untitled 5	Comment
0.000000	0.017495	4.104200	0.071805	20.984996	0.000934	20.752201
1.001077	-3.009200	3.935700	-11.842000	20.971325	0.000937	20.767926
2.002012	-3.000700	3.929100	-11.789000	20.958500	0.000933	20.765056
3.007826	-3.021700	3.923300	-11.854000	20.954835	0.000932	20.754752
4.001969	-2.984900	3.920500	-11.702000	20.970228	0.000932	20.784847
5.001068	-2.991700	3.916100	-11.715000	20.945155	0.000930	20.774943
6.006960	-2.981900	3.913600	-11.669000	20.957332	0.000929	20.769104
7.002613	-2.991700	3.911000	-11.699000	20.995984	0.000928	20.765562
8.003759	-2.979800	3.909100	-11.647000	20.982087	0.000929	20.767784
9.005795	-2.995800	3.905700	-11.700000	20.963976	0.000927	20.771956
10.003843	-3.009500	3.903400	-11.746000	20.983162	0.000926	20.775972
11.005979	-3.002600	3.903000	-11.718000	20.995789	0.000926	20.789549
12.006592	-2.980500	3.900200	-11.624000	20.984415	0.000927	20.781018
13.006402	-3.000200	3.899700	-11.698000	21.007322	0.000925	20.776428
14.005617	-2.990900	3.898900	-11.661000	20.994122	0.000924	20.767968
15.005296	-2.994300	3.898700	-11.672000	21.014161	0.000924	20.792751
16.004317	-2.996500	3.897500	-11.678000	21.002857	0.000924	20.764850
17.006632	-3.006100	3.894700	-11.706000	21.024116	0.000923	20.771414
18.006003	-2.998300	3.894000	-11.673000	21.040962	0.000922	20.786367
19.006172	-2.995100	3.893200	-11.660000	21.024420	0.000922	20.793529
20.007905	-3.015000	3.891200	-11.731000	21.044907	0.000922	20.771346
21.006943	-3.008800	3.890400	-11.705000	21.016690	0.000922	20.782953
22.008263	-3.012200	3.890400	-11.717000	21.032783	0.000920	20.781031
23.009436	-2.996200	3.889500	-11.652000	21.029892	0.000921	20.777192
24.007308	-2.991000	3.889500	-11.633000	21.048331	0.000920	20.807488
25.007916	-3.019900	3.887400	-11.738000	21.041546	0.000918	20.771778
26.008773	-2.999300	3.887000	-11.658000	21.067197	0.000918	20.783685
27.009441	-3.011100	3.886400	-11.702000	21.073837	0.000917	20.782266
28.008761	-2.999500	3.885800	-11.655000	21.085961	0.000919	20.765942
29.009190	-3.014600	3.884900	-11.711000	21.081645	0.000916	20.773954
30.008450	-3.013300	3.884600	-11.705000	21.072465	0.000915	20.791324
31.009193	-3.003300	3.883200	-11.661000	21.084365	0.000916	20.785210
32.010898	-3.018000	3.882400	-11.716000	21.113337	0.000914	20.799017
33.009173	-3.009600	3.881600	-11.681000	21.115509	0.000913	20.804982
34.008079	-3.010900	3.880100	-11.681000	21.137912	0.000915	20.779976
35.009841	-3.006300	3.881000	-11.666000	21.133550	0.000913	20.780354
36.017075	-3.010300	3.879400	-11.677000	21.147845	0.000916	20.777584
37.009988	-2.998900	3.881100	-11.637000	21.123171	0.000913	20.791784
38.009426	-2.991400	3.880200	-11.606000	21.163664	0.000912	20.786295
39.010597	-2.984500	3.879700	-11.578000	21.158227	0.000912	20.796978
40.009442	-2.978500	3.880800	-11.558000	21.164339	0.000913	20.790290
41.010386	-2.979900	3.878300	-11.556000	21.172971	0.000912	20.790864
42.010508	-2.982100	3.878300	-11.565000	21.179037	0.000910	20.795510
43.008588	-2.995300	3.879400	-11.620000	21.192860	0.000910	20.783733
44.012353	-2.987300	3.878300	-11.585000	21.193182	0.000912	20.804444
45.011061	-2.982400	3.878200	-11.565000	21.201569	0.000908	20.807144
46.012129	-3.001900	3.876600	-11.636000	21.202443	0.000911	20.792845
47.010787	-3.001500	3.876400	-11.634000	21.201994	0.000912	20.808517
48.010668	-3.008300	3.874900	-11.655000	21.211201	0.000912	20.786907
49.011057	-3.010000	3.875500	-11.664000	21.213620	0.000910	20.804026
50.011954	-2.986300	3.876100	-11.575000	21.215792	0.000912	20.814259
51.010771	-2.990400	3.875300	-11.588000	21.206493	0.000912	20.785042
52.011211	-3.003100	3.874200	-11.634000	21.245730	0.000909	20.799639
53.016047	-2.993300	3.875000	-11.599000	21.255263	0.000911	20.800166
54.012504	-3.009500	3.873900	-11.657000	21.240994	0.000911	20.809599
55.013736	-2.987700	3.874900	-11.575000	21.270631	0.000910	20.814118
56.014989	-2.984700	3.873000	-11.559000	21.246880	0.000911	20.812168
57.015259	-2.976200	3.874100	-11.530000	21.285423	0.000911	20.810898
58.015795	-3.001600	3.871800	-11.621000	21.276442	0.000911	20.805233
59.019628	-3.003600	3.871300	-11.627000	21.278635	0.000911	20.793676
60.015504	-3.009700	3.871100	-11.650000	21.278685	0.000911	20.804157
61.015839	-3.008400	3.871600	-11.645000	21.305626	0.000909	20.818781
62.021286	-3.030300	3.868600	-11.721000	21.305127	0.000909	20.821601
63.017810	-3.005100	3.870400	-11.628000	21.323034	0.000909	20.794947
64.017644	-3.011900	3.869700	-11.654000	21.328000	0.000910	20.813665
65.024615	-3.028600	3.870300	-11.720000	21.331788	0.000909	20.809394
66.017138	-3.010900	3.870100	-11.652000	21.327721	0.000908	20.810066
67.017574	-3.009800	3.870200	-11.648000	21.358102	0.000907	20.809168
68.019174	-2.996200	3.869800	-11.592000	21.369352	0.000907	20.822320
69.017124	-3.020000	3.867300	-11.678000	21.372620	0.000910	20.824167
70.017494	-2.990200	3.869000	-11.568000	21.365536	0.000907	20.821821
71.026691	-3.025600	3.867300	-11.700000	21.367106	0.000909	20.829082
72.016265	-2.995800	3.869600	-11.591000	21.372769	0.000907	20.827160
73.020781	-2.992400	3.867900	-11.573000	21.379004	0.000907	20.816329
74.022215	-3.000200	3.866700	-11.600000	21.392521	0.000908	20.821793
75.020966	-2.978200	3.869300	-11.522000	21.412075	0.000906	20.821917
76.020967	-3.014000	3.866600	-11.653000	21.390254	0.000909	20.823318
77.022124	-3.003600	3.865800	-11.610000	21.399478	0.000906	20.827330
78.020827	-2.977900	3.867200	-11.515000	21.412298	0.000906	20.826407
79.020359	-2.996200	3.865800	-11.582000	21.429408	0.000907	20.820767
80.021885	-3.014800	3.866100	-11.654000	21.445520	0.000907	20.835465
81.022125	-3.021300	3.863900	-11.674000	21.445700	0.000907	20.845128
82.021086	-2.999200	3.864800	-11.589000	21.439412	0.000907	20.820820
83.023774	-2.984100	3.865900	-11.535000	21.460465	0.000906	20.836668
84.022781	-3.011900	3.865000	-11.640000	21.440834	0.000907	20.803276
85.022738	-3.000000	3.863000	-11.588000	21.459616	0.000906	20.828707
86.022782	-3.004900	3.864500	-11.611000	21.474855	0.000909	20.845376
87.025418	-3.012700	3.862500	-11.636000	21.487624	0.000908	20.830179
88.023601	-2.992000	3.864200	-11.560000	21.491716	0.000907	20.841385
89.023635	-2.986200	3.864200	-11.538000	21.500769	0.000908	20.845227
90.025335	-2.995300	3.862600	-11.569000	21.505932	0.000906	20.848497
91.024484	-3.014800	3.862100	-11.643000	21.525314	0.000907	20.833278
92.026257	-3.023100	3.861800	-11.673000	21.540177	0.000907	20.841038
93.024150	-3.008500	3.861600	-11.616000	21.550902	0.000906	20.825692
94.025291	-3.028300	3.862000	-11.693000	21.524494	0.000908	20.840992
95.025246	-2.987900	3.862700	-11.541000	21.566015	0.000907	20.846504
96.023973	-3.004600	3.862900	-11.606000	21.559583	0.000907	20.835801
97.024209	-3.008900	3.862300	-11.619000	21.564548	0.000909	20.846932
98.024092	-3.014100	3.860100	-11.633000	21.589760	0.000908	20.839919
99.026184	-3.005900	3.860900	-11.604000	21.568416	0.000911	20.839898
100.028410	-3.008600	3.861000	-11.615000	21.587317	0.000908	20.846957
101.026754	-2.993300	3.860500	-11.554000	21.607864	0.000909	20.843812
102.028170	-3.026300	3.858600	-11.676000	21.614501	0.000911	20.839074
103.027798	-3.019800	3.859300	-11.654000	21.616647	0.000911	20.847385
104.028272	-3.008400	3.860100	-11.611000	21.601231	0.000910	20.848553
105.028080	-3.017300	3.859700	-11.644000	21.611651	0.000911	20.848075
106.026725	-3.016700	3.857600	-11.637000	21.634646	0.000910	20.864921
107.026434	-2.997600	3.860000	-11.570000	21.645547	0.000912	20.868243
108.026154	-3.005500	3.858600	-11.597000	21.657636	0.000912	20.845729
109.027818	-3.007000	3.858300	-11.601000	21.665365	0.000911	20.871481
110.027896	-3.001200	3.858700	-11.580000	21.657307	0.000910	20.871952
111.026550	-3.006400	3.858900	-11.600000	21.681817	0.000913	20.846696
112.027034	-2.987100	3.858100	-11.524000	21.705259	0.000913	20.852138
113.027046	-2.999700	3.859100	-11.574000	21.697700	0.000912	20.857848
114.029106	-2.984000	3.859100	-11.515000	21.704506	0.000913	20.867030
115.028658	-3.002600	3.858400	-11.584000	21.693383	0.000911	20.836459
116.028046	-2.995300	3.857500	-11.554000	21.688818	0.000911	20.859391
117.027845	-2.981900	3.858800	-11.505000	21.705121	0.000911	20.881396
118.032083	-3.007200	3.857400	-11.600000	21.706069	0.000913	20.868120
119.027265	-2.994100	3.857200	-11.547000	21.715538	0.000912	20.870010
120.027739	-3.015000	3.856600	-11.626000	21.720474	0.000912	20.873527
121.029032	-3.002200	3.856700	-11.576000	21.745810	0.000910	20.862849
122.029965	-2.992100	3.857100	-11.539000	21.725982	0.000913	20.854385
123.030951	-3.015700	3.855100	-11.625000	21.756374	0.000910	20.866783
124.029501	-2.998300	3.855400	-11.558000	21.761833	0.000910	20.869876
125.030533	-3.012100	3.855600	-11.613000	21.768063	0.000911	20.880852
126.029150	-3.008400	3.856000	-11.599000	21.786567	0.000911	20.860018
127.029011	-2.988500	3.856600	-11.524000	21.773122	0.000912	20.869795
128.030705	-2.980900	3.856300	-11.493000	21.800547	0.000912	20.874483
129.030513	-3.003100	3.855600	-11.576000	21.798005	0.000911	20.867198
130.033813	-2.989100	3.856500	-11.526000	21.797828	0.000910	20.876029
131.031847	-3.000300	3.854800	-11.565000	21.796930	0.000911	20.880346
132.031892	-3.010600	3.853100	-11.600000	21.798277	0.000911	20.881220
133.033889	-3.001900	3.853500	-11.566000	21.812737	0.000913	20.878149
134.034806	-2.989300	3.854400	-11.520000	21.808968	0.000913	20.880541
135.032193	-3.028300	3.852700	-11.667000	21.832778	0.000912	20.884932
136.032905	-2.998900	3.853800	-11.556000	21.832627	0.000911	20.858703
137.033611	-2.997300	3.853400	-11.549000	21.838311	0.000914	20.878142
138.033816	-2.973900	3.853200	-11.458000	21.846414	0.000914	20.868709
139.033949	-2.987700	3.853300	-11.511000	21.874590	0.000914	20.859927
140.034460	-3.007500	3.852000	-11.584000	21.865610	0.000916	20.900249
141.039508	-3.001600	3.851200	-11.559000	21.877506	0.000915	20.875648
142.037792	-3.022500	3.851000	-11.638000	21.866158	0.000917	20.860023
143.035799	-3.008900	3.850600	-11.585000	21.887249	0.000918	20.861219
144.039074	-2.977500	3.851300	-11.466000	21.906371	0.000914	20.853332
145.035531	-2.991600	3.852600	-11.525000	21.915745	0.000916	20.876939
146.037307	-3.015500	3.850400	-11.610000	21.905147	0.000917	20.857323
147.042706	-3.005600	3.851600	-11.576000	21.940522	0.000917	20.853853
148.039163	-2.994600	3.851700	-11.533000	21.923767	0.000917	20.877856
149.038979	-3.012900	3.850400	-11.600000	21.935383	0.000917	20.855346
150.043842	-2.965500	3.852000	-11.421000	21.947370	0.000916	20.881568
151.039613	-3.005000	3.849800	-11.568000	21.937073	0.000917	20.857986
152.041140	-2.991100	3.849900	-11.515000	21.943057	0.000917	20.869665
153.042650	-2.993500	3.851000	-11.526000	21.932633	0.000919	20.855438
154.043161	-3.022300	3.849300	-11.631000	21.971496	0.000919	20.854037
155.040926	-2.986400	3.850300	-11.497000	21.956487	0.000919	20.858927
156.042819	-3.010100	3.848900	-11.585000	21.985031	0.000918	20.852888
157.044254	-2.995100	3.848200	-11.524000	21.960301	0.000919	20.870805
158.044062	-2.995200	3.848000	-11.524000	21.999609	0.000920	20.867006
159.043653	-2.974000	3.848600	-11.442000	21.990009	0.000920	20.852180
160.042821	-2.994200	3.848400	-11.521000	22.002946	0.000919	20.860863
161.043478	-3.003800	3.848000	-11.558000	21.996785	0.000920	20.857541
162.043958	-2.985900	3.847600	-11.488000	22.021044	0.000921	20.890832
163.046903	-3.011100	3.846200	-11.579000	22.037770	0.000920	20.858741
164.043019	-2.988800	3.846400	-11.494000	22.030263	0.000923	20.843165
165.046198	-3.016800	3.846400	-11.602000	22.027046	0.000920	20.875505
166.043600	-3.005400	3.847300	-11.562000	22.028216	0.000923	20.848703
167.043243	-3.006200	3.846000	-11.560000	21.995283	0.000922	20.868839
168.044918	-3.010500	3.846500	-11.579000	22.042723	0.000922	20.849949
169.045728	-2.998900	3.847300	-11.537000	22.032052	0.000923	20.857284
170.044233	-3.005400	3.845300	-11.557000	22.053641	0.000923	20.856137
171.048112	-3.001900	3.846900	-11.547000	22.048103	0.000923	20.856757
172.045733	-2.975000	3.846000	-11.441000	22.044614	0.000923	20.864643
173.047592	-3.005300	3.844400	-11.552000	22.046880	0.000924	20.856007
174.052303	-2.970800	3.846100	-11.425000	22.069787	0.000925	20.852387
175.046807	-3.001000	3.844400	-11.534000	22.078836	0.000926	20.855281
176.047714	-3.005400	3.845200	-11.556000	22.090973	0.000925	20.861268
177.050922	-2.990000	3.846600	-11.499000	22.095784	0.000925	20.840007
178.048532	-2.986300	3.845000	-11.480000	22.107402	0.000924	20.845947
179.048122	-3.013000	3.845000	-11.584000	22.085191	0.000928	20.842204
180.051805	-3.002600	3.845200	-11.544000	22.098523	0.000926	20.865981
181.048299	-3.012800	3.844300	-11.582000	22.111738	0.000927	20.828479
182.049621	-2.995800	3.844300	-11.516000	22.121285	0.000927	20.829501
183.054062	-2.999300	3.842400	-11.524000	22.108420	0.000927	20.812355
184.051022	-2.970000	3.843500	-11.414000	22.103885	0.000928	20.855228
185.050476	-3.006100	3.842500	-11.549000	22.127367	0.000929	20.848392
186.052369	-2.981300	3.845000	-11.462000	22.100644	0.000928	20.838708
187.050342	-3.007500	3.841700	-11.553000	22.111537	0.000930	20.839182
188.048046	-2.998300	3.841600	-11.517000	22.128785	0.000931	20.850286
189.053829	-3.001000	3.843400	-11.533000	22.120161	0.000932	20.847342
190.051807	-2.977700	3.843600	-11.445000	22.161612	0.000931	20.846641
191.055370	-3.005900	3.842500	-11.549000	22.157600	0.000931	20.828875
192.053081	-3.007300	3.841000	-11.550000	22.152041	0.000931	20.823784
193.052532	-3.002500	3.840600	-11.531000	22.174328	0.000930	20.834243
194.056328	-3.009400	3.841100	-11.557000	22.188383	0.000933	20.839306
195.054608	-2.994400	3.841000	-11.499000	22.189108	0.000933	20.830549
196.053698	-2.989900	3.841600	-11.485000	22.195837	0.000932	20.833019
197.052855	-2.998200	3.841300	-11.516000	22.225672	0.000935	20.819743
198.057011	-3.015000	3.839000	-11.572000	22.234521	0.000934	20.819120
199.052652	-2.984600	3.840900	-11.462000	22.221286	0.000936	20.835265
200.055150	-3.011900	3.839300	-11.562000	22.242621	0.000934	20.820592
201.054770	-3.000300	3.840800	-11.522000	22.242324	0.000936	20.822191
202.053766	-3.006000	3.838500	-11.537000	22.236465	0.000936	20.861367
203.053393	-2.993000	3.838900	-11.489000	22.226248	0.000936	20.828854
204.055562	-3.017400	3.838500	-11.581000	22.250678	0.000937	20.836719
205.054042	-2.996100	3.839300	-11.502000	22.227000	0.000936	20.831504
206.053773	-3.024700	3.838600	-11.609000	22.228619	0.000938	20.827909
207.054505	-3.019800	3.838300	-11.590000	22.230216	0.000938	20.817180
208.055205	-3.015000	3.837300	-11.568000	22.222091	0.000939	20.828011
209.053483	-3.008700	3.838500	-11.548000	22.235428	0.000939	20.816709
210.058044	-2.977600	3.837300	-11.424000	22.247716	0.000937	20.803883
211.053785	-2.995300	3.837000	-11.493000	22.265940	0.000939	20.794629
212.054047	-3.004800	3.837600	-11.530000	22.286176	0.000940	20.826744
213.055064	-2.997300	3.838300	-11.503000	22.288748	0.000942	20.813199
214.053765	-2.995000	3.835900	-11.488000	22.282991	0.000941	20.828297
215.059718	-3.000100	3.837400	-11.512000	22.299166	0.000942	20.811776
216.056126	-3.004300	3.837300	-11.527000	22.289373	0.000942	20.809557
217.055497	-2.990800	3.837700	-11.477000	22.294034	0.000942	20.800474
218.057119	-2.977400	3.838100	-11.426000	22.313353	0.000943	20.826931
219.055198	-3.011800	3.835000	-11.549000	22.301293	0.000942	20.807268
220.056626	-3.011400	3.834800	-11.547000	22.311116	0.000942	20.829432
221.056927	-2.968000	3.837000	-11.387000	22.326813	0.000942	20.810063
222.058155	-3.008800	3.835500	-11.539000	22.325322	0.000942	20.800035
223.057017	-3.023400	3.835700	-11.596000	22.326696	0.000943	20.793825
224.059125	-2.984600	3.835100	-11.445000	22.346213	0.000944	20.810048
225.058113	-2.999700	3.833700	-11.498000	22.343799	0.000945	20.804312
226.060584	-2.994000	3.836300	-11.484000	22.356407	0.000945	20.807929
227.059485	-2.978300	3.835500	-11.423000	22.352450	0.000948	20.816293
228.060208	-3.004400	3.834000	-11.518000	22.379241	0.000948	20.813250
229.059348	-3.006500	3.833700	-11.525000	22.381464	0.000948	20.811682
230.061088	-3.008500	3.833700	-11.532000	22.394174	0.000947	20.824410
231.064253	-3.010000	3.833300	-11.537000	22.391559	0.000948	20.803300
232.060513	-3.002800	3.833500	-11.510000	22.382739	0.000949	20.814856
233.061545	-3.006900	3.832800	-11.523000	22.421018	0.000951	20.803876
234.067231	-3.010800	3.831700	-11.535000	22.435897	0.000951	20.777051
235.062220	-3.022400	3.832100	-11.580000	22.417604	0.000952	20.808045
236.069461	-3.011700	3.830900	-11.537000	22.432808	0.000952	20.799089
237.068578	-2.994900	3.832000	-11.476000	22.447214	0.000952	20.785065
238.063227	-3.004000	3.831000	-11.507000	22.457033	0.000953	20.779252
239.064447	-3.001100	3.832300	-11.499000	22.458828	0.000955	20.788636
240.067077	-2.999000	3.832000	-11.490000	22.466573	0.000954	20.816781
241.066923	-2.991000	3.831600	-11.459000	22.450358	0.000955	20.808603
242.064040	-3.009000	3.829300	-11.520000	22.442977	0.000954	20.791728
243.067045	-2.992700	3.831500	-11.466000	22.458853	0.000956	20.797195
244.064554	-3.005300	3.830300	-11.510000	22.454016	0.000956	20.797567
245.065564	-2.991100	3.830300	-11.456000	22.480932	0.000955	20.794651
246.069263	-3.011300	3.828900	-11.528000	22.497775	0.000955	20.807726
247.067317	-2.989700	3.828700	-11.445000	22.509039	0.000958	20.814739
248.067451	-2.977900	3.830400	-11.404000	22.498750	0.000958	20.799219
249.067225	-3.000900	3.828600	-11.489000	22.479162	0.000956	20.780076
250.068789	-2.992200	3.829700	-11.457000	22.493514	0.000958	20.794450
251.066703	-3.000600	3.828100	-11.485000	22.470018	0.000959	20.800316
252.071864	-2.995700	3.828700	-11.469000	22.444899	0.000958	20.780851
253.069945	-2.990800	3.828800	-11.450000	22.436981	0.000959	20.790465
254.069095	-3.002600	3.827900	-11.493000	22.418385	0.000960	20.791282
255.075716	-3.006900	3.829000	-11.513000	22.429225	0.000959	20.795026
256.068653	-3.002400	3.828200	-11.493000	22.426091	0.000960	20.782404
257.067681	-3.004600	3.827200	-11.498000	22.401816	0.000960	20.778009
258.071908	-3.010800	3.828100	-11.524000	22.423126	0.000961	20.792712
259.067933	-3.005500	3.826800	-11.500000	22.426487	0.000961	20.788965
260.067566	-2.991900	3.827600	-11.450000	22.450461	0.000963	20.769825
261.070490	-3.002900	3.826900	-11.491000	22.450708	0.000962	20.780030
262.068079	-2.994900	3.827200	-11.461000	22.490055	0.000964	20.782924
263.071015	-3.012800	3.826000	-11.526000	22.503463	0.000966	20.772645
264.071907	-3.001400	3.826300	-11.483000	22.510389	0.000965	20.776261
265.070427	-3.011200	3.826100	-11.520000	22.533965	0.000965	20.782330
266.070315	-3.012300	3.825900	-11.524000	22.557163	0.000965	20.786123
267.075315	-3.017500	3.824600	-11.539000	22.581604	0.000964	20.792110
268.070623	-2.994100	3.826000	-11.455000	22.589631	0.000965	20.782606
269.069863	-3.020400	3.823600	-11.547000	22.596806	0.000966	20.785051
270.070964	-3.007900	3.824800	-11.503000	22.618558	0.000966	20.783604
271.072520	-3.021300	3.823600	-11.551000	22.612379	0.000966	20.765086
272.074236	-3.019500	3.823300	-11.544000	22.581184	0.000968	20.776042
273.073982	-3.018500	3.824300	-11.543000	22.577149	0.000968	20.766311
274.071548	-3.025200	3.823900	-11.568000	22.574436	0.000968	20.784930
275.073964	-3.010300	3.822400	-11.506000	22.589984	0.000968	20.753087
276.076736	-3.016000	3.822100	-11.527000	22.592175	0.000969	20.777093
277.073742	-3.016700	3.823100	-11.532000	22.574983	0.000969	20.767461
278.074951	-3.013400	3.822900	-11.519000	22.580742	0.000969	20.789824
279.074480	-3.035700	3.821400	-11.599000	22.603240	0.000969	20.749294
280.076051	-2.995800	3.822100	-11.449000	22.621978	0.000971	20.788451
281.077895	-2.996200	3.822100	-11.450000	22.653024	0.000970	20.790149
282.077345	-2.974200	3.823400	-11.371000	22.622380	0.000971	20.771310
283.079462	-3.017100	3.821100	-11.528000	22.646124	0.000972	20.778971
284.076624	-2.995700	3.823500	-11.452000	22.642238	0.000972	20.766070
285.077003	-3.004700	3.822400	-11.483000	22.619271	0.000972	20.778628
286.076800	-3.036400	3.820700	-11.600000	22.619194	0.000975	20.760058
287.077282	-3.012000	3.820200	-11.503000	22.649967	0.000975	20.748207
288.076285	-3.020500	3.820300	-11.537000	22.636119	0.000973	20.763260
289.077554	-3.005900	3.820700	-11.484000	22.619971	0.000976	20.779803
290.078164	-3.010300	3.819500	-11.496000	22.638935	0.000975	20.769873
291.079470	-3.013700	3.818600	-11.507000	22.645562	0.000977	20.744268
292.081881	-3.007300	3.819100	-11.483000	22.662208	0.000977	20.768529
293.080014	-3.012700	3.820100	-11.508000	22.690784	0.000976	20.767754
294.080942	-3.016400	3.818900	-11.518000	22.697513	0.000977	20.759321
295.080954	-2.996400	3.819400	-11.444000	22.719987	0.000979	20.755280
296.080350	-3.014700	3.818000	-11.509000	22.712791	0.000979	20.750917
297.081052	-2.999700	3.818700	-11.453000	22.718793	0.000978	20.765938
298.080531	-3.003000	3.818700	-11.466000	22.726123	0.000978	20.768539
299.081291	-3.003500	3.817000	-11.463000	22.705595	0.000980	20.766469
300.082955	-2.997300	3.817400	-11.440000	22.705044	0.000978	20.756908
301.082162	-2.991300	3.818000	-11.420000	22.709810	0.000983	20.754094
302.081622	-2.971900	3.817800	-11.345000	22.731736	0.000982	20.744763
303.082135	-2.979200	3.818800	-11.375000	22.725904	0.000981	20.751249
304.084701	-3.001300	3.817300	-11.456000	22.757349	0.000982	20.765205
305.083858	-2.990700	3.816000	-11.412000	22.758522	0.000981	20.768277
306.082794	-3.001100	3.815600	-11.449000	22.753488	0.000982	20.769873
307.085579	-3.025600	3.815700	-11.544000	22.758374	0.000984	20.724978
308.083209	-2.998700	3.815100	-11.438000	22.738666	0.000981	20.751231
309.083172	-2.987400	3.815500	-11.397000	22.755343	0.000984	20.748970
310.083271	-2.998100	3.815300	-11.437000	22.729955	0.000984	20.751514
311.085313	-2.998300	3.815200	-11.438000	22.741517	0.000985	20.763096
312.085994	-2.997100	3.814700	-11.432000	22.740648	0.000986	20.738517
313.084500	-3.011400	3.813500	-11.482000	22.765336	0.000986	20.748549
314.084318	-3.002300	3.814800	-11.452000	22.760058	0.000986	20.719079
315.086040	-3.002200	3.814900	-11.451000	22.771369	0.000985	20.746057
316.083996	-2.989300	3.814900	-11.403000	22.780542	0.000986	20.731538
317.083663	-2.990700	3.814500	-11.406000	22.786872	0.000988	20.751156
318.084085	-3.012400	3.814200	-11.489000	22.816041	0.000987	20.723477
319.085188	-3.008700	3.812900	-11.470000	22.813226	0.000988	20.740098
320.084649	-3.018800	3.812100	-11.507000	22.812357	0.000989	20.760091
321.087924	-2.994900	3.813200	-11.419000	22.849328	0.000989	20.754454
322.088879	-2.990600	3.812700	-11.401000	22.842628	0.000990	20.736361
323.088156	-3.003400	3.811500	-11.447000	22.858473	0.000988	20.731846
324.091221	-2.989700	3.812800	-11.398000	22.874742	0.000992	20.750990
325.095513	-2.993500	3.811300	-11.409000	22.880273	0.000994	20.735194
326.086641	-3.005700	3.811100	-11.454000	22.892232	0.000990	20.733898
327.090015	-2.996300	3.811300	-11.418000	22.895022	0.000989	20.731478
328.095965	-3.010400	3.810800	-11.471000	22.905812	0.000993	20.716683
329.088420	-3.010700	3.810100	-11.469000	22.880432	0.000993	20.725869
330.093667	-3.002200	3.810400	-11.439000	22.901157	0.000990	20.726244
331.093414	-2.990000	3.810800	-11.392000	22.892490	0.000992	20.731786
332.088876	-3.011600	3.809800	-11.473000	22.916500	0.000995	20.721701
333.093751	-3.004300	3.810300	-11.447000	22.937006	0.000994	20.718063
334.095435	-2.999900	3.809700	-11.427000	22.938602	0.000995	20.714446
335.090068	-3.007400	3.808100	-11.451000	22.945577	0.000995	20.720013
336.092846	-2.998000	3.810100	-11.421000	22.949985	0.000996	20.725851
337.096878	-2.991900	3.809200	-11.396000	22.938083	0.000994	20.731471
338.092344	-2.999600	3.808900	-11.424000	22.976021	0.000993	20.731549
339.094096	-3.002700	3.809100	-11.435000	22.962445	0.000998	20.719843
340.094455	-2.998200	3.807800	-11.415000	22.997667	0.000996	20.706767
341.092234	-3.010100	3.807500	-11.460000	22.977391	0.000994	20.710635
342.093942	-2.992000	3.807300	-11.390000	22.981054	0.000999	20.698182
343.098754	-3.012500	3.806800	-11.467000	22.987732	0.000997	20.713883
344.093164	-3.010700	3.805300	-11.455000	23.004818	0.000999	20.726736
345.097725	-3.017300	3.805700	-11.482000	23.003398	0.000998	20.713933
346.097736	-2.991400	3.806400	-11.385000	23.022981	0.000998	20.696094
347.094962	-2.991300	3.806400	-11.384000	22.997578	0.001000	20.710472
348.095501	-2.990800	3.806700	-11.385000	22.972694	0.001003	20.713990
349.099845	-2.993800	3.806300	-11.394000	22.966122	0.001000	20.717362
350.097454	-3.014200	3.805600	-11.470000	22.971850	0.001002	20.725947
351.099594	-3.012500	3.805300	-11.462000	22.978578	0.001003	20.683847
352.102871	-2.996500	3.804900	-11.400000	23.002244	0.001003	20.715147
353.100432	-3.000300	3.805000	-11.415000	22.984183	0.001003	20.723130
354.099373	-3.015900	3.803200	-11.470000	23.011556	0.001004	20.694130
355.099530	-3.026800	3.804400	-11.513000	23.006552	0.001004	20.711877
356.099414	-3.004200	3.803800	-11.426000	23.009416	0.001004	20.704789
357.101363	-2.999700	3.803300	-11.407000	23.026629	0.001007	20.684576
358.101810	-2.996200	3.803000	-11.393000	22.996614	0.001007	20.701445
359.099200	-3.019000	3.803500	-11.482000	22.969367	0.001006	20.723459
360.103058	-3.012500	3.803600	-11.457000	22.969194	0.001006	20.709534
361.102953	-2.989600	3.801600	-11.364000	22.953898	0.001009	20.704166
362.099693	-3.030900	3.802900	-11.525000	23.012355	0.001008	20.707733
363.102932	-3.026400	3.800600	-11.500000	23.012754	0.001008	20.693907
364.111557	-2.997500	3.802200	-11.394000	23.024235	0.001008	20.712525
365.102962	-2.991700	3.801900	-11.374000	23.019005	0.001009	20.708706
366.104194	-2.974000	3.802100	-11.307000	22.996692	0.001010	20.721439
367.112862	-2.992900	3.801900	-11.378000	23.005606	0.001008	20.699548
368.103805	-2.992800	3.802300	-11.379000	23.014449	0.001009	20.708409
369.105960	-3.005600	3.800900	-11.422000	23.006527	0.001010	20.720388
370.107538	-3.007000	3.800500	-11.427000	23.032905	0.001010	20.700348
371.102358	-2.996100	3.800000	-11.385000	22.997663	0.001010	20.711980
372.107225	-2.991400	3.799200	-11.364000	23.019156	0.001009	20.703642
373.107055	-3.005100	3.799300	-11.416000	23.018856	0.001010	20.689590
374.105346	-3.009300	3.800200	-11.434000	23.027304	0.001012	20.712280
375.107021	-2.966800	3.800700	-11.275000	23.046349	0.001011	20.707181
376.107810	-2.999900	3.799000	-11.396000	23.052455	0.001013	20.691961
377.107930	-3.000800	3.799100	-11.398000	23.036041	0.001013	20.707758
378.106199	-3.005800	3.798700	-11.418000	23.039805	0.001012	20.690666
379.108251	-3.009400	3.798300	-11.428000	23.070935	0.001012	20.702418
380.108531	-3.011400	3.798700	-11.437000	23.022621	0.001014	20.695259
381.108312	-3.001600	3.798600	-11.400000	23.047126	0.001014	20.713176
382.106576	-2.999500	3.796800	-11.388000	23.046303	0.001014	20.706187
383.106818	-2.995200	3.796200	-11.370000	23.053228	0.001012	20.700797
384.105784	-3.006600	3.797700	-11.417000	23.065161	0.001013	20.722713
385.109118	-3.027800	3.796100	-11.493000	23.080329	0.001013	20.712305
386.107003	-2.997500	3.796100	-11.377000	23.085883	0.001014	20.700801
387.112283	-3.000600	3.795600	-11.388000	23.113156	0.001015	20.715802
388.109415	-3.006100	3.795200	-11.407000	23.141794	0.001015	20.716049
389.107277	-2.997500	3.796300	-11.378000	23.142020	0.001016	20.718172
390.108599	-3.001000	3.796000	-11.391000	23.168542	0.001016	20.703972
391.109965	-2.997400	3.794300	-11.372000	23.175170	0.001017	20.685007
392.109746	-3.027200	3.793100	-11.481000	23.188571	0.001018	20.706024
393.112235	-2.992100	3.795200	-11.355000	23.177886	0.001017	20.721396
394.110850	-3.002900	3.792400	-11.387000	23.173677	0.001018	20.708169
395.112000	-2.992900	3.793300	-11.351000	23.187974	0.001017	20.713013
396.114360	-3.010300	3.793600	-11.418000	23.171314	0.001019	20.691101
397.112616	-2.995800	3.793200	-11.363000	23.205082	0.001019	20.718778
398.113130	-3.010100	3.793500	-11.418000	23.218531	0.001019	20.710444
399.117083	-3.022800	3.791500	-11.458000	23.245104	0.001019	20.714315
400.113915	-2.988700	3.794200	-11.339000	23.231846	0.001018	20.701502
401.113026	-3.011800	3.792200	-11.420000	23.253773	0.001020	20.708303
402.116642	-3.006300	3.792800	-11.400000	23.247671	0.001018	20.694601
403.113962	-3.008200	3.793400	-11.409000	23.257657	0.001019	20.695125
404.114573	-3.018200	3.790300	-11.438000	23.275911	0.001020	20.692556
405.116918	-3.011200	3.792300	-11.419000	23.275215	0.001020	20.715094
406.117269	-2.994100	3.790400	-11.347000	23.280547	0.001020	20.712850
407.115841	-2.997700	3.789700	-11.359000	23.273874	0.001021	20.709482
408.123951	-3.017500	3.789600	-11.434000	23.252558	0.001022	20.704241
409.118241	-3.003500	3.790300	-11.383000	23.283015	0.001024	20.705840
410.118549	-2.995600	3.790000	-11.352000	23.272634	0.001022	20.712981
411.118042	-2.983200	3.789500	-11.303000	23.272535	0.001024	20.718573
412.118943	-3.021100	3.788100	-11.444000	23.245864	0.001024	20.703696
413.120136	-2.996800	3.790100	-11.355000	23.253787	0.001024	20.714008
414.120688	-2.986800	3.789100	-11.316000	23.267458	0.001025	20.731977
415.117971	-2.992100	3.788600	-11.335000	23.291114	0.001024	20.703526
416.120223	-2.971200	3.790400	-11.261000	23.258769	0.001024	20.716630
417.122541	-2.995500	3.789900	-11.351000	23.262731	0.001027	20.722023
418.122519	-3.008400	3.787300	-11.393000	23.262554	0.001026	20.713311
419.124011	-2.998500	3.787300	-11.354000	23.278743	0.001023	20.696342
420.123055	-3.003900	3.787000	-11.374000	23.294228	0.001028	20.702379
421.122107	-3.002300	3.786300	-11.366000	23.283947	0.001026	20.693023
422.121171	-2.994700	3.786300	-11.338000	23.267684	0.001025	20.717978
423.128050	-3.011400	3.786800	-11.402000	23.268380	0.001028	20.714882
424.122898	-2.971600	3.787900	-11.254000	23.257950	0.001028	20.729560
425.124764	-2.974700	3.786400	-11.263000	23.300905	0.001027	20.719503
426.133423	-3.002100	3.784700	-11.361000	23.288254	0.001029	20.711092
427.131338	-2.991000	3.785700	-11.322000	23.312634	0.001030	20.709921
428.129687	-3.011400	3.783800	-11.393000	23.316069	0.001028	20.709096
429.127473	-3.010600	3.784600	-11.393000	23.329958	0.001027	20.720172
430.126215	-3.002200	3.782700	-11.356000	23.334396	0.001029	20.720827
431.125919	-3.014900	3.783600	-11.407000	23.331184	0.001026	20.705752
432.125899	-2.996400	3.783300	-11.335000	23.358651	0.001028	20.723799
433.126778	-3.003400	3.784600	-11.365000	23.349634	0.001028	20.725668
434.126514	-2.971400	3.782900	-11.240000	23.393878	0.001029	20.708845
435.127863	-3.014900	3.782500	-11.402000	23.399583	0.001030	20.690380
436.128044	-2.983500	3.783000	-11.285000	23.389698	0.001030	20.725993
437.127504	-3.008900	3.782100	-11.379000	23.368829	0.001031	20.728785
438.128305	-2.989900	3.783100	-11.310000	23.381532	0.001030	20.699315
439.129201	-3.020200	3.780200	-11.416000	23.362683	0.001031	20.738273
440.128298	-2.958200	3.782800	-11.189000	23.350658	0.001032	20.719581
441.130523	-3.005800	3.780700	-11.363000	23.345952	0.001032	20.712967
442.127441	-2.999300	3.781000	-11.340000	23.357055	0.001033	20.717458
443.126985	-3.008600	3.780000	-11.372000	23.384769	0.001036	20.723899
444.127485	-3.030400	3.779400	-11.451000	23.378044	0.001035	20.726641
445.128757	-3.007800	3.780200	-11.369000	23.366019	0.001035	20.724546
446.129230	-2.993400	3.779200	-11.312000	23.395569	0.001035	20.736620
447.130262	-3.007200	3.778500	-11.362000	23.417429	0.001034	20.729132
448.127353	-2.985900	3.780300	-11.286000	23.426816	0.001035	20.731429
449.128331	-3.007400	3.778700	-11.363000	23.465228	0.001035	20.735318
450.131564	-2.992300	3.780200	-11.310000	23.477078	0.001037	20.730126
451.129605	-2.993300	3.779000	-11.311000	23.475458	0.001036	20.724234
452.131272	-3.038500	3.776600	-11.474000	23.478194	0.001036	20.719864
453.131731	-3.012800	3.776600	-11.377000	23.497165	0.001038	20.738407
454.130710	-2.992700	3.776600	-11.301000	23.486059	0.001036	20.727274
455.132987	-3.012900	3.776900	-11.378000	23.511998	0.001037	20.742844
456.134081	-2.987600	3.777200	-11.284000	23.514034	0.001038	20.733506
457.132812	-2.993000	3.777000	-11.304000	23.490606	0.001039	20.719503
458.132836	-2.977600	3.776500	-11.243000	23.494090	0.001039	20.731531
459.134671	-2.995400	3.776300	-11.309000	23.512584	0.001040	20.736319
460.132254	-2.999800	3.776400	-11.327000	23.517557	0.001037	20.725657
461.133645	-2.996400	3.774900	-11.310000	23.523805	0.001040	20.728127
462.132514	-2.994100	3.773700	-11.298000	23.508665	0.001038	20.734288
463.134000	-2.987200	3.774800	-11.274000	23.530717	0.001040	20.738375
464.133573	-2.993300	3.774800	-11.299000	23.537636	0.001040	20.738198
465.133578	-3.024100	3.773000	-11.409000	23.516368	0.001040	20.750544
466.132379	-2.980000	3.774200	-11.245000	23.528913	0.001039	20.746998
467.133925	-3.004400	3.772600	-11.333000	23.536704	0.001038	20.740109
468.137147	-2.982600	3.773800	-11.254000	23.543121	0.001039	20.737532
469.132091	-2.964300	3.775300	-11.189000	23.538116	0.001040	20.753378
470.133408	-3.003400	3.771500	-11.326000	23.540527	0.001040	20.745838
471.135639	-2.999300	3.772200	-11.313000	23.540996	0.001039	20.746308
472.133651	-2.991500	3.772200	-11.284000	23.525906	0.001040	20.745880
473.133920	-2.986200	3.772900	-11.266000	23.519880	0.001040	20.764497
474.134386	-2.987700	3.771100	-11.265000	23.537975	0.001040	20.757505
475.136275	-2.985400	3.771100	-11.257000	23.547138	0.001041	20.742982
476.135492	-2.975600	3.771400	-11.221000	23.562620	0.001041	20.767986
477.134271	-2.985700	3.771000	-11.258000	23.560626	0.001042	20.775944
478.135212	-3.003400	3.770400	-11.323000	23.597212	0.001041	20.762834
479.135409	-3.021500	3.768600	-11.385000	23.623205	0.001042	20.768977
480.135219	-2.999700	3.769300	-11.305000	23.625640	0.001040	20.742968
481.138339	-3.000900	3.768900	-11.310000	23.629174	0.001039	20.760735
482.134677	-3.012900	3.769400	-11.356000	23.644358	0.001040	20.778803
483.135906	-2.998200	3.768400	-11.298000	23.625937	0.001039	20.764129
484.136442	-3.020900	3.768300	-11.383000	23.634870	0.001043	20.763128
485.136420	-3.034200	3.767500	-11.429000	23.607562	0.001040	20.771312
486.138923	-2.996300	3.766700	-11.285000	23.628941	0.001040	20.768563
487.136448	-3.003600	3.765700	-11.309000	23.618860	0.001041	20.764147
488.136070	-3.010200	3.767000	-11.338000	23.644175	0.001041	20.740686
489.136640	-3.010800	3.767900	-11.344000	23.660675	0.001040	20.770980
490.136522	-2.982000	3.767100	-11.231000	23.636484	0.001041	20.784186
491.136621	-3.016800	3.765700	-11.358000	23.639692	0.001039	20.760849
492.139791	-3.003200	3.765200	-11.306000	23.634839	0.001041	20.782062
493.139078	-2.968700	3.766400	-11.179000	23.670907	0.001041	20.760849
494.139365	-3.008500	3.764300	-11.324000	23.669287	0.001041	20.772501
495.137925	-3.022600	3.764500	-11.377000	23.662592	0.001040	20.766737
496.138592	-3.003400	3.764300	-11.305000	23.674112	0.001043	20.758372
497.139532	-3.003000	3.763800	-11.301000	23.644817	0.001043	20.759823
498.144043	-3.008700	3.764300	-11.324000	23.683250	0.001041	20.763266
499.140296	-2.999000	3.764100	-11.287000	23.645212	0.001044	20.791988
500.140437	-2.998700	3.764800	-11.289000	23.641404	0.001042	20.778687
501.144300	-3.012300	3.762600	-11.333000	23.634260	0.001041	20.798078
502.140564	-2.982700	3.763600	-11.225000	23.628659	0.001044	20.783453
503.140074	-2.979000	3.764100	-11.213000	23.617081	0.001043	20.768528
504.144261	-3.016400	3.762600	-11.347000	23.591466	0.001042	20.756125
505.142279	-3.000900	3.762900	-11.291000	23.583796	0.001042	20.774041
506.142072	-2.997300	3.762400	-11.276000	23.615786	0.001042	20.781928
507.150482	-2.992900	3.761800	-11.258000	23.626562	0.001042	20.790835
508.145479	-3.011400	3.760200	-11.323000	23.649787	0.001044	20.780453
509.142901	-3.000700	3.761000	-11.285000	23.658328	0.001044	20.758195
510.146133	-2.967500	3.762000	-11.162000	23.661336	0.001045	20.786341
511.146018	-3.001700	3.759300	-11.284000	23.692328	0.001045	20.775212
512.148878	-2.995300	3.759900	-11.261000	23.710621	0.001048	20.798294
513.145118	-3.005800	3.758900	-11.298000	23.730608	0.001046	20.778503
514.145996	-2.997000	3.760000	-11.268000	23.731455	0.001045	20.789310
515.144676	-2.993100	3.759700	-11.252000	23.715248	0.001045	20.764052
516.145397	-2.992800	3.759300	-11.250000	23.725949	0.001044	20.786161
517.143224	-2.999700	3.759100	-11.275000	23.732044	0.001045	20.783737
518.143969	-2.986400	3.758500	-11.224000	23.725624	0.001045	20.803379
519.149145	-3.013600	3.757900	-11.323000	23.697569	0.001046	20.786631
520.153000	-3.003200	3.757400	-11.284000	23.682358	0.001047	20.790347
521.147379	-2.973700	3.758800	-11.177000	23.687235	0.001044	20.788125
522.150015	-3.011800	3.756600	-11.313000	23.695872	0.001044	20.781610
523.145897	-3.002300	3.756900	-11.277000	23.716953	0.001045	20.782357
524.145026	-3.015100	3.756400	-11.325000	23.728078	0.001045	20.790191
525.147677	-3.016300	3.755100	-11.325000	23.755009	0.001044	20.775942
526.148373	-3.019000	3.755700	-11.337000	23.727329	0.001045	20.781380
527.147707	-3.015100	3.755300	-11.321000	23.736018	0.001045	20.773022
528.146577	-3.004200	3.755500	-11.281000	23.715979	0.001044	20.811252
529.146724	-3.008100	3.754600	-11.293000	23.690790	0.001045	20.790740
530.150585	-3.005600	3.754400	-11.283000	23.697979	0.001047	20.812646
531.154051	-2.997200	3.754300	-11.251000	23.739424	0.001045	20.795878
532.150558	-3.007600	3.753400	-11.288000	23.740045	0.001045	20.804561
533.147475	-3.008100	3.754200	-11.292000	23.742911	0.001043	20.806960
534.149471	-2.995500	3.753300	-11.243000	23.744679	0.001044	20.788344
535.148738	-3.008300	3.751900	-11.286000	23.768177	0.001044	20.802420
536.147098	-3.005200	3.753400	-11.279000	23.793915	0.001044	20.805467
537.150413	-3.004300	3.751800	-11.270000	23.809767	0.001047	20.796706
538.148605	-2.993000	3.752200	-11.228000	23.808275	0.001045	20.794735
539.147880	-2.998500	3.753300	-11.254000	23.791476	0.001045	20.793064
540.147384	-2.997900	3.751200	-11.243000	23.840904	0.001045	20.794735
541.148519	-2.966300	3.752800	-11.130000	23.842499	0.001044	20.817197
542.149134	-3.006000	3.750500	-11.273000	23.849267	0.001044	20.797905
543.149346	-2.991300	3.752500	-11.224000	23.870324	0.001044	20.805268
544.151777	-2.972600	3.752000	-11.152000	23.855319	0.001046	20.805870
545.150557	-3.005100	3.750900	-11.271000	23.852856	0.001045	20.798659
546.151050	-2.992400	3.750700	-11.223000	23.856516	0.001046	20.807544
547.150025	-2.972300	3.750200	-11.145000	23.832399	0.001045	20.802802
548.150456	-2.987400	3.750500	-11.203000	23.873415	0.001045	20.823541
549.149075	-2.986000	3.748300	-11.192000	23.841609	0.001046	20.821046
550.153031	-2.992000	3.748800	-11.215000	23.871002	0.001047	20.803103
551.150121	-3.003100	3.749400	-11.259000	23.874266	0.001045	20.799263
552.149672	-2.999800	3.747100	-11.238000	23.871679	0.001045	20.804730
553.151796	-2.993300	3.747500	-11.216000	23.891959	0.001045	20.825540
554.152150	-3.009900	3.747100	-11.277000	23.913816	0.001044	20.819482
555.150419	-2.987300	3.747500	-11.193000	23.903410	0.001046	20.799564
556.152187	-2.988000	3.747000	-11.195000	23.895347	0.001045	20.834152
557.162022	-2.997500	3.746300	-11.229000	23.908886	0.001046	20.815487
558.149027	-3.006300	3.745300	-11.259000	23.920087	0.001047	20.823399
559.152623	-3.012000	3.745000	-11.279000	23.890794	0.001045	20.818682
560.150785	-2.986700	3.745600	-11.186000	23.905305	0.001045	20.796249
561.149881	-2.986000	3.744600	-11.181000	23.886320	0.001045	20.828420
562.151912	-2.997900	3.744900	-11.225000	23.871756	0.001047	20.819981
563.151552	-2.979000	3.744500	-11.154000	23.854493	0.001047	20.806938
564.151785	-2.983200	3.744500	-11.170000	23.885152	0.001046	20.826774
565.155779	-3.000000	3.744400	-11.232000	23.870292	0.001046	20.806659
566.154266	-2.982000	3.744400	-11.164000	23.907372	0.001045	20.823452
567.154679	-2.980700	3.743000	-11.156000	23.896275	0.001046	20.828444
568.155584	-2.997400	3.743000	-11.218000	23.901402	0.001046	20.826474
569.155292	-2.996000	3.742600	-11.211000	23.922860	0.001046	20.835188
570.155897	-2.998700	3.743500	-11.224000	23.948238	0.001043	20.812748
571.156977	-2.981200	3.741300	-11.153000	23.954335	0.001046	20.812699
572.155354	-2.991200	3.741000	-11.189000	23.961555	0.001046	20.826576
573.154664	-3.007100	3.741900	-11.251000	23.986015	0.001045	20.822656
574.156513	-3.005200	3.740700	-11.240000	23.958294	0.001047	20.805289
575.159759	-3.002800	3.740200	-11.230000	23.955807	0.001044	20.821286
576.155226	-3.022200	3.740300	-11.303000	23.955457	0.001046	20.837531
577.157805	-3.012900	3.740400	-11.267000	23.943439	0.001045	20.845393
578.157115	-3.010500	3.739100	-11.256000	23.913474	0.001046	20.828147
579.156849	-3.004400	3.739200	-11.232000	23.919077	0.001045	20.821912
580.156613	-3.011900	3.738500	-11.260000	23.914719	0.001046	20.843146
581.156130	-2.996300	3.738600	-11.201000	23.937543	0.001044	20.841851
582.160497	-3.023900	3.737800	-11.302000	23.960591	0.001047	20.836515
583.160091	-2.989000	3.739100	-11.175000	23.972387	0.001045	20.804723
584.162073	-2.993300	3.737400	-11.187000	24.004959	0.001045	20.823161
585.157822	-3.010300	3.736500	-11.247000	24.018599	0.001045	20.863392
586.162741	-3.011400	3.737700	-11.255000	24.001307	0.001044	20.844154
587.160610	-3.003700	3.737900	-11.226000	24.011733	0.001046	20.827110
588.159048	-3.001400	3.735200	-11.210000	24.009295	0.001044	20.831303
589.159281	-2.997400	3.735600	-11.196000	24.006433	0.001046	20.842184
590.159610	-3.003000	3.736600	-11.220000	23.995216	0.001047	20.844211
591.159868	-3.003400	3.735100	-11.217000	24.019975	0.001046	20.841539
592.161939	-3.023500	3.735400	-11.293000	24.011913	0.001044	20.828239
593.161950	-2.997500	3.735900	-11.196000	24.005470	0.001044	20.826993
594.165481	-3.004900	3.734800	-11.221000	24.007693	0.001045	20.835386
595.163561	-2.992700	3.735800	-11.179000	24.034865	0.001047	20.840350
596.165436	-2.998900	3.733500	-11.195000	24.044317	0.001048	20.831338
597.162103	-3.015400	3.733500	-11.257000	24.070126	0.001046	20.813600
598.163085	-3.012100	3.733600	-11.246000	24.065324	0.001044	20.852405
599.166697	-2.989300	3.733800	-11.160000	24.093246	0.001044	20.840106
600.163091	-3.016100	3.732400	-11.256000	24.104423	0.001046	20.856531
601.166905	-2.987000	3.733300	-11.150000	24.115643	0.001045	20.834119
602.165740	-3.013800	3.731800	-11.246000	24.129928	0.001045	20.854136
603.164014	-3.000000	3.731300	-11.193000	24.110495	0.001043	20.859301
604.164949	-2.984900	3.733000	-11.142000	24.098334	0.001045	20.845682
605.175253	-3.000900	3.731900	-11.197000	24.097611	0.001045	20.862026
606.164182	-3.015400	3.731000	-11.249000	24.060484	0.001046	20.842335
607.164873	-3.005700	3.731100	-11.213000	24.044737	0.001046	20.855940
608.166673	-2.981300	3.732400	-11.127000	24.024629	0.001045	20.866120
609.167022	-3.007300	3.731300	-11.218000	24.023288	0.001044	20.840120
610.168362	-3.004200	3.730200	-11.205000	24.025800	0.001043	20.856863
611.168233	-3.004500	3.730000	-11.205000	24.054475	0.001046	20.866180
612.167474	-3.000600	3.729300	-11.189000	24.059224	0.001046	20.849132
613.168025	-3.006400	3.729100	-11.210000	24.105260	0.001042	20.855473
614.168516	-3.007900	3.729400	-11.217000	24.112799	0.001043	20.843121
615.168662	-3.017100	3.729200	-11.250000	24.128996	0.001043	20.854624
616.171098	-3.004600	3.728100	-11.201000	24.141567	0.001044	20.836412
617.169770	-2.973800	3.728600	-11.087000	24.175481	0.001043	20.853357
618.170787	-2.997300	3.728200	-11.173000	24.146795	0.001044	20.852561
619.172620	-2.965800	3.728500	-11.057000	24.180585	0.001044	20.849943
620.168832	-2.995900	3.727300	-11.165000	24.144163	0.001043	20.836646
621.170437	-3.005900	3.726000	-11.198000	24.129159	0.001042	20.841985
622.170209	-3.019900	3.726200	-11.252000	24.110248	0.001044	20.836769
623.168828	-2.994300	3.727100	-11.159000	24.093857	0.001044	20.825546
624.169478	-3.007700	3.726300	-11.206000	24.094926	0.001043	20.833730
625.173321	-3.005200	3.725700	-11.195000	24.097494	0.001045	20.834409
626.170467	-3.013000	3.724000	-11.219000	24.098066	0.001044	20.838776
627.171751	-2.998300	3.724600	-11.166000	24.121309	0.001043	20.834112
628.170836	-3.013000	3.724800	-11.222000	24.139499	0.001043	20.832916
629.173971	-2.992800	3.725900	-11.149000	24.137435	0.001044	20.849812
630.171974	-3.006100	3.723800	-11.193000	24.199392	0.001042	20.814754
631.173226	-3.015000	3.722900	-11.224000	24.193723	0.001041	20.824714
632.171975	-2.997100	3.723700	-11.159000	24.217059	0.001042	20.841008
633.170738	-2.994700	3.724000	-11.150000	24.237189	0.001044	20.828483
634.171572	-2.979000	3.724500	-11.094000	24.245302	0.001041	20.819078
635.170980	-2.979700	3.724600	-11.097000	24.270581	0.001042	20.820727
636.170877	-3.016600	3.722000	-11.226000	24.217765	0.001043	20.818483
637.174513	-3.009300	3.722600	-11.202000	24.215529	0.001044	20.812921
638.171967	-3.009800	3.722500	-11.202000	24.205675	0.001042	20.815840
639.173666	-3.005200	3.722200	-11.184000	24.181245	0.001042	20.819311
640.175359	-3.017100	3.721100	-11.226000	24.186946	0.001041	20.825503
641.175534	-2.999600	3.721200	-11.162000	24.185179	0.001042	20.812825
642.173752	-2.996600	3.721100	-11.150000	24.151742	0.001043	20.826229
643.173735	-3.001000	3.720600	-11.164000	24.179834	0.001042	20.819793
644.175254	-3.024200	3.720300	-11.249000	24.157492	0.001041	20.821091
645.173714	-2.987200	3.720700	-11.113000	24.193618	0.001043	20.822238
646.176524	-3.009300	3.719700	-11.192000	24.202952	0.001041	20.808367
647.176724	-3.022500	3.719300	-11.241000	24.220069	0.001043	20.791871
648.176893	-2.981400	3.719900	-11.088000	24.227731	0.001041	20.799556
649.177846	-3.005500	3.717800	-11.173000	24.265205	0.001042	20.815808
650.177477	-3.006100	3.718600	-11.178000	24.250104	0.001041	20.817256
651.176606	-3.007800	3.716900	-11.179000	24.257843	0.001040	20.794199
652.178994	-2.996200	3.719300	-11.143000	24.269463	0.001040	20.812019
653.176940	-2.993800	3.718200	-11.130000	24.295634	0.001041	20.804606
654.177128	-2.982500	3.718400	-11.088000	24.239383	0.001040	20.807925
655.177693	-3.020300	3.715800	-11.222000	24.205425	0.001039	20.789037
656.178133	-2.978500	3.717800	-11.072000	24.181443	0.001040	20.788690
657.178804	-2.998800	3.716900	-11.145000	24.156984	0.001042	20.807780
658.179238	-3.001800	3.717900	-11.159000	24.138000	0.001040	20.792533
659.178933	-3.003900	3.715500	-11.160000	24.145092	0.001041	20.811973
660.178842	-3.005500	3.715900	-11.168000	24.151887	0.001041	20.790813
661.180486	-3.009100	3.716700	-11.183000	24.185998	0.001041	20.798474
662.178279	-3.013000	3.715100	-11.193000	24.149971	0.001041	20.775615
663.180451	-3.001600	3.713600	-11.146000	24.147283	0.001041	20.791411
664.180461	-2.999300	3.713300	-11.136000	24.184975	0.001041	20.804086
665.179042	-2.986100	3.714200	-11.090000	24.216023	0.001040	20.793976
666.180352	-2.996700	3.715200	-11.132000	24.219533	0.001039	20.785169
667.181271	-3.016400	3.711700	-11.194000	24.221847	0.001039	20.777059
668.183475	-2.985800	3.715100	-11.092000	24.179002	0.001041	20.790509
669.186510	-3.028600	3.712400	-11.242000	24.179570	0.001041	20.788708
670.183700	-2.988400	3.713700	-11.097000	24.185095	0.001040	20.777179
671.183502	-2.986300	3.713300	-11.088000	24.174148	0.001041	20.808873
672.183465	-2.995700	3.713000	-11.123000	24.183697	0.001039	20.787632
673.183329	-2.996300	3.712500	-11.122000	24.215296	0.001040	20.795618
674.183338	-3.016300	3.712100	-11.195000	24.218951	0.001040	20.790275
675.182878	-3.000700	3.711400	-11.136000	24.237933	0.001038	20.785608
676.183598	-3.000100	3.710500	-11.131000	24.252636	0.001039	20.785657
677.183829	-2.999100	3.710000	-11.125000	24.247581	0.001039	20.783432
678.184882	-2.985400	3.711000	-11.077000	24.258404	0.001037	20.787175
679.184081	-2.995800	3.710200	-11.115000	24.280144	0.001039	20.783378
680.185294	-3.004200	3.709900	-11.145000	24.298082	0.001038	20.785250
681.185418	-2.997500	3.709700	-11.120000	24.275019	0.001039	20.763064
682.185719	-2.993300	3.710600	-11.106000	24.273597	0.001038	20.755948
683.185743	-2.981200	3.710700	-11.061000	24.224563	0.001039	20.780257
684.184211	-2.999700	3.709600	-11.127000	24.230779	0.001038	20.766577
685.186599	-3.003000	3.708700	-11.137000	24.214858	0.001038	20.768626
686.185242	-3.009500	3.708400	-11.159000	24.220249	0.001036	20.758386
687.186614	-2.995500	3.707600	-11.105000	24.185539	0.001038	20.770986
688.187119	-3.003800	3.706900	-11.133000	24.193995	0.001036	20.777097
689.185569	-3.003800	3.707800	-11.136000	24.181079	0.001036	20.771729
690.186106	-2.994700	3.708400	-11.105000	24.185556	0.001036	20.779065
691.187790	-3.002800	3.707400	-11.132000	24.202447	0.001035	20.773247
692.190299	-2.994600	3.707800	-11.102000	24.221529	0.001036	20.774369
693.190191	-2.974400	3.707400	-11.027000	24.237023	0.001035	20.779479
694.188691	-2.978500	3.707600	-11.042000	24.224256	0.001035	20.789433
695.188698	-2.995200	3.706700	-11.101000	24.226616	0.001035	20.779946
696.189142	-3.014500	3.705500	-11.169000	24.233805	0.001035	20.773407
697.190217	-2.999100	3.705200	-11.111000	24.277065	0.001034	20.764642
698.191215	-3.002300	3.704900	-11.122000	24.277312	0.001032	20.782433
699.189304	-2.995900	3.704900	-11.098000	24.295270	0.001032	20.784326
700.189814	-3.002100	3.705100	-11.121000	24.317038	0.001035	20.771549
701.189935	-2.994500	3.703900	-11.091000	24.303256	0.001033	20.783329
702.190779	-2.991900	3.703900	-11.081000	24.323356	0.001032	20.756549
703.190341	-2.993000	3.704500	-11.086000	24.359176	0.001033	20.770197
704.191113	-2.992200	3.703100	-11.079000	24.320139	0.001031	20.762805
705.189459	-2.992400	3.704100	-11.082000	24.299863	0.001034	20.798417
706.193216	-2.999100	3.704300	-11.108000	24.289291	0.001031	20.788286
707.190037	-3.004000	3.703000	-11.123000	24.292547	0.001032	20.775431
708.192230	-3.006100	3.700900	-11.124000	24.292547	0.001030	20.774008
709.192701	-2.991300	3.702700	-11.075000	24.280405	0.001031	20.772260
710.195549	-2.983300	3.703100	-11.046000	24.248361	0.001029	20.773308
711.193630	-3.016200	3.700600	-11.161000	24.249726	0.001030	20.759978
712.193783	-3.009900	3.700700	-11.137000	24.279157	0.001028	20.766740
713.194270	-2.990200	3.701900	-11.068000	24.287016	0.001029	20.762770
714.194418	-3.010100	3.700100	-11.135000	24.276423	0.001029	20.759256
715.195333	-3.016000	3.699000	-11.155000	24.266838	0.001028	20.765764
716.196655	-3.018800	3.699900	-11.167000	24.251839	0.001028	20.753088
717.198377	-3.006200	3.698700	-11.118000	24.260644	0.001028	20.761447
718.197817	-3.017400	3.698800	-11.159000	24.292565	0.001027	20.749844
719.200717	-3.032500	3.698400	-11.214000	24.283263	0.001027	20.770859
720.197292	-3.010200	3.698800	-11.133000	24.306322	0.001028	20.760799
721.200520	-2.983400	3.699600	-11.037000	24.306174	0.001029	20.772030
722.198674	-2.983500	3.697100	-11.028000	24.327123	0.001027	20.775502
723.198254	-2.999900	3.697700	-11.092000	24.354439	0.001026	20.739840
724.200049	-2.996200	3.696600	-11.075000	24.323169	0.001027	20.754465
725.200834	-2.984200	3.697700	-11.033000	24.305655	0.001027	20.758233
726.200990	-2.984800	3.698300	-11.037000	24.309934	0.001025	20.783863
727.199997	-2.981100	3.698100	-11.024000	24.307595	0.001024	20.765396
728.203606	-2.999700	3.697000	-11.089000	24.313144	0.001025	20.751047
729.200706	-2.999200	3.696600	-11.086000	24.340238	0.001024	20.741241
730.203213	-3.005700	3.696700	-11.109000	24.352950	0.001025	20.778177
731.209641	-3.000100	3.696900	-11.089000	24.369966	0.001024	20.765848
732.201087	-3.021400	3.694700	-11.161000	24.347331	0.001024	20.748357
733.202491	-3.004900	3.695500	-11.103000	24.332280	0.001025	20.753173
734.205532	-3.006900	3.695900	-11.112000	24.314121	0.001025	20.771942
735.202223	-3.012200	3.693600	-11.124000	24.324693	0.001023	20.758838
736.200482	-2.999500	3.693600	-11.076000	24.296808	0.001026	20.738927
737.203369	-3.001900	3.694200	-11.090000	24.292155	0.001023	20.734733
738.202175	-2.992100	3.693600	-11.050000	24.320121	0.001023	20.753778
739.202324	-3.026900	3.694500	-11.181000	24.310096	0.001023	20.774543
740.202778	-2.990500	3.694600	-11.047000	24.335941	0.001023	20.740250
741.202852	-2.986300	3.694200	-11.030000	24.327388	0.001023	20.742575
742.203117	-3.007300	3.692100	-11.102000	24.315669	0.001023	20.738407
743.207649	-3.015500	3.692000	-11.132000	24.281615	0.001021	20.743601
744.203403	-2.985800	3.692200	-11.023000	24.277336	0.001022	20.735990
745.205399	-2.999600	3.690900	-11.070000	24.260792	0.001021	20.750689
746.205026	-3.001800	3.690700	-11.077000	24.248731	0.001022	20.760402
747.204707	-2.982800	3.691700	-11.011000	24.288413	0.001023	20.753265
748.205914	-3.008900	3.690500	-11.104000	24.277142	0.001023	20.749072
749.206205	-3.001200	3.690900	-11.076000	24.316798	0.001023	20.749971
750.207332	-2.983500	3.690600	-11.009000	24.353444	0.001020	20.746429
751.207847	-2.986400	3.690400	-11.020000	24.359119	0.001020	20.748329
752.206985	-2.993900	3.690100	-11.047000	24.390533	0.001022	20.749022
753.208201	-3.014900	3.689200	-11.121000	24.401358	0.001019	20.754192
754.208652	-2.988200	3.689300	-11.023000	24.400166	0.001020	20.729287
755.208148	-3.005000	3.687400	-11.080000	24.424217	0.001018	20.749150
756.208543	-3.003100	3.688200	-11.075000	24.414242	0.001021	20.749574
757.211649	-2.994300	3.688900	-11.044000	24.390660	0.001021	20.727812
758.209862	-2.982800	3.688300	-10.999000	24.388223	0.001019	20.750498
759.210701	-3.002700	3.687200	-11.070000	24.398571	0.001020	20.739068
760.212146	-2.992800	3.688300	-11.038000	24.398769	0.001019	20.739266
761.206474	-2.976800	3.688800	-10.979000	24.391753	0.001018	20.735073
762.205982	-2.986100	3.688500	-11.013000	24.399965	0.001018	20.705376
763.208075	-2.999200	3.685600	-11.053000	24.452557	0.001017	20.718785
764.207765	-2.978100	3.688100	-10.982000	24.448596	0.001017	20.735675
765.207438	-3.006300	3.686100	-11.081000	24.481753	0.001017	20.709195
766.207604	-2.995400	3.685600	-11.039000	24.505111	0.001016	20.742589
767.209021	-2.979300	3.685600	-10.980000	24.485809	0.001016	20.718954
768.208196	-2.984600	3.685100	-10.998000	24.494866	0.001016	20.735154
769.209329	-3.003200	3.683800	-11.061000	24.513417	0.001017	20.728636
770.209561	-2.991300	3.684500	-11.021000	24.473472	0.001015	20.722224
771.212174	-3.001600	3.684700	-11.059000	24.467927	0.001016	20.724248
772.210269	-3.003200	3.683700	-11.061000	24.460962	0.001015	20.725321
773.211643	-2.997900	3.685300	-11.046000	24.450070	0.001014	20.730515
774.212519	-2.999000	3.684000	-11.048000	24.492231	0.001017	20.743891
775.212053	-2.997300	3.684100	-11.041000	24.512778	0.001013	20.733686
776.210693	-3.033500	3.683000	-11.172000	24.512429	0.001013	20.738552
777.214334	-3.011100	3.682700	-11.088000	24.520040	0.001014	20.707305
778.213835	-2.978100	3.683300	-10.968000	24.528398	0.001014	20.729443
779.214219	-2.990200	3.682500	-11.011000	24.525937	0.001013	20.726973
780.215057	-2.990000	3.681900	-11.007000	24.511911	0.001015	20.711477
781.214100	-2.981300	3.682800	-10.979000	24.505414	0.001013	20.738626
782.214697	-2.981800	3.682800	-10.980000	24.505767	0.001013	20.713374
783.214618	-2.975800	3.682700	-10.957000	24.499401	0.001012	20.723583
784.219649	-2.981100	3.683000	-10.978000	24.522957	0.001014	20.742476
785.215970	-3.000800	3.680300	-11.042000	24.518379	0.001012	20.723183
786.216143	-3.015200	3.680300	-11.096000	24.500572	0.001011	20.738509
787.215330	-2.996700	3.680000	-11.025000	24.484306	0.001010	20.703696
788.215064	-2.990700	3.681200	-11.009000	24.457692	0.001011	20.710660
789.215941	-2.987800	3.678800	-10.990000	24.441496	0.001011	20.738509
790.216420	-3.002800	3.679700	-11.049000	24.462471	0.001011	20.713558
791.216182	-2.970900	3.680000	-10.931000	24.474583	0.001011	20.709588
792.218868	-2.995400	3.680800	-11.024000	24.471574	0.001013	20.705621
793.217864	-3.009500	3.679000	-11.071000	24.446254	0.001013	20.718151
794.218793	-3.002500	3.679200	-11.046000	24.450183	0.001013	20.729680
795.219093	-3.011100	3.677000	-11.070000	24.463117	0.001014	20.741708
796.218376	-3.016000	3.678000	-11.092000	24.459262	0.001010	20.729779
797.217443	-3.014900	3.678200	-11.088000	24.473937	0.001013	20.732649
798.221956	-2.986700	3.677600	-10.983000	24.474636	0.001011	20.711537
799.221163	-3.019700	3.676300	-11.100000	24.460009	0.001011	20.695440
800.220829	-3.022600	3.675500	-11.108000	24.445527	0.001010	20.708413
801.220993	-3.015300	3.676000	-11.084000	24.416225	0.001010	20.722164
802.220022	-2.972400	3.677400	-10.930000	24.418884	0.001009	20.730048
803.219986	-3.004800	3.676300	-11.044000	24.433610	0.001009	20.710207
804.220942	-3.010200	3.676700	-11.065000	24.440501	0.001006	20.706689
805.221299	-3.005200	3.675200	-11.044000	24.426217	0.001009	20.710851
806.220711	-2.996400	3.675700	-11.013000	24.450148	0.001008	20.721110
807.220608	-2.995000	3.674400	-11.003000	24.434301	0.001008	20.717065
808.221009	-3.005900	3.673600	-11.042000	24.435592	0.001006	20.714566
809.220816	-3.004600	3.675000	-11.040000	24.440367	0.001006	20.727419
810.220803	-3.001300	3.675500	-11.030000	24.465589	0.001006	20.701512
811.222152	-3.001400	3.674700	-11.028000	24.487205	0.001005	20.735055
812.221891	-2.996100	3.674300	-11.007000	24.488200	0.001008	20.701438
813.223064	-2.988100	3.673900	-10.977000	24.486733	0.001005	20.720830
814.222122	-2.989300	3.672700	-10.978000	24.527622	0.001004	20.729139
815.222588	-2.987200	3.673200	-10.971000	24.537744	0.001004	20.702783
816.222708	-2.973800	3.673800	-10.924000	24.517501	0.001005	20.712344
817.223358	-3.001500	3.671900	-11.020000	24.524364	0.001004	20.720653
818.223421	-3.006200	3.672000	-11.038000	24.509142	0.001002	20.728141
819.223700	-2.999900	3.671700	-11.013000	24.484892	0.001003	20.704283
820.223200	-2.973900	3.671700	-10.917000	24.433797	0.001004	20.713714
821.224311	-2.984900	3.671800	-10.959000	24.412257	0.001000	20.722925
822.229196	-2.992400	3.670600	-10.982000	24.414419	0.001000	20.708023
823.224725	-2.996900	3.670400	-10.999000	24.443524	0.000999	20.721102
824.227439	-3.025600	3.669300	-11.100000	24.464869	0.001001	20.704584
825.227356	-3.015500	3.669700	-11.065000	24.488521	0.001000	20.721676
826.225092	-2.990900	3.670800	-10.978000	24.475715	0.001000	20.717362
827.226362	-2.987700	3.669600	-10.963000	24.510835	0.001002	20.710872
828.226034	-2.992300	3.670200	-10.980000	24.517155	0.001003	20.725749
829.226449	-3.001900	3.668700	-11.011000	24.552722	0.000999	20.717337
830.227465	-2.985000	3.669200	-10.951000	24.566381	0.000999	20.719662
831.226834	-3.009600	3.667200	-11.036000	24.568341	0.001000	20.723526
832.227002	-3.007900	3.669300	-11.035000	24.536009	0.000999	20.706732
833.227819	-3.019800	3.666000	-11.070000	24.539966	0.000998	20.715444
834.225548	-3.015200	3.667300	-11.055000	24.511040	0.000998	20.739528
835.227251	-2.991100	3.668000	-10.970000	24.520516	0.000997	20.726750
836.227533	-2.988500	3.668000	-10.960000	24.504501	0.000997	20.710207
837.228753	-2.974500	3.667400	-10.908000	24.540343	0.000998	20.730048
838.228132	-2.995800	3.666100	-10.982000	24.584342	0.000996	20.726779
839.230456	-3.025800	3.665300	-11.089000	24.613146	0.000997	20.722964
840.229915	-2.962900	3.666900	-10.863000	24.607574	0.000997	20.710734
841.230516	-2.984800	3.666400	-10.941000	24.653414	0.000997	20.735869
842.228797	-3.003200	3.665200	-11.006000	24.681565	0.000998	20.739935
843.229140	-3.029400	3.664200	-11.098000	24.646277	0.000996	20.732501
844.230981	-3.000300	3.664500	-10.994000	24.637052	0.000994	20.728459
845.228877	-2.997600	3.664300	-10.984000	24.591716	0.000995	20.730859
846.229813	-2.984600	3.665000	-10.937000	24.590647	0.000996	20.730261
847.229916	-3.004500	3.663800	-11.007000	24.603657	0.000991	20.731460
848.230649	-2.995200	3.662200	-10.968000	24.621938	0.000993	20.730363
849.232010	-3.011500	3.663000	-11.030000	24.637038	0.000995	20.718962
850.230706	-2.995700	3.663300	-10.973000	24.614998	0.000993	20.726718
851.231260	-2.989600	3.663500	-10.951000	24.564085	0.000993	20.723523
852.231202	-3.015700	3.662800	-11.045000	24.574884	0.000994	20.726772
853.231108	-3.010100	3.662500	-11.024000	24.572768	0.000991	20.734132
854.229893	-3.013000	3.661700	-11.031000	24.587149	0.000992	20.709680
855.230657	-3.002300	3.662300	-10.994000	24.604531	0.000992	20.741821
856.230058	-2.968900	3.663000	-10.874000	24.641693	0.000991	20.716520
857.230841	-3.012800	3.660800	-11.027000	24.663877	0.000991	20.739730
858.229552	-2.994800	3.661500	-10.964000	24.680736	0.000990	20.728198
859.231610	-2.983100	3.660000	-10.917000	24.678698	0.000993	20.715720
860.231960	-2.981400	3.660000	-10.911000	24.670566	0.000991	20.738856
861.233278	-3.018700	3.659200	-11.045000	24.671437	0.000991	20.729772
862.233583	-2.996500	3.658600	-10.963000	24.674174	0.000989	20.742950
863.233514	-3.009700	3.659500	-11.013000	24.702503	0.000991	20.716849
864.232871	-2.988500	3.659100	-10.935000	24.707253	0.000990	20.736315
865.231582	-2.987800	3.658900	-10.931000	24.678384	0.000988	20.730579
866.233846	-2.979700	3.660100	-10.905000	24.705437	0.000988	20.727855
867.234057	-3.011500	3.657500	-11.013000	24.699147	0.000991	20.742880
868.233497	-2.992000	3.658500	-10.945000	24.676466	0.000988	20.749044
869.234293	-2.997200	3.657500	-10.961000	24.658711	0.000989	20.717950
870.234529	-2.974000	3.657700	-10.877000	24.625859	0.000987	20.723867
871.233644	-2.990400	3.656400	-10.933000	24.634841	0.000988	20.736673
872.235013	-3.017700	3.656800	-11.032000	24.633945	0.000987	20.745732
873.237182	-2.986600	3.657200	-10.921000	24.661825	0.000987	20.730558
874.235361	-2.995500	3.656700	-10.952000	24.641309	0.000987	20.735102
875.235437	-2.980800	3.656400	-10.898000	24.628776	0.000988	20.737225
876.236319	-3.002900	3.655900	-10.978000	24.616416	0.000986	20.742367
877.236466	-3.001200	3.655700	-10.970000	24.614180	0.000988	20.750081
878.235847	-2.999400	3.654800	-10.962000	24.618285	0.000985	20.752303
879.235770	-2.999800	3.654200	-10.961000	24.637384	0.000986	20.740173
880.236106	-3.015000	3.652600	-11.011000	24.635719	0.000985	20.742296
881.234097	-3.010000	3.654000	-10.997000	24.665489	0.000984	20.751305
882.236554	-2.975100	3.655100	-10.872000	24.648753	0.000984	20.754426
883.237239	-3.008800	3.653200	-10.990000	24.665940	0.000984	20.751284
884.241122	-2.988700	3.654600	-10.921000	24.691953	0.000984	20.745619
885.237329	-2.991100	3.653400	-10.927000	24.689665	0.000983	20.748064
886.237766	-2.988000	3.653300	-10.915000	24.741637	0.000983	20.761811
887.238146	-2.992700	3.651600	-10.927000	24.744126	0.000983	20.752930
888.239271	-3.004300	3.651600	-10.970000	24.726820	0.000982	20.745994
889.241639	-3.013400	3.651700	-11.003000	24.759693	0.000981	20.749586
890.238394	-2.996200	3.652500	-10.941000	24.796596	0.000981	20.751532
891.241307	-2.990700	3.652300	-10.922000	24.809849	0.000981	20.743970
892.243913	-2.982700	3.651700	-10.891000	24.804183	0.000982	20.743973
893.242150	-2.976500	3.653000	-10.872000	24.798683	0.000982	20.757894
894.242752	-2.969400	3.651700	-10.843000	24.816192	0.000982	20.750810
895.241988	-3.022600	3.650600	-11.033000	24.828603	0.000981	20.750463
896.239905	-2.975900	3.650300	-10.862000	24.847078	0.000980	20.754306
897.243275	-2.984900	3.650000	-10.893000	24.805527	0.000981	20.739157
898.242005	-3.005300	3.650100	-10.969000	24.789012	0.000981	20.752455
899.240184	-3.000200	3.650300	-10.951000	24.762676	0.000981	20.730293
900.241788	-2.999600	3.649900	-10.946000	24.736340	0.000982	20.764083
901.240960	-2.977500	3.649500	-10.865000	24.716675	0.000979	20.754780
902.240806	-3.001300	3.647700	-10.947000	24.732634	0.000980	20.759890
903.244249	-3.015100	3.648000	-10.998000	24.753075	0.000979	20.768075
904.241535	-2.982900	3.648100	-10.881000	24.748971	0.000979	20.777232
905.248717	-2.982900	3.648200	-10.880000	24.752955	0.000979	20.755626
906.242878	-2.998100	3.647300	-10.933000	24.763621	0.000978	20.765382
907.243517	-3.006700	3.647400	-10.966000	24.753227	0.000977	20.777236
908.243080	-3.002500	3.646400	-10.946000	24.741735	0.000976	20.763333
909.245938	-2.997500	3.646100	-10.928000	24.737557	0.000975	20.757243
910.245014	-3.015400	3.645800	-10.993000	24.760709	0.000976	20.757243
911.243084	-2.997000	3.645700	-10.925000	24.770804	0.000976	20.760736
912.246668	-3.004600	3.645900	-10.953000	24.769460	0.000977	20.768871
913.245727	-3.000800	3.644900	-10.936000	24.788557	0.000977	20.766224
914.245737	-2.998100	3.645200	-10.927000	24.766724	0.000974	20.766599
915.245766	-3.010800	3.644300	-10.971000	24.770507	0.000976	20.779405
916.245905	-3.000200	3.645600	-10.937000	24.793235	0.000974	20.769023
917.245538	-2.990000	3.646200	-10.902000	24.828021	0.000975	20.777855
918.248335	-3.017900	3.643600	-10.995000	24.832654	0.000973	20.756900
919.248075	-2.975100	3.645100	-10.843000	24.825691	0.000973	20.766981
920.249205	-2.972400	3.644500	-10.831000	24.852120	0.000972	20.763634
921.247530	-2.998000	3.644700	-10.926000	24.820568	0.000972	20.763262
922.247283	-2.981900	3.644200	-10.866000	24.790006	0.000971	20.773842
923.250567	-2.993400	3.644100	-10.908000	24.780334	0.000972	20.779310
924.259621	-2.958300	3.645000	-10.781000	24.792820	0.000970	20.768131
925.249830	-2.992600	3.642700	-10.900000	24.792569	0.000970	20.771199
926.249394	-2.994600	3.642100	-10.905000	24.789410	0.000970	20.784150
927.252055	-2.993600	3.642700	-10.904000	24.778526	0.000968	20.766115
928.249393	-2.997300	3.641500	-10.913000	24.799960	0.000969	20.767236
929.250668	-2.991100	3.642600	-10.895000	24.828631	0.000969	20.777993
930.253337	-2.996700	3.641400	-10.912000	24.851831	0.000968	20.769034
931.250737	-3.013600	3.640700	-10.970000	24.889848	0.000971	20.807663
932.250526	-2.992400	3.640200	-10.890000	24.929037	0.000969	20.783935
933.252813	-3.005900	3.641600	-10.944000	24.897710	0.000969	20.785683
934.253218	-3.006600	3.640300	-10.943000	24.896391	0.000970	20.772031
935.252761	-3.022600	3.639600	-11.000000	24.915087	0.000969	20.781787
936.252354	-3.016400	3.638700	-10.975000	24.913821	0.000969	20.790000
937.252629	-3.024100	3.639200	-11.004000	24.925558	0.000967	20.788503
938.253524	-2.995600	3.639400	-10.900000	24.918468	0.000967	20.779490
939.252655	-2.989000	3.639300	-10.876000	24.903079	0.000968	20.777321
940.254226	-2.987700	3.638200	-10.868000	24.891293	0.000967	20.771656
941.253906	-3.002000	3.638600	-10.922000	24.905191	0.000967	20.779915
942.255229	-2.981600	3.639300	-10.850000	24.889128	0.000965	20.792243
943.253576	-2.990400	3.636900	-10.874000	24.844148	0.000966	20.774600
944.256324	-3.009200	3.636200	-10.941000	24.828706	0.000968	20.793715
945.257059	-3.008600	3.637500	-10.943000	24.843027	0.000965	20.801450
946.256143	-3.012800	3.636200	-10.953000	24.843376	0.000965	20.793740
947.253947	-3.005700	3.637400	-10.931000	24.861329	0.000964	20.779515
948.257257	-3.003100	3.634500	-10.913000	24.859813	0.000964	20.800279
949.256309	-2.995300	3.636000	-10.890000	24.882789	0.000964	20.785881
950.257105	-2.983000	3.636500	-10.847000	24.897657	0.000963	20.793690
951.258114	-3.014100	3.634600	-10.954000	24.922596	0.000965	20.796910
952.258765	-2.995300	3.634300	-10.885000	24.964665	0.000963	20.797883
953.258706	-3.006400	3.635400	-10.928000	24.976376	0.000962	20.801577
954.262402	-3.006000	3.635100	-10.926000	24.972050	0.000963	20.801029
955.259259	-3.006900	3.634000	-10.925000	24.924535	0.000962	20.792218
956.257658	-3.011900	3.633800	-10.943000	24.925082	0.000963	20.788499
957.262187	-3.021600	3.632700	-10.975000	24.887461	0.000964	20.821863
958.260063	-3.024100	3.633300	-10.987000	24.888406	0.000962	20.795785
959.259198	-3.014500	3.633700	-10.952000	24.879031	0.000961	20.785902
960.261951	-3.001100	3.632500	-10.901000	24.879976	0.000960	20.797756
961.259804	-2.984200	3.632900	-10.840000	24.872466	0.000961	20.799228
962.259174	-2.982800	3.632400	-10.834000	24.838701	0.000960	20.800901
963.261678	-2.989200	3.632400	-10.856000	24.852702	0.000958	20.786029
964.260487	-2.999700	3.632300	-10.896000	24.845439	0.000958	20.796758
965.259677	-2.982500	3.631500	-10.829000	24.856009	0.000958	20.801202
966.263753	-3.018600	3.631100	-10.959000	24.883501	0.000958	20.815044
967.262569	-2.997700	3.631700	-10.886000	24.913620	0.000958	20.804971
968.262044	-3.016800	3.631700	-10.955000	24.914689	0.000957	20.817422
969.267376	-2.996600	3.631200	-10.879000	24.911879	0.000955	20.818870
970.261983	-2.999600	3.630900	-10.890000	24.925127	0.000954	20.788071
971.261812	-2.994400	3.631100	-10.871000	24.948727	0.000957	20.836887
972.268037	-3.003900	3.629800	-10.903000	24.958823	0.000956	20.815253
973.266044	-3.005500	3.629800	-10.907000	24.987988	0.000953	20.823664
974.269207	-2.996900	3.628900	-10.874000	25.020829	0.000954	20.803998
975.267121	-2.982100	3.630400	-10.824000	25.035719	0.000953	20.809461
976.267024	-2.995500	3.630600	-10.875000	25.045589	0.000953	20.813679
977.265520	-2.989100	3.628300	-10.845000	25.011801	0.000952	20.811057
978.265392	-3.020500	3.626300	-10.952000	25.029159	0.000954	20.826109
979.268316	-3.007900	3.628200	-10.911000	25.033184	0.000952	20.834417
980.263911	-3.010900	3.626200	-10.916000	25.068040	0.000954	20.806344
981.268450	-3.025900	3.625700	-10.970000	25.073483	0.000952	20.812281
982.269336	-2.996700	3.628200	-10.870000	25.057751	0.000953	20.824938
983.267284	-2.996300	3.626400	-10.865000	25.044250	0.000952	20.830352
984.272173	-3.027200	3.626800	-10.978000	25.071346	0.000952	20.822939
985.267839	-3.010900	3.625800	-10.916000	25.043626	0.000954	20.834941
986.270339	-2.987800	3.626600	-10.834000	25.011156	0.000952	20.825582
987.274255	-3.005400	3.625200	-10.895000	24.999769	0.000951	20.832170
988.270862	-3.021300	3.624200	-10.948000	25.005865	0.000950	20.834969
989.271762	-3.013900	3.623500	-10.920000	25.032388	0.000950	20.828402
990.275311	-3.019400	3.624600	-10.943000	25.026148	0.000949	20.851536
991.271858	-3.011800	3.622900	-10.910000	25.053369	0.000947	20.805841
992.271366	-2.979100	3.624500	-10.796000	25.046661	0.000950	20.844625
993.274909	-3.009200	3.623600	-10.902000	25.027364	0.000948	20.825730
994.272126	-3.008500	3.623900	-10.901000	25.027992	0.000948	20.836791
995.271920	-2.999300	3.624500	-10.870000	25.014491	0.000948	20.827981
996.275866	-3.005600	3.621700	-10.884000	24.998183	0.000945	20.839113
997.272202	-2.971000	3.623900	-10.765000	25.006883	0.000946	20.838362
998.273774	-2.986700	3.621500	-10.814000	25.015862	0.000947	20.836470
999.282773	-3.001400	3.621600	-10.868000	25.045371	0.000946	20.843330
1000.277324	-3.025300	3.620300	-10.951000	25.032219	0.000943	20.821120
1001.279063	-2.996200	3.621500	-10.850000	25.035775	0.000944	20.837492
1002.277309	-3.012300	3.620300	-10.903000	25.016408	0.000945	20.823742
1003.275249	-3.006800	3.619900	-10.883000	25.014071	0.000942	20.840836
1004.275823	-2.992600	3.619900	-10.832000	25.001342	0.000944	20.840386
1005.276549	-3.024500	3.619100	-10.945000	24.992046	0.000942	20.834375
1006.274378	-2.980100	3.619500	-10.784000	24.997764	0.000943	20.844855
1007.275050	-2.992800	3.619000	-10.830000	25.032518	0.000942	20.843231
1008.276356	-3.000900	3.618100	-10.856000	25.059422	0.000942	20.846055
1009.275483	-3.008500	3.618300	-10.885000	25.069916	0.000941	20.845684
1010.275772	-3.009700	3.617800	-10.886000	25.118214	0.000940	20.850545
1011.275300	-2.994400	3.619900	-10.839000	25.137903	0.000939	20.857983
1012.276957	-3.005900	3.617900	-10.874000	25.164903	0.000941	20.848104
1013.276156	-3.002000	3.616900	-10.857000	25.163486	0.000941	20.845259
1014.278176	-2.995300	3.617800	-10.835000	25.156225	0.000940	20.859306
1015.277138	-2.982800	3.617400	-10.789000	25.174000	0.000940	20.869563
1016.275541	-2.990400	3.616700	-10.815000	25.185067	0.000938	20.861709
1017.276626	-2.981100	3.616000	-10.779000	25.154660	0.000939	20.847778
1018.277495	-3.027100	3.614800	-10.941000	25.104996	0.000938	20.849130
1019.282905	-3.026300	3.615000	-10.939000	25.079736	0.000939	20.863601
1020.280338	-2.982500	3.616700	-10.786000	25.036280	0.000937	20.849852
1021.283914	-2.975900	3.616800	-10.762000	25.039787	0.000935	20.869493
1022.284182	-2.994300	3.616900	-10.829000	25.061339	0.000936	20.862204
1023.279894	-2.999800	3.615000	-10.843000	25.073127	0.000936	20.856967
1024.283062	-2.993900	3.614900	-10.822000	25.090579	0.000936	20.866899
1025.282883	-2.981700	3.614600	-10.776000	25.138707	0.000934	20.867324
1026.279575	-2.980000	3.614400	-10.769000	25.156507	0.000934	20.853900
1027.285891	-2.977800	3.613900	-10.760000	25.171547	0.000934	20.871368
1028.283771	-2.999200	3.613800	-10.837000	25.200879	0.000931	20.865254
1029.280653	-2.959300	3.613800	-10.693000	25.224768	0.000932	20.857944
1030.283587	-2.968800	3.614800	-10.731000	25.218858	0.000931	20.863864
1031.282532	-2.994200	3.611900	-10.814000	25.227429	0.000932	20.864408
1032.280499	-2.977700	3.614300	-10.760000	25.235955	0.000932	20.856847
1033.284799	-3.012600	3.611200	-10.878000	25.253979	0.000929	20.873994
1034.284188	-3.007200	3.612100	-10.861000	25.287484	0.000930	20.864486
1035.283828	-3.012000	3.611500	-10.878000	25.292010	0.000930	20.845323
1036.285278	-2.989800	3.611700	-10.798000	25.303270	0.000930	20.851412
1037.287252	-3.012400	3.611100	-10.877000	25.317166	0.000929	20.853985
1038.283485	-3.012200	3.609500	-10.871000	25.302797	0.000928	20.850938
1039.287081	-3.002800	3.609800	-10.837000	25.321564	0.000929	20.846547
1040.288353	-2.971400	3.610400	-10.725000	25.341003	0.000930	20.835720
1041.285297	-3.004600	3.608900	-10.842000	25.360738	0.000928	20.842733
1042.287141	-2.991700	3.610000	-10.800000	25.293606	0.000928	20.821323
1043.286622	-2.968600	3.609400	-10.713000	25.258508	0.000927	20.850567
1044.285338	-3.009100	3.609200	-10.860000	25.212352	0.000926	20.869660
1045.287232	-2.963200	3.610100	-10.696000	25.210286	0.000925	20.845776
1046.286675	-2.997100	3.607900	-10.812000	25.197513	0.000926	20.854289
1047.285748	-2.985600	3.609200	-10.774000	25.197883	0.000925	20.854187
1048.291605	-3.002300	3.608500	-10.833000	25.198831	0.000925	20.851820
1049.292377	-2.996900	3.607200	-10.810000	25.197686	0.000925	20.858256
1050.288796	-3.006600	3.606500	-10.843000	25.255431	0.000922	20.868814
1051.291355	-2.992200	3.608200	-10.794000	25.255456	0.000923	20.829486
1052.290596	-2.972100	3.606800	-10.718000	25.283767	0.000923	20.834677
1053.290532	-2.985900	3.606800	-10.767000	25.292887	0.000923	20.844782
1054.290802	-3.013900	3.605400	-10.865000	25.317621	0.000924	20.813666
1055.291705	-3.000000	3.605300	-10.815000	25.331262	0.000923	20.823570
1056.288287	-3.010000	3.604800	-10.849000	25.317321	0.000921	20.845606
1057.289283	-3.011100	3.604000	-10.850000	25.354007	0.000920	20.838820
1058.292279	-2.975400	3.605600	-10.726000	25.357239	0.000921	20.847280
1059.287879	-3.004700	3.604800	-10.830000	25.377294	0.000921	20.837546
1060.290561	-2.983900	3.605500	-10.756000	25.366186	0.000919	20.835402
1061.289795	-3.015500	3.603200	-10.864000	25.355025	0.000920	20.843161
1062.289465	-3.009100	3.602200	-10.838000	25.383757	0.000918	20.844510
1063.290567	-3.013500	3.602800	-10.856000	25.349507	0.000919	20.839517
1064.290950	-2.998300	3.603800	-10.804000	25.351096	0.000919	20.822621
1065.289137	-3.003700	3.604400	-10.825000	25.313169	0.000918	20.799714
1066.291722	-2.978000	3.603400	-10.730000	25.326413	0.000917	20.826761
1067.292158	-2.988700	3.603200	-10.768000	25.353880	0.000916	20.835848
1068.289289	-2.999600	3.602700	-10.805000	25.341972	0.000917	20.820098
1069.292880	-3.008900	3.600700	-10.833000	25.342321	0.000915	20.834199
1070.291769	-3.004800	3.600200	-10.817000	25.329102	0.000914	20.849849
1071.290498	-2.996700	3.601200	-10.790000	25.322463	0.000917	20.820898
1072.295633	-3.004200	3.601400	-10.819000	25.317913	0.000914	20.854261
1073.292329	-3.011400	3.601200	-10.843000	25.347343	0.000915	20.827862
1074.290110	-3.004500	3.600200	-10.816000	25.351018	0.000911	20.828233
1075.294283	-3.004300	3.599900	-10.814000	25.337976	0.000913	20.837896
1076.290274	-3.015900	3.598400	-10.851000	25.326318	0.000913	20.813390
1077.288998	-2.998700	3.599900	-10.794000	25.341052	0.000913	20.831502
1078.294485	-2.982500	3.598600	-10.731000	25.348887	0.000913	20.814239
1079.291025	-3.009800	3.598300	-10.829000	25.333426	0.000914	20.834277
1080.291022	-2.999100	3.598500	-10.791000	25.331907	0.000912	20.843657
1081.292964	-3.003600	3.598400	-10.807000	25.321719	0.000911	20.830583
1082.293229	-3.017600	3.595800	-10.850000	25.280683	0.000911	20.822572
1083.290436	-3.017100	3.595900	-10.848000	25.264799	0.000910	20.836021
1084.299138	-2.995500	3.598200	-10.778000	25.216775	0.000913	20.806773
1085.292593	-3.009500	3.597300	-10.824000	25.209867	0.000910	20.826390
1086.291916	-2.989500	3.597300	-10.754000	25.170663	0.000910	20.834920
1087.294246	-3.000600	3.597300	-10.793000	25.151897	0.000910	20.822246
1088.292752	-3.002000	3.595900	-10.794000	25.142472	0.000910	20.806620
1089.294678	-3.002900	3.596500	-10.799000	25.158633	0.000909	20.818103
1090.294334	-2.990600	3.595500	-10.752000	25.176433	0.000908	20.839290
1091.295447	-3.006200	3.594600	-10.805000	25.170737	0.000909	20.814133
1092.291753	-2.982900	3.596200	-10.726000	25.178667	0.000907	20.810714
1093.296721	-3.017900	3.594700	-10.847000	25.186569	0.000908	20.821492
1094.294201	-2.978900	3.596900	-10.712000	25.194447	0.000908	20.823711
1095.292421	-2.979900	3.593900	-10.708000	25.186439	0.000908	20.835585
1096.297129	-2.985100	3.594300	-10.728000	25.154047	0.000908	20.804016
1097.294206	-2.987900	3.592700	-10.733000	25.150617	0.000907	20.813849
1098.293253	-3.016100	3.593800	-10.837000	25.137611	0.000906	20.821655
1099.295089	-2.973200	3.592000	-10.679000	25.150638	0.000905	20.824776
1100.295520	-2.996200	3.590900	-10.758000	25.161974	0.000905	20.807706
1101.294132	-3.001200	3.592300	-10.780000	25.197516	0.000903	20.829637
1102.294489	-3.006500	3.592200	-10.799000	25.243722	0.000905	20.834301
1103.296654	-3.012400	3.589300	-10.812000	25.258334	0.000902	20.812462
1104.295119	-3.037000	3.590300	-10.903000	25.269246	0.000901	20.813934
1105.298101	-3.017600	3.589400	-10.830000	25.284478	0.000903	20.819269
1106.296825	-2.997000	3.590200	-10.759000	25.318381	0.000902	20.811584
1107.294244	-3.003600	3.590500	-10.784000	25.346813	0.000902	20.817847
1108.297151	-2.991900	3.589400	-10.738000	25.319223	0.000902	20.811007
1109.297074	-2.970300	3.590100	-10.663000	25.317059	0.000899	20.813576
1110.300487	-3.016500	3.589100	-10.825000	25.333284	0.000900	20.804263
1111.295688	-2.998900	3.587900	-10.759000	25.323487	0.000901	20.802012
1112.297840	-3.025400	3.587800	-10.853000	25.285161	0.000899	20.801464
1113.296939	-3.019400	3.588200	-10.833000	25.284016	0.000899	20.817383
1114.298083	-2.999500	3.588600	-10.764000	25.279215	0.000902	20.808771
1115.297437	-3.008900	3.586400	-10.790000	25.301337	0.000898	20.828136
1116.295704	-3.007600	3.587700	-10.789000	25.313041	0.000898	20.815706
1117.298062	-2.980900	3.587700	-10.694000	25.321763	0.000898	20.825886
1118.298561	-3.015900	3.586300	-10.814000	25.312463	0.000897	20.807539
1119.295166	-3.000700	3.586900	-10.762000	25.329488	0.000898	20.796184
1120.296691	-3.000000	3.585800	-10.757000	25.343951	0.000897	20.815447
1121.298676	-3.015300	3.586100	-10.812000	25.350460	0.000895	20.798750
1122.297078	-3.008600	3.584600	-10.784000	25.372105	0.000897	20.821431
1123.302881	-3.008500	3.585000	-10.784000	25.331116	0.000895	20.821526
1124.298772	-3.002200	3.585500	-10.763000	25.315258	0.000893	20.806078
1125.297994	-3.001800	3.584900	-10.759000	25.268772	0.000893	20.805872
1126.302705	-3.039100	3.581800	-10.884000	25.265516	0.000894	20.816353
1127.298761	-2.994300	3.583400	-10.729000	25.257600	0.000893	20.802716
1128.297236	-2.979800	3.585100	-10.682000	25.262827	0.000891	20.804170
1129.299930	-2.994900	3.585000	-10.734000	25.265534	0.000891	20.802146
1130.305490	-3.006500	3.582100	-10.769000	25.254344	0.000890	20.813197
1131.299538	-3.013300	3.581400	-10.790000	25.259813	0.000892	20.826749
1132.303703	-2.996000	3.582200	-10.731000	25.309418	0.000891	20.825344
1133.302862	-3.005700	3.581600	-10.764000	25.306161	0.000889	20.828713
1134.298902	-3.017700	3.581400	-10.806000	25.303272	0.000891	20.811587
1135.302051	-3.003900	3.580700	-10.755000	25.312516	0.000889	20.786729
1136.303836	-2.995800	3.581800	-10.729000	25.310154	0.000890	20.803325
1137.300037	-2.994800	3.580600	-10.722000	25.322528	0.000887	20.801998
1138.302847	-3.005200	3.579800	-10.757000	25.305101	0.000888	20.813423
1139.300905	-3.013800	3.578800	-10.785000	25.330774	0.000887	20.808381
1140.300805	-2.996400	3.580200	-10.727000	25.328184	0.000889	20.819056
1141.303926	-3.011700	3.579800	-10.780000	25.318168	0.000885	20.815638
1142.300577	-2.967800	3.580300	-10.624000	25.309760	0.000883	20.824265
1143.302197	-3.004300	3.577800	-10.748000	25.322880	0.000884	20.815628
1144.301601	-3.027800	3.577500	-10.831000	25.312586	0.000883	20.787748
1145.304309	-3.010900	3.579400	-10.776000	25.339426	0.000883	20.792886
1146.302125	-3.002300	3.578200	-10.743000	25.336167	0.000881	20.825175
1147.304021	-2.999000	3.579400	-10.732000	25.335243	0.000881	20.821403
1148.300821	-3.002100	3.578900	-10.743000	25.353459	0.000883	20.801761
1149.301084	-3.000800	3.577100	-10.733000	25.335761	0.000880	20.801060
1150.312519	-2.995300	3.577200	-10.713000	25.342567	0.000880	20.816902
1151.303692	-3.012800	3.575700	-10.772000	25.378875	0.000881	20.803099
1152.301710	-3.001600	3.576600	-10.734000	25.380165	0.000880	20.810084
1153.301007	-3.011600	3.575000	-10.765000	25.370791	0.000879	20.805887
1154.301939	-3.002700	3.575700	-10.735000	25.407821	0.000879	20.804663
1155.305140	-2.995100	3.574500	-10.705000	25.389997	0.000878	20.813792
1156.307094	-2.990200	3.575100	-10.689000	25.371404	0.000878	20.814564
1157.305065	-2.989700	3.574300	-10.685000	25.380426	0.000877	20.792802
1158.303187	-3.002100	3.574400	-10.730000	25.396477	0.000878	20.809868
1159.306539	-2.987900	3.574200	-10.678000	25.398289	0.000877	20.806946
1160.304416	-3.037700	3.572600	-10.851000	25.397196	0.000876	20.790676
1161.305838	-3.000100	3.574200	-10.722000	25.422047	0.000876	20.807568
1162.305399	-2.997100	3.573400	-10.709000	25.428925	0.000876	20.797406
1163.301953	-3.003300	3.572500	-10.729000	25.418907	0.000874	20.796829
1164.304029	-2.990300	3.574200	-10.686000	25.402877	0.000874	20.815820
1165.304337	-2.998200	3.573000	-10.711000	25.415997	0.000875	20.787269
1166.302681	-3.005400	3.571900	-10.734000	25.428845	0.000874	20.805860
1167.302772	-3.018400	3.570100	-10.774000	25.459977	0.000872	20.803457
1168.306234	-3.008800	3.570700	-10.742000	25.468406	0.000873	20.799119
1169.304647	-3.028100	3.570000	-10.809000	25.422675	0.000871	20.801087
1170.305118	-2.997300	3.571100	-10.702000	25.424313	0.000873	20.798465
1171.309393	-2.985900	3.570800	-10.659000	25.403361	0.000872	20.796391
1172.309398	-3.022900	3.569800	-10.789000	25.407262	0.000871	20.815481
1173.305643	-3.002400	3.569700	-10.716000	25.370500	0.000870	20.818871
1174.309485	-3.025800	3.568600	-10.797000	25.310202	0.000870	20.801950
1175.309479	-3.011800	3.568600	-10.747000	25.288825	0.000869	20.811306
1176.306694	-3.023100	3.568400	-10.786000	25.251467	0.000868	20.793239
1177.314266	-2.987000	3.568600	-10.658000	25.214107	0.000869	20.789870
1178.314894	-3.012100	3.567800	-10.745000	25.199812	0.000868	20.797803
1179.308927	-3.027800	3.566100	-10.795000	25.194638	0.000868	20.802092
1180.313076	-3.013700	3.565900	-10.745000	25.221284	0.000868	20.780479
1181.313881	-3.009500	3.565800	-10.730000	25.213103	0.000867	20.794078
1182.309200	-2.994500	3.567800	-10.682000	25.232640	0.000868	20.788087
1183.312913	-3.012200	3.566100	-10.741000	25.248419	0.000866	20.783541
1184.313382	-2.999400	3.566300	-10.696000	25.246156	0.000866	20.797864
1185.308356	-2.997100	3.566400	-10.688000	25.269343	0.000866	20.796962
1186.313547	-3.010300	3.565000	-10.730000	25.244285	0.000865	20.800727
1187.320428	-3.002800	3.565500	-10.704000	25.257805	0.000865	20.779688
1188.310990	-3.006500	3.565700	-10.719000	25.289168	0.000865	20.805487
1189.313319	-3.013600	3.562700	-10.735000	25.288051	0.000864	20.787770
1190.313915	-2.992800	3.564300	-10.666000	25.310863	0.000862	20.780803
1191.311938	-3.001600	3.562600	-10.692000	25.307502	0.000864	20.801135
1192.314657	-3.034900	3.562300	-10.810000	25.293084	0.000864	20.779547
1193.317237	-2.980900	3.565000	-10.627000	25.271230	0.000860	20.766140
1194.311615	-2.998700	3.563100	-10.683000	25.230436	0.000861	20.788245
1195.313219	-2.994200	3.562200	-10.665000	25.243610	0.000859	20.773497
1196.319178	-2.983400	3.564000	-10.632000	25.244100	0.000860	20.790585
1197.314053	-2.983500	3.563100	-10.628000	25.281727	0.000858	20.770989
1198.316116	-3.007100	3.560900	-10.707000	25.284356	0.000858	20.774103
1199.319148	-2.998600	3.561700	-10.679000	25.288332	0.000857	20.769560
1200.312389	-2.999500	3.560400	-10.679000	25.271349	0.000858	20.776216
1201.317591	-3.013200	3.560600	-10.727000	25.278704	0.000856	20.776489
1202.315265	-2.999600	3.560900	-10.681000	25.315935	0.000855	20.793481
1203.315361	-2.996800	3.560200	-10.667000	25.337154	0.000853	20.780647
1204.321281	-3.015900	3.558900	-10.731000	25.354401	0.000852	20.808870
1205.322442	-3.012700	3.558400	-10.719000	25.396351	0.000852	20.775128
1206.314593	-3.004900	3.559400	-10.694000	25.394508	0.000853	20.788925
1207.317639	-2.982900	3.558300	-10.613000	25.383447	0.000850	20.782085
1208.319223	-3.012900	3.558200	-10.720000	25.392912	0.000851	20.781632
1209.316836	-3.007700	3.558400	-10.702000	25.386449	0.000851	20.781307
1210.321286	-3.006400	3.556000	-10.689000	25.353490	0.000850	20.771920
1211.322084	-3.000300	3.557500	-10.673000	25.360446	0.000848	20.782698
1212.317937	-3.001800	3.557300	-10.676000	25.388829	0.000849	20.781799
1213.322042	-3.007500	3.556800	-10.696000	25.384928	0.000849	20.792107
1214.321202	-2.983100	3.557800	-10.612000	25.418204	0.000846	20.771941
1215.319394	-2.998400	3.556000	-10.661000	25.403538	0.000848	20.770016
1216.324000	-2.974400	3.556100	-10.575000	25.384795	0.000847	20.785809
1217.320817	-3.008300	3.555400	-10.694000	25.357804	0.000846	20.786209
1218.318022	-2.979400	3.555400	-10.591000	25.374208	0.000844	20.764748
1219.320410	-3.034400	3.554700	-10.785000	25.384424	0.000845	20.780696
1220.321828	-3.006000	3.556000	-10.688000	25.411013	0.000844	20.754762
1221.319089	-3.017400	3.553400	-10.719000	25.378282	0.000843	20.765994
1222.323445	-2.991600	3.555200	-10.635000	25.372239	0.000842	20.760400
1223.320653	-2.997200	3.554100	-10.651000	25.383427	0.000843	20.764996
1224.316819	-2.995300	3.552700	-10.641000	25.372341	0.000841	20.774727
1225.321515	-2.993400	3.552900	-10.634000	25.364838	0.000842	20.762926
1226.319502	-2.989000	3.553000	-10.619000	25.372171	0.000841	20.777402
1227.318182	-3.007400	3.551800	-10.680000	25.413800	0.000841	20.789330
1228.318820	-2.973300	3.553800	-10.564000	25.437381	0.000843	20.782664
1229.319115	-3.005400	3.551700	-10.673000	25.452769	0.000838	20.772985
1230.318443	-2.980000	3.553200	-10.588000	25.466537	0.000840	20.786810
1231.322903	-2.988300	3.553100	-10.617000	25.475934	0.000840	20.762582
1232.319381	-2.989100	3.552700	-10.618000	25.460818	0.000838	20.754989
1233.322425	-3.012300	3.550400	-10.694000	25.498718	0.000838	20.765073
1234.325264	-3.004500	3.549100	-10.662000	25.520789	0.000837	20.762108
1235.324154	-3.022900	3.548400	-10.724000	25.505631	0.000838	20.769645
1236.321083	-2.995000	3.549200	-10.627000	25.530951	0.000839	20.753346
1237.321994	-2.981700	3.550200	-10.584000	25.548970	0.000836	20.743466
1238.322601	-3.002600	3.548700	-10.654000	25.528643	0.000838	20.761934
1239.321698	-2.991100	3.549100	-10.614000	25.530408	0.000837	20.765604
1240.328676	-3.008500	3.547800	-10.673000	25.533167	0.000835	20.745140
1241.322609	-3.005900	3.547900	-10.663000	25.506501	0.000835	20.751552
1242.321067	-3.017400	3.548200	-10.705000	25.469425	0.000836	20.759365
1243.326537	-3.019500	3.547400	-10.710000	25.447480	0.000835	20.753449
1244.325547	-2.993800	3.547900	-10.620000	25.410279	0.000832	20.760664
1245.324993	-3.011000	3.545800	-10.675000	25.394964	0.000832	20.750501
1246.331354	-3.007300	3.546800	-10.666000	25.380002	0.000834	20.742589
1247.326218	-3.009800	3.546900	-10.674000	25.417429	0.000834	20.746032
1248.324062	-3.000400	3.546400	-10.639000	25.422204	0.000832	20.739921
1249.328615	-3.003400	3.546800	-10.652000	25.437786	0.000830	20.747982
1250.326419	-3.015500	3.544600	-10.688000	25.451825	0.000830	20.763976
1251.324873	-2.989000	3.546400	-10.599000	25.423244	0.000829	20.740017
1252.328553	-2.990500	3.544900	-10.599000	25.465296	0.000829	20.748106
1253.323345	-3.008200	3.544500	-10.662000	25.482992	0.000830	20.745961
1254.324379	-3.008400	3.545000	-10.664000	25.512710	0.000828	20.747356
1255.326436	-3.002400	3.544100	-10.640000	25.514574	0.000827	20.746857
1256.323237	-3.008900	3.543200	-10.660000	25.527551	0.000828	20.741870
1257.324137	-3.003700	3.543400	-10.642000	25.533812	0.000826	20.735830
1258.323897	-3.000500	3.542100	-10.627000	25.523474	0.000826	20.749630
1259.324622	-3.003700	3.542900	-10.640000	25.545788	0.000826	20.762557
1260.325548	-3.012200	3.542800	-10.669000	25.550386	0.000825	20.736354
1261.326962	-2.998900	3.542100	-10.622000	25.541091	0.000824	20.737451
1262.326838	-2.987600	3.543000	-10.583000	25.564029	0.000824	20.762383
1263.326837	-2.990900	3.540700	-10.587000	25.538611	0.000823	20.766729
1264.330499	-2.994800	3.541000	-10.603000	25.536225	0.000823	20.762436
1265.328459	-2.994600	3.540400	-10.602000	25.458639	0.000823	20.770345
1266.329019	-3.000900	3.540700	-10.624000	25.462892	0.000823	20.769874
1267.332218	-2.982900	3.540200	-10.560000	25.476014	0.000822	20.739902
1268.328631	-3.019900	3.539000	-10.685000	25.503844	0.000821	20.742245
1269.330068	-3.007300	3.539300	-10.643000	25.511377	0.000820	20.741749
1270.333081	-3.001200	3.539200	-10.621000	25.470796	0.000820	20.761215
1271.328897	-2.989100	3.539400	-10.579000	25.449276	0.000820	20.761417
1272.327842	-3.008000	3.537300	-10.640000	25.454171	0.000819	20.761116
1273.330017	-3.015000	3.538000	-10.666000	25.462923	0.000818	20.757103
1274.328876	-3.003400	3.538400	-10.626000	25.484915	0.000817	20.752634
1275.331173	-3.002400	3.536800	-10.618000	25.498607	0.000817	20.764014
1276.332238	-2.992500	3.535700	-10.580000	25.541006	0.000817	20.749219
1277.329865	-2.967700	3.537700	-10.498000	25.557206	0.000815	20.761222
1278.329996	-2.976500	3.538800	-10.532000	25.562030	0.000816	20.743306
1279.338931	-2.986400	3.536100	-10.559000	25.578406	0.000814	20.761175
1280.332638	-3.000300	3.534500	-10.603000	25.589589	0.000814	20.736844
1281.332273	-2.987000	3.535000	-10.559000	25.592669	0.000813	20.760800
1282.333743	-3.001300	3.534100	-10.606000	25.634520	0.000812	20.742615
1283.330682	-3.002300	3.534500	-10.610000	25.665182	0.000813	20.754444
1284.331121	-2.993300	3.534900	-10.580000	25.642543	0.000812	20.766320
1285.339546	-3.020400	3.533400	-10.670000	25.636409	0.000811	20.745460
1286.333030	-3.013600	3.533600	-10.648000	25.615611	0.000811	20.751599
1287.332175	-2.991200	3.532800	-10.566000	25.635070	0.000809	20.756918
1288.331645	-3.017500	3.532400	-10.658000	25.619938	0.000807	20.736978
1289.333740	-3.010400	3.531700	-10.630000	25.597727	0.000807	20.739327
1290.333446	-2.973600	3.533800	-10.507000	25.545395	0.000809	20.757894
1291.333967	-3.008000	3.532000	-10.624000	25.524497	0.000811	20.747338
1292.332882	-2.984600	3.532400	-10.541000	25.505114	0.000808	20.747314
1293.332911	-3.009000	3.531200	-10.624000	25.483073	0.000807	20.745569
1294.333285	-3.015900	3.529400	-10.642000	25.452287	0.000806	20.747844
1295.333730	-3.001900	3.530600	-10.598000	25.473809	0.000808	20.757603
1296.336076	-3.002000	3.530700	-10.598000	25.478059	0.000806	20.756181
1297.331767	-2.979100	3.531500	-10.518000	25.493841	0.000805	20.753063
1298.334512	-3.008900	3.529200	-10.617000	25.501276	0.000805	20.760055
1299.334281	-3.011000	3.528200	-10.622000	25.549361	0.000804	20.752394
1300.337350	-3.015100	3.528100	-10.636000	25.576272	0.000805	20.750971
1301.334047	-2.989800	3.530100	-10.553000	25.560695	0.000803	20.752397
1302.333785	-2.994400	3.529200	-10.565000	25.557045	0.000801	20.738299
1303.335802	-3.005700	3.529200	-10.606000	25.583160	0.000804	20.750302
1304.333823	-2.985600	3.528800	-10.534000	25.578939	0.000801	20.755072
1305.335791	-2.997500	3.527400	-10.572000	25.568580	0.000803	20.754626
1306.338008	-3.040400	3.525900	-10.719000	25.532599	0.000801	20.750259
1307.336712	-3.001500	3.525600	-10.581000	25.526514	0.000800	20.751261
1308.337432	-2.997300	3.526000	-10.567000	25.526440	0.000800	20.752609
1309.340248	-3.018500	3.526000	-10.643000	25.532503	0.000801	20.758224
1310.336027	-3.007600	3.525500	-10.602000	25.561804	0.000799	20.749717
1311.336580	-3.022000	3.523600	-10.647000	25.563319	0.000800	20.749342
1312.335767	-2.994900	3.525900	-10.558000	25.595096	0.000799	20.758497
1313.335286	-2.976400	3.525200	-10.491000	25.569207	0.000801	20.750514
1314.336202	-2.992500	3.524300	-10.544000	25.520700	0.000802	20.764863
1315.335828	-3.016000	3.522200	-10.620000	25.487726	0.000798	20.746448
1316.340002	-3.010500	3.523200	-10.606000	25.455343	0.000799	20.772251
1317.338185	-3.011000	3.523100	-10.607000	25.471443	0.000799	20.759021
1318.339298	-2.989400	3.522600	-10.530000	25.496095	0.000799	20.765758
1319.340403	-3.008500	3.521900	-10.595000	25.497483	0.000795	20.754824
1320.339363	-3.043500	3.520800	-10.714000	25.537518	0.000797	20.763734
1321.338981	-2.997000	3.522600	-10.556000	25.556699	0.000795	20.771618
1322.339791	-3.013100	3.520900	-10.608000	25.557320	0.000795	20.754697
1323.338298	-2.982700	3.521200	-10.501000	25.562066	0.000793	20.751403
1324.340076	-3.005700	3.521000	-10.582000	25.564077	0.000794	20.777132
1325.341562	-3.027000	3.519300	-10.653000	25.528417	0.000792	20.769768
1326.340629	-3.021100	3.520100	-10.634000	25.502893	0.000792	20.778749
1327.338897	-2.992600	3.520600	-10.534000	25.533311	0.000792	20.770890
1328.342535	-3.015500	3.518200	-10.609000	25.536042	0.000791	20.760356
1329.340435	-3.002700	3.518800	-10.566000	25.546627	0.000791	20.757235
1330.341621	-3.002500	3.517900	-10.561000	25.541831	0.000790	20.762376
1331.341720	-2.991200	3.518400	-10.523000	25.510296	0.000790	20.766743
1332.342701	-2.980000	3.519100	-10.485000	25.544636	0.000789	20.768987
1333.342814	-3.005200	3.516200	-10.565000	25.541606	0.000788	20.768788
1334.342450	-3.014700	3.516100	-10.599000	25.556862	0.000788	20.779369
1335.343810	-2.988200	3.517400	-10.510000	25.542874	0.000786	20.780019
1336.343872	-2.969000	3.517400	-10.442000	25.504331	0.000786	20.770236
1337.345456	-3.021900	3.515900	-10.623000	25.520729	0.000785	20.753512
1338.345994	-3.020700	3.516600	-10.622000	25.526346	0.000783	20.762946
1339.351194	-3.027100	3.514800	-10.638000	25.559920	0.000784	20.784336
1340.347575	-3.017900	3.515500	-10.609000	25.542427	0.000783	20.772932
1341.351504	-3.002800	3.516600	-10.558000	25.558976	0.000783	20.790501
1342.348083	-2.997200	3.515800	-10.536000	25.588223	0.000785	20.769613
1343.347975	-2.991000	3.514900	-10.512000	25.596003	0.000784	20.775055
1344.352738	-3.030300	3.515500	-10.651000	25.560769	0.000782	20.784241
1345.354243	-3.003100	3.513100	-10.549000	25.567327	0.000781	20.767118
1346.355134	-2.991600	3.516000	-10.516000	25.572819	0.000782	20.793972
1347.352315	-2.990800	3.512900	-10.505000	25.541982	0.000781	20.780547
1348.353259	-2.997600	3.513900	-10.532000	25.577865	0.000780	20.780072
1349.352177	-3.002800	3.512100	-10.545000	25.587758	0.000781	20.777680
1350.354033	-3.003100	3.513300	-10.550000	25.585869	0.000780	20.813716
1351.353406	-3.019500	3.510700	-10.599000	25.579932	0.000780	20.784046
1352.353939	-2.995500	3.511300	-10.518000	25.593923	0.000778	20.792881
1353.354273	-3.007700	3.510400	-10.557000	25.601872	0.000778	20.789010
1354.355386	-2.998900	3.511700	-10.530000	25.599561	0.000778	20.781473
1355.354353	-2.990100	3.510400	-10.496000	25.626598	0.000778	20.801515
1356.357174	-3.002700	3.509600	-10.538000	25.602918	0.000777	20.789587
1357.354716	-2.999400	3.510200	-10.527000	25.625805	0.000777	20.772743
1358.356339	-3.000100	3.508900	-10.526000	25.659197	0.000776	20.796798
1359.357309	-3.001400	3.509400	-10.532000	25.677785	0.000777	20.772793
1360.356385	-3.009400	3.508500	-10.557000	25.691774	0.000776	20.775465
1361.356287	-2.994400	3.506900	-10.500000	25.703132	0.000775	20.783553
1362.359327	-2.997500	3.508100	-10.514000	25.701617	0.000775	20.787248
1363.360047	-2.981200	3.508300	-10.458000	25.710833	0.000772	20.775641
1364.357464	-3.011400	3.507300	-10.561000	25.731305	0.000775	20.782453
1365.358191	-2.993200	3.506700	-10.496000	25.701892	0.000771	20.806490
1366.356517	-3.000500	3.505300	-10.517000	25.653338	0.000771	20.803716
1367.358165	-2.996800	3.504800	-10.502000	25.610380	0.000770	20.796607
1368.356922	-3.002100	3.505500	-10.523000	25.607572	0.000770	20.801847
1369.359702	-2.998100	3.506500	-10.512000	25.587021	0.000771	20.786423
1370.358225	-3.015700	3.504100	-10.566000	25.607949	0.000770	20.780889
1371.357060	-3.008800	3.502600	-10.537000	25.655032	0.000769	20.789296
1372.359629	-2.995800	3.504600	-10.498000	25.684552	0.000770	20.787651
1373.359105	-3.008700	3.502700	-10.537000	25.676304	0.000771	20.797385
1374.358563	-2.976400	3.505200	-10.431000	25.729698	0.000769	20.789374
1375.359075	-2.993200	3.503500	-10.486000	25.743764	0.000768	20.815356
1376.359483	-2.973800	3.503700	-10.418000	25.760360	0.000767	20.808318
1377.359581	-3.003700	3.502700	-10.520000	25.732481	0.000766	20.799756
1378.360791	-2.974500	3.503000	-10.418000	25.691689	0.000766	20.793871
1379.360259	-3.012600	3.501700	-10.548000	25.652206	0.000765	20.794993
1380.360538	-3.016600	3.501500	-10.562000	25.646819	0.000764	20.814712
1381.363086	-3.015900	3.500000	-10.555000	25.672908	0.000767	20.797292
1382.371711	-3.022000	3.501700	-10.581000	25.681655	0.000764	20.780948
1383.360709	-3.008300	3.500700	-10.530000	25.681405	0.000764	20.813414
1384.363773	-3.010000	3.498900	-10.530000	25.688391	0.000763	20.791981
1385.362879	-2.983300	3.500100	-10.441000	25.686228	0.000764	20.793127
1386.366486	-3.003100	3.499900	-10.510000	25.698379	0.000765	20.795374
1387.365873	-3.003500	3.498700	-10.507000	25.703994	0.000765	20.800066
1388.365990	-3.015800	3.499300	-10.552000	25.726727	0.000762	20.809150
1389.369885	-3.011700	3.497700	-10.533000	25.748914	0.000762	20.802037
1390.371890	-2.991000	3.498100	-10.462000	25.742929	0.000763	20.818784
1391.366171	-3.009100	3.497700	-10.524000	25.719449	0.000761	20.824598
1392.369971	-2.996400	3.497600	-10.480000	25.721933	0.000762	20.804808
1393.367168	-3.015000	3.495800	-10.539000	25.754677	0.000762	20.819206
1394.369289	-2.986500	3.497100	-10.443000	25.750601	0.000762	20.817008
1395.369972	-3.008700	3.497100	-10.521000	25.773503	0.000763	20.819149
1396.370216	-2.993800	3.495300	-10.463000	25.783959	0.000758	20.791720
1397.369078	-3.018700	3.493200	-10.544000	25.765852	0.000759	20.806248
1398.371581	-2.984600	3.496000	-10.433000	25.767360	0.000761	20.821514
1399.369762	-3.006100	3.495500	-10.506000	25.744952	0.000758	20.826980
1400.370585	-2.966700	3.495100	-10.367000	25.713073	0.000760	20.800651
1401.368968	-2.998400	3.493100	-10.472000	25.738290	0.000763	20.821238
1402.370806	-2.982600	3.492600	-10.416000	25.706905	0.000756	20.816267
1403.370577	-3.006500	3.492400	-10.498000	25.691820	0.000758	20.839995
1404.368944	-2.979600	3.494100	-10.409000	25.707050	0.000758	20.819257
1405.374111	-3.001900	3.493900	-10.487000	25.687044	0.000756	20.823344
1406.370769	-3.011600	3.492600	-10.518000	25.653103	0.000756	20.817704
1407.371747	-3.003000	3.490900	-10.483000	25.645451	0.000754	20.829458
1408.370049	-3.005300	3.491000	-10.489000	25.653544	0.000756	20.815302
1409.374146	-2.999400	3.491700	-10.472000	25.625863	0.000756	20.819268
1410.370470	-3.008400	3.490800	-10.501000	25.625063	0.000754	20.825578
1411.372200	-3.020200	3.489300	-10.537000	25.623323	0.000752	20.833787
1412.375564	-2.994200	3.489500	-10.447000	25.623813	0.000752	20.820529
1413.372073	-3.012500	3.488500	-10.508000	25.649430	0.000752	20.820179
1414.373071	-2.989600	3.489900	-10.432000	25.665351	0.000754	20.825738
1415.375299	-2.992300	3.488700	-10.439000	25.677699	0.000752	20.843356
1416.376815	-3.008700	3.487300	-10.491000	25.693451	0.000751	20.815555
1417.373327	-2.977800	3.489100	-10.389000	25.742912	0.000750	20.834415
1418.380671	-3.042600	3.486000	-10.604000	25.761893	0.000750	20.840678
1419.379257	-2.989700	3.487300	-10.425000	25.765515	0.000748	20.834359
1420.371786	-3.015000	3.485600	-10.508000	25.752372	0.000750	20.839649
1421.378192	-2.977700	3.486200	-10.379000	25.773462	0.000747	20.846135
1422.377540	-2.993600	3.487100	-10.438000	25.751449	0.000747	20.862429
1423.374765	-3.000200	3.485900	-10.456000	25.749258	0.000749	20.845056
1424.377470	-2.989500	3.486000	-10.421000	25.749033	0.000744	20.847200
1425.380959	-2.995100	3.484600	-10.437000	25.750449	0.000745	20.837718
1426.375555	-2.984700	3.483800	-10.397000	25.771043	0.000742	20.851765
1427.379856	-3.004100	3.483900	-10.465000	25.770265	0.000744	20.850510
1428.379013	-3.016700	3.483900	-10.509000	25.749125	0.000743	20.838284
1429.379134	-3.000100	3.484100	-10.452000	25.720897	0.000744	20.859716
1430.382994	-3.016800	3.483700	-10.509000	25.704498	0.000741	20.852254
1431.384570	-3.004500	3.482000	-10.460000	25.707951	0.000740	20.866153
1432.379196	-2.995900	3.483300	-10.435000	25.674356	0.000739	20.865127
1433.381765	-3.006900	3.481600	-10.468000	25.637857	0.000740	20.840323
1434.385193	-3.002700	3.482700	-10.455000	25.651199	0.000741	20.856568
1435.392290	-3.035000	3.480700	-10.562000	25.689238	0.000740	20.826022
1436.382524	-3.012500	3.479900	-10.483000	25.701360	0.000738	20.847680
1437.383766	-2.995500	3.479900	-10.422000	25.729761	0.000737	20.856766
1438.380350	-3.004900	3.479500	-10.454000	25.756915	0.000738	20.873608
1439.378924	-3.021500	3.478900	-10.511000	25.747548	0.000737	20.863252
1440.380125	-3.023600	3.477700	-10.515000	25.744219	0.000737	20.865598
1441.382056	-3.019500	3.478500	-10.502000	25.738752	0.000737	20.886657
1442.380060	-2.994900	3.478400	-10.417000	25.713060	0.000736	20.861327
1443.380778	-2.984900	3.479800	-10.386000	25.722279	0.000736	20.855889
1444.384393	-3.012700	3.476400	-10.472000	25.748637	0.000738	20.849648
1445.380854	-3.003000	3.477700	-10.442000	25.769957	0.000737	20.880543
1446.380475	-3.018400	3.477100	-10.494000	25.765409	0.000734	20.863649
1447.385258	-2.990200	3.477800	-10.397000	25.769111	0.000733	20.866893
1448.381274	-2.998800	3.474800	-10.420000	25.790846	0.000736	20.853165
1449.381534	-3.006300	3.476500	-10.450000	25.816287	0.000736	20.860701
1450.381036	-2.979800	3.477100	-10.360000	25.840733	0.000735	20.878145
1451.381358	-3.016300	3.476500	-10.484000	25.832758	0.000734	20.868238
1452.381495	-3.008600	3.476100	-10.457000	25.834097	0.000735	20.866264
1453.381648	-2.984800	3.476300	-10.375000	25.818918	0.000734	20.878991
1454.383869	-3.011400	3.475200	-10.465000	25.773255	0.000734	20.880537
1455.381919	-2.974500	3.475600	-10.337000	25.739316	0.000734	20.876794
1456.381985	-3.002400	3.473500	-10.428000	25.695211	0.000732	20.855253
1457.382361	-3.009700	3.474800	-10.456000	25.684303	0.000730	20.880332
1458.383059	-3.012000	3.474300	-10.463000	25.697296	0.000731	20.886744
1459.385208	-3.004200	3.473600	-10.434000	25.702687	0.000728	20.883149
1460.387238	-3.016500	3.472200	-10.472000	25.736475	0.000728	20.868250
1461.384950	-2.996600	3.472600	-10.405000	25.746536	0.000730	20.880726
1462.386941	-2.999100	3.471600	-10.411000	25.755030	0.000727	20.883567
1463.391497	-2.990000	3.471000	-10.378000	25.753687	0.000728	20.877004
1464.386151	-2.978300	3.471900	-10.339000	25.728416	0.000726	20.876750
1465.388057	-3.029800	3.469700	-10.511000	25.749260	0.000728	20.886781
1466.388354	-3.016300	3.468300	-10.460000	25.781779	0.000726	20.894788
1467.387985	-3.005400	3.470100	-10.428000	25.771644	0.000726	20.890298
1468.386929	-2.993700	3.469600	-10.386000	25.765205	0.000726	20.868659
1469.390685	-3.014300	3.467900	-10.452000	25.725947	0.000725	20.878064
1470.388497	-3.015700	3.468100	-10.457000	25.689573	0.000725	20.905538
1471.390266	-2.998300	3.466900	-10.393000	25.643583	0.000723	20.890642
1472.388344	-2.988100	3.466400	-10.357000	25.662714	0.000725	20.897053
1473.389169	-2.994100	3.467100	-10.380000	25.666888	0.000724	20.869006
1474.387802	-3.009300	3.468100	-10.436000	25.700156	0.000723	20.919485
1475.389290	-3.015200	3.465900	-10.449000	25.712004	0.000722	20.897722
1476.390450	-3.006700	3.465200	-10.417000	25.727187	0.000721	20.911075
1477.390281	-3.003600	3.464500	-10.404000	25.719656	0.000719	20.881702
1478.391451	-3.011700	3.464200	-10.432000	25.717323	0.000719	20.904961
1479.395052	-3.025300	3.463700	-10.477000	25.708450	0.000719	20.896049
1480.394626	-3.014600	3.465200	-10.444000	25.738884	0.000720	20.920452
1481.393060	-3.002200	3.464300	-10.399000	25.755307	0.000718	20.909448
1482.393994	-3.027600	3.463100	-10.483000	25.787656	0.000719	20.910647
1483.393195	-2.998600	3.463600	-10.385000	25.792947	0.000716	20.900790
1484.394818	-3.000300	3.463500	-10.389000	25.808200	0.000717	20.901413
1485.396945	-2.994100	3.462400	-10.365000	25.829863	0.000715	20.903260
1486.395473	-2.979700	3.462500	-10.316000	25.830684	0.000716	20.896973
1487.395527	-3.004600	3.461800	-10.400000	25.838335	0.000714	20.892805
1488.398485	-2.977000	3.462500	-10.307000	25.845764	0.000715	20.910697
1489.397266	-3.000200	3.461000	-10.382000	25.867602	0.000714	20.874791
1490.395722	-3.003600	3.460200	-10.392000	25.846063	0.000715	20.886344
1491.398677	-3.010000	3.459900	-10.413000	25.828602	0.000714	20.879235
1492.396395	-2.977400	3.460600	-10.303000	25.844301	0.000713	20.904487
1493.397902	-2.998300	3.459900	-10.373000	25.843731	0.000713	20.891587
1494.401147	-3.025600	3.458400	-10.463000	25.814888	0.000713	20.884900
1495.402477	-2.977900	3.461300	-10.306000	25.812729	0.000710	20.898376
1496.398178	-2.999400	3.460000	-10.376000	25.829324	0.000711	20.894184
1497.399613	-3.009600	3.459000	-10.408000	25.847609	0.000713	20.888370
1498.398074	-3.020700	3.458000	-10.445000	25.874664	0.000711	20.883781
1499.398718	-3.001700	3.457900	-10.378000	25.855216	0.000711	20.876099
1500.397175	-3.010700	3.456800	-10.405000	25.852335	0.000710	20.879843
1501.397645	-2.993200	3.457600	-10.348000	25.819865	0.000708	20.871882
1502.400788	-3.008700	3.456200	-10.398000	25.824088	0.000709	20.876598
1503.399745	-3.029000	3.456000	-10.467000	25.825779	0.000709	20.870236
1504.405616	-2.993800	3.455700	-10.344000	25.840337	0.000707	20.889127
1505.402676	-3.017100	3.455100	-10.424000	25.827621	0.000706	20.877302
1506.401489	-2.993500	3.455800	-10.344000	25.840340	0.000706	20.864001
1507.413784	-3.011500	3.454600	-10.403000	25.841309	0.000705	20.871138
1508.406772	-2.987400	3.453400	-10.315000	25.819328	0.000706	20.877506
1509.407201	-2.982300	3.454100	-10.300000	25.801789	0.000705	20.873639
1510.408043	-3.003000	3.452200	-10.366000	25.829339	0.000708	20.864330
1511.412936	-2.983300	3.452800	-10.300000	25.795628	0.000705	20.877881
1512.403717	-2.997700	3.453600	-10.351000	25.764248	0.000705	20.869121
1513.407454	-2.984800	3.452600	-10.305000	25.788227	0.000704	20.868551
1514.409154	-3.016800	3.451700	-10.412000	25.803431	0.000704	20.864857
1515.404483	-3.016600	3.452200	-10.413000	25.827257	0.000703	20.866979
1516.407372	-3.005900	3.450800	-10.373000	25.857441	0.000704	20.859843
1517.407916	-2.997500	3.451400	-10.345000	25.870928	0.000704	20.860115
1518.405705	-2.986600	3.452400	-10.309000	25.895398	0.000704	20.869524
1519.408434	-3.016300	3.449400	-10.403000	25.909187	0.000704	20.861566
1520.406121	-3.001700	3.449000	-10.352000	25.915274	0.000702	20.848715
1521.406153	-3.037000	3.447100	-10.468000	25.944258	0.000701	20.861237
1522.409335	-3.026100	3.448800	-10.434000	25.962841	0.000699	20.863785
1523.406244	-3.006100	3.447200	-10.361000	25.971684	0.000700	20.859868
1524.408208	-3.011900	3.447300	-10.382000	25.968430	0.000702	20.844271
1525.410766	-2.970300	3.450100	-10.246000	25.940760	0.000701	20.861990
1526.413945	-3.004400	3.448300	-10.359000	25.910431	0.000699	20.871349
1527.410378	-2.998600	3.447200	-10.335000	25.889663	0.000699	20.868978
1528.410182	-2.999800	3.446700	-10.338000	25.917760	0.000700	20.865436
1529.411166	-2.970400	3.447700	-10.241000	25.928144	0.000699	20.853583
1530.414075	-2.988200	3.445400	-10.294000	25.924170	0.000699	20.852437
1531.412378	-2.979400	3.445100	-10.264000	25.895552	0.000699	20.823688
1532.411951	-3.011800	3.444300	-10.373000	25.866739	0.000699	20.846425
1533.410132	-2.989800	3.445900	-10.302000	25.849472	0.000699	20.847097
1534.408900	-2.996700	3.444500	-10.321000	25.884922	0.000695	20.834819
1535.412610	-2.998000	3.444400	-10.324000	25.874661	0.000698	20.827357
1536.410591	-2.977000	3.445100	-10.255000	25.877493	0.000696	20.856753
1537.412487	-3.000700	3.444800	-10.336000	25.907201	0.000696	20.842976
1538.415284	-2.986100	3.442700	-10.279000	25.880523	0.000698	20.839883
1539.415411	-3.000500	3.443000	-10.330000	25.846563	0.000694	20.830899
1540.412090	-2.988900	3.442400	-10.289000	25.795878	0.000697	20.847788
1541.413721	-2.995400	3.442700	-10.311000	25.783827	0.000697	20.844218
1542.415202	-2.970100	3.443100	-10.225000	25.732621	0.000695	20.841147
1543.415058	-2.991000	3.442200	-10.294000	25.734809	0.000695	20.843818
1544.413283	-2.987900	3.441500	-10.281000	25.721612	0.000694	20.823926
1545.415589	-2.998000	3.441200	-10.314000	25.753410	0.000693	20.844010
1546.417516	-2.975400	3.442200	-10.240000	25.744564	0.000692	20.829436
1547.417414	-2.994600	3.440900	-10.302000	25.726598	0.000692	20.823244
1548.414622	-2.991500	3.439500	-10.288000	25.724013	0.000690	20.823018
1549.415606	-2.990100	3.439700	-10.284000	25.735462	0.000689	20.847794
1550.420214	-2.984000	3.440900	-10.266000	25.763168	0.000690	20.822519
1551.415421	-2.976800	3.439500	-10.237000	25.784481	0.000689	20.852461
1552.416212	-2.976400	3.438400	-10.232000	25.746218	0.000690	20.834416
1553.415125	-2.976600	3.438800	-10.235000	25.728304	0.000687	20.837285
1554.413923	-2.984600	3.437900	-10.260000	25.714315	0.000687	20.838407
1555.418704	-2.996700	3.438000	-10.301000	25.752752	0.000686	20.848566
1556.414413	-3.028000	3.436300	-10.403000	25.750195	0.000687	20.835091
1557.416013	-2.975600	3.438600	-10.231000	25.779406	0.000685	20.820811
1558.416288	-2.986200	3.435700	-10.259000	25.739362	0.000686	20.832271
1559.416073	-2.992000	3.436000	-10.280000	25.707034	0.000684	20.828723
1560.415939	-2.987500	3.436200	-10.265000	25.725891	0.000683	20.822534
1561.415483	-3.008600	3.434500	-10.332000	25.712325	0.000685	20.822658
1562.421164	-2.988100	3.434800	-10.263000	25.703751	0.000684	20.832538
1563.419255	-3.000100	3.433700	-10.300000	25.677536	0.000684	20.823278
1564.415849	-2.975000	3.435000	-10.219000	25.693269	0.000681	20.828175
1565.418861	-2.974600	3.434300	-10.215000	25.715580	0.000683	20.787048
1566.417169	-2.982400	3.434000	-10.240000	25.740177	0.000681	20.843995
1567.418848	-3.009500	3.433300	-10.331000	25.778039	0.000683	20.814223
1568.415793	-2.986600	3.433000	-10.252000	25.808993	0.000680	20.814021
1569.430995	-2.968300	3.433000	-10.190000	25.833365	0.000679	20.827598
1570.417503	-2.991000	3.432500	-10.263000	25.860149	0.000680	20.837908
1571.419477	-3.002500	3.431000	-10.299000	25.897511	0.000679	20.838931
1572.417623	-2.997700	3.430400	-10.282000	25.912886	0.000677	20.830195
1573.418219	-2.981300	3.430700	-10.227000	25.930821	0.000678	20.827824
1574.418497	-2.982400	3.431600	-10.233000	25.920116	0.000676	20.836037
1575.422678	-2.995000	3.430300	-10.273000	25.933230	0.000677	20.815072
1576.419681	-3.019300	3.429100	-10.352000	25.927471	0.000676	20.812131
1577.420720	-3.002500	3.428800	-10.293000	25.923223	0.000677	20.814028
1578.421936	-2.989000	3.428100	-10.245000	25.879353	0.000674	20.814527
1579.420652	-3.015500	3.428100	-10.336000	25.870709	0.000673	20.834292
1580.420235	-3.011200	3.428100	-10.322000	25.878039	0.000672	20.817948
1581.422255	-3.004500	3.427100	-10.296000	25.889863	0.000674	20.819869
1582.421233	-3.004000	3.427000	-10.293000	25.893935	0.000673	20.805942
1583.422161	-3.031600	3.427100	-10.389000	25.891255	0.000673	20.809888
1584.420544	-2.993800	3.426600	-10.258000	25.895154	0.000672	20.813805
1585.421510	-3.004800	3.427100	-10.296000	25.897792	0.000674	20.808868
1586.423734	-3.017000	3.426000	-10.335000	25.886982	0.000669	20.825984
1587.426090	-2.998100	3.425300	-10.269000	25.907207	0.000670	20.804576
1588.423727	-2.994400	3.425600	-10.256000	25.894660	0.000671	20.798136
1589.421696	-3.023300	3.423500	-10.349000	25.889817	0.000673	20.796115
1590.423259	-2.980300	3.424800	-10.206000	25.846942	0.000670	20.818478
1591.424206	-2.994100	3.424300	-10.251000	25.809949	0.000669	20.796490
1592.425323	-2.976500	3.424900	-10.193000	25.825902	0.000668	20.820576
1593.426397	-2.997200	3.422400	-10.257000	25.833923	0.000667	20.820573
1594.426667	-3.013900	3.422500	-10.315000	25.805285	0.000668	20.794650
1595.425504	-3.023400	3.423500	-10.349000	25.829901	0.000668	20.806101
1596.425057	-2.997100	3.420400	-10.250000	25.844511	0.000668	20.803708
1597.426540	-3.004200	3.422500	-10.281000	25.847044	0.000666	20.818106
1598.425246	-3.003400	3.421800	-10.275000	25.837980	0.000665	20.799518
1599.426753	-2.995000	3.421800	-10.248000	25.818029	0.000667	20.813616
1600.428261	-3.017700	3.421700	-10.324000	25.830379	0.000664	20.832185
1601.430743	-3.002400	3.419100	-10.265000	25.856435	0.000666	20.802884
1602.429413	-2.994800	3.420300	-10.242000	25.886371	0.000666	20.784119
1603.428467	-3.001300	3.418400	-10.259000	25.941741	0.000663	20.813665
1604.428715	-3.018600	3.417800	-10.316000	25.947235	0.000666	20.796900
1605.428649	-2.999600	3.418800	-10.254000	25.956252	0.000662	20.793630
1606.429027	-3.017800	3.418600	-10.316000	25.944776	0.000665	20.813870
1607.427192	-2.996500	3.418900	-10.243000	25.938416	0.000662	20.815066
1608.428247	-3.019300	3.417800	-10.318000	25.908037	0.000660	20.803039
1609.430519	-3.002400	3.417300	-10.259000	25.922992	0.000660	20.776337
1610.434191	-3.006300	3.416200	-10.269000	25.927662	0.000661	20.801418
1611.429031	-3.002000	3.416300	-10.255000	25.890101	0.000661	20.767477
1612.429581	-3.008600	3.417300	-10.280000	25.891693	0.000660	20.793258
1613.428526	-2.996900	3.415600	-10.235000	25.871721	0.000660	20.798799
1614.433634	-3.046100	3.415400	-10.402000	25.874902	0.000659	20.809107
1615.431369	-3.009700	3.415800	-10.279000	25.832171	0.000659	20.783726
1616.428033	-3.018900	3.413800	-10.305000	25.831227	0.000658	20.765707
1617.433493	-2.972300	3.414800	-10.147000	25.831351	0.000658	20.794755
1618.433295	-3.010400	3.414200	-10.277000	25.822682	0.000656	20.807384
1619.431049	-2.988500	3.414600	-10.204000	25.835377	0.000656	20.809231
1620.430113	-2.993000	3.413200	-10.213000	25.838955	0.000655	20.786273
1621.430914	-2.997100	3.414200	-10.232000	25.864617	0.000655	20.776015
1622.431095	-3.015100	3.411000	-10.283000	25.825612	0.000654	20.782827
1623.433695	-3.018600	3.412400	-10.299000	25.825094	0.000654	20.774246
1624.435174	-3.009400	3.410800	-10.263000	25.767880	0.000655	20.802596
1625.436756	-3.016800	3.411600	-10.291000	25.810860	0.000653	20.793138
1626.431352	-2.997900	3.412400	-10.229000	25.813618	0.000654	20.792589
1627.431001	-2.993400	3.410700	-10.207000	25.840896	0.000652	20.778265
1628.430622	-3.049200	3.410400	-10.398000	25.853887	0.000653	20.787522
1629.435985	-2.999200	3.410000	-10.226000	25.885310	0.000654	20.790166
1630.430614	-3.025800	3.408500	-10.312000	25.873066	0.000652	20.775969
1631.431929	-2.987900	3.409900	-10.187000	25.890484	0.000650	20.758852
1632.432806	-2.999400	3.408800	-10.224000	25.922403	0.000651	20.780013
1633.432624	-2.977200	3.408900	-10.148000	25.951048	0.000650	20.770384
1634.433227	-3.002500	3.407100	-10.229000	25.943345	0.000648	20.783035
1635.436860	-3.003200	3.408600	-10.235000	25.932095	0.000650	20.792121
1636.433398	-2.997100	3.406700	-10.210000	25.882886	0.000649	20.771134
1637.435871	-3.015000	3.406300	-10.268000	25.840554	0.000649	20.786456
1638.435951	-2.999500	3.408200	-10.221000	25.814892	0.000648	20.774429
1639.436369	-2.989100	3.407200	-10.183000	25.823984	0.000647	20.775975
1640.436746	-2.990000	3.406500	-10.184000	25.855784	0.000648	20.785161
1641.437864	-2.997900	3.406900	-10.213000	25.876426	0.000647	20.777447
1642.437200	-2.990900	3.405500	-10.184000	25.895185	0.000646	20.779697
1643.437042	-2.988500	3.406000	-10.178000	25.862241	0.000645	20.779793
1644.439137	-3.034600	3.404000	-10.329000	25.826291	0.000645	20.780190
1645.439973	-3.002400	3.404600	-10.221000	25.783615	0.000645	20.748225
1646.436818	-3.003700	3.403800	-10.223000	25.808361	0.000644	20.770713
1647.437108	-2.996900	3.404000	-10.201000	25.799146	0.000643	20.778526
1648.439972	-3.022000	3.403200	-10.283000	25.784787	0.000643	20.770267
1649.440430	-2.977600	3.404400	-10.135000	25.805507	0.000643	20.773536
1650.438857	-2.999300	3.402500	-10.204000	25.784963	0.000642	20.766650
1651.442178	-3.039600	3.401000	-10.337000	25.835667	0.000642	20.760210
1652.438797	-2.990300	3.403500	-10.176000	25.841483	0.000641	20.775535
1653.439786	-3.008300	3.403000	-10.236000	25.868961	0.000641	20.737704
1654.439633	-2.977900	3.401700	-10.128000	25.904980	0.000641	20.751604
1655.443513	-2.982000	3.401500	-10.142000	25.920013	0.000639	20.772396
1656.445494	-3.019600	3.400200	-10.265000	25.934496	0.000640	20.755651
1657.439844	-2.968700	3.400800	-10.095000	25.930248	0.000640	20.755177
1658.443161	-2.996100	3.400000	-10.185000	25.947541	0.000638	20.753110
1659.440617	-2.983900	3.398400	-10.140000	25.977996	0.000638	20.771854
1660.446550	-2.979600	3.401200	-10.132000	25.967021	0.000636	20.750396
1661.440797	-2.994900	3.399200	-10.179000	25.998839	0.000639	20.773354
1662.443891	-2.980700	3.400000	-10.134000	26.013698	0.000635	20.765997
1663.439841	-2.984800	3.399000	-10.145000	26.015110	0.000637	20.768839
1664.440925	-3.010900	3.397500	-10.228000	26.033026	0.000636	20.747957
1665.445285	-2.972900	3.399400	-10.105000	26.053195	0.000636	20.757316
1666.444175	-2.994000	3.397900	-10.173000	26.009629	0.000635	20.763332
1667.443426	-3.000700	3.396400	-10.191000	25.974043	0.000634	20.743699
1668.445885	-2.991100	3.396500	-10.158000	25.952551	0.000635	20.735858
1669.445226	-3.010600	3.396600	-10.224000	25.970538	0.000635	20.761990
1670.444118	-3.030700	3.394900	-10.288000	26.005561	0.000634	20.737906
1671.443889	-2.997000	3.395800	-10.175000	26.028587	0.000635	20.759145
1672.444017	-2.995100	3.396500	-10.172000	26.029189	0.000632	20.747895
1673.443463	-3.015600	3.394800	-10.235000	26.018979	0.000631	20.759923
1674.443954	-2.984500	3.395700	-10.133000	26.058374	0.000630	20.749718
1675.444742	-2.998000	3.395100	-10.177000	26.060882	0.000630	20.741806
1676.446318	-3.016100	3.393200	-10.232000	26.072260	0.000631	20.752290
1677.445482	-3.007100	3.393500	-10.204000	26.091041	0.000630	20.759307
1678.446057	-3.016600	3.392100	-10.232000	26.103782	0.000631	20.747927
1679.445326	-3.032000	3.391500	-10.282000	26.128348	0.000630	20.739420
1680.450766	-3.012200	3.392700	-10.219000	26.124101	0.000627	20.738471
1681.447242	-3.000700	3.392600	-10.179000	26.105849	0.000629	20.750478
1682.447285	-3.003200	3.391800	-10.186000	26.117797	0.000628	20.772915
1683.446674	-3.020000	3.390900	-10.239000	26.138638	0.000627	20.751656
1684.448032	-3.007000	3.390500	-10.194000	26.124231	0.000627	20.732912
1685.446957	-3.017300	3.391000	-10.230000	26.124484	0.000627	20.745495
1686.445469	-3.009400	3.390800	-10.203000	26.082384	0.000628	20.737805
1687.450014	-2.989300	3.390000	-10.133000	26.042324	0.000625	20.745445
1688.446657	-3.000400	3.389300	-10.167000	26.008447	0.000626	20.743651
1689.446455	-2.985600	3.390500	-10.122000	25.996102	0.000625	20.752586
1690.449020	-3.014100	3.389700	-10.215000	25.965975	0.000624	20.720893
1691.448112	-2.993500	3.389600	-10.145000	25.957458	0.000626	20.725140
1692.449380	-3.010000	3.387500	-10.195000	25.969134	0.000625	20.728335
1693.447005	-3.014800	3.387900	-10.213000	25.956493	0.000623	20.729386
1694.450380	-3.005200	3.387500	-10.179000	25.938459	0.000623	20.735925
1695.447665	-3.010100	3.387900	-10.197000	25.957838	0.000626	20.745437
1696.447567	-3.011300	3.386300	-10.196000	25.963209	0.000623	20.729495
1697.447626	-3.023700	3.384600	-10.233000	25.956228	0.000621	20.743819
1698.449446	-3.009000	3.386500	-10.189000	25.945450	0.000622	20.729671
1699.447723	-3.007600	3.386000	-10.183000	25.935711	0.000620	20.734113
1700.451771	-3.000000	3.386500	-10.158000	25.923067	0.000619	20.735634
1701.452393	-2.976400	3.385700	-10.076000	25.885805	0.000621	20.722382
1702.450548	-2.975900	3.385500	-10.073000	25.895029	0.000619	20.717898
1703.449087	-2.989400	3.385800	-10.119000	25.925680	0.000618	20.714076
1704.451721	-2.996100	3.385100	-10.141000	25.927173	0.000617	20.715102
1705.450624	-2.975400	3.383900	-10.067000	25.899474	0.000617	20.730425
1706.449851	-2.988200	3.384700	-10.113000	25.863828	0.000616	20.732548
1707.453063	-2.998400	3.384100	-10.146000	25.840080	0.000614	20.750418
1708.450574	-3.009700	3.385100	-10.186000	25.858263	0.000615	20.728379
1709.451962	-2.996800	3.383100	-10.137000	25.902239	0.000614	20.743634
1710.451125	-3.010500	3.382200	-10.182000	25.917691	0.000614	20.745407
1711.450280	-3.006100	3.382000	-10.165000	25.943674	0.000615	20.741638
1712.452613	-3.014400	3.381200	-10.191000	25.953413	0.000613	20.718230
1713.452398	-3.007100	3.381600	-10.168000	25.973932	0.000614	20.737898
1714.455858	-2.995400	3.381000	-10.126000	25.996910	0.000613	20.749129
1715.452813	-2.989400	3.381800	-10.109000	25.999417	0.000611	20.711344
1716.454016	-3.011100	3.380500	-10.178000	26.010152	0.000612	20.745364
1717.457258	-2.995100	3.379900	-10.123000	26.052875	0.000612	20.733287
1718.455143	-3.028000	3.379000	-10.230000	26.008042	0.000609	20.738977
1719.455295	-2.970300	3.380200	-10.040000	25.971579	0.000609	20.741698
1720.463514	-3.000900	3.378300	-10.137000	25.957544	0.000610	20.740399
1721.456289	-3.020200	3.377900	-10.201000	25.942642	0.000611	20.723530
1722.455171	-2.980000	3.379000	-10.068000	25.971209	0.000610	20.731843
1723.457120	-3.006000	3.377900	-10.153000	25.993193	0.000608	20.725006
1724.455439	-2.983600	3.377600	-10.076000	25.979930	0.000610	20.725905
1725.458468	-3.025000	3.375300	-10.209000	25.989073	0.000608	20.739833
1726.457551	-2.983400	3.376900	-10.074000	25.999237	0.000609	20.731078
1727.459964	-2.988200	3.375800	-10.087000	26.009866	0.000605	20.730851
1728.460130	-2.990300	3.376200	-10.094000	26.005914	0.000606	20.733994
1729.458703	-2.978100	3.378100	-10.059000	26.030807	0.000605	20.736718
1730.460730	-2.989400	3.376400	-10.092000	26.051646	0.000604	20.716877
1731.457879	-2.979900	3.376100	-10.059000	26.062679	0.000603	20.745982
1732.460865	-3.010900	3.374900	-10.160000	26.094522	0.000604	20.745260
1733.462569	-3.011800	3.374700	-10.163000	26.121293	0.000604	20.745607
1734.459787	-3.000700	3.375700	-10.129000	26.148317	0.000602	20.712068
1735.460988	-2.983000	3.374000	-10.064000	26.106425	0.000600	20.734460
1736.459246	-3.009400	3.374000	-10.153000	26.075159	0.000601	20.708734
1737.465184	-3.012100	3.372400	-10.156000	26.034448	0.000599	20.738480
1738.460485	-3.000500	3.373700	-10.123000	26.035691	0.000601	20.735936
1739.460657	-3.005500	3.372000	-10.132000	26.025735	0.000599	20.721190
1740.462533	-2.994600	3.372600	-10.099000	26.005963	0.000598	20.742103
1741.461173	-3.011200	3.371800	-10.152000	26.006463	0.000600	20.725061
1742.462941	-2.993800	3.373500	-10.098000	26.019881	0.000599	20.739966
1743.465665	-2.987700	3.372000	-10.073000	26.054553	0.000597	20.740663
1744.462612	-2.993200	3.371500	-10.091000	26.054233	0.000598	20.753143
1745.462641	-2.995400	3.370000	-10.094000	26.039881	0.000597	20.722127
1746.464715	-3.011700	3.369500	-10.147000	26.064421	0.000597	20.737301
1747.465286	-3.010000	3.369900	-10.142000	26.041223	0.000598	20.730114
1748.463741	-2.994600	3.369500	-10.090000	26.026769	0.000599	20.729342
1749.467288	-2.997200	3.369000	-10.096000	26.009209	0.000599	20.748684
1750.466966	-3.013400	3.368300	-10.149000	26.014675	0.000597	20.730942
1751.464942	-3.000400	3.368300	-10.106000	26.011470	0.000595	20.746214
1752.465792	-2.979600	3.368600	-10.036000	26.034549	0.000594	20.740004
1753.464702	-2.999900	3.368900	-10.106000	26.020444	0.000598	20.748118
1754.466311	-2.998500	3.367100	-10.095000	25.992124	0.000597	20.731992
1755.466305	-3.000200	3.367800	-10.103000	25.963986	0.000594	20.734069
1756.467606	-3.020200	3.366000	-10.165000	26.010234	0.000594	20.757301
1757.469455	-2.998100	3.365800	-10.090000	26.035471	0.000593	20.743302
1758.466473	-3.009100	3.366500	-10.129000	25.997569	0.000592	20.748369
1759.470552	-2.992100	3.366600	-10.072000	26.022282	0.000591	20.738111
1760.466062	-2.979900	3.365800	-10.028000	26.056489	0.000590	20.727909
1761.466179	-3.018000	3.364800	-10.154000	26.070073	0.000589	20.748670
1762.469531	-2.991100	3.366000	-10.067000	26.068565	0.000590	20.741465
1763.467065	-2.991900	3.365400	-10.068000	26.079018	0.000591	20.751494
1764.467753	-2.990700	3.363700	-10.059000	26.015932	0.000587	20.731730
1765.469003	-3.014000	3.363500	-10.136000	25.996262	0.000590	20.746108
1766.468909	-2.992400	3.363800	-10.065000	25.946185	0.000590	20.737523
1767.468647	-2.996100	3.363300	-10.076000	25.909995	0.000590	20.760909
1768.469023	-2.999900	3.362900	-10.087000	25.944051	0.000589	20.728740
1769.467895	-2.983000	3.363800	-10.033000	25.944502	0.000588	20.721606
1770.470225	-2.994100	3.363300	-10.068000	25.987749	0.000589	20.745616
1771.468538	-2.978200	3.363200	-10.016000	26.010673	0.000589	20.741621
1772.468946	-3.007800	3.361100	-10.108000	26.013681	0.000586	20.748436
1773.477799	-2.976200	3.363400	-10.009000	26.048558	0.000586	20.737484
1774.471554	-2.993200	3.362000	-10.062000	26.065889	0.000586	20.739250
1775.474576	-2.994800	3.360400	-10.063000	26.077563	0.000586	20.746713
1776.479462	-2.990900	3.361300	-10.052000	26.014202	0.000584	20.754650
1777.472915	-3.002400	3.359700	-10.084000	25.969692	0.000584	20.755449
1778.478739	-3.005700	3.360100	-10.098000	25.917624	0.000584	20.760039
1779.477988	-3.008300	3.359200	-10.104000	25.919765	0.000585	20.734688
1780.473716	-2.994600	3.360200	-10.060000	25.947587	0.000584	20.731344
1781.477393	-3.003200	3.358600	-10.085000	26.001309	0.000582	20.747385
1782.477093	-3.023700	3.357000	-10.150000	26.043212	0.000583	20.765304
1783.475586	-3.024300	3.357200	-10.153000	26.081190	0.000581	20.744667
1784.480653	-2.989800	3.359500	-10.042000	26.094749	0.000581	20.736005
1785.476519	-3.015000	3.357400	-10.122000	26.077218	0.000580	20.750159
1786.476908	-2.994200	3.356700	-10.050000	26.043885	0.000580	20.745591
1787.475277	-3.015100	3.355900	-10.118000	26.073640	0.000580	20.752728
1788.477481	-3.000100	3.356400	-10.068000	26.094428	0.000578	20.764607
1789.481349	-2.994000	3.356800	-10.050000	26.117773	0.000579	20.752976
1790.476826	-3.006400	3.355900	-10.088000	26.138385	0.000579	20.773213
1791.480670	-3.029500	3.354500	-10.162000	26.089607	0.000579	20.764030
1792.480022	-2.998400	3.355600	-10.061000	26.100236	0.000578	20.763804
1793.478849	-2.987500	3.354600	-10.020000	26.085459	0.000580	20.752275
1794.483325	-2.996400	3.353400	-10.047000	26.091417	0.000576	20.777703
1795.481099	-2.983500	3.355100	-10.009000	26.077408	0.000577	20.766946
1796.480137	-3.001000	3.354000	-10.065000	26.025768	0.000576	20.759632
1797.479384	-2.989200	3.353900	-10.024000	26.039454	0.000577	20.775280
1798.480158	-3.002600	3.353800	-10.069000	26.082543	0.000576	20.757881
1799.480614	-2.976900	3.353400	-9.981300	26.093893	0.000575	20.770708
1800.479574	-3.009600	3.352700	-10.088000	26.090066	0.000575	20.757378
1801.481999	-2.997200	3.351800	-10.044000	26.060085	0.000573	20.761869
1802.480320	-3.011700	3.352600	-10.097000	26.074091	0.000575	20.766933
1803.484423	-3.000600	3.352000	-10.057000	26.089960	0.000572	20.771023
1804.482143	-2.994200	3.351800	-10.035000	26.091848	0.000572	20.762962
1805.480817	-2.987400	3.352000	-10.013000	26.135582	0.000571	20.762810
1806.481510	-2.992400	3.351400	-10.028000	26.107618	0.000571	20.755574
1807.485652	-3.002900	3.350200	-10.059000	26.112950	0.000571	20.785588
1808.482185	-2.992800	3.350200	-10.026000	26.094496	0.000569	20.783168
1809.481177	-2.994300	3.350800	-10.032000	26.088580	0.000570	20.774852
1810.483478	-2.999200	3.348900	-10.043000	26.097867	0.000568	20.768062
1811.484469	-3.001500	3.350000	-10.054000	26.104843	0.000570	20.759899
1812.484450	-3.011100	3.348900	-10.083000	26.119521	0.000569	20.785553
1813.486649	-3.011800	3.348700	-10.084000	26.163776	0.000568	20.784028
1814.482170	-3.002700	3.349000	-10.054000	26.158758	0.000568	20.785624
1815.483593	-2.991500	3.347700	-10.014000	26.161786	0.000568	20.796728
1816.485352	-3.017600	3.347300	-10.100000	26.186521	0.000566	20.777012
1817.484216	-3.006700	3.346100	-10.060000	26.185472	0.000567	20.791130
1818.485187	-2.992000	3.346800	-10.013000	26.194983	0.000568	20.789782
1819.483620	-2.987000	3.345900	-9.992600	26.226818	0.000564	20.793324
1820.486793	-2.981800	3.346400	-9.977300	26.229921	0.000563	20.795494
1821.488476	-3.000400	3.345900	-10.038000	26.216160	0.000562	20.801106
1822.489610	-2.976200	3.346400	-9.958600	26.213896	0.000564	20.768959
1823.486306	-3.000700	3.346000	-10.039000	26.223653	0.000561	20.803894
1824.490189	-3.011000	3.345200	-10.071000	26.215505	0.000561	20.797129
1825.485536	-2.995700	3.344400	-10.017000	26.222284	0.000560	20.803941
1826.491526	-2.994500	3.344500	-10.014000	26.217935	0.000559	20.782501
1827.486506	-3.005300	3.344700	-10.051000	26.226404	0.000560	20.792908
1828.486374	-2.992400	3.342500	-10.001000	26.227989	0.000561	20.815837
1829.487689	-2.991000	3.343200	-9.998600	26.228686	0.000559	20.776235
1830.485483	-3.020700	3.342500	-10.095000	26.230844	0.000560	20.789309
1831.484763	-3.000100	3.342300	-10.025000	26.223816	0.000558	20.786040
1832.487717	-3.002500	3.343100	-10.036000	26.230419	0.000558	20.811167
1833.483965	-2.969300	3.343200	-9.926100	26.214499	0.000555	20.802756
1834.485934	-3.022200	3.341900	-10.099000	26.256493	0.000556	20.802282
1835.488032	-3.010800	3.341400	-10.059000	26.208041	0.000558	20.793896
1836.491332	-3.001600	3.341800	-10.030000	26.187502	0.000556	20.799334
1837.487827	-3.017400	3.340900	-10.079000	26.164951	0.000555	20.821244
1838.490582	-3.011800	3.339700	-10.058000	26.097915	0.000556	20.803199
1839.488178	-3.017200	3.340200	-10.077000	26.055366	0.000555	20.806440
1840.486539	-2.997800	3.339500	-10.010000	26.040364	0.000555	20.808436
1841.491541	-2.979400	3.339800	-9.949400	26.057976	0.000555	20.801475
1842.488311	-2.979000	3.340300	-9.949500	26.090682	0.000555	20.797353
1843.487983	-3.016100	3.337500	-10.065000	26.127117	0.000555	20.823057
1844.492911	-2.997600	3.338400	-10.006000	26.155303	0.000554	20.786894
1845.488807	-2.972400	3.339000	-9.923600	26.182495	0.000554	20.814692
1846.488241	-3.012000	3.336500	-10.049000	26.207652	0.000552	20.799194
1847.489777	-3.022900	3.337400	-10.087000	26.199673	0.000553	20.820574
1848.489403	-2.987400	3.338600	-9.972300	26.207747	0.000552	20.813514
1849.493428	-3.015500	3.335800	-10.058000	26.212807	0.000551	20.804849
1850.488822	-2.987500	3.336000	-9.964600	26.196293	0.000553	20.822867
1851.487439	-3.006400	3.335700	-10.027000	26.192046	0.000549	20.820496
1852.489956	-2.987900	3.335500	-9.965300	26.184616	0.000549	20.813504
1853.491420	-2.996900	3.336100	-9.996600	26.191913	0.000550	20.818940
1854.489461	-2.977500	3.334200	-9.926800	26.207333	0.000550	20.807882
1855.491150	-2.999300	3.334500	-9.999200	26.239094	0.000550	20.826523
1856.489456	-3.016100	3.333500	-10.052000	26.245101	0.000549	20.816913
1857.492425	-2.986400	3.335500	-9.960000	26.186269	0.000547	20.819432
1858.492402	-3.000500	3.333900	-10.002000	26.151002	0.000547	20.823823
1859.493772	-3.000000	3.333800	-10.000000	26.124077	0.000546	20.820476
1860.491896	-2.989700	3.334100	-9.967000	26.114812	0.000544	20.831081
1861.492384	-2.987900	3.334100	-9.961500	26.114858	0.000545	20.834446
1862.493719	-2.989100	3.332500	-9.960000	26.110241	0.000543	20.822221
1863.491743	-3.012700	3.330500	-10.032000	26.121566	0.000543	20.825540
1864.492513	-3.004200	3.331800	-10.008000	26.153305	0.000542	20.836569
1865.492036	-3.001100	3.332700	-10.001000	26.179036	0.000543	20.842036
1866.491706	-3.004800	3.331600	-10.010000	26.185590	0.000540	20.820172
1867.491504	-3.012600	3.331100	-10.034000	26.239331	0.000540	20.822968
1868.494114	-3.001200	3.331000	-9.996000	26.291602	0.000540	20.832348
1869.494830	-3.016600	3.330200	-10.044000	26.290211	0.000540	20.812459
1870.497002	-2.996700	3.331500	-9.981900	26.334212	0.000539	20.820169
1871.492460	-2.987100	3.328700	-9.940700	26.319885	0.000538	20.834694
1872.495356	-3.005900	3.328700	-10.006000	26.310474	0.000537	20.823339
1873.497591	-3.005000	3.328500	-10.001000	26.306999	0.000537	20.844502
1874.495129	-3.010300	3.328500	-10.019000	26.302700	0.000536	20.843975
1875.494601	-2.987000	3.328700	-9.942200	26.308362	0.000538	20.825958
1876.494646	-2.990000	3.327500	-9.948600	26.322294	0.000536	20.841381
1877.495934	-2.981600	3.329000	-9.925300	26.352464	0.000535	20.875494
1878.495132	-2.988900	3.328900	-9.949200	26.330367	0.000538	20.823891
1879.494282	-3.010300	3.327000	-10.014000	26.285271	0.000536	20.820770
1880.497557	-3.010900	3.327300	-10.017000	26.237539	0.000536	20.834917
1881.496579	-3.012900	3.326600	-10.022000	26.218912	0.000534	20.834217
1882.502731	-2.993900	3.326800	-9.958300	26.215538	0.000535	20.831301
1883.498224	-3.011400	3.324800	-10.011000	26.218144	0.000535	20.838661
1884.495878	-3.001800	3.325300	-9.980900	26.241064	0.000533	20.834192
1885.500193	-2.988600	3.324900	-9.936000	26.264211	0.000533	20.839435
1886.499122	-2.995400	3.324000	-9.954900	26.298130	0.000533	20.830848
1887.499140	-2.983700	3.323900	-9.916500	26.294031	0.000532	20.823410
1888.501937	-2.997400	3.323700	-9.960200	26.260409	0.000530	20.832295
1889.500175	-3.016400	3.322400	-10.020000	26.262965	0.000530	20.828700
1890.501473	-2.987200	3.323000	-9.925000	26.287528	0.000530	20.849116
1891.502268	-3.001000	3.322700	-9.969800	26.333839	0.000529	20.838760
1892.501632	-2.997100	3.322100	-9.956300	26.346253	0.000528	20.852658
1893.503491	-2.996500	3.321700	-9.952000	26.377884	0.000527	20.848887
1894.501896	-3.007200	3.321300	-9.986900	26.390724	0.000527	20.848515
1895.501213	-3.023800	3.320200	-10.039000	26.418857	0.000525	20.843126
1896.500321	-3.001300	3.321200	-9.966700	26.408404	0.000525	20.845896
1897.505510	-3.008700	3.321000	-9.989900	26.412724	0.000525	20.867307
1898.502873	-3.014900	3.320000	-10.008000	26.399364	0.000524	20.833017
1899.501991	-2.992400	3.320200	-9.934000	26.385760	0.000523	20.865336
1900.505857	-3.026200	3.318500	-10.040000	26.356457	0.000522	20.865283
1901.514584	-3.006500	3.319800	-9.978700	26.338905	0.000523	20.868980
1902.504494	-3.018800	3.318800	-10.018000	26.337039	0.000523	20.853830
1903.506322	-2.999500	3.320100	-9.957500	26.371828	0.000522	20.860343
1904.504478	-2.995400	3.318800	-9.940000	26.390650	0.000521	20.847018
1905.503368	-2.991900	3.319000	-9.928800	26.404405	0.000521	20.868903
1906.507741	-2.987500	3.318500	-9.912900	26.411337	0.000519	20.875395
1907.504177	-3.017300	3.316700	-10.007000	26.391794	0.000521	20.864763
1908.505425	-3.016500	3.316200	-10.002000	26.367533	0.000521	20.864561
1909.506068	-3.024200	3.316900	-10.030000	26.350324	0.000519	20.868128
1910.507104	-3.015100	3.315800	-9.995900	26.315238	0.000519	20.862265
1911.505798	-2.994400	3.314800	-9.925300	26.299493	0.000519	20.857821
1912.506823	-3.006200	3.314300	-9.962300	26.324054	0.000517	20.876340
1913.506281	-3.004700	3.314700	-9.958300	26.351644	0.000518	20.853334
1914.506728	-3.010100	3.315800	-9.979200	26.387918	0.000519	20.879832
1915.506562	-2.987200	3.315800	-9.903400	26.422107	0.000516	20.864883
1916.507922	-3.002200	3.314000	-9.948100	26.461980	0.000517	20.861338
1917.509108	-3.003700	3.313000	-9.950300	26.508357	0.000516	20.877607
1918.507308	-3.005500	3.314600	-9.961300	26.486458	0.000516	20.890207
1919.508910	-3.014000	3.312100	-9.981700	26.512230	0.000515	20.859215
1920.507863	-3.014600	3.313500	-9.987500	26.474862	0.000515	20.865277
1921.508707	-3.005200	3.311200	-9.949500	26.478262	0.000514	20.877229
1922.513515	-3.006000	3.312700	-9.956900	26.497625	0.000515	20.862078
1923.508268	-3.008600	3.312100	-9.963900	26.519620	0.000515	20.889875
1924.509502	-3.018400	3.310100	-9.990500	26.539157	0.000513	20.875849
1925.509977	-3.006700	3.311100	-9.954500	26.568895	0.000512	20.874449
1926.508405	-3.007000	3.310800	-9.954600	26.528776	0.000511	20.885329
1927.511057	-2.989800	3.310600	-9.896400	26.535651	0.000512	20.887498
1928.509415	-3.023500	3.310500	-10.008000	26.561838	0.000511	20.868778
1929.510198	-3.012700	3.310000	-9.970700	26.550887	0.000509	20.878158
1930.515069	-2.996400	3.309500	-9.914800	26.527126	0.000511	20.880826
1931.510560	-3.004600	3.309600	-9.942500	26.562726	0.000512	20.869196
1932.510370	-2.986200	3.309200	-9.880400	26.564236	0.000510	20.874507
1933.513293	-3.004700	3.309200	-9.941700	26.556763	0.000511	20.870314
1934.510221	-3.006300	3.309100	-9.946800	26.552987	0.000510	20.891172
1935.512333	-2.994200	3.307100	-9.900400	26.512417	0.000508	20.879316
1936.512668	-2.989900	3.307900	-9.889500	26.481998	0.000508	20.893784
1937.512881	-3.038900	3.306000	-10.045000	26.425583	0.000508	20.885445
1938.512309	-3.010800	3.307000	-9.956000	26.432410	0.000509	20.891358
1939.515568	-2.958300	3.308500	-9.787200	26.439261	0.000506	20.893502
1940.514233	-2.980300	3.306800	-9.853200	26.459567	0.000507	20.884990
1941.512038	-2.985100	3.305800	-9.867500	26.463064	0.000505	20.884711
1942.512190	-2.994700	3.305700	-9.898800	26.497349	0.000505	20.883611
1943.513012	-3.001800	3.304700	-9.919200	26.526096	0.000505	20.882160
1944.512454	-2.996900	3.305500	-9.904900	26.551512	0.000506	20.900595
1945.514888	-2.995700	3.304600	-9.898400	26.589845	0.000503	20.904515
1946.517203	-3.004600	3.304300	-9.926800	26.597361	0.000504	20.887416
1947.514531	-2.999900	3.303600	-9.909300	26.547162	0.000504	20.881051
1948.515852	-2.989000	3.303500	-9.872600	26.491420	0.000504	20.890453
1949.519626	-2.985900	3.303600	-9.863100	26.461303	0.000502	20.881519
1950.514448	-2.998100	3.303100	-9.901700	26.495042	0.000501	20.876551
1951.515865	-2.980000	3.303700	-9.844100	26.520389	0.000503	20.880691
1952.519435	-3.001800	3.302900	-9.912900	26.540046	0.000501	20.860149
1953.517866	-2.972400	3.302000	-9.814100	26.559284	0.000498	20.897502
1954.515554	-2.992300	3.301400	-9.877800	26.555131	0.000499	20.858243
1955.518566	-2.991300	3.302200	-9.876800	26.557092	0.000500	20.882024
1956.517846	-3.000100	3.300200	-9.900100	26.580054	0.000498	20.889932
1957.516460	-2.995400	3.300000	-9.883900	26.592410	0.000494	20.861104
1958.521038	-3.015100	3.299300	-9.946100	26.583821	0.000496	20.883762
1959.519296	-3.011700	3.299300	-9.935600	26.619243	0.000496	20.877171
1960.519626	-3.000700	3.298800	-9.896500	26.569964	0.000494	20.866040
1961.521153	-3.021200	3.298900	-9.965500	26.543669	0.000494	20.869954
1962.523059	-3.013800	3.299200	-9.940900	26.556627	0.000492	20.888194
1963.521044	-2.970700	3.300000	-9.802300	26.574499	0.000493	20.869650
1964.517579	-3.002500	3.297300	-9.899100	26.581593	0.000493	20.882470
1965.522420	-3.009600	3.296400	-9.919500	26.608922	0.000492	20.870115
1966.524330	-2.983600	3.298600	-9.840000	26.647226	0.000492	20.877800
1967.519862	-2.997300	3.296300	-9.878800	26.674579	0.000490	20.873056
1968.523327	-2.974800	3.297300	-9.807700	26.672045	0.000490	20.872880
1969.522216	-2.977700	3.297500	-9.817900	26.637090	0.000488	20.879465
1970.520011	-2.988400	3.294500	-9.844200	26.675741	0.000487	20.874699
1971.523933	-3.016500	3.295900	-9.940100	26.669853	0.000486	20.854556
1972.522745	-2.999500	3.296100	-9.885500	26.679859	0.000485	20.875994
1973.520414	-2.984600	3.294600	-9.832300	26.643216	0.000485	20.866657
1974.534776	-3.014300	3.294100	-9.928500	26.671438	0.000485	20.853304
1975.522449	-2.979300	3.295300	-9.816700	26.702914	0.000485	20.874516
1976.521006	-2.999000	3.293400	-9.875800	26.709539	0.000486	20.835185
1977.524876	-2.998300	3.291500	-9.867000	26.751491	0.000484	20.865982
1978.524179	-2.995600	3.294800	-9.868500	26.769680	0.000484	20.870993
1979.523621	-3.015900	3.293200	-9.930000	26.790976	0.000482	20.862059
1980.524526	-3.029200	3.291000	-9.967600	26.787601	0.000481	20.857243
1981.524527	-3.024700	3.292700	-9.958600	26.762209	0.000480	20.867274
1982.526208	-2.997900	3.292400	-9.869400	26.729270	0.000482	20.866400
1983.530290	-2.981600	3.293600	-9.818900	26.721203	0.000481	20.846437
1984.530562	-3.008000	3.289800	-9.894600	26.722544	0.000480	20.867225
1985.527121	-3.004700	3.289200	-9.881600	26.749303	0.000480	20.840549
1986.531325	-3.006600	3.289700	-9.889800	26.746075	0.000479	20.840624
1987.534475	-3.019800	3.289700	-9.933500	26.736246	0.000481	20.849233
1988.534359	-3.015400	3.287900	-9.911900	26.705245	0.000479	20.859790
1989.529121	-3.019100	3.288300	-9.926700	26.688189	0.000480	20.870144
1990.533887	-2.977600	3.290300	-9.796400	26.675655	0.000478	20.856595
1991.530605	-2.993000	3.288700	-9.842500	26.679326	0.000474	20.877829
1992.531887	-2.979300	3.289300	-9.799400	26.699234	0.000474	20.836679
1993.528675	-2.981500	3.289000	-9.805100	26.726862	0.000474	20.834110
1994.530658	-2.979700	3.290300	-9.803400	26.767692	0.000473	20.859512
1995.529777	-2.982400	3.287500	-9.803100	26.790280	0.000476	20.843816
1996.529220	-2.991400	3.287700	-9.833900	26.793680	0.000473	20.861458
1997.532723	-2.984600	3.287500	-9.810600	26.808228	0.000471	20.850007
1998.532812	-2.978000	3.288800	-9.793300	26.818054	0.000469	20.853723
1999.531089	-2.974500	3.286200	-9.772800	26.789885	0.000470	20.838678
2000.532247	-2.992900	3.285100	-9.829600	26.749873	0.000471	20.851079
2001.532595	-2.997900	3.285900	-9.849900	26.770127	0.000469	20.824503
2002.531805	-2.977200	3.285600	-9.781200	26.773826	0.000471	20.825851
2003.536749	-2.988700	3.283900	-9.813700	26.727087	0.000467	20.848560
2004.534277	-3.010100	3.285400	-9.888200	26.737090	0.000467	20.850556
2005.534978	-2.960100	3.285700	-9.724700	26.753896	0.000469	20.832839
2006.533882	-3.009100	3.284000	-9.880800	26.745678	0.000467	20.830741
2007.535570	-3.002400	3.283400	-9.857700	26.750422	0.000465	20.837881
2008.535302	-3.019800	3.283100	-9.914200	26.796290	0.000465	20.837057
2009.533705	-3.006700	3.282400	-9.868400	26.841836	0.000465	20.841600
2010.533638	-2.993400	3.282500	-9.825000	26.859854	0.000467	20.820837
2011.539516	-3.010400	3.283700	-9.884700	26.831955	0.000465	20.828820
2012.534810	-3.012200	3.281100	-9.882300	26.825380	0.000465	20.835012
2013.535304	-3.001700	3.282500	-9.851300	26.798075	0.000462	20.826998
2014.538894	-3.008900	3.281200	-9.872100	26.753501	0.000462	20.818218
2015.532853	-2.999900	3.281500	-9.842300	26.718281	0.000464	20.828801
2016.533341	-3.033500	3.280300	-9.949600	26.699089	0.000461	20.849335
2017.536771	-2.999500	3.279600	-9.836400	26.727932	0.000461	20.820961
2018.534410	-3.000900	3.281000	-9.844700	26.713931	0.000459	20.833911
2019.535375	-2.989100	3.278900	-9.799900	26.734060	0.000459	20.835656
2020.539658	-2.999400	3.278300	-9.831800	26.769187	0.000459	20.833989
2021.536621	-2.996200	3.278600	-9.821500	26.775044	0.000456	20.816170
2022.535717	-2.988600	3.279200	-9.798900	26.773678	0.000458	20.828073
2023.540235	-2.984600	3.279100	-9.785000	26.759157	0.000456	20.805887
2024.540105	-3.014600	3.276800	-9.877900	26.796065	0.000455	20.823081
2025.538170	-2.975800	3.277900	-9.753300	26.782688	0.000455	20.829545
2026.540463	-3.004400	3.276300	-9.841500	26.759703	0.000455	20.819238
2027.538006	-3.002400	3.276300	-9.835900	26.772510	0.000454	20.833062
2028.537927	-3.010000	3.274200	-9.855400	26.773506	0.000451	20.823632
2029.537412	-3.005600	3.274600	-9.839900	26.805895	0.000452	20.796928
2030.537981	-2.984000	3.275600	-9.773500	26.792958	0.000453	20.825647
2031.536801	-3.020600	3.273900	-9.886900	26.824336	0.000451	20.815944
2032.536726	-2.996500	3.275600	-9.812900	26.793732	0.000450	20.815519
2033.541505	-3.003200	3.271200	-9.822600	26.772384	0.000450	20.813970
2034.537909	-3.041400	3.271900	-9.950100	26.751137	0.000448	20.818686
2035.538038	-3.008800	3.272500	-9.844700	26.714798	0.000448	20.821981
2036.542194	-3.007600	3.272000	-9.840300	26.741335	0.000450	20.815944
2037.539332	-3.034500	3.271500	-9.926300	26.745801	0.000449	20.810477
2038.540314	-3.025900	3.271300	-9.898200	26.736021	0.000445	20.792109
2039.542259	-2.994700	3.270300	-9.792600	26.754490	0.000446	20.809730
2040.539696	-2.990300	3.270400	-9.778100	26.772883	0.000445	20.803092
2041.540115	-3.016600	3.271000	-9.866300	26.799866	0.000443	20.817419
2042.543770	-3.005700	3.270100	-9.827800	26.831807	0.000444	20.802593
2043.540194	-3.006600	3.269700	-9.828900	26.855835	0.000443	20.822485
2044.539415	-2.990500	3.271500	-9.783300	26.893711	0.000441	20.809835
2045.544161	-3.024800	3.269300	-9.888400	26.923889	0.000440	20.806990
2046.542217	-2.975400	3.270400	-9.729700	26.894728	0.000443	20.801375
2047.541081	-3.003100	3.268500	-9.814900	26.892718	0.000441	20.799354
2048.542661	-3.007800	3.268800	-9.831000	26.914979	0.000440	20.794712
2049.540093	-3.006500	3.268800	-9.827100	26.926151	0.000440	20.817800
2050.540655	-2.982500	3.269000	-9.749300	26.918730	0.000439	20.790897
2051.543281	-3.012800	3.268200	-9.845100	26.943373	0.000440	20.800030
2052.540849	-3.013300	3.266700	-9.842500	26.920496	0.000438	20.800733
2053.540435	-3.010800	3.265800	-9.832100	26.901582	0.000437	20.798310
2054.542836	-2.992000	3.267500	-9.774000	26.912008	0.000437	20.794095
2055.542810	-2.996500	3.267200	-9.788900	26.901338	0.000436	20.795694
2056.542432	-3.003000	3.265800	-9.806200	26.890068	0.000436	20.800957
2057.540827	-2.981500	3.265200	-9.733500	26.862748	0.000435	20.809996
2058.547221	-2.994600	3.264100	-9.773500	26.877613	0.000434	20.783217
2059.543743	-3.002200	3.264400	-9.798500	26.859022	0.000435	20.794870
2060.544444	-3.002100	3.265600	-9.802400	26.857906	0.000433	20.809869
2061.545982	-2.993700	3.265100	-9.773700	26.844033	0.000431	20.783118
2062.543441	-3.011400	3.264000	-9.828100	26.802507	0.000431	20.788780
2063.547050	-2.997700	3.263300	-9.781600	26.800497	0.000429	20.795769
2064.542213	-3.000800	3.262200	-9.788400	26.809704	0.000430	20.789853
2065.544896	-3.017700	3.261200	-9.840500	26.837231	0.000429	20.803306
2066.546182	-3.020800	3.261700	-9.851900	26.855345	0.000427	20.804449
2067.544047	-2.994900	3.262000	-9.769000	26.837182	0.000428	20.760582
2068.547397	-3.005800	3.261100	-9.800100	26.882794	0.000425	20.802652
2069.546989	-3.003700	3.260400	-9.792000	26.873511	0.000425	20.803275
2070.544485	-3.010300	3.260500	-9.814500	26.908627	0.000425	20.791170
2071.550782	-3.005900	3.259800	-9.797700	26.918702	0.000425	20.793240
2072.548590	-2.990100	3.258800	-9.743100	26.940664	0.000424	20.785452
2073.552131	-2.993500	3.257800	-9.751400	26.915673	0.000423	20.795409
2074.550028	-2.998600	3.259600	-9.773900	26.905992	0.000423	20.798478
2075.549287	-3.002500	3.257900	-9.780800	26.864074	0.000423	20.789992
2076.546721	-3.002200	3.257700	-9.779100	26.886185	0.000422	20.777612
2077.550591	-2.972000	3.259300	-9.685100	26.876806	0.000422	20.778138
2078.548147	-3.000100	3.257400	-9.772000	26.871446	0.000421	20.780810
2079.549870	-3.014200	3.256500	-9.814000	26.883358	0.000420	20.804167
2080.550174	-2.976100	3.257600	-9.694200	26.874420	0.000419	20.780007
2081.551590	-2.979000	3.258500	-9.706200	26.902467	0.000418	20.793510
2082.549681	-3.000100	3.255900	-9.767100	26.900035	0.000415	20.775417
2083.552369	-2.971900	3.257500	-9.679900	26.875391	0.000416	20.789992
2084.551914	-2.987700	3.256200	-9.727400	26.870947	0.000416	20.787894
2085.553179	-3.002300	3.255600	-9.773400	26.901795	0.000416	20.796153
2086.552364	-2.990900	3.255500	-9.735900	26.932845	0.000416	20.781383
2087.555429	-2.996800	3.253500	-9.749300	26.908474	0.000413	20.800024
2088.551154	-3.002600	3.254500	-9.770900	26.848783	0.000414	20.795007
2089.552286	-3.017600	3.252300	-9.811900	26.878492	0.000412	20.773670
2090.554346	-3.002500	3.252400	-9.764000	26.900183	0.000412	20.788368
2091.553824	-3.005200	3.252400	-9.773400	26.900907	0.000411	20.767285
2092.553959	-2.978100	3.252800	-9.686500	26.837469	0.000413	20.775569
2093.553106	-2.987700	3.251300	-9.712900	26.789349	0.000410	20.767490
2094.554332	-3.005600	3.250900	-9.768800	26.772417	0.000408	20.786503
2095.554291	-3.007100	3.251500	-9.776200	26.757227	0.000408	20.774075
2096.554187	-2.994900	3.251300	-9.736800	26.769714	0.000408	20.779517
2097.554881	-2.972900	3.251900	-9.666600	26.811264	0.000408	20.775774
2098.554095	-2.986600	3.249800	-9.705400	26.813430	0.000407	20.780797
2099.556684	-3.003600	3.250500	-9.762100	26.880069	0.000407	20.775730
2100.556584	-2.981500	3.250800	-9.690800	26.901813	0.000405	20.763929
2101.556126	-2.997800	3.248200	-9.736400	26.886126	0.000404	20.767121
2102.556129	-2.998500	3.248700	-9.740100	26.912036	0.000403	20.754768
2103.560681	-2.989000	3.248000	-9.706400	26.910973	0.000403	20.770768
2104.557797	-2.996600	3.247500	-9.730500	26.917750	0.000403	20.754823
2105.560785	-3.042100	3.246300	-9.874000	26.966391	0.000401	20.763907
2106.561213	-2.982600	3.245900	-9.680300	26.979895	0.000402	20.770849
2107.561917	-3.001300	3.246700	-9.743300	26.955749	0.000400	20.769327
2108.559418	-3.004600	3.246600	-9.753800	26.986524	0.000401	20.779412
2109.563094	-3.029200	3.244300	-9.825800	26.982903	0.000398	20.762493
2110.559097	-3.012700	3.244000	-9.771300	27.010672	0.000399	20.761970
2111.561038	-2.995600	3.244900	-9.719100	26.994891	0.000396	20.761272
2112.563905	-3.004900	3.243200	-9.744500	27.010678	0.000397	20.757708
2113.561098	-3.020500	3.242900	-9.793600	27.054875	0.000398	20.761852
2114.560122	-2.998400	3.244100	-9.725900	27.040283	0.000396	20.762825
2115.560622	-3.013800	3.244000	-9.775600	27.095174	0.000395	20.753543
2116.560940	-3.016200	3.243400	-9.781800	27.072396	0.000395	20.754817
2117.560940	-3.007600	3.242400	-9.750800	27.039565	0.000394	20.749774
2118.562491	-3.007800	3.240500	-9.745800	27.011726	0.000392	20.759710
2119.562609	-2.997700	3.241200	-9.714700	26.950159	0.000394	20.753273
2120.559909	-2.990300	3.241300	-9.690600	26.907129	0.000392	20.756946
2121.565870	-2.996800	3.240500	-9.710200	26.870943	0.000389	20.754699
2122.561106	-3.004400	3.240000	-9.733400	26.844834	0.000391	20.739826
2123.561297	-2.989500	3.239900	-9.684900	26.819693	0.000388	20.743471
2124.564940	-2.987400	3.240500	-9.678800	26.814484	0.000388	20.752458
2125.560994	-3.020800	3.238500	-9.781600	26.775515	0.000386	20.767331
2126.561415	-2.998100	3.238900	-9.709400	26.753845	0.000386	20.737957
2127.560627	-2.997200	3.239200	-9.706600	26.756280	0.000388	20.768382
2128.563527	-3.020500	3.237100	-9.776700	26.778224	0.000386	20.746347
2129.561915	-2.998200	3.238000	-9.707200	26.801135	0.000386	20.749468
2130.562133	-3.018100	3.237200	-9.769200	26.793195	0.000387	20.738165
2131.563868	-3.000400	3.235800	-9.707600	26.806350	0.000384	20.755660
2132.562721	-2.980800	3.236900	-9.647500	26.827747	0.000386	20.740189
2133.561766	-2.986100	3.235500	-9.660000	26.825318	0.000385	20.759084
2134.564487	-3.010500	3.233600	-9.733300	26.806828	0.000382	20.733854
2135.566393	-2.971700	3.236400	-9.617400	26.871088	0.000381	20.747732
2136.562627	-3.008100	3.234700	-9.728400	26.916828	0.000381	20.751525
2137.565979	-3.006100	3.233800	-9.720000	26.933359	0.000381	20.746812
2138.562088	-2.995300	3.234800	-9.687800	26.957281	0.000381	20.740994
2139.565453	-3.010000	3.233600	-9.731800	26.995898	0.000379	20.760863
2140.567015	-3.020200	3.232600	-9.760900	27.001979	0.000379	20.728096
2141.565401	-3.007300	3.231100	-9.715700	27.038783	0.000377	20.748987
2142.562887	-3.005500	3.232900	-9.714100	27.080695	0.000378	20.745144
2143.565658	-2.986300	3.231600	-9.650100	27.109654	0.000376	20.740604
2144.565661	-2.998400	3.231100	-9.687000	27.142704	0.000375	20.749663
2145.563533	-3.007000	3.229700	-9.710700	27.104345	0.000375	20.756602
2146.563217	-3.011000	3.229600	-9.723200	27.105636	0.000373	20.741779
2147.563118	-3.023400	3.228600	-9.759200	27.112560	0.000373	20.746846
2148.563812	-2.990100	3.231000	-9.660100	27.154768	0.000373	20.748519
2149.563393	-2.996800	3.229700	-9.677800	27.161072	0.000372	20.740161
2150.567937	-3.018100	3.228100	-9.741200	27.184939	0.000371	20.749942
2151.563958	-3.009100	3.228400	-9.713500	27.220569	0.000371	20.757804
2152.563979	-2.985500	3.228800	-9.638800	27.244613	0.000370	20.759704
2153.566910	-2.975800	3.229400	-9.609400	27.266047	0.000370	20.750444
2154.563967	-2.992400	3.226600	-9.653100	27.286344	0.000367	20.758059
2155.564202	-2.993400	3.227400	-9.659100	27.281557	0.000368	20.748501
2156.564039	-2.979300	3.225900	-9.610200	27.294780	0.000367	20.754690
2157.564765	-2.982300	3.225700	-9.618700	27.301059	0.000367	20.771912
2158.566677	-3.006000	3.226200	-9.696900	27.309568	0.000368	20.757712
2159.565857	-3.003600	3.225900	-9.688300	27.282925	0.000366	20.746084
2160.565589	-2.977500	3.226100	-9.604800	27.285328	0.000365	20.748501
2161.565386	-2.994000	3.224600	-9.653300	27.283470	0.000363	20.731933
2162.564397	-2.999600	3.222900	-9.666600	27.277240	0.000364	20.744159
2163.565363	-3.002700	3.223100	-9.675700	27.293270	0.000364	20.768819
2164.566687	-3.014300	3.220800	-9.707800	27.296071	0.000364	20.741289
2165.566597	-3.001300	3.221900	-9.668200	27.300658	0.000362	20.769138
2166.566764	-3.028100	3.222200	-9.755300	27.255480	0.000360	20.746926
2167.570441	-3.019400	3.221000	-9.724500	27.225385	0.000361	20.734672
2168.567896	-2.985300	3.220700	-9.613600	27.223946	0.000360	20.741286
2169.564273	-3.025100	3.219800	-9.738500	27.218834	0.000360	20.757008
2170.570526	-3.013600	3.219500	-9.701400	27.206775	0.000360	20.735868
2171.569101	-2.994200	3.219400	-9.638400	27.214835	0.000358	20.753459
2172.565703	-2.948800	3.220800	-9.496400	27.237786	0.000357	20.763742
2173.571915	-2.998400	3.219200	-9.651600	27.241634	0.000357	20.769036
2174.566916	-2.999000	3.217100	-9.647100	27.275398	0.000356	20.754634
2175.567460	-2.998100	3.218000	-9.647300	27.291175	0.000356	20.764340
2176.567537	-2.998800	3.217100	-9.646400	27.314075	0.000355	20.743753
2177.568149	-3.024400	3.214900	-9.722600	27.337094	0.000353	20.748891
2178.569919	-3.009800	3.215400	-9.676500	27.329802	0.000354	20.765264
2179.569248	-2.988400	3.215000	-9.606800	27.333971	0.000353	20.720143
2180.571365	-2.991700	3.215400	-9.618400	27.322137	0.000351	20.738586
2181.572286	-3.015600	3.215700	-9.695900	27.305443	0.000350	20.744078
2182.572521	-3.012700	3.215000	-9.684600	27.335585	0.000350	20.747847
2183.575777	-3.008200	3.214000	-9.665900	27.352402	0.000351	20.746272
2184.575133	-2.988700	3.213000	-9.602200	27.361010	0.000349	20.753035
2185.571501	-3.033300	3.212000	-9.742000	27.396711	0.000349	20.743431
2186.573598	-2.974200	3.215300	-9.561300	27.372125	0.000349	20.756156
2187.572728	-3.003700	3.212300	-9.647100	27.352279	0.000349	20.773650
2188.573142	-2.994700	3.213100	-9.621800	27.293933	0.000347	20.736293
2189.572487	-3.011200	3.210500	-9.666600	27.270364	0.000348	20.750044
2190.573664	-3.017600	3.210500	-9.686600	27.264532	0.000348	20.756032
2191.573479	-2.969600	3.213700	-9.541200	27.274332	0.000345	20.756881
2192.574689	-3.016900	3.209400	-9.681600	27.339451	0.000345	20.758375
2193.575955	-3.004700	3.209900	-9.643700	27.322014	0.000343	20.747472
2194.579006	-2.992300	3.210600	-9.606100	27.337664	0.000344	20.763215
2195.575306	-2.992300	3.209000	-9.601500	27.301496	0.000344	20.755756
2196.577097	-2.996700	3.207600	-9.611000	27.262424	0.000343	20.778094
2197.575573	-2.990000	3.207700	-9.589900	27.257436	0.000342	20.756955
2198.576778	-3.002700	3.207700	-9.630600	27.254109	0.000341	20.758350
2199.573627	-2.989300	3.208500	-9.590900	27.295439	0.000341	20.769578
2200.575807	-3.011700	3.206300	-9.655400	27.309481	0.000340	20.767582
2201.576598	-2.992700	3.205600	-9.593000	27.324765	0.000338	20.760671
2202.587060	-3.002000	3.205700	-9.622300	27.304943	0.000338	20.751163
2203.576251	-3.013300	3.204000	-9.652400	27.284970	0.000338	20.769953
2204.577359	-2.992800	3.205300	-9.592100	27.296875	0.000336	20.764858
2205.577043	-3.011100	3.204700	-9.648700	27.339297	0.000336	20.743994
2206.579929	-3.011700	3.203500	-9.646700	27.330043	0.000335	20.763609
2207.579809	-3.018300	3.202600	-9.665200	27.338749	0.000337	20.768100
2208.577837	-2.991500	3.203500	-9.582500	27.311185	0.000335	20.745587
2209.581838	-3.000300	3.202800	-9.608200	27.289003	0.000334	20.753620
2210.584887	-2.989600	3.202000	-9.571700	27.320236	0.000337	20.765124
2211.577207	-3.019700	3.201400	-9.666400	27.307981	0.000334	20.767021
2212.582776	-3.010400	3.201100	-9.635900	27.293489	0.000334	20.764771
2213.578575	-3.004300	3.199700	-9.612000	27.297506	0.000332	20.765493
2214.580042	-2.997100	3.200900	-9.592100	27.302839	0.000333	20.769435
2215.580358	-3.002700	3.199900	-9.607300	27.300553	0.000327	20.784680
2216.580280	-3.008100	3.198900	-9.622000	27.293877	0.000329	20.777490
2217.578671	-2.966400	3.199100	-9.489100	27.302066	0.000330	20.767235
2218.578694	-2.987000	3.198400	-9.552300	27.318610	0.000327	20.791464
2219.584547	-2.982200	3.199800	-9.541200	27.370110	0.000327	20.779734
2220.581070	-2.994000	3.196900	-9.570800	27.409301	0.000328	20.778382
2221.579018	-2.986100	3.198200	-9.549000	27.401363	0.000327	20.792682
2222.578870	-3.031800	3.196800	-9.691000	27.401855	0.000325	20.778004
2223.582995	-3.003300	3.196300	-9.597700	27.426487	0.000326	20.782396
2224.582964	-2.995300	3.196000	-9.572400	27.439607	0.000324	20.763352
2225.581995	-2.995600	3.196700	-9.574900	27.444767	0.000322	20.786561
2226.582536	-3.028700	3.193000	-9.669500	27.467016	0.000322	20.804678
2227.581416	-2.998100	3.193600	-9.574000	27.421568	0.000323	20.782188
2228.580463	-2.979700	3.194700	-9.518900	27.441467	0.000320	20.797467
2229.584273	-2.995400	3.192600	-9.561700	27.448731	0.000319	20.807145
2230.583067	-2.982600	3.192800	-9.521800	27.453096	0.000318	20.794941
2231.581849	-2.981300	3.191800	-9.514600	27.473907	0.000319	20.769885
2232.586514	-3.011200	3.191000	-9.607800	27.496356	0.000318	20.782988
2233.583196	-3.002400	3.191200	-9.579800	27.488615	0.000317	20.791795
2234.582463	-2.995900	3.190100	-9.555800	27.504245	0.000318	20.795666
2235.588669	-2.978700	3.190700	-9.503000	27.445182	0.000318	20.777022
2236.583386	-3.002700	3.188900	-9.573300	27.434416	0.000316	20.771881
2237.584364	-2.992400	3.188100	-9.538700	27.432753	0.000316	20.811933
2238.583658	-2.994100	3.188400	-9.546100	27.452674	0.000314	20.777447
2239.584214	-2.997400	3.189400	-9.559000	27.430473	0.000316	20.790199
2240.585136	-2.987100	3.188600	-9.523500	27.421592	0.000314	20.801653
2241.585538	-3.010500	3.189300	-9.600700	27.399715	0.000313	20.805248
2242.587549	-3.004200	3.188000	-9.576500	27.417277	0.000313	20.790673
2243.583280	-2.984600	3.186500	-9.509700	27.416879	0.000311	20.811611
2244.588949	-2.995300	3.185200	-9.539500	27.427649	0.000311	20.806324
2245.586172	-3.018800	3.184300	-9.611600	27.450838	0.000310	20.792669
2246.585718	-2.991900	3.185900	-9.531100	27.481546	0.000310	20.792270
2247.586107	-2.988400	3.183800	-9.513700	27.545020	0.000311	20.798285
2248.585988	-2.998900	3.182700	-9.543600	27.552141	0.000312	20.782216
2249.586095	-2.991800	3.183900	-9.524600	27.597874	0.000308	20.798359
2250.586678	-2.982100	3.183600	-9.493100	27.606381	0.000308	20.805022
2251.587037	-2.983900	3.181900	-9.493600	27.625704	0.000308	20.817827
2252.591353	-3.021200	3.181600	-9.611600	27.631608	0.000307	20.802431
2253.586127	-2.995900	3.180800	-9.528700	27.579945	0.000308	20.791225
2254.586985	-3.030100	3.179800	-9.634400	27.558711	0.000306	20.791197
2255.591941	-3.035400	3.178500	-9.646800	27.534428	0.000306	20.773876
2256.586717	-2.989300	3.181800	-9.510400	27.524457	0.000305	20.789449
2257.587356	-3.008800	3.179300	-9.564800	27.512725	0.000306	20.784283
2258.591458	-2.991900	3.180300	-9.514200	27.507368	0.000304	20.787429
2259.588550	-3.007700	3.178000	-9.558000	27.509900	0.000306	20.797089
2260.585627	-3.006800	3.178600	-9.556500	27.513220	0.000302	20.818447
2261.590223	-2.986400	3.177200	-9.487700	27.567859	0.000304	20.816997
2262.589309	-2.974600	3.177500	-9.450300	27.595364	0.000302	20.817644
2263.588655	-3.001100	3.175000	-9.527500	27.571851	0.000302	20.801573
2264.590401	-3.003900	3.175900	-9.538700	27.559321	0.000302	20.809355
2265.589102	-2.986600	3.175500	-9.483000	27.601114	0.000298	20.812999
2266.585913	-2.993600	3.175000	-9.503300	27.614281	0.000298	20.813445
2267.588928	-3.005300	3.172800	-9.533700	27.645234	0.000301	20.809978
2268.588685	-2.995300	3.173500	-9.504000	27.673900	0.000298	20.825547
2269.587343	-2.987200	3.174000	-9.480500	27.694633	0.000297	20.821280
2270.588645	-3.002500	3.173700	-9.526800	27.717817	0.000294	20.820427
2271.587866	-2.988000	3.172700	-9.478300	27.742146	0.000296	20.823099
2272.588393	-3.021400	3.171400	-9.581100	27.710798	0.000295	20.810520
2273.592361	-3.002300	3.170000	-9.515900	27.680393	0.000293	20.818329
2274.589399	-3.001400	3.170300	-9.514400	27.683716	0.000295	20.824518
2275.589652	-3.015600	3.170500	-9.559300	27.691624	0.000293	20.796441
2276.590021	-2.984200	3.169100	-9.455900	27.732220	0.000293	20.824964
2277.590366	-3.021500	3.168200	-9.571900	27.764386	0.000291	20.800910
2278.590152	-2.987100	3.168900	-9.464900	27.736338	0.000292	20.828634
2279.590618	-3.019700	3.167100	-9.563200	27.705314	0.000293	20.834872
2280.589544	-3.007000	3.167900	-9.525300	27.669875	0.000291	20.824816
2281.590330	-2.987000	3.165800	-9.455600	27.614099	0.000289	20.825590
2282.589069	-2.991800	3.165600	-9.469300	27.602091	0.000291	20.832473
2283.595624	-3.001000	3.165300	-9.497400	27.595718	0.000289	20.818001
2284.591153	-3.001300	3.164900	-9.497700	27.615310	0.000288	20.836291
2285.590338	-2.991400	3.164300	-9.464100	27.633241	0.000289	20.814505
2286.590744	-3.008400	3.162600	-9.512600	27.664637	0.000287	20.847519
2287.592547	-3.030100	3.162700	-9.582100	27.660870	0.000289	20.829979
2288.591495	-2.996100	3.163300	-9.476000	27.632644	0.000288	20.834767
2289.594329	-3.000000	3.163000	-9.487100	27.542366	0.000289	20.825485
2290.592758	-3.009400	3.162200	-9.515300	27.547768	0.000285	20.842300
2291.592238	-2.990100	3.161100	-9.451400	27.554116	0.000287	20.850109
2292.594883	-3.019600	3.159700	-9.539800	27.592235	0.000285	20.842945
2293.600327	-2.989100	3.160600	-9.446500	27.618353	0.000285	20.840301
2294.598042	-3.005600	3.158500	-9.491300	27.614186	0.000285	20.833264
2295.593341	-3.018200	3.157500	-9.529100	27.610934	0.000285	20.831414
2296.594364	-2.995800	3.158600	-9.460100	27.617306	0.000285	20.833558
2297.599761	-2.968400	3.157800	-9.373200	27.623229	0.000282	20.841414
2298.596068	-2.992900	3.158400	-9.452200	27.616530	0.000285	20.840364
2299.601951	-2.969900	3.156800	-9.374500	27.636645	0.000281	20.854439
2300.597035	-2.973900	3.157800	-9.389400	27.678801	0.000281	20.837116
2301.596010	-3.010100	3.154900	-9.496000	27.724605	0.000281	20.862819
2302.607360	-2.999900	3.153000	-9.457500	27.758527	0.000280	20.839583
2303.597623	-3.005800	3.154600	-9.481500	27.787563	0.000280	20.855527
2304.597641	-2.999700	3.153100	-9.457500	27.771716	0.000280	20.830572
2305.603457	-3.022600	3.153100	-9.527900	27.783073	0.000277	20.834414
2306.600214	-3.002600	3.151700	-9.462200	27.744481	0.000278	20.854846
2307.603105	-2.968700	3.152600	-9.357400	27.693821	0.000277	20.844644
2308.598458	-3.004800	3.150800	-9.466900	27.661330	0.000276	20.865053
2309.599957	-2.992600	3.151700	-9.429900	27.664527	0.000274	20.848357
2310.600442	-2.993300	3.149100	-9.424700	27.677299	0.000274	20.847932
2311.598932	-2.978600	3.150000	-9.381600	27.671866	0.000274	20.837724
2312.599205	-3.020400	3.147500	-9.506300	27.671992	0.000273	20.844489
2313.604434	-3.003200	3.148400	-9.454400	27.713156	0.000273	20.842289
2314.602037	-3.010800	3.146300	-9.471000	27.740065	0.000271	20.858936
2315.602737	-3.001100	3.147300	-9.444200	27.773666	0.000272	20.851025
2316.601702	-3.035000	3.145300	-9.544100	27.767963	0.000274	20.853820
2317.604804	-3.021800	3.144200	-9.500500	27.818699	0.000271	20.866947
2318.601855	-3.024000	3.142900	-9.503700	27.784675	0.000270	20.864474
2319.601706	-3.014700	3.143900	-9.477100	27.751028	0.000270	20.857167
2320.601223	-3.000300	3.141200	-9.424300	27.736992	0.000268	20.881446
2321.600519	-2.986400	3.144100	-9.388400	27.742421	0.000270	20.862729
2322.603564	-2.985900	3.141600	-9.380100	27.774956	0.000269	20.877926
2323.604049	-2.992000	3.141600	-9.398700	27.790233	0.000268	20.856318
2324.603370	-2.992000	3.139700	-9.391900	27.826708	0.000268	20.864102
2325.604249	-2.989700	3.139800	-9.385600	27.831746	0.000268	20.863482
2326.605733	-3.013700	3.138900	-9.458000	27.866880	0.000265	20.859488
2327.605822	-2.986900	3.138700	-9.375000	27.873577	0.000268	20.860538
2328.606694	-3.012900	3.137300	-9.450900	27.871394	0.000265	20.869720
2329.605769	-3.013400	3.136900	-9.451300	27.854982	0.000265	20.865056
2330.606206	-3.005200	3.135700	-9.422800	27.869956	0.000265	20.883445
2331.607335	-2.989700	3.135600	-9.374500	27.870852	0.000267	20.864433
2332.605888	-3.018500	3.133100	-9.456300	27.921408	0.000265	20.857944
2333.605790	-2.992900	3.133300	-9.376600	27.925601	0.000263	20.867380
2334.606453	-2.986700	3.132700	-9.355100	27.897508	0.000263	20.858545
2335.609254	-2.980600	3.133300	-9.337700	27.860860	0.000263	20.868127
2336.607069	-2.992700	3.131700	-9.370100	27.859822	0.000263	20.882255
2337.612242	-2.990300	3.132500	-9.364700	27.873164	0.000264	20.877191
2338.608983	-2.985000	3.130900	-9.344400	27.893647	0.000262	20.891167
2339.612828	-3.008300	3.130500	-9.415800	27.884178	0.000262	20.882112
2340.612869	-2.984000	3.129200	-9.336600	27.892806	0.000259	20.883683
2341.608177	-2.986600	3.126800	-9.337200	27.866873	0.000261	20.874653
2342.610867	-2.998800	3.127000	-9.376600	27.885619	0.000260	20.872183
2343.607115	-3.007800	3.125900	-9.400800	27.885868	0.000259	20.884287
2344.609958	-3.035700	3.125500	-9.486600	27.865783	0.000259	20.865970
2345.612436	-2.968700	3.127000	-9.282600	27.853857	0.000260	20.879571
2346.608877	-2.991200	3.125200	-9.346100	27.820013	0.000259	20.872536
2347.610030	-2.990600	3.122800	-9.338500	27.824152	0.000260	20.885709
2348.613357	-2.984700	3.123200	-9.321200	27.801463	0.000258	20.874256
2349.611791	-2.992800	3.122200	-9.343200	27.796163	0.000259	20.894051
2350.613617	-2.992600	3.121200	-9.339800	27.823489	0.000257	20.876983
2351.612532	-2.998900	3.121800	-9.361100	27.849623	0.000257	20.884318
2352.611678	-3.002400	3.119800	-9.365200	27.899638	0.000259	20.882973
2353.612034	-3.000700	3.119400	-9.359300	27.913275	0.000256	20.902861
2354.613198	-3.008600	3.117600	-9.378100	27.884193	0.000256	20.902988
2355.611312	-2.989100	3.118100	-9.319500	27.845586	0.000256	20.891634
2356.614478	-3.008400	3.116400	-9.373500	27.818956	0.000257	20.901342
2357.612156	-3.002900	3.116100	-9.355600	27.768916	0.000257	20.888442
2358.612463	-3.017500	3.115300	-9.400200	27.796443	0.000255	20.906660
2359.618641	-2.997000	3.114700	-9.333600	27.784021	0.000255	20.889892
2360.613400	-2.992300	3.114400	-9.318900	27.823526	0.000256	20.887924
2361.613565	-2.993900	3.112500	-9.316300	27.861512	0.000255	20.893911
2362.615109	-2.979400	3.113000	-9.273500	27.934905	0.000254	20.893812
2363.614147	-3.008100	3.111700	-9.359200	27.946759	0.000255	20.911906
2364.615289	-2.988800	3.110900	-9.297300	27.950802	0.000254	20.905070
2365.615607	-2.982100	3.109900	-9.273300	27.914750	0.000254	20.887277
2366.613328	-2.986500	3.108900	-9.283400	27.882398	0.000253	20.875579
2367.615915	-3.005800	3.109000	-9.343700	27.871457	0.000252	20.908187
2368.614087	-2.980000	3.107100	-9.257900	27.861764	0.000254	20.904122
2369.612538	-3.016300	3.106000	-9.367700	27.845152	0.000252	20.895464
2370.613502	-3.005800	3.105300	-9.333300	27.853235	0.000252	20.885582
2371.614089	-2.983200	3.106000	-9.264200	27.871584	0.000253	20.899306
2372.612774	-2.992800	3.104200	-9.288200	27.927026	0.000251	20.894416
2373.612722	-2.965800	3.104400	-9.206000	27.966323	0.000253	20.909312
2374.614830	-2.972700	3.102800	-9.222400	27.991514	0.000251	20.886781
2375.617132	-2.958800	3.104100	-9.183500	27.987025	0.000249	20.895064
2376.614290	-3.004400	3.100100	-9.313100	28.037849	0.000252	20.902126
2377.613842	-3.015400	3.099800	-9.345400	28.013678	0.000248	20.888702
2378.613966	-3.003900	3.098200	-9.305500	28.032126	0.000250	20.899684
2379.613402	-2.967800	3.099200	-9.196800	28.042415	0.000248	20.861680
2380.615666	-2.977900	3.099500	-9.228100	28.029250	0.000250	20.877351
2381.616776	-3.005600	3.097300	-9.308500	28.060736	0.000250	20.862105
2382.614024	-3.011700	3.097200	-9.325000	28.059224	0.000250	20.881445
2383.616181	-2.992700	3.096100	-9.264500	28.047726	0.000248	20.879353
2384.619585	-2.990900	3.093900	-9.252200	28.030122	0.000247	20.870642
2385.614688	-3.016300	3.092200	-9.325400	27.990005	0.000248	20.868668
2386.616090	-3.002200	3.092200	-9.281500	28.001735	0.000244	20.879526
2387.618979	-3.008400	3.090300	-9.296100	27.972231	0.000248	20.864054
2388.619241	-3.000400	3.091400	-9.274800	27.957603	0.000248	20.881572
2389.617041	-2.990900	3.089500	-9.239200	27.921702	0.000246	20.869619
2390.620601	-3.009300	3.087300	-9.289900	27.964423	0.000247	20.869945
2391.619906	-2.990100	3.088500	-9.233000	27.994001	0.000248	20.881225
2392.617791	-2.999100	3.086700	-9.256300	27.995291	0.000247	20.867351
2393.618680	-3.001300	3.086100	-9.261200	27.951556	0.000247	20.883071
2394.617782	-3.002300	3.086000	-9.263100	27.925520	0.000247	20.893375
2395.618199	-2.977900	3.085700	-9.187000	27.928396	0.000246	20.866874
2396.616007	-2.985400	3.083900	-9.205200	27.925742	0.000245	20.876530
2397.620598	-3.003900	3.082800	-9.259300	27.929809	0.000245	20.866874
2398.618831	-2.983900	3.081800	-9.195100	27.965935	0.000244	20.850605
2399.619175	-2.973300	3.081000	-9.160000	28.015344	0.000244	20.852923
2400.619036	-2.998500	3.080200	-9.234800	28.030839	0.000245	20.859985
2401.619704	-2.988200	3.078700	-9.198800	28.016760	0.000243	20.871417
2402.619113	-3.002900	3.078400	-9.242800	28.042067	0.000243	20.876502
2403.625095	-3.022400	3.076100	-9.296600	28.064329	0.000242	20.852446
2404.622937	-2.982200	3.076300	-9.172000	28.065520	0.000244	20.861231
2405.622488	-3.005800	3.074000	-9.238800	28.095616	0.000241	20.867819
2406.622410	-2.996700	3.073500	-9.209900	28.126900	0.000242	20.881293
2407.623911	-2.996400	3.073000	-9.206700	28.084878	0.000241	20.867441
2408.627498	-2.974600	3.072500	-9.138700	28.078854	0.000242	20.851420
2409.622503	-3.006600	3.070600	-9.231000	28.118148	0.000242	20.850199
2410.626759	-2.999100	3.070400	-9.207600	28.086836	0.000241	20.859929
2411.625886	-2.986700	3.068300	-9.163300	28.090186	0.000240	20.875628
2412.622981	-3.035700	3.066000	-9.306500	28.082523	0.000241	20.841364
2413.628559	-3.003100	3.066800	-9.207400	28.063162	0.000240	20.861702
2414.629069	-3.005700	3.066500	-9.215700	28.073943	0.000239	20.863072
2415.629230	-3.011400	3.065100	-9.229600	28.067995	0.000240	20.869886
2416.623003	-3.007200	3.063900	-9.213600	28.087532	0.000239	20.843087
2417.627335	-3.018500	3.062300	-9.242700	28.113087	0.000237	20.847949
2418.624700	-3.003700	3.061400	-9.194400	28.183640	0.000241	20.842638
2419.624326	-2.993700	3.061700	-9.164200	28.199478	0.000238	20.860478
2420.626270	-2.995900	3.060300	-9.167100	28.219160	0.000238	20.845681
2421.626077	-3.000800	3.058200	-9.175800	28.219138	0.000237	20.865572
2422.625182	-2.991800	3.057800	-9.147300	28.253121	0.000237	20.835302
2423.624866	-3.007300	3.056900	-9.190600	28.265039	0.000238	20.859155
2424.628603	-2.971700	3.056300	-9.080700	28.224642	0.000237	20.843140
2425.625623	-3.020100	3.053600	-9.221200	28.165201	0.000238	20.849204
2426.625749	-3.053800	3.052300	-9.318600	28.139176	0.000237	20.842919
2427.627029	-3.006400	3.052300	-9.175400	28.067977	0.000238	20.839523
2428.626248	-3.004800	3.051600	-9.168100	28.045912	0.000237	20.863304
2429.625052	-3.014000	3.050700	-9.193900	28.029527	0.000238	20.844441
2430.628789	-2.997200	3.048900	-9.137300	28.045195	0.000236	20.847884
2431.626445	-2.999200	3.047500	-9.139200	28.082782	0.000235	20.859641
2432.628681	-3.001000	3.046500	-9.141300	28.116301	0.000237	20.845020
2433.629567	-2.999400	3.046300	-9.136400	28.144062	0.000235	20.833613
2434.628848	-3.023700	3.042700	-9.198800	28.110030	0.000236	20.825906
2435.625870	-2.985800	3.043700	-9.086900	28.092454	0.000235	20.829551
2436.630903	-3.003600	3.043100	-9.139500	28.044952	0.000235	20.834363
2437.629183	-3.016700	3.040800	-9.172600	27.985975	0.000235	20.834741
2438.627531	-2.983200	3.042100	-9.073500	27.978955	0.000235	20.851383
2439.629628	-3.011500	3.039100	-9.150800	27.987687	0.000235	20.844525
2440.628369	-3.004100	3.037800	-9.125000	28.028767	0.000234	20.849365
2441.627116	-3.019100	3.036000	-9.165500	28.081350	0.000234	20.843028
2442.629011	-3.018000	3.035100	-9.159400	28.108675	0.000236	20.843034
2443.631780	-3.009900	3.034100	-9.130700	28.144893	0.000234	20.843933
2444.628061	-3.013000	3.034200	-9.139800	28.141196	0.000236	20.847323
2445.630031	-2.990400	3.033200	-9.069100	28.170154	0.000237	20.832380
2446.634875	-3.017600	3.029900	-9.142100	28.167352	0.000235	20.840939
2447.630710	-3.015600	3.029800	-9.136200	28.143951	0.000234	20.850096
2448.628993	-2.976600	3.029700	-9.016900	28.117652	0.000234	20.827889
2449.632531	-3.004300	3.026700	-9.091900	28.168821	0.000235	20.831038
2450.628724	-3.013800	3.025000	-9.115000	28.158114	0.000235	20.850130
2451.627831	-3.010500	3.025200	-9.106600	28.193983	0.000233	20.829817
2452.631790	-3.001000	3.023300	-9.072000	28.189298	0.000231	20.844540
2453.627878	-3.012700	3.022200	-9.104000	28.208038	0.000235	20.833062
2454.628958	-2.979800	3.022900	-9.006800	28.239220	0.000233	20.836006
2455.633889	-2.996700	3.021100	-9.052300	28.202562	0.000232	20.824704
2456.629475	-3.005500	3.018300	-9.070000	28.227473	0.000233	20.839352
2457.631464	-2.999700	3.017900	-9.051400	28.271668	0.000234	20.833114
2458.632710	-2.990100	3.016700	-9.018900	28.289767	0.000232	20.822888
2459.628246	-2.984600	3.015500	-8.998300	28.313088	0.000230	20.811282
2460.630958	-3.009000	3.013500	-9.066500	28.291004	0.000230	20.821763
2461.633416	-2.995800	3.012900	-9.025400	28.268901	0.000232	20.812311
2462.631450	-2.995700	3.011600	-9.020200	28.261342	0.000231	20.816553
2463.630765	-3.014200	3.009700	-9.070200	28.241660	0.000231	20.820446
2464.634330	-2.977900	3.010200	-8.963500	28.232195	0.000232	20.853115
2465.630623	-2.994700	3.008000	-9.007300	28.249368	0.000231	20.828680
2466.630938	-3.008700	3.006500	-9.043200	28.277655	0.000230	20.823021
2467.632407	-2.994000	3.004900	-8.994700	28.337437	0.000234	20.800711
2468.636847	-3.008800	3.003500	-9.036000	28.321876	0.000230	20.813492
2469.631892	-3.021900	3.002300	-9.070100	28.321728	0.000230	20.835627
2470.635886	-2.984600	3.001400	-8.956400	28.299472	0.000230	20.808477
2471.637670	-2.975800	3.000300	-8.927500	28.330854	0.000229	20.789815
2472.638273	-2.996900	2.999000	-8.986900	28.297742	0.000231	20.811951
2473.636798	-3.006600	2.998500	-9.012600	28.282152	0.000230	20.789617
2474.636674	-2.994900	2.996400	-8.972600	28.293334	0.000232	20.800401
2475.635848	-2.985500	2.996000	-8.943700	28.319435	0.000230	20.810086
2476.635821	-2.990800	2.995000	-8.956900	28.329869	0.000231	20.818695
2477.636226	-2.979200	2.993900	-8.918700	28.327296	0.000231	20.821320
2478.636445	-3.008200	2.991300	-8.996900	28.304467	0.000228	20.810662
2479.636474	-2.976400	2.991000	-8.901700	28.282439	0.000232	20.810294
2480.636530	-2.986000	2.989200	-8.925100	28.327549	0.000230	20.818729
2481.638938	-3.015400	2.988300	-9.010000	28.346708	0.000231	20.819529
2482.638498	-2.999700	2.986100	-8.956500	28.341405	0.000230	20.816086
2483.635897	-3.006300	2.984500	-8.971500	28.306188	0.000230	20.806705
2484.636619	-2.996700	2.982600	-8.935800	28.270696	0.000232	20.798945
2485.639257	-3.000100	2.980700	-8.941400	28.275012	0.000230	20.785272
2486.640956	-3.019400	2.981500	-9.000600	28.294643	0.000231	20.824952
2487.639825	-2.987000	2.979100	-8.897100	28.320100	0.000229	20.791789
2488.638787	-2.999800	2.976400	-8.926600	28.336065	0.000228	20.806916
2489.640175	-2.996600	2.976100	-8.917400	28.371014	0.000230	20.795164
2490.639585	-3.017600	2.975000	-8.976400	28.404523	0.000229	20.807570
2491.638934	-2.990400	2.975200	-8.895900	28.435204	0.000228	20.804799
2492.640078	-2.996400	2.971400	-8.902700	28.412134	0.000229	20.794845
2493.643319	-3.005900	2.970800	-8.928700	28.429880	0.000229	20.794697
2494.641326	-2.994800	2.969100	-8.889900	28.421703	0.000230	20.782195
2495.640728	-2.982300	2.968000	-8.850500	28.405545	0.000228	20.821401
2496.642086	-2.983800	2.966100	-8.848400	28.319975	0.000229	20.805413
2497.642544	-3.025900	2.964500	-8.968900	28.275705	0.000229	20.796401
2498.644399	-3.005200	2.963300	-8.904600	28.249486	0.000229	20.795134
2499.643904	-2.988800	2.962800	-8.854000	28.220090	0.000228	20.780237
2500.647038	-3.023100	2.960200	-8.948300	28.228247	0.000231	20.797933
2501.644395	-2.988700	2.958300	-8.840200	28.258637	0.000228	20.798184
2502.645425	-3.010700	2.957600	-8.902800	28.265736	0.000229	20.782097
2503.645413	-3.037600	2.955200	-8.974900	28.227189	0.000227	20.787858
2504.643973	-3.010000	2.954100	-8.891200	28.252475	0.000228	20.797670
2505.649073	-3.029400	2.950700	-8.937300	28.305842	0.000228	20.789287
2506.647563	-2.996600	2.951900	-8.845000	28.320345	0.000227	20.779708
2507.646248	-2.990700	2.950500	-8.822700	28.272458	0.000227	20.794081
2508.644842	-3.012700	2.947200	-8.876500	28.305005	0.000228	20.787496
2509.647027	-2.968600	2.948700	-8.752800	28.338545	0.000227	20.799455
2510.651221	-2.992700	2.945300	-8.813500	28.375475	0.000228	20.794915
2511.646500	-2.989900	2.945200	-8.804900	28.408240	0.000226	20.779070
2512.647415	-2.976400	2.942000	-8.755400	28.390574	0.000228	20.775506
2513.651967	-2.975700	2.940800	-8.748800	28.414266	0.000227	20.787509
2514.651074	-3.012900	2.938500	-8.852400	28.463137	0.000228	20.799263
2515.648408	-2.988200	2.938200	-8.778700	28.472659	0.000227	20.760962
2516.650638	-2.982500	2.936400	-8.755900	28.476057	0.000229	20.786195
2517.651045	-2.988700	2.935000	-8.770300	28.506391	0.000228	20.781181
2518.648297	-2.988700	2.932900	-8.762600	28.441192	0.000229	20.778587
2519.651078	-2.997000	2.931700	-8.784900	28.374925	0.000228	20.788672
2520.653066	-3.012100	2.929500	-8.822500	28.250729	0.000230	20.766513
2521.651519	-2.984100	2.929500	-8.740800	28.220170	0.000229	20.767989
2522.654274	-3.021800	2.925800	-8.839800	28.263672	0.000228	20.768640
2523.654799	-2.979600	2.926300	-8.718900	28.293440	0.000228	20.770161
2524.652658	-3.004300	2.923400	-8.781600	28.313945	0.000230	20.771367
2525.653502	-2.987700	2.923000	-8.732300	28.335678	0.000230	20.761007
2526.653711	-3.006800	2.918700	-8.774300	28.388766	0.000228	20.778427
2527.653776	-2.996400	2.918900	-8.745800	28.453005	0.000228	20.760136
2528.654290	-2.959300	2.917900	-8.634600	28.469657	0.000229	20.775009
2529.658753	-3.007800	2.914700	-8.766200	28.510890	0.000229	20.776704
2530.654723	-3.008900	2.913400	-8.764900	28.499791	0.000229	20.765999
2531.655866	-3.010700	2.910500	-8.762100	28.476649	0.000229	20.763083
2532.657174	-2.986800	2.909400	-8.689200	28.472879	0.000230	20.774934
2533.656854	-3.026900	2.906500	-8.795600	28.444628	0.000229	20.760235
2534.658309	-2.985600	2.906400	-8.676200	28.410177	0.000229	20.760632
2535.660076	-3.014300	2.903300	-8.749900	28.313492	0.000230	20.756686
2536.658533	-2.950400	2.903800	-8.566300	28.338922	0.000230	20.777075
2537.659404	-3.005200	2.900900	-8.716500	28.365563	0.000230	20.771658
2538.659757	-3.015600	2.898100	-8.738900	28.417754	0.000231	20.748820
2539.660860	-3.048400	2.895400	-8.824400	28.464738	0.000231	20.760098
2540.664300	-3.003900	2.895200	-8.695400	28.454106	0.000231	20.756977
2541.659737	-3.004100	2.894600	-8.694800	28.403101	0.000231	20.767257
2542.660183	-2.997000	2.891300	-8.663700	28.361709	0.000230	20.763510
2543.659462	-3.036400	2.889100	-8.771300	28.329435	0.000230	20.771316
2544.659980	-3.010100	2.889600	-8.696700	28.310078	0.000230	20.741394
2545.666639	-3.010700	2.887100	-8.691200	28.362026	0.000231	20.778054
2546.659497	-3.021900	2.885000	-8.715600	28.399223	0.000226	20.778525
2547.661978	-3.013800	2.884100	-8.689800	28.382711	0.000226	20.760475
2548.660408	-3.023100	2.882300	-8.712400	28.353118	0.000227	20.754859
2549.660137	-3.002600	2.879200	-8.644000	28.336507	0.000229	20.757574
2550.664307	-2.992500	2.878400	-8.612100	28.286688	0.000228	20.759570
2551.661399	-2.991000	2.875600	-8.600300	28.259075	0.000227	20.757847
2552.660495	-2.999900	2.873800	-8.618900	28.217727	0.000228	20.763158
2553.659753	-3.005500	2.871900	-8.630400	28.204980	0.000227	20.770240
2554.659768	-3.011900	2.870000	-8.642900	28.223670	0.000228	20.762978
2555.660587	-2.985100	2.868900	-8.562600	28.284619	0.000227	20.759857
2556.663579	-3.002500	2.866000	-8.604100	28.293096	0.000229	20.758435
2557.659989	-3.007200	2.865200	-8.613900	28.291926	0.000227	20.766740
2558.664550	-2.990600	2.862200	-8.558600	28.270488	0.000226	20.747526
2559.661536	-3.024600	2.859600	-8.647600	28.243419	0.000227	20.760576
2560.659978	-2.991200	2.857400	-8.545900	28.226240	0.000227	20.760350
2561.665134	-2.968900	2.856700	-8.479900	28.254990	0.000227	20.776019
2562.662742	-3.005300	2.853300	-8.574000	28.216618	0.000227	20.752084
2563.662313	-2.995200	2.851500	-8.539500	28.256972	0.000225	20.760471
2564.680378	-3.015500	2.849900	-8.592600	28.293776	0.000227	20.763387
2565.664379	-3.005400	2.847300	-8.556300	28.314324	0.000227	20.767481
2566.664278	-2.995200	2.845300	-8.521600	28.341560	0.000227	20.738953
2567.667939	-3.012800	2.843200	-8.565300	28.335038	0.000226	20.759888
2568.663751	-2.983200	2.842900	-8.479800	28.375116	0.000226	20.752828
2569.663323	-3.004200	2.838500	-8.525600	28.421607	0.000227	20.766452
2570.664042	-3.001300	2.838300	-8.517800	28.438805	0.000227	20.754371
2571.663914	-2.985400	2.836300	-8.467000	28.407580	0.000228	20.759438
2572.665307	-3.000200	2.834200	-8.502100	28.406065	0.000226	20.752698
2573.663428	-2.964400	2.833100	-8.397300	28.421112	0.000227	20.758366
2574.666545	-2.997600	2.829800	-8.481000	28.465496	0.000226	20.747584
2575.665538	-3.015000	2.826200	-8.519600	28.509109	0.000225	20.739821
2576.665257	-3.000300	2.824700	-8.473700	28.528416	0.000227	20.756894
2577.667650	-2.973400	2.823000	-8.393000	28.525861	0.000224	20.755270
2578.670496	-2.997000	2.820200	-8.451300	28.472682	0.000227	20.761933
2579.667588	-2.988100	2.818900	-8.422300	28.461603	0.000227	20.745086
2580.666110	-2.989200	2.815300	-8.414500	28.453324	0.000226	20.763303
2581.665932	-2.985500	2.813100	-8.397200	28.511761	0.000226	20.762407
2582.667192	-3.005200	2.810100	-8.443900	28.526381	0.000226	20.754371
2583.670050	-3.006200	2.808100	-8.439700	28.544023	0.000227	20.750327
2584.668878	-3.013000	2.805400	-8.451300	28.491266	0.000227	20.743664
2585.671175	-3.020300	2.803400	-8.466200	28.488315	0.000225	20.760607
2586.671671	-2.999800	2.800700	-8.400100	28.451093	0.000226	20.744934
2587.671785	-3.021200	2.797500	-8.450800	28.481994	0.000226	20.749499
2588.675304	-3.002600	2.794500	-8.390100	28.483582	0.000227	20.738296
2589.671772	-3.016200	2.793400	-8.424000	28.465443	0.000225	20.722874
2590.673797	-3.025800	2.789000	-8.437400	28.447973	0.000227	20.727566
2591.670737	-2.977700	2.788800	-8.302300	28.416151	0.000225	20.736774
2592.672374	-3.000300	2.784200	-8.352800	28.411568	0.000226	20.744962
2593.673364	-3.011600	2.782400	-8.378700	28.462024	0.000226	20.729389
2594.676754	-3.000600	2.779500	-8.339200	28.517980	0.000227	20.741169
2595.673049	-3.007100	2.778300	-8.353600	28.573287	0.000226	20.758462
2596.674777	-2.999300	2.774300	-8.319900	28.600920	0.000226	20.748833
2597.675470	-2.956600	2.773600	-8.199100	28.592639	0.000226	20.739545
2598.680569	-2.974400	2.769300	-8.235500	28.544125	0.000226	20.748532
2599.678451	-2.971100	2.767800	-8.222000	28.476670	0.000225	20.741293
2600.676020	-2.981200	2.763500	-8.236600	28.470331	0.000227	20.756721
2601.677254	-2.973100	2.762000	-8.210700	28.518848	0.000226	20.730663
2602.676602	-2.992600	2.756500	-8.248400	28.543900	0.000224	20.741194
2603.675093	-3.001800	2.754600	-8.268400	28.594178	0.000227	20.735878
2604.678295	-2.968300	2.753400	-8.172300	28.632487	0.000225	20.745065
2605.678097	-3.014200	2.746400	-8.276800	28.628151	0.000227	20.745914
2606.676022	-2.995300	2.744800	-8.220300	28.703867	0.000224	20.728766
2607.677045	-2.974100	2.742900	-8.156500	28.719008	0.000224	20.731688
2608.675928	-2.994400	2.739500	-8.202200	28.747596	0.000226	20.727768
2609.675561	-3.033700	2.734400	-8.294400	28.713531	0.000227	20.741346
2610.679768	-2.970800	2.733100	-8.118400	28.676988	0.000223	20.742945
2611.677285	-2.972900	2.731200	-8.118600	28.702163	0.000225	20.748861
2612.682598	-2.967500	2.728700	-8.096600	28.721460	0.000226	20.744590
2613.679256	-2.967000	2.723800	-8.080300	28.732760	0.000225	20.734636
2614.678929	-2.998400	2.720700	-8.156900	28.779833	0.000225	20.744119
2615.686316	-2.998700	2.716200	-8.144500	28.813105	0.000226	20.730694
2616.683599	-3.011700	2.713800	-8.172400	28.789594	0.000227	20.725977
2617.680426	-2.989200	2.709300	-8.097300	28.742403	0.000225	20.743875
2618.681212	-2.981200	2.706900	-8.068700	28.773793	0.000226	20.739458
2619.682230	-2.988400	2.702900	-8.076500	28.796458	0.000225	20.732417
2620.682099	-3.015100	2.698900	-8.135700	28.848410	0.000227	20.737810
2621.682865	-2.994600	2.695100	-8.069700	28.879945	0.000226	20.739706
2622.682181	-2.995800	2.691300	-8.061500	28.930579	0.000225	20.746146
2623.683982	-3.011800	2.686400	-8.088300	28.911928	0.000226	20.719295
2624.690552	-2.996700	2.684500	-8.043300	28.881904	0.000225	20.746422
2625.688530	-3.001100	2.677700	-8.034300	28.820473	0.000224	20.732427
2626.689299	-2.983700	2.676000	-7.983400	28.807195	0.000225	20.738492
2627.686885	-3.000100	2.672100	-8.015700	28.793102	0.000224	20.730459
2628.689795	-2.979300	2.667600	-7.945000	28.774646	0.000225	20.727514
2629.687361	-2.997300	2.662800	-7.980600	28.763644	0.000227	20.724967
2630.687610	-3.003200	2.659600	-7.986000	28.801329	0.000227	20.742065
2631.688497	-3.019900	2.655500	-8.017900	28.842627	0.000226	20.740519
2632.689770	-2.988500	2.651000	-7.921300	28.857393	0.000227	20.736428
2633.692081	-3.004000	2.646800	-7.949900	28.842974	0.000226	20.731385
2634.693027	-3.016200	2.642600	-7.969500	28.876417	0.000226	20.732359
2635.689957	-3.016300	2.638500	-7.957700	28.888260	0.000227	20.733385
2636.693348	-3.016500	2.633300	-7.942500	28.936368	0.000228	20.738703
2637.689949	-3.016800	2.628300	-7.928300	28.965625	0.000227	20.732616
2638.692883	-3.020300	2.623600	-7.922300	29.025467	0.000226	20.726052
2639.689898	-2.978100	2.619800	-7.801100	29.061628	0.000226	20.755377
2640.690841	-2.974600	2.615700	-7.779600	29.053210	0.000227	20.740256
2641.693785	-2.973000	2.610800	-7.761000	29.033221	0.000227	20.761367
2642.694789	-2.978900	2.605800	-7.760500	29.033347	0.000228	20.762443
2643.690596	-3.014600	2.599600	-7.835800	29.033495	0.000226	20.732244
2644.691947	-2.974500	2.595500	-7.719100	28.969814	0.000228	20.723560
2645.690912	-2.978200	2.590200	-7.712200	28.918712	0.000227	20.727552
2646.690524	-2.997500	2.584000	-7.743800	28.908157	0.000227	20.730670
2647.696491	-2.981600	2.580000	-7.691300	28.945492	0.000226	20.755956
2648.691616	-2.965600	2.575700	-7.636100	28.992152	0.000227	20.738006
2649.695827	-3.008600	2.568300	-7.725700	29.008922	0.000229	20.749687
2650.691831	-2.975200	2.562400	-7.622500	29.071858	0.000228	20.746243
2651.691046	-2.976100	2.557000	-7.609200	29.124836	0.000228	20.762641
2652.693653	-2.977600	2.552500	-7.599200	29.162778	0.000228	20.742552
2653.692619	-2.996400	2.545000	-7.624900	29.184816	0.000228	20.751484
2654.691525	-2.994100	2.540500	-7.605300	29.189026	0.000229	20.741502
2655.694044	-3.003600	2.533200	-7.608200	29.155917	0.000229	20.749863
2656.695494	-2.989300	2.527600	-7.554200	29.158909	0.000228	20.758569
2657.700121	-2.967500	2.522200	-7.483900	29.185283	0.000229	20.748162
2658.694652	-2.999000	2.515400	-7.542500	29.233971	0.000229	20.766406
2659.695333	-3.015000	2.507000	-7.556400	29.284188	0.000229	20.769124
2660.696290	-3.012300	2.501900	-7.535000	29.308675	0.000228	20.770568
2661.696545	-3.010700	2.497600	-7.518400	29.332128	0.000229	20.743944
