LabVIEW Measurement	
Writer_Version	2
Reader_Version	2
Separator	Tab
Decimal_Separator	.
Multi_Headings	No
X_Columns	One
Time_Pref	Absolute
Operator	admin
Description	Clolumns are: time, Current, Voltage, Power, Battery Temp, and Chamber Temp
Date	2024/08/16
Time	13:06:06.104549407958984375
***End_of_Header***	
	
Channels	6						
Samples	1	1	1	1	1	1	
Date	2024/09/10	2024/09/10	2024/09/10	2024/09/10	2024/09/10	2024/09/10	
Time	14:15:02.5764136314392089844	14:15:02.5844621658325195313	14:15:02.5914602279663085938	14:15:02.5549721717834472656	14:15:02.5549721717834472656	14:15:02.5549721717834472656	
X_Dimension	Time	Time	Time	Time	Time	Time	
X0	0.0000000000000000E+0	0.0000000000000000E+0	0.0000000000000000E+0	0.0000000000000000E+0	0.0000000000000000E+0	0.0000000000000000E+0	
Delta_X	1.000000	1.000000	1.000000	1.000000	1.000000	1.000000	
***End_of_Header***							
X_Value	Untitled	Untitled 1	Untitled 2	Untitled 3	Untitled 4	Untitled 5	Comment
0.000000	0.011896	4.098800	0.048769	20.986274	0.000913	20.783826
0.996377	-2.979300	3.923600	-11.687000	20.974951	0.000914	20.787674
1.998155	-2.999100	3.915700	-11.742000	20.984858	0.000912	20.780038
2.993354	-2.973600	3.911600	-11.630000	20.954061	0.000912	20.774368
3.998959	-2.994900	3.906700	-11.699000	20.995361	0.000912	20.790070
4.997222	-2.979100	3.903800	-11.628000	20.983978	0.000913	20.800496
5.999207	-3.012900	3.899700	-11.748000	20.995287	0.000910	20.785254
6.995054	-3.014000	3.896400	-11.743000	20.981865	0.000909	20.788899
8.002518	-2.997400	3.895100	-11.675000	21.002922	0.000909	20.793838
8.999881	-3.004700	3.893000	-11.696000	21.007342	0.000910	20.784509
10.001257	-3.020200	3.890400	-11.749000	21.008443	0.000906	20.760006
11.001894	-3.016900	3.887500	-11.726000	20.985614	0.000906	20.780321
11.998866	-3.029000	3.887200	-11.774000	20.995693	0.000905	20.775228
12.997103	-3.022500	3.885200	-11.742000	21.000028	0.000904	20.773400
13.996372	-3.020000	3.885100	-11.732000	20.999633	0.000905	20.782014
14.999283	-3.027800	3.883100	-11.756000	21.012266	0.000902	20.777106
15.996895	-3.001500	3.882800	-11.652000	20.991752	0.000902	20.794047
16.998097	-3.010600	3.881200	-11.684000	21.010647	0.000900	20.767425
17.999199	-2.999300	3.880300	-11.638000	21.017086	0.000904	20.770547
19.000465	-3.014000	3.879600	-11.692000	21.005585	0.000902	20.776588
20.000537	-2.993300	3.877900	-11.607000	21.016365	0.000899	20.770774
21.002450	-3.016500	3.875900	-11.691000	21.057806	0.000899	20.759592
22.002442	-3.017800	3.875900	-11.696000	21.056211	0.000901	20.790240
22.998381	-3.007700	3.876100	-11.658000	21.051495	0.000900	20.761340
24.000657	-3.023000	3.876000	-11.716000	21.060581	0.000899	20.773274
25.001446	-2.997200	3.874000	-11.609000	21.060581	0.000898	20.776119
26.000114	-3.001700	3.873200	-11.625000	21.058937	0.000898	20.764043
26.998891	-2.976300	3.875000	-11.531000	21.068615	0.000897	20.781784
28.014676	-2.999000	3.871800	-11.610000	21.083439	0.000895	20.767688
29.002867	-3.010300	3.871800	-11.655000	21.077104	0.000897	20.765145
30.012076	-2.994800	3.871500	-11.593000	21.086585	0.000897	20.766567
31.004041	-3.004700	3.869300	-11.624000	21.095794	0.000896	20.774831
32.000689	-3.009800	3.869200	-11.644000	21.092052	0.000897	20.778199
33.003692	-3.006100	3.869300	-11.631000	21.084215	0.000894	20.764196
34.012998	-3.001600	3.867200	-11.606000	21.112114	0.000895	20.761757
35.004802	-3.015200	3.867300	-11.659000	21.121145	0.000894	20.748031
36.000272	-3.000600	3.867100	-11.602000	21.124137	0.000895	20.769516
37.022289	-2.982400	3.868500	-11.537000	21.118455	0.000893	20.764780
38.005991	-3.011700	3.865300	-11.640000	21.140783	0.000893	20.758665
39.006607	-2.987500	3.867400	-11.553000	21.133653	0.000894	20.756749
40.008470	-3.002800	3.866500	-11.610000	21.157127	0.000893	20.758419
41.008934	-3.013600	3.865100	-11.646000	21.146772	0.000892	20.741897
42.009741	-2.999100	3.865000	-11.590000	21.140111	0.000892	20.761787
43.008327	-2.980400	3.865900	-11.521000	21.164944	0.000894	20.786153
44.013975	-2.987800	3.865400	-11.548000	21.172971	0.000893	20.758621
45.009651	-2.993000	3.864500	-11.564000	21.185572	0.000892	20.762217
46.013987	-2.993200	3.862600	-11.561000	21.186342	0.000892	20.757298
47.007965	-2.996400	3.863100	-11.574000	21.195556	0.000892	20.745652
48.012439	-3.011000	3.862100	-11.627000	21.202912	0.000892	20.745898
49.011953	-3.009000	3.861600	-11.619000	21.231499	0.000892	20.758375
50.014030	-2.988800	3.863200	-11.545000	21.223965	0.000891	20.764588
51.009982	-3.014300	3.860400	-11.635000	21.232650	0.000894	20.752888
52.012287	-3.006500	3.861200	-11.608000	21.241280	0.000892	20.751090
53.012997	-2.980200	3.860600	-11.504000	21.247984	0.000892	20.767280
54.011457	-3.015000	3.860300	-11.638000	21.269135	0.000891	20.745290
55.015230	-2.970100	3.860500	-11.465000	21.278841	0.000892	20.743146
56.009866	-3.014300	3.859100	-11.632000	21.264874	0.000891	20.760943
57.019299	-3.008600	3.859100	-11.610000	21.275844	0.000892	20.746786
58.012659	-3.008600	3.859200	-11.609000	21.298372	0.000893	20.747039
59.014233	-3.001700	3.856800	-11.575000	21.280786	0.000891	20.768801
60.014279	-3.008600	3.858800	-11.609000	21.276521	0.000891	20.765956
61.023293	-2.979400	3.857800	-11.493000	21.281981	0.000891	20.751503
62.016442	-3.011900	3.856700	-11.614000	21.280455	0.000892	20.740019
63.014872	-2.999300	3.858000	-11.571000	21.302454	0.000891	20.749226
64.019105	-3.008700	3.856300	-11.601000	21.300232	0.000892	20.756486
65.015610	-2.998400	3.855900	-11.560000	21.314431	0.000890	20.742716
66.016923	-2.991200	3.857100	-11.536000	21.326828	0.000891	20.745635
67.017440	-2.998100	3.856100	-11.560000	21.312886	0.000893	20.752076
68.021967	-2.985200	3.856400	-11.511000	21.346782	0.000891	20.756590
69.014148	-3.012000	3.854900	-11.610000	21.349102	0.000894	20.760334
70.023007	-2.992800	3.854400	-11.535000	21.367881	0.000893	20.724119
71.021461	-2.987600	3.854200	-11.513000	21.329493	0.000892	20.722696
72.016013	-3.000700	3.855200	-11.567000	21.360318	0.000897	20.745002
73.023455	-3.010200	3.852300	-11.594000	21.390752	0.000895	20.734200
74.020744	-2.993200	3.852100	-11.529000	21.415637	0.000895	20.751512
75.025663	-3.024400	3.853300	-11.652000	21.391640	0.000895	20.730821
76.021422	-2.988300	3.853800	-11.516000	21.400965	0.000893	20.731141
77.019085	-3.007200	3.851700	-11.582000	21.407841	0.000895	20.741340
78.019271	-2.980700	3.854600	-11.487000	21.401280	0.000894	20.742363
79.023256	-3.011200	3.853100	-11.600000	21.386411	0.000895	20.735072
80.025492	-3.007000	3.851300	-11.580000	21.401773	0.000895	20.743330
81.016406	-2.991100	3.850800	-11.515000	21.389095	0.000894	20.729697
82.024762	-3.005500	3.853000	-11.579000	21.422811	0.000894	20.738301
83.025001	-2.992900	3.851200	-11.525000	21.437570	0.000895	20.742637
84.020329	-2.997400	3.851100	-11.541000	21.440931	0.000897	20.731775
85.023889	-2.996800	3.850900	-11.540000	21.448661	0.000896	20.732397
86.026180	-2.983900	3.850500	-11.487000	21.462141	0.000895	20.716486
87.017230	-2.991100	3.848900	-11.512000	21.478500	0.000896	20.752770
88.025999	-3.014600	3.848900	-11.602000	21.481184	0.000896	20.737912
89.026645	-3.002000	3.848300	-11.552000	21.483948	0.000896	20.728349
90.019166	-2.990900	3.849000	-11.511000	21.507058	0.000895	20.751948
91.022682	-3.000100	3.849500	-11.547000	21.507526	0.000894	20.763323
92.025609	-3.007900	3.848700	-11.573000	21.516198	0.000897	20.755404
93.024233	-3.010700	3.848400	-11.585000	21.532778	0.000894	20.753977
94.023400	-2.995700	3.848500	-11.528000	21.529826	0.000895	20.740116
95.027466	-3.009500	3.848800	-11.582000	21.560817	0.000896	20.740308
96.019974	-3.000500	3.847900	-11.545000	21.544302	0.000897	20.744170
97.024892	-2.989700	3.847400	-11.501000	21.569528	0.000898	20.743334
98.027324	-2.993200	3.848500	-11.519000	21.584888	0.000898	20.746377
99.029922	-3.005400	3.846400	-11.559000	21.568342	0.000897	20.735509
100.032156	-2.981700	3.846800	-11.469000	21.557162	0.000898	20.736650
101.026999	-2.992200	3.846800	-11.509000	21.597457	0.000897	20.747575
102.027113	-2.985500	3.846500	-11.482000	21.597570	0.000898	20.755749
103.028296	-2.980800	3.847500	-11.467000	21.585294	0.000896	20.729713
104.028117	-2.983500	3.847300	-11.476000	21.626610	0.000896	20.751145
105.026267	-2.993600	3.845400	-11.510000	21.616052	0.000897	20.757175
106.027622	-2.983300	3.844400	-11.468000	21.629180	0.000898	20.750871
107.025949	-2.987100	3.845800	-11.486000	21.644736	0.000898	20.741783
108.023481	-2.980700	3.845400	-11.460000	21.649064	0.000900	20.754175
109.027543	-2.997100	3.845200	-11.522000	21.623947	0.000898	20.737099
110.027210	-2.992000	3.844000	-11.500000	21.638980	0.000900	20.743609
111.031635	-2.992700	3.843500	-11.502000	21.659442	0.000900	20.736110
112.029788	-3.018500	3.842300	-11.597000	21.664895	0.000898	20.748206
113.032783	-2.989800	3.845000	-11.495000	21.669376	0.000903	20.747475
114.029750	-2.971800	3.845900	-11.428000	21.687320	0.000901	20.732715
115.039347	-2.988000	3.843500	-11.482000	21.684467	0.000901	20.744085
116.027911	-2.991500	3.842400	-11.493000	21.716630	0.000902	20.739763
117.025993	-2.984000	3.843700	-11.467000	21.716466	0.000902	20.733435
118.027958	-2.993700	3.843500	-11.504000	21.719980	0.000902	20.743116
119.039063	-3.003300	3.841600	-11.537000	21.734883	0.000903	20.764671
120.030647	-3.005500	3.841400	-11.544000	21.741382	0.000901	20.764063
121.034353	-3.006600	3.841700	-11.548000	21.747876	0.000902	20.744483
122.030350	-2.999300	3.840900	-11.520000	21.742161	0.000903	20.735918
123.030650	-3.017900	3.840600	-11.589000	21.732779	0.000903	20.754030
124.030076	-3.014100	3.840700	-11.575000	21.753615	0.000904	20.752597
125.031034	-3.004000	3.841500	-11.540000	21.757542	0.000904	20.764115
126.031226	-2.989100	3.841100	-11.481000	21.766208	0.000903	20.760459
127.029067	-3.022300	3.839700	-11.602000	21.761786	0.000904	20.743705
128.028550	-2.991300	3.841200	-11.488000	21.794894	0.000905	20.738434
129.031549	-2.996900	3.838700	-11.504000	21.769005	0.000905	20.739076
130.031638	-2.981000	3.839800	-11.445000	21.805098	0.000905	20.748648
131.031869	-2.992800	3.840500	-11.493000	21.807161	0.000907	20.761619
132.038938	-2.976000	3.840800	-11.430000	21.811138	0.000905	20.756116
133.034248	-2.990900	3.840200	-11.485000	21.830551	0.000907	20.723387
134.030109	-2.989500	3.838600	-11.474000	21.829401	0.000907	20.737410
135.031010	-3.009500	3.839200	-11.553000	21.838835	0.000906	20.743535
136.033244	-2.979300	3.838900	-11.437000	21.837730	0.000907	20.783206
137.033023	-2.999700	3.838200	-11.513000	21.830017	0.000908	20.742769
138.030310	-2.981300	3.838500	-11.443000	21.832454	0.000908	20.750424
139.032885	-2.986300	3.837000	-11.458000	21.855558	0.000907	20.755057
140.034126	-3.011000	3.836900	-11.551000	21.845896	0.000907	20.766724
141.036025	-3.004300	3.837800	-11.529000	21.845935	0.000909	20.753012
142.041498	-3.013200	3.836300	-11.558000	21.844563	0.000908	20.752113
143.037191	-3.000800	3.838600	-11.517000	21.870751	0.000908	20.767894
144.033318	-3.030200	3.834500	-11.618000	21.871165	0.000910	20.751713
145.036729	-2.990000	3.836600	-11.471000	21.877166	0.000909	20.753925
146.037301	-3.000400	3.836800	-11.512000	21.864346	0.000908	20.743464
147.036206	-2.991400	3.836200	-11.474000	21.881937	0.000909	20.755382
148.047455	-2.986200	3.836700	-11.457000	21.894994	0.000910	20.753278
149.043353	-2.985100	3.835100	-11.447000	21.907053	0.000911	20.757763
150.037828	-3.002500	3.835700	-11.516000	21.914425	0.000910	20.766565
151.040367	-3.017100	3.834400	-11.569000	21.948723	0.000911	20.753481
152.041518	-2.989900	3.836300	-11.469000	21.962400	0.000912	20.762905
153.043255	-3.021000	3.832700	-11.577000	21.947830	0.000912	20.747845
154.039364	-2.995900	3.834200	-11.485000	21.963131	0.000913	20.747988
155.043859	-3.007300	3.834000	-11.529000	21.970058	0.000913	20.766303
156.041972	-2.984500	3.835100	-11.444000	21.981638	0.000912	20.761300
157.044259	-2.997700	3.833700	-11.491000	22.005761	0.000913	20.772171
158.042092	-2.990000	3.832700	-11.458000	22.007922	0.000911	20.760584
159.042976	-3.003500	3.832400	-11.510000	22.004399	0.000914	20.766066
160.045255	-3.006300	3.832200	-11.519000	22.001873	0.000914	20.783452
161.049356	-3.001700	3.833100	-11.505000	22.019339	0.000913	20.774858
162.049342	-2.996600	3.832800	-11.484000	22.034269	0.000915	20.776054
163.047178	-3.023000	3.831800	-11.582000	22.027080	0.000916	20.775496
164.045520	-3.012700	3.832200	-11.544000	22.016202	0.000914	20.751802
165.045088	-3.014200	3.829900	-11.543000	22.036238	0.000914	20.776602
166.046535	-3.016200	3.830400	-11.552000	22.033367	0.000916	20.788901
167.045316	-3.008700	3.832500	-11.530000	22.054419	0.000918	20.762086
168.045450	-2.997300	3.831600	-11.484000	22.070991	0.000919	20.770617
169.055655	-3.027800	3.830900	-11.598000	22.073582	0.000917	20.798814
170.047302	-3.008800	3.830300	-11.523000	22.084540	0.000919	20.777068
171.052440	-3.005000	3.831000	-11.510000	22.099819	0.000917	20.761069
172.050742	-2.992000	3.830900	-11.462000	22.101856	0.000919	20.762161
173.046322	-3.036500	3.827300	-11.620000	22.079592	0.000918	20.754570
174.049189	-2.993000	3.830000	-11.462000	22.112336	0.000921	20.781662
175.051645	-2.985800	3.829100	-11.432000	22.094837	0.000922	20.767936
176.049201	-2.990400	3.830900	-11.454000	22.132296	0.000921	20.788369
177.045920	-2.993200	3.829400	-11.460000	22.150979	0.000923	20.813712
178.047308	-2.997000	3.829500	-11.476000	22.149410	0.000922	20.775157
179.070769	-3.030300	3.829200	-11.603000	22.171660	0.000923	20.775148
180.051580	-3.012500	3.828000	-11.531000	22.174373	0.000924	20.774071
181.049098	-3.049400	3.826300	-11.666000	22.175715	0.000923	20.775415
182.055196	-2.992500	3.828300	-11.454000	22.165163	0.000923	20.766747
183.049438	-3.016900	3.828700	-11.549000	22.180412	0.000923	20.787230
184.049510	-3.012600	3.827400	-11.530000	22.208575	0.000924	20.795987
185.054014	-2.985900	3.828200	-11.428000	22.207599	0.000924	20.789320
186.052048	-3.017900	3.826400	-11.547000	22.204679	0.000925	20.775016
187.052381	-3.005900	3.826600	-11.502000	22.206790	0.000925	20.786139
188.051134	-3.020900	3.826800	-11.559000	22.196643	0.000926	20.787833
189.048435	-2.998900	3.827600	-11.477000	22.193768	0.000926	20.780213
190.055221	-3.008400	3.826700	-11.511000	22.204981	0.000929	20.769628
191.054617	-3.004200	3.826300	-11.494000	22.189501	0.000928	20.785424
192.052033	-2.991400	3.827700	-11.449000	22.218853	0.000929	20.776880
193.052699	-3.010300	3.825000	-11.514000	22.219701	0.000929	20.789583
194.064344	-3.003300	3.824500	-11.485000	22.233198	0.000929	20.800726
195.054869	-2.971000	3.826600	-11.367000	22.234590	0.000930	20.777463
196.052330	-3.015200	3.824500	-11.531000	22.229731	0.000931	20.806737
197.057295	-3.003600	3.823600	-11.484000	22.252822	0.000931	20.786710
198.051580	-2.987500	3.826200	-11.430000	22.244294	0.000930	20.792869
199.051660	-3.013200	3.824200	-11.522000	22.267893	0.000932	20.802748
200.058244	-3.003000	3.824000	-11.483000	22.256123	0.000931	20.772471
201.057981	-3.007900	3.825300	-11.505000	22.261777	0.000933	20.792357
202.059469	-2.995300	3.824300	-11.454000	22.246412	0.000932	20.781239
203.060588	-3.005600	3.822100	-11.486000	22.262562	0.000933	20.800729
204.058533	-2.986900	3.823700	-11.420000	22.229758	0.000934	20.800127
205.060981	-3.008300	3.822000	-11.496000	22.245253	0.000937	20.789089
206.060802	-2.999000	3.823200	-11.465000	22.225428	0.000936	20.789628
207.060680	-3.014400	3.822900	-11.522000	22.234446	0.000935	20.792018
208.059728	-3.030900	3.820700	-11.578000	22.239527	0.000936	20.801848
209.061270	-2.997800	3.822900	-11.459000	22.262920	0.000938	20.779751
210.062453	-2.995700	3.822400	-11.449000	22.269590	0.000937	20.793067
211.061514	-3.017200	3.820800	-11.527000	22.290248	0.000938	20.809011
212.074249	-2.987600	3.823000	-11.421000	22.292039	0.000939	20.789467
213.062645	-2.985500	3.823500	-11.414000	22.311918	0.000941	20.790407
214.062511	-2.994800	3.820900	-11.442000	22.312535	0.000940	20.809990
215.062382	-3.005000	3.820900	-11.481000	22.309418	0.000940	20.821568
216.065562	-3.003300	3.820300	-11.472000	22.319082	0.000941	20.804692
217.068578	-2.981100	3.821200	-11.390000	22.329342	0.000939	20.802163
218.065825	-2.996500	3.819700	-11.444000	22.302993	0.000941	20.809918
219.078364	-2.992900	3.819200	-11.429000	22.350394	0.000942	20.792898
220.065578	-2.983900	3.819800	-11.396000	22.349162	0.000942	20.811579
221.064176	-2.996800	3.820200	-11.446000	22.368423	0.000943	20.810004
222.063478	-2.985200	3.819100	-11.400000	22.369790	0.000942	20.802363
223.065331	-3.007100	3.818500	-11.482000	22.376908	0.000943	20.810440
224.068259	-3.013800	3.817600	-11.505000	22.398512	0.000944	20.787503
225.065107	-2.990500	3.817400	-11.415000	22.429827	0.000944	20.822655
226.066924	-3.015400	3.818700	-11.513000	22.423889	0.000947	20.804381
227.066403	-3.011500	3.818300	-11.497000	22.433404	0.000945	20.813909
228.067502	-3.007700	3.818200	-11.483000	22.456698	0.000946	20.815900
229.064625	-3.027500	3.817300	-11.557000	22.468901	0.000948	20.824801
230.075342	-2.975600	3.818400	-11.361000	22.493832	0.000946	20.831751
231.067239	-2.988700	3.816500	-11.405000	22.493778	0.000946	20.808939
232.067328	-2.997900	3.817500	-11.443000	22.482135	0.000947	20.819563
233.067393	-2.986800	3.817500	-11.401000	22.495688	0.000948	20.826972
234.065346	-2.981400	3.817300	-11.380000	22.518553	0.000948	20.821896
235.063566	-2.981400	3.818200	-11.383000	22.524827	0.000950	20.822963
236.067436	-2.984400	3.816600	-11.389000	22.517597	0.000948	20.829947
237.063850	-2.984500	3.815200	-11.385000	22.512656	0.000948	20.823103
238.066909	-2.973000	3.816600	-11.346000	22.513397	0.000947	20.841388
239.069609	-2.995700	3.815100	-11.427000	22.522585	0.000949	20.837788
240.063191	-2.995000	3.814200	-11.422000	22.524347	0.000951	20.833863
241.067736	-3.000100	3.815600	-11.446000	22.526788	0.000950	20.812600
242.066743	-2.985900	3.815200	-11.391000	22.544050	0.000951	20.837474
243.067647	-3.001600	3.814600	-11.448000	22.532288	0.000952	20.831858
244.063624	-3.011200	3.813900	-11.483000	22.540328	0.000950	20.844177
245.074146	-3.002300	3.814300	-11.451000	22.521884	0.000952	20.843249
246.067654	-3.001400	3.813200	-11.444000	22.553328	0.000952	20.821637
247.067503	-3.011400	3.813200	-11.481000	22.545296	0.000952	20.834929
248.069107	-3.000800	3.812700	-11.440000	22.556930	0.000955	20.837571
249.070945	-3.016900	3.812700	-11.501000	22.534201	0.000952	20.833300
250.067342	-3.002900	3.812300	-11.447000	22.570058	0.000952	20.845504
251.066118	-3.002800	3.813300	-11.450000	22.562454	0.000956	20.825087
252.069647	-2.986500	3.812400	-11.385000	22.564668	0.000953	20.832994
253.067026	-3.027400	3.812200	-11.540000	22.565158	0.000956	20.840597
254.072351	-2.998900	3.811900	-11.430000	22.563486	0.000954	20.842241
255.066583	-2.993200	3.812900	-11.411000	22.591043	0.000956	20.826220
256.070313	-2.994100	3.810300	-11.407000	22.553240	0.000956	20.841936
257.078980	-3.005600	3.811700	-11.455000	22.576413	0.000956	20.850446
258.075106	-2.998400	3.811200	-11.425000	22.551642	0.000957	20.837491
259.071960	-3.004200	3.810400	-11.445000	22.574589	0.000956	20.854309
260.071961	-2.988500	3.810500	-11.387000	22.577606	0.000959	20.843107
261.072330	-2.988200	3.810100	-11.384000	22.595291	0.000958	20.832371
262.071537	-3.003700	3.809700	-11.442000	22.603265	0.000960	20.837038
263.074265	-2.993100	3.808900	-11.399000	22.603862	0.000959	20.834791
264.072737	-2.991900	3.810100	-11.398000	22.629549	0.000960	20.850561
265.073001	-3.005300	3.808900	-11.445000	22.633904	0.000958	20.842121
266.071366	-3.005600	3.809300	-11.448000	22.642602	0.000960	20.840876
267.074682	-3.018700	3.809300	-11.498000	22.659516	0.000960	20.837429
268.074054	-3.016700	3.807300	-11.485000	22.666740	0.000962	20.867423
269.075094	-3.009600	3.808500	-11.461000	22.695320	0.000961	20.848161
270.072058	-3.006100	3.808000	-11.446000	22.682086	0.000963	20.844388
271.070463	-3.011800	3.807200	-11.465000	22.706178	0.000962	20.852399
272.076390	-3.002100	3.807100	-11.429000	22.715724	0.000963	20.853426
273.074834	-2.984000	3.806400	-11.356000	22.723598	0.000963	20.828124
274.075469	-2.987400	3.808400	-11.377000	22.736177	0.000962	20.846887
275.073618	-2.994700	3.807400	-11.401000	22.739214	0.000965	20.821007
276.075924	-2.995600	3.806700	-11.403000	22.757053	0.000963	20.844566
277.075861	-2.995400	3.806000	-11.399000	22.768837	0.000964	20.830766
278.078930	-3.018300	3.804400	-11.481000	22.785305	0.000965	20.836357
279.076283	-3.002800	3.807300	-11.432000	22.784630	0.000966	20.840422
280.073681	-3.001600	3.806200	-11.424000	22.780650	0.000965	20.863935
281.077848	-3.001300	3.806300	-11.423000	22.803045	0.000969	20.861713
282.074583	-2.989300	3.805900	-11.374000	22.825789	0.000968	20.842773
283.077445	-2.972900	3.805000	-11.310000	22.803695	0.000967	20.854304
284.077939	-3.000200	3.804500	-11.413000	22.809375	0.000969	20.858572
285.077841	-3.005400	3.804500	-11.433000	22.817298	0.000969	20.845172
286.073442	-2.996600	3.803900	-11.398000	22.818944	0.000969	20.869580
287.080693	-3.003300	3.803500	-11.422000	22.859200	0.000968	20.846846
288.077939	-2.991000	3.804800	-11.379000	22.882367	0.000969	20.843028
289.081446	-2.995000	3.803100	-11.389000	22.879951	0.000970	20.849617
290.081684	-3.015900	3.803300	-11.469000	22.886384	0.000970	20.860328
291.077549	-3.023000	3.801500	-11.490000	22.885487	0.000972	20.836197
292.079207	-3.016000	3.802500	-11.467000	22.872782	0.000973	20.840538
293.079638	-2.987500	3.802100	-11.357000	22.906838	0.000973	20.850001
294.079596	-2.986000	3.803100	-11.355000	22.895360	0.000973	20.851304
295.079086	-2.994000	3.801100	-11.379000	22.881660	0.000973	20.862233
296.084882	-3.002500	3.801200	-11.412000	22.882833	0.000972	20.857245
297.077234	-2.990600	3.801800	-11.369000	22.886668	0.000973	20.854450
298.080033	-2.996300	3.801100	-11.387000	22.858423	0.000974	20.865981
299.085577	-3.004900	3.800700	-11.419000	22.871054	0.000975	20.858247
300.077064	-2.992200	3.800800	-11.372000	22.885800	0.000975	20.859269
301.079802	-2.999400	3.800700	-11.398000	22.891583	0.000974	20.863166
302.083750	-3.016000	3.799500	-11.458000	22.884187	0.000976	20.856705
303.083205	-2.987800	3.801300	-11.356000	22.882747	0.000976	20.852892
304.079539	-2.987200	3.800000	-11.351000	22.905345	0.000977	20.843290
305.086125	-3.006800	3.798400	-11.419000	22.912420	0.000977	20.874084
306.081806	-3.005900	3.798700	-11.418000	22.935832	0.000978	20.855815
307.078861	-2.989300	3.798200	-11.353000	22.948866	0.000978	20.881200
308.089911	-3.003000	3.799400	-11.409000	22.954195	0.000979	20.865677
309.081796	-3.012600	3.797800	-11.439000	22.971734	0.000980	20.842474
310.078612	-3.002900	3.799600	-11.409000	23.000750	0.000981	20.856372
311.104264	-3.017000	3.798100	-11.457000	23.008228	0.000980	20.851062
312.087196	-3.002700	3.798600	-11.405000	23.005240	0.000981	20.859922
313.086412	-3.014900	3.797000	-11.446000	23.019762	0.000981	20.853136
314.091506	-2.971400	3.797800	-11.283000	23.007315	0.000982	20.880966
315.087466	-2.994300	3.798200	-11.372000	23.025367	0.000984	20.849269
316.081923	-3.017800	3.794800	-11.451000	23.049658	0.000984	20.866495
317.089642	-2.992100	3.796200	-11.357000	23.024878	0.000983	20.868218
318.086912	-3.010600	3.794600	-11.424000	23.029137	0.000981	20.871063
319.085485	-2.976400	3.797000	-11.300000	23.038660	0.000984	20.870173
320.093741	-2.995600	3.795500	-11.368000	23.056741	0.000985	20.861263
321.085060	-2.987200	3.795800	-11.338000	23.056642	0.000983	20.858320
322.087642	-2.992000	3.795200	-11.354000	23.058387	0.000984	20.870499
323.086190	-2.987600	3.794000	-11.334000	23.074953	0.000984	20.858650
324.088353	-2.985600	3.795300	-11.330000	23.079385	0.000986	20.864038
325.088380	-3.012400	3.794400	-11.430000	23.106234	0.000988	20.865337
326.092724	-3.011700	3.793700	-11.424000	23.094083	0.000987	20.888722
327.094866	-2.995600	3.793800	-11.363000	23.092989	0.000986	20.857755
328.088372	-2.985200	3.793800	-11.324000	23.072913	0.000989	20.857079
329.095179	-3.011200	3.792300	-11.418000	23.069131	0.000987	20.875574
330.090822	-3.007400	3.792700	-11.405000	23.059671	0.000988	20.872260
331.089582	-3.005100	3.793300	-11.397000	23.093220	0.000987	20.888805
332.098457	-3.001700	3.792400	-11.382000	23.105848	0.000989	20.881071
333.093352	-2.990200	3.792600	-11.338000	23.097207	0.000990	20.883317
334.089890	-3.011100	3.791100	-11.414000	23.087896	0.000990	20.893427
335.096504	-3.000100	3.790700	-11.371000	23.100178	0.000989	20.862589
336.090248	-2.987500	3.791300	-11.326000	23.079230	0.000993	20.859616
337.093570	-3.001100	3.792100	-11.378000	23.103890	0.000993	20.878160
338.097613	-2.991700	3.790600	-11.339000	23.101450	0.000994	20.880457
339.091250	-2.994100	3.790500	-11.348000	23.125504	0.000992	20.880852
340.095933	-2.999300	3.789700	-11.366000	23.129792	0.000993	20.870451
341.096222	-2.991600	3.789900	-11.337000	23.152332	0.000995	20.866959
342.094610	-3.003200	3.789800	-11.380000	23.175443	0.000994	20.879686
343.096058	-3.006100	3.790300	-11.393000	23.206943	0.000994	20.874743
344.101276	-3.000700	3.789400	-11.370000	23.198085	0.000995	20.867763
345.094410	-2.995700	3.791100	-11.355000	23.211230	0.000995	20.886625
346.094794	-2.996500	3.789400	-11.354000	23.203610	0.000994	20.882308
347.102779	-3.006200	3.788400	-11.387000	23.185631	0.000996	20.882308
348.092476	-3.007600	3.788400	-11.393000	23.183240	0.000996	20.869008
349.092887	-3.001500	3.787500	-11.367000	23.170839	0.000997	20.885029
350.099046	-2.989100	3.787800	-11.321000	23.188173	0.000999	20.888175
351.092153	-3.004700	3.787300	-11.378000	23.196809	0.000999	20.874545
352.096134	-3.004900	3.786800	-11.379000	23.211605	0.000998	20.883207
353.098428	-2.989200	3.788000	-11.322000	23.237554	0.001000	20.882185
354.097119	-3.005700	3.786600	-11.380000	23.248534	0.000999	20.877068
355.096122	-3.004800	3.785500	-11.373000	23.259145	0.001000	20.886279
356.096881	-3.005400	3.785600	-11.376000	23.237755	0.001000	20.873853
357.094342	-2.997500	3.786100	-11.348000	23.238302	0.001002	20.892892
358.094862	-3.022000	3.784500	-11.436000	23.217258	0.001001	20.881760
359.100681	-3.010700	3.786000	-11.397000	23.235435	0.001002	20.894759
360.096609	-2.979400	3.787200	-11.283000	23.225351	0.001003	20.901248
361.096636	-2.993100	3.784600	-11.326000	23.235908	0.001003	20.902819
362.096037	-2.998700	3.785400	-11.350000	23.243803	0.001005	20.887025
363.098845	-3.016000	3.783000	-11.408000	23.253163	0.001004	20.880758
364.093728	-2.986000	3.785200	-11.301000	23.259840	0.001005	20.881286
365.097454	-3.020700	3.783000	-11.426000	23.273556	0.001003	20.911151
366.095888	-2.997000	3.784500	-11.341000	23.259762	0.001004	20.904439
367.097973	-2.986400	3.784500	-11.301000	23.261852	0.001004	20.894206
368.100651	-2.999500	3.782800	-11.346000	23.288618	0.001004	20.887841
369.099265	-2.996900	3.783600	-11.338000	23.314935	0.001006	20.903783
370.101656	-2.990200	3.782200	-11.308000	23.347155	0.001008	20.900040
371.099525	-2.989300	3.781800	-11.304000	23.359652	0.001007	20.889333
372.100414	-2.998200	3.781600	-11.337000	23.354646	0.001007	20.899961
373.098575	-2.984300	3.782600	-11.287000	23.373042	0.001007	20.893744
374.100788	-3.018500	3.781800	-11.413000	23.367863	0.001008	20.876226
375.101305	-3.008000	3.781300	-11.372000	23.363330	0.001009	20.899181
376.101461	-3.010900	3.780800	-11.383000	23.369278	0.001008	20.892342
377.102964	-2.988200	3.781100	-11.298000	23.366834	0.001009	20.889418
378.104758	-3.023200	3.779100	-11.424000	23.369471	0.001009	20.877837
379.102490	-3.012000	3.779300	-11.382000	23.362946	0.001008	20.883626
380.109722	-2.982100	3.780300	-11.272000	23.339218	0.001013	20.885922
381.106160	-2.999600	3.779400	-11.336000	23.359453	0.001010	20.880599
382.100842	-2.999600	3.778700	-11.334000	23.344339	0.001012	20.889158
383.104137	-2.976500	3.780600	-11.252000	23.348922	0.001011	20.903707
384.105242	-3.000700	3.778000	-11.335000	23.373888	0.001011	20.871360
385.105341	-2.992600	3.778500	-11.306000	23.390536	0.001011	20.882354
386.105699	-3.004000	3.777000	-11.346000	23.390289	0.001015	20.881159
387.101840	-2.989000	3.778700	-11.294000	23.386401	0.001011	20.906658
388.101996	-3.000900	3.777700	-11.335000	23.382962	0.001011	20.890410
389.104461	-3.007400	3.776600	-11.356000	23.419581	0.001012	20.882069
390.105700	-3.020000	3.777100	-11.406000	23.422070	0.001013	20.881245
391.102897	-3.003300	3.776600	-11.341000	23.431453	0.001012	20.889226
392.106637	-2.981400	3.776800	-11.259000	23.406352	0.001012	20.874974
393.108905	-3.015800	3.776800	-11.388000	23.447606	0.001013	20.879814
394.109098	-2.994900	3.777000	-11.310000	23.442250	0.001013	20.873023
395.105941	-3.018400	3.774300	-11.391000	23.449342	0.001014	20.882027
396.106746	-2.995200	3.776800	-11.311000	23.442168	0.001014	20.879578
397.111194	-2.979700	3.775500	-11.249000	23.445179	0.001014	20.878329
398.105036	-3.019100	3.772900	-11.390000	23.481076	0.001013	20.873060
399.115983	-3.002300	3.773500	-11.328000	23.464944	0.001014	20.866373
400.105708	-2.990900	3.774000	-11.285000	23.482043	0.001014	20.865494
401.112591	-3.003000	3.772600	-11.328000	23.477711	0.001013	20.888178
402.108936	-3.003800	3.774100	-11.336000	23.467773	0.001014	20.880114
403.109742	-2.998900	3.773500	-11.316000	23.491223	0.001013	20.870429
404.107068	-2.997200	3.773200	-11.307000	23.487213	0.001014	20.882529
405.113401	-3.016800	3.771200	-11.376000	23.495846	0.001014	20.889760
406.114911	-3.002400	3.771200	-11.321000	23.486065	0.001014	20.871422
407.111597	-3.019400	3.771100	-11.385000	23.477328	0.001014	20.871674
408.115261	-3.016500	3.770200	-11.371000	23.516383	0.001015	20.890432
409.106860	-3.010500	3.771600	-11.354000	23.513122	0.001015	20.881948
410.114636	-2.992400	3.771900	-11.286000	23.548174	0.001017	20.872989
411.112389	-3.015800	3.769900	-11.369000	23.516256	0.001016	20.867072
412.112577	-3.001000	3.769700	-11.312000	23.502711	0.001016	20.884314
413.107196	-3.008200	3.770100	-11.340000	23.479709	0.001015	20.876905
414.112401	-3.012200	3.769800	-11.354000	23.499622	0.001015	20.873158
415.117593	-2.997800	3.769800	-11.300000	23.519296	0.001014	20.871542
416.114326	-3.011600	3.768600	-11.348000	23.529747	0.001017	20.855467
417.112337	-3.023400	3.768300	-11.391000	23.532141	0.001016	20.873038
418.110447	-3.015000	3.768600	-11.361000	23.529027	0.001015	20.859961
419.111071	-2.994200	3.769000	-11.284000	23.583821	0.001018	20.840921
420.112701	-3.007000	3.766800	-11.326000	23.597267	0.001017	20.864356
421.114270	-3.008800	3.766700	-11.332000	23.601894	0.001018	20.860934
422.115031	-3.010800	3.766800	-11.340000	23.610683	0.001018	20.844615
423.117087	-3.000800	3.767000	-11.303000	23.618127	0.001018	20.856819
424.117326	-2.999400	3.766300	-11.295000	23.643914	0.001020	20.841894
425.116297	-3.006600	3.767600	-11.327000	23.640706	0.001019	20.858592
426.113350	-3.020700	3.766300	-11.376000	23.655964	0.001019	20.861086
427.118830	-2.993300	3.766600	-11.273000	23.671346	0.001019	20.861334
428.114593	-3.008000	3.764800	-11.323000	23.668311	0.001018	20.862558
429.112028	-3.018800	3.764000	-11.362000	23.678646	0.001020	20.874815
430.115754	-3.003800	3.766100	-11.311000	23.674636	0.001018	20.849460
431.114074	-3.020200	3.763500	-11.366000	23.680784	0.001020	20.843770
432.114641	-2.999300	3.765700	-11.293000	23.676079	0.001020	20.841424
433.120095	-3.029100	3.762800	-11.397000	23.678000	0.001022	20.848091
434.114127	-3.002200	3.763700	-11.299000	23.684428	0.001021	20.842208
435.118309	-3.015100	3.763200	-11.344000	23.706204	0.001023	20.857401
436.121827	-3.010300	3.763000	-11.327000	23.683754	0.001022	20.846273
437.120983	-3.014100	3.762700	-11.341000	23.695430	0.001023	20.847547
438.116397	-3.027900	3.762700	-11.392000	23.721170	0.001023	20.848223
439.118579	-3.007200	3.761700	-11.310000	23.711008	0.001024	20.841829
440.115834	-3.012300	3.762900	-11.334000	23.712677	0.001025	20.843503
441.116980	-2.993600	3.761900	-11.261000	23.743418	0.001025	20.835916
442.118510	-2.992400	3.761800	-11.255000	23.755442	0.001027	20.849868
443.116734	-3.007600	3.761400	-11.311000	23.763782	0.001024	20.827885
444.116926	-3.001400	3.760400	-11.285000	23.751161	0.001023	20.846525
445.120012	-3.025900	3.759100	-11.373000	23.749413	0.001026	20.839083
446.120563	-3.003300	3.760200	-11.292000	23.712722	0.001024	20.833117
447.123613	-3.018400	3.758400	-11.342000	23.725043	0.001024	20.835038
448.121853	-3.009800	3.759300	-11.314000	23.701121	0.001025	20.833339
449.118475	-3.002400	3.759000	-11.284000	23.731837	0.001024	20.837108
450.121881	-3.006200	3.757900	-11.296000	23.741842	0.001025	20.836234
451.118001	-2.975000	3.758200	-11.180000	23.752172	0.001026	20.823358
452.124163	-2.986800	3.758800	-11.226000	23.768354	0.001026	20.821564
453.125331	-2.985300	3.758600	-11.219000	23.745103	0.001025	20.826701
454.124588	-3.013300	3.757400	-11.321000	23.773182	0.001026	20.832094
455.128593	-2.989500	3.757300	-11.231000	23.787094	0.001027	20.812852
456.129010	-3.004700	3.758300	-11.291000	23.783409	0.001024	20.839503
457.126379	-3.009500	3.754600	-11.298000	23.786847	0.001025	20.853381
458.126147	-2.992200	3.756900	-11.240000	23.781296	0.001025	20.843548
459.126300	-2.975100	3.757000	-11.177000	23.790931	0.001026	20.828079
460.125345	-2.991900	3.755400	-11.235000	23.817117	0.001026	20.844851
461.126978	-3.021400	3.755800	-11.346000	23.788862	0.001025	20.833591
462.124858	-3.015600	3.754300	-11.320000	23.817960	0.001024	20.834791
463.127263	-3.017600	3.754000	-11.326000	23.817516	0.001026	20.825811
464.130601	-2.987400	3.754900	-11.216000	23.829165	0.001027	20.840336
465.126473	-3.000300	3.753800	-11.261000	23.798950	0.001025	20.822368
466.130818	-3.009200	3.752900	-11.293000	23.804024	0.001026	20.816551
467.125039	-2.989600	3.753700	-11.222000	23.817421	0.001027	20.822397
468.128035	-2.994900	3.753900	-11.241000	23.794426	0.001025	20.812618
469.125909	-3.006500	3.752100	-11.280000	23.767146	0.001026	20.823197
470.128933	-3.006600	3.753500	-11.283000	23.762047	0.001027	20.854594
471.132666	-2.996300	3.752100	-11.241000	23.763791	0.001024	20.825523
472.133847	-3.016500	3.752800	-11.320000	23.774293	0.001029	20.813768
473.131314	-3.018500	3.750500	-11.320000	23.786190	0.001027	20.813842
474.131046	-2.998200	3.752900	-11.251000	23.780470	0.001027	20.813323
475.135675	-3.006700	3.751700	-11.280000	23.797893	0.001027	20.827947
476.133262	-3.030300	3.750400	-11.364000	23.809962	0.001027	20.828669
477.130582	-3.010900	3.749000	-11.286000	23.801130	0.001029	20.807485
478.137023	-2.997500	3.751100	-11.243000	23.827862	0.001027	20.797780
479.128526	-3.018700	3.749500	-11.317000	23.844586	0.001027	20.787047
480.130891	-3.004800	3.750000	-11.267000	23.798889	0.001029	20.815195
481.135417	-3.027400	3.747900	-11.345000	23.782214	0.001027	20.808908
482.131718	-3.034100	3.747900	-11.370000	23.800854	0.001027	20.831390
483.132294	-3.019800	3.748200	-11.317000	23.779031	0.001025	20.784380
484.140257	-3.003500	3.748600	-11.258000	23.802553	0.001027	20.805119
485.132454	-3.001300	3.747600	-11.247000	23.835202	0.001028	20.800872
486.133579	-3.000600	3.746600	-11.241000	23.839985	0.001027	20.822262
487.139597	-2.986300	3.747200	-11.190000	23.821370	0.001026	20.819718
488.142274	-2.978800	3.747700	-11.163000	23.829158	0.001028	20.829898
489.135501	-2.979500	3.746900	-11.163000	23.812640	0.001029	20.804327
490.140079	-2.999900	3.745700	-11.236000	23.830334	0.001029	20.826810
491.131646	-2.997000	3.747000	-11.229000	23.842954	0.001029	20.811015
492.133898	-3.001100	3.746600	-11.243000	23.856495	0.001030	20.817480
493.131621	-2.990500	3.746400	-11.203000	23.879369	0.001029	20.815761
494.138350	-3.005400	3.746000	-11.257000	23.864489	0.001029	20.805581
495.138674	-2.994500	3.745100	-11.213000	23.917868	0.001028	20.810743
496.139878	-2.990300	3.745200	-11.198000	23.901820	0.001030	20.803660
497.132267	-2.992700	3.744300	-11.203000	23.907297	0.001029	20.815790
498.134115	-3.011300	3.743400	-11.271000	23.916808	0.001031	20.797352
499.157962	-2.990600	3.745000	-11.199000	23.913995	0.001031	20.779833
500.134925	-3.012100	3.743600	-11.275000	23.868058	0.001032	20.828126
501.138085	-2.995400	3.743200	-11.212000	23.867639	0.001031	20.778868
502.139153	-3.003200	3.742700	-11.239000	23.866969	0.001030	20.795266
503.136528	-2.993100	3.742000	-11.200000	23.871821	0.001032	20.799183
504.134981	-2.990400	3.742700	-11.192000	23.872047	0.001030	20.806996
505.140317	-3.010800	3.741600	-11.264000	23.890316	0.001032	20.793547
506.137478	-2.999400	3.741900	-11.222000	23.918539	0.001031	20.808571
507.141288	-3.016800	3.740800	-11.284000	23.912574	0.001031	20.783623
508.147314	-2.992300	3.741100	-11.192000	23.941422	0.001031	20.780308
509.138056	-2.977400	3.742800	-11.143000	23.955031	0.001032	20.792059
510.136334	-3.002600	3.740900	-11.231000	23.968023	0.001033	20.800347
511.142350	-2.994000	3.740300	-11.197000	23.963920	0.001034	20.803818
512.140054	-2.992100	3.739300	-11.186000	23.960709	0.001033	20.773571
513.141460	-3.008200	3.738600	-11.246000	23.967978	0.001032	20.785603
514.145120	-2.977400	3.740400	-11.135000	23.992392	0.001033	20.808663
515.142581	-3.019600	3.739200	-11.290000	23.983882	0.001034	20.776895
516.141851	-3.025900	3.739400	-11.313000	23.986093	0.001032	20.790018
517.146136	-3.014500	3.738500	-11.269000	23.983906	0.001032	20.769807
518.143516	-3.005400	3.739000	-11.236000	23.966786	0.001036	20.770182
519.140168	-3.000800	3.737400	-11.214000	23.945603	0.001034	20.778338
520.147491	-2.992200	3.737300	-11.181000	23.924074	0.001032	20.780931
521.144949	-2.986400	3.736500	-11.158000	23.936442	0.001034	20.785747
522.142653	-2.993700	3.736700	-11.186000	23.925394	0.001033	20.777513
523.144672	-3.005600	3.736400	-11.229000	23.978051	0.001034	20.768677
524.150167	-3.003500	3.737000	-11.224000	23.983898	0.001033	20.783075
525.147283	-3.015100	3.735300	-11.261000	23.963241	0.001035	20.768050
526.149058	-3.007300	3.735900	-11.234000	23.952165	0.001034	20.782547
527.144234	-3.019800	3.734100	-11.275000	23.955651	0.001034	20.769922
528.144173	-2.995800	3.735100	-11.188000	23.967065	0.001033	20.769039
529.148623	-2.992500	3.735900	-11.177000	23.981446	0.001033	20.782987
530.143265	-3.007800	3.735100	-11.233000	23.963730	0.001034	20.786558
531.147826	-3.011900	3.733500	-11.244000	23.983038	0.001034	20.753762
532.143610	-2.991500	3.734100	-11.169000	23.990800	0.001035	20.773875
533.147514	-2.992400	3.734300	-11.174000	23.970390	0.001036	20.774745
534.147049	-2.984900	3.733700	-11.144000	23.991790	0.001033	20.782929
535.145663	-2.979700	3.733600	-11.124000	23.997016	0.001034	20.793385
536.147347	-3.023800	3.731100	-11.281000	24.005744	0.001034	20.770844
537.147583	-3.007000	3.730900	-11.218000	24.007685	0.001033	20.771842
538.149138	-3.014200	3.732000	-11.249000	24.029064	0.001033	20.760565
539.147930	-2.996400	3.732400	-11.182000	24.012832	0.001034	20.760882
540.147364	-2.984600	3.732300	-11.138000	24.016865	0.001034	20.783894
541.160660	-3.001700	3.731100	-11.198000	24.047272	0.001034	20.766024
542.147662	-3.008500	3.731800	-11.226000	24.043037	0.001033	20.766518
543.151545	-2.987900	3.730000	-11.144000	24.030099	0.001034	20.786260
544.147091	-3.022500	3.729500	-11.272000	24.026888	0.001034	20.760280
545.152903	-3.015900	3.730000	-11.248000	24.021013	0.001034	20.773829
546.148220	-2.989600	3.729400	-11.149000	23.988566	0.001035	20.778748
547.149479	-3.013200	3.728900	-11.235000	23.978012	0.001032	20.759628
548.152595	-3.015800	3.727600	-11.239000	23.998023	0.001032	20.769264
549.152078	-3.011500	3.727900	-11.225000	23.983558	0.001033	20.752388
550.155528	-2.996500	3.728500	-11.171000	24.008050	0.001033	20.779795
551.154871	-2.999800	3.726700	-11.178000	24.037837	0.001031	20.779795
552.151875	-3.001000	3.726300	-11.181000	24.045081	0.001031	20.758136
553.150441	-2.991100	3.727900	-11.149000	24.027386	0.001032	20.778797
554.153669	-2.985900	3.726400	-11.126000	24.043017	0.001032	20.753221
555.149010	-2.980100	3.727600	-11.108000	24.056580	0.001032	20.749754
556.152214	-3.012800	3.726300	-11.225000	24.038589	0.001031	20.753997
557.150661	-3.003300	3.725500	-11.188000	24.050931	0.001030	20.753572
558.154722	-2.990600	3.725300	-11.139000	24.063672	0.001032	20.759711
559.151711	-3.019600	3.724100	-11.244000	24.050089	0.001030	20.757943
560.149618	-2.973700	3.726300	-11.080000	24.016146	0.001029	20.749981
561.153596	-3.014000	3.724000	-11.223000	24.028463	0.001031	20.761385
562.156887	-3.002100	3.723000	-11.176000	24.056959	0.001030	20.768152
563.153279	-2.990000	3.725000	-11.136000	24.057312	0.001031	20.744324
564.149052	-3.001900	3.723800	-11.177000	24.065778	0.001031	20.773677
565.149742	-2.988200	3.724000	-11.127000	24.087328	0.001030	20.762574
566.154478	-3.006700	3.723600	-11.194000	24.093573	0.001032	20.766940
567.151229	-2.989000	3.723200	-11.128000	24.119945	0.001030	20.754983
568.148623	-3.015200	3.721300	-11.219000	24.106588	0.001028	20.753441
569.155390	-3.011500	3.721100	-11.205000	24.108130	0.001030	20.763996
570.149793	-3.005100	3.721700	-11.182000	24.128685	0.001032	20.759956
571.152039	-2.999400	3.720800	-11.160000	24.089150	0.001029	20.753969
572.151906	-3.003700	3.720800	-11.175000	24.086938	0.001030	20.755070
573.155816	-2.993300	3.720500	-11.136000	24.058222	0.001030	20.753297
574.153042	-3.008100	3.719400	-11.186000	24.092015	0.001031	20.765378
575.156405	-3.002900	3.719900	-11.169000	24.110157	0.001029	20.739950
576.154341	-2.995100	3.720600	-11.143000	24.111300	0.001030	20.736355
577.156294	-2.984400	3.719500	-11.100000	24.131608	0.001030	20.752456
578.158401	-2.953600	3.719700	-10.985000	24.160816	0.001030	20.768949
579.151857	-2.991300	3.719800	-11.127000	24.189287	0.001028	20.736813
580.153054	-3.023400	3.717700	-11.239000	24.214342	0.001029	20.748667
581.155265	-3.009800	3.718400	-11.191000	24.216064	0.001029	20.745179
582.153950	-2.990600	3.718500	-11.120000	24.197077	0.001029	20.741782
583.157537	-3.046300	3.715900	-11.319000	24.212534	0.001028	20.742586
584.159481	-2.998400	3.717500	-11.145000	24.190463	0.001029	20.747002
585.152920	-3.004200	3.717000	-11.166000	24.160755	0.001030	20.750395
586.157759	-2.972300	3.718300	-11.051000	24.154564	0.001030	20.751299
587.161352	-2.994900	3.716900	-11.130000	24.155387	0.001029	20.757339
588.152977	-2.978400	3.715800	-11.066000	24.184746	0.001030	20.753121
589.157959	-3.006500	3.716500	-11.172000	24.210026	0.001029	20.756667
590.161521	-2.990100	3.716500	-11.112000	24.214536	0.001029	20.740801
591.158442	-2.999900	3.716100	-11.146000	24.182066	0.001029	20.730992
592.157376	-3.011900	3.713800	-11.185000	24.159803	0.001031	20.748491
593.158566	-3.020200	3.715800	-11.221000	24.157661	0.001030	20.738756
594.160956	-2.990100	3.714200	-11.105000	24.174906	0.001030	20.755105
595.160646	-2.987400	3.713500	-11.093000	24.177919	0.001029	20.758128
596.160882	-2.986200	3.714200	-11.090000	24.103997	0.001030	20.752265
597.156306	-3.003100	3.713600	-11.151000	24.089489	0.001030	20.763319
598.157619	-2.993400	3.713300	-11.112000	24.090986	0.001029	20.730205
599.173943	-2.993800	3.712700	-11.115000	24.097609	0.001031	20.744909
600.155622	-2.993300	3.712800	-11.113000	24.094226	0.001029	20.737248
601.162381	-3.002600	3.712400	-11.146000	24.125128	0.001030	20.750224
602.162233	-3.006900	3.711700	-11.159000	24.138468	0.001029	20.751276
603.161163	-2.992500	3.712200	-11.107000	24.167532	0.001028	20.752451
604.160662	-2.989000	3.712500	-11.096000	24.186865	0.001028	20.742918
605.160227	-2.994500	3.712000	-11.115000	24.194354	0.001031	20.739050
606.158101	-3.032400	3.709400	-11.247000	24.215976	0.001029	20.749359
607.160421	-2.995000	3.711600	-11.114000	24.253419	0.001030	20.758467
608.160590	-3.012300	3.710100	-11.175000	24.237750	0.001031	20.751759
609.161653	-3.008000	3.708900	-11.155000	24.270490	0.001032	20.737657
610.162273	-2.990200	3.709300	-11.091000	24.287881	0.001029	20.743248
611.161402	-2.981300	3.710000	-11.060000	24.309226	0.001029	20.752332
612.163566	-2.973500	3.710000	-11.030000	24.286364	0.001029	20.748365
613.161848	-2.965400	3.709300	-10.999000	24.295596	0.001029	20.749565
614.168129	-3.013900	3.708700	-11.177000	24.267206	0.001030	20.755700
615.160350	-2.997700	3.708500	-11.116000	24.250484	0.001029	20.753152
616.165237	-3.010700	3.708000	-11.162000	24.208438	0.001028	20.764557
617.166697	-3.012700	3.707700	-11.170000	24.191670	0.001028	20.751058
618.165873	-3.009300	3.707000	-11.154000	24.224210	0.001028	20.758566
619.165532	-3.001600	3.707500	-11.128000	24.227667	0.001029	20.776258
620.167714	-2.988400	3.707100	-11.077000	24.237166	0.001028	20.730783
621.169745	-2.998100	3.705900	-11.109000	24.255232	0.001030	20.741792
622.167922	-2.983000	3.707200	-11.058000	24.199156	0.001029	20.749556
623.168877	-2.971700	3.706400	-11.012000	24.227387	0.001028	20.768865
624.164463	-3.004200	3.704400	-11.128000	24.207011	0.001028	20.748426
625.165639	-2.983400	3.705500	-11.052000	24.217883	0.001027	20.756961
626.165853	-3.002500	3.704700	-11.122000	24.217283	0.001027	20.733124
627.168148	-2.991800	3.705400	-11.086000	24.209374	0.001028	20.775454
628.172773	-3.011200	3.703200	-11.148000	24.236541	0.001026	20.750071
629.167481	-2.981100	3.704200	-11.041000	24.232381	0.001027	20.753011
630.168365	-2.981400	3.704300	-11.043000	24.269724	0.001026	20.760597
631.170487	-2.994600	3.705000	-11.094000	24.248975	0.001028	20.762069
632.166855	-3.007100	3.703500	-11.136000	24.253455	0.001027	20.748071
633.170769	-2.999700	3.703800	-11.109000	24.242307	0.001026	20.759175
634.169902	-2.997500	3.701700	-11.094000	24.259797	0.001026	20.749217
635.168980	-2.979100	3.704200	-11.034000	24.261713	0.001026	20.737862
636.170177	-2.997900	3.702200	-11.098000	24.286465	0.001026	20.768856
637.167043	-2.973200	3.702200	-11.005000	24.309524	0.001025	20.774917
638.175453	-2.992400	3.701100	-11.073000	24.343211	0.001026	20.772674
639.172693	-2.996100	3.701300	-11.088000	24.336495	0.001027	20.759298
640.171498	-2.991700	3.700900	-11.070000	24.346273	0.001025	20.747770
641.169044	-2.998400	3.699900	-11.092000	24.345924	0.001026	20.750739
642.169838	-2.980000	3.700700	-11.026000	24.337017	0.001025	20.774047
643.175946	-2.993200	3.700300	-11.075000	24.318283	0.001026	20.763789
644.173384	-3.004000	3.699500	-11.111000	24.289346	0.001023	20.769849
645.174074	-2.977800	3.699200	-11.014000	24.262132	0.001023	20.765310
646.168406	-3.025300	3.697800	-11.186000	24.268100	0.001022	20.762287
647.173571	-3.001100	3.699600	-11.101000	24.243997	0.001023	20.758024
648.169507	-2.997100	3.698200	-11.083000	24.261832	0.001024	20.772595
649.170143	-3.013300	3.696400	-11.138000	24.264220	0.001021	20.771198
650.172726	-2.996000	3.696900	-11.075000	24.259990	0.001020	20.775016
651.170466	-3.015900	3.697200	-11.149000	24.254569	0.001021	20.768155
652.171793	-3.006400	3.696600	-11.110000	24.259665	0.001020	20.760939
653.169611	-2.986900	3.697500	-11.043000	24.255613	0.001021	20.777263
654.171329	-2.986700	3.696200	-11.037000	24.276337	0.001021	20.774818
655.170661	-2.994800	3.696000	-11.067000	24.284427	0.001019	20.759698
656.172446	-3.004700	3.695600	-11.101000	24.264121	0.001021	20.761615
657.171902	-3.005200	3.696000	-11.106000	24.289700	0.001021	20.768782
658.172744	-2.998400	3.695600	-11.080000	24.294575	0.001020	20.760869
659.170524	-2.979900	3.695700	-11.011000	24.296840	0.001019	20.770254
660.174017	-3.001800	3.694100	-11.087000	24.321872	0.001020	20.774027
661.177016	-2.988800	3.694200	-11.040000	24.355451	0.001020	20.778789
662.172791	-2.985400	3.694500	-11.028000	24.396851	0.001021	20.752516
663.176828	-2.983600	3.693300	-11.019000	24.409489	0.001019	20.769937
664.173766	-3.009300	3.693000	-11.112000	24.390633	0.001016	20.784211
665.174523	-3.003500	3.693600	-11.093000	24.412153	0.001019	20.796317
666.173001	-3.007100	3.690400	-11.096000	24.413398	0.001019	20.786186
667.175470	-3.007500	3.691700	-11.101000	24.417179	0.001017	20.768642
668.185760	-2.991400	3.692300	-11.044000	24.435168	0.001016	20.750653
669.177098	-2.988700	3.692000	-11.034000	24.434046	0.001016	20.775606
670.174513	-3.005500	3.690400	-11.090000	24.477654	0.001016	20.766251
671.174554	-3.023900	3.691500	-11.161000	24.477157	0.001016	20.781400
672.174839	-3.002800	3.691800	-11.085000	24.493254	0.001017	20.768626
673.173862	-3.006400	3.691200	-11.096000	24.516161	0.001018	20.776910
674.173689	-3.017900	3.689000	-11.133000	24.484201	0.001016	20.763336
675.180276	-3.013800	3.688600	-11.116000	24.465922	0.001015	20.773447
676.176644	-3.011800	3.688600	-11.108000	24.507811	0.001014	20.758100
677.171978	-3.031400	3.688800	-11.181000	24.520924	0.001012	20.793069
678.177586	-3.019500	3.688000	-11.134000	24.533758	0.001014	20.774651
679.172169	-2.983700	3.689100	-11.006000	24.552957	0.001014	20.789173
680.174736	-3.015000	3.688100	-11.118000	24.534004	0.001013	20.768260
681.174612	-3.007900	3.687800	-11.092000	24.540753	0.001015	20.762228
682.173551	-3.028800	3.687700	-11.168000	24.516823	0.001013	20.775204
683.175340	-3.024800	3.687300	-11.152000	24.512895	0.001013	20.781694
684.177158	-3.014200	3.685700	-11.108000	24.503049	0.001011	20.785092
685.174166	-3.011300	3.685800	-11.097000	24.509015	0.001013	20.781121
686.171255	-3.015100	3.686400	-11.114000	24.529596	0.001009	20.768105
687.185617	-3.029400	3.686200	-11.166000	24.566881	0.001011	20.784177
688.173821	-2.996300	3.685000	-11.040000	24.550710	0.001011	20.787867
689.176301	-2.988100	3.686400	-11.014000	24.553427	0.001011	20.779213
690.176498	-3.016300	3.683900	-11.110000	24.573078	0.001011	20.775222
691.177109	-2.997600	3.686600	-11.050000	24.590114	0.001010	20.766237
692.178561	-2.995900	3.685000	-11.039000	24.552889	0.001010	20.781518
693.178249	-3.017300	3.683700	-11.114000	24.549207	0.001010	20.793945
694.178311	-2.984500	3.685200	-10.998000	24.534611	0.001011	20.774559
695.178600	-2.987000	3.684000	-11.003000	24.537299	0.001009	20.799541
696.179208	-2.976700	3.684500	-10.966000	24.540287	0.001008	20.775512
697.177416	-2.990600	3.684700	-11.018000	24.519049	0.001008	20.791188
698.177338	-3.003100	3.682100	-11.057000	24.503803	0.001009	20.783004
699.186425	-3.002700	3.682000	-11.055000	24.528407	0.001010	20.779714
700.182010	-2.974700	3.683500	-10.956000	24.510827	0.001008	20.784361
701.181579	-2.989000	3.682600	-11.006000	24.503073	0.001008	20.747183
702.192818	-2.988400	3.682200	-11.002000	24.517448	0.001008	20.775357
703.182590	-2.996400	3.680700	-11.028000	24.577745	0.001008	20.797449
704.179407	-3.000200	3.680800	-11.042000	24.575288	0.001006	20.768905
705.181894	-2.997500	3.681300	-11.034000	24.583671	0.001007	20.785377
706.179652	-3.006600	3.679700	-11.062000	24.610660	0.001009	20.793966
707.180735	-3.018900	3.679300	-11.107000	24.611930	0.001007	20.790498
708.179302	-3.025000	3.678100	-11.125000	24.618255	0.001007	20.781197
709.181391	-3.007800	3.678800	-11.064000	24.647326	0.001008	20.797566
710.179391	-3.012700	3.677900	-11.079000	24.644072	0.001007	20.775334
711.180781	-3.015200	3.678400	-11.089000	24.675682	0.001006	20.772440
712.181375	-3.010500	3.678100	-11.071000	24.647828	0.001006	20.802336
713.180615	-3.000600	3.678900	-11.038000	24.636043	0.001007	20.797150
714.182544	-3.002200	3.678400	-11.042000	24.661885	0.001005	20.783251
715.180737	-2.981000	3.678800	-10.966000	24.685486	0.001007	20.801719
716.185032	-3.022000	3.676400	-11.109000	24.682779	0.001005	20.770552
717.183939	-3.002000	3.678800	-11.042000	24.684994	0.001004	20.777991
718.181627	-3.006600	3.678100	-11.058000	24.658158	0.001005	20.778564
719.182193	-3.025500	3.674500	-11.115000	24.628891	0.001004	20.799930
720.183428	-2.964800	3.677800	-10.903000	24.617102	0.001005	20.789997
721.187506	-3.005300	3.676500	-11.049000	24.626454	0.001004	20.787528
722.184690	-3.012300	3.676400	-11.073000	24.635531	0.001003	20.811808
723.187535	-2.998300	3.675900	-11.020000	24.627773	0.001002	20.781265
724.185609	-2.997600	3.675100	-11.015000	24.636751	0.001005	20.796912
725.188804	-2.984800	3.674600	-10.967000	24.672166	0.001003	20.789775
726.187877	-3.015900	3.674300	-11.081000	24.681670	0.001003	20.803105
727.187658	-3.017800	3.674000	-11.087000	24.716484	0.001003	20.790150
728.186611	-3.004900	3.673900	-11.039000	24.702732	0.001002	20.801006
729.185401	-3.008600	3.673400	-11.051000	24.679903	0.001004	20.799910
730.189541	-3.008700	3.673400	-11.051000	24.680627	0.001002	20.821024
731.187315	-2.989200	3.673400	-10.980000	24.673736	0.001001	20.811739
732.187253	-3.008500	3.671500	-11.045000	24.665009	0.001001	20.808671
733.193382	-3.020500	3.673100	-11.093000	24.679879	0.001002	20.809842
734.193516	-2.981100	3.673000	-10.948000	24.675602	0.000999	20.823094
735.191940	-3.004700	3.672800	-11.035000	24.690944	0.001000	20.810988
736.190614	-3.003900	3.672900	-11.032000	24.670527	0.000999	20.813734
737.192425	-3.003400	3.671500	-11.026000	24.649292	0.000999	20.778202
738.193782	-2.999300	3.672600	-11.014000	24.641658	0.000999	20.808474
739.193396	-2.997800	3.670700	-11.003000	24.663818	0.000999	20.814588
740.189939	-3.011500	3.669700	-11.048000	24.662947	0.001000	20.807550
741.190052	-2.983700	3.670400	-10.950000	24.679086	0.000998	20.820900
742.191627	-2.973700	3.671300	-10.916000	24.654416	0.000998	20.802784
743.192450	-2.994200	3.669400	-10.985000	24.658714	0.000997	20.834122
744.193648	-3.006500	3.669100	-11.030000	24.670310	0.001000	20.812568
745.197423	-3.006000	3.669900	-11.030000	24.662100	0.000997	20.826615
746.193560	-2.999000	3.670400	-11.006000	24.669414	0.000999	20.799815
747.190157	-2.986000	3.669000	-10.953000	24.679086	0.000999	20.829435
748.198255	-2.993400	3.666600	-10.975000	24.687497	0.000997	20.808004
749.191765	-2.966600	3.668600	-10.881000	24.664492	0.000997	20.812894
750.193491	-2.999600	3.668100	-11.001000	24.663070	0.000998	20.823795
751.198843	-3.010500	3.667200	-11.038000	24.661583	0.000997	20.801440
752.195862	-2.999700	3.666400	-10.996000	24.688019	0.000996	20.815166
753.199041	-3.016400	3.666700	-11.059000	24.711571	0.000996	20.816514
754.195678	-2.995800	3.667900	-10.987000	24.752333	0.000996	20.812375
755.199545	-2.991800	3.667000	-10.970000	24.760291	0.000995	20.813249
756.197805	-3.007400	3.665100	-11.021000	24.777350	0.000993	20.835109
757.200228	-3.005800	3.665100	-11.016000	24.802966	0.000994	20.811505
758.198354	-2.993800	3.664400	-10.970000	24.798916	0.000995	20.824984
759.201095	-3.009800	3.664300	-11.028000	24.839173	0.000994	20.810384
760.205781	-3.010900	3.663800	-11.030000	24.855935	0.000995	20.828154
761.198680	-2.989700	3.664600	-10.955000	24.860664	0.000994	20.821521
762.196155	-3.012600	3.662900	-11.034000	24.835870	0.000993	20.814656
763.200835	-3.011400	3.664100	-11.033000	24.833611	0.000994	20.817130
764.208953	-2.999800	3.663200	-10.987000	24.834581	0.000994	20.828060
765.199486	-3.007200	3.664700	-11.019000	24.815062	0.000993	20.835972
766.206417	-3.016400	3.661900	-11.043000	24.827897	0.000992	20.801438
767.201342	-2.985700	3.663600	-10.937000	24.834359	0.000994	20.834001
768.201401	-2.993200	3.664200	-10.967000	24.858852	0.000992	20.815910
769.201612	-3.002900	3.663300	-11.000000	24.858651	0.000994	20.832777
770.198149	-3.000200	3.661800	-10.984000	24.866042	0.000992	20.828341
771.198642	-3.007300	3.662400	-11.012000	24.892321	0.000992	20.839543
772.202507	-2.982700	3.662800	-10.924000	24.910470	0.000991	20.834051
773.202306	-3.021900	3.660700	-11.060000	24.907414	0.000991	20.844734
774.199908	-3.006100	3.660700	-11.003000	24.905224	0.000989	20.829734
775.204063	-2.995500	3.660500	-10.964000	24.900402	0.000989	20.844334
776.207059	-3.018700	3.660600	-11.050000	24.875959	0.000990	20.834500
777.200795	-3.016600	3.658900	-11.036000	24.873149	0.000989	20.835473
778.203444	-2.992500	3.660600	-10.954000	24.843163	0.000990	20.844734
779.214439	-3.012900	3.658600	-11.023000	24.845402	0.000990	20.842239
780.201508	-2.987000	3.659500	-10.930000	24.847218	0.000988	20.833157
781.205141	-3.010100	3.656800	-11.007000	24.876682	0.000988	20.848502
782.207191	-3.002100	3.659100	-10.983000	24.893640	0.000989	20.847978
783.205272	-3.016600	3.657700	-11.033000	24.909579	0.000988	20.840269
784.202522	-2.984900	3.659100	-10.921000	24.911646	0.000989	20.839024
785.208391	-2.999000	3.657000	-10.967000	24.933775	0.000989	20.848907
786.209733	-3.002300	3.659200	-10.985000	24.941206	0.000989	20.839770
787.206606	-3.014000	3.657600	-11.023000	24.950634	0.000988	20.843069
788.211866	-3.002200	3.656600	-10.976000	24.948174	0.000987	20.858142
789.209191	-3.020700	3.656000	-11.043000	24.932884	0.000988	20.839952
790.209202	-3.020600	3.655000	-11.040000	24.921049	0.000986	20.836608
791.211755	-2.999700	3.656000	-10.965000	24.936211	0.000987	20.853248
792.209610	-2.996800	3.654800	-10.951000	24.955313	0.000986	20.856300
793.211386	-2.987400	3.656300	-10.922000	24.936048	0.000985	20.841231
794.213677	-3.018300	3.654100	-11.028000	24.962773	0.000986	20.851459
795.210458	-3.020100	3.653800	-11.034000	24.960879	0.000984	20.835334
796.212846	-2.982500	3.655600	-10.902000	24.980006	0.000986	20.854531
797.210780	-3.016000	3.654700	-11.021000	24.967300	0.000986	20.870227
798.211778	-2.996500	3.653800	-10.947000	24.987613	0.000986	20.853158
799.211870	-2.990000	3.655500	-10.929000	24.926231	0.000986	20.860299
800.211108	-3.009800	3.652900	-10.993000	24.939158	0.000985	20.840085
801.216579	-3.009200	3.653600	-10.992000	24.941918	0.000983	20.865140
802.211825	-2.989100	3.653300	-10.919000	24.943188	0.000984	20.860250
803.211968	-3.006200	3.653600	-10.983000	24.931649	0.000984	20.864315
804.216301	-2.980600	3.652500	-10.885000	24.953138	0.000984	20.862176
805.215306	-2.976800	3.652600	-10.872000	24.985260	0.000982	20.869762
806.222459	-2.993600	3.651000	-10.928000	24.972230	0.000984	20.872804
807.218138	-2.987100	3.652400	-10.908000	24.965621	0.000984	20.857163
808.210779	-2.997500	3.652100	-10.946000	24.953138	0.000982	20.856960
809.214989	-2.997700	3.650900	-10.943000	24.958983	0.000982	20.863776
810.217393	-3.005700	3.650600	-10.971000	24.963510	0.000981	20.855518
811.222703	-2.977600	3.650600	-10.869000	24.956823	0.000981	20.856392
812.217788	-3.005000	3.648200	-10.961000	24.973809	0.000981	20.866329
813.221486	-3.001200	3.650000	-10.953000	24.952153	0.000981	20.859765
814.218650	-2.990700	3.650300	-10.916000	24.974803	0.000981	20.862111
815.220985	-2.992700	3.649400	-10.920000	24.962673	0.000982	20.879806
816.220660	-2.993300	3.649000	-10.920000	24.955415	0.000981	20.879159
817.218062	-3.007000	3.648300	-10.969000	24.976673	0.000980	20.864936
818.219719	-3.035800	3.646300	-11.069000	24.982050	0.000980	20.880764
819.229470	-3.002800	3.648100	-10.953000	24.974311	0.000980	20.871099
820.216413	-2.985200	3.648500	-10.891000	24.983418	0.000978	20.864120
821.220303	-2.997500	3.649600	-10.938000	24.986450	0.000976	20.874749
822.222140	-2.990200	3.647300	-10.905000	24.994160	0.000980	20.888177
823.216709	-2.994200	3.646700	-10.918000	24.982055	0.000980	20.885984
824.223329	-2.994200	3.647000	-10.918000	24.927380	0.000980	20.872832
825.222412	-2.996600	3.646500	-10.926000	24.937896	0.000982	20.868689
826.219013	-2.999800	3.646500	-10.938000	24.953987	0.000980	20.876778
827.221437	-3.001500	3.646000	-10.942000	24.945007	0.000980	20.864920
828.220856	-2.987700	3.645800	-10.890000	24.977228	0.000979	20.862648
829.218142	-3.011000	3.646400	-10.979000	24.988393	0.000980	20.888552
830.219327	-2.994300	3.645100	-10.913000	24.965349	0.000980	20.886759
831.220946	-2.993900	3.644200	-10.909000	24.946178	0.000980	20.889327
832.222148	-2.998400	3.644100	-10.925000	24.941400	0.000979	20.875998
833.221053	-3.007300	3.644700	-10.960000	24.957289	0.000980	20.869661
834.222137	-2.996800	3.643400	-10.918000	24.981923	0.000979	20.878265
835.221449	-3.002900	3.643500	-10.941000	24.986523	0.000980	20.855384
836.218118	-2.993100	3.643100	-10.902000	24.964046	0.000980	20.888770
837.222668	-3.009100	3.642700	-10.960000	24.948900	0.000981	20.867879
838.220146	-3.003500	3.644400	-10.945000	24.915128	0.000979	20.871915
839.222778	-2.986300	3.643400	-10.879000	24.918090	0.000977	20.878206
840.222435	-3.011700	3.642300	-10.969000	24.905626	0.000978	20.864749
841.234006	-2.986000	3.642000	-10.874000	24.902816	0.000979	20.880420
842.221722	-2.999700	3.642900	-10.926000	24.934512	0.000978	20.860077
843.222087	-3.006200	3.641300	-10.946000	24.908126	0.000979	20.874370
844.225250	-2.992800	3.639400	-10.890000	24.874707	0.000977	20.841305
845.220139	-2.971300	3.643200	-10.823000	24.854314	0.000976	20.855450
846.222917	-2.988000	3.640700	-10.878000	24.870520	0.000977	20.874085
847.223272	-2.998800	3.641100	-10.918000	24.867336	0.000978	20.859510
848.219571	-3.014900	3.639400	-10.971000	24.918427	0.000976	20.849623
849.223176	-3.000200	3.639700	-10.918000	24.914841	0.000976	20.858825
850.225917	-3.003700	3.639700	-10.931000	24.931149	0.000975	20.850538
851.219266	-2.993100	3.639600	-10.893000	24.943057	0.000976	20.868179
852.223104	-3.014900	3.639300	-10.970000	24.944392	0.000975	20.871889
853.224148	-3.007400	3.638200	-10.941000	24.969379	0.000976	20.857142
854.219954	-2.985600	3.639200	-10.863000	24.984462	0.000973	20.855211
855.224975	-2.988500	3.639900	-10.877000	25.016136	0.000973	20.844805
856.223781	-3.002100	3.637500	-10.919000	25.039598	0.000974	20.849389
857.223440	-3.016500	3.636500	-10.968000	25.058187	0.000971	20.842920
858.227112	-2.993800	3.638300	-10.891000	25.059083	0.000973	20.852353
859.227272	-2.991900	3.638300	-10.885000	25.057337	0.000973	20.871936
860.226294	-2.972700	3.636700	-10.809000	25.030161	0.000973	20.856986
861.220605	-2.989600	3.637700	-10.873000	25.031948	0.000973	20.847874
862.225001	-2.992700	3.636700	-10.882000	25.028632	0.000973	20.860667
863.226551	-3.006600	3.635500	-10.930000	25.023761	0.000973	20.865260
864.224348	-3.000900	3.635300	-10.909000	25.045407	0.000971	20.854272
865.227807	-3.003100	3.634600	-10.914000	25.032407	0.000971	20.834111
866.222068	-3.008000	3.634300	-10.931000	25.047769	0.000971	20.869444
867.243429	-3.029000	3.633400	-11.004000	25.086571	0.000971	20.868091
868.225727	-2.995500	3.634200	-10.885000	25.102872	0.000971	20.852213
869.221051	-2.980700	3.634300	-10.831000	25.082635	0.000968	20.857029
870.230080	-2.993900	3.634900	-10.882000	25.087822	0.000970	20.839951
871.229091	-2.986900	3.633500	-10.851000	25.061198	0.000969	20.851157
872.226078	-2.993000	3.634700	-10.876000	25.056766	0.000968	20.869466
873.227799	-2.997100	3.632700	-10.887000	25.083369	0.000966	20.859662
874.235321	-2.995200	3.632400	-10.879000	25.083587	0.000967	20.846605
875.226911	-3.012000	3.632500	-10.939000	25.093378	0.000966	20.848847
876.234476	-3.022500	3.632600	-10.978000	25.079828	0.000965	20.838090
877.223833	-3.010100	3.631300	-10.929000	25.063168	0.000965	20.857402
878.223678	-2.994200	3.632400	-10.874000	25.013787	0.000964	20.847189
879.226003	-2.980600	3.632500	-10.824000	25.021498	0.000963	20.854928
880.224137	-2.996700	3.632400	-10.883000	24.986266	0.000963	20.865082
881.226873	-3.018700	3.630200	-10.957000	24.995414	0.000963	20.826850
882.232804	-3.013300	3.630900	-10.939000	25.005437	0.000961	20.822686
883.229204	-2.998600	3.630500	-10.885000	25.023481	0.000963	20.848384
884.228969	-3.013400	3.628000	-10.931000	25.019259	0.000961	20.828026
885.231679	-3.025700	3.628800	-10.978000	25.013138	0.000962	20.847485
886.227255	-3.010600	3.629700	-10.925000	25.042823	0.000960	20.854523
887.231203	-2.987700	3.629500	-10.842000	25.082752	0.000959	20.829646
888.232367	-2.994000	3.629600	-10.866000	25.079971	0.000960	20.842501
889.233831	-3.011800	3.628500	-10.927000	25.101748	0.000957	20.834016
890.230211	-2.995300	3.628800	-10.869000	25.065525	0.000960	20.857397
891.234613	-2.986900	3.628900	-10.837000	25.110496	0.000959	20.833315
892.232088	-2.991400	3.626400	-10.846000	25.120144	0.000958	20.851535
893.229482	-2.978300	3.628600	-10.804000	25.148680	0.000957	20.836086
894.231551	-3.039300	3.626300	-11.021000	25.128675	0.000957	20.834495
895.231287	-3.024200	3.625700	-10.963000	25.148262	0.000957	20.842778
896.235234	-3.008100	3.625300	-10.904000	25.158066	0.000957	20.822275
897.235375	-2.989000	3.626500	-10.839000	25.169171	0.000958	20.843854
898.234376	-2.998800	3.626000	-10.873000	25.157717	0.000954	20.822399
899.233850	-3.012100	3.624600	-10.917000	25.157619	0.000954	20.834153
900.233601	-2.991600	3.624600	-10.843000	25.142948	0.000954	20.816107
901.237719	-2.971400	3.626500	-10.774000	25.125279	0.000955	20.825871
902.234855	-3.006900	3.623900	-10.894000	25.132713	0.000955	20.850876
903.235886	-2.975400	3.624800	-10.784000	25.144345	0.000954	20.825569
904.235003	-2.979900	3.624300	-10.798000	25.160580	0.000954	20.821954
905.233793	-2.983800	3.623800	-10.810000	25.155291	0.000953	20.832765
906.239421	-3.000800	3.624100	-10.875000	25.168614	0.000953	20.837131
907.240605	-2.995900	3.624900	-10.859000	25.180081	0.000955	20.813556
908.238373	-2.966700	3.624100	-10.750000	25.157332	0.000952	20.832918
909.240561	-2.992400	3.622900	-10.840000	25.176598	0.000948	20.838034
910.243260	-3.006300	3.623400	-10.892000	25.170310	0.000951	20.818446
911.240521	-3.021200	3.620300	-10.936000	25.113612	0.000951	20.817478
912.240260	-2.992800	3.622000	-10.839000	25.120520	0.000949	20.824412
913.260465	-2.991800	3.622200	-10.835000	25.127536	0.000951	20.823394
914.238694	-3.002400	3.621300	-10.871000	25.118517	0.000952	20.827617
915.240931	-3.013700	3.620600	-10.911000	25.121971	0.000950	20.814489
916.242281	-3.003800	3.622100	-10.878000	25.150881	0.000951	20.833079
917.241275	-2.994800	3.621500	-10.844000	25.168862	0.000950	20.815570
918.240905	-3.014700	3.619900	-10.912000	25.202740	0.000949	20.816864
919.244493	-3.011000	3.621300	-10.902000	25.199414	0.000950	20.832016
920.237988	-3.003400	3.618500	-10.866000	25.227451	0.000949	20.809431
921.238737	-2.998800	3.619900	-10.854000	25.251714	0.000947	20.822410
922.239248	-2.995900	3.621300	-10.848000	25.274736	0.000947	20.806170
923.242301	-3.011600	3.618700	-10.896000	25.292751	0.000946	20.823783
924.242357	-2.995200	3.619500	-10.840000	25.296977	0.000947	20.810482
925.243489	-3.003600	3.617800	-10.866000	25.274662	0.000945	20.822217
926.244539	-3.015700	3.617600	-10.907000	25.225074	0.000945	20.807518
927.242338	-3.018200	3.617200	-10.916000	25.213198	0.000946	20.801285
928.242820	-3.023300	3.617900	-10.936000	25.228783	0.000945	20.815509
929.253323	-3.016100	3.617400	-10.909000	25.207506	0.000944	20.820700
930.241287	-2.976900	3.618700	-10.770000	25.211308	0.000943	20.800811
931.245760	-2.989800	3.616300	-10.811000	25.214870	0.000941	20.800593
932.243690	-2.979500	3.617500	-10.777000	25.201719	0.000942	20.802563
933.247253	-2.999300	3.615800	-10.844000	25.182458	0.000941	20.805986
934.247241	-2.993300	3.617000	-10.825000	25.193720	0.000941	20.822507
935.250338	-3.011700	3.614500	-10.885000	25.225643	0.000942	20.816150
936.245317	-2.990700	3.614900	-10.808000	25.246275	0.000942	20.808889
937.249005	-2.992700	3.614100	-10.814000	25.256670	0.000939	20.797514
938.251197	-2.986200	3.614300	-10.792000	25.260645	0.000941	20.821419
939.247234	-2.987900	3.615100	-10.801000	25.228362	0.000940	20.806552
940.248325	-3.002100	3.612800	-10.845000	25.219217	0.000938	20.807328
941.250038	-3.003100	3.613700	-10.851000	25.205102	0.000939	20.784148
942.251082	-2.989200	3.613100	-10.798000	25.237989	0.000938	20.799148
943.250878	-3.006900	3.613400	-10.864000	25.199690	0.000937	20.801000
944.249843	-2.998100	3.612300	-10.829000	25.185801	0.000936	20.791324
945.246779	-3.009000	3.612500	-10.869000	25.184733	0.000935	20.786459
946.247502	-3.013900	3.612300	-10.886000	25.141753	0.000938	20.783614
947.247783	-2.973800	3.612500	-10.742000	25.128316	0.000934	20.810901
948.250597	-2.988700	3.612700	-10.796000	25.125108	0.000934	20.773542
949.253144	-2.997500	3.611400	-10.824000	25.134810	0.000936	20.806515
950.253238	-2.997200	3.611400	-10.823000	25.154401	0.000934	20.782086
951.251600	-2.993300	3.611900	-10.811000	25.160969	0.000932	20.782041
952.256529	-3.014700	3.609500	-10.881000	25.156718	0.000935	20.772084
953.252562	-3.012800	3.608300	-10.870000	25.178945	0.000933	20.784915
954.250010	-3.013200	3.609100	-10.874000	25.229165	0.000933	20.783650
955.256937	-3.001800	3.609900	-10.835000	25.208828	0.000932	20.790733
956.255901	-3.021700	3.607300	-10.900000	25.244208	0.000931	20.788322
957.254514	-2.963600	3.610400	-10.698000	25.258701	0.000933	20.793864
958.254749	-2.993200	3.608800	-10.801000	25.284335	0.000932	20.775031
959.254784	-2.986600	3.608400	-10.776000	25.305813	0.000931	20.781896
960.259902	-2.958800	3.609200	-10.678000	25.318843	0.000930	20.793083
961.259922	-2.996200	3.608100	-10.810000	25.331348	0.000930	20.786671
962.258874	-2.998800	3.608800	-10.819000	25.301153	0.000932	20.765363
963.253885	-3.012500	3.608100	-10.868000	25.288678	0.000929	20.776072
964.256789	-3.008600	3.607100	-10.851000	25.247198	0.000931	20.769038
965.261259	-3.021800	3.606500	-10.896000	25.206065	0.000929	20.769941
966.260434	-3.029200	3.605000	-10.918000	25.196771	0.000929	20.783371
967.258543	-2.990000	3.607300	-10.785000	25.204308	0.000928	20.765333
968.255909	-2.999700	3.607600	-10.820000	25.220842	0.000929	20.774821
969.257374	-3.010100	3.604500	-10.848000	25.211800	0.000927	20.757207
970.257265	-3.010500	3.604400	-10.848000	25.190202	0.000926	20.779147
971.258507	-2.995600	3.605100	-10.799000	25.205714	0.000926	20.764848
972.259154	-2.979000	3.604700	-10.736000	25.195973	0.000927	20.777354
973.262341	-3.006100	3.603800	-10.833000	25.239034	0.000927	20.777911
974.257794	-2.971000	3.605200	-10.710000	25.271473	0.000929	20.770651
975.258723	-3.021500	3.602400	-10.884000	25.301751	0.000926	20.768808
976.262811	-3.008700	3.603300	-10.840000	25.304687	0.000926	20.762273
977.256186	-2.980000	3.604200	-10.740000	25.326563	0.000926	20.765271
978.259054	-3.005900	3.601700	-10.824000	25.326494	0.000925	20.768995
979.259148	-3.005000	3.602500	-10.824000	25.343002	0.000925	20.786045
980.259676	-3.003900	3.602600	-10.821000	25.355329	0.000927	20.769025
981.260792	-3.006900	3.600700	-10.826000	25.347626	0.000927	20.759393
982.262858	-2.979100	3.602700	-10.731000	25.324466	0.000926	20.762692
983.258720	-3.009600	3.601600	-10.839000	25.353026	0.000924	20.761971
984.262161	-3.017500	3.599200	-10.859000	25.339956	0.000923	20.745528
985.259202	-3.010200	3.598900	-10.833000	25.353902	0.000924	20.777075
986.261090	-3.000800	3.600200	-10.802000	25.342441	0.000925	20.747074
987.261900	-3.006200	3.599100	-10.818000	25.361408	0.000924	20.757111
988.261056	-2.950500	3.602200	-10.627000	25.349298	0.000923	20.754908
989.261641	-2.993600	3.600000	-10.775000	25.346002	0.000922	20.771039
990.268978	-3.015000	3.598100	-10.846000	25.372741	0.000921	20.740040
991.260323	-3.001800	3.598300	-10.799000	25.366755	0.000920	20.728339
992.259205	-3.007700	3.597200	-10.818000	25.382559	0.000920	20.752744
993.261578	-2.991700	3.599800	-10.769000	25.419790	0.000924	20.762153
994.259126	-3.006800	3.598400	-10.818000	25.438574	0.000921	20.744506
995.260683	-3.013100	3.597800	-10.838000	25.453910	0.000919	20.755164
996.261700	-3.015300	3.596100	-10.842000	25.409898	0.000918	20.765972
997.262646	-3.051900	3.595900	-10.974000	25.409047	0.000918	20.764169
998.262541	-3.002900	3.595600	-10.796000	25.374699	0.000917	20.754809
999.261309	-2.992400	3.596600	-10.761000	25.393189	0.000916	20.761047
1000.266246	-2.991200	3.596300	-10.756000	25.403106	0.000916	20.746348
1001.263484	-2.993800	3.596700	-10.766000	25.418019	0.000915	20.733348
1002.265217	-2.986600	3.596100	-10.739000	25.395127	0.000915	20.739285
1003.261827	-2.979400	3.596400	-10.714000	25.431187	0.000915	20.746571
1004.266048	-2.998400	3.594600	-10.776000	25.440581	0.000915	20.755530
1005.263599	-3.003800	3.593000	-10.792000	25.442396	0.000915	20.742179
1006.266743	-2.998000	3.594900	-10.776000	25.418664	0.000915	20.749643
1007.265929	-3.022000	3.592500	-10.855000	25.401389	0.000916	20.734667
1008.269504	-3.024500	3.593800	-10.869000	25.399230	0.000913	20.757155
1009.267433	-2.995600	3.594400	-10.765000	25.421644	0.000913	20.761171
1010.267925	-2.991800	3.592200	-10.746000	25.406952	0.000915	20.725080
1011.271090	-2.993100	3.593700	-10.756000	25.370942	0.000912	20.735862
1012.266135	-3.010600	3.593200	-10.817000	25.392166	0.000912	20.738208
1013.269341	-2.989500	3.592300	-10.738000	25.406156	0.000913	20.758420
1014.268469	-2.987300	3.593000	-10.732000	25.357169	0.000911	20.741948
1015.269495	-2.979400	3.592400	-10.702000	25.301814	0.000912	20.734257
1016.271126	-3.001400	3.591600	-10.778000	25.295970	0.000911	20.743563
1017.266576	-2.992100	3.591100	-10.745000	25.306483	0.000910	20.744161
1018.271786	-2.985100	3.592500	-10.723000	25.276357	0.000908	20.744260
1019.272416	-3.028800	3.590000	-10.873000	25.322908	0.000909	20.740738
1020.272283	-3.006000	3.590200	-10.791000	25.367666	0.000908	20.743954
1021.270706	-3.006000	3.590100	-10.791000	25.403481	0.000908	20.737241
1022.271839	-2.985000	3.589100	-10.713000	25.419408	0.000906	20.746122
1023.269477	-3.005800	3.589200	-10.787000	25.424105	0.000906	20.745623
1024.273962	-3.006500	3.588400	-10.788000	25.420077	0.000907	20.737785
1025.268191	-2.985300	3.589100	-10.714000	25.370741	0.000905	20.745619
1026.268693	-3.014100	3.586300	-10.809000	25.335324	0.000903	20.758895
1027.268498	-2.966300	3.589200	-10.645000	25.349708	0.000903	20.752001
1028.272442	-3.003000	3.587000	-10.770000	25.362955	0.000901	20.745387
1029.273325	-3.013800	3.586300	-10.806000	25.356147	0.000903	20.743292
1030.273602	-2.992900	3.588100	-10.738000	25.381445	0.000902	20.737400
1031.269666	-2.999000	3.586300	-10.755000	25.384077	0.000900	20.744784
1032.272835	-2.992200	3.586900	-10.732000	25.363575	0.000901	20.762131
1033.273035	-3.006900	3.586000	-10.781000	25.344784	0.000901	20.745634
1034.271806	-2.991900	3.585500	-10.725000	25.371849	0.000900	20.724918
1035.273551	-2.993700	3.585600	-10.733000	25.374986	0.000899	20.748933
1036.274136	-2.991300	3.585100	-10.722000	25.393875	0.000899	20.736605
1037.277873	-3.001600	3.585000	-10.758000	25.398641	0.000898	20.745184
1038.273211	-2.984300	3.583900	-10.694000	25.413830	0.000898	20.757592
1039.277989	-2.998500	3.583000	-10.742000	25.448871	0.000896	20.755320
1040.275799	-3.027100	3.583200	-10.844000	25.473419	0.000899	20.750573
1041.276972	-2.982800	3.582300	-10.684000	25.453765	0.000899	20.742690
1042.282713	-2.992300	3.581600	-10.716000	25.419546	0.000897	20.740097
1043.275695	-2.999800	3.581900	-10.743000	25.426752	0.000897	20.751601
1044.278358	-2.992800	3.581000	-10.716000	25.467709	0.000898	20.745787
1045.284162	-2.996500	3.581100	-10.730000	25.432763	0.000898	20.742463
1046.282121	-3.014200	3.580900	-10.792000	25.413555	0.000896	20.717010
1047.276455	-2.990000	3.581100	-10.706000	25.385267	0.000898	20.757360
1048.282307	-3.000600	3.581700	-10.746000	25.332132	0.000896	20.720601
1049.280529	-3.022800	3.579500	-10.820000	25.315506	0.000896	20.718606
1050.277542	-3.008900	3.579900	-10.770000	25.293409	0.000896	20.752371
1051.280071	-3.004100	3.579600	-10.753000	25.309411	0.000894	20.761326
1052.280775	-3.012400	3.580000	-10.783000	25.312840	0.000894	20.719248
1053.282907	-3.013600	3.579000	-10.785000	25.346541	0.000893	20.767313
1054.283333	-3.003600	3.578600	-10.747000	25.387771	0.000893	20.728579
1055.279892	-2.988600	3.579800	-10.697000	25.423683	0.000894	20.752312
1056.282661	-3.013100	3.578700	-10.782000	25.428258	0.000892	20.738887
1057.284592	-3.002200	3.578400	-10.742000	25.428204	0.000892	20.749739
1058.283211	-2.995600	3.577900	-10.717000	25.469185	0.000892	20.743476
1059.284983	-3.009700	3.577900	-10.767000	25.489110	0.000891	20.742148
1060.286422	-3.000700	3.578200	-10.736000	25.475988	0.000889	20.767378
1061.287899	-3.001800	3.576200	-10.734000	25.445818	0.000887	20.742296
1062.283938	-3.024400	3.576100	-10.814000	25.432124	0.000887	20.752254
1063.285658	-3.001500	3.576200	-10.732000	25.405755	0.000885	20.749957
1064.283427	-2.998100	3.576000	-10.720000	25.411701	0.000886	20.740755
1065.286205	-3.004200	3.575800	-10.742000	25.430835	0.000887	20.761391
1066.289684	-3.013200	3.575100	-10.771000	25.427082	0.000885	20.734862
1067.280705	-2.982400	3.575600	-10.663000	25.428445	0.000884	20.761836
1068.287971	-3.006100	3.575600	-10.747000	25.452158	0.000884	20.746292
1069.286854	-2.996600	3.574300	-10.709000	25.474493	0.000885	20.748332
1070.287127	-2.988600	3.574900	-10.683000	25.472756	0.000882	20.739950
1071.284995	-3.012200	3.573700	-10.764000	25.459363	0.000882	20.753528
1072.284469	-2.989100	3.573400	-10.680000	25.462792	0.000881	20.745591
1073.285320	-2.976300	3.573300	-10.633000	25.440722	0.000881	20.756620
1074.283915	-3.009400	3.572400	-10.750000	25.463687	0.000883	20.728945
1075.289499	-2.998300	3.573600	-10.713000	25.481585	0.000881	20.745022
1076.286604	-2.985500	3.572700	-10.666000	25.483621	0.000879	20.742800
1077.287161	-3.012000	3.570600	-10.753000	25.501386	0.000879	20.745941
1078.288038	-3.022600	3.570100	-10.789000	25.521492	0.000881	20.757124
1079.291385	-3.018000	3.570900	-10.775000	25.524625	0.000879	20.757425
1080.288668	-2.977300	3.573600	-10.638000	25.523036	0.000877	20.733069
1081.291571	-3.006000	3.570100	-10.731000	25.528131	0.000877	20.753834
1082.285717	-3.018600	3.570300	-10.776000	25.539714	0.000877	20.732748
1083.285283	-3.006100	3.569600	-10.730000	25.554025	0.000876	20.731948
1084.292892	-2.962700	3.571600	-10.580000	25.544410	0.000876	20.765441
1085.295492	-2.984700	3.570000	-10.655000	25.552289	0.000877	20.742532
1086.290418	-2.998700	3.569500	-10.703000	25.479730	0.000875	20.749324
1087.292421	-2.999200	3.568700	-10.701000	25.443648	0.000872	20.749600
1088.292940	-2.972200	3.568500	-10.605000	25.464517	0.000873	20.759178
1089.286441	-3.009900	3.567900	-10.738000	25.483733	0.000873	20.758560
1090.292436	-2.991900	3.567200	-10.672000	25.459928	0.000871	20.752198
1091.290363	-2.994300	3.565900	-10.675000	25.488804	0.000872	20.763652
1092.293517	-3.040300	3.565000	-10.838000	25.482366	0.000871	20.738694
1093.290166	-3.003400	3.567100	-10.713000	25.492955	0.000871	20.756915
1094.291658	-2.984200	3.567400	-10.644000	25.535400	0.000872	20.752598
1095.292362	-3.000700	3.566200	-10.700000	25.565046	0.000870	20.758664
1096.293581	-2.993400	3.565600	-10.673000	25.574813	0.000869	20.740497
1097.290777	-2.985800	3.565700	-10.644000	25.572974	0.000868	20.749556
1098.292220	-2.985400	3.565200	-10.643000	25.587910	0.000865	20.752702
1099.296790	-2.992000	3.565000	-10.665000	25.593226	0.000867	20.733384
1100.289487	-2.985700	3.564500	-10.641000	25.583164	0.000866	20.760738
1101.288520	-2.975300	3.564000	-10.603000	25.551737	0.000866	20.754781
1102.293816	-2.993700	3.564300	-10.669000	25.509539	0.000867	20.736110
1103.292970	-2.990700	3.563700	-10.657000	25.479847	0.000864	20.761296
1104.293381	-2.986400	3.564500	-10.644000	25.434518	0.000865	20.765563
1105.296394	-2.991300	3.563700	-10.658000	25.394037	0.000866	20.759053
1106.294749	-3.009500	3.562800	-10.721000	25.367145	0.000864	20.745801
1107.294981	-3.019200	3.561100	-10.751000	25.368385	0.000863	20.744201
1108.298698	-3.017000	3.562500	-10.747000	25.403378	0.000865	20.757053
1109.299743	-3.011200	3.561400	-10.723000	25.418320	0.000862	20.744082
1110.295784	-3.010100	3.562100	-10.720000	25.436067	0.000862	20.760006
1111.295218	-3.012300	3.561100	-10.726000	25.461092	0.000862	20.753842
1112.292171	-3.013000	3.559200	-10.723000	25.441561	0.000860	20.753195
1113.296660	-3.018400	3.561300	-10.749000	25.404036	0.000859	20.723099
1114.297110	-2.992900	3.559500	-10.652000	25.428320	0.000860	20.763132
1115.297082	-2.999800	3.559900	-10.678000	25.431625	0.000860	20.767400
1116.297227	-2.992300	3.560200	-10.652000	25.483643	0.000858	20.747089
1117.297853	-3.013100	3.557600	-10.718000	25.472060	0.000858	20.764382
1118.295075	-2.989100	3.558400	-10.636000	25.523034	0.000859	20.748714
1119.295435	-3.001800	3.558900	-10.682000	25.573803	0.000858	20.742802
1120.296251	-2.999500	3.558500	-10.672000	25.587544	0.000857	20.759921
1121.293232	-2.993700	3.558500	-10.650000	25.601191	0.000857	20.737116
1122.297968	-2.995000	3.557700	-10.655000	25.610314	0.000856	20.751495
1123.298885	-3.010700	3.556800	-10.707000	25.604997	0.000857	20.764648
1124.294724	-2.995700	3.557100	-10.655000	25.639289	0.000855	20.742189
1125.296169	-2.996300	3.557200	-10.657000	25.643464	0.000854	20.759659
1126.297576	-2.987300	3.555800	-10.620000	25.664934	0.000854	20.762731
1127.295181	-3.019300	3.555600	-10.735000	25.681610	0.000853	20.760039
1128.298759	-2.991600	3.555500	-10.635000	25.699278	0.000854	20.760716
1129.301524	-2.990700	3.555700	-10.633000	25.684172	0.000851	20.755500
1130.294857	-3.002100	3.556000	-10.673000	25.703207	0.000851	20.757075
1131.293538	-2.994600	3.555000	-10.645000	25.701771	0.000850	20.762271
1132.304729	-3.016500	3.553900	-10.719000	25.701274	0.000851	20.757979
1133.297500	-3.008000	3.553600	-10.689000	25.676234	0.000850	20.764123
1134.299527	-3.006300	3.552900	-10.680000	25.626443	0.000850	20.777652
1135.302462	-2.981400	3.554200	-10.596000	25.603762	0.000848	20.775735
1136.295745	-2.988600	3.551600	-10.613000	25.596257	0.000849	20.766775
1137.300035	-2.992000	3.552300	-10.628000	25.558393	0.000846	20.768104
1138.306055	-2.999400	3.554000	-10.659000	25.520696	0.000848	20.771497
1139.296236	-2.986000	3.552900	-10.608000	25.494260	0.000848	20.753958
1140.298684	-2.988900	3.551900	-10.615000	25.464469	0.000847	20.772880
1141.311723	-2.989600	3.551100	-10.616000	25.490044	0.000846	20.778649
1142.297254	-3.018600	3.551200	-10.717000	25.463903	0.000845	20.759509
1143.300945	-2.985700	3.552500	-10.606000	25.534181	0.000845	20.765599
1144.304262	-3.003300	3.550000	-10.661000	25.546589	0.000843	20.760991
1145.301277	-3.002900	3.548600	-10.655000	25.556327	0.000842	20.764606
1146.303445	-2.975900	3.549600	-10.562000	25.603200	0.000840	20.741505
1147.305167	-2.995700	3.549500	-10.633000	25.628497	0.000842	20.767861
1148.302601	-3.015000	3.548300	-10.697000	25.645871	0.000840	20.745481
1149.302507	-3.007100	3.548400	-10.669000	25.647165	0.000842	20.777127
1150.308085	-3.013900	3.548800	-10.695000	25.667622	0.000840	20.761637
1151.303584	-3.013000	3.548000	-10.689000	25.682674	0.000837	20.769169
1152.305529	-2.995900	3.548500	-10.630000	25.692721	0.000838	20.757448
1153.305905	-2.997100	3.548100	-10.633000	25.690636	0.000838	20.752035
1154.302206	-2.996800	3.546800	-10.628000	25.684803	0.000837	20.775101
1155.307345	-3.003100	3.546600	-10.650000	25.631432	0.000836	20.749945
1156.307501	-2.993800	3.546700	-10.617000	25.601276	0.000837	20.744314
1157.305475	-3.000700	3.545000	-10.636000	25.556429	0.000837	20.786520
1158.309892	-2.978800	3.547000	-10.563000	25.541925	0.000836	20.766264
1159.306551	-2.990100	3.546100	-10.603000	25.529625	0.000835	20.773826
1160.309330	-3.002700	3.545400	-10.645000	25.572471	0.000835	20.773708
1161.308475	-2.990400	3.544700	-10.599000	25.585022	0.000836	20.759759
1162.306939	-3.005400	3.545200	-10.654000	25.625634	0.000834	20.775416
1163.309609	-2.999800	3.544500	-10.631000	25.644149	0.000833	20.780262
1164.312926	-2.991800	3.544400	-10.602000	25.621862	0.000832	20.776370
1165.312829	-3.009900	3.544500	-10.668000	25.631289	0.000833	20.772087
1166.311994	-3.003200	3.544100	-10.643000	25.659890	0.000830	20.779950
1167.310164	-2.985600	3.544800	-10.583000	25.656148	0.000831	20.780459
1168.311389	-2.996300	3.543700	-10.617000	25.658710	0.000831	20.770704
1169.314070	-2.996400	3.543100	-10.616000	25.681601	0.000831	20.781368
1170.312290	-2.987700	3.543500	-10.586000	25.744140	0.000830	20.755990
1171.314170	-3.014200	3.541800	-10.675000	25.741042	0.000829	20.769948
1172.310735	-3.011500	3.541700	-10.665000	25.715039	0.000830	20.761848
1173.311302	-3.000800	3.540300	-10.623000	25.686095	0.000830	20.783037
1174.315519	-3.030900	3.539800	-10.728000	25.673202	0.000828	20.785734
1175.312885	-3.009600	3.539300	-10.651000	25.633998	0.000827	20.777653
1176.318190	-3.018000	3.538900	-10.678000	25.642580	0.000827	20.775841
1177.314057	-2.994400	3.540900	-10.601000	25.650084	0.000826	20.754928
1178.314998	-3.006900	3.539300	-10.642000	25.674367	0.000826	20.785482
1179.318761	-2.982900	3.539600	-10.556000	25.684581	0.000825	20.772981
1180.319007	-2.983800	3.538900	-10.559000	25.690349	0.000823	20.772136
1181.317137	-3.010100	3.538900	-10.652000	25.714061	0.000824	20.783151
1182.315515	-2.966700	3.539500	-10.499000	25.713490	0.000823	20.785897
1183.321639	-3.003600	3.537800	-10.625000	25.726762	0.000820	20.783106
1184.315968	-2.983400	3.538500	-10.555000	25.731984	0.000823	20.787403
1185.321274	-3.016800	3.536700	-10.669000	25.725676	0.000822	20.784385
1186.320000	-3.017200	3.536200	-10.668000	25.731645	0.000820	20.772364
1187.317332	-2.999500	3.536400	-10.606000	25.771578	0.000819	20.766007
1188.321084	-2.998900	3.536300	-10.603000	25.749691	0.000820	20.755402
1189.317934	-2.994200	3.535900	-10.586000	25.775010	0.000820	20.781783
1190.321189	-3.012200	3.536100	-10.651000	25.726295	0.000819	20.784534
1191.320654	-3.005000	3.535200	-10.623000	25.752435	0.000819	20.788505
1192.321966	-2.992600	3.535100	-10.577000	25.697155	0.000818	20.775653
1193.320897	-2.993100	3.535200	-10.581000	25.652568	0.000818	20.787769
1194.323478	-3.002500	3.533200	-10.607000	25.685221	0.000818	20.778365
1195.320645	-3.008300	3.533300	-10.628000	25.701566	0.000817	20.790041
1196.320705	-2.977400	3.533900	-10.521000	25.697922	0.000816	20.770734
1197.320066	-2.994800	3.532800	-10.578000	25.688958	0.000815	20.775955
1198.328005	-3.004800	3.533100	-10.615000	25.684488	0.000815	20.769569
1199.325916	-2.998900	3.531900	-10.590000	25.691373	0.000815	20.786441
1200.325813	-3.001000	3.532600	-10.601000	25.701891	0.000814	20.786100
1201.327914	-2.996300	3.531300	-10.580000	25.706317	0.000813	20.783907
1202.328974	-3.017600	3.530300	-10.651000	25.673522	0.000812	20.779418
1203.326146	-3.025600	3.529200	-10.676000	25.625128	0.000816	20.784392
1204.322025	-3.009200	3.528700	-10.617000	25.630970	0.000813	20.777931
1205.325507	-2.993900	3.530900	-10.570000	25.643417	0.000812	20.786639
1206.322072	-2.988500	3.531100	-10.552000	25.628787	0.000809	20.776212
1207.327647	-3.014200	3.529600	-10.637000	25.670380	0.000810	20.770572
1208.327363	-3.014600	3.529300	-10.637000	25.670764	0.000810	20.817424
1209.325387	-2.996700	3.528500	-10.572000	25.716182	0.000811	20.803773
1210.326278	-2.997100	3.527000	-10.569000	25.732758	0.000810	20.785335
1211.327215	-3.002400	3.527900	-10.590000	25.740439	0.000808	20.793999
1212.327325	-3.021500	3.526900	-10.654000	25.677782	0.000808	20.789386
1213.328346	-3.027800	3.527500	-10.679000	25.662522	0.000807	20.792077
1214.326644	-2.970200	3.528800	-10.479000	25.660497	0.000806	20.794784
1215.323996	-2.992000	3.526500	-10.550000	25.654507	0.000808	20.799674
1216.330692	-3.011900	3.527100	-10.623000	25.646885	0.000805	20.797234
1217.330602	-3.023800	3.525100	-10.658000	25.651139	0.000807	20.789653
1218.326370	-2.997900	3.526100	-10.570000	25.681401	0.000806	20.788754
1219.329063	-3.018800	3.524600	-10.638000	25.684165	0.000805	20.781098
1220.327455	-2.986300	3.525000	-10.526000	25.695648	0.000803	20.798795
1221.329275	-3.005000	3.525700	-10.594000	25.713488	0.000805	20.798223
1222.330377	-3.005500	3.524100	-10.591000	25.730114	0.000802	20.791688
1223.327323	-3.030400	3.523100	-10.675000	25.768227	0.000803	20.804841
1224.325562	-3.019100	3.522700	-10.634000	25.773616	0.000804	20.799349
1225.333073	-3.004500	3.524800	-10.589000	25.796854	0.000801	20.789026
1226.334069	-3.006400	3.523400	-10.592000	25.854967	0.000802	20.793348
1227.333496	-3.012200	3.522900	-10.611000	25.834124	0.000800	20.796593
1228.330421	-3.008400	3.522900	-10.597000	25.825830	0.000800	20.801063
1229.329945	-2.968800	3.522900	-10.457000	25.859372	0.000800	20.793981
1230.332226	-2.985000	3.522300	-10.512000	25.871472	0.000798	20.801394
1231.330674	-3.000900	3.521200	-10.565000	25.872146	0.000799	20.789743
1232.330393	-2.998700	3.520800	-10.557000	25.879231	0.000796	20.807766
1233.335063	-2.986900	3.519900	-10.512000	25.880947	0.000798	20.811861
1234.327641	-2.995100	3.520800	-10.544000	25.878390	0.000797	20.801232
1235.329412	-2.978500	3.518800	-10.480000	25.878194	0.000795	20.789180
1236.331314	-2.995600	3.520000	-10.544000	25.923460	0.000795	20.802887
1237.331206	-2.981500	3.520500	-10.495000	25.927408	0.000797	20.806379
1238.331692	-2.989900	3.520700	-10.525000	25.898873	0.000796	20.790989
1239.334399	-2.994800	3.518700	-10.536000	25.881685	0.000795	20.801697
1240.331652	-2.998000	3.519200	-10.549000	25.846383	0.000796	20.806537
1241.332806	-2.988800	3.518300	-10.515000	25.843684	0.000795	20.782015
1242.331518	-2.995600	3.517700	-10.537000	25.860578	0.000792	20.803253
1243.332143	-2.994300	3.517500	-10.532000	25.835985	0.000793	20.837342
1244.329575	-2.974700	3.518000	-10.464000	25.825758	0.000793	20.813793
1245.332383	-3.006900	3.516900	-10.574000	25.803224	0.000792	20.821977
1246.333678	-3.012300	3.516500	-10.592000	25.800569	0.000791	20.823577
1247.336482	-3.002000	3.516500	-10.554000	25.790588	0.000788	20.810707
1248.339637	-3.007200	3.516100	-10.571000	25.840426	0.000789	20.826156
1249.335045	-2.995600	3.515300	-10.529000	25.867084	0.000791	20.827806
1250.336803	-3.003400	3.515600	-10.558000	25.907080	0.000791	20.817251
1251.335177	-2.986800	3.517200	-10.504000	25.900773	0.000790	20.822294
1252.336061	-2.992900	3.515500	-10.521000	25.904696	0.000788	20.806321
1253.331772	-2.972900	3.515000	-10.448000	25.918192	0.000790	20.805655
1254.335103	-2.995800	3.512200	-10.520000	25.931707	0.000790	20.838198
1255.335171	-2.990400	3.513900	-10.505000	25.931511	0.000787	20.834207
1256.338285	-3.002100	3.512500	-10.543000	25.946943	0.000785	20.827901
1257.335010	-3.002000	3.512200	-10.543000	25.929309	0.000786	20.816348
1258.334559	-3.019500	3.511100	-10.601000	25.903069	0.000787	20.824601
1259.337046	-3.000100	3.511100	-10.533000	25.849818	0.000785	20.831798
1260.335435	-3.008700	3.513000	-10.568000	25.798545	0.000786	20.817277
1261.338240	-2.984900	3.510400	-10.478000	25.799140	0.000785	20.824513
1262.335273	-2.995900	3.510500	-10.516000	25.824359	0.000784	20.820448
1263.335259	-2.987900	3.510300	-10.488000	25.837182	0.000782	20.824795
1264.332751	-3.002100	3.509800	-10.535000	25.853781	0.000783	20.845736
1265.341765	-3.001000	3.510900	-10.535000	25.865483	0.000782	20.840896
1266.348351	-2.983400	3.509000	-10.467000	25.895470	0.000781	20.825027
1267.336058	-3.005300	3.508000	-10.540000	25.895701	0.000782	20.843277
1268.338052	-2.993100	3.509000	-10.502000	25.913784	0.000780	20.832046
1269.335731	-2.976700	3.509300	-10.444000	25.900893	0.000782	20.831424
1270.341964	-3.019500	3.508100	-10.591000	25.917737	0.000782	20.835543
1271.337910	-3.015000	3.508000	-10.575000	25.916921	0.000778	20.838042
1272.336506	-2.974800	3.508200	-10.434000	25.935554	0.000779	20.819304
1273.333541	-2.989000	3.506400	-10.480000	25.934881	0.000779	20.845653
1274.339970	-3.004000	3.506000	-10.532000	25.949713	0.000779	20.828312
1275.347242	-3.009800	3.506400	-10.553000	25.959703	0.000777	20.831237
1276.338196	-2.988100	3.507000	-10.478000	25.927015	0.000776	20.839648
1277.339025	-3.000600	3.504600	-10.514000	25.911568	0.000776	20.855897
1278.341957	-3.004900	3.504600	-10.530000	25.891916	0.000775	20.832363
1279.338511	-3.014300	3.503600	-10.559000	25.893166	0.000775	20.843100
1280.348091	-2.995700	3.503500	-10.495000	25.924837	0.000775	20.842202
1281.346480	-3.019400	3.503900	-10.579000	25.912443	0.000774	20.848242
1282.339797	-2.978700	3.503500	-10.435000	25.939493	0.000772	20.848864
1283.344913	-3.025000	3.502400	-10.594000	25.926283	0.000773	20.838438
1284.343739	-3.002100	3.502900	-10.515000	25.924174	0.000774	20.839639
1285.346657	-3.002600	3.503400	-10.518000	25.869148	0.000771	20.846948
1286.343751	-3.001100	3.501700	-10.508000	25.900501	0.000771	20.843358
1287.343801	-3.009700	3.500900	-10.535000	25.892936	0.000768	20.857093
1288.341702	-2.995300	3.501300	-10.486000	25.883466	0.000770	20.863227
1289.348673	-2.971300	3.502300	-10.405000	25.869955	0.000768	20.855819
1290.346558	-2.999300	3.501600	-10.501000	25.874995	0.000769	20.850924
1291.341283	-3.008000	3.500000	-10.525000	25.908658	0.000768	20.852974
1292.345639	-2.997500	3.499300	-10.488000	25.926373	0.000768	20.857494
1293.345469	-3.022100	3.498600	-10.572000	25.916914	0.000766	20.853681
1294.348364	-3.018300	3.497500	-10.555000	25.858559	0.000767	20.852906
1295.342051	-3.014000	3.497100	-10.539000	25.808703	0.000766	20.858299
1296.347124	-2.986300	3.498800	-10.447000	25.818399	0.000767	20.861875
1297.341985	-2.981100	3.499400	-10.431000	25.806053	0.000766	20.855163
1298.345606	-2.997100	3.498500	-10.484000	25.836955	0.000766	20.857756
1299.346423	-3.005300	3.495800	-10.504000	25.851858	0.000767	20.870355
1300.348345	-3.005400	3.496000	-10.506000	25.877209	0.000765	20.860261
1301.349342	-3.016600	3.496100	-10.546000	25.875045	0.000764	20.853820
1302.349321	-2.989000	3.497400	-10.453000	25.858348	0.000765	20.865495
1303.345804	-3.019400	3.495000	-10.551000	25.853186	0.000763	20.844190
1304.351679	-2.997900	3.496900	-10.482000	25.885189	0.000761	20.848363
1305.349742	-3.010200	3.493300	-10.514000	25.912362	0.000763	20.844368
1306.348703	-3.013100	3.493300	-10.524000	25.907121	0.000762	20.840525
1307.347969	-3.025100	3.493900	-10.567000	25.935445	0.000762	20.867082
1308.348250	-3.009700	3.493200	-10.512000	25.905381	0.000761	20.859164
1309.353226	-3.018700	3.493200	-10.544000	25.901438	0.000762	20.855678
1310.353280	-3.003000	3.492900	-10.489000	25.901114	0.000762	20.848714
1311.349601	-3.010000	3.491400	-10.509000	25.941404	0.000762	20.859318
1312.351948	-2.997300	3.492500	-10.466000	25.922033	0.000761	20.852186
1313.353273	-2.985700	3.492000	-10.425000	25.909762	0.000760	20.837014
1314.351346	-3.013900	3.491000	-10.520000	25.874063	0.000760	20.847618
1315.350967	-2.988400	3.491700	-10.434000	25.874112	0.000761	20.836288
1316.351852	-3.037900	3.488800	-10.596000	25.857892	0.000760	20.847020
1317.349869	-2.992800	3.491200	-10.446000	25.856801	0.000760	20.853984
1318.352825	-3.009000	3.488900	-10.497000	25.874565	0.000758	20.846225
1319.353948	-2.980100	3.491200	-10.403000	25.876502	0.000756	20.843904
1320.351682	-2.975300	3.490900	-10.385000	25.931822	0.000757	20.846848
1321.355654	-2.961800	3.489700	-10.335000	25.957780	0.000755	20.845899
1322.361482	-3.001300	3.488700	-10.470000	25.981929	0.000754	20.845979
1323.353010	-2.982400	3.488100	-10.402000	26.009817	0.000756	20.846023
1324.354023	-2.987900	3.489700	-10.426000	25.989701	0.000755	20.826761
1325.354553	-3.010300	3.488000	-10.497000	25.991362	0.000754	20.828904
1326.351598	-2.992600	3.488500	-10.438000	25.992355	0.000755	20.835592
1327.353532	-2.999200	3.487100	-10.457000	25.964038	0.000753	20.843178
1328.352172	-2.988500	3.487700	-10.420000	25.946385	0.000754	20.814537
1329.357178	-3.010100	3.485800	-10.491000	25.985483	0.000751	20.820627
1330.353985	-3.000500	3.486300	-10.459000	25.958828	0.000753	20.819926
1331.351940	-3.004600	3.484800	-10.470000	25.923877	0.000751	20.827013
1332.353948	-2.990300	3.484500	-10.419000	25.917796	0.000752	20.835128
1333.354466	-3.008000	3.485800	-10.484000	25.935584	0.000751	20.817437
1334.355582	-3.002700	3.484600	-10.462000	25.944600	0.000747	20.817486
1335.354812	-3.005800	3.484300	-10.472000	25.948474	0.000746	20.828964
1336.353144	-3.019600	3.482500	-10.514000	25.939040	0.000750	20.846513
1337.351042	-2.995600	3.484200	-10.436000	25.900736	0.000748	20.835534
1338.358931	-3.004600	3.483200	-10.465000	25.888219	0.000748	20.831968
1339.359897	-2.992500	3.482100	-10.420000	25.909306	0.000746	20.832763
1340.353005	-3.015500	3.481800	-10.498000	25.940339	0.000745	20.835964
1341.357851	-2.998200	3.481700	-10.437000	25.925432	0.000746	20.811980
1342.358742	-2.994500	3.482300	-10.427000	25.895324	0.000745	20.836260
1343.353988	-3.000300	3.481600	-10.445000	25.864000	0.000744	20.820440
1344.356876	-2.981100	3.481100	-10.378000	25.884075	0.000744	20.824960
1345.358342	-2.993300	3.480300	-10.417000	25.853174	0.000743	20.810513
1346.355251	-2.958400	3.479800	-10.292000	25.849471	0.000743	20.814380
1347.359818	-3.012400	3.479100	-10.479000	25.855883	0.000743	20.814183
1348.363022	-2.999300	3.478800	-10.433000	25.869522	0.000744	20.808444
1349.355456	-2.994700	3.479200	-10.417000	25.889425	0.000742	20.814687
1350.362351	-2.986100	3.478800	-10.387000	25.885575	0.000742	20.807975
1351.365803	-3.004100	3.477000	-10.444000	25.918589	0.000742	20.801312
1352.360852	-3.019400	3.477600	-10.500000	25.953117	0.000741	20.811343
1353.365598	-3.022200	3.475700	-10.502000	25.949843	0.000738	20.835081
1354.364470	-2.998400	3.476400	-10.422000	25.971602	0.000739	20.832285
1355.360917	-3.025600	3.474000	-10.509000	25.949769	0.000740	20.825524
1356.358258	-3.011100	3.474800	-10.460000	25.895596	0.000739	20.798601
1357.360266	-2.989700	3.476200	-10.392000	25.872272	0.000738	20.801723
1358.361634	-3.003400	3.474800	-10.436000	25.863525	0.000736	20.802893
1359.363172	-2.989300	3.472800	-10.379000	25.858259	0.000737	20.798078
1360.368785	-2.988300	3.473700	-10.379000	25.885168	0.000738	20.801876
1361.368838	-3.007200	3.474100	-10.447000	25.890385	0.000735	20.811858
1362.365541	-3.010200	3.472700	-10.453000	25.929559	0.000737	20.809013
1363.369179	-2.996700	3.472200	-10.404000	25.947101	0.000734	20.809093
1364.367047	-3.014700	3.472500	-10.467000	25.970276	0.000734	20.790650
1365.368094	-2.993300	3.473500	-10.395000	25.957956	0.000733	20.806722
1366.367787	-2.991300	3.473000	-10.388000	25.958158	0.000735	20.793648
1367.365129	-2.972600	3.472800	-10.323000	25.905965	0.000730	20.799062
1368.365267	-2.987600	3.472300	-10.373000	25.878473	0.000733	20.824548
1369.366759	-2.992600	3.471100	-10.387000	25.858054	0.000731	20.813519
1370.364697	-2.983900	3.470300	-10.354000	25.836268	0.000728	20.797798
1371.368354	-2.982200	3.471400	-10.352000	25.809786	0.000729	20.810551
1372.366620	-2.973300	3.470200	-10.317000	25.789616	0.000730	20.817791
1373.365726	-2.956300	3.470700	-10.260000	25.760497	0.000730	20.793284
1374.364579	-2.981700	3.469300	-10.344000	25.790315	0.000726	20.809958
1375.368574	-2.999600	3.468300	-10.403000	25.831553	0.000727	20.804441
1376.367873	-3.017700	3.466900	-10.460000	25.858738	0.000727	20.805672
1377.369045	-3.003200	3.467700	-10.413000	25.889865	0.000726	20.796638
1378.371441	-2.996200	3.466800	-10.385000	25.858916	0.000727	20.791625
1379.364986	-2.996300	3.466300	-10.384000	25.880799	0.000724	20.795591
1380.370488	-3.005700	3.465500	-10.415000	25.895614	0.000725	20.794352
1381.373444	-3.001800	3.466600	-10.406000	25.939060	0.000724	20.789635
1382.371368	-3.011400	3.465300	-10.433000	25.977864	0.000723	20.809180
1383.367624	-2.991800	3.466100	-10.368000	25.966611	0.000722	20.800245
1384.373515	-2.995100	3.465200	-10.378000	25.928358	0.000723	20.791211
1385.370431	-3.004800	3.463300	-10.405000	25.915644	0.000722	20.784603
1386.372551	-2.999200	3.464000	-10.388000	25.930103	0.000721	20.807190
1387.368504	-2.990800	3.465200	-10.362000	25.939696	0.000723	20.773204
1388.367054	-2.987700	3.464800	-10.350000	25.984360	0.000721	20.807645
1389.371684	-3.000400	3.462200	-10.387000	25.974552	0.000720	20.794472
1390.368844	-2.985600	3.463600	-10.339000	25.984812	0.000721	20.774434
1391.371985	-3.014600	3.461500	-10.434000	25.970457	0.000720	20.789884
1392.372968	-3.031300	3.459700	-10.486000	26.002678	0.000718	20.789065
1393.370564	-2.993000	3.461900	-10.360000	26.007427	0.000718	20.798578
1394.371326	-3.008000	3.460500	-10.408000	26.027101	0.000718	20.782783
1395.370074	-2.998300	3.459800	-10.373000	26.068881	0.000719	20.786828
1396.371702	-2.992000	3.460800	-10.353000	26.053136	0.000718	20.781914
1397.371917	-2.984700	3.459500	-10.324000	26.038133	0.000717	20.788176
1398.371674	-3.000600	3.457600	-10.375000	26.047950	0.000717	20.778600
1399.372065	-3.001300	3.459800	-10.382000	26.040154	0.000715	20.787362
1400.372251	-3.002500	3.458100	-10.380000	26.010196	0.000717	20.786187
1401.377441	-2.982500	3.458400	-10.314000	25.972672	0.000716	20.786419
1402.372491	-3.019100	3.457700	-10.439000	25.937005	0.000713	20.777613
1403.371778	-3.001500	3.456400	-10.373000	25.966144	0.000716	20.783180
1404.372258	-3.009000	3.456900	-10.401000	25.983110	0.000713	20.773672
1405.372499	-3.020700	3.455000	-10.435000	25.993749	0.000713	20.760179
1406.371217	-3.009300	3.455500	-10.398000	26.041488	0.000713	20.774478
1407.373320	-2.984400	3.455600	-10.313000	26.051098	0.000711	20.792194
1408.371265	-3.002600	3.455500	-10.374000	26.049835	0.000713	20.773381
1409.376934	-3.020700	3.453600	-10.431000	26.097252	0.000712	20.777876
1410.372350	-3.018600	3.454500	-10.426000	26.089383	0.000709	20.771865
1411.375740	-2.987100	3.453900	-10.316000	26.112707	0.000709	20.783922
1412.373691	-3.002200	3.454700	-10.370000	26.115220	0.000711	20.772696
1413.388765	-2.986900	3.454700	-10.318000	26.142442	0.000709	20.767332
1414.379447	-2.994600	3.452700	-10.338000	26.115869	0.000709	20.770029
1415.375226	-2.997100	3.451100	-10.341000	26.122628	0.000708	20.777769
1416.377380	-2.991900	3.452500	-10.330000	26.079189	0.000706	20.774425
1417.376395	-3.003100	3.452700	-10.368000	26.084140	0.000706	20.789357
1418.376860	-3.020100	3.450900	-10.421000	26.089920	0.000708	20.770509
1419.390333	-3.003700	3.450500	-10.363000	26.091439	0.000706	20.766345
1420.381706	-3.009300	3.450000	-10.381000	26.118018	0.000707	20.769818
1421.379135	-3.005500	3.450000	-10.368000	26.079868	0.000704	20.770840
1422.378578	-2.992500	3.450700	-10.325000	26.102849	0.000704	20.768801
1423.387839	-3.005900	3.450300	-10.370000	26.119188	0.000704	20.761985
1424.378437	-2.997600	3.449300	-10.339000	26.128337	0.000706	20.782557
1425.383597	-2.979500	3.449000	-10.275000	26.108468	0.000704	20.770654
1426.383827	-3.005600	3.449000	-10.365000	26.113708	0.000704	20.771651
1427.376863	-2.994600	3.448100	-10.324000	26.110086	0.000703	20.748097
1428.380671	-3.000900	3.448900	-10.349000	26.098215	0.000703	20.759403
1429.381440	-2.991300	3.446500	-10.309000	26.100201	0.000702	20.773726
1430.378373	-2.997800	3.447600	-10.335000	26.104532	0.000701	20.782820
1431.381927	-2.989300	3.447600	-10.305000	26.049570	0.000699	20.767425
1432.384147	-3.011100	3.446100	-10.376000	26.003414	0.000700	20.764673
1433.381061	-3.014700	3.444500	-10.381000	25.970830	0.000700	20.763232
1434.379634	-3.023200	3.445400	-10.415000	25.933496	0.000698	20.769346
1435.384474	-2.994800	3.444100	-10.314000	25.893574	0.000699	20.758164
1436.378878	-3.015400	3.443900	-10.383000	25.841512	0.000699	20.763711
1437.382418	-3.003900	3.443800	-10.344000	25.843076	0.000698	20.757221
1438.380657	-3.002900	3.443400	-10.339000	25.860270	0.000698	20.765959
1439.377780	-2.996100	3.443700	-10.317000	25.907322	0.000695	20.747318
1440.385905	-2.980900	3.444700	-10.267000	25.940286	0.000697	20.766211
1441.386039	-3.005900	3.441700	-10.345000	25.958919	0.000696	20.771654
1442.384416	-2.975200	3.443400	-10.244000	25.992202	0.000695	20.755779
1443.387900	-3.016400	3.440600	-10.376000	26.048539	0.000697	20.761647
1444.389110	-3.014500	3.441300	-10.373000	26.040216	0.000696	20.773674
1445.381641	-3.003400	3.441300	-10.335000	26.047399	0.000696	20.757657
1446.382962	-2.996500	3.440800	-10.309000	26.064284	0.000694	20.757078
1447.383791	-2.990000	3.440300	-10.285000	26.074420	0.000694	20.767263
1448.385767	-2.987200	3.440600	-10.276000	26.056512	0.000692	20.738838
1449.386217	-3.022600	3.438100	-10.391000	26.029116	0.000693	20.758728
1450.381171	-3.014300	3.438700	-10.365000	26.032212	0.000691	20.764684
1451.384814	-2.990600	3.439000	-10.284000	26.037458	0.000692	20.760946
1452.385206	-2.988900	3.439000	-10.278000	26.023827	0.000692	20.777122
1453.385350	-3.001300	3.438000	-10.318000	26.013911	0.000690	20.759572
1454.382678	-2.995900	3.437300	-10.295000	26.021265	0.000690	20.750840
1455.387558	-2.980500	3.437800	-10.245000	26.043746	0.000689	20.757780
1456.384841	-3.007400	3.437400	-10.336000	26.045855	0.000690	20.744725
1457.389161	-3.012500	3.437100	-10.353000	26.052762	0.000688	20.738862
1458.388712	-3.003700	3.436800	-10.322000	26.049030	0.000689	20.733216
1459.385884	-3.001900	3.435800	-10.313000	26.073398	0.000688	20.753907
1460.390059	-3.022700	3.435900	-10.383000	26.018906	0.000688	20.745150
1461.386792	-2.995700	3.434700	-10.287000	26.010755	0.000688	20.754979
1462.389135	-3.002400	3.434400	-10.310000	26.011600	0.000687	20.775269
1463.388546	-3.023500	3.433100	-10.379000	26.043986	0.000687	20.757547
1464.390796	-2.997600	3.434700	-10.295000	26.072797	0.000687	20.748562
1465.385681	-3.015400	3.433000	-10.350000	26.101657	0.000689	20.770922
1466.389344	-2.998200	3.432600	-10.290000	26.100732	0.000685	20.754820
1467.403486	-3.004000	3.432300	-10.309000	26.064126	0.000687	20.737952
1468.389143	-2.988300	3.432500	-10.256000	26.043331	0.000686	20.754993
1469.388120	-2.984100	3.432200	-10.242000	26.018049	0.000688	20.750928
1470.386174	-2.997800	3.431000	-10.284000	26.025491	0.000685	20.761250
1471.385670	-2.996700	3.432400	-10.284000	26.032570	0.000685	20.740861
1472.389150	-2.993600	3.431700	-10.272000	26.019577	0.000686	20.748195
1473.389652	-2.966800	3.431300	-10.179000	25.978990	0.000687	20.747721
1474.390806	-3.004000	3.429800	-10.302000	25.991255	0.000687	20.740129
1475.389884	-3.007800	3.430100	-10.316000	26.001780	0.000686	20.739323
1476.387077	-2.992300	3.430600	-10.264000	25.984514	0.000684	20.740469
1477.390080	-3.014900	3.428000	-10.334000	25.949982	0.000683	20.725690
1478.385025	-3.025700	3.428100	-10.371000	25.959471	0.000683	20.731429
1479.388770	-2.990000	3.429100	-10.252000	25.961978	0.000682	20.751018
1480.388201	-3.005900	3.427000	-10.300000	25.970118	0.000682	20.729798
1481.386549	-3.010600	3.426300	-10.314000	25.947980	0.000682	20.746913
1482.391606	-3.007500	3.427200	-10.306000	25.990450	0.000682	20.761132
1483.391158	-2.995100	3.425700	-10.259000	26.013055	0.000679	20.726942
1484.391538	-3.008400	3.425200	-10.303000	26.004151	0.000680	20.765414
1485.390298	-3.027000	3.423800	-10.360000	26.017861	0.000680	20.740307
1486.391213	-2.995400	3.425800	-10.260000	26.038473	0.000679	20.742051
1487.393502	-2.976700	3.425600	-10.195000	26.024905	0.000678	20.760661
1488.396460	-2.978800	3.425300	-10.202000	26.048520	0.000679	20.743136
1489.394225	-3.016600	3.423600	-10.326000	26.020131	0.000677	20.740217
1490.391773	-2.998300	3.424100	-10.266000	26.031427	0.000678	20.725487
1491.394866	-2.993300	3.422600	-10.242000	25.993318	0.000678	20.739357
1492.392834	-2.974000	3.422900	-10.179000	26.018227	0.000676	20.740675
1493.395667	-2.955900	3.422900	-10.117000	25.997536	0.000674	20.743594
1494.392282	-2.993500	3.422500	-10.245000	26.010695	0.000674	20.732159
1495.396870	-3.007800	3.421300	-10.288000	26.054653	0.000673	20.731279
1496.407931	-2.998700	3.421500	-10.259000	26.090990	0.000673	20.723692
1497.396461	-3.023500	3.419500	-10.338000	26.111729	0.000672	20.717503
1498.395019	-2.980400	3.421300	-10.196000	26.119893	0.000670	20.731397
1499.395902	-3.000500	3.419000	-10.258000	26.169489	0.000671	20.736663
1500.399016	-3.000700	3.418400	-10.256000	26.169986	0.000670	20.755654
1501.400118	-2.974900	3.420500	-10.174000	26.183340	0.000670	20.741572
1502.396753	-3.016500	3.418000	-10.309000	26.210309	0.000668	20.748284
1503.393995	-3.013300	3.418500	-10.300000	26.216094	0.000670	20.757417
1504.396639	-2.997500	3.418300	-10.245000	26.215942	0.000666	20.745883
1505.397151	-3.026000	3.417200	-10.338000	26.220906	0.000668	20.752294
1506.399658	-2.998500	3.418800	-10.251000	26.200321	0.000666	20.740144
1507.398213	-2.990200	3.418300	-10.220000	26.211027	0.000669	20.731935
1508.401333	-2.987800	3.416700	-10.207000	26.212191	0.000666	20.724570
1509.401557	-3.003300	3.416800	-10.260000	26.230244	0.000667	20.747454
1510.397990	-2.989400	3.416000	-10.211000	26.243903	0.000666	20.720401
1511.399359	-2.990000	3.416600	-10.214000	26.242935	0.000665	20.755465
1512.397020	-2.975400	3.416200	-10.163000	26.228381	0.000663	20.744159
1513.398835	-2.981000	3.415500	-10.180000	26.190805	0.000662	20.768989
1514.399330	-2.989000	3.416000	-10.209000	26.192049	0.000662	20.744159
1515.404346	-3.010800	3.414400	-10.280000	26.143152	0.000663	20.754295
1516.401433	-3.017700	3.413200	-10.300000	26.140143	0.000660	20.732779
1517.399372	-2.983400	3.412700	-10.181000	26.146352	0.000661	20.757510
1518.401478	-2.997200	3.413900	-10.229000	26.142380	0.000661	20.743088
1519.397706	-3.001800	3.412600	-10.241000	26.128745	0.000660	20.738869
1520.401994	-2.985100	3.412400	-10.185000	26.099487	0.000659	20.761156
1521.403764	-3.007300	3.411800	-10.259000	26.136147	0.000659	20.716435
1522.399863	-3.002500	3.410200	-10.239000	26.141535	0.000658	20.756937
1523.411422	-2.996000	3.411300	-10.220000	26.084932	0.000656	20.706225
1524.400202	-3.002200	3.409800	-10.236000	26.054563	0.000659	20.749208
1525.401196	-3.010300	3.410600	-10.266000	26.055458	0.000656	20.726398
1526.397420	-3.026100	3.407700	-10.311000	26.069163	0.000656	20.712192
1527.398270	-2.979900	3.410800	-10.163000	26.127899	0.000657	20.721898
1528.400867	-2.994400	3.408100	-10.204000	26.165207	0.000655	20.729040
1529.404451	-3.007500	3.407600	-10.247000	26.175864	0.000653	20.753500
1530.400658	-3.003400	3.408100	-10.235000	26.238895	0.000655	20.732439
1531.403236	-2.973400	3.408300	-10.133000	26.225929	0.000653	20.728418
1532.405736	-2.995500	3.407400	-10.206000	26.262659	0.000656	20.732138
1533.402582	-2.974600	3.408500	-10.138000	26.275079	0.000654	20.738455
1534.409265	-3.012600	3.405500	-10.258000	26.264178	0.000654	20.745044
1535.403195	-2.989600	3.407300	-10.186000	26.296084	0.000653	20.738702
1536.407765	-3.018100	3.406200	-10.278000	26.302916	0.000653	20.745568
1537.408418	-3.018600	3.405300	-10.279000	26.290698	0.000652	20.734237
1538.407514	-2.990300	3.405700	-10.183000	26.266114	0.000650	20.718066
1539.403993	-3.002200	3.405200	-10.222000	26.206564	0.000651	20.735512
1540.407718	-3.014000	3.404800	-10.260000	26.165960	0.000648	20.741651
1541.408660	-3.018700	3.404000	-10.275000	26.132162	0.000649	20.751787
1542.407920	-3.005200	3.404000	-10.229000	26.146024	0.000650	20.740585
1543.410145	-3.021100	3.402800	-10.278000	26.155431	0.000648	20.747667
1544.405169	-3.018900	3.402800	-10.272000	26.121977	0.000648	20.742501
1545.413248	-3.036300	3.402100	-10.329000	26.143143	0.000650	20.743855
1546.406483	-3.015000	3.401300	-10.254000	26.156105	0.000646	20.741232
1547.409768	-3.016300	3.401000	-10.257000	26.159905	0.000648	20.741731
1548.405644	-3.020000	3.401000	-10.270000	26.192512	0.000647	20.751738
1549.413534	-2.984700	3.401400	-10.151000	26.195747	0.000646	20.733176
1550.407974	-3.025700	3.400500	-10.288000	26.259691	0.000647	20.753812
1551.409932	-3.002600	3.400600	-10.210000	26.246008	0.000645	20.740061
1552.409907	-3.000100	3.400000	-10.199000	26.251021	0.000646	20.731822
1553.406876	-3.017900	3.400100	-10.259000	26.289342	0.000644	20.755161
1554.408548	-2.988400	3.399900	-10.160000	26.249586	0.000646	20.737493
1555.411542	-2.982400	3.400000	-10.140000	26.209824	0.000643	20.758702
1556.410737	-2.986900	3.400000	-10.154000	26.167214	0.000643	20.757137
1557.410212	-2.976400	3.398600	-10.115000	26.175506	0.000641	20.739864
1558.414361	-3.000300	3.398700	-10.196000	26.145985	0.000642	20.743865
1559.412193	-3.003200	3.396900	-10.200000	26.110392	0.000642	20.739869
1560.410521	-3.008600	3.397300	-10.219000	26.096486	0.000641	20.753872
1561.410026	-2.981800	3.399200	-10.134000	26.088857	0.000642	20.739568
1562.413944	-3.006200	3.395900	-10.207000	26.083071	0.000639	20.759360
1563.411430	-3.015100	3.395400	-10.235000	26.067395	0.000643	20.749298
1564.417617	-3.008000	3.395600	-10.213000	26.058060	0.000641	20.740393
1565.421450	-3.023600	3.394400	-10.263000	26.122086	0.000642	20.730756
1566.413815	-3.012800	3.394300	-10.224000	26.162741	0.000642	20.747900
1567.414321	-3.022800	3.394000	-10.258000	26.150846	0.000641	20.758233
1568.413677	-3.004000	3.395900	-10.201000	26.156154	0.000640	20.741281
1569.417924	-2.998100	3.393800	-10.174000	26.123373	0.000643	20.753388
1570.412086	-2.980000	3.394200	-10.113000	26.145557	0.000639	20.751022
1571.415505	-2.982600	3.393600	-10.119000	26.140233	0.000640	20.740456
1572.415010	-2.990100	3.393400	-10.146000	26.178351	0.000639	20.772596
1573.416989	-3.003900	3.392800	-10.189000	26.189572	0.000639	20.755422
1574.418415	-2.976600	3.393500	-10.099000	26.198930	0.000638	20.755816
1575.412170	-2.993100	3.392500	-10.153000	26.180454	0.000637	20.769967
1576.411653	-2.998600	3.391500	-10.169000	26.219436	0.000636	20.752240
1577.417107	-3.004500	3.390900	-10.187000	26.238972	0.000638	20.753854
1578.414827	-3.012100	3.390100	-10.210000	26.248733	0.000635	20.773621
1579.414615	-2.996700	3.389900	-10.157000	26.202144	0.000635	20.741975
1580.419521	-3.008600	3.389600	-10.196000	26.192421	0.000635	20.763025
1581.413515	-3.015500	3.389000	-10.218000	26.213103	0.000634	20.771007
1582.413569	-2.993400	3.389400	-10.145000	26.228178	0.000634	20.732100
1583.418522	-2.995200	3.388100	-10.147000	26.237726	0.000633	20.755447
1584.414007	-3.004900	3.387300	-10.177000	26.202633	0.000632	20.765227
1585.416659	-2.978100	3.388900	-10.091000	26.164505	0.000633	20.757259
1586.419021	-2.998600	3.387700	-10.157000	26.126430	0.000632	20.756459
1587.418156	-3.012400	3.387100	-10.202000	26.133326	0.000630	20.770975
1588.417914	-3.007000	3.385800	-10.180000	26.150879	0.000630	20.750679
1589.419207	-2.992100	3.386000	-10.130000	26.174019	0.000629	20.758285
1590.419225	-3.008100	3.385800	-10.183000	26.153124	0.000630	20.754832
1591.419098	-2.974300	3.387300	-10.073000	26.155350	0.000629	20.750431
1592.418893	-2.983400	3.385500	-10.099000	26.186434	0.000629	20.776924
1593.419601	-3.007600	3.384800	-10.179000	26.191678	0.000626	20.773660
1594.417293	-3.018200	3.384700	-10.214000	26.185883	0.000630	20.750291
1595.423239	-2.989000	3.385900	-10.119000	26.223424	0.000626	20.760041
1596.423525	-2.997300	3.384600	-10.143000	26.267152	0.000625	20.783596
1597.421132	-3.002600	3.384100	-10.160000	26.288703	0.000624	20.767795
1598.422957	-2.981400	3.385500	-10.093000	26.297608	0.000626	20.784331
1599.430190	-2.998200	3.383500	-10.143000	26.305697	0.000626	20.775391
1600.424219	-2.996100	3.383400	-10.136000	26.294265	0.000625	20.774333
1601.433768	-3.005800	3.381200	-10.161000	26.308738	0.000624	20.799310
1602.423497	-3.010800	3.382700	-10.184000	26.327384	0.000626	20.779168
1603.425070	-2.998400	3.381100	-10.137000	26.313992	0.000625	20.768554
1604.423541	-3.034700	3.379300	-10.254000	26.296131	0.000625	20.774312
1605.421015	-3.018900	3.379900	-10.202000	26.334239	0.000622	20.806446
1606.424728	-2.973200	3.381400	-10.052000	26.310501	0.000622	20.802505
1607.423481	-2.997100	3.378900	-10.125000	26.326110	0.000625	20.801121
1608.424461	-2.998200	3.379700	-10.132000	26.312496	0.000622	20.782224
1609.430698	-2.996900	3.379400	-10.127000	26.342735	0.000621	20.791277
1610.426103	-2.995700	3.380600	-10.127000	26.352166	0.000622	20.795065
1611.421879	-2.993300	3.377700	-10.110000	26.330581	0.000622	20.798976
1612.426947	-3.023800	3.377600	-10.212000	26.308971	0.000621	20.790535
1613.426492	-3.006800	3.377500	-10.155000	26.319719	0.000621	20.793750
1614.424543	-2.993400	3.378900	-10.112000	26.315935	0.000619	20.795637
1615.426104	-3.017000	3.376700	-10.186000	26.302045	0.000623	20.785472
1616.426682	-3.013000	3.376000	-10.171000	26.269957	0.000621	20.795424
1617.436694	-3.011800	3.376100	-10.168000	26.288176	0.000618	20.780542
1618.423154	-2.996100	3.377200	-10.118000	26.316105	0.000616	20.781584
1619.432041	-3.014900	3.377200	-10.180000	26.329556	0.000616	20.798421
1620.421689	-3.018100	3.375000	-10.185000	26.342339	0.000615	20.791353
1621.426146	-3.017400	3.375600	-10.184000	26.334510	0.000617	20.793442
1622.431674	-2.999100	3.374300	-10.119000	26.346024	0.000616	20.782254
1623.438455	-3.020600	3.373900	-10.190000	26.366827	0.000616	20.804110
1624.427106	-2.988900	3.373900	-10.083000	26.364114	0.000615	20.807073
1625.426927	-2.999200	3.374700	-10.120000	26.371156	0.000615	20.803245
1626.437670	-3.025000	3.372300	-10.201000	26.373755	0.000613	20.793055
1627.434645	-3.008100	3.372400	-10.144000	26.403049	0.000613	20.804954
1628.430665	-2.980400	3.373800	-10.054000	26.410066	0.000611	20.813429
1629.425820	-3.011000	3.371600	-10.151000	26.374300	0.000613	20.805457
1630.432743	-2.987000	3.373600	-10.076000	26.377573	0.000611	20.808746
1631.434244	-2.974700	3.372400	-10.030000	26.364181	0.000610	20.801925
1632.432874	-3.012900	3.370300	-10.153000	26.379627	0.000609	20.805595
1633.431558	-3.027600	3.370100	-10.202000	26.388753	0.000609	20.820930
1634.439849	-2.995900	3.371000	-10.098000	26.387357	0.000607	20.805303
1635.432405	-3.022500	3.370100	-10.184000	26.391097	0.000609	20.828502
1636.441345	-3.003500	3.370600	-10.122000	26.391190	0.000610	20.788767
1637.434350	-2.999700	3.370000	-10.108000	26.419436	0.000607	20.820001
1638.428298	-3.003700	3.369700	-10.120000	26.416419	0.000608	20.816020
1639.432466	-3.016700	3.367900	-10.159000	26.421751	0.000607	20.817112
1640.438004	-3.033800	3.367400	-10.214000	26.415515	0.000606	20.822224
1641.440477	-3.002400	3.368000	-10.111000	26.442842	0.000605	20.816025
1642.435771	-3.006900	3.368300	-10.128000	26.429156	0.000607	20.824081
1643.435123	-3.006000	3.367500	-10.122000	26.388182	0.000604	20.831736
1644.443564	-2.984800	3.367800	-10.052000	26.410812	0.000604	20.828876
1645.432398	-2.968800	3.368900	-9.999500	26.349968	0.000603	20.818460
1646.434259	-3.025000	3.364700	-10.178000	26.334743	0.000603	20.809797
1647.438082	-2.996500	3.366600	-10.087000	26.339922	0.000603	20.819744
1648.431430	-2.963300	3.365800	-9.972500	26.347039	0.000601	20.823103
1649.433675	-2.980300	3.365700	-10.029000	26.311728	0.000601	20.815591
1650.436534	-2.992200	3.365600	-10.069000	26.303894	0.000601	20.805347
1651.444098	-3.015500	3.364100	-10.144000	26.318834	0.000600	20.820362
1652.442268	-3.001600	3.365200	-10.100000	26.316466	0.000600	20.825093
1653.437168	-3.022200	3.363300	-10.164000	26.341491	0.000600	20.839812
1654.433631	-2.994400	3.363900	-10.072000	26.313846	0.000599	20.845694
1655.438737	-3.018300	3.361700	-10.145000	26.332389	0.000596	20.855320
1656.436949	-3.003100	3.361300	-10.094000	26.334591	0.000597	20.848998
1657.440776	-2.992400	3.363000	-10.061000	26.363591	0.000597	20.841634
1658.434235	-3.011400	3.360900	-10.120000	26.375455	0.000595	20.842178
1659.437796	-3.003800	3.360700	-10.093000	26.389480	0.000596	20.829248
1660.442118	-2.999600	3.362200	-10.084000	26.409564	0.000596	20.843269
1661.435303	-2.990600	3.362500	-10.055000	26.391480	0.000596	20.839318
1662.448662	-3.005900	3.360800	-10.101000	26.398581	0.000594	20.836498
1663.433399	-3.013700	3.358900	-10.121000	26.380625	0.000593	20.830305
1664.442084	-3.030400	3.358000	-10.175000	26.374737	0.000592	20.837190
1665.446445	-2.988900	3.360000	-10.042000	26.357724	0.000592	20.851859
1666.445911	-2.989400	3.361000	-10.047000	26.364255	0.000592	20.853681
1667.435229	-2.983300	3.359200	-10.020000	26.378104	0.000590	20.861909
1668.438805	-3.023200	3.357200	-10.148000	26.394365	0.000588	20.863554
1669.439150	-2.991300	3.358300	-10.045000	26.398282	0.000590	20.859430
1670.436374	-2.988800	3.359200	-10.039000	26.437954	0.000589	20.849044
1671.440229	-3.007800	3.357000	-10.096000	26.416971	0.000589	20.855455
1672.445863	-3.002900	3.358100	-10.082000	26.419330	0.000589	20.848343
1673.440692	-2.987900	3.357400	-10.031000	26.435021	0.000588	20.855104
1674.437651	-3.003100	3.357400	-10.080000	26.393722	0.000587	20.821658
1675.444889	-2.991800	3.357100	-10.043000	26.381604	0.000587	20.867797
1676.443402	-3.001800	3.356300	-10.075000	26.361883	0.000586	20.838969
1677.460053	-2.994700	3.356000	-10.050000	26.356320	0.000587	20.856137
1678.439435	-3.004800	3.355300	-10.080000	26.366822	0.000585	20.839666
1679.437676	-2.990100	3.354500	-10.030000	26.393831	0.000587	20.853534
1680.439174	-3.004500	3.354900	-10.079000	26.390647	0.000584	20.850334
1681.438457	-2.998900	3.354300	-10.059000	26.409473	0.000584	20.864987
1682.439262	-2.990400	3.354200	-10.030000	26.434992	0.000583	20.866928
1683.441164	-3.008800	3.352100	-10.085000	26.437965	0.000585	20.861856
1684.440454	-3.005400	3.352700	-10.075000	26.439754	0.000583	20.860809
1685.440393	-2.983300	3.352700	-10.001000	26.444142	0.000582	20.868065
1686.440005	-2.996600	3.351200	-10.041000	26.439150	0.000584	20.870159
1687.440587	-3.015600	3.351700	-10.107000	26.445843	0.000581	20.860292
1688.443959	-3.006400	3.351000	-10.073000	26.446143	0.000583	20.870549
1689.451307	-3.009300	3.351200	-10.084000	26.471440	0.000582	20.864208
1690.440117	-3.014500	3.351000	-10.100000	26.467784	0.000581	20.860534
1691.440580	-3.001800	3.350000	-10.055000	26.480713	0.000582	20.857408
1692.443340	-2.993300	3.350400	-10.028000	26.486222	0.000581	20.856307
1693.439944	-3.003200	3.349300	-10.058000	26.474030	0.000580	20.863493
1694.443840	-3.001000	3.349400	-10.051000	26.496664	0.000581	20.868699
1695.443907	-2.991200	3.349300	-10.017000	26.472134	0.000582	20.850682
1696.444139	-2.997900	3.348200	-10.037000	26.457697	0.000581	20.868887
1697.442327	-3.007500	3.347700	-10.068000	26.506187	0.000581	20.860728
1698.455491	-2.996200	3.348100	-10.030000	26.502679	0.000580	20.887546
1699.442657	-3.016500	3.347400	-10.095000	26.485442	0.000579	20.885393
1700.447204	-3.002500	3.348200	-10.052000	26.495844	0.000580	20.860763
1701.446048	-2.995400	3.347500	-10.027000	26.511151	0.000579	20.879467
1702.446375	-3.007000	3.346100	-10.062000	26.536820	0.000577	20.865441
1703.451813	-2.970700	3.347300	-9.942800	26.566381	0.000578	20.883774
1704.456211	-2.981400	3.346900	-9.977200	26.586556	0.000578	20.869916
1705.445273	-3.007600	3.346100	-10.062000	26.544624	0.000579	20.886086
1706.446971	-3.011700	3.343800	-10.069000	26.530640	0.000576	20.878194
1707.447285	-2.995800	3.344500	-10.018000	26.524897	0.000577	20.879533
1708.446764	-3.025400	3.344000	-10.115000	26.547505	0.000573	20.879025
1709.448574	-3.007800	3.344200	-10.057000	26.567312	0.000575	20.874279
1710.448974	-2.999600	3.345400	-10.034000	26.572638	0.000574	20.881530
1711.448466	-2.997400	3.343400	-10.020000	26.583512	0.000574	20.890563
1712.448812	-2.984800	3.344000	-9.980300	26.612747	0.000570	20.902881
1713.451144	-2.976400	3.343500	-9.950700	26.614899	0.000572	20.885131
1714.449079	-2.995900	3.343400	-10.015000	26.613971	0.000571	20.880880
1715.449175	-3.005700	3.341000	-10.040000	26.576729	0.000569	20.888960
1716.447894	-2.984000	3.341600	-9.970800	26.550703	0.000570	20.880817
1717.448101	-2.991600	3.340200	-9.991300	26.525599	0.000568	20.895885
1718.451799	-2.990900	3.342400	-9.995600	26.452374	0.000568	20.892458
1719.448230	-3.000400	3.340700	-10.023000	26.381704	0.000566	20.920999
1720.451172	-3.015800	3.340000	-10.070000	26.375021	0.000567	20.887258
1721.450220	-2.990700	3.339900	-9.986100	26.352666	0.000565	20.920738
1722.448500	-2.998100	3.340800	-10.015000	26.363537	0.000564	20.903216
1723.450103	-3.006100	3.337500	-10.031000	26.339570	0.000564	20.890984
1724.450567	-2.998600	3.338600	-10.010000	26.377849	0.000566	20.901479
1725.449034	-3.012700	3.337200	-10.053000	26.377624	0.000563	20.899830
1726.450769	-2.992000	3.337700	-9.984800	26.376946	0.000563	20.920010
1727.450188	-3.023500	3.337300	-10.088000	26.384293	0.000562	20.904636
1728.451551	-3.031800	3.336600	-10.114000	26.395193	0.000563	20.919857
1729.453719	-2.992600	3.336800	-9.983900	26.437318	0.000560	20.907195
1730.452435	-3.002500	3.336400	-10.016000	26.457304	0.000560	20.897886
1731.452418	-2.995400	3.336000	-9.991400	26.479913	0.000561	20.902594
1732.456085	-2.999900	3.336200	-10.007000	26.504713	0.000559	20.912822
1733.455069	-3.016600	3.334900	-10.058000	26.516030	0.000563	20.899542
1734.456614	-3.007100	3.335600	-10.030000	26.538565	0.000560	20.909865
1735.454747	-3.027800	3.334200	-10.094000	26.587617	0.000559	20.907964
1736.451960	-3.013700	3.333800	-10.046000	26.569663	0.000559	20.915046
1737.462578	-3.014000	3.333600	-10.046000	26.573629	0.000557	20.906232
1738.461089	-3.003200	3.333300	-10.009000	26.566878	0.000557	20.921729
1739.460156	-3.005600	3.334400	-10.021000	26.605719	0.000558	20.919048
1740.459083	-3.010200	3.333100	-10.033000	26.614701	0.000558	20.925232
1741.456932	-2.997300	3.332500	-9.987500	26.612687	0.000557	20.936956
1742.456335	-2.993900	3.332100	-9.975000	26.605652	0.000555	20.915188
1743.455280	-3.025300	3.332000	-10.079000	26.598720	0.000555	20.922444
1744.458551	-3.010900	3.330500	-10.026000	26.587022	0.000555	20.932020
1745.456121	-3.006900	3.332000	-10.017000	26.618247	0.000554	20.945389
1746.456734	-2.994900	3.332000	-9.978000	26.639020	0.000556	20.936876
1747.457196	-3.011500	3.330100	-10.027000	26.620047	0.000555	20.930131
1748.459719	-3.003800	3.330500	-10.003000	26.579380	0.000551	20.909167
1749.460406	-2.985300	3.330600	-9.941700	26.557825	0.000552	20.923060
1750.462398	-3.003700	3.329100	-9.998800	26.527012	0.000553	20.937130
1751.463715	-3.010600	3.328100	-10.019000	26.515707	0.000552	20.919604
1752.458347	-2.991500	3.328800	-9.957600	26.504131	0.000552	20.933571
1753.461778	-3.003600	3.328600	-9.996400	26.510879	0.000551	20.927078
1754.464531	-2.998500	3.327300	-9.974800	26.526063	0.000550	20.930013
1755.459618	-2.999600	3.327900	-9.980600	26.558705	0.000549	20.943382
1756.462695	-2.997100	3.327200	-9.970700	26.582908	0.000550	20.943056
1757.462298	-2.979900	3.329600	-9.920800	26.622205	0.000548	20.913336
1758.462144	-3.004900	3.326400	-9.995200	26.627852	0.000548	20.930391
1759.463049	-2.998200	3.327900	-9.977100	26.656820	0.000547	20.903091
1760.462818	-2.998500	3.326300	-9.971500	26.688092	0.000548	20.923621
1761.463983	-2.999700	3.327200	-9.978500	26.691610	0.000547	20.935218
1762.467897	-2.981400	3.326000	-9.915400	26.705161	0.000545	20.919444
1763.465084	-2.991600	3.326200	-9.949900	26.722061	0.000545	20.923159
1764.466445	-2.997900	3.325500	-9.967400	26.740068	0.000545	20.912814
1765.463541	-3.006200	3.325100	-9.994500	26.751161	0.000544	20.933448
1766.462489	-2.993500	3.325200	-9.952600	26.763271	0.000545	20.909116
1767.462406	-2.995600	3.323900	-9.955700	26.734999	0.000543	20.922890
1768.464361	-2.995400	3.323500	-9.952600	26.702748	0.000544	20.919390
1769.467277	-2.996100	3.323900	-9.957700	26.709617	0.000543	20.918709
1770.468123	-3.001700	3.323900	-9.976200	26.700947	0.000542	20.917105
1771.467123	-2.980100	3.323200	-9.903300	26.666857	0.000541	20.916973
1772.472852	-2.968200	3.322500	-9.860900	26.632599	0.000540	20.921887
1773.468096	-3.006900	3.320100	-9.982700	26.595603	0.000540	20.921681
1774.470393	-3.007400	3.322000	-9.990000	26.610044	0.000542	20.903483
1775.467763	-2.988900	3.321000	-9.925300	26.622058	0.000540	20.922196
1776.465725	-2.992300	3.322000	-9.938400	26.589405	0.000539	20.915925
1777.472293	-2.995700	3.319900	-9.944300	26.599802	0.000538	20.912153
1778.468128	-2.997600	3.319600	-9.949800	26.617869	0.000539	20.917512
1779.464372	-3.005600	3.319200	-9.974500	26.645394	0.000537	20.893027
1780.467916	-3.002600	3.320200	-9.967900	26.644172	0.000536	20.911237
1781.467239	-3.021600	3.318000	-10.025000	26.632552	0.000535	20.915677
1782.466868	-2.984500	3.318700	-9.903400	26.614895	0.000534	20.905040
1783.469151	-2.996400	3.318700	-9.942900	26.618660	0.000532	20.911670
1784.467356	-3.024000	3.317800	-10.031000	26.625756	0.000533	20.925913
1785.468135	-2.955500	3.319400	-9.808100	26.641665	0.000531	20.891650
1786.470013	-2.965800	3.316900	-9.836100	26.637789	0.000532	20.901029
1787.471454	-2.992400	3.317100	-9.925500	26.681202	0.000531	20.909583
1788.469025	-3.005600	3.315800	-9.965500	26.694157	0.000531	20.902220
1789.473008	-2.991300	3.316800	-9.920900	26.695220	0.000529	20.901391
1790.469854	-3.016600	3.314700	-9.998600	26.699386	0.000527	20.908425
1791.470072	-2.985500	3.315800	-9.897600	26.711394	0.000527	20.891575
1792.472013	-2.993500	3.315200	-9.922100	26.729665	0.000527	20.904252
1793.470464	-2.999200	3.314300	-9.939100	26.721151	0.000526	20.891901
1794.472426	-2.992100	3.315100	-9.917800	26.714515	0.000529	20.905617
1795.469769	-2.985200	3.315500	-9.896600	26.739585	0.000527	20.890994
1796.471858	-2.989300	3.313600	-9.903900	26.762862	0.000527	20.900171
1797.468974	-2.977700	3.313500	-9.864700	26.793143	0.000526	20.881779
1798.473542	-2.993200	3.311500	-9.910300	26.802648	0.000525	20.893232
1799.471881	-2.997400	3.312800	-9.928600	26.784055	0.000526	20.893504
1800.473011	-3.001400	3.310700	-9.934900	26.799437	0.000524	20.897116
1801.475044	-3.006400	3.311700	-9.956100	26.806655	0.000524	20.880192
1802.473851	-3.001700	3.311800	-9.939900	26.838820	0.000525	20.896885
1803.474957	-3.017300	3.308900	-9.982500	26.840354	0.000523	20.881359
1804.478795	-2.995900	3.310400	-9.916700	26.858421	0.000522	20.888145
1805.472595	-2.993400	3.309500	-9.906500	26.847891	0.000522	20.895100
1806.471727	-3.000400	3.309100	-9.925400	26.859434	0.000521	20.904335
1807.475734	-3.005600	3.309300	-9.944900	26.845205	0.000519	20.919898
1808.470533	-2.993500	3.308700	-9.903100	26.820605	0.000521	20.907967
1809.475813	-3.000600	3.309200	-9.927500	26.781956	0.000518	20.892342
1810.478149	-2.987800	3.309800	-9.887600	26.744022	0.000519	20.901618
1811.476700	-3.024200	3.307000	-9.999700	26.762317	0.000519	20.883977
1812.474091	-3.002500	3.308100	-9.931800	26.778445	0.000518	20.881227
1813.475930	-3.002700	3.308700	-9.933700	26.783875	0.000516	20.880996
1814.473142	-2.995400	3.308400	-9.908300	26.791023	0.000518	20.892923
1815.475347	-2.972100	3.308100	-9.831300	26.799187	0.000518	20.901132
1816.475224	-2.966600	3.307800	-9.810900	26.803132	0.000516	20.872384
1817.472000	-3.005300	3.306700	-9.936300	26.835024	0.000516	20.885956
1818.475385	-3.026500	3.304700	-10.001000	26.819605	0.000516	20.875196
1819.479137	-2.969400	3.305300	-9.812200	26.797715	0.000515	20.889695
1820.474513	-3.001300	3.304600	-9.916900	26.753701	0.000512	20.882901
1821.478415	-2.986800	3.304900	-9.870300	26.728033	0.000513	20.900241
1822.475211	-3.019900	3.303000	-9.972800	26.725375	0.000511	20.878605
1823.476885	-2.993900	3.304200	-9.891900	26.716414	0.000511	20.863433
1824.476834	-3.002700	3.303300	-9.916600	26.711592	0.000510	20.889403
1825.479661	-2.975900	3.303000	-9.827900	26.686169	0.000509	20.875225
1826.474464	-3.013600	3.303100	-9.953200	26.679894	0.000509	20.877925
1827.476913	-2.983900	3.302400	-9.852300	26.646251	0.000509	20.862123
1828.478861	-2.981700	3.302300	-9.845700	26.692321	0.000507	20.877616
1829.475208	-2.973000	3.304100	-9.821300	26.716595	0.000506	20.881158
1830.482376	-3.002100	3.301300	-9.910300	26.740750	0.000505	20.869408
1831.481699	-3.026700	3.299900	-9.986500	26.730666	0.000503	20.857373
1832.476574	-3.001300	3.300000	-9.903500	26.744441	0.000506	20.877860
1833.478166	-3.007400	3.300600	-9.925400	26.760899	0.000503	20.865009
1834.481890	-3.010300	3.300500	-9.934800	26.753476	0.000502	20.852331
1835.478477	-2.993000	3.300000	-9.876400	26.739705	0.000503	20.868831
1836.481706	-3.004000	3.298300	-9.907200	26.788202	0.000503	20.853580
1837.486905	-2.990800	3.299000	-9.865800	26.832482	0.000502	20.883401
1838.481947	-2.996900	3.298200	-9.882100	26.846284	0.000500	20.857926
1839.484350	-2.991100	3.297900	-9.863100	26.871970	0.000500	20.877113
1840.482422	-2.996200	3.298400	-9.881100	26.840076	0.000501	20.854528
1841.485458	-2.983600	3.297700	-9.837400	26.798753	0.000499	20.867033
1842.484984	-3.034800	3.295700	-10.000000	26.824440	0.000498	20.864885
1843.482270	-3.004200	3.296500	-9.902600	26.829976	0.000498	20.854805
1844.485620	-3.010700	3.296100	-9.922400	26.856433	0.000497	20.837785
1845.482378	-3.002600	3.296600	-9.897500	26.884456	0.000496	20.837513
1846.484036	-3.021600	3.296200	-9.958900	26.859935	0.000497	20.870702
1847.484471	-3.011300	3.295800	-9.923200	26.861822	0.000495	20.855530
1848.483377	-3.018200	3.294300	-9.941600	26.867976	0.000495	20.843702
1849.483114	-3.028900	3.294000	-9.976300	26.888130	0.000494	20.849742
1850.483842	-3.004600	3.294300	-9.897100	26.938458	0.000494	20.853881
1851.486588	-3.008400	3.294600	-9.910400	26.915455	0.000492	20.861096
1852.486401	-3.004300	3.293600	-9.893300	26.901260	0.000492	20.859150
1853.484465	-2.990600	3.294000	-9.850000	26.920396	0.000495	20.859900
1854.486188	-2.996900	3.293000	-9.868200	26.915086	0.000493	20.851716
1855.482803	-2.986900	3.292800	-9.834800	26.969061	0.000492	20.841508
1856.484612	-2.988900	3.290700	-9.834400	26.983432	0.000491	20.863545
1857.480991	-2.996700	3.293100	-9.868300	26.974445	0.000490	20.826534
1858.484138	-3.017800	3.290600	-9.928600	26.936527	0.000492	20.842931
1859.485724	-3.024000	3.289500	-9.946700	26.878428	0.000490	20.844728
1860.483737	-3.003500	3.289700	-9.878900	26.790297	0.000490	20.827713
1861.484499	-2.998300	3.290700	-9.865900	26.759963	0.000487	20.841310
1862.486105	-3.019200	3.288200	-9.926700	26.763736	0.000489	20.848422
1863.489523	-2.983600	3.289700	-9.813200	26.788583	0.000487	20.819351
1864.485685	-2.981300	3.289500	-9.805600	26.825810	0.000488	20.836392
1865.488381	-2.985600	3.288700	-9.818200	26.834795	0.000486	20.836891
1866.489278	-2.991700	3.287900	-9.835600	26.803350	0.000485	20.841784
1867.489218	-3.025200	3.288200	-9.945800	26.819979	0.000485	20.837167
1868.486259	-3.001800	3.288200	-9.869200	26.834298	0.000484	20.837340
1869.485874	-2.998700	3.286000	-9.852300	26.852341	0.000485	20.838412
1870.490119	-3.003400	3.286500	-9.869400	26.826204	0.000483	20.837262
1871.488337	-3.021000	3.286600	-9.927700	26.838612	0.000484	20.835988
1872.490097	-3.002900	3.285900	-9.866200	26.880754	0.000481	20.825256
1873.487419	-3.012300	3.285100	-9.895300	26.827861	0.000483	20.821858
1874.498558	-3.020900	3.284500	-9.921300	26.791749	0.000483	20.832017
1875.485621	-3.004600	3.285300	-9.870300	26.737240	0.000483	20.819414
1876.489314	-3.014400	3.285900	-9.904500	26.768588	0.000480	20.827223
1877.489457	-3.000900	3.284100	-9.853100	26.749773	0.000481	20.814944
1878.487904	-2.995200	3.285100	-9.838600	26.770302	0.000480	20.833213
1879.490442	-2.999000	3.284000	-9.846900	26.815616	0.000481	20.833729
1880.487619	-2.988900	3.284500	-9.815400	26.814923	0.000478	20.843463
1881.490497	-2.991600	3.283200	-9.821300	26.878134	0.000479	20.844906
1882.488225	-3.004500	3.282600	-9.860700	26.899481	0.000478	20.847879
1883.488719	-3.012600	3.283200	-9.889700	26.909924	0.000477	20.832776
1884.488330	-3.020100	3.281900	-9.910200	26.877683	0.000479	20.845875
1885.492137	-3.004000	3.281000	-9.855300	26.875620	0.000476	20.831948
1886.491789	-3.016500	3.280200	-9.893800	26.826053	0.000476	20.831420
1887.491572	-2.979500	3.281600	-9.775600	26.819102	0.000477	20.808785
1888.492170	-2.983700	3.281800	-9.790900	26.782687	0.000477	20.794458
1889.493721	-3.000100	3.280000	-9.839300	26.756175	0.000478	20.814269
1890.491184	-2.988200	3.281000	-9.802700	26.767268	0.000476	20.831585
1891.490774	-2.999200	3.279400	-9.834600	26.756815	0.000474	20.816335
1892.493575	-2.998300	3.280200	-9.833500	26.744152	0.000473	20.815931
1893.496231	-2.992400	3.279100	-9.811300	26.727321	0.000474	20.814657
1894.493614	-2.999700	3.279100	-9.835400	26.708227	0.000472	20.817271
1895.495335	-3.017200	3.276700	-9.884500	26.709043	0.000472	20.819514
1896.495519	-3.024900	3.276100	-9.908700	26.759354	0.000470	20.844017
1897.491559	-3.017200	3.277100	-9.885200	26.770320	0.000469	20.814740
1898.492822	-3.006600	3.276800	-9.851300	26.792654	0.000470	20.831504
1899.500209	-3.001000	3.276900	-9.833100	26.866068	0.000468	20.804800
1900.492295	-3.000500	3.276400	-9.829400	26.878747	0.000470	20.797634
1901.496926	-2.978700	3.276100	-9.757400	26.913465	0.000466	20.806940
1902.498627	-2.999400	3.274200	-9.819800	26.947288	0.000467	20.815347
1903.494321	-2.986800	3.274100	-9.778000	26.950856	0.000464	20.838374
1904.493145	-2.988900	3.275300	-9.788500	26.976835	0.000466	20.825618
1905.496628	-3.014500	3.273900	-9.868300	27.009168	0.000463	20.814985
1906.498884	-2.997400	3.274400	-9.813000	26.985093	0.000463	20.817327
1907.497736	-2.977400	3.275000	-9.749200	26.922331	0.000461	20.812062
1908.496413	-3.015100	3.273100	-9.867800	26.894453	0.000460	20.802521
1909.494635	-2.998400	3.272700	-9.812200	26.922077	0.000461	20.818444
1910.496950	-3.016700	3.271300	-9.866600	26.927211	0.000458	20.806063
1911.495876	-3.016700	3.272600	-9.871500	26.964535	0.000459	20.801870
1912.494679	-3.010100	3.271100	-9.845600	26.978947	0.000456	20.825846
1913.497263	-3.001200	3.270000	-9.813300	27.015626	0.000457	20.803462
1914.503645	-2.980900	3.270500	-9.747800	27.036991	0.000454	20.816886
1915.493460	-3.009800	3.271200	-9.843400	27.047093	0.000456	20.823252
1916.498710	-3.013300	3.270000	-9.852200	27.034728	0.000454	20.803231
1917.497229	-2.996600	3.269800	-9.796500	27.043665	0.000455	20.807952
1918.496511	-3.013800	3.268300	-9.848600	27.025671	0.000453	20.806925
1919.500517	-2.981300	3.269500	-9.746300	26.954872	0.000454	20.811119
1920.500002	-2.993200	3.269200	-9.784500	26.944793	0.000452	20.801458
1921.497671	-2.990000	3.269400	-9.774600	26.932087	0.000453	20.808595
1922.496199	-3.023500	3.267300	-9.877400	26.927322	0.000451	20.811391
1923.501862	-3.013500	3.267000	-9.843700	26.905332	0.000451	20.813461
1924.495685	-2.986700	3.268400	-9.760400	26.890567	0.000452	20.812364
1925.501686	-3.018900	3.266700	-9.861100	26.854056	0.000449	20.804576
1926.498246	-2.982600	3.267500	-9.743700	26.864980	0.000451	20.803231
1927.497375	-2.991800	3.266400	-9.771400	26.887016	0.000450	20.785560
1928.497834	-2.986200	3.266300	-9.752300	26.896074	0.000448	20.793720
1929.501469	-2.995400	3.266400	-9.783100	26.840725	0.000449	20.778844
1930.498163	-3.026000	3.264500	-9.877300	26.815806	0.000446	20.804522
1931.501686	-2.992700	3.266600	-9.774900	26.818959	0.000446	20.802003
1932.500551	-3.013500	3.264100	-9.834700	26.822059	0.000446	20.789473
1933.497060	-3.034400	3.262200	-9.897400	26.857579	0.000445	20.801953
1934.502971	-3.006900	3.263900	-9.812700	26.899744	0.000443	20.785556
1935.499825	-2.968500	3.264500	-9.689400	26.919643	0.000443	20.808411
1936.499355	-3.006900	3.264100	-9.814200	26.974266	0.000444	20.806914
1937.501777	-3.001800	3.263100	-9.794200	27.005607	0.000441	20.789119
1938.500528	-3.023500	3.263000	-9.864800	27.047643	0.000442	20.788719
1939.501622	-2.990800	3.263600	-9.760000	27.093700	0.000441	20.811330
1940.501955	-2.996100	3.262900	-9.774500	27.098287	0.000438	20.781330
1941.505797	-2.997600	3.262600	-9.778100	27.164884	0.000439	20.810378
1942.503382	-2.989400	3.260400	-9.745000	27.135683	0.000438	20.783379
1943.505043	-3.009400	3.260000	-9.809700	27.125980	0.000437	20.802069
1944.501009	-2.994400	3.260400	-9.761600	27.124315	0.000437	20.788068
1945.505686	-2.992500	3.260300	-9.755500	27.151958	0.000436	20.792636
1946.507598	-2.988600	3.260600	-9.744300	27.194981	0.000438	20.794182
1947.502923	-3.012700	3.257600	-9.811800	27.196916	0.000435	20.789016
1948.502891	-2.986800	3.261200	-9.738600	27.195801	0.000435	20.790265
1949.504052	-2.987000	3.258200	-9.730900	27.207012	0.000434	20.784472
1950.506172	-3.004400	3.257900	-9.786500	27.196124	0.000434	20.786797
1951.503735	-3.005400	3.256500	-9.786100	27.206717	0.000432	20.779908
1952.508582	-2.990400	3.256800	-9.738400	27.216293	0.000432	20.781479
1953.504069	-2.978000	3.256200	-9.695300	27.248225	0.000433	20.787045
1954.506525	-2.991600	3.257300	-9.743100	27.255799	0.000432	20.783758
1955.507472	-3.007400	3.255600	-9.790300	27.217809	0.000430	20.791065
1956.507604	-2.992700	3.255000	-9.740200	27.208557	0.000428	20.788397
1957.506627	-3.009500	3.256200	-9.797500	27.173377	0.000428	20.756805
1958.504847	-3.026000	3.252100	-9.840400	27.184093	0.000427	20.778963
1959.507456	-3.000800	3.252200	-9.758100	27.152958	0.000428	20.788426
1960.504428	-3.012100	3.254600	-9.802100	27.163326	0.000427	20.783680
1961.510358	-3.008400	3.253700	-9.786600	27.163875	0.000425	20.781862
1962.505396	-2.993700	3.253200	-9.737700	27.173672	0.000424	20.773224
1963.507614	-3.009000	3.252300	-9.785000	27.173332	0.000424	20.795641
1964.508063	-2.999400	3.252300	-9.752600	27.173754	0.000425	20.758133
1965.505063	-2.993100	3.252800	-9.734400	27.183055	0.000424	20.767963
1966.506199	-3.017500	3.250200	-9.807000	27.235406	0.000424	20.790747
1967.506726	-2.997200	3.250200	-9.741100	27.222506	0.000423	20.768762
1968.506026	-3.000200	3.251900	-9.755700	27.230249	0.000422	20.768016
1969.508007	-2.984100	3.250500	-9.699400	27.252454	0.000424	20.777075
1970.508070	-2.990300	3.250000	-9.718000	27.228364	0.000422	20.769913
1971.506961	-2.988600	3.249800	-9.710700	27.265481	0.000421	20.757935
1972.507095	-3.007300	3.249000	-9.769900	27.270567	0.000420	20.759258
1973.507361	-3.007600	3.247600	-9.766200	27.281926	0.000421	20.783012
1974.510328	-3.020000	3.247700	-9.807400	27.276667	0.000417	20.755910
1975.508986	-2.988400	3.248600	-9.707500	27.287660	0.000419	20.757485
1976.506960	-2.986800	3.247000	-9.697800	27.240915	0.000419	20.779693
1977.512358	-2.980100	3.246600	-9.673100	27.196952	0.000418	20.745429
1978.509905	-3.002900	3.246000	-9.746400	27.228339	0.000418	20.762301
1979.508617	-3.023900	3.246100	-9.814300	27.244760	0.000416	20.779293
1980.513817	-2.986300	3.246200	-9.692800	27.247982	0.000414	20.747920
1981.511405	-3.004700	3.245000	-9.749000	27.191418	0.000416	20.757881
1982.510363	-3.007400	3.244900	-9.757100	27.204536	0.000416	20.763015
1983.513463	-2.973100	3.245400	-9.648200	27.165281	0.000413	20.779009
1984.511506	-3.034900	3.243100	-9.839900	27.117568	0.000413	20.774168
1985.510012	-2.979900	3.244300	-9.666000	27.115186	0.000410	20.770825
1986.512497	-2.985600	3.244100	-9.685100	27.112775	0.000411	20.772194
1987.516297	-2.988700	3.241800	-9.687800	27.123143	0.000410	20.786415
1988.514221	-2.993700	3.243700	-9.709600	27.126915	0.000410	20.774561
1989.515335	-2.992300	3.242700	-9.702600	27.138000	0.000411	20.765321
1990.512741	-2.981800	3.243000	-9.668800	27.108250	0.000408	20.766694
1991.514770	-2.999100	3.241600	-9.720300	27.090183	0.000409	20.778396
1992.513202	-3.008700	3.241600	-9.752700	27.046287	0.000407	20.767915
1993.513930	-3.019700	3.239300	-9.780400	27.031991	0.000407	20.782461
1994.510869	-3.000800	3.241900	-9.726800	26.997991	0.000408	20.749216
1995.516784	-3.007700	3.241600	-9.748400	26.998311	0.000407	20.779411
1996.518481	-2.992000	3.239300	-9.691500	27.041184	0.000406	20.757092
1997.516389	-3.002100	3.238800	-9.721700	27.029495	0.000406	20.781848
1998.513093	-2.994200	3.238000	-9.694200	27.030881	0.000401	20.770914
1999.512909	-3.004600	3.239100	-9.730100	27.016511	0.000406	20.769739
2000.515465	-2.963800	3.240100	-9.600400	27.012490	0.000401	20.781341
2001.516455	-2.990000	3.236300	-9.675900	27.048470	0.000401	20.770584
2002.516245	-3.000000	3.237900	-9.713400	27.055239	0.000401	20.769805
2003.513797	-3.001300	3.236800	-9.713900	27.077370	0.000402	20.765509
2004.513481	-2.993700	3.235500	-9.686100	27.123467	0.000399	20.772041
2005.517108	-2.998300	3.234700	-9.697500	27.184556	0.000399	20.778007
2006.519362	-3.026400	3.233500	-9.785100	27.191771	0.000397	20.787161
2007.515837	-3.008000	3.234600	-9.728000	27.252353	0.000398	20.793569
2008.517899	-3.010700	3.233700	-9.733900	27.236966	0.000396	20.778565
2009.520189	-3.009900	3.234800	-9.734000	27.209325	0.000394	20.800075
2010.517869	-2.996800	3.233400	-9.688800	27.195700	0.000394	20.777836
2011.516793	-2.980100	3.234100	-9.636900	27.179795	0.000395	20.768002
2012.515152	-2.993800	3.233400	-9.679600	27.182440	0.000393	20.769714
2013.521629	-3.007000	3.232200	-9.718700	27.198246	0.000393	20.776604
2014.523335	-3.001600	3.231100	-9.697800	27.186482	0.000392	20.784211
2015.520558	-3.025400	3.229600	-9.769400	27.234287	0.000394	20.762594
2016.523772	-2.993200	3.231800	-9.672600	27.241305	0.000391	20.768231
2017.524101	-2.980000	3.230800	-9.626600	27.175280	0.000391	20.793333
2018.522919	-2.997400	3.231500	-9.685900	27.201352	0.000390	20.802961
2019.522352	-3.019200	3.228400	-9.746800	27.226111	0.000390	20.798467
2020.521912	-3.003900	3.229700	-9.701400	27.229776	0.000390	20.770859
2021.519124	-3.000900	3.228100	-9.685900	27.240463	0.000386	20.786350
2022.522227	-2.997500	3.229000	-9.677200	27.244903	0.000386	20.787497
2023.525435	-3.006900	3.228400	-9.705600	27.205998	0.000384	20.781556
2024.519889	-2.996600	3.227200	-9.670100	27.219985	0.000383	20.793728
2025.527130	-2.998600	3.229100	-9.682000	27.221371	0.000383	20.790854
2026.520039	-2.992400	3.227000	-9.655700	27.239924	0.000381	20.806197
2027.521461	-3.005800	3.227600	-9.700300	27.247786	0.000381	20.792294
2028.521105	-2.992400	3.226200	-9.653800	27.278845	0.000380	20.803621
2029.525785	-3.007300	3.225200	-9.697000	27.241602	0.000379	20.796979
2030.520471	-3.018900	3.225500	-9.736500	27.265512	0.000379	20.804908
2031.522782	-3.015500	3.223700	-9.719600	27.265832	0.000378	20.802859
2032.525785	-2.997700	3.223300	-9.661200	27.288388	0.000376	20.803737
2033.523353	-3.000300	3.224200	-9.672300	27.316790	0.000374	20.778253
2034.525118	-2.977000	3.224900	-9.599500	27.315773	0.000373	20.785291
2035.525743	-2.988400	3.223500	-9.632100	27.369626	0.000374	20.777350
2036.525264	-2.989300	3.223800	-9.635900	27.372331	0.000372	20.816107
2037.528114	-3.024700	3.223400	-9.748700	27.374019	0.000371	20.801210
2038.527411	-2.973300	3.222700	-9.581700	27.341940	0.000371	20.811613
2039.523156	-2.998500	3.221400	-9.658000	27.295648	0.000369	20.798712
2040.531514	-2.999300	3.221600	-9.661300	27.260393	0.000368	20.807820
2041.539198	-2.998500	3.221900	-9.660700	27.271112	0.000367	20.785411
2042.524534	-2.993800	3.221900	-9.645400	27.266673	0.000366	20.790903
2043.526290	-2.971800	3.219500	-9.567100	27.319790	0.000367	20.804030
2044.526878	-3.011600	3.218900	-9.692200	27.324947	0.000367	20.795467
2045.526222	-2.983300	3.219300	-9.602700	27.315622	0.000367	20.799363
2046.524395	-2.984900	3.218400	-9.605800	27.359802	0.000364	20.787856
2047.528906	-3.018400	3.216300	-9.707700	27.406291	0.000366	20.811864
2048.525669	-2.976400	3.219000	-9.578800	27.379327	0.000365	20.802757
2049.531022	-2.983100	3.217400	-9.596700	27.335943	0.000364	20.807951
2050.529400	-2.997300	3.217000	-9.641200	27.340210	0.000364	20.775259
2051.530728	-2.987300	3.216700	-9.608400	27.366478	0.000363	20.798840
2052.534475	-3.004100	3.215800	-9.659600	27.408525	0.000362	20.799887
2053.531794	-2.992800	3.216500	-9.625000	27.439930	0.000361	20.794972
2054.533931	-2.981700	3.216600	-9.589600	27.473463	0.000361	20.809267
2055.531061	-3.004800	3.213300	-9.653700	27.430156	0.000358	20.825915
2056.531850	-3.002500	3.214500	-9.649800	27.371413	0.000360	20.785312
2057.529891	-2.995400	3.214300	-9.627600	27.331099	0.000359	20.796915
2058.531253	-2.990300	3.212700	-9.605600	27.322467	0.000355	20.813835
2059.539110	-2.992700	3.214900	-9.619700	27.307756	0.000355	20.793822
2060.533629	-3.003700	3.213100	-9.649700	27.334718	0.000355	20.786331
2061.536285	-3.017200	3.212500	-9.691100	27.402595	0.000355	20.810042
2062.533721	-3.032100	3.211000	-9.735300	27.369053	0.000354	20.805697
2063.534687	-3.026400	3.210400	-9.712700	27.389594	0.000352	20.813085
2064.535751	-3.008000	3.210900	-9.657800	27.427472	0.000352	20.802353
2065.535174	-3.031900	3.207300	-9.723100	27.446177	0.000350	20.806472
2066.533254	-3.007400	3.209500	-9.651700	27.487630	0.000349	20.790804
2067.542945	-2.973300	3.209100	-9.540400	27.512604	0.000348	20.803602
2068.536578	-2.975100	3.209200	-9.546600	27.525532	0.000348	20.803333
2069.536100	-3.011300	3.206800	-9.656600	27.551374	0.000346	20.819851
2070.537951	-2.988500	3.208300	-9.587800	27.561475	0.000345	20.804883
2071.535707	-2.988200	3.208800	-9.586700	27.559910	0.000345	20.794300
2072.553363	-2.989900	3.207800	-9.589100	27.547907	0.000346	20.814940
2073.535707	-3.007400	3.205900	-9.640400	27.534121	0.000344	20.817190
2074.536783	-2.989500	3.207300	-9.587300	27.533998	0.000342	20.808058
2075.532864	-2.994100	3.207400	-9.601900	27.548210	0.000345	20.816666
2076.537115	-2.997100	3.205100	-9.605000	27.529838	0.000343	20.808613
2077.537833	-2.971000	3.205500	-9.522100	27.515478	0.000341	20.797011
2078.536531	-2.999400	3.205200	-9.612300	27.511483	0.000340	20.819069
2079.537319	-2.988400	3.203900	-9.573300	27.517318	0.000339	20.804077
2080.537210	-2.982700	3.205400	-9.559600	27.552019	0.000339	20.833301
2081.539248	-2.959700	3.204500	-9.484200	27.556784	0.000339	20.808699
2082.537734	-2.982400	3.202500	-9.550300	27.586498	0.000338	20.807301
2083.540138	-3.006300	3.202700	-9.627100	27.613710	0.000338	20.820457
2084.535421	-2.987800	3.201900	-9.566400	27.628047	0.000335	20.808805
2085.542274	-3.011600	3.200700	-9.638400	27.641417	0.000335	20.817991
2086.541453	-3.004200	3.200300	-9.612800	27.658778	0.000336	20.802270
2087.534850	-3.029600	3.199100	-9.690600	27.702354	0.000335	20.822411
2088.539567	-3.015600	3.199600	-9.647800	27.709823	0.000333	20.819495
2089.537849	-3.013700	3.200900	-9.645600	27.646907	0.000332	20.818299
2090.539048	-2.997200	3.199300	-9.588200	27.630217	0.000331	20.811463
2091.537074	-3.032900	3.198200	-9.697500	27.618859	0.000331	20.820897
2092.538376	-3.015300	3.200400	-9.648000	27.612863	0.000330	20.819131
2093.538078	-3.005800	3.197300	-9.609600	27.603316	0.000331	20.839395
2094.545222	-2.969200	3.198300	-9.494700	27.615149	0.000329	20.798198
2095.544381	-3.012400	3.195500	-9.625400	27.627307	0.000328	20.807112
2096.541649	-3.037300	3.196300	-9.707400	27.616890	0.000326	20.814174
2097.549310	-3.016700	3.196300	-9.642000	27.624286	0.000327	20.807866
2098.541036	-3.014200	3.194600	-9.628800	27.635694	0.000324	20.798956
2099.540891	-3.007500	3.194900	-9.608000	27.594405	0.000327	20.828060
2100.547189	-3.002700	3.194600	-9.592000	27.618561	0.000323	20.830554
2101.542955	-3.005400	3.193500	-9.597100	27.669407	0.000325	20.838095
2102.542026	-3.016200	3.192900	-9.629900	27.683100	0.000323	20.810149
2103.545520	-3.012000	3.194000	-9.619200	27.674004	0.000322	20.800995
2104.540526	-3.008900	3.191300	-9.601300	27.643621	0.000322	20.802665
2105.545380	-3.020000	3.191600	-9.637100	27.630930	0.000322	20.805542
2106.545218	-3.017300	3.190400	-9.625700	27.606476	0.000322	20.825506
2107.545282	-2.995500	3.192100	-9.561300	27.607250	0.000319	20.827233
2108.544425	-3.006100	3.189800	-9.587100	27.580889	0.000320	20.812089
2109.548416	-3.004700	3.190600	-9.586200	27.614945	0.000318	20.846829
2110.547406	-3.009300	3.189700	-9.597800	27.669011	0.000317	20.809248
2111.543305	-3.006800	3.188700	-9.586500	27.693099	0.000318	20.816891
2112.546721	-2.979000	3.190000	-9.502900	27.649109	0.000317	20.815774
2113.547519	-2.963200	3.189300	-9.449400	27.597844	0.000316	20.810183
2114.547646	-2.995300	3.187900	-9.547700	27.586169	0.000313	20.822617
2115.545896	-2.989000	3.189600	-9.532700	27.591852	0.000314	20.817904
2116.547911	-2.971200	3.186300	-9.465600	27.620454	0.000313	20.809225
2117.545076	-2.996300	3.185800	-9.544400	27.651779	0.000312	20.807081
2118.548224	-2.987300	3.187700	-9.521600	27.667435	0.000312	20.812403
2119.547122	-2.995300	3.185100	-9.539500	27.682095	0.000312	20.812457
2120.546519	-2.991500	3.185100	-9.527300	27.708957	0.000311	20.820047
2121.548133	-3.006500	3.187200	-9.582100	27.720048	0.000309	20.819354
2122.549956	-2.988000	3.184500	-9.514500	27.727144	0.000308	20.820805
2123.551859	-3.008900	3.183800	-9.579100	27.785499	0.000309	20.800820
2124.547791	-2.996800	3.183300	-9.539200	27.808765	0.000308	20.806217
2125.553298	-2.992800	3.182600	-9.523300	27.828454	0.000307	20.827929
2126.551158	-3.009000	3.182800	-9.576600	27.841527	0.000305	20.809317
2127.547023	-2.991500	3.182000	-9.517000	27.883284	0.000304	20.815308
2128.551058	-2.991900	3.180800	-9.515900	27.877835	0.000304	20.816936
2129.550165	-3.025000	3.178800	-9.615100	27.868143	0.000303	20.819034
2130.548414	-2.975300	3.182900	-9.469700	27.855205	0.000303	20.812652
2131.554726	-2.982500	3.180400	-9.484200	27.856446	0.000302	20.829073
2132.551578	-2.998600	3.179000	-9.531500	27.880030	0.000301	20.806343
2133.550912	-3.010200	3.178400	-9.566200	27.857400	0.000301	20.831456
2134.552254	-2.978900	3.179100	-9.469200	27.836797	0.000301	20.817359
2135.553662	-3.007700	3.178900	-9.559600	27.859190	0.000300	20.818559
2136.550395	-3.012900	3.177300	-9.572300	27.832713	0.000299	20.828421
2137.553903	-3.027100	3.177700	-9.617400	27.795373	0.000297	20.833991
2138.555402	-3.003900	3.175900	-9.539400	27.759246	0.000297	20.792892
2139.555337	-2.991600	3.179300	-9.510800	27.776355	0.000298	20.824809
2140.562938	-3.012300	3.177000	-9.569200	27.766592	0.000294	20.832053
2141.560419	-2.991800	3.174600	-9.496900	27.767882	0.000293	20.828136
2142.560156	-2.989900	3.176400	-9.495600	27.776990	0.000292	20.816439
2143.555983	-3.009400	3.173000	-9.547900	27.805435	0.000293	20.837478
2144.562658	-2.981900	3.173100	-9.459500	27.809081	0.000293	20.832139
2145.557297	-2.989800	3.174400	-9.489600	27.814788	0.000291	20.842623
2146.562191	-2.991700	3.174200	-9.494600	27.835423	0.000291	20.833045
2147.559146	-2.994400	3.172100	-9.496700	27.880384	0.000290	20.820450
2148.552197	-3.022900	3.171300	-9.584400	27.867246	0.000291	20.840891
2149.561146	-2.993400	3.171300	-9.492600	27.872928	0.000289	20.825747
2150.557221	-3.021500	3.169100	-9.575300	27.873375	0.000287	20.817188
2151.555361	-3.019800	3.168100	-9.565100	27.883350	0.000289	20.837184
2152.555922	-3.012800	3.169400	-9.547800	27.889478	0.000286	20.833395
2153.564102	-3.006500	3.169400	-9.527800	27.894488	0.000286	20.847920
2154.555499	-2.975800	3.168700	-9.428700	27.922565	0.000287	20.820704
2155.559903	-3.004500	3.167400	-9.515400	27.936399	0.000286	20.819929
2156.560312	-2.994200	3.167200	-9.481100	27.947164	0.000286	20.835031
2157.558142	-2.994100	3.169100	-9.487600	28.001292	0.000282	20.817443
2158.562109	-3.012100	3.166900	-9.538200	28.022469	0.000283	20.847293
2159.562204	-3.002200	3.167500	-9.507600	28.015280	0.000283	20.816350
2160.555781	-3.013200	3.164600	-9.534500	27.996417	0.000283	20.850941
2161.556309	-3.001400	3.163700	-9.494300	27.965974	0.000280	20.828834
2162.564407	-2.971200	3.165700	-9.404000	27.928095	0.000279	20.870364
2163.557690	-2.979300	3.164500	-9.426100	27.886294	0.000279	20.832561
2164.560925	-2.999000	3.161600	-9.480900	27.881911	0.000279	20.816770
2165.560695	-2.991800	3.162000	-9.458200	27.894880	0.000281	20.844522
2166.561285	-2.993200	3.162000	-9.463100	27.897883	0.000278	20.847544
2167.558774	-2.988800	3.162000	-9.448800	27.903589	0.000276	20.852339
2168.560999	-2.991800	3.160800	-9.455700	27.867916	0.000275	20.831608
2169.556207	-3.006700	3.159000	-9.497400	27.867843	0.000274	20.858086
2170.556612	-3.016100	3.159600	-9.528300	27.883389	0.000274	20.844810
2171.561951	-2.994100	3.158300	-9.455700	27.896240	0.000274	20.839726
2172.560818	-2.995100	3.157600	-9.455600	27.924436	0.000273	20.834915
2173.565292	-2.983800	3.158600	-9.423000	27.979036	0.000272	20.844826
2174.562879	-3.020700	3.155400	-9.530300	27.947921	0.000271	20.859026
2175.562790	-3.023400	3.154900	-9.537200	27.924444	0.000271	20.856259
2176.563443	-3.009200	3.155900	-9.495200	27.939449	0.000271	20.831060
2177.564318	-2.980000	3.157800	-9.407800	27.939724	0.000272	20.850302
2178.560839	-3.002000	3.154700	-9.468900	27.923662	0.000271	20.853575
2179.560035	-2.993900	3.155800	-9.447000	27.916423	0.000267	20.852454
2180.560039	-2.994900	3.152100	-9.439500	27.944369	0.000266	20.846917
2181.559234	-3.010400	3.152900	-9.489700	27.941817	0.000268	20.856201
2182.560275	-3.017200	3.152400	-9.510100	27.950551	0.000265	20.848871
2183.559338	-3.004200	3.152100	-9.468600	28.001033	0.000267	20.852268
2184.559447	-2.990800	3.152200	-9.426600	28.025404	0.000266	20.853567
2185.563887	-2.977200	3.151200	-9.380800	27.998882	0.000265	20.847259
2186.562938	-2.992700	3.150600	-9.427700	27.967227	0.000266	20.848586
2187.568002	-2.998700	3.149500	-9.443300	27.919152	0.000267	20.850458
2188.562905	-3.012600	3.148300	-9.483700	27.876957	0.000268	20.843078
2189.565862	-3.013300	3.147000	-9.482100	27.833565	0.000264	20.835917
2190.578207	-3.009200	3.146900	-9.468800	27.844725	0.000264	20.845725
2191.567103	-2.997400	3.147600	-9.433300	27.901111	0.000266	20.849370
2192.566897	-2.995400	3.145400	-9.420900	27.939691	0.000262	20.862596
2193.563471	-2.996400	3.146100	-9.426000	27.923330	0.000263	20.856560
2194.564929	-2.998400	3.144000	-9.425900	27.895040	0.000261	20.846105
2195.564857	-3.003300	3.144100	-9.441900	27.821029	0.000263	20.872136
2196.568703	-3.003400	3.144300	-9.443100	27.777085	0.000261	20.870586
2197.565726	-2.984100	3.143100	-9.377600	27.778376	0.000263	20.855290
2198.569252	-3.009400	3.143100	-9.456700	27.779343	0.000262	20.863375
2199.568888	-3.007500	3.142500	-9.450800	27.841111	0.000262	20.866269
2200.567027	-3.013000	3.141900	-9.465600	27.872726	0.000261	20.852095
2201.571774	-2.997200	3.142400	-9.416800	27.919238	0.000259	20.872829
2202.567518	-2.996100	3.140200	-9.408000	27.944582	0.000261	20.879372
2203.568555	-2.996000	3.139400	-9.404000	27.926976	0.000261	20.878246
2204.568898	-2.983600	3.137700	-9.360600	27.948396	0.000259	20.876572
2205.575337	-2.991300	3.137900	-9.384700	27.962401	0.000260	20.864117
2206.570730	-3.024700	3.137300	-9.488300	27.936344	0.000259	20.877718
2207.572228	-3.006500	3.136900	-9.430200	27.921737	0.000260	20.883404
2208.573593	-3.000600	3.136100	-9.408900	27.901053	0.000259	20.881078
2209.570334	-3.005600	3.134300	-9.418200	27.921138	0.000258	20.857673
2210.571763	-3.004300	3.136300	-9.421100	27.962319	0.000255	20.858345
2211.573777	-2.989700	3.134700	-9.370800	28.027842	0.000257	20.865977
2212.572805	-3.010400	3.134300	-9.434200	28.053405	0.000256	20.867527
2213.572223	-3.007800	3.131800	-9.417700	28.069911	0.000255	20.877504
2214.572771	-3.022600	3.131400	-9.464100	28.096284	0.000255	20.852845
2215.572897	-3.005300	3.130600	-9.406700	28.115125	0.000254	20.871810
2216.573338	-3.019100	3.130500	-9.450400	28.142762	0.000252	20.899157
2217.577431	-3.005200	3.130500	-9.406900	28.170206	0.000252	20.879372
2218.575962	-2.967400	3.131400	-9.291200	28.174711	0.000252	20.874424
2219.577382	-2.993200	3.129100	-9.363000	28.213335	0.000248	20.883437
2220.577540	-2.970900	3.129200	-9.295300	28.207606	0.000251	20.887151
2221.577146	-3.020300	3.127500	-9.444700	28.144245	0.000249	20.883107
2222.580210	-2.996000	3.127400	-9.368200	28.124188	0.000246	20.907485
2223.577998	-2.983900	3.128800	-9.335000	28.130655	0.000248	20.898349
2224.579091	-3.017300	3.125600	-9.429900	28.169404	0.000246	20.881408
2225.578063	-2.974700	3.125500	-9.296500	28.197044	0.000247	20.865614
2226.578931	-3.001400	3.123700	-9.374700	28.236580	0.000246	20.868434
2227.581102	-3.011900	3.122300	-9.401700	28.282261	0.000243	20.884080
2228.579115	-2.983300	3.122600	-9.314800	28.306946	0.000244	20.893286
2229.580514	-2.996300	3.122400	-9.354500	28.331954	0.000241	20.875319
2230.582143	-3.011600	3.120100	-9.395400	28.336937	0.000242	20.902620
2231.579635	-3.012100	3.119000	-9.393500	28.304419	0.000241	20.871303
2232.580290	-2.984000	3.120500	-9.310500	28.259558	0.000240	20.892041
2233.580374	-3.004500	3.117600	-9.365800	28.189684	0.000238	20.894238
2234.581707	-2.989900	3.117500	-9.320200	28.146927	0.000241	20.880592
2235.580148	-2.998800	3.115700	-9.341800	28.166512	0.000239	20.897936
2236.580415	-2.976600	3.117300	-9.278200	28.189144	0.000238	20.870936
2237.581075	-2.986100	3.115800	-9.303500	28.159001	0.000237	20.864773
2238.585016	-3.009300	3.115000	-9.372900	28.131536	0.000235	20.875055
2239.579831	-2.978500	3.115200	-9.277400	28.090636	0.000235	20.885564
2240.584203	-2.979000	3.114800	-9.277900	28.099266	0.000236	20.885717
2241.586262	-2.984300	3.112800	-9.287700	28.145949	0.000236	20.861116
2242.581131	-2.994500	3.113600	-9.322400	28.155618	0.000235	20.871324
2243.587427	-3.012300	3.112400	-9.374300	28.195430	0.000236	20.869205
2244.583189	-3.010000	3.110000	-9.360600	28.207082	0.000234	20.883779
2245.584954	-2.984900	3.110600	-9.284100	28.234676	0.000233	20.871258
2246.587582	-2.996000	3.110600	-9.317500	28.182575	0.000233	20.870013
2247.584289	-2.996700	3.108400	-9.313700	28.130226	0.000234	20.868046
2248.584551	-3.010600	3.108100	-9.356100	28.156753	0.000231	20.870570
2249.584949	-2.994800	3.107500	-9.305500	28.144286	0.000230	20.849011
2250.589339	-3.010200	3.106800	-9.350600	28.195721	0.000233	20.869972
2251.588131	-3.006500	3.105800	-9.336700	28.205292	0.000229	20.861116
2252.584735	-3.011900	3.104800	-9.351000	28.223045	0.000232	20.853860
2253.587084	-2.983600	3.105000	-9.263500	28.275845	0.000229	20.854862
2254.587384	-2.976900	3.105200	-9.242400	28.322044	0.000228	20.863446
2255.585036	-2.994000	3.102600	-9.287200	28.336897	0.000228	20.859908
2256.587668	-2.985500	3.101800	-9.259800	28.386021	0.000229	20.845837
2257.585634	-2.997800	3.103200	-9.299700	28.362456	0.000228	20.830644
2258.587190	-2.988800	3.100400	-9.266100	28.346397	0.000228	20.844344
2259.585699	-3.008300	3.098000	-9.317600	28.358472	0.000227	20.860296
2260.586771	-3.037200	3.097500	-9.406300	28.345910	0.000227	20.836742
2261.587226	-3.026500	3.096900	-9.371600	28.331066	0.000227	20.850245
2262.587840	-2.996300	3.096700	-9.277700	28.360909	0.000228	20.843784
2263.587895	-2.978500	3.096300	-9.220800	28.396054	0.000228	20.852619
2264.587081	-2.990900	3.095500	-9.257300	28.433605	0.000226	20.857715
2265.588218	-2.984500	3.094400	-9.233900	28.447829	0.000229	20.858763
2266.592813	-2.990300	3.094900	-9.253800	28.441859	0.000228	20.853226
2267.589603	-3.000100	3.091900	-9.275200	28.478737	0.000228	20.860016
2268.588643	-2.997200	3.092200	-9.267000	28.501411	0.000227	20.855349
2269.592683	-3.024200	3.090000	-9.342600	28.485608	0.000228	20.854133
2270.589391	-3.014600	3.089700	-9.313000	28.500195	0.000227	20.860288
2271.589718	-2.976000	3.088800	-9.191600	28.465312	0.000225	20.852661
2272.590388	-3.014900	3.088100	-9.309500	28.487020	0.000225	20.865986
2273.590941	-2.995600	3.089000	-9.251500	28.502062	0.000225	20.836091
2274.591247	-2.977200	3.088400	-9.194000	28.524462	0.000223	20.846794
2275.590658	-3.018100	3.085300	-9.310100	28.535069	0.000223	20.834244
2276.590779	-2.981700	3.086400	-9.201300	28.577291	0.000225	20.828402
2277.590278	-2.998100	3.084400	-9.247000	28.534251	0.000223	20.852859
2278.591189	-3.017000	3.083300	-9.301300	28.439341	0.000223	20.852587
2279.591252	-3.013800	3.082200	-9.287100	28.377956	0.000222	20.836293
2280.591812	-3.039400	3.082000	-9.365600	28.321570	0.000222	20.836417
2281.592058	-3.002700	3.081900	-9.252700	28.316611	0.000223	20.824786
2282.591352	-3.015400	3.080000	-9.285900	28.285059	0.000224	20.845648
2283.592160	-2.997700	3.079000	-9.229400	28.205395	0.000222	20.842255
2284.591447	-3.018800	3.078700	-9.292200	28.192454	0.000220	20.847718
2285.593577	-3.018000	3.077700	-9.287300	28.222551	0.000221	20.847198
2286.591593	-2.996000	3.076800	-9.216200	28.214348	0.000219	20.842733
2287.593612	-2.997900	3.075800	-9.219400	28.170126	0.000218	20.843731
2288.593014	-2.964900	3.076100	-9.119100	28.182867	0.000220	20.824316
2289.593857	-2.991100	3.073400	-9.191900	28.204835	0.000216	20.839320
2290.593714	-2.996700	3.073500	-9.207900	28.205056	0.000218	20.839542
2291.594666	-3.004200	3.072000	-9.227900	28.247839	0.000217	20.836623
2292.594563	-3.003700	3.070800	-9.221900	28.281796	0.000219	20.836198
2293.595452	-3.015000	3.069700	-9.253700	28.333356	0.000218	20.830266
2294.596357	-2.994300	3.069900	-9.192000	28.352908	0.000217	20.843315
2295.595262	-3.015000	3.067700	-9.248900	28.353408	0.000216	20.841921
2296.595931	-2.992300	3.067100	-9.176200	28.384364	0.000215	20.815246
2297.597815	-3.006700	3.064700	-9.213100	28.397774	0.000216	20.816421
2298.597106	-3.007200	3.064100	-9.213800	28.362933	0.000215	20.834443
2299.597224	-2.994400	3.064000	-9.172700	28.397504	0.000216	20.817097
2300.597653	-2.998700	3.062500	-9.180900	28.424643	0.000213	20.833519
2301.600976	-2.981300	3.063400	-9.131300	28.435198	0.000215	20.831820
2302.596385	-2.985400	3.061400	-9.138700	28.470767	0.000213	20.833499
2303.596518	-2.968700	3.060600	-9.085300	28.453394	0.000215	20.805573
2304.598758	-3.014400	3.057100	-9.213600	28.475848	0.000214	20.836244
2305.599364	-3.010000	3.058100	-9.203800	28.480433	0.000214	20.827112
2306.596884	-3.000100	3.057200	-9.170000	28.433078	0.000215	20.815935
2307.600698	-3.032400	3.055600	-9.264900	28.444285	0.000215	20.829116
2308.598429	-3.034400	3.054400	-9.267100	28.433185	0.000215	20.835008
2309.597805	-2.988500	3.053800	-9.125200	28.428235	0.000216	20.822437
2310.597926	-3.030200	3.052300	-9.248200	28.442033	0.000213	20.806460
2311.600073	-2.981900	3.053400	-9.103700	28.462558	0.000215	20.822862
2312.598958	-3.001900	3.051000	-9.158200	28.476733	0.000216	20.821963
2313.601079	-2.986500	3.050400	-9.108800	28.496586	0.000213	20.821567
2314.600801	-2.987800	3.049200	-9.110100	28.491116	0.000216	20.828861
2315.597867	-2.983900	3.048600	-9.094900	28.462915	0.000214	20.816109
2316.598929	-2.981900	3.047400	-9.085800	28.442688	0.000213	20.809017
2317.598913	-2.981400	3.046000	-9.080900	28.435114	0.000214	20.815614
2318.599271	-3.024000	3.044100	-9.204200	28.386663	0.000213	20.811871
2319.600817	-3.017900	3.043900	-9.184300	28.344778	0.000213	20.809999
2320.600733	-2.987700	3.043100	-9.090900	28.288968	0.000213	20.794109
2321.599258	-3.006900	3.040800	-9.142400	28.229978	0.000214	20.789718
2322.601025	-3.015300	3.038400	-9.159300	28.191609	0.000212	20.820789
2323.600338	-3.027400	3.038600	-9.197500	28.121231	0.000214	20.806837
2324.601473	-3.006000	3.038600	-9.132200	28.132166	0.000212	20.795086
2325.601774	-3.003700	3.036400	-9.119600	28.198550	0.000212	20.818769
2326.602481	-3.004700	3.036200	-9.122600	28.240470	0.000210	20.799333
2327.600392	-3.040400	3.032900	-9.220300	28.323330	0.000211	20.787454
2328.601198	-2.989500	3.034800	-9.071700	28.298576	0.000210	20.814688
2329.603313	-2.991000	3.033200	-9.071200	28.267445	0.000210	20.808000
2330.601238	-2.977800	3.031000	-9.025000	28.280386	0.000211	20.793528
2331.601754	-2.978700	3.030100	-9.023300	28.322847	0.000210	20.809254
2332.602374	-3.000400	3.029000	-9.087400	28.379601	0.000211	20.798596
2333.600938	-3.007600	3.026400	-9.101200	28.420179	0.000211	20.813851
2334.603062	-2.983300	3.026000	-9.026400	28.451231	0.000209	20.794386
2335.603124	-3.005800	3.026000	-9.094200	28.457180	0.000208	20.812705
2336.603437	-2.994800	3.025100	-9.058700	28.520645	0.000209	20.805494
2337.603658	-3.014900	3.021400	-9.107200	28.548874	0.000208	20.786982
2338.603852	-3.012100	3.021900	-9.101100	28.525759	0.000208	20.805903
2339.603631	-2.987600	3.021200	-9.025200	28.498329	0.000208	20.790132
2340.603633	-3.007700	3.018600	-9.078200	28.425650	0.000207	20.798972
2341.603665	-3.003000	3.018000	-9.060900	28.423595	0.000208	20.790738
2342.605453	-2.989300	3.018500	-9.021200	28.390539	0.000209	20.784006
2343.604980	-2.980500	3.016400	-8.990000	28.431534	0.000207	20.792570
2344.605382	-2.991000	3.014900	-9.016800	28.452576	0.000209	20.803801
2345.613952	-3.003000	3.012700	-9.046200	28.447425	0.000206	20.781545
2346.606708	-2.992900	3.011900	-9.012300	28.494961	0.000207	20.800491
2347.606065	-3.011100	3.011600	-9.067100	28.495112	0.000207	20.784996
2348.609759	-2.986600	3.009400	-8.986200	28.461838	0.000207	20.792266
2349.606622	-2.992500	3.007700	-8.999500	28.448159	0.000206	20.769955
2350.607354	-2.983200	3.008100	-8.972900	28.454706	0.000207	20.796937
2351.612293	-3.005900	3.004900	-9.031800	28.462171	0.000208	20.798290
2352.610656	-3.020900	3.003000	-9.070700	28.508985	0.000206	20.805130
2353.609560	-3.000800	3.004400	-9.014600	28.527008	0.000208	20.762589
2354.609489	-3.027500	3.001600	-9.085300	28.566286	0.000207	20.776067
2355.609946	-3.002800	3.000600	-9.009000	28.560145	0.000208	20.784582
2356.611259	-2.996800	3.000400	-8.990900	28.585843	0.000207	20.781065
2357.613918	-3.014900	2.997000	-9.034000	28.588967	0.000206	20.796065
2358.613255	-3.001800	2.996400	-8.994200	28.623658	0.000206	20.777425
2359.613792	-3.002600	2.995400	-8.992900	28.627261	0.000207	20.780579
2360.618413	-2.986400	2.994400	-8.941300	28.629218	0.000208	20.784921
2361.614129	-2.976500	2.995000	-8.913000	28.634871	0.000207	20.767381
2362.617503	-2.991700	2.991700	-8.949300	28.629198	0.000206	20.785849
2363.613467	-2.980000	2.991300	-8.913300	28.642629	0.000207	20.792739
2364.614300	-3.010700	2.988900	-8.997900	28.661665	0.000205	20.778721
2365.615384	-3.032100	2.986300	-9.053000	28.676459	0.000204	20.778449
2366.616341	-3.013900	2.985700	-8.997700	28.625224	0.000206	20.764303
2367.619489	-2.999000	2.985700	-8.952900	28.577973	0.000205	20.779777
2368.616779	-2.985300	2.983200	-8.904100	28.534864	0.000205	20.765285
2369.615562	-3.014600	2.982900	-8.991500	28.496481	0.000204	20.768357
2370.617748	-2.990100	2.980200	-8.909500	28.422959	0.000205	20.788202
2371.616498	-2.995100	2.980000	-8.923900	28.386259	0.000206	20.781118
2372.619091	-3.010800	2.978400	-8.966100	28.395902	0.000205	20.778975
2373.617743	-2.989000	2.977400	-8.898800	28.430203	0.000206	20.760882
2374.617033	-2.994700	2.975500	-8.909900	28.479843	0.000207	20.765352
2375.616899	-3.013300	2.972800	-8.956100	28.498706	0.000207	20.758743
2376.618428	-3.002200	2.971900	-8.921200	28.545297	0.000204	20.773896
2377.621407	-2.949800	2.974000	-8.771600	28.597135	0.000206	20.787222
2378.618182	-2.989400	2.970200	-8.877800	28.638838	0.000205	20.750988
2379.617869	-3.006100	2.968600	-8.923300	28.660743	0.000205	20.788698
2380.618216	-3.002200	2.966500	-8.905500	28.616221	0.000206	20.767089
2381.618012	-2.995700	2.966300	-8.884900	28.624293	0.000208	20.762417
2382.623273	-2.973200	2.963200	-8.809100	28.609262	0.000206	20.758183
2383.617946	-2.972200	2.963300	-8.806300	28.564609	0.000204	20.765370
2384.617910	-2.985300	2.960400	-8.836100	28.589013	0.000202	20.751066
2385.617080	-2.985300	2.959800	-8.834700	28.570038	0.000203	20.765147
2386.617856	-3.000200	2.958300	-8.874500	28.589861	0.000204	20.775628
2387.618839	-3.003800	2.955800	-8.878500	28.560176	0.000203	20.754266
2388.621143	-2.998700	2.954100	-8.858200	28.592043	0.000206	20.758860
2389.619966	-2.987500	2.953600	-8.823900	28.589566	0.000206	20.760633
2390.620535	-3.023700	2.951500	-8.923400	28.621928	0.000202	20.751500
2391.623903	-2.978000	2.951000	-8.786900	28.562338	0.000203	20.764505
2392.622624	-2.985600	2.948700	-8.802800	28.506830	0.000202	20.771192
2393.625091	-2.983100	2.945600	-8.786000	28.536571	0.000205	20.755624
2394.625988	-3.013500	2.944800	-8.872200	28.495010	0.000205	20.775411
2395.622433	-2.995800	2.943900	-8.818100	28.501607	0.000205	20.748862
2396.623664	-2.994200	2.942600	-8.809700	28.519744	0.000203	20.763808
2397.622951	-3.000200	2.939300	-8.817500	28.569802	0.000204	20.759693
2398.621904	-3.013000	2.938700	-8.853000	28.576315	0.000204	20.763882
2399.622572	-3.022900	2.936700	-8.876500	28.551784	0.000205	20.767152
2400.625118	-2.996800	2.937200	-8.801000	28.587192	0.000205	20.762983
2401.623649	-2.990500	2.934800	-8.774000	28.598663	0.000207	20.763156
2402.624141	-3.006400	2.932100	-8.813600	28.592048	0.000205	20.741794
2403.627814	-2.972800	2.931500	-8.713600	28.605725	0.000206	20.746560
2404.623911	-2.974500	2.930700	-8.716200	28.613204	0.000204	20.750300
2405.623489	-3.034400	2.925500	-8.875900	28.632133	0.000206	20.770788
2406.625981	-2.985400	2.926900	-8.737200	28.630250	0.000204	20.760356
2407.625157	-3.035500	2.923700	-8.873800	28.650964	0.000207	20.738544
2408.623847	-3.005000	2.922300	-8.779900	28.673610	0.000204	20.760406
2409.623613	-3.025100	2.920600	-8.833900	28.638175	0.000206	20.769761
2410.623230	-3.019700	2.919500	-8.815000	28.625980	0.000204	20.749891
2411.624439	-2.988400	2.918800	-8.722100	28.626328	0.000206	20.758302
2412.623849	-2.978100	2.917300	-8.686000	28.637421	0.000204	20.763311
2413.626777	-2.996500	2.914100	-8.731200	28.620728	0.000203	20.758826
2414.622674	-3.006300	2.912100	-8.752900	28.585291	0.000204	20.742102
2415.623926	-2.970300	2.912600	-8.650100	28.567474	0.000204	20.751659
2416.629116	-3.026600	2.909700	-8.803800	28.592054	0.000203	20.754603
2417.627323	-3.016300	2.907400	-8.768900	28.611455	0.000203	20.740003
2418.627878	-2.990500	2.905400	-8.688300	28.662696	0.000204	20.744670
2419.634258	-2.993800	2.903700	-8.692700	28.690814	0.000203	20.762561
2420.629408	-2.987100	2.902700	-8.669300	28.719603	0.000202	20.757893
2421.629469	-2.996400	2.900600	-8.690700	28.720716	0.000203	20.759489
2422.630484	-3.009100	2.897900	-8.718900	28.676568	0.000204	20.737306
2423.629017	-3.028300	2.895800	-8.767100	28.637519	0.000204	20.744918
2424.628579	-3.011700	2.894100	-8.715100	28.539516	0.000202	20.755745
2425.628906	-2.989600	2.894200	-8.651900	28.533121	0.000204	20.746459
2426.628583	-3.028400	2.890100	-8.751000	28.571428	0.000205	20.735252
2427.629009	-3.009500	2.889600	-8.694000	28.626437	0.000201	20.737075
2428.630544	-2.989700	2.886500	-8.628700	28.641502	0.000202	20.756990
2429.631373	-2.986500	2.886600	-8.619600	28.667321	0.000202	20.739371
2430.633076	-2.965000	2.885700	-8.555200	28.720790	0.000205	20.733958
2431.633011	-2.969900	2.883500	-8.562500	28.750843	0.000202	20.731987
2432.633889	-2.975700	2.880600	-8.570500	28.785818	0.000204	20.732605
2433.633666	-3.007900	2.877100	-8.653100	28.843370	0.000203	20.746010
2434.632946	-2.991500	2.877200	-8.605900	28.840350	0.000203	20.748657
2435.634270	-2.992000	2.875200	-8.602000	28.828357	0.000203	20.746533
2436.633342	-2.982600	2.874000	-8.571400	28.805220	0.000201	20.764952
2437.634225	-2.981800	2.871000	-8.560000	28.752926	0.000201	20.754001
2438.634819	-2.992200	2.870000	-8.586600	28.767858	0.000202	20.734902
2439.636541	-3.011100	2.865300	-8.626600	28.718112	0.000201	20.740744
2440.633641	-2.995100	2.866200	-8.583400	28.732386	0.000202	20.752752
2441.636132	-3.014700	2.862000	-8.627100	28.757531	0.000202	20.747259
2442.634804	-2.951200	2.861200	-8.442200	28.787161	0.000203	20.751028
2443.635618	-2.979100	2.858800	-8.516000	28.778316	0.000201	20.759662
2444.637833	-3.017300	2.856000	-8.616700	28.795237	0.000202	20.754421
2445.635402	-3.018600	2.853800	-8.613400	28.804524	0.000202	20.738171
2446.635246	-3.006100	2.852600	-8.574200	28.814413	0.000201	20.753824
2447.639306	-2.995100	2.849900	-8.534000	28.846768	0.000200	20.733310
2448.637033	-3.015500	2.848500	-8.588600	28.877906	0.000200	20.741920
2449.639194	-2.964500	2.845600	-8.434700	28.887741	0.000199	20.739499
2450.639895	-2.985100	2.844100	-8.488400	28.880705	0.000199	20.760388
2451.643135	-2.986300	2.842600	-8.487300	28.829877	0.000201	20.752331
2452.639974	-3.017600	2.838700	-8.565600	28.796384	0.000200	20.749412
2453.640522	-2.988300	2.837500	-8.477700	28.786204	0.000202	20.726829
2454.641236	-3.009900	2.834800	-8.531300	28.819080	0.000202	20.748567
2455.640970	-2.965200	2.834700	-8.403900	28.877620	0.000203	20.733571
2456.640945	-2.993500	2.833000	-8.479800	28.898227	0.000202	20.731097
2457.639373	-3.020400	2.827900	-8.539400	28.932118	0.000202	20.744378
2458.640949	-3.003400	2.826300	-8.487700	28.977397	0.000202	20.747322
2459.640902	-2.997300	2.824900	-8.466600	29.000756	0.000203	20.733872
2460.640522	-3.010100	2.821100	-8.490700	28.971975	0.000204	20.726685
2461.641254	-3.014400	2.819800	-8.496700	28.926745	0.000204	20.735645
2462.640712	-3.021500	2.816400	-8.508900	28.866378	0.000202	20.727935
2463.640256	-3.006000	2.815000	-8.461300	28.793343	0.000202	20.738762
2464.640193	-3.006700	2.813000	-8.457100	28.746620	0.000202	20.732474
2465.641901	-2.987900	2.810800	-8.397200	28.740696	0.000202	20.750217
2466.642626	-2.973200	2.809300	-8.351200	28.768219	0.000203	20.730050
2467.646533	-3.017800	2.805000	-8.463800	28.837363	0.000203	20.739484
2468.642604	-2.983500	2.803900	-8.364300	28.849503	0.000201	20.743178
2469.642990	-3.009000	2.800000	-8.424200	28.917171	0.000205	20.743545
2470.647367	-3.020200	2.797300	-8.447300	28.944194	0.000204	20.742320
2471.643805	-2.999900	2.796100	-8.386900	28.975236	0.000203	20.740403
2472.644013	-2.966900	2.795500	-8.292500	28.932105	0.000203	20.727294
2473.653081	-2.997100	2.791400	-8.365000	28.926080	0.000204	20.732605
2474.645666	-3.023700	2.787200	-8.426700	28.896331	0.000203	20.740093
2475.643929	-3.011800	2.784900	-8.386700	28.881711	0.000206	20.751444
2476.648550	-3.005200	2.783100	-8.363400	28.891968	0.000204	20.731904
2477.646151	-3.021400	2.780800	-8.400400	28.911780	0.000205	20.749493
2478.646086	-3.020100	2.776600	-8.384100	28.936900	0.000203	20.771957
2479.645915	-3.022000	2.771900	-8.375800	28.964188	0.000205	20.735436
2480.649209	-3.007600	2.772500	-8.337400	28.988014	0.000206	20.756123
2481.647120	-2.993000	2.769900	-8.289800	29.040447	0.000204	20.730241
2482.646605	-2.993000	2.766400	-8.279600	29.075389	0.000205	20.728463
2483.648654	-3.002700	2.764300	-8.299600	29.090173	0.000204	20.753792
2484.649921	-3.012700	2.761200	-8.316900	29.105153	0.000206	20.746127
2485.648669	-2.991000	2.758400	-8.249600	29.158248	0.000205	20.750316
2486.648914	-3.013500	2.753300	-8.295000	29.143583	0.000206	20.749289
2487.647787	-3.008300	2.750700	-8.273800	29.192122	0.000204	20.764536
2488.649325	-2.978400	2.750200	-8.189200	29.165543	0.000207	20.742967
2489.651777	-3.008000	2.746200	-8.259100	29.171758	0.000202	20.744489
2490.649118	-2.957100	2.743900	-8.111700	29.144560	0.000204	20.741264
2491.649856	-3.011400	2.738300	-8.245200	29.109636	0.000203	20.762024
2492.653538	-3.011700	2.735800	-8.238400	29.090064	0.000204	20.739457
2493.650611	-2.995300	2.732300	-8.183500	29.093285	0.000205	20.741280
2494.650090	-3.017700	2.729800	-8.236500	29.117672	0.000205	20.752103
2495.650655	-3.011600	2.726600	-8.210500	29.155017	0.000205	20.758440
2496.655908	-3.030700	2.722500	-8.249200	29.185691	0.000204	20.762798
2497.656920	-2.978200	2.719700	-8.098700	29.213992	0.000205	20.756229
2498.652418	-3.008200	2.716000	-8.169100	29.168302	0.000205	20.767086
2499.656098	-2.967000	2.713600	-8.049700	29.142545	0.000204	20.763890
2500.654745	-2.998300	2.708400	-8.119700	29.135032	0.000204	20.770070
2501.653352	-3.007000	2.706700	-8.138300	29.139160	0.000204	20.745306
2502.653666	-3.014800	2.700700	-8.140600	29.129749	0.000204	20.760479
2503.657698	-2.969000	2.699700	-8.014600	29.116814	0.000203	20.765938
2504.655221	-2.986600	2.694700	-8.047100	29.115844	0.000204	20.753581
2505.654819	-3.001100	2.690200	-8.072200	29.123938	0.000202	20.774064
2506.658454	-2.999100	2.687300	-8.059000	29.137260	0.000202	20.780851
2507.656025	-2.996900	2.683400	-8.040800	29.196093	0.000204	20.790824
2508.655282	-3.000200	2.679800	-8.038600	29.232123	0.000202	20.789200
2509.658629	-2.967600	2.677200	-7.943800	29.256143	0.000202	20.759826
2510.660068	-2.998800	2.672300	-8.012700	29.292166	0.000200	20.786173
2511.657490	-2.988700	2.669900	-7.977500	29.287956	0.000201	20.786672
2512.660525	-3.016200	2.664600	-8.035700	29.301326	0.000201	20.775490
2513.659298	-2.998400	2.660700	-7.976600	29.322861	0.000202	20.768270
2514.657882	-2.993400	2.655400	-7.947900	29.346016	0.000200	20.774537
2515.660639	-2.974500	2.653200	-7.890000	29.322366	0.000200	20.788634
2516.658316	-3.010900	2.646700	-7.968000	29.350074	0.000200	20.792378
2517.656221	-3.019400	2.644000	-7.982700	29.375077	0.000202	20.768265
2518.659914	-3.018000	2.637800	-7.959100	29.391072	0.000201	20.779171
2519.658937	-2.984000	2.636100	-7.865000	29.347820	0.000202	20.762130
2520.658957	-2.971400	2.632200	-7.819600	29.350041	0.000202	20.778594
2521.658562	-2.989700	2.625700	-7.849600	29.335334	0.000202	20.766142
2522.662117	-3.030500	2.618800	-7.936000	29.314285	0.000202	20.782861
2523.661703	-3.020400	2.616000	-7.899500	29.330879	0.000203	20.786308
2524.659962	-3.033500	2.610800	-7.918400	29.389783	0.000203	20.778346
2525.660828	-3.009300	2.605200	-7.838400	29.405132	0.000203	20.781962
2526.660245	-2.961900	2.601500	-7.704500	29.435014	0.000203	20.786951
2527.660967	-3.013300	2.595800	-7.821300	29.473935	0.000203	20.782560
2528.663301	-3.002400	2.590800	-7.777500	29.524929	0.000204	20.770900
2529.660812	-3.037700	2.584400	-7.849800	29.524017	0.000202	20.796059
2530.660878	-2.967900	2.581800	-7.660800	29.561594	0.000203	20.783677
2531.661722	-3.001900	2.573600	-7.724700	29.548223	0.000202	20.770199
2532.661759	-2.988700	2.569200	-7.678100	29.566072	0.000200	20.791511
2533.662863	-2.982900	2.564300	-7.647500	29.568964	0.000203	20.760760
2534.662919	-3.010100	2.558700	-7.700900	29.588870	0.000201	20.768026
2535.664909	-3.002300	2.552200	-7.661600	29.569851	0.000200	20.781096
2536.662447	-2.960500	2.547800	-7.541200	29.556088	0.000201	20.792352
2537.662912	-3.009000	2.540000	-7.641400	29.488083	0.000200	20.792080
2538.665627	-3.000100	2.535600	-7.606200	29.488001	0.000200	20.785833
2539.665393	-2.985500	2.528000	-7.546200	29.405610	0.000199	20.775332
2540.663861	-3.018700	2.522300	-7.612700	29.370249	0.000202	20.786633
2541.669092	-2.974900	2.518100	-7.490400	29.337190	0.000201	20.787928
2542.663714	-3.017800	2.509600	-7.572600	29.303513	0.000200	20.788125
2543.664550	-3.006700	2.503500	-7.526200	29.310423	0.000202	20.779916
2544.664611	-3.008900	2.496800	-7.511300	29.256861	0.000201	20.785206
