LabVIEW Measurement	
Writer_Version	2
Reader_Version	2
Separator	Tab
Decimal_Separator	.
Multi_Headings	No
X_Columns	One
Time_Pref	Absolute
Operator	admin
Description	Clolumns are: time, Current, Voltage, Power, Battery Temp, and Chamber Temp
Date	2024/08/16
Time	13:06:06.104549407958984375
***End_of_Header***	
	
Channels	6						
Samples	1	1	1	1	1	1	
Date	2024/09/03	2024/09/03	2024/09/03	2024/09/03	2024/09/03	2024/09/03	
Time	06:25:44.2756214141845703125	06:25:44.2826375961303710938	06:25:44.2887578010559082031	06:25:44.259418487548828125	06:25:44.259418487548828125	06:25:44.259418487548828125	
X_Dimension	Time	Time	Time	Time	Time	Time	
X0	0.0000000000000000E+0	0.0000000000000000E+0	0.0000000000000000E+0	0.0000000000000000E+0	0.0000000000000000E+0	0.0000000000000000E+0	
Delta_X	1.000000	1.000000	1.000000	1.000000	1.000000	1.000000	
***End_of_Header***							
X_Value	Untitled	Untitled 1	Untitled 2	Untitled 3	Untitled 4	Untitled 5	Comment
0.000000	0.026748	4.106800	0.109780	20.985176	0.000936	20.708757
1.002541	-3.001100	3.936000	-11.812000	20.996528	0.000939	20.695928
2.000284	-3.014800	3.928700	-11.843000	20.982980	0.000935	20.713199
3.005508	-3.011800	3.923000	-11.813000	20.973325	0.000936	20.729622
4.000880	-3.027100	3.920200	-11.865000	20.994159	0.000932	20.712051
5.000934	-3.002000	3.915900	-11.753000	20.992837	0.000934	20.696977
6.003788	-2.996300	3.915100	-11.730000	20.979837	0.000932	20.691561
6.999846	-3.014400	3.911800	-11.791000	21.001446	0.000932	20.710805
7.999806	-2.997500	3.908600	-11.715000	20.991815	0.000929	20.725829
8.999904	-3.001500	3.906100	-11.724000	20.985576	0.000931	20.698251
9.999393	-3.018800	3.904300	-11.786000	20.996181	0.000927	20.721187
11.000037	-2.992400	3.904400	-11.683000	21.037899	0.000928	20.719290
12.005205	-2.992700	3.901400	-11.674000	20.996631	0.000928	20.727327
13.002016	-3.000500	3.902000	-11.706000	21.005389	0.000927	20.721861
14.002475	-2.992800	3.900400	-11.672000	21.019387	0.000927	20.696505
15.002301	-2.998700	3.897000	-11.684000	21.015445	0.000925	20.708211
16.002777	-3.000200	3.898400	-11.694000	20.996333	0.000924	20.712329
17.004870	-3.006400	3.895900	-11.712000	21.021708	0.000925	20.714950
18.003289	-2.992400	3.894100	-11.652000	21.032088	0.000924	20.711581
19.004795	-2.982800	3.895200	-11.618000	21.043215	0.000923	20.718918
20.009259	-3.005500	3.892300	-11.695000	21.033561	0.000921	20.719693
21.004220	-3.017500	3.891100	-11.739000	21.057213	0.000920	20.709211
22.005863	-2.993100	3.891000	-11.645000	21.060058	0.000920	20.729601
23.004796	-3.000100	3.889500	-11.668000	21.037827	0.000920	20.727280
24.005038	-3.012000	3.889400	-11.714000	21.083910	0.000920	20.725483
25.005201	-3.019700	3.888500	-11.741000	21.071884	0.000918	20.712031
26.004582	-3.015900	3.886800	-11.721000	21.071461	0.000918	20.711133
27.008547	-2.984100	3.887700	-11.600000	21.089625	0.000920	20.720293
28.009451	-3.002700	3.885600	-11.667000	21.083063	0.000917	20.711358
29.005745	-3.002000	3.886200	-11.665000	21.109310	0.000919	20.729553
30.008772	-3.020900	3.884500	-11.734000	21.110457	0.000916	20.719320
31.005601	-2.995600	3.884800	-11.636000	21.110108	0.000919	20.711384
32.004951	-3.011700	3.883700	-11.695000	21.120187	0.000916	20.710560
33.011153	-2.966500	3.885000	-11.523000	21.125002	0.000915	20.711109
34.006457	-2.988000	3.883300	-11.602000	21.117169	0.000915	20.727457
35.005259	-2.990300	3.882500	-11.609000	21.140196	0.000914	20.729628
36.009058	-3.012800	3.880500	-11.689000	21.148878	0.000916	20.728355
37.007904	-2.999700	3.882400	-11.645000	21.160279	0.000915	20.733122
38.011552	-3.010000	3.880200	-11.679000	21.141918	0.000914	20.751740
39.014304	-3.002700	3.881000	-11.652000	21.163798	0.000914	20.729055
40.010979	-3.030800	3.878500	-11.754000	21.179463	0.000914	20.738562
41.010783	-2.974800	3.880100	-11.541000	21.180737	0.000914	20.742207
42.011154	-3.004300	3.878400	-11.651000	21.199123	0.000912	20.731676
43.014900	-2.975200	3.877800	-11.537000	21.197577	0.000912	20.716851
44.011909	-3.003900	3.878000	-11.647000	21.186774	0.000911	20.720744
45.014081	-2.973300	3.877400	-11.527000	21.210424	0.000909	20.733023
46.011112	-3.009900	3.878300	-11.673000	21.208502	0.000912	20.721143
47.013352	-2.983200	3.876100	-11.562000	21.205534	0.000911	20.718648
48.015851	-2.994300	3.877700	-11.611000	21.221500	0.000910	20.733198
49.012886	-3.020300	3.875700	-11.705000	21.221424	0.000912	20.723638
50.014051	-3.013700	3.875200	-11.678000	21.217757	0.000911	20.730876
51.015412	-2.997500	3.875100	-11.615000	21.230755	0.000908	20.721118
52.013951	-3.012500	3.874400	-11.670000	21.237440	0.000911	20.726858
53.013199	-3.003100	3.874900	-11.636000	21.274983	0.000909	20.734070
54.013239	-2.996400	3.874000	-11.607000	21.264456	0.000909	20.734919
55.013289	-2.992400	3.875400	-11.594000	21.266477	0.000910	20.735992
56.012604	-3.005900	3.873400	-11.643000	21.285809	0.000907	20.768136
57.013170	-2.992800	3.873400	-11.591000	21.296536	0.000907	20.732873
58.013100	-2.982500	3.872900	-11.550000	21.284362	0.000908	20.743929
59.015131	-2.981500	3.874200	-11.550000	21.314820	0.000908	20.732673
60.012793	-2.975600	3.873300	-11.524000	21.310505	0.000907	20.754910
61.015585	-3.008600	3.871500	-11.647000	21.334551	0.000906	20.731076
62.013164	-3.017300	3.870400	-11.677000	21.315370	0.000909	20.736543
63.016068	-2.985700	3.871000	-11.557000	21.342409	0.000908	20.745103
64.020675	-2.997700	3.871200	-11.601000	21.333529	0.000906	20.751866
65.015927	-2.980400	3.871200	-11.536000	21.351863	0.000908	20.758355
66.015872	-2.999100	3.871500	-11.610000	21.368550	0.000906	20.743281
67.016804	-2.991800	3.868200	-11.572000	21.352861	0.000907	20.746550
68.015872	-2.983200	3.869800	-11.543000	21.379377	0.000907	20.756011
69.014573	-2.997400	3.868800	-11.596000	21.398059	0.000906	20.755736
70.017828	-2.994300	3.868000	-11.579000	21.391025	0.000906	20.747276
71.015959	-3.000400	3.869000	-11.608000	21.421056	0.000908	20.746028
72.023002	-2.993800	3.868000	-11.579000	21.412252	0.000906	20.750970
73.018380	-2.992900	3.868000	-11.575000	21.414746	0.000906	20.725015
74.018414	-3.010300	3.867400	-11.642000	21.412128	0.000907	20.756062
75.022641	-2.985000	3.867400	-11.541000	21.431707	0.000905	20.746254
76.017627	-3.009600	3.865800	-11.632000	21.452583	0.000907	20.751494
77.019968	-2.987600	3.868100	-11.554000	21.428665	0.000906	20.742735
78.021070	-3.020300	3.865000	-11.672000	21.434701	0.000906	20.751620
79.017659	-3.019300	3.864600	-11.667000	21.445376	0.000907	20.755189
80.018747	-3.022400	3.865600	-11.682000	21.460715	0.000907	20.755838
81.020863	-3.004800	3.864400	-11.611000	21.450690	0.000907	20.746755
82.018437	-2.974500	3.865200	-11.496000	21.445477	0.000907	20.745806
83.019500	-3.010700	3.864400	-11.633000	21.469319	0.000907	20.755912
84.024504	-2.973700	3.865600	-11.494000	21.481840	0.000908	20.774605
85.020191	-3.000800	3.863200	-11.590000	21.481367	0.000905	20.758959
86.021889	-2.997400	3.863600	-11.579000	21.499101	0.000909	20.759159
87.021291	-2.987200	3.864200	-11.543000	21.513540	0.000908	20.759383
88.022113	-2.992000	3.862300	-11.555000	21.527057	0.000908	20.758684
89.021946	-2.990100	3.863300	-11.550000	21.519701	0.000906	20.763651
90.020970	-2.980100	3.863800	-11.513000	21.532894	0.000904	20.756463
91.023481	-3.016400	3.862100	-11.649000	21.535636	0.000903	20.773907
92.022398	-3.011700	3.861800	-11.629000	21.553643	0.000909	20.775803
93.021846	-3.007500	3.861200	-11.612000	21.576262	0.000904	20.761928
94.023567	-3.008500	3.862200	-11.618000	21.546935	0.000906	20.745383
95.022774	-3.018500	3.860600	-11.652000	21.573370	0.000906	20.753818
96.021800	-2.991900	3.862000	-11.554000	21.571350	0.000907	20.772186
97.023859	-2.996100	3.861100	-11.567000	21.573195	0.000905	20.776877
98.024326	-2.988100	3.862000	-11.539000	21.595516	0.000906	20.760807
99.025769	-2.987400	3.861300	-11.534000	21.580752	0.000906	20.773059
100.024479	-3.005000	3.860300	-11.600000	21.583621	0.000909	20.761705
101.025001	-2.994400	3.860800	-11.559000	21.560178	0.000904	20.746306
102.034842	-2.991600	3.860500	-11.548000	21.576339	0.000905	20.781446
103.027404	-3.006400	3.861200	-11.607000	21.585068	0.000906	20.746083
104.029671	-3.011900	3.861000	-11.627000	21.603795	0.000907	20.778101
105.026434	-3.010600	3.859800	-11.619000	21.605591	0.000907	20.763302
106.027681	-3.012900	3.859700	-11.627000	21.611626	0.000905	20.774557
107.029634	-2.976700	3.859800	-11.489000	21.618983	0.000908	20.774807
108.026340	-3.016300	3.858800	-11.638000	21.611677	0.000908	20.779350
109.028507	-2.985000	3.859200	-11.518000	21.647661	0.000909	20.756090
110.026684	-2.994100	3.858000	-11.550000	21.648385	0.000909	20.764875
111.028528	-2.971800	3.859800	-11.469000	21.660727	0.000907	20.785288
112.028817	-3.003100	3.858500	-11.586000	21.672148	0.000909	20.776803
113.031516	-3.001000	3.858100	-11.577000	21.673593	0.000907	20.794370
114.030699	-2.986900	3.858300	-11.523000	21.668557	0.000909	20.765622
115.031516	-2.999500	3.856200	-11.565000	21.715362	0.000908	20.783540
116.032287	-2.962900	3.858600	-11.430000	21.713542	0.000911	20.779348
117.031667	-2.995400	3.857900	-11.555000	21.703294	0.000908	20.784265
118.033467	-3.012200	3.857000	-11.617000	21.711872	0.000910	20.752545
119.031257	-2.989600	3.858400	-11.533000	21.724887	0.000909	20.783116
120.032120	-3.005400	3.856500	-11.590000	21.753338	0.000909	20.771761
121.032870	-3.012800	3.857800	-11.621000	21.751219	0.000911	20.792874
122.030782	-3.013500	3.856400	-11.620000	21.767003	0.000910	20.787334
123.035002	-2.982500	3.856300	-11.500000	21.778697	0.000908	20.799987
124.033944	-2.998100	3.856000	-11.560000	21.787798	0.000909	20.795345
125.034514	-3.005300	3.855200	-11.583000	21.766428	0.000911	20.783440
126.034176	-2.955000	3.856400	-11.395000	21.774383	0.000911	20.790927
127.033553	-3.013100	3.853500	-11.610000	21.794031	0.000911	20.804902
128.033412	-2.987000	3.855300	-11.515000	21.791987	0.000911	20.814236
129.035157	-3.009800	3.854500	-11.601000	21.796251	0.000911	20.781993
130.033290	-2.997900	3.855500	-11.558000	21.812383	0.000912	20.793398
131.033060	-3.008800	3.854900	-11.598000	21.818891	0.000910	20.798964
132.035069	-3.006500	3.854200	-11.586000	21.819265	0.000913	20.776104
133.033543	-3.013900	3.853500	-11.613000	21.829488	0.000911	20.786811
134.038177	-3.008400	3.854100	-11.594000	21.819016	0.000912	20.795770
135.033955	-3.011800	3.854000	-11.606000	21.832031	0.000912	20.794097
136.034074	-3.001300	3.853700	-11.565000	21.835946	0.000912	20.789956
137.039709	-2.992800	3.852300	-11.529000	21.830435	0.000912	20.792501
138.034519	-2.980400	3.854300	-11.486000	21.842752	0.000912	20.815211
139.036560	-3.011300	3.853200	-11.602000	21.836868	0.000914	20.798940
140.035556	-2.995200	3.853800	-11.542000	21.844324	0.000915	20.789332
141.037173	-3.021500	3.852000	-11.638000	21.868733	0.000914	20.792427
142.038961	-2.990100	3.852700	-11.518000	21.886835	0.000913	20.799166
143.040540	-2.991700	3.850700	-11.519000	21.878058	0.000915	20.809821
144.038375	-2.997100	3.851900	-11.544000	21.904487	0.000916	20.789808
145.043138	-2.981900	3.852900	-11.487000	21.920019	0.000916	20.784019
146.042669	-3.003400	3.851100	-11.566000	21.892046	0.000918	20.803908
147.038419	-3.024700	3.849400	-11.643000	21.906432	0.000913	20.812143
148.043247	-2.995200	3.850800	-11.533000	21.941834	0.000915	20.803958
149.038653	-2.984700	3.851300	-11.493000	21.938645	0.000915	20.807404
150.041478	-2.978900	3.851800	-11.472000	21.944079	0.000915	20.793878
151.040488	-2.998700	3.850300	-11.545000	21.933010	0.000916	20.801290
152.041804	-2.989900	3.850400	-11.510000	21.946023	0.000917	20.800565
153.039400	-3.007000	3.849800	-11.575000	21.944427	0.000918	20.805132
154.040431	-2.979300	3.850900	-11.472000	21.954824	0.000916	20.801789
155.041631	-3.008400	3.849300	-11.578000	21.987908	0.000919	20.810250
156.042381	-2.991500	3.850900	-11.519000	21.975292	0.000920	20.799518
157.042371	-3.001300	3.849100	-11.552000	21.996258	0.000921	20.797746
158.040020	-2.981200	3.849000	-11.473000	21.990948	0.000920	20.829414
159.042356	-3.016400	3.847900	-11.607000	21.994588	0.000922	20.808876
160.042957	-3.009700	3.848300	-11.581000	21.999799	0.000921	20.824050
161.042918	-3.006100	3.847300	-11.564000	21.986162	0.000921	20.805184
162.041806	-2.986500	3.848900	-11.494000	21.975294	0.000919	20.789562
163.043866	-3.006200	3.847000	-11.562000	21.993068	0.000921	20.818260
164.046150	-3.009200	3.848600	-11.580000	21.980155	0.000922	20.824774
165.041122	-3.016900	3.847700	-11.607000	21.987609	0.000921	20.838400
166.045216	-3.024500	3.846000	-11.630000	22.017774	0.000919	20.822603
167.043019	-3.008600	3.847000	-11.574000	22.018945	0.000923	20.833733
168.041255	-3.017000	3.846200	-11.603000	22.020141	0.000924	20.825447
169.042972	-3.002700	3.847200	-11.551000	22.014184	0.000922	20.822329
170.043474	-3.007000	3.847400	-11.568000	22.004213	0.000924	20.819934
171.044686	-2.997100	3.848000	-11.532000	22.010993	0.000923	20.824824
172.046688	-3.023200	3.843800	-11.619000	22.020068	0.000923	20.823951
173.045372	-3.003300	3.845300	-11.548000	22.023060	0.000923	20.830740
174.045166	-2.985900	3.847000	-11.486000	22.028967	0.000922	20.828593
175.046363	-2.991900	3.845900	-11.505000	22.034328	0.000925	20.828744
176.045365	-2.976700	3.846000	-11.447000	22.058608	0.000924	20.830290
177.051678	-3.010900	3.844700	-11.575000	22.072194	0.000926	20.840572
178.048730	-3.004800	3.843200	-11.547000	22.082440	0.000927	20.845139
179.049281	-2.992500	3.843800	-11.502000	22.076706	0.000925	20.834658
180.047286	-3.014200	3.843300	-11.583000	22.120653	0.000926	20.841671
181.047311	-3.011600	3.844900	-11.578000	22.125290	0.000925	20.825925
182.049824	-2.999800	3.843700	-11.529000	22.130376	0.000926	20.821060
183.046978	-2.980500	3.843800	-11.455000	22.126985	0.000928	20.846113
184.048129	-2.992800	3.844000	-11.503000	22.148647	0.000928	20.831291
185.048755	-3.023000	3.842900	-11.616000	22.129877	0.000927	20.834784
186.049880	-2.997400	3.843500	-11.519000	22.145657	0.000929	20.831616
187.050663	-2.997900	3.841900	-11.516000	22.155402	0.000928	20.840899
188.051491	-2.982900	3.844700	-11.467000	22.166146	0.000930	20.844069
189.063302	-2.990900	3.843100	-11.493000	22.187682	0.000928	20.848087
190.049425	-3.005300	3.842400	-11.546000	22.196355	0.000931	20.833064
191.047968	-3.021800	3.842100	-11.608000	22.183296	0.000928	20.843696
192.050890	-3.006100	3.841500	-11.546000	22.191696	0.000929	20.858270
193.054765	-3.020700	3.840100	-11.598000	22.186836	0.000930	20.862887
194.049068	-2.998400	3.841600	-11.518000	22.185192	0.000931	20.827102
195.049288	-2.998400	3.841100	-11.516000	22.205206	0.000931	20.851882
196.051738	-3.007600	3.841900	-11.553000	22.182823	0.000930	20.851282
197.047950	-2.967400	3.841300	-11.398000	22.188780	0.000932	20.831644
198.054346	-3.009900	3.840400	-11.559000	22.207450	0.000934	20.860292
199.049215	-2.993700	3.840900	-11.497000	22.208721	0.000934	20.851608
200.050586	-3.001300	3.841300	-11.528000	22.232075	0.000933	20.857447
201.050399	-3.008300	3.839000	-11.548000	22.239056	0.000934	20.867280
202.051612	-2.997300	3.840200	-11.510000	22.230431	0.000934	20.851059
203.053523	-3.010200	3.838400	-11.553000	22.257749	0.000932	20.844273
204.055281	-3.010100	3.839200	-11.555000	22.278385	0.000936	20.856874
205.051602	-3.024800	3.837600	-11.607000	22.276789	0.000935	20.860492
206.052524	-2.986200	3.839000	-11.462000	22.300342	0.000935	20.842825
207.052002	-2.985300	3.838100	-11.457000	22.305875	0.000938	20.847417
208.052104	-2.992600	3.838700	-11.487000	22.313775	0.000935	20.881877
209.056653	-3.004400	3.839900	-11.536000	22.325937	0.000936	20.852332
210.053765	-2.987100	3.838900	-11.466000	22.308393	0.000938	20.856102
211.060571	-2.995400	3.838700	-11.497000	22.315245	0.000938	20.874341
212.053777	-2.995400	3.837600	-11.494000	22.329601	0.000937	20.875914
213.053936	-2.995500	3.837300	-11.493000	22.347470	0.000939	20.866781
214.058607	-2.997100	3.837700	-11.501000	22.333364	0.000938	20.869251
215.055281	-2.989800	3.837500	-11.471000	22.360031	0.000941	20.874143
216.056450	-3.010100	3.836300	-11.546000	22.342437	0.000939	20.871698
217.054998	-3.003400	3.836200	-11.521000	22.337927	0.000940	20.870501
218.055958	-2.984000	3.838000	-11.451000	22.344580	0.000940	20.852508
219.055572	-2.985300	3.836500	-11.452000	22.364443	0.000940	20.872397
220.058320	-2.986300	3.837300	-11.458000	22.359808	0.000943	20.875816
221.055621	-3.001800	3.835800	-11.514000	22.355945	0.000941	20.859621
222.057127	-2.996900	3.834200	-11.490000	22.380542	0.000942	20.861492
223.060390	-2.982300	3.837200	-11.441000	22.377079	0.000944	20.842378
224.058390	-3.004900	3.835400	-11.524000	22.359484	0.000939	20.859846
225.058618	-2.987300	3.835700	-11.457000	22.370101	0.000944	20.866210
226.059901	-3.007200	3.834800	-11.529000	22.377828	0.000945	20.862093
227.057958	-2.972600	3.835100	-11.400000	22.379000	0.000946	20.861370
228.058178	-2.984700	3.834300	-11.444000	22.394675	0.000945	20.853834
229.061356	-3.002500	3.835300	-11.515000	22.386975	0.000945	20.852761
230.061112	-2.992300	3.833900	-11.471000	22.392857	0.000948	20.831625
231.064183	-2.999000	3.835100	-11.501000	22.392807	0.000947	20.853386
232.060614	-2.992600	3.833800	-11.471000	22.387822	0.000946	20.846972
233.062870	-2.995700	3.832800	-11.481000	22.384709	0.000951	20.859501
234.062409	-3.011600	3.832500	-11.541000	22.392110	0.000947	20.837041
235.063220	-3.001900	3.834200	-11.509000	22.431533	0.000950	20.829579
236.064858	-3.000800	3.833000	-11.500000	22.402951	0.000948	20.820872
237.064582	-3.018100	3.831500	-11.563000	22.426674	0.000949	20.815705
238.065248	-2.996900	3.832000	-11.483000	22.446114	0.000951	20.819051
239.064079	-3.024800	3.832500	-11.592000	22.455483	0.000951	20.835071
240.063350	-3.002800	3.833100	-11.509000	22.472852	0.000954	20.857206
241.065928	-3.001600	3.831600	-11.500000	22.481224	0.000952	20.835719
242.064764	-3.012700	3.831400	-11.542000	22.517031	0.000954	20.845975
243.067123	-2.995500	3.832300	-11.478000	22.498095	0.000954	20.827486
244.068720	-2.999500	3.830300	-11.488000	22.521591	0.000954	20.857654
245.066362	-2.989900	3.831200	-11.454000	22.512521	0.000955	20.829605
246.066918	-3.003500	3.830700	-11.505000	22.510852	0.000954	20.825563
247.069315	-3.011300	3.831300	-11.536000	22.528941	0.000957	20.832774
248.067847	-2.991400	3.829700	-11.455000	22.536217	0.000959	20.821095
249.066159	-2.998200	3.831500	-11.487000	22.582638	0.000955	20.833448
250.069583	-2.997300	3.830400	-11.479000	22.582387	0.000959	20.836042
251.068280	-2.983500	3.829600	-11.425000	22.560685	0.000959	20.826160
252.070899	-3.004900	3.827600	-11.499000	22.558119	0.000957	20.826909
253.069315	-2.997800	3.829300	-11.478000	22.555626	0.000959	20.804498
254.072299	-2.997500	3.829000	-11.477000	22.563549	0.000956	20.827132
255.069028	-2.983700	3.828400	-11.422000	22.549920	0.000959	20.830077
256.069306	-2.993000	3.827700	-11.455000	22.554728	0.000959	20.812133
257.071747	-3.020100	3.826900	-11.556000	22.548299	0.000959	20.807117
258.071352	-3.007900	3.828200	-11.514000	22.586596	0.000961	20.839309
259.072062	-3.000200	3.828300	-11.485000	22.583383	0.000961	20.804797
260.070974	-2.997800	3.826600	-11.470000	22.583457	0.000961	20.816725
261.071209	-3.002100	3.826700	-11.487000	22.617294	0.000959	20.821692
262.071583	-3.016500	3.827000	-11.543000	22.634984	0.000962	20.833246
263.073743	-2.991200	3.826900	-11.446000	22.621804	0.000961	20.806295
264.073194	-2.993900	3.826800	-11.456000	22.625964	0.000964	20.820893
265.070412	-3.003400	3.826500	-11.492000	22.646396	0.000964	20.839460
266.070857	-2.996300	3.826800	-11.465000	22.649061	0.000964	20.816052
267.072518	-2.992100	3.826200	-11.448000	22.651952	0.000963	20.811362
268.073121	-3.012400	3.825800	-11.524000	22.672806	0.000965	20.806645
269.071913	-3.007100	3.825600	-11.502000	22.684316	0.000967	20.829553
270.074333	-2.996000	3.826500	-11.463000	22.681351	0.000966	20.821368
271.072622	-3.007800	3.824500	-11.502000	22.693012	0.000968	20.819298
272.073515	-3.004500	3.824800	-11.489000	22.675970	0.000968	20.796538
273.074988	-2.992700	3.826100	-11.450000	22.689824	0.000967	20.830328
274.078345	-3.017600	3.824300	-11.539000	22.674650	0.000968	20.792845
275.073212	-3.003700	3.823200	-11.483000	22.665831	0.000970	20.825736
276.073676	-3.010400	3.824400	-11.513000	22.658606	0.000968	20.822767
277.074383	-2.996600	3.824000	-11.458000	22.669766	0.000971	20.802177
278.074230	-3.012000	3.823400	-11.514000	22.670190	0.000971	20.804499
279.077748	-2.979600	3.824600	-11.395000	22.679458	0.000970	20.794342
280.075569	-2.992600	3.823700	-11.441000	22.704272	0.000973	20.821568
281.075563	-3.003600	3.824000	-11.484000	22.711796	0.000974	20.807293
282.076279	-3.009600	3.822500	-11.503000	22.688450	0.000973	20.804771
283.075600	-3.012500	3.822400	-11.514000	22.700508	0.000976	20.820168
284.081288	-2.996600	3.822900	-11.455000	22.687253	0.000972	20.823013
285.078113	-3.012400	3.820000	-11.505000	22.689943	0.000972	20.798207
286.076829	-2.999200	3.820500	-11.457000	22.699908	0.000971	20.779738
287.076550	-3.013500	3.821100	-11.514000	22.692061	0.000973	20.827828
288.075753	-3.006700	3.820900	-11.487000	22.697416	0.000975	20.809484
289.080673	-3.002200	3.820100	-11.468000	22.688795	0.000976	20.789469
290.078416	-2.992800	3.819900	-11.430000	22.670533	0.000976	20.798204
291.078334	-2.999600	3.820800	-11.460000	22.698512	0.000977	20.821962
292.077567	-3.013100	3.820300	-11.510000	22.703393	0.000979	20.812153
293.076551	-3.011600	3.819000	-11.500000	22.712836	0.000976	20.804067
294.079163	-2.989300	3.820200	-11.419000	22.742358	0.000974	20.799974
295.083158	-2.998100	3.820800	-11.455000	22.718291	0.000978	20.809532
296.077280	-2.998500	3.820200	-11.454000	22.722525	0.000978	20.805239
297.079916	-2.998400	3.818900	-11.450000	22.731121	0.000977	20.801521
298.077134	-2.994800	3.819000	-11.436000	22.732142	0.000980	20.795905
299.077062	-2.999000	3.817600	-11.448000	22.756881	0.000982	20.805039
300.081543	-2.986200	3.816600	-11.396000	22.759970	0.000981	20.798176
301.078466	-2.993300	3.817800	-11.427000	22.798484	0.000982	20.788868
302.082377	-2.980300	3.817600	-11.376000	22.779027	0.000981	20.794982
303.080245	-3.002500	3.816600	-11.459000	22.769213	0.000982	20.807909
304.080705	-2.989200	3.818200	-11.412000	22.766048	0.000985	20.795257
305.080690	-2.983600	3.817100	-11.388000	22.792456	0.000981	20.791838
306.079427	-3.000600	3.817000	-11.451000	22.791858	0.000983	20.786498
307.079912	-3.014600	3.817100	-11.505000	22.802071	0.000985	20.813324
308.080779	-3.011600	3.816800	-11.493000	22.815524	0.000985	20.807360
309.081127	-2.982800	3.817400	-11.385000	22.825911	0.000985	20.807809
310.080107	-3.010100	3.815500	-11.483000	22.832861	0.000983	20.811927
311.082932	-2.994200	3.816000	-11.425000	22.855630	0.000984	20.791588
312.082556	-3.014200	3.815900	-11.500000	22.855903	0.000983	20.828371
313.083870	-2.991300	3.814700	-11.410000	22.835901	0.000987	20.799799
314.082010	-3.016400	3.814900	-11.506000	22.839488	0.000987	20.786796
315.080961	-3.023200	3.814900	-11.532000	22.851544	0.000986	20.802668
316.085037	-2.983800	3.814400	-11.379000	22.854956	0.000987	20.813197
317.080750	-2.990800	3.815600	-11.410000	22.872641	0.000988	20.795354
318.082967	-2.993800	3.815000	-11.419000	22.870250	0.000988	20.804812
319.083656	-3.001000	3.813400	-11.441000	22.870250	0.000989	20.808131
320.086372	-2.994700	3.811900	-11.414000	22.894936	0.000992	20.788766
321.081751	-2.997700	3.813800	-11.432000	22.894984	0.000990	20.792133
322.083209	-3.012400	3.811700	-11.481000	22.892169	0.000989	20.798797
323.081709	-3.010800	3.812300	-11.478000	22.899516	0.000991	20.801889
324.080541	-2.993800	3.812000	-11.411000	22.894859	0.000992	20.790585
325.080607	-3.001900	3.813000	-11.446000	22.893663	0.000991	20.796499
326.083360	-2.984500	3.813200	-11.379000	22.897699	0.000992	20.794379
327.086937	-2.998300	3.812400	-11.428000	22.904722	0.000992	20.786242
328.081999	-3.009400	3.811800	-11.471000	22.900090	0.000992	20.798671
329.082940	-3.007000	3.810800	-11.458000	22.917699	0.000993	20.784545
330.082549	-2.997400	3.811700	-11.423000	22.939070	0.000993	20.802162
331.081933	-2.984900	3.811800	-11.378000	22.949233	0.000993	20.780102
332.082553	-3.008000	3.810300	-11.461000	22.929381	0.000996	20.783446
333.084684	-3.001700	3.811700	-11.440000	22.941213	0.000994	20.804309
334.084397	-3.013300	3.810600	-11.481000	22.939818	0.000993	20.780626
335.084902	-3.016000	3.810000	-11.490000	22.962134	0.000996	20.802511
336.084728	-3.010100	3.809900	-11.466000	22.968313	0.000996	20.800166
337.093554	-2.993000	3.809600	-11.402000	22.978426	0.000994	20.804135
338.091322	-2.997500	3.809700	-11.419000	22.980120	0.000998	20.793978
339.086577	-3.002300	3.809400	-11.436000	22.991103	0.001002	20.783645
340.088954	-2.992000	3.809500	-11.397000	22.978102	0.000996	20.794801
341.089758	-2.985500	3.810200	-11.374000	22.984055	0.001000	20.776584
342.089333	-3.022500	3.807900	-11.509000	22.994069	0.001000	20.785669
343.090240	-3.002000	3.808900	-11.434000	22.992649	0.000999	20.794203
344.089150	-3.008200	3.808900	-11.457000	22.987369	0.001002	20.801241
345.089366	-3.007100	3.808000	-11.450000	22.961913	0.001002	20.784271
346.090617	-3.002900	3.807800	-11.434000	22.955338	0.001001	20.786218
347.092486	-3.006300	3.807000	-11.444000	22.944004	0.001001	20.784346
348.093502	-2.984700	3.808400	-11.366000	22.927167	0.001001	20.787392
349.092487	-2.995400	3.805700	-11.399000	22.928487	0.001000	20.797250
350.096727	-3.006000	3.806300	-11.441000	22.953047	0.001003	20.792932
351.093593	-2.996900	3.805400	-11.403000	22.953396	0.001001	20.785696
352.094921	-2.991300	3.806600	-11.386000	22.976361	0.001003	20.785945
353.096803	-3.001000	3.806500	-11.422000	23.013897	0.001002	20.784673
354.095849	-3.002100	3.805200	-11.422000	23.022292	0.001007	20.784075
355.095508	-3.015700	3.804600	-11.472000	23.019552	0.001003	20.778485
356.098280	-3.037600	3.804100	-11.554000	23.052305	0.001004	20.780482
357.097466	-3.025900	3.803300	-11.507000	23.053875	0.001004	20.767830
358.103185	-2.997900	3.804300	-11.403000	23.029218	0.001005	20.774418
359.100234	-2.998300	3.805500	-11.409000	23.033177	0.001007	20.788343
360.096230	-2.999200	3.803300	-11.406000	23.060600	0.001005	20.787845
361.097354	-2.980900	3.804400	-11.340000	23.055718	0.001006	20.763039
362.098979	-3.010100	3.803400	-11.447000	23.069044	0.001009	20.782081
363.102316	-3.001800	3.802900	-11.414000	23.033977	0.001007	20.772549
364.102404	-3.006000	3.802200	-11.428000	23.013131	0.001009	20.772999
365.098904	-3.011100	3.802300	-11.448000	23.032907	0.001007	20.762942
366.105809	-3.007400	3.801500	-11.432000	22.988050	0.001009	20.768258
367.098816	-3.009000	3.801300	-11.437000	23.021402	0.001008	20.774174
368.100120	-3.019500	3.802000	-11.479000	23.028302	0.001008	20.744102
369.106313	-2.995300	3.803200	-11.391000	22.997317	0.001008	20.777543
370.098925	-3.004500	3.803000	-11.425000	23.032361	0.001008	20.767610
371.100063	-2.996700	3.801400	-11.391000	23.023047	0.001008	20.759227
372.111259	-3.007200	3.802000	-11.432000	23.014554	0.001008	20.761623
373.104883	-3.013700	3.801400	-11.455000	23.003322	0.001007	20.752265
374.102241	-3.006500	3.799600	-11.422000	23.003596	0.001008	20.771506
375.105375	-3.003400	3.800300	-11.413000	23.036997	0.001010	20.770833
376.105745	-2.990000	3.801900	-11.366000	23.040510	0.001013	20.757758
377.102593	-3.007300	3.798100	-11.421000	23.053885	0.001012	20.760253
378.107106	-3.004300	3.799600	-11.413000	23.075853	0.001012	20.779895
379.106174	-2.999900	3.800000	-11.399000	23.106164	0.001012	20.763326
380.102431	-2.984600	3.799900	-11.341000	23.109577	0.001012	20.746356
381.104686	-2.970100	3.799200	-11.283000	23.133211	0.001011	20.748702
382.104473	-3.005500	3.798800	-11.416000	23.151916	0.001012	20.745634
383.104331	-2.963200	3.800100	-11.259000	23.143897	0.001013	20.748978
384.109903	-3.005100	3.797500	-11.411000	23.150248	0.001014	20.751550
385.104481	-2.993000	3.799100	-11.369000	23.130700	0.001012	20.763256
386.102768	-3.002100	3.797600	-11.399000	23.118721	0.001014	20.747933
387.107874	-2.988200	3.796400	-11.342000	23.095710	0.001015	20.750953
388.105767	-3.008600	3.797000	-11.422000	23.091999	0.001014	20.744389
389.101606	-2.993700	3.797100	-11.365000	23.073795	0.001013	20.756969
390.109328	-3.006600	3.796300	-11.414000	23.109162	0.001015	20.744517
391.108166	-2.974100	3.796800	-11.292000	23.135959	0.001014	20.748611
392.103412	-2.989200	3.795900	-11.345000	23.130082	0.001017	20.738454
393.105476	-2.986100	3.795300	-11.332000	23.144751	0.001016	20.732764
394.104175	-3.013100	3.794300	-11.431000	23.179146	0.001019	20.743523
395.103060	-2.984800	3.795600	-11.327000	23.153966	0.001022	20.742473
396.104388	-3.017500	3.794200	-11.448000	23.151004	0.001019	20.743298
397.104592	-2.998100	3.794100	-11.374000	23.122239	0.001016	20.729172
398.111178	-3.009500	3.794200	-11.417000	23.137432	0.001019	20.741551
399.106732	-2.993200	3.794000	-11.355000	23.143185	0.001020	20.738307
400.105423	-2.987000	3.793400	-11.330000	23.160867	0.001019	20.746069
401.106531	-2.993300	3.792500	-11.351000	23.186194	0.001018	20.743000
402.104987	-2.981800	3.793100	-11.309000	23.208458	0.001019	20.730696
403.110483	-3.012300	3.792100	-11.423000	23.226637	0.001019	20.740854
404.107259	-2.982400	3.794800	-11.317000	23.226413	0.001020	20.739682
405.106404	-2.996600	3.792600	-11.364000	23.247156	0.001020	20.748615
406.107736	-2.984400	3.791800	-11.314000	23.239911	0.001022	20.731397
407.105290	-3.010200	3.790200	-11.408000	23.232341	0.001020	20.734242
408.105913	-2.995800	3.791600	-11.357000	23.242003	0.001020	20.735391
409.110823	-3.016000	3.790700	-11.432000	23.218945	0.001022	20.746422
410.105395	-3.013200	3.789700	-11.417000	23.231620	0.001019	20.725459
411.105150	-3.003800	3.789600	-11.382000	23.217203	0.001021	20.743254
412.107199	-2.996700	3.790500	-11.358000	23.217552	0.001022	20.742655
413.106421	-2.998000	3.790800	-11.364000	23.234934	0.001020	20.715977
414.108670	-2.978500	3.791700	-11.293000	23.230675	0.001024	20.746324
415.108919	-3.010900	3.788300	-11.405000	23.232892	0.001023	20.715353
416.106847	-3.004500	3.790000	-11.386000	23.231623	0.001025	20.729729
417.108282	-3.007700	3.786800	-11.389000	23.222608	0.001023	20.722591
418.107421	-3.008400	3.788700	-11.396000	23.253089	0.001025	20.716627
419.108574	-2.993600	3.788400	-11.340000	23.284515	0.001026	20.727734
420.109286	-3.012400	3.787500	-11.409000	23.288823	0.001027	20.715929
421.109294	-3.025100	3.786800	-11.454000	23.288799	0.001025	20.731554
422.109058	-3.018100	3.786200	-11.426000	23.293854	0.001026	20.735672
423.109974	-3.023900	3.787500	-11.452000	23.311285	0.001028	20.732278
424.112953	-2.997900	3.787100	-11.352000	23.331355	0.001027	20.724417
425.111911	-2.998600	3.788000	-11.357000	23.330832	0.001026	20.712039
426.111058	-3.003600	3.786600	-11.372000	23.353317	0.001028	20.745956
427.112479	-3.013200	3.786100	-11.407000	23.368232	0.001026	20.694045
428.118851	-3.003900	3.786400	-11.373000	23.351326	0.001027	20.725466
429.109860	-3.000400	3.785000	-11.356000	23.377246	0.001027	20.735325
430.114554	-2.983400	3.785500	-11.291000	23.355560	0.001029	20.738246
431.114534	-3.016000	3.785100	-11.415000	23.361136	0.001028	20.721074
432.111732	-2.997300	3.784900	-11.342000	23.351725	0.001027	20.724445
433.115745	-3.016700	3.783100	-11.411000	23.357528	0.001028	20.714612
434.116963	-2.956400	3.786500	-11.194000	23.383473	0.001028	20.725444
435.110720	-2.987000	3.783800	-11.301000	23.359846	0.001030	20.714565
436.112434	-2.994600	3.783200	-11.328000	23.383674	0.001029	20.713791
437.114716	-2.986800	3.784400	-11.301000	23.419030	0.001027	20.725047
438.111332	-3.007900	3.783200	-11.379000	23.436334	0.001029	20.693551
439.114685	-3.007900	3.783300	-11.378000	23.432300	0.001028	20.716537
440.113979	-2.990500	3.782700	-11.311000	23.430136	0.001030	20.710574
441.112198	-3.044900	3.780800	-11.511000	23.414949	0.001031	20.720008
442.114781	-3.030900	3.779900	-11.456000	23.401481	0.001030	20.705559
443.112837	-2.996300	3.781500	-11.330000	23.374864	0.001033	20.725351
444.114475	-3.002200	3.782400	-11.355000	23.341550	0.001034	20.706184
445.113891	-3.007800	3.781000	-11.372000	23.351509	0.001032	20.724702
446.115996	-3.009800	3.780600	-11.378000	23.333459	0.001031	20.727474
447.113884	-3.001000	3.780700	-11.345000	23.330122	0.001033	20.718914
448.117144	-2.986700	3.780700	-11.291000	23.344566	0.001031	20.712527
449.115453	-2.995500	3.778900	-11.318000	23.338614	0.001034	20.715571
450.114547	-3.003800	3.780700	-11.356000	23.362270	0.001034	20.730746
451.120604	-2.999300	3.780200	-11.337000	23.398722	0.001034	20.728400
452.114347	-3.011000	3.779400	-11.379000	23.392150	0.001034	20.725132
453.115286	-3.019000	3.777900	-11.404000	23.411570	0.001033	20.693860
454.116199	-2.986800	3.780400	-11.289000	23.427083	0.001034	20.705617
455.116420	-2.997400	3.778000	-11.323000	23.458354	0.001036	20.727953
456.117593	-2.976200	3.778300	-11.244000	23.453822	0.001032	20.720091
457.118272	-3.000600	3.778500	-11.337000	23.490843	0.001034	20.717845
458.116955	-2.958900	3.778600	-11.178000	23.489601	0.001035	20.701899
459.117563	-2.984600	3.777300	-11.273000	23.521144	0.001039	20.725459
460.118982	-2.975100	3.778900	-11.241000	23.517011	0.001034	20.717523
461.117597	-3.019400	3.775700	-11.399000	23.519750	0.001036	20.700826
462.119983	-2.991400	3.775700	-11.293000	23.503793	0.001037	20.711384
463.119116	-3.013800	3.776600	-11.381000	23.493138	0.001039	20.729629
464.117285	-3.000000	3.775600	-11.326000	23.502724	0.001036	20.721693
465.117961	-2.980300	3.776600	-11.254000	23.501927	0.001035	20.721368
466.118114	-3.005600	3.774300	-11.343000	23.473671	0.001037	20.713433
467.118324	-2.997400	3.775300	-11.315000	23.508253	0.001038	20.734822
468.118290	-3.004900	3.774200	-11.341000	23.530659	0.001036	20.729782
469.120972	-3.003800	3.773600	-11.333000	23.535215	0.001037	20.705423
470.119740	-2.997200	3.773800	-11.308000	23.547140	0.001038	20.703153
471.120253	-2.995800	3.774800	-11.307000	23.552145	0.001038	20.709118
472.119963	-3.007200	3.772400	-11.342000	23.568551	0.001039	20.737894
473.119303	-3.001600	3.773300	-11.325000	23.543333	0.001040	20.722571
474.122783	-3.017300	3.773400	-11.385000	23.529941	0.001038	20.728113
475.122673	-3.009200	3.772500	-11.351000	23.545426	0.001040	20.717557
476.122612	-2.994700	3.772300	-11.295000	23.548613	0.001038	20.728338
477.122506	-2.958700	3.773600	-11.164000	23.555061	0.001038	20.716310
478.122366	-2.998500	3.772400	-11.311000	23.514855	0.001040	20.703032
479.124795	-3.006200	3.770800	-11.333000	23.505942	0.001039	20.713065
480.122964	-3.002400	3.770400	-11.319000	23.516026	0.001039	20.731709
481.124694	-3.000300	3.771800	-11.316000	23.528300	0.001038	20.711768
482.125465	-2.998800	3.771200	-11.308000	23.553394	0.001040	20.718432
483.124448	-2.996000	3.769400	-11.292000	23.516898	0.001040	20.737798
484.126409	-3.002800	3.769500	-11.318000	23.522276	0.001040	20.733706
485.127265	-2.978800	3.770400	-11.231000	23.496161	0.001043	20.725072
486.126143	-2.983800	3.768800	-11.244000	23.469322	0.001041	20.738947
487.127158	-3.003700	3.769600	-11.322000	23.483587	0.001040	20.718158
488.129555	-2.998100	3.769200	-11.299000	23.465189	0.001042	20.717259
489.127620	-3.019200	3.766600	-11.372000	23.457023	0.001039	20.728989
490.127679	-3.001700	3.768200	-11.310000	23.475296	0.001043	20.734504
491.129561	-2.992100	3.767700	-11.273000	23.490408	0.001045	20.715038
492.130011	-2.996300	3.768400	-11.290000	23.491753	0.001044	20.716386
493.128196	-3.001300	3.767800	-11.307000	23.544008	0.001042	20.715661
494.130610	-2.987000	3.765800	-11.247000	23.565244	0.001040	20.730785
495.128974	-3.017900	3.765400	-11.362000	23.575749	0.001042	20.707176
496.132515	-3.000500	3.765900	-11.298000	23.585607	0.001040	20.716585
497.130438	-2.991600	3.765900	-11.265000	23.600518	0.001045	20.735801
498.130622	-2.995200	3.765800	-11.277000	23.629793	0.001043	20.733854
499.130970	-3.007800	3.765000	-11.323000	23.631211	0.001043	20.709195
500.129302	-3.015600	3.764000	-11.350000	23.622947	0.001043	20.706126
501.131563	-2.978400	3.763800	-11.209000	23.677212	0.001041	20.723071
502.131918	-2.992200	3.765200	-11.265000	23.673254	0.001043	20.729061
503.134739	-2.988700	3.763900	-11.248000	23.675619	0.001041	20.721000
504.132311	-2.999600	3.763500	-11.288000	23.673479	0.001044	20.735451
505.130533	-2.993000	3.764200	-11.264000	23.653291	0.001040	20.729436
506.133385	-3.000600	3.763500	-11.292000	23.638380	0.001043	20.717331
507.131965	-3.014200	3.762000	-11.339000	23.613984	0.001044	20.721324
508.133808	-2.995200	3.762300	-11.267000	23.633351	0.001043	20.726041
509.137263	-3.010600	3.762200	-11.326000	23.610051	0.001042	20.738245
510.136062	-3.011100	3.760500	-11.321000	23.586178	0.001045	20.736599
511.134589	-2.975500	3.762400	-11.194000	23.582618	0.001044	20.732555
512.136449	-2.999800	3.761300	-11.282000	23.588517	0.001046	20.739892
513.138680	-2.991000	3.761900	-11.251000	23.607089	0.001045	20.750449
514.136549	-3.018800	3.760800	-11.352000	23.600467	0.001044	20.716308
515.141058	-2.993900	3.761100	-11.260000	23.595787	0.001045	20.738645
516.135244	-3.020000	3.760300	-11.355000	23.582419	0.001046	20.736623
517.143706	-2.987800	3.759900	-11.233000	23.596035	0.001042	20.719926
518.139092	-2.993400	3.761200	-11.258000	23.588816	0.001046	20.729760
519.137785	-3.020200	3.757600	-11.348000	23.581546	0.001046	20.740016
520.139175	-2.998500	3.759400	-11.271000	23.586501	0.001045	20.738345
521.141654	-3.004500	3.758400	-11.290000	23.595164	0.001043	20.733752
522.139071	-3.001000	3.757000	-11.274000	23.633997	0.001046	20.747079
523.139400	-2.999800	3.757600	-11.270000	23.643556	0.001045	20.741488
524.144048	-2.999700	3.757700	-11.271000	23.630736	0.001046	20.742861
525.144022	-2.999700	3.757000	-11.269000	23.636262	0.001046	20.730856
526.140644	-3.012800	3.755000	-11.312000	23.651048	0.001043	20.735722
527.143417	-3.010800	3.755500	-11.306000	23.679101	0.001045	20.737768
528.141277	-3.007800	3.754200	-11.290000	23.683382	0.001044	20.745380
529.139240	-2.991400	3.756000	-11.234000	23.657095	0.001045	20.747476
530.140990	-2.984300	3.756200	-11.208000	23.640542	0.001048	20.738941
531.144238	-3.009100	3.753600	-11.294000	23.647711	0.001045	20.730954
532.141107	-3.000500	3.755400	-11.268000	23.664066	0.001047	20.728858
533.139435	-2.996200	3.754600	-11.249000	23.683779	0.001047	20.746727
534.142255	-3.005900	3.755300	-11.287000	23.683704	0.001046	20.742857
535.141800	-2.994600	3.754200	-11.242000	23.687214	0.001045	20.738790
536.141158	-2.986300	3.753000	-11.207000	23.662894	0.001047	20.738115
537.141839	-3.022800	3.752500	-11.342000	23.667026	0.001044	20.755535
538.142193	-2.994100	3.754100	-11.238000	23.666254	0.001047	20.760451
539.142910	-3.000200	3.753100	-11.258000	23.680542	0.001046	20.744903
540.143149	-2.980200	3.752500	-11.182000	23.651442	0.001045	20.761723
541.143959	-2.991200	3.752200	-11.223000	23.683777	0.001045	20.747672
542.145074	-3.019200	3.752000	-11.327000	23.688979	0.001046	20.752888
543.145969	-3.027700	3.751500	-11.357000	23.715537	0.001046	20.762919
544.146152	-3.009300	3.751400	-11.288000	23.734429	0.001047	20.765265
545.147562	-3.007600	3.750200	-11.278000	23.746252	0.001045	20.742031
546.145023	-2.999400	3.751400	-11.250000	23.765692	0.001046	20.754883
547.145171	-3.019600	3.750100	-11.323000	23.768031	0.001046	20.744426
548.147110	-2.994000	3.751500	-11.231000	23.765915	0.001045	20.756055
549.145627	-2.999400	3.750000	-11.246000	23.768903	0.001047	20.763319
550.148855	-2.979500	3.749600	-11.170000	23.794413	0.001047	20.764715
551.151004	-3.033200	3.748400	-11.368000	23.786100	0.001045	20.764914
552.151695	-2.967800	3.750500	-11.130000	23.798967	0.001045	20.768333
553.150783	-2.968800	3.749500	-11.131000	23.786946	0.001045	20.769082
554.152567	-2.995000	3.749400	-11.228000	23.774649	0.001048	20.758649
555.150224	-2.980100	3.748900	-11.170000	23.769572	0.001046	20.757825
556.149915	-2.983600	3.748500	-11.183000	23.773555	0.001046	20.767035
557.150685	-2.972200	3.749900	-11.145000	23.738533	0.001047	20.753732
558.152184	-3.000300	3.746800	-11.241000	23.710830	0.001046	20.760570
559.150647	-3.003700	3.748400	-11.258000	23.732138	0.001046	20.758226
560.149142	-2.992200	3.746400	-11.209000	23.760936	0.001047	20.770030
561.152996	-3.016400	3.745800	-11.298000	23.766336	0.001045	20.772125
562.150117	-3.027700	3.745300	-11.339000	23.785501	0.001047	20.790867
563.150405	-3.007000	3.746000	-11.262000	23.807005	0.001047	20.785401
564.153738	-3.005700	3.744700	-11.253000	23.825051	0.001047	20.792589
565.151447	-3.000500	3.745600	-11.236000	23.845160	0.001047	20.771975
566.151459	-3.015100	3.744500	-11.289000	23.844538	0.001048	20.759498
567.153993	-2.987500	3.744500	-11.186000	23.844166	0.001049	20.781884
568.152420	-2.992700	3.744200	-11.203000	23.830676	0.001048	20.759823
569.158636	-2.986900	3.743700	-11.181000	23.822935	0.001046	20.762966
570.158681	-2.979000	3.746000	-11.158000	23.812856	0.001046	20.768034
571.159381	-2.990500	3.743300	-11.193000	23.774029	0.001048	20.777942
572.154623	-2.997100	3.743400	-11.219000	23.790954	0.001044	20.766462
573.159769	-3.007400	3.741900	-11.251000	23.813529	0.001046	20.776769
574.154809	-2.992600	3.741600	-11.197000	23.842127	0.001047	20.781736
575.155252	-2.971300	3.743800	-11.122000	23.835108	0.001047	20.787975
576.157505	-2.986500	3.742500	-11.176000	23.825799	0.001047	20.768684
577.156216	-2.980400	3.742800	-11.154000	23.822466	0.001049	20.775773
578.156251	-2.999700	3.740600	-11.219000	23.798598	0.001047	20.770807
579.157835	-2.983600	3.741000	-11.161000	23.807359	0.001048	20.790498
580.154316	-2.996700	3.740000	-11.207000	23.808206	0.001048	20.770009
581.155922	-3.011100	3.739800	-11.260000	23.813581	0.001046	20.764493
582.159111	-3.005900	3.741100	-11.245000	23.843598	0.001044	20.778944
583.160749	-3.000800	3.739900	-11.220000	23.847903	0.001047	20.779942
584.159316	-3.004700	3.740600	-11.238000	23.842702	0.001046	20.795589
585.161716	-3.002600	3.738900	-11.226000	23.863359	0.001048	20.780741
586.160636	-3.005300	3.738600	-11.234000	23.881429	0.001049	20.775152
587.161009	-2.988800	3.738100	-11.172000	23.877520	0.001046	20.779768
588.159812	-2.987400	3.738300	-11.167000	23.872321	0.001045	20.783563
589.161024	-3.011000	3.738600	-11.255000	23.914728	0.001047	20.790051
590.160221	-2.999800	3.738700	-11.213000	23.923241	0.001047	20.798113
591.160743	-3.002300	3.736900	-11.219000	23.952158	0.001047	20.783015
592.160615	-2.982300	3.738000	-11.146000	23.994263	0.001048	20.782090
593.158786	-2.993900	3.737200	-11.188000	23.988814	0.001046	20.795117
594.162657	-3.004500	3.736200	-11.225000	24.010340	0.001045	20.783514
595.161822	-2.995200	3.737100	-11.191000	24.005537	0.001047	20.795293
596.161628	-3.005300	3.734400	-11.222000	23.984087	0.001046	20.793696
597.163405	-3.003600	3.735700	-11.219000	24.015020	0.001048	20.787259
598.160758	-2.991200	3.735200	-11.170000	23.994590	0.001047	20.810392
599.162714	-3.004200	3.735000	-11.220000	23.992325	0.001048	20.801483
600.165391	-2.981700	3.735700	-11.137000	24.039159	0.001045	20.775905
601.163817	-3.000600	3.734400	-11.204000	24.049858	0.001046	20.781419
602.160686	-2.984300	3.735800	-11.148000	23.995313	0.001047	20.809696
603.164794	-2.999400	3.734100	-11.198000	23.971646	0.001048	20.786436
604.161859	-3.008400	3.732800	-11.228000	23.963261	0.001046	20.784191
605.161526	-2.993700	3.734500	-11.178000	23.961942	0.001047	20.801834
606.162309	-2.995200	3.732800	-11.179000	23.976674	0.001045	20.799064
607.161414	-2.987700	3.732600	-11.150000	23.991904	0.001045	20.783992
608.163013	-2.986100	3.732400	-11.144000	23.995910	0.001047	20.796544
609.164190	-3.019600	3.731800	-11.268000	24.018905	0.001045	20.782620
610.164884	-3.012700	3.732600	-11.245000	23.998674	0.001046	20.814962
611.162332	-3.027200	3.730700	-11.292000	24.004472	0.001045	20.821725
612.164898	-2.996100	3.732200	-11.182000	24.020174	0.001046	20.797643
613.164538	-3.000100	3.731300	-11.193000	23.990041	0.001046	20.815313
614.164155	-2.999700	3.730900	-11.191000	23.982873	0.001048	20.788685
615.166704	-2.981300	3.730900	-11.121000	23.971351	0.001044	20.818382
616.165692	-2.999600	3.730400	-11.189000	23.982873	0.001047	20.808599
617.166122	-2.993700	3.731200	-11.169000	24.010221	0.001046	20.800464
618.166940	-2.990000	3.730500	-11.153000	23.993674	0.001045	20.787663
619.170206	-2.995900	3.727900	-11.167000	23.979490	0.001048	20.825595
620.169977	-2.997000	3.728100	-11.173000	23.955227	0.001047	20.806954
621.169227	-3.013600	3.727500	-11.232000	23.972845	0.001045	20.794277
622.170146	-3.003500	3.727600	-11.195000	23.989096	0.001043	20.804409
623.170890	-2.980200	3.728000	-11.110000	24.016146	0.001045	20.796923
624.170231	-2.990800	3.727800	-11.148000	24.014354	0.001045	20.813617
625.170412	-3.012100	3.725700	-11.221000	24.029434	0.001042	20.809300
626.172698	-3.015100	3.725000	-11.230000	24.032619	0.001042	20.808702
627.173951	-3.011200	3.724900	-11.214000	24.034461	0.001043	20.806281
628.172279	-3.009400	3.727600	-11.216000	24.043644	0.001044	20.811223
629.171852	-3.023600	3.724900	-11.261000	24.031749	0.001045	20.832959
630.174552	-2.997500	3.727100	-11.171000	24.042824	0.001042	20.817987
631.175449	-2.991400	3.726800	-11.147000	24.033916	0.001043	20.810477
632.173960	-3.010000	3.724200	-11.208000	24.047204	0.001046	20.817639
633.172889	-3.005400	3.724900	-11.194000	24.059821	0.001043	20.826972
634.176559	-2.999200	3.724900	-11.170000	24.088412	0.001043	20.797800
635.173932	-3.005700	3.723500	-11.191000	24.090428	0.001042	20.823530
636.176066	-3.003300	3.725100	-11.187000	24.085901	0.001042	20.820411
637.179357	-3.005100	3.723800	-11.188000	24.135442	0.001043	20.818889
638.173896	-3.017900	3.723900	-11.238000	24.131413	0.001043	20.816271
639.174984	-3.010800	3.723500	-11.209000	24.115339	0.001042	20.801099
640.179670	-2.996600	3.723500	-11.156000	24.149602	0.001041	20.808436
641.176473	-3.001100	3.722900	-11.172000	24.142512	0.001043	20.807489
642.183748	-2.996900	3.722800	-11.156000	24.112705	0.001042	20.837337
643.178561	-3.002900	3.721500	-11.174000	24.109421	0.001040	20.807016
644.176870	-2.992300	3.721600	-11.136000	24.096508	0.001042	20.845748
645.177112	-2.984500	3.723300	-11.112000	24.091979	0.001041	20.804697
646.178946	-3.006400	3.720800	-11.185000	24.076083	0.001043	20.831427
647.177333	-2.995100	3.720600	-11.142000	24.073172	0.001042	20.801482
648.177313	-3.001500	3.720500	-11.166000	24.064265	0.001045	20.857032
649.182342	-2.984200	3.720200	-11.100000	24.075588	0.001042	20.828560
650.178052	-3.008300	3.718600	-11.185000	24.100694	0.001041	20.830981
651.182588	-2.995800	3.719400	-11.140000	24.090269	0.001042	20.802982
652.185346	-2.980900	3.720700	-11.090000	24.078077	0.001044	20.822048
653.182395	-3.005300	3.719500	-11.177000	24.065114	0.001042	20.829436
654.179045	-3.011100	3.719100	-11.196000	24.048368	0.001044	20.821650
655.180135	-3.013400	3.717800	-11.202000	24.057650	0.001044	20.838545
656.179195	-3.002900	3.717700	-11.163000	24.042795	0.001041	20.840243
657.180837	-3.014900	3.717200	-11.206000	24.019280	0.001039	20.828041
658.187511	-3.024900	3.716600	-11.242000	24.086021	0.001042	20.831912
659.183313	-2.999900	3.716800	-11.149000	24.085548	0.001040	20.832860
660.181352	-2.970700	3.718100	-11.044000	24.116428	0.001039	20.838226
661.186484	-2.994300	3.718000	-11.132000	24.127947	0.001040	20.859261
662.182759	-2.994500	3.715900	-11.127000	24.122921	0.001040	20.836678
663.181875	-3.004400	3.715900	-11.163000	24.146511	0.001039	20.844216
664.185122	-3.004500	3.715900	-11.163000	24.176817	0.001040	20.829569
665.183462	-3.008700	3.716700	-11.182000	24.195304	0.001040	20.847636
666.183799	-3.006100	3.715200	-11.168000	24.211127	0.001041	20.846911
667.193064	-3.007000	3.716000	-11.172000	24.213913	0.001039	20.835482
668.186556	-3.006900	3.713800	-11.166000	24.217074	0.001040	20.840074
669.189464	-3.003700	3.713800	-11.152000	24.196399	0.001039	20.851105
670.189404	-2.992400	3.714500	-11.113000	24.185799	0.001041	20.839051
671.186859	-3.000200	3.714700	-11.143000	24.183388	0.001039	20.854175
672.184901	-2.997500	3.714000	-11.132000	24.164303	0.001040	20.850681
673.187560	-3.015300	3.713500	-11.196000	24.194857	0.001037	20.833438
674.185422	-3.007100	3.712100	-11.161000	24.177343	0.001037	20.854750
675.186590	-2.992400	3.713300	-11.111000	24.223892	0.001040	20.817042
676.188701	-2.995500	3.712100	-11.118000	24.224564	0.001036	20.835734
677.187711	-2.990300	3.713100	-11.101000	24.221528	0.001039	20.829370
678.187595	-3.022700	3.710000	-11.212000	24.251285	0.001037	20.834088
679.187495	-2.987600	3.711900	-11.089000	24.268724	0.001036	20.838304
680.187467	-3.035200	3.709300	-11.257000	24.284149	0.001037	20.843819
681.188694	-3.008400	3.709500	-11.159000	24.303156	0.001034	20.852453
682.189854	-3.010900	3.709700	-11.169000	24.296514	0.001034	20.856221
683.190259	-2.992500	3.710800	-11.104000	24.295793	0.001037	20.843645
684.190097	-2.968500	3.711600	-11.017000	24.281389	0.001036	20.854800
685.190879	-2.977000	3.710900	-11.046000	24.271314	0.001034	20.830944
686.192030	-2.996600	3.710300	-11.117000	24.266337	0.001036	20.834487
687.191559	-3.005500	3.709100	-11.146000	24.249371	0.001035	20.837857
688.191794	-3.013100	3.708800	-11.174000	24.223099	0.001034	20.823834
689.194991	-3.002500	3.709200	-11.135000	24.230861	0.001032	20.848214
690.192301	-2.999300	3.708800	-11.124000	24.243028	0.001035	20.838132
691.195184	-3.005200	3.708700	-11.142000	24.255941	0.001033	20.826430
692.194220	-3.008700	3.708200	-11.156000	24.246536	0.001034	20.814626
693.193635	-3.002500	3.708300	-11.133000	24.239596	0.001032	20.828527
694.196123	-3.010900	3.707600	-11.163000	24.263729	0.001034	20.854155
695.199059	-2.966900	3.707700	-10.999000	24.259699	0.001031	20.824035
696.194429	-2.999300	3.707100	-11.117000	24.241067	0.001036	20.795863
697.199782	-3.003600	3.705400	-11.129000	24.233875	0.001035	20.819944
698.198349	-3.005500	3.705700	-11.136000	24.226014	0.001034	20.822016
699.194078	-2.996000	3.707000	-11.105000	24.242336	0.001032	20.812783
700.198054	-3.022400	3.703900	-11.194000	24.260747	0.001035	20.803750
701.196710	-2.988300	3.704100	-11.067000	24.251344	0.001031	20.811387
702.194376	-2.969400	3.704900	-11.000000	24.280178	0.001033	20.818025
703.195332	-2.999700	3.704100	-11.109000	24.318093	0.001030	20.810540
704.197284	-2.996800	3.704500	-11.100000	24.329462	0.001033	20.833798
705.196325	-3.015600	3.704300	-11.170000	24.311800	0.001033	20.802330
706.198427	-3.003100	3.702700	-11.118000	24.311378	0.001030	20.793373
707.199181	-3.009400	3.703300	-11.143000	24.324388	0.001033	20.795518
708.195948	-3.018000	3.703500	-11.175000	24.323767	0.001032	20.807222
709.198800	-3.023800	3.701700	-11.191000	24.327847	0.001031	20.811316
710.198939	-3.019100	3.702400	-11.177000	24.336332	0.001030	20.790430
711.197184	-2.999400	3.702800	-11.104000	24.321604	0.001030	20.800785
712.199466	-2.983200	3.701900	-11.042000	24.263812	0.001031	20.797816
713.203980	-3.019700	3.702000	-11.178000	24.252841	0.001031	20.792026
714.198060	-2.993200	3.702900	-11.082000	24.268142	0.001032	20.801685
715.201169	-2.974500	3.702600	-11.013000	24.283020	0.001031	20.800488
716.200842	-3.017500	3.700200	-11.163000	24.261028	0.001030	20.817783
717.199890	-3.016200	3.700100	-11.159000	24.298371	0.001029	20.794075
718.201255	-2.983700	3.701800	-11.044000	24.339270	0.001027	20.778204
719.200907	-3.014500	3.700000	-11.153000	24.372829	0.001027	20.792903
720.199969	-2.970000	3.701500	-10.992000	24.355192	0.001027	20.802237
721.200398	-2.994400	3.699000	-11.075000	24.368825	0.001027	20.795050
722.201417	-2.988100	3.698400	-11.050000	24.345813	0.001027	20.791880
723.200068	-3.004400	3.699700	-11.115000	24.351186	0.001028	20.810546
724.204479	-2.988000	3.699200	-11.053000	24.369372	0.001027	20.769520
725.200889	-2.996000	3.697800	-11.078000	24.392655	0.001025	20.805680
726.200414	-2.997300	3.697900	-11.083000	24.379372	0.001027	20.790932
727.201489	-3.005500	3.697800	-11.113000	24.326510	0.001028	20.762558
728.202943	-3.001000	3.697000	-11.094000	24.305415	0.001026	20.779329
729.204093	-2.983500	3.697800	-11.030000	24.282377	0.001027	20.765703
730.202561	-3.005500	3.698300	-11.114000	24.279493	0.001028	20.779880
731.201759	-3.011900	3.696100	-11.132000	24.303301	0.001025	20.789537
732.203032	-3.008500	3.696400	-11.120000	24.326934	0.001024	20.781476
733.204151	-3.000900	3.696900	-11.092000	24.326339	0.001026	20.799371
734.204843	-2.998300	3.696600	-11.083000	24.364749	0.001027	20.802815
735.203709	-2.969100	3.696600	-10.975000	24.398606	0.001025	20.782726
736.205626	-2.985400	3.695300	-11.031000	24.412413	0.001024	20.764335
737.204228	-3.021300	3.693400	-11.157000	24.403111	0.001027	20.783926
738.205028	-2.981000	3.694900	-11.014000	24.386570	0.001027	20.785825
739.206226	-3.024200	3.693900	-11.170000	24.347662	0.001025	20.782355
740.203680	-3.026600	3.692500	-11.175000	24.386692	0.001026	20.772671
741.200207	-3.006200	3.692700	-11.100000	24.387341	0.001024	20.760046
742.206557	-2.993900	3.693800	-11.058000	24.384879	0.001026	20.768007
743.206109	-3.018400	3.693600	-11.148000	24.402816	0.001025	20.765139
744.210073	-3.011300	3.692800	-11.120000	24.404285	0.001025	20.766138
745.207871	-3.007800	3.693600	-11.109000	24.397445	0.001025	20.771130
746.206020	-2.982500	3.694500	-11.018000	24.401749	0.001024	20.774025
747.205756	-3.005900	3.692300	-11.098000	24.366898	0.001024	20.784582
748.208735	-2.976500	3.694000	-10.994000	24.361501	0.001023	20.779642
749.207163	-3.003300	3.692700	-11.090000	24.353715	0.001021	20.783211
750.204883	-2.990200	3.692800	-11.041000	24.336453	0.001020	20.776800
751.207352	-3.001800	3.691300	-11.080000	24.297371	0.001024	20.772209
752.206958	-3.003200	3.690300	-11.081000	24.316326	0.001022	20.772257
753.206328	-2.993400	3.691300	-11.049000	24.306228	0.001021	20.761179
754.209033	-2.994800	3.692000	-11.056000	24.335661	0.001021	20.754668
755.209499	-3.007700	3.689400	-11.096000	24.361880	0.001021	20.762953
756.210069	-3.010600	3.689100	-11.105000	24.387106	0.001021	20.770715
757.210148	-3.012900	3.688100	-11.110000	24.433575	0.001023	20.758538
758.209732	-3.007000	3.690500	-11.097000	24.434373	0.001021	20.766451
759.208667	-2.978000	3.690400	-10.990000	24.436337	0.001024	20.776483
760.210658	-2.983000	3.688100	-11.001000	24.464172	0.001020	20.781649
761.210114	-3.000500	3.686900	-11.061000	24.466687	0.001019	20.757145
762.208116	-3.015700	3.686900	-11.117000	24.461191	0.001017	20.773916
763.214775	-2.991800	3.687000	-11.030000	24.453257	0.001021	20.769750
764.213279	-3.002500	3.687800	-11.071000	24.439725	0.001020	20.772769
765.209715	-2.993600	3.686400	-11.034000	24.426444	0.001019	20.767031
766.214092	-2.991400	3.686100	-11.025000	24.410027	0.001022	20.753880
767.210865	-2.997800	3.686600	-11.051000	24.418685	0.001020	20.768730
768.210789	-2.993800	3.686000	-11.033000	24.394007	0.001019	20.749663
769.211085	-2.986000	3.686900	-11.008000	24.405924	0.001019	20.750238
770.210034	-2.997900	3.685400	-11.046000	24.409954	0.001018	20.761868
771.211646	-3.025300	3.683200	-11.142000	24.395005	0.001018	20.741655
772.215105	-2.979400	3.686000	-10.981000	24.401448	0.001017	20.752861
773.213177	-2.992300	3.684800	-11.025000	24.412643	0.001017	20.764566
774.216035	-2.997300	3.685400	-11.046000	24.405952	0.001016	20.753585
775.216115	-3.002500	3.684600	-11.061000	24.420603	0.001014	20.752163
776.214116	-3.009700	3.683900	-11.086000	24.420927	0.001018	20.750117
777.214542	-3.006400	3.683400	-11.073000	24.415504	0.001018	20.750365
778.218307	-2.979100	3.684100	-10.974000	24.418166	0.001013	20.759201
779.214863	-3.009600	3.683400	-11.084000	24.445233	0.001014	20.743680
780.218566	-2.995600	3.684100	-11.035000	24.416576	0.001013	20.746225
781.217624	-2.970100	3.683200	-10.938000	24.425954	0.001016	20.734771
782.218823	-2.997400	3.682800	-11.037000	24.441103	0.001015	20.733847
783.222406	-3.018600	3.681000	-11.111000	24.467844	0.001014	20.748822
784.219198	-3.017300	3.681800	-11.107000	24.476375	0.001013	20.749321
785.218986	-3.004600	3.681300	-11.060000	24.465256	0.001014	20.739587
786.221235	-3.008200	3.681300	-11.073000	24.479013	0.001014	20.755286
787.220879	-3.005800	3.680400	-11.061000	24.452623	0.001013	20.743982
788.219011	-3.024500	3.680500	-11.131000	24.410807	0.001013	20.748498
789.219570	-2.980900	3.680600	-10.970000	24.359264	0.001011	20.748948
790.220271	-2.977400	3.680700	-10.958000	24.361007	0.001013	20.733152
791.219532	-2.995100	3.680200	-11.022000	24.325556	0.001011	20.744531
792.219230	-2.987400	3.679600	-10.991000	24.332472	0.001011	20.732028
793.220882	-2.988500	3.680200	-10.998000	24.339663	0.001013	20.726439
794.220150	-3.007100	3.678500	-11.061000	24.323097	0.001012	20.717407
795.225264	-3.010200	3.679200	-11.074000	24.331355	0.001012	20.735175
796.225752	-3.003800	3.678500	-11.048000	24.370536	0.001011	20.724693
797.223164	-2.980800	3.679200	-10.966000	24.396210	0.001009	20.724844
798.224841	-3.009500	3.677000	-11.064000	24.394269	0.001010	20.721001
799.223255	-2.995300	3.678800	-11.018000	24.392255	0.001008	20.737473
800.227692	-3.006600	3.679400	-11.061000	24.406110	0.001007	20.736674
801.226580	-2.996300	3.678600	-11.020000	24.417855	0.001006	20.730912
802.224839	-3.016500	3.676400	-11.089000	24.443924	0.001010	20.738574
803.225093	-2.996800	3.677000	-11.018000	24.451162	0.001008	20.737775
804.225539	-3.017400	3.676400	-11.092000	24.471236	0.001008	20.756019
805.226249	-2.978900	3.676900	-10.952000	24.447308	0.001007	20.725373
806.228399	-3.015600	3.675700	-11.083000	24.450220	0.001007	20.739675
807.229996	-3.001200	3.675200	-11.027000	24.410571	0.001007	20.722656
808.228960	-2.983300	3.677800	-10.970000	24.417088	0.001007	20.703115
809.233626	-2.992100	3.675100	-10.995000	24.430024	0.001006	20.740277
810.231761	-2.983700	3.676400	-10.968000	24.410248	0.001004	20.733713
811.228979	-2.995800	3.675000	-11.008000	24.449377	0.001006	20.717491
812.229440	-3.030100	3.673600	-11.130000	24.484129	0.001006	20.718692
813.230475	-2.999000	3.673900	-11.017000	24.482488	0.001008	20.742651
814.230342	-2.997900	3.674800	-11.014000	24.516465	0.001005	20.734540
815.233386	-2.997400	3.674500	-11.013000	24.538254	0.001004	20.722735
816.231858	-3.007300	3.672300	-11.042000	24.502564	0.001004	20.725808
817.230526	-3.008100	3.672900	-11.047000	24.491471	0.001005	20.729852
818.231570	-3.009100	3.672100	-11.049000	24.505895	0.001001	20.733418
819.231261	-2.997400	3.673100	-11.008000	24.532436	0.001003	20.729226
820.231460	-3.000700	3.673200	-11.021000	24.546638	0.001005	20.710758
821.230779	-2.981700	3.671900	-10.947000	24.588972	0.001005	20.730951
822.232300	-2.992100	3.673000	-10.989000	24.568132	0.001001	20.732800
823.231149	-2.977000	3.672600	-10.931000	24.555273	0.001001	20.731752
824.233338	-2.994200	3.671400	-10.991000	24.543907	0.001002	20.737891
825.232964	-2.995100	3.670400	-10.991000	24.545376	0.001002	20.710914
826.232986	-2.997200	3.670800	-11.001000	24.530129	0.001001	20.727386
827.236715	-2.995100	3.670500	-10.991000	24.523911	0.001000	20.710715
828.235255	-2.993900	3.671200	-10.990000	24.518341	0.001001	20.738319
829.234823	-3.013400	3.669600	-11.056000	24.510433	0.001001	20.697665
830.234190	-3.020000	3.669100	-11.080000	24.500857	0.001001	20.722199
831.236096	-3.004200	3.670200	-11.025000	24.480039	0.000999	20.722175
832.238113	-3.008200	3.670400	-11.041000	24.465189	0.001000	20.712017
833.235769	-3.004600	3.669000	-11.023000	24.459172	0.001000	20.721628
834.236598	-3.003600	3.667700	-11.015000	24.443900	0.001000	20.709625
835.235940	-3.004100	3.668500	-11.020000	24.476883	0.001000	20.717586
836.236495	-3.004500	3.667700	-11.018000	24.495168	0.001000	20.701316
837.237348	-3.007100	3.668100	-11.029000	24.518102	0.000997	20.708680
838.236259	-3.002100	3.667000	-11.008000	24.542427	0.000998	20.692781
839.237301	-3.006500	3.666700	-11.023000	24.547154	0.000998	20.727873
840.242443	-3.000000	3.668700	-11.004000	24.550365	0.001001	20.723981
841.239799	-3.018100	3.665100	-11.061000	24.547728	0.000998	20.705687
842.241118	-2.980000	3.667000	-10.926000	24.558894	0.000997	20.705985
843.244229	-3.000800	3.665700	-10.999000	24.564496	0.000997	20.707339
844.242464	-2.997400	3.666400	-10.989000	24.565216	0.000997	20.704742
845.241238	-3.008500	3.664400	-11.024000	24.565068	0.000998	20.717396
846.245773	-2.982100	3.665200	-10.929000	24.554972	0.000997	20.702050
847.240664	-3.002900	3.664000	-11.001000	24.550469	0.000998	20.703222
848.241555	-3.029000	3.662500	-11.093000	24.583251	0.000995	20.706717
849.242088	-2.998400	3.665000	-10.988000	24.598276	0.000997	20.699981
850.242543	-3.008200	3.664200	-11.021000	24.606311	0.000998	20.699508
851.244748	-3.023800	3.664400	-11.079000	24.648640	0.000995	20.689824
852.244021	-3.014800	3.663200	-11.042000	24.653092	0.000993	20.712312
853.246474	-3.028400	3.662800	-11.090000	24.643417	0.000995	20.700705
854.247859	-3.005000	3.663700	-11.008000	24.640982	0.000994	20.707745
855.245615	-2.982900	3.663000	-10.924000	24.611288	0.000995	20.704503
856.246430	-3.011600	3.661000	-11.024000	24.578632	0.000995	20.678846
857.248309	-3.002700	3.663700	-11.000000	24.591690	0.000993	20.726566
858.245605	-2.987300	3.662500	-10.940000	24.586343	0.000993	20.688955
859.247695	-3.004400	3.662400	-11.003000	24.587115	0.000993	20.676926
860.247641	-3.006000	3.662400	-11.007000	24.548913	0.000992	20.708300
861.243635	-3.016500	3.662000	-11.046000	24.611539	0.000991	20.692426
862.248863	-2.986300	3.661600	-10.934000	24.628899	0.000994	20.711269
863.246727	-2.996600	3.660600	-10.967000	24.582864	0.000991	20.702061
864.245440	-3.004300	3.661300	-10.998000	24.579880	0.000990	20.714714
865.247550	-2.998300	3.661000	-10.976000	24.562422	0.000992	20.700990
866.247614	-3.021700	3.661300	-11.062000	24.561153	0.000989	20.698768
867.245300	-3.006800	3.659600	-11.001000	24.560903	0.000989	20.691879
868.247410	-3.000400	3.658500	-10.976000	24.588935	0.000992	20.677804
869.251186	-2.996200	3.660600	-10.966000	24.586275	0.000989	20.688412
870.244455	-2.994800	3.658500	-10.956000	24.565482	0.000991	20.692206
871.248143	-3.007000	3.658400	-11.000000	24.579958	0.000991	20.707680
872.250223	-2.997700	3.658000	-10.964000	24.586250	0.000989	20.713045
873.249229	-2.986600	3.658800	-10.927000	24.592942	0.000992	20.678505
874.253361	-2.998600	3.658800	-10.969000	24.614854	0.000986	20.689588
875.250655	-2.998800	3.656600	-10.965000	24.617093	0.000988	20.673341
876.246476	-3.009300	3.656900	-11.004000	24.598117	0.000988	20.700770
877.249060	-2.985800	3.658800	-10.923000	24.616199	0.000988	20.707534
878.250474	-3.022100	3.655900	-11.047000	24.626348	0.000986	20.681205
879.245790	-3.008100	3.656600	-10.998000	24.635598	0.000989	20.707559
880.253618	-3.004400	3.656600	-10.985000	24.657013	0.000987	20.695855
881.249015	-3.023300	3.654600	-11.048000	24.649652	0.000985	20.679459
882.248732	-2.998000	3.655200	-10.957000	24.663405	0.000985	20.686622
883.250838	-2.991600	3.655100	-10.933000	24.634482	0.000986	20.682729
884.252251	-3.001800	3.654800	-10.969000	24.617895	0.000988	20.664187
885.248890	-3.007700	3.654300	-10.990000	24.585563	0.000986	20.683905
886.251165	-2.993200	3.654400	-10.937000	24.543505	0.000987	20.693389
887.253187	-3.030300	3.652800	-11.068000	24.558875	0.000985	20.689844
888.249809	-3.026600	3.653500	-11.055000	24.571411	0.000985	20.683930
889.250128	-3.002200	3.653300	-10.967000	24.606110	0.000984	20.685555
890.256333	-2.995900	3.653200	-10.943000	24.639037	0.000983	20.672126
891.251008	-2.983900	3.654800	-10.904000	24.655330	0.000982	20.681838
892.252149	-3.029100	3.651400	-11.060000	24.655503	0.000983	20.678218
893.253178	-3.009600	3.651700	-10.989000	24.680820	0.000982	20.693192
894.250893	-2.975500	3.653400	-10.869000	24.677861	0.000982	20.699706
895.252202	-2.980100	3.653100	-10.885000	24.709147	0.000983	20.688901
896.253508	-3.006900	3.651800	-10.979000	24.721383	0.000980	20.705448
897.255510	-2.998100	3.651200	-10.945000	24.720040	0.000982	20.700781
898.255093	-3.002600	3.651100	-10.962000	24.744339	0.000981	20.698612
899.257797	-3.004300	3.650100	-10.965000	24.741405	0.000980	20.692348
900.256419	-2.995400	3.650900	-10.935000	24.755703	0.000981	20.678721
901.260468	-2.979400	3.651100	-10.877000	24.776593	0.000980	20.679770
902.259115	-2.997000	3.651400	-10.944000	24.749214	0.000978	20.685960
903.253974	-3.005700	3.651100	-10.973000	24.747027	0.000977	20.693723
904.256994	-2.984100	3.651300	-10.895000	24.700101	0.000980	20.708274
905.266686	-2.982000	3.649600	-10.882000	24.731835	0.000980	20.691279
906.255556	-2.979900	3.648200	-10.871000	24.748673	0.000979	20.710549
907.258645	-2.973500	3.649500	-10.850000	24.753422	0.000978	20.694451
908.259145	-2.999200	3.648100	-10.941000	24.760908	0.000977	20.692480
909.255909	-2.999800	3.647500	-10.941000	24.769190	0.000978	20.701740
910.258750	-2.996900	3.648300	-10.933000	24.827253	0.000977	20.705484
911.263937	-3.036000	3.647000	-11.071000	24.831906	0.000975	20.703514
912.257590	-3.005500	3.646500	-10.957000	24.825838	0.000976	20.693631
913.261164	-2.987800	3.647500	-10.897000	24.815196	0.000975	20.694331
914.260115	-3.023300	3.647200	-11.025000	24.778443	0.000976	20.702492
915.257849	-2.997000	3.646000	-10.926000	24.753478	0.000973	20.699249
916.260776	-2.991900	3.647200	-10.911000	24.740871	0.000975	20.694184
917.263762	-3.017400	3.644400	-10.996000	24.698695	0.000974	20.690740
918.258307	-2.978300	3.647000	-10.861000	24.691510	0.000975	20.695384
919.264136	-2.968000	3.647100	-10.824000	24.653310	0.000974	20.692139
920.263849	-2.973700	3.646200	-10.841000	24.685293	0.000975	20.687248
921.256551	-2.989700	3.645900	-10.900000	24.700215	0.000975	20.687998
922.262327	-3.008400	3.645500	-10.966000	24.745998	0.000974	20.699803
923.262853	-3.007900	3.644100	-10.960000	24.731899	0.000974	20.701776
924.259285	-3.017300	3.644000	-10.994000	24.718195	0.000975	20.696084
925.261680	-2.998000	3.643900	-10.923000	24.731177	0.000973	20.698681
926.262172	-3.027600	3.643500	-11.029000	24.709170	0.000972	20.730652
927.258243	-2.987000	3.642700	-10.879000	24.699920	0.000972	20.712360
928.260839	-2.994600	3.643700	-10.910000	24.678906	0.000972	20.687478
929.260555	-3.001400	3.642700	-10.932000	24.664929	0.000971	20.693841
930.259313	-2.989900	3.642300	-10.889000	24.627650	0.000971	20.691996
931.262520	-2.999200	3.642200	-10.923000	24.645060	0.000970	20.715631
932.259429	-2.985500	3.642500	-10.874000	24.686219	0.000971	20.710939
933.260159	-3.024300	3.640200	-11.008000	24.706984	0.000971	20.714708
934.262695	-2.993200	3.642300	-10.901000	24.726780	0.000970	20.688577
935.262478	-2.987900	3.642700	-10.883000	24.719395	0.000969	20.677372
936.263529	-3.001000	3.640800	-10.924000	24.755107	0.000969	20.695667
937.264490	-3.005600	3.641100	-10.942000	24.771020	0.000968	20.695516
938.262508	-3.012400	3.639600	-10.963000	24.772015	0.000967	20.710266
939.261191	-3.004000	3.641100	-10.937000	24.764282	0.000967	20.710092
940.263830	-3.008000	3.639200	-10.946000	24.757917	0.000969	20.706549
941.262378	-2.978700	3.639800	-10.841000	24.721883	0.000967	20.702631
942.263524	-3.010300	3.639000	-10.952000	24.747124	0.000965	20.712788
943.267084	-3.001100	3.638900	-10.919000	24.774602	0.000968	20.708121
944.264335	-2.995800	3.638900	-10.900000	24.789253	0.000966	20.680621
945.263735	-3.014900	3.639000	-10.969000	24.759709	0.000965	20.706926
946.266107	-3.009200	3.638100	-10.947000	24.747450	0.000965	20.705054
947.266599	-2.987900	3.638700	-10.871000	24.783032	0.000964	20.704252
948.265748	-2.999600	3.637500	-10.911000	24.813249	0.000966	20.699015
949.268274	-2.995200	3.637200	-10.893000	24.830082	0.000964	20.719704
950.265634	-2.994100	3.638500	-10.893000	24.823173	0.000964	20.714191
951.266558	-3.013300	3.637800	-10.961000	24.830408	0.000963	20.695847
952.265658	-2.982500	3.637100	-10.846000	24.835256	0.000959	20.710197
953.266603	-3.002500	3.635300	-10.914000	24.862433	0.000963	20.720878
954.271598	-3.026000	3.634200	-10.996000	24.835756	0.000962	20.723501
955.269691	-3.017100	3.635400	-10.967000	24.808429	0.000963	20.715991
956.269287	-3.005500	3.634900	-10.923000	24.813971	0.000962	20.728665
957.271768	-3.018400	3.635400	-10.972000	24.805520	0.000962	20.714968
958.272478	-2.970500	3.635300	-10.798000	24.787441	0.000963	20.705832
959.271993	-3.009700	3.634100	-10.937000	24.771725	0.000961	20.699069
960.271088	-2.992700	3.634600	-10.876000	24.773716	0.000963	20.720983
961.278183	-3.003400	3.635200	-10.917000	24.775581	0.000964	20.725700
962.271899	-3.002500	3.633500	-10.909000	24.785406	0.000962	20.714696
963.270607	-2.972600	3.633200	-10.798000	24.771381	0.000960	20.721010
964.275292	-3.015400	3.633400	-10.955000	24.749201	0.000958	20.714872
965.273427	-2.988400	3.633900	-10.858000	24.749349	0.000958	20.725928
966.273608	-3.000500	3.633200	-10.900000	24.731395	0.000958	20.715021
967.276291	-3.005700	3.630900	-10.912000	24.752135	0.000960	20.726352
968.273921	-3.018600	3.631900	-10.962000	24.767105	0.000958	20.717193
969.273068	-2.997500	3.630800	-10.883000	24.797544	0.000955	20.706962
970.274798	-3.004500	3.630600	-10.908000	24.806370	0.000956	20.721511
971.272753	-2.991800	3.630300	-10.860000	24.855181	0.000959	20.716918
972.275792	-3.007700	3.631300	-10.920000	24.861251	0.000957	20.732968
973.284757	-2.983300	3.630800	-10.831000	24.864756	0.000957	20.732692
974.273439	-3.021300	3.630100	-10.966000	24.888330	0.000957	20.722213
975.274962	-3.007000	3.628500	-10.910000	24.879180	0.000953	20.726780
976.279531	-2.994800	3.631300	-10.874000	24.880499	0.000956	20.734268
977.276173	-3.003500	3.629300	-10.900000	24.905312	0.000955	20.735939
978.274414	-3.006200	3.629300	-10.909000	24.919809	0.000958	20.718245
979.277705	-3.014900	3.628200	-10.938000	24.927767	0.000956	20.725759
980.274915	-3.001600	3.628900	-10.892000	24.934008	0.000954	20.726807
981.275065	-3.002000	3.628000	-10.890000	24.922868	0.000953	20.726532
982.278463	-3.008800	3.628800	-10.918000	24.920704	0.000955	20.715824
983.279252	-3.015400	3.629000	-10.942000	24.883409	0.000953	20.713480
984.279113	-3.017100	3.627400	-10.942000	24.896613	0.000952	20.741906
985.279690	-2.986700	3.626400	-10.830000	24.902655	0.000953	20.717150
986.281719	-2.987500	3.627500	-10.836000	24.899672	0.000950	20.745451
987.278215	-2.978500	3.627100	-10.802000	24.911831	0.000952	20.748646
988.280706	-3.016300	3.625000	-10.933000	24.936347	0.000952	20.729629
989.278291	-2.985500	3.627500	-10.829000	24.980828	0.000950	20.743457
990.283674	-3.019500	3.625100	-10.945000	24.975556	0.000948	20.734845
991.280200	-3.018500	3.625800	-10.944000	24.990377	0.000949	20.735023
992.280621	-3.017200	3.624600	-10.935000	25.061727	0.000949	20.737417
993.282498	-3.011400	3.624700	-10.914000	25.026053	0.000944	20.743333
994.289142	-3.001100	3.625200	-10.877000	25.012404	0.000948	20.744805
995.280058	-2.984700	3.625700	-10.820000	25.010118	0.000947	20.751520
996.279868	-2.999900	3.624100	-10.872000	25.008676	0.000949	20.758134
997.284215	-3.019000	3.623700	-10.939000	25.005394	0.000948	20.742511
998.282335	-2.987200	3.626100	-10.830000	25.040574	0.000945	20.746530
999.283207	-2.999900	3.623400	-10.870000	25.039706	0.000946	20.738071
1000.284015	-3.013200	3.622900	-10.915000	25.047812	0.000946	20.745260
1001.284190	-2.996500	3.623100	-10.855000	25.054376	0.000945	20.741891
1002.280950	-3.012300	3.622200	-10.908000	25.070213	0.000947	20.742142
1003.285535	-3.005300	3.621500	-10.883000	25.076056	0.000946	20.746111
1004.282465	-2.998800	3.621800	-10.861000	25.049681	0.000948	20.742394
1005.283867	-3.013600	3.620800	-10.910000	25.060970	0.000945	20.732389
1006.283741	-3.022800	3.621700	-10.945000	25.042870	0.000943	20.755947
1007.281391	-2.998500	3.620900	-10.856000	25.029299	0.000942	20.747066
1008.282391	-2.997100	3.621900	-10.854000	25.049835	0.000945	20.762939
1009.285035	-3.012100	3.619900	-10.903000	25.061619	0.000941	20.730196
1010.283172	-2.995200	3.620500	-10.843000	25.018463	0.000943	20.741404
1011.281352	-2.993200	3.620200	-10.835000	25.001784	0.000941	20.755482
1012.289788	-2.992500	3.620500	-10.834000	24.958250	0.000942	20.751615
1013.282496	-2.989300	3.620600	-10.822000	24.938908	0.000943	20.733149
1014.283803	-2.989900	3.619100	-10.819000	24.921431	0.000941	20.745005
1015.288642	-3.007400	3.618000	-10.880000	24.945076	0.000940	20.756410
1016.282960	-3.004300	3.618300	-10.870000	24.941299	0.000940	20.761154
1017.285940	-2.989600	3.617400	-10.814000	24.952936	0.000941	20.752445
1018.285745	-3.000600	3.617200	-10.852000	24.997243	0.000940	20.767047
1019.283105	-3.005300	3.618500	-10.873000	24.981308	0.000936	20.742042
1020.285495	-3.007600	3.616000	-10.875000	25.010870	0.000938	20.753697
1021.288068	-3.006100	3.616300	-10.870000	25.049680	0.000937	20.762309
1022.285448	-3.017600	3.616400	-10.911000	25.053535	0.000938	20.750057
1023.287437	-3.015700	3.614400	-10.899000	25.038197	0.000941	20.774016
1024.287444	-3.012500	3.615400	-10.889000	25.054556	0.000936	20.760091
1025.286505	-2.981700	3.617600	-10.785000	25.047424	0.000936	20.767156
1026.286882	-2.989100	3.616400	-10.809000	25.046704	0.000935	20.759795
1027.285248	-2.987300	3.615700	-10.800000	25.053170	0.000936	20.753958
1028.286757	-2.997800	3.615000	-10.836000	25.082406	0.000933	20.761495
1029.285646	-3.002300	3.614400	-10.851000	25.065179	0.000933	20.769807
1030.288688	-3.008300	3.615000	-10.873000	25.065404	0.000933	20.743479
1031.285937	-3.010200	3.615100	-10.882000	25.024263	0.000933	20.764771
1032.288068	-3.006700	3.613000	-10.862000	25.018469	0.000935	20.781715
1033.287952	-2.996500	3.615300	-10.832000	24.981500	0.000933	20.761201
1034.286562	-3.018800	3.613100	-10.906000	24.964521	0.000934	20.784936
1035.286339	-2.993300	3.613600	-10.815000	24.962757	0.000934	20.749026
1036.288742	-2.998500	3.612600	-10.831000	24.983715	0.000933	20.770538
1037.288310	-2.991200	3.613600	-10.807000	24.987895	0.000930	20.761930
1038.287385	-2.975300	3.611800	-10.744000	24.991078	0.000931	20.754694
1039.288464	-2.999300	3.612000	-10.833000	25.003834	0.000933	20.763705
1040.287906	-2.965500	3.612300	-10.712000	24.995257	0.000931	20.784968
1041.289357	-3.016600	3.609700	-10.888000	24.986408	0.000930	20.764231
1042.289156	-3.007600	3.609900	-10.856000	24.970569	0.000930	20.754023
1043.289184	-2.959700	3.613000	-10.691000	24.976465	0.000928	20.752828
1044.290264	-2.995600	3.611600	-10.818000	25.007320	0.000928	20.764359
1045.289933	-3.006000	3.607900	-10.845000	25.006076	0.000927	20.766430
1046.289230	-3.006900	3.608300	-10.848000	25.018806	0.000927	20.767353
1047.288960	-2.991900	3.609600	-10.798000	24.989073	0.000926	20.771648
1048.290798	-2.984300	3.609700	-10.771000	24.995239	0.000928	20.782578
1049.288801	-2.987600	3.608400	-10.779000	24.980745	0.000928	20.786049
1050.290449	-2.978100	3.608800	-10.746000	25.036985	0.000925	20.785601
1051.294500	-3.034100	3.606000	-10.939000	25.039571	0.000923	20.777766
1052.289191	-3.017100	3.606500	-10.880000	25.036490	0.000927	20.775147
1053.290390	-3.009000	3.606800	-10.851000	25.020902	0.000929	20.769931
1054.293159	-3.018800	3.607600	-10.889000	25.002630	0.000922	20.779566
1055.292136	-2.997700	3.607500	-10.813000	24.992811	0.000925	20.781090
1056.290151	-3.024900	3.606000	-10.907000	24.955220	0.000926	20.772756
1057.294894	-2.990400	3.607100	-10.785000	24.958178	0.000923	20.789001
1058.289418	-3.005100	3.605200	-10.832000	24.998779	0.000925	20.779968
1059.289286	-3.006100	3.605100	-10.836000	24.990377	0.000921	20.787656
1060.295159	-2.995500	3.606100	-10.801000	25.002238	0.000920	20.790552
1061.292121	-2.999000	3.606000	-10.814000	25.009375	0.000921	20.796768
1062.291708	-2.981800	3.606500	-10.753000	25.007112	0.000922	20.787385
1063.291480	-3.000200	3.604500	-10.813000	25.015244	0.000920	20.779900
1064.293149	-2.994900	3.604500	-10.794000	25.043811	0.000921	20.787712
1065.291558	-2.979900	3.605400	-10.742000	25.049582	0.000918	20.796350
1066.290382	-2.973200	3.604600	-10.716000	25.096419	0.000920	20.785519
1067.291589	-2.987300	3.604000	-10.765000	25.057266	0.000919	20.792684
1068.290294	-3.007400	3.602700	-10.834000	25.054978	0.000917	20.794180
1069.292532	-2.980100	3.604200	-10.740000	25.025993	0.000916	20.782629
1070.293770	-3.029200	3.601900	-10.909000	25.071639	0.000917	20.809008
1071.293051	-3.004000	3.604200	-10.826000	25.061375	0.000918	20.795860
1072.295444	-3.011900	3.602000	-10.848000	25.045068	0.000915	20.802250
1073.295253	-2.985700	3.602800	-10.755000	25.020905	0.000914	20.773728
1074.296522	-2.981900	3.602800	-10.743000	25.041516	0.000915	20.788253
1075.295064	-2.981800	3.602000	-10.739000	25.040920	0.000915	20.805198
1076.298018	-2.972200	3.601700	-10.704000	25.043135	0.000914	20.780396
1077.295878	-2.992500	3.600400	-10.773000	25.045573	0.000915	20.802758
1078.295523	-2.990200	3.602000	-10.770000	25.064495	0.000914	20.802311
1079.296491	-3.007800	3.600200	-10.828000	25.076904	0.000915	20.796275
1080.304036	-2.994600	3.599700	-10.779000	25.079293	0.000914	20.794406
1081.295922	-2.986600	3.600400	-10.752000	25.122374	0.000916	20.794031
1082.298581	-2.995300	3.600600	-10.784000	25.127450	0.000910	20.805765
1083.297558	-3.018600	3.597900	-10.860000	25.161135	0.000912	20.790743
1084.299470	-2.993700	3.598300	-10.770000	25.159597	0.000913	20.796311
1085.299324	-2.982000	3.598800	-10.731000	25.150425	0.000911	20.818872
1086.299033	-2.987800	3.599300	-10.753000	25.176978	0.000910	20.809018
1087.299274	-3.003500	3.597200	-10.804000	25.171560	0.000913	20.805002
1088.298888	-3.020600	3.595900	-10.861000	25.164280	0.000910	20.793426
1089.299110	-3.010100	3.596400	-10.825000	25.175466	0.000910	20.800863
1090.299154	-2.992500	3.598000	-10.766000	25.197343	0.000907	20.802437
1091.300091	-2.998900	3.595000	-10.779000	25.211390	0.000907	20.795677
1092.301837	-2.996200	3.596900	-10.776000	25.194610	0.000907	20.809651
1093.302146	-3.005700	3.596400	-10.809000	25.161180	0.000909	20.794108
1094.301651	-3.001500	3.595100	-10.789000	25.125512	0.000907	20.812353
1095.301012	-3.002200	3.594200	-10.790000	25.134810	0.000907	20.796083
1096.300384	-3.002500	3.595600	-10.794000	25.129987	0.000907	20.790768
1097.302400	-3.007300	3.595300	-10.811000	25.150176	0.000907	20.828578
1098.301953	-3.015800	3.593400	-10.836000	25.192065	0.000907	20.813733
1099.305775	-3.015000	3.595000	-10.838000	25.200217	0.000907	20.821918
1100.302495	-2.999300	3.593900	-10.778000	25.189827	0.000905	20.820021
1101.302537	-3.002400	3.593200	-10.786000	25.188511	0.000907	20.810166
1102.301318	-3.011800	3.593200	-10.820000	25.210810	0.000904	20.817380
1103.301383	-3.026700	3.591400	-10.869000	25.207630	0.000905	20.832679
1104.301964	-3.010700	3.592100	-10.814000	25.224012	0.000903	20.814986
1105.303093	-3.008600	3.591400	-10.804000	25.227268	0.000905	20.830109
1106.302480	-2.991000	3.591600	-10.741000	25.220505	0.000902	20.821423
1107.301165	-3.016600	3.591200	-10.833000	25.230824	0.000903	20.835575
1108.302936	-2.996700	3.591700	-10.763000	25.237213	0.000902	20.827766
1109.303049	-3.015400	3.589500	-10.823000	25.279269	0.000903	20.830635
1110.305120	-3.002600	3.589900	-10.778000	25.289508	0.000901	20.819105
1111.303410	-2.991200	3.590700	-10.739000	25.300120	0.000901	20.812690
1112.302510	-2.993800	3.590000	-10.747000	25.323310	0.000902	20.818430
1113.305474	-3.011500	3.588900	-10.808000	25.324578	0.000899	20.822548
1114.304620	-2.998000	3.589000	-10.759000	25.290626	0.000901	20.823546
1115.306468	-3.028600	3.589100	-10.869000	25.258240	0.000902	20.818057
1116.308183	-2.992600	3.588300	-10.736000	25.216554	0.000898	20.814612
1117.305064	-2.995200	3.589500	-10.749000	25.216455	0.000897	20.830633
1118.306678	-2.971900	3.589100	-10.666000	25.232636	0.000897	20.830283
1119.306756	-2.965400	3.588700	-10.641000	25.252350	0.000897	20.838696
1120.303737	-3.005000	3.587500	-10.780000	25.236241	0.000896	20.850023
1121.304414	-3.001900	3.587000	-10.767000	25.210664	0.000894	20.821026
1122.303498	-2.983900	3.588600	-10.707000	25.195751	0.000894	20.854891
1123.305562	-2.995600	3.587800	-10.745000	25.211210	0.000895	20.812092
1124.308857	-3.000600	3.586700	-10.760000	25.233358	0.000897	20.842387
1125.307033	-3.005300	3.587200	-10.779000	25.266370	0.000894	20.840917
1126.305182	-3.005900	3.586300	-10.778000	25.289261	0.000892	20.839719
1127.309032	-3.006100	3.584800	-10.776000	25.266842	0.000894	20.841392
1128.312679	-3.003100	3.584300	-10.763000	25.233064	0.000892	20.810324
1129.308002	-2.996300	3.584800	-10.741000	25.210446	0.000889	20.860161
1130.312354	-2.990000	3.584500	-10.716000	25.225109	0.000888	20.826994
1131.309776	-2.995400	3.586100	-10.741000	25.255261	0.000891	20.834031
1132.307810	-2.998400	3.583300	-10.743000	25.281633	0.000890	20.839172
1133.311763	-2.998300	3.583400	-10.742000	25.289164	0.000891	20.821130
1134.313672	-3.003100	3.583600	-10.761000	25.284368	0.000890	20.834806
1135.309893	-2.975100	3.583500	-10.661000	25.322125	0.000888	20.823404
1136.313604	-3.020200	3.582000	-10.817000	25.331172	0.000888	20.802142
1137.313117	-3.017400	3.582500	-10.809000	25.325581	0.000889	20.813598
1138.311804	-3.013600	3.581000	-10.791000	25.294910	0.000888	20.832589
1139.311536	-3.023800	3.580200	-10.824000	25.297771	0.000886	20.819814
1140.311292	-3.011100	3.580400	-10.779000	25.290215	0.000885	20.820288
1141.311360	-3.006300	3.581800	-10.767000	25.286113	0.000883	20.795307
1142.312249	-3.002400	3.579500	-10.746000	25.259718	0.000884	20.815748
1143.327055	-2.981300	3.580400	-10.673000	25.260959	0.000886	20.836908
1144.314007	-2.993300	3.580300	-10.715000	25.288650	0.000886	20.816820
1145.315713	-3.010500	3.579300	-10.774000	25.287359	0.000882	20.810309
1146.314830	-3.020600	3.578400	-10.807000	25.334113	0.000883	20.820268
1147.314516	-2.993000	3.580200	-10.714000	25.362049	0.000886	20.802325
1148.313884	-2.993700	3.579400	-10.713000	25.359838	0.000882	20.812433
1149.315248	-3.028400	3.579100	-10.837000	25.357574	0.000883	20.804944
1150.315350	-3.005600	3.578100	-10.753000	25.332969	0.000884	20.809162
1151.313022	-3.010300	3.576900	-10.766000	25.314180	0.000881	20.807841
1152.314863	-2.991600	3.577500	-10.702000	25.335008	0.000881	20.804097
1153.314556	-3.006700	3.577500	-10.755000	25.353029	0.000881	20.809390
1154.315176	-2.985800	3.577600	-10.681000	25.315402	0.000880	20.807170
1155.317417	-2.982800	3.578400	-10.672000	25.306798	0.000881	20.804222
1156.319688	-3.025000	3.575800	-10.816000	25.259676	0.000882	20.805748
1157.317955	-3.004600	3.576700	-10.746000	25.228108	0.000879	20.812935
1158.320727	-3.000000	3.576200	-10.727000	25.212673	0.000879	20.791275
1159.317673	-2.996900	3.575900	-10.715000	25.210487	0.000878	20.812788
1160.317920	-2.992500	3.575600	-10.699000	25.224678	0.000878	20.796215
1161.318678	-2.987600	3.577100	-10.686000	25.211207	0.000876	20.805450
1162.317007	-3.004900	3.574200	-10.739000	25.214092	0.000877	20.805976
1163.319788	-2.985500	3.575300	-10.673000	25.233901	0.000876	20.798837
1164.319083	-2.999400	3.574000	-10.718000	25.251800	0.000876	20.792625
1165.318482	-2.992100	3.574900	-10.694000	25.288315	0.000875	20.793725
1166.319611	-2.959600	3.574900	-10.579000	25.312499	0.000873	20.795721
1167.320145	-3.009500	3.572800	-10.751000	25.361685	0.000875	20.808598
1168.319972	-2.993800	3.574000	-10.699000	25.376450	0.000874	20.783120
1169.321358	-2.996500	3.572100	-10.703000	25.392408	0.000872	20.790135
1170.321201	-2.982700	3.573000	-10.657000	25.415371	0.000870	20.796123
1171.320558	-2.994600	3.571000	-10.693000	25.416688	0.000871	20.797446
1172.320431	-3.001800	3.572200	-10.721000	25.415546	0.000867	20.789661
1173.321106	-3.003100	3.571300	-10.723000	25.418555	0.000869	20.790311
1174.322196	-3.001500	3.571400	-10.718000	25.432795	0.000870	20.796076
1175.321227	-3.022700	3.570600	-10.792000	25.463015	0.000872	20.790860
1176.330151	-3.003400	3.570400	-10.722000	25.448750	0.000867	20.776536
1177.319922	-2.989500	3.569800	-10.670000	25.473776	0.000867	20.768475
1178.323082	-2.996800	3.568300	-10.692000	25.447707	0.000867	20.785920
1179.326732	-3.034200	3.567600	-10.823000	25.450518	0.000869	20.796803
1180.322185	-3.004300	3.568300	-10.719000	25.461675	0.000867	20.798998
1181.324535	-2.981800	3.570100	-10.645000	25.471269	0.000865	20.797252
1182.327000	-2.981900	3.569700	-10.644000	25.395224	0.000866	20.774470
1183.321975	-2.991600	3.569200	-10.676000	25.394826	0.000866	20.784976
1184.322525	-2.997800	3.568600	-10.696000	25.427759	0.000866	20.800028
1185.325014	-2.990100	3.567600	-10.665000	25.433027	0.000866	20.776394
1186.321979	-3.014900	3.567500	-10.754000	25.467471	0.000864	20.789646
1187.321233	-3.015100	3.566400	-10.750000	25.469983	0.000864	20.777943
1188.324316	-2.981200	3.565800	-10.629000	25.493470	0.000864	20.782089
1189.322218	-3.004000	3.566000	-10.712000	25.483431	0.000865	20.800457
1190.323648	-2.962400	3.567100	-10.565000	25.471130	0.000861	20.781466
1191.326047	-2.986600	3.565400	-10.647000	25.430401	0.000864	20.793198
1192.322905	-3.004500	3.566200	-10.713000	25.404359	0.000859	20.776530
1193.322194	-3.007600	3.564200	-10.719000	25.381119	0.000859	20.779274
1194.327678	-2.999000	3.564000	-10.688000	25.416065	0.000858	20.778328
1195.325876	-3.008600	3.563300	-10.719000	25.432619	0.000861	20.782148
1196.323638	-2.994600	3.564300	-10.672000	25.456403	0.000860	20.791808
1197.326336	-3.010400	3.565600	-10.732000	25.408962	0.000858	20.772144
1198.325860	-3.008900	3.563400	-10.721000	25.377425	0.000858	20.765607
1199.325651	-2.999000	3.563000	-10.684000	25.352274	0.000856	20.794407
1200.332267	-3.025500	3.562000	-10.776000	25.365575	0.000856	20.775994
1201.329780	-3.031900	3.562500	-10.800000	25.379094	0.000857	20.800474
1202.326600	-3.007000	3.561500	-10.708000	25.391421	0.000854	20.774919
1203.329922	-3.030100	3.560600	-10.787000	25.422344	0.000854	20.760925
1204.328581	-3.002900	3.562500	-10.697000	25.432235	0.000854	20.788876
1205.326550	-3.009800	3.562000	-10.720000	25.477740	0.000855	20.786207
1206.330825	-3.003100	3.561500	-10.695000	25.483334	0.000851	20.784238
1207.327611	-2.998200	3.561300	-10.677000	25.474862	0.000851	20.767196
1208.326431	-3.008200	3.559100	-10.705000	25.431224	0.000851	20.779325
1209.331611	-3.009400	3.559400	-10.711000	25.426181	0.000850	20.770468
1210.327806	-3.019200	3.559100	-10.745000	25.401705	0.000851	20.776711
1211.329224	-3.005600	3.559700	-10.698000	25.351206	0.000852	20.773894
1212.332404	-3.015200	3.558000	-10.728000	25.316958	0.000852	20.788818
1213.330183	-3.010800	3.559300	-10.715000	25.336423	0.000848	20.767586
1214.330627	-2.997500	3.559300	-10.668000	25.347186	0.000847	20.767960
1215.330683	-3.002500	3.557600	-10.681000	25.362969	0.000847	20.762946
1216.329200	-2.986800	3.558500	-10.628000	25.318632	0.000848	20.755885
1217.331203	-3.017700	3.557900	-10.735000	25.331313	0.000847	20.769567
1218.334020	-3.020400	3.556700	-10.742000	25.329646	0.000846	20.756039
1219.331031	-3.018300	3.557700	-10.737000	25.377769	0.000845	20.753624
1220.330478	-2.998100	3.556400	-10.662000	25.384728	0.000846	20.764406
1221.334826	-3.028300	3.555600	-10.766000	25.383243	0.000846	20.768130
1222.332722	-2.994400	3.557200	-10.651000	25.416969	0.000845	20.756951
1223.334678	-2.998600	3.556500	-10.664000	25.421815	0.000841	20.763713
1224.335907	-2.968100	3.556800	-10.555000	25.412176	0.000845	20.770155
1225.334808	-2.987100	3.554900	-10.618000	25.445108	0.000844	20.766240
1226.335186	-2.974200	3.557000	-10.578000	25.455148	0.000845	20.764942
1227.338102	-2.990500	3.556000	-10.634000	25.440639	0.000842	20.753691
1228.336743	-2.987100	3.553300	-10.614000	25.408107	0.000845	20.742835
1229.337531	-2.988300	3.554100	-10.619000	25.378536	0.000840	20.772412
1230.340222	-3.007800	3.552900	-10.685000	25.338550	0.000843	20.762135
1231.340088	-2.983500	3.553700	-10.601000	25.322717	0.000841	20.769945
1232.336502	-3.005500	3.552300	-10.675000	25.308354	0.000839	20.757895
1233.341647	-3.002600	3.552000	-10.664000	25.282683	0.000841	20.761991
1234.342779	-2.989300	3.551600	-10.615000	25.301325	0.000841	20.754156
1235.340426	-2.985200	3.552900	-10.605000	25.323847	0.000839	20.748794
1236.343930	-2.994400	3.551500	-10.633000	25.321016	0.000838	20.759702
1237.340631	-3.001300	3.549300	-10.651000	25.334832	0.000836	20.745125
1238.340908	-3.011100	3.551300	-10.692000	25.339164	0.000836	20.751371
1239.344297	-3.002200	3.551000	-10.660000	25.363072	0.000838	20.755462
1240.342729	-3.022600	3.550300	-10.730000	25.343096	0.000835	20.733981
1241.342890	-2.988900	3.550500	-10.612000	25.359421	0.000836	20.753692
1242.345118	-2.989700	3.550000	-10.612000	25.370312	0.000837	20.744239
1243.345952	-3.000900	3.550200	-10.653000	25.351151	0.000834	20.756294
1244.344058	-3.011400	3.548600	-10.685000	25.367382	0.000835	20.757419
1245.346115	-2.991300	3.547900	-10.612000	25.356795	0.000833	20.736357
1246.344337	-2.997700	3.548100	-10.635000	25.347576	0.000832	20.742273
1247.343567	-3.008400	3.547800	-10.672000	25.383665	0.000835	20.740103
1248.346177	-3.014800	3.546500	-10.690000	25.402207	0.000832	20.749713
1249.342982	-3.009000	3.548700	-10.677000	25.440955	0.000832	20.757328
1250.344625	-2.987200	3.549000	-10.600000	25.436455	0.000831	20.764189
1251.347353	-2.997800	3.547000	-10.633000	25.437874	0.000831	20.737164
1252.346555	-3.010700	3.545600	-10.674000	25.434942	0.000831	20.728530
1253.348947	-3.000600	3.546400	-10.640000	25.435615	0.000830	20.732524
1254.348610	-2.999500	3.547200	-10.639000	25.413394	0.000831	20.737713
1255.349343	-3.002900	3.545000	-10.644000	25.408129	0.000829	20.747599
1256.349002	-2.996900	3.545200	-10.624000	25.364364	0.000830	20.730680
1257.347661	-3.007100	3.545400	-10.661000	25.370552	0.000831	20.738791
1258.348170	-2.980900	3.546200	-10.570000	25.337573	0.000826	20.729384
1259.349036	-3.005800	3.543700	-10.651000	25.349305	0.000829	20.744483
1260.351343	-2.994300	3.544600	-10.612000	25.360690	0.000827	20.741691
1261.348914	-3.005500	3.543100	-10.648000	25.342397	0.000825	20.732805
1262.354101	-3.005300	3.541900	-10.644000	25.376397	0.000826	20.735176
1263.350691	-3.012700	3.542600	-10.672000	25.373168	0.000829	20.743788
1264.350697	-2.988500	3.542500	-10.585000	25.385968	0.000824	20.741467
1265.352551	-2.983000	3.543300	-10.567000	25.406322	0.000822	20.734404
1266.352405	-3.008600	3.541700	-10.654000	25.411988	0.000826	20.721127
1267.352053	-2.997700	3.543100	-10.619000	25.394366	0.000824	20.723821
1268.358162	-3.004300	3.540300	-10.636000	25.402445	0.000824	20.739995
1269.356019	-3.001700	3.542100	-10.631000	25.421556	0.000821	20.730261
1270.357161	-2.979400	3.541400	-10.551000	25.426451	0.000821	20.744660
1271.363209	-2.997700	3.540600	-10.613000	25.438379	0.000823	20.729136
1272.357696	-2.985300	3.540000	-10.567000	25.461889	0.000823	20.749426
1273.356906	-2.990000	3.540200	-10.584000	25.459378	0.000821	20.731730
1274.357836	-3.001000	3.540500	-10.624000	25.484180	0.000820	20.725817
1275.363256	-2.987300	3.539700	-10.573000	25.477595	0.000819	20.744809
1276.361451	-2.980200	3.539400	-10.547000	25.469021	0.000820	20.742837
1277.360041	-3.004200	3.538300	-10.629000	25.454881	0.000819	20.752346
1278.358802	-2.999300	3.538200	-10.611000	25.452273	0.000818	20.726492
1279.358522	-2.986300	3.539100	-10.567000	25.434849	0.000817	20.727962
1280.358721	-3.002600	3.537000	-10.620000	25.429830	0.000817	20.736199
1281.359128	-2.998100	3.537600	-10.605000	25.436987	0.000817	20.730109
1282.359468	-3.001300	3.537500	-10.616000	25.437610	0.000817	20.742115
1283.359771	-2.991400	3.537900	-10.582000	25.435870	0.000813	20.722823
1284.362591	-2.991500	3.536400	-10.578000	25.403491	0.000813	20.732984
1285.358579	-3.021200	3.536200	-10.682000	25.409902	0.000815	20.719032
1286.359751	-3.018400	3.535400	-10.669000	25.401652	0.000813	20.723550
1287.360783	-2.984200	3.536300	-10.551000	25.345980	0.000810	20.737825
1288.360368	-3.000000	3.535000	-10.604000	25.341560	0.000811	20.734809
1289.360634	-3.013500	3.536400	-10.655000	25.370513	0.000812	20.735906
1290.360540	-3.014000	3.534200	-10.651000	25.385726	0.000813	20.747389
1291.361094	-2.986600	3.535200	-10.557000	25.423252	0.000810	20.726748
1292.360324	-2.995100	3.534800	-10.586000	25.442988	0.000810	20.731868
1293.363817	-2.981100	3.533600	-10.533000	25.470572	0.000808	20.723531
1294.360141	-3.007500	3.532500	-10.623000	25.479818	0.000808	20.720013
1295.359192	-3.010400	3.533400	-10.636000	25.472639	0.000810	20.729874
1296.363247	-3.012500	3.532400	-10.640000	25.488668	0.000809	20.743126
1297.361218	-3.013700	3.533200	-10.647000	25.527014	0.000808	20.725210
1298.362011	-3.020700	3.530100	-10.662000	25.488248	0.000808	20.752188
1299.363987	-2.991900	3.532600	-10.568000	25.506366	0.000806	20.722491
1300.363729	-3.012300	3.530800	-10.633000	25.451869	0.000806	20.725612
1301.363170	-3.010700	3.531200	-10.630000	25.421503	0.000805	20.701756
1302.364695	-3.016700	3.529700	-10.646000	25.384473	0.000805	20.715784
1303.363030	-3.015300	3.528900	-10.640000	25.353930	0.000806	20.715935
1304.365819	-3.007000	3.528800	-10.608000	25.308846	0.000804	20.706228
1305.364347	-2.994900	3.530300	-10.572000	25.301836	0.000804	20.712467
1306.365326	-3.020000	3.529700	-10.658000	25.312176	0.000803	20.714788
1307.363566	-3.003800	3.529500	-10.601000	25.284042	0.000801	20.720680
1308.364482	-3.026700	3.527800	-10.676000	25.282254	0.000803	20.726472
1309.366949	-2.991300	3.527900	-10.552000	25.308426	0.000800	20.711022
1310.370769	-3.003700	3.527500	-10.593000	25.350556	0.000801	20.715866
1311.368364	-2.980400	3.529500	-10.518000	25.408710	0.000800	20.709773
1312.368785	-3.008200	3.527300	-10.609000	25.450490	0.000801	20.723279
1313.369623	-3.005300	3.527000	-10.599000	25.458292	0.000800	20.732063
1314.368215	-3.012000	3.525800	-10.618000	25.479987	0.000799	20.709751
1315.370658	-3.015100	3.526400	-10.631000	25.449991	0.000798	20.715191
1316.368831	-3.003300	3.524800	-10.586000	25.412888	0.000799	20.722031
1317.367798	-3.017700	3.525600	-10.636000	25.415098	0.000796	20.703860
1318.368648	-2.995000	3.526600	-10.561000	25.407891	0.000798	20.702313
1319.368696	-3.017600	3.524100	-10.633000	25.440566	0.000798	20.713313
1320.371260	-2.991200	3.525600	-10.545000	25.444690	0.000798	20.707022
1321.369993	-2.986900	3.523700	-10.524000	25.438631	0.000797	20.700937
1322.371182	-2.971000	3.524800	-10.472000	25.446902	0.000796	20.697864
1323.372172	-2.994200	3.524600	-10.553000	25.453463	0.000798	20.708246
1324.369093	-2.985200	3.523900	-10.519000	25.424185	0.000796	20.695914
1325.380551	-3.004800	3.523900	-10.588000	25.382533	0.000795	20.707196
1326.370090	-3.017900	3.522100	-10.628000	25.347314	0.000795	20.705498
1327.371443	-3.002800	3.521900	-10.575000	25.380092	0.000796	20.716126
1328.372527	-3.003800	3.523400	-10.583000	25.371268	0.000792	20.712955
1329.372818	-3.003000	3.522100	-10.575000	25.386851	0.000795	20.708213
1330.374316	-3.013300	3.521700	-10.610000	25.420773	0.000791	20.707662
1331.373011	-3.000700	3.522100	-10.566000	25.402706	0.000791	20.712280
1332.374680	-3.012000	3.520100	-10.601000	25.448481	0.000788	20.694707
1333.374714	-3.005800	3.520000	-10.580000	25.466202	0.000790	20.699226
1334.374824	-3.012000	3.519300	-10.598000	25.508175	0.000791	20.704392
1335.377126	-3.020500	3.519500	-10.629000	25.504444	0.000789	20.698749
1336.376379	-3.035600	3.519400	-10.683000	25.518260	0.000790	20.714521
1337.377002	-3.005300	3.519500	-10.575000	25.492888	0.000789	20.700420
1338.376999	-3.012000	3.518900	-10.598000	25.468955	0.000789	20.698672
1339.385340	-3.026000	3.516300	-10.639000	25.448103	0.000790	20.699543
1340.377010	-2.994200	3.517900	-10.532000	25.440276	0.000785	20.692157
1341.378708	-2.992400	3.516600	-10.522000	25.381525	0.000785	20.705236
1342.376490	-2.987400	3.517000	-10.505000	25.407467	0.000786	20.699516
1343.379683	-3.009900	3.515400	-10.581000	25.433512	0.000785	20.708125
1344.380372	-2.985300	3.517300	-10.499000	25.397377	0.000783	20.712145
1345.380345	-3.020900	3.515200	-10.619000	25.371356	0.000782	20.716837
1346.379624	-2.999500	3.517400	-10.549000	25.374783	0.000781	20.695620
1347.381855	-3.016600	3.515200	-10.602000	25.383931	0.000783	20.702435
1348.379897	-2.965800	3.517000	-10.428000	25.407393	0.000784	20.700864
1349.380998	-2.992500	3.514600	-10.517000	25.421333	0.000780	20.677876
1350.381201	-2.980900	3.515800	-10.479000	25.423521	0.000782	20.714690
1351.379140	-2.958400	3.514900	-10.398000	25.441786	0.000782	20.690354
1352.379646	-2.976500	3.514700	-10.461000	25.450409	0.000781	20.695695
1353.392727	-3.000700	3.514600	-10.545000	25.433709	0.000780	20.685563
1354.382782	-2.990800	3.514400	-10.510000	25.410223	0.000781	20.711293
1355.379846	-3.007600	3.513700	-10.566000	25.400057	0.000780	20.716258
1356.379908	-3.032200	3.512400	-10.649000	25.381839	0.000781	20.709344
1357.382911	-3.006800	3.513400	-10.563000	25.384946	0.000777	20.700136
1358.381207	-3.014600	3.510700	-10.582000	25.426152	0.000778	20.711166
1359.382034	-3.020700	3.510600	-10.602000	25.459949	0.000779	20.705749
1360.384656	-2.987100	3.511700	-10.488000	25.472846	0.000778	20.690724
1361.387382	-2.999300	3.511300	-10.531000	25.446727	0.000776	20.704801
1362.384932	-3.007700	3.509100	-10.554000	25.433580	0.000775	20.699659
1363.391577	-2.997100	3.510700	-10.521000	25.423813	0.000774	20.709766
1364.387793	-2.985200	3.511000	-10.480000	25.429204	0.000775	20.694316
1365.386502	-3.003000	3.508200	-10.532000	25.413671	0.000776	20.705272
1366.387798	-2.992200	3.510000	-10.501000	25.426396	0.000773	20.723267
1367.386171	-2.997200	3.508700	-10.516000	25.431763	0.000774	20.713482
1368.391745	-2.985900	3.509100	-10.475000	25.458032	0.000774	20.697660
1369.392617	-3.012200	3.507000	-10.563000	25.500500	0.000773	20.717075
1370.388627	-2.998400	3.507100	-10.515000	25.505820	0.000774	20.700131
1371.391036	-3.000000	3.507800	-10.522000	25.517825	0.000771	20.693693
1372.393788	-3.018100	3.506300	-10.581000	25.500231	0.000769	20.703527
1373.389148	-3.010200	3.506900	-10.556000	25.524037	0.000771	20.694716
1374.394516	-2.990700	3.507200	-10.488000	25.516957	0.000770	20.697564
1375.394189	-2.983500	3.506700	-10.461000	25.503811	0.000767	20.706648
1376.390473	-3.009500	3.505600	-10.549000	25.491460	0.000772	20.688080
1377.394838	-2.988500	3.506000	-10.477000	25.495089	0.000767	20.706425
1378.401215	-3.007400	3.506000	-10.543000	25.498817	0.000768	20.697365
1379.393834	-2.989000	3.505000	-10.475000	25.492904	0.000768	20.715136
1380.395630	-3.035900	3.501900	-10.630000	25.494197	0.000766	20.701735
1381.398358	-2.988500	3.503000	-10.467000	25.482442	0.000765	20.688033
1382.393400	-2.997800	3.503500	-10.502000	25.486371	0.000765	20.679175
1383.397260	-3.000500	3.503000	-10.510000	25.526658	0.000765	20.672216
1384.397229	-3.001500	3.502700	-10.513000	25.515749	0.000764	20.710576
1385.394773	-2.985300	3.504000	-10.458000	25.530882	0.000766	20.693056
1386.396035	-3.025800	3.502600	-10.598000	25.501587	0.000765	20.699198
1387.396643	-3.007400	3.502300	-10.532000	25.533792	0.000765	20.703091
1388.396124	-2.998900	3.501300	-10.499000	25.495847	0.000762	20.710030
1389.396795	-2.998900	3.501400	-10.500000	25.479917	0.000762	20.685496
1390.400751	-2.995100	3.501800	-10.488000	25.452061	0.000763	20.703993
1391.400767	-3.000000	3.499600	-10.497000	25.466652	0.000762	20.676442
1392.404578	-2.991300	3.500000	-10.468000	25.470009	0.000760	20.704946
1393.396945	-2.988000	3.499700	-10.456000	25.513747	0.000759	20.695289
1394.399213	-3.004000	3.497100	-10.503000	25.530349	0.000762	20.704376
1395.403526	-2.998600	3.499400	-10.493000	25.548140	0.000760	20.703276
1396.398200	-2.987500	3.499100	-10.453000	25.551173	0.000760	20.684035
1397.401405	-3.002100	3.498100	-10.499000	25.598839	0.000759	20.683541
1398.398674	-3.003800	3.497800	-10.505000	25.622570	0.000759	20.699791
1399.399970	-3.006100	3.496700	-10.509000	25.614970	0.000757	20.706857
1400.398528	-2.979000	3.498500	-10.420000	25.611465	0.000757	20.686739
1401.399332	-2.996300	3.497400	-10.478000	25.595863	0.000755	20.706633
1402.400023	-3.014300	3.497200	-10.541000	25.610526	0.000754	20.706187
1403.399379	-3.021700	3.496000	-10.563000	25.601386	0.000754	20.699851
1404.399397	-2.992200	3.495700	-10.458000	25.615351	0.000756	20.681633
1405.398905	-2.992500	3.496500	-10.461000	25.629814	0.000755	20.684779
1406.400367	-2.991800	3.495000	-10.455000	25.632446	0.000753	20.704968
1407.403460	-3.008200	3.493100	-10.507000	25.607054	0.000755	20.698905
1408.405396	-3.011500	3.493600	-10.520000	25.590683	0.000752	20.706647
1409.404156	-3.012100	3.493600	-10.522000	25.558205	0.000753	20.714333
1410.403928	-3.002200	3.495100	-10.491000	25.551422	0.000751	20.704201
1411.404840	-2.991400	3.493600	-10.449000	25.579852	0.000754	20.702881
1412.404684	-2.994500	3.492400	-10.457000	25.575183	0.000751	20.706253
1413.404718	-3.016300	3.491600	-10.531000	25.623589	0.000750	20.706978
1414.405295	-2.999000	3.493200	-10.475000	25.661208	0.000749	20.696871
1415.406070	-3.014600	3.492600	-10.527000	25.684541	0.000749	20.699917
1416.407004	-3.006800	3.491000	-10.496000	25.708987	0.000748	20.702186
1417.409901	-3.010500	3.491200	-10.510000	25.701958	0.000747	20.706980
1418.409315	-3.004400	3.490400	-10.485000	25.695324	0.000747	20.703636
1419.406671	-2.995100	3.490200	-10.451000	25.704145	0.000748	20.703962
1420.415890	-3.019200	3.489200	-10.534000	25.707900	0.000750	20.725278
1421.408256	-3.015800	3.489500	-10.523000	25.661189	0.000750	20.715345
1422.407075	-2.976300	3.489600	-10.385000	25.660519	0.000750	20.710879
1423.412447	-2.996100	3.488500	-10.451000	25.670482	0.000747	20.710454
1424.411686	-3.000200	3.489100	-10.467000	25.682337	0.000747	20.718093
1425.410438	-2.983500	3.487800	-10.404000	25.676051	0.000746	20.722686
1426.414022	-3.007800	3.486100	-10.484000	25.644323	0.000745	20.720216
1427.410686	-2.998000	3.486400	-10.450000	25.606875	0.000745	20.709633
1428.410535	-3.001500	3.485800	-10.461000	25.577629	0.000746	20.729099
1429.413324	-2.994800	3.486400	-10.440000	25.555414	0.000744	20.703942
1430.410445	-3.006000	3.486800	-10.480000	25.549652	0.000744	20.710484
1431.412025	-2.995200	3.485700	-10.439000	25.579542	0.000741	20.720114
1432.415332	-3.017100	3.484100	-10.511000	25.615552	0.000741	20.715028
1433.417277	-2.999800	3.484700	-10.453000	25.620767	0.000742	20.735440
1434.413042	-3.013800	3.485300	-10.503000	25.596266	0.000740	20.727428
1435.414515	-3.000900	3.483800	-10.453000	25.589857	0.000741	20.715301
1436.415315	-3.013900	3.483900	-10.499000	25.568738	0.000740	20.725860
1437.414806	-3.004200	3.482500	-10.461000	25.565781	0.000738	20.716726
1438.419746	-3.002600	3.484300	-10.460000	25.571570	0.000739	20.729653
1439.415283	-3.010300	3.482800	-10.483000	25.569405	0.000738	20.722736
1440.415460	-2.993500	3.482500	-10.424000	25.585534	0.000739	20.715226
1441.419014	-3.006500	3.481100	-10.464000	25.605884	0.000737	20.716699
1442.415739	-3.013800	3.482400	-10.494000	25.626660	0.000736	20.698208
1443.415554	-3.014800	3.481200	-10.494000	25.634908	0.000736	20.711234
1444.417641	-2.990200	3.482200	-10.412000	25.675258	0.000737	20.719519
1445.417130	-2.987300	3.481000	-10.397000	25.678763	0.000736	20.743429
1446.418223	-2.990700	3.480100	-10.406000	25.641594	0.000736	20.736443
1447.416396	-3.008400	3.480900	-10.470000	25.623081	0.000735	20.735393
1448.416927	-3.005400	3.480600	-10.460000	25.590008	0.000736	20.745326
1449.416080	-2.997400	3.478600	-10.425000	25.571123	0.000735	20.718298
1450.416990	-3.008500	3.478500	-10.463000	25.518518	0.000735	20.751292
1451.414819	-3.002500	3.479700	-10.446000	25.538521	0.000736	20.729653
1452.417597	-2.999800	3.477200	-10.430000	25.556962	0.000733	20.711187
1453.417662	-3.014900	3.477700	-10.484000	25.589909	0.000733	20.736691
1454.416997	-2.972500	3.477100	-10.334000	25.617813	0.000732	20.741957
1455.418885	-2.991000	3.477400	-10.400000	25.622115	0.000734	20.729206
1456.420138	-3.024600	3.476700	-10.515000	25.612499	0.000732	20.737094
1457.419023	-3.003400	3.477800	-10.442000	25.593640	0.000731	20.722419
1458.419130	-2.997100	3.476100	-10.417000	25.579926	0.000727	20.715758
1459.419614	-3.015600	3.476000	-10.480000	25.531024	0.000730	20.730185
1460.417698	-3.003600	3.475600	-10.439000	25.542726	0.000729	20.740515
1461.420188	-2.988600	3.475200	-10.385000	25.557936	0.000730	20.733030
1462.422009	-2.994400	3.474700	-10.403000	25.575578	0.000728	20.752171
1463.420138	-3.003100	3.473700	-10.431000	25.592251	0.000727	20.742362
1464.425018	-3.000700	3.473600	-10.422000	25.588625	0.000727	20.733979
1465.423862	-3.049700	3.472000	-10.587000	25.629029	0.000724	20.751799
1466.422246	-3.011300	3.473900	-10.459000	25.649678	0.000729	20.733182
1467.422716	-3.001200	3.472000	-10.419000	25.645851	0.000726	20.709423
1468.427567	-2.984700	3.473100	-10.365000	25.600406	0.000727	20.714989
1469.423424	-2.997800	3.473200	-10.411000	25.628362	0.000726	20.758242
1470.422766	-2.971300	3.473400	-10.320000	25.646274	0.000723	20.728341
1471.425828	-2.973000	3.472100	-10.320000	25.612409	0.000725	20.735580
1472.425403	-3.017700	3.469000	-10.468000	25.630821	0.000724	20.742693
1473.424246	-2.992800	3.469800	-10.383000	25.623764	0.000724	20.745089
1474.430843	-3.003700	3.468300	-10.416000	25.608311	0.000721	20.754225
1475.426665	-2.989100	3.470000	-10.371000	25.581301	0.000722	20.735159
1476.426419	-3.000200	3.470400	-10.409000	25.579413	0.000722	20.730417
1477.430083	-2.970000	3.470100	-10.304000	25.593006	0.000722	20.755449
1478.426588	-3.011300	3.469500	-10.447000	25.596533	0.000720	20.749034
1479.432021	-3.000700	3.466700	-10.402000	25.564008	0.000722	20.733913
1480.430441	-3.021000	3.467500	-10.473000	25.527203	0.000720	20.767601
1481.427722	-3.015800	3.467700	-10.457000	25.540898	0.000721	20.749111
1482.426732	-2.996100	3.468400	-10.390000	25.520374	0.000719	20.747465
1483.428653	-2.997100	3.466500	-10.389000	25.554245	0.000717	20.742125
1484.428604	-2.969200	3.467800	-10.296000	25.603818	0.000719	20.745445
1485.427558	-3.013200	3.466800	-10.444000	25.628914	0.000718	20.757373
1486.429860	-2.988800	3.466400	-10.360000	25.657788	0.000717	20.729948
1487.429840	-3.019400	3.466100	-10.464000	25.695506	0.000716	20.757875
1488.428732	-3.003500	3.464400	-10.404000	25.706663	0.000716	20.752960
1489.429795	-2.998200	3.464400	-10.386000	25.728825	0.000718	20.736813
1490.431223	-2.997100	3.463400	-10.379000	25.753471	0.000715	20.769630
1491.430574	-3.017300	3.462200	-10.445000	25.770118	0.000715	20.747945
1492.433343	-2.999600	3.462900	-10.385000	25.786714	0.000716	20.752761
1493.431892	-3.001800	3.462500	-10.392000	25.757277	0.000716	20.772505
1494.428241	-2.996100	3.462800	-10.374000	25.762544	0.000715	20.751242
1495.435300	-3.012000	3.461400	-10.425000	25.754072	0.000714	20.756483
1496.432840	-2.981400	3.463800	-10.325000	25.740336	0.000715	20.767342
1497.432047	-3.009400	3.462000	-10.418000	25.720781	0.000714	20.778046
1498.433587	-3.008200	3.461600	-10.412000	25.689448	0.000713	20.770283
1499.434444	-2.991100	3.461700	-10.353000	25.669599	0.000711	20.746079
1500.433635	-2.985800	3.460700	-10.331000	25.642989	0.000712	20.741638
1501.436763	-2.999400	3.460200	-10.376000	25.620553	0.000712	20.760356
1502.434000	-3.000000	3.459200	-10.377000	25.606609	0.000709	20.755361
1503.434298	-2.998600	3.459300	-10.372000	25.586284	0.000709	20.769087
1504.438392	-2.988100	3.459500	-10.336000	25.572598	0.000711	20.739694
1505.437612	-2.993400	3.457800	-10.349000	25.562057	0.000710	20.740488
1506.434178	-3.003100	3.457500	-10.381000	25.566235	0.000709	20.775979
1507.435546	-2.992100	3.456500	-10.341000	25.566855	0.000708	20.762377
1508.433266	-2.985000	3.457800	-10.321000	25.556169	0.000709	20.770137
1509.433599	-2.997300	3.457700	-10.363000	25.542406	0.000707	20.764376
1510.441327	-2.994600	3.456500	-10.350000	25.566334	0.000707	20.771337
1511.436627	-2.983600	3.456300	-10.312000	25.591653	0.000708	20.783963
1512.434937	-2.993500	3.456400	-10.346000	25.618813	0.000706	20.770937
1513.434796	-2.996300	3.456300	-10.356000	25.617026	0.000705	20.772936
1514.437223	-3.008400	3.456800	-10.397000	25.626068	0.000704	20.765421
1515.433900	-2.978700	3.455700	-10.292000	25.634294	0.000703	20.754242
1516.435389	-2.991200	3.454000	-10.330000	25.654770	0.000705	20.767221
1517.440936	-2.985800	3.455200	-10.315000	25.686199	0.000703	20.765597
1518.434627	-3.002800	3.452600	-10.366000	25.704983	0.000703	20.762179
1519.435835	-3.016300	3.451900	-10.411000	25.720237	0.000701	20.768492
1520.439098	-2.978300	3.454500	-10.287000	25.725902	0.000701	20.762327
1521.436370	-3.007100	3.451400	-10.378000	25.706446	0.000702	20.794468
1522.437657	-2.975700	3.453800	-10.277000	25.732459	0.000702	20.787880
1523.446392	-3.001600	3.452500	-10.362000	25.712734	0.000701	20.772335
1524.439982	-2.999000	3.452400	-10.353000	25.745578	0.000699	20.790151
1525.441767	-3.013500	3.450500	-10.397000	25.773653	0.000700	20.769989
1526.445022	-3.005200	3.452200	-10.372000	25.748808	0.000701	20.792922
1527.440505	-2.999400	3.451900	-10.353000	25.707439	0.000700	20.774603
1528.442415	-3.030500	3.449100	-10.451000	25.671487	0.000698	20.797288
1529.444278	-2.992800	3.448800	-10.321000	25.625497	0.000702	20.787607
1530.442184	-3.032500	3.448600	-10.457000	25.630116	0.000697	20.789402
1531.441492	-2.997600	3.449400	-10.338000	25.640255	0.000696	20.784886
1532.442935	-3.007900	3.448500	-10.371000	25.658738	0.000697	20.778794
1533.442466	-2.984600	3.448900	-10.292000	25.693651	0.000696	20.787781
1534.443922	-2.981700	3.448300	-10.281000	25.666939	0.000696	20.791298
1535.443340	-3.008900	3.446700	-10.369000	25.625991	0.000693	20.780991
1536.445331	-3.002500	3.446600	-10.348000	25.643060	0.000696	20.796712
1537.445641	-2.993200	3.447600	-10.317000	25.620177	0.000693	20.796015
1538.443397	-2.999000	3.447000	-10.336000	25.625123	0.000694	20.787706
1539.442574	-2.987400	3.446200	-10.294000	25.660105	0.000694	20.814780
1540.446311	-3.003100	3.446400	-10.348000	25.689050	0.000695	20.804971
1541.442517	-2.997700	3.444500	-10.325000	25.647806	0.000694	20.786306
1542.444333	-2.988700	3.444400	-10.293000	25.635062	0.000691	20.797214
1543.445972	-2.984100	3.444600	-10.277000	25.630563	0.000692	20.777997
1544.446287	-2.996900	3.443000	-10.317000	25.579998	0.000692	20.799284
1545.448489	-3.003100	3.444600	-10.343000	25.567750	0.000693	20.782717
1546.447455	-3.008000	3.444600	-10.360000	25.558283	0.000691	20.792649
1547.448770	-3.034200	3.441900	-10.442000	25.569540	0.000691	20.786411
1548.448167	-3.017400	3.441400	-10.384000	25.605072	0.000689	20.790802
1549.448458	-3.019100	3.441500	-10.388000	25.608355	0.000688	20.811169
1550.447934	-2.991300	3.443000	-10.298000	25.607189	0.000689	20.804307
1551.451519	-3.007700	3.442400	-10.353000	25.600703	0.000684	20.786413
1552.451688	-2.988600	3.441600	-10.285000	25.597823	0.000687	20.802962
1553.450084	-2.998600	3.442300	-10.321000	25.602945	0.000688	20.788666
1554.453343	-3.006600	3.440100	-10.342000	25.620812	0.000685	20.798074
1555.452518	-2.993700	3.440200	-10.297000	25.659126	0.000687	20.781553
1556.450156	-3.004600	3.439200	-10.332000	25.639004	0.000688	20.786949
1557.452076	-3.002900	3.439400	-10.327000	25.651056	0.000686	20.803795
1558.450360	-3.005400	3.438800	-10.333000	25.686713	0.000684	20.812106
1559.454099	-3.013900	3.437700	-10.359000	25.734790	0.000684	20.813454
1560.458061	-2.986200	3.438500	-10.267000	25.759537	0.000685	20.787103
1561.451438	-2.990800	3.437200	-10.279000	25.753675	0.000682	20.789275
1562.451798	-3.006200	3.435600	-10.326000	25.805080	0.000682	20.803453
1563.455772	-2.986600	3.437500	-10.264000	25.811466	0.000682	20.809394
1564.451481	-3.006400	3.435800	-10.328000	25.801482	0.000681	20.783718
1565.450827	-2.999000	3.437800	-10.309000	25.812814	0.000683	20.808851
1566.454327	-2.989200	3.436600	-10.271000	25.803423	0.000681	20.804159
1567.457346	-3.009200	3.434900	-10.335000	25.785340	0.000683	20.798798
1568.452817	-3.008000	3.433900	-10.328000	25.737518	0.000682	20.819040
1569.454657	-3.002600	3.435300	-10.314000	25.764922	0.000680	20.808160
1570.456560	-2.996300	3.435000	-10.291000	25.757594	0.000682	20.796058
1571.459351	-3.006500	3.433500	-10.322000	25.747188	0.000680	20.823062
1572.456140	-2.996800	3.435000	-10.293000	25.798917	0.000679	20.802953
1573.455483	-3.021600	3.431600	-10.368000	25.805399	0.000681	20.813731
1574.455862	-3.011900	3.433500	-10.341000	25.793898	0.000679	20.805971
1575.456263	-3.004600	3.431500	-10.310000	25.779169	0.000678	20.814409
1576.464594	-3.008100	3.432500	-10.324000	25.750103	0.000678	20.801335
1577.458786	-3.002400	3.430900	-10.300000	25.759272	0.000676	20.838519
1578.456564	-2.998100	3.432300	-10.289000	25.757809	0.000678	20.833731
1579.460720	-3.002400	3.432000	-10.303000	25.770011	0.000675	20.804737
1580.458708	-3.000400	3.431100	-10.294000	25.720221	0.000676	20.819683
1581.459868	-3.002900	3.431700	-10.304000	25.730708	0.000676	20.816941
1582.458458	-2.999700	3.429500	-10.287000	25.751703	0.000675	20.824753
1583.463220	-2.986700	3.430300	-10.244000	25.766509	0.000674	20.796004
1584.466203	-3.014800	3.430500	-10.340000	25.741892	0.000674	20.805415
1585.460704	-2.992600	3.428700	-10.259000	25.751333	0.000676	20.828174
1586.460811	-3.022100	3.427800	-10.358000	25.733571	0.000674	20.802747
1587.459811	-2.989500	3.428000	-10.247000	25.738791	0.000673	20.814628
1588.459243	-3.008400	3.427500	-10.310000	25.717847	0.000672	20.816351
1589.461177	-3.026800	3.426000	-10.370000	25.705697	0.000674	20.819320
1590.461854	-2.980800	3.426100	-10.211000	25.697076	0.000671	20.829627
1591.460349	-2.997200	3.426600	-10.269000	25.726671	0.000672	20.841335
1592.461603	-2.995600	3.426400	-10.263000	25.736310	0.000671	20.829206
1593.464300	-2.990000	3.425900	-10.243000	25.761307	0.000670	20.807847
1594.462208	-3.011000	3.426700	-10.317000	25.772611	0.000671	20.833900
1595.462384	-3.013200	3.424400	-10.317000	25.798376	0.000669	20.849823
1596.468300	-3.005900	3.424300	-10.292000	25.810078	0.000668	20.824120
1597.464782	-2.982900	3.425700	-10.217000	25.876359	0.000668	20.825270
1598.465636	-3.001000	3.426200	-10.280000	25.909105	0.000669	20.830665
1599.465989	-2.985200	3.425400	-10.225000	25.905527	0.000670	20.821380
1600.466635	-2.982100	3.425300	-10.214000	25.953147	0.000665	20.828443
1601.466484	-2.998500	3.424200	-10.266000	25.957496	0.000667	20.840873
1602.470715	-2.979300	3.423100	-10.198000	25.975332	0.000665	20.836032
1603.466980	-2.992700	3.423400	-10.244000	25.949500	0.000665	20.849909
1604.467516	-3.021000	3.421100	-10.334000	25.915022	0.000667	20.833764
1605.469131	-3.002100	3.422900	-10.275000	25.872895	0.000664	20.825108
1606.468954	-3.007600	3.421200	-10.287000	25.873046	0.000663	20.859397
1607.468619	-3.002100	3.421800	-10.272000	25.855310	0.000663	20.828780
1608.468357	-2.998500	3.420300	-10.255000	25.846839	0.000663	20.822167
1609.470029	-2.984600	3.421200	-10.209000	25.831811	0.000666	20.848796
1610.469796	-2.989800	3.419500	-10.222000	25.824484	0.000661	20.824367
1611.469671	-2.990000	3.418400	-10.220000	25.805776	0.000663	20.831653
1612.469448	-3.014700	3.417600	-10.301000	25.825357	0.000661	20.841839
1613.468612	-3.007600	3.418800	-10.281000	25.812538	0.000660	20.840816
1614.469980	-2.996800	3.419800	-10.246000	25.794506	0.000661	20.844987
1615.473423	-2.993800	3.419000	-10.235000	25.837259	0.000659	20.836251
1616.471111	-2.988300	3.417800	-10.212000	25.843648	0.000659	20.833660
1617.470002	-3.011400	3.417100	-10.287000	25.872394	0.000659	20.830769
1618.472353	-2.997600	3.416200	-10.239000	25.888044	0.000659	20.837956
1619.470187	-2.997500	3.417000	-10.242000	25.870704	0.000659	20.842347
1620.470607	-2.993700	3.414700	-10.222000	25.870460	0.000659	20.822188
1621.473607	-3.005800	3.414700	-10.263000	25.910283	0.000656	20.820942
1622.469752	-2.983000	3.415900	-10.189000	25.933212	0.000659	20.842554
1623.470380	-2.962700	3.416300	-10.121000	25.955144	0.000657	20.817174
1624.473952	-2.996000	3.414500	-10.230000	25.988857	0.000657	20.833973
1625.470091	-3.001700	3.413700	-10.245000	26.021251	0.000659	20.834277
1626.470332	-2.981900	3.414000	-10.178000	26.044946	0.000655	20.822997
1627.471631	-3.007900	3.413800	-10.268000	26.026886	0.000654	20.850369
1628.471216	-3.001100	3.414000	-10.245000	26.019017	0.000655	20.805955
1629.473135	-2.992200	3.413700	-10.213000	25.994378	0.000655	20.805856
1630.469371	-3.019500	3.412200	-10.302000	25.974760	0.000654	20.816966
1631.472698	-2.992700	3.412900	-10.213000	25.938514	0.000653	20.790509
1632.473178	-3.003900	3.411000	-10.246000	25.957498	0.000655	20.823805
1633.474981	-2.989100	3.412200	-10.198000	25.951338	0.000653	20.800547
1634.477115	-3.011900	3.411400	-10.273000	25.973421	0.000653	20.814672
1635.478468	-2.995800	3.412000	-10.220000	25.976055	0.000653	20.824905
1636.477353	-2.986800	3.410800	-10.186000	25.945776	0.000653	20.790218
1637.478642	-3.009400	3.409100	-10.258000	25.882361	0.000653	20.806169
1638.477368	-3.001000	3.409400	-10.230000	25.840430	0.000651	20.806720
1639.476127	-3.012800	3.409200	-10.270000	25.796084	0.000651	20.784934
1640.480884	-2.991900	3.411700	-10.206000	25.782019	0.000651	20.803996
1641.475420	-2.991100	3.408200	-10.194000	25.794665	0.000649	20.805794
1642.475937	-2.981400	3.410800	-10.168000	25.791512	0.000650	20.805946
1643.476788	-3.008700	3.408100	-10.252000	25.817773	0.000649	20.817152
1644.480185	-2.980300	3.408800	-10.157000	25.860455	0.000648	20.776576
1645.481257	-3.029100	3.407500	-10.321000	25.891779	0.000648	20.789552
1646.479622	-3.028400	3.406400	-10.316000	25.931129	0.000647	20.803479
1647.482784	-3.000100	3.407600	-10.223000	25.946133	0.000648	20.789778
1648.479156	-3.031600	3.405700	-10.323000	25.976613	0.000647	20.806026
1649.479282	-3.031500	3.406500	-10.326000	26.010171	0.000644	20.788532
1650.482276	-3.007600	3.405800	-10.243000	26.004507	0.000644	20.794222
1651.483773	-2.990500	3.404700	-10.179000	25.967745	0.000644	20.806125
1652.481302	-2.994000	3.406700	-10.199000	25.964916	0.000648	20.788358
1653.485818	-2.983500	3.405800	-10.160000	25.899266	0.000644	20.786642
1654.487321	-3.010100	3.403300	-10.243000	25.900105	0.000642	20.781795
1655.487602	-2.985300	3.404100	-10.161000	25.906515	0.000643	20.786812
1656.489791	-2.986300	3.404300	-10.165000	25.879961	0.000643	20.790007
1657.490524	-2.998400	3.403300	-10.203000	25.841256	0.000641	20.790481
1658.485333	-2.995800	3.404200	-10.197000	25.843792	0.000644	20.774062
1659.487812	-2.995700	3.403400	-10.194000	25.836863	0.000641	20.787491
1660.486801	-2.998400	3.402700	-10.202000	25.855096	0.000640	20.774512
1661.486104	-2.994500	3.402600	-10.189000	25.857755	0.000641	20.776709
1662.486430	-3.006100	3.401100	-10.222000	25.884588	0.000640	20.782802
1663.490733	-2.996300	3.401600	-10.192000	25.873137	0.000640	20.792161
1664.490246	-3.001300	3.402200	-10.209000	25.883943	0.000642	20.806810
1665.488211	-3.005500	3.399000	-10.215000	25.835876	0.000639	20.777016
1666.491739	-3.006800	3.399800	-10.221000	25.843333	0.000640	20.797783
1667.491136	-2.997900	3.400300	-10.192000	25.854485	0.000639	20.799977
1668.487375	-2.994400	3.399700	-10.179000	25.859458	0.000641	20.778420
1669.492776	-2.997400	3.398800	-10.187000	25.845569	0.000639	20.761622
1670.489214	-2.982900	3.400400	-10.141000	25.839908	0.000640	20.803352
1671.488224	-3.002800	3.398700	-10.204000	25.826420	0.000638	20.779845
1672.490805	-3.002000	3.398900	-10.202000	25.852430	0.000635	20.754764
1673.493297	-2.995400	3.397400	-10.175000	25.874769	0.000637	20.765351
1674.489804	-2.980100	3.398800	-10.128000	25.888059	0.000639	20.796245
1675.491102	-2.986500	3.397800	-10.147000	25.870249	0.000637	20.792105
1676.490689	-2.998300	3.396500	-10.183000	25.868556	0.000635	20.761006
1677.489590	-2.989200	3.396900	-10.153000	25.817980	0.000634	20.776582
1678.490358	-2.998300	3.397100	-10.185000	25.832091	0.000632	20.764678
1679.490717	-3.008200	3.397500	-10.220000	25.791722	0.000631	20.793354
1680.487815	-2.978600	3.395900	-10.114000	25.834229	0.000633	20.766352
1681.489052	-2.994900	3.395400	-10.168000	25.826556	0.000631	20.776662
1682.489384	-3.011000	3.395100	-10.221000	25.855173	0.000632	20.748510
1683.489158	-3.030100	3.395500	-10.288000	25.886874	0.000631	20.774667
1684.491683	-2.981700	3.394300	-10.119000	25.913333	0.000631	20.771850
1685.491191	-3.012000	3.392700	-10.217000	25.925879	0.000631	20.776393
1686.491953	-3.014800	3.393000	-10.228000	25.959611	0.000632	20.780409
1687.490854	-2.997100	3.392700	-10.166000	25.976530	0.000630	20.771803
1688.490984	-2.989400	3.393600	-10.144000	25.977054	0.000630	20.749096
1689.492568	-2.981000	3.392900	-10.113000	26.014687	0.000628	20.752291
1690.492026	-2.994400	3.392200	-10.157000	26.022210	0.000627	20.756531
1691.492132	-3.002600	3.391100	-10.181000	26.031753	0.000628	20.770861
1692.491338	-2.988000	3.391900	-10.134000	26.035775	0.000624	20.759729
1693.492373	-2.981700	3.391800	-10.113000	26.011238	0.000625	20.773483
1694.495574	-3.007800	3.390400	-10.196000	25.967646	0.000625	20.764300
1695.494179	-2.986400	3.390200	-10.124000	25.924722	0.000625	20.761006
1696.491586	-2.998700	3.391100	-10.167000	25.919207	0.000624	20.779647
1697.494203	-2.973100	3.390000	-10.078000	25.956171	0.000625	20.763677
1698.496799	-3.010300	3.388100	-10.197000	25.954833	0.000622	20.756168
1699.500929	-2.993100	3.388700	-10.141000	25.955601	0.000625	20.754569
1700.495564	-3.002800	3.388400	-10.174000	25.928850	0.000620	20.750928
1701.499578	-3.014400	3.387100	-10.209000	25.908157	0.000626	20.748157
1702.499205	-3.005500	3.388100	-10.181000	25.916659	0.000623	20.735835
1703.495247	-2.998200	3.387900	-10.156000	25.907565	0.000620	20.762261
1704.501220	-2.998000	3.387300	-10.153000	25.907740	0.000621	20.760067
1705.497870	-3.010600	3.386400	-10.194000	25.905581	0.000620	20.755053
1706.498899	-2.998800	3.386400	-10.154000	25.899445	0.000621	20.760269
1707.500300	-2.998600	3.386100	-10.153000	25.929282	0.000619	20.744723
1708.499967	-2.991800	3.386500	-10.131000	25.959389	0.000619	20.759798
1709.499573	-2.996600	3.386400	-10.146000	25.951116	0.000620	20.754805
1710.502489	-2.998000	3.385900	-10.150000	25.946128	0.000618	20.751216
1711.501019	-2.995100	3.385600	-10.140000	25.927996	0.000620	20.753863
1712.502885	-2.985300	3.385800	-10.108000	25.942531	0.000619	20.741438
1713.503515	-3.016200	3.383700	-10.205000	25.942007	0.000618	20.735221
1714.507191	-3.004600	3.383500	-10.165000	25.980411	0.000616	20.756736
1715.503695	-2.998700	3.384400	-10.148000	25.966506	0.000618	20.741342
1716.504490	-2.998900	3.383200	-10.145000	25.968319	0.000619	20.758812
1717.507577	-2.953300	3.385000	-9.996200	26.015017	0.000615	20.753098
1718.505430	-2.997100	3.381800	-10.134000	26.033574	0.000618	20.744240
1719.504837	-3.009200	3.380500	-10.171000	26.061368	0.000617	20.768373
1720.504490	-2.988600	3.381900	-10.106000	26.069467	0.000614	20.761812
1721.511502	-3.015200	3.382700	-10.198000	26.083850	0.000617	20.764884
1722.507631	-3.022500	3.381600	-10.220000	26.102405	0.000612	20.748914
1723.505486	-2.985100	3.382600	-10.096000	26.034274	0.000615	20.741150
1724.510359	-3.003600	3.381100	-10.155000	25.995384	0.000612	20.742855
1725.505767	-2.999200	3.380700	-10.138000	25.963785	0.000613	20.756154
1726.506557	-2.972500	3.380500	-10.048000	25.951539	0.000609	20.737211
1727.512587	-2.995800	3.380100	-10.126000	25.937679	0.000613	20.742254
1728.508834	-3.020800	3.378100	-10.204000	25.945354	0.000612	20.757551
1729.505814	-2.985000	3.378300	-10.083000	25.935196	0.000612	20.743078
1730.511100	-3.006500	3.377600	-10.154000	25.973696	0.000613	20.733867
1731.505407	-2.992100	3.380300	-10.113000	25.952585	0.000610	20.736365
1732.506258	-3.012500	3.377400	-10.173000	25.960232	0.000612	20.736936
1733.511295	-3.018000	3.377400	-10.191000	25.995156	0.000609	20.729349
1734.507742	-3.022400	3.377500	-10.207000	25.956653	0.000608	20.730021
1735.506512	-3.013100	3.377400	-10.176000	25.959608	0.000609	20.716868
1736.507123	-2.997700	3.375600	-10.118000	25.961940	0.000609	20.740549
1737.507728	-3.003800	3.376900	-10.142000	25.991001	0.000608	20.735606
1738.508755	-2.977700	3.377500	-10.057000	26.012238	0.000607	20.731338
1739.508227	-2.965300	3.376800	-10.012000	26.067179	0.000606	20.727743
1740.508358	-2.997700	3.376700	-10.121000	26.070408	0.000606	20.739523
1741.507918	-3.000400	3.376700	-10.130000	26.086274	0.000607	20.732231
1742.511735	-2.975100	3.376200	-10.043000	26.092553	0.000607	20.731428
1743.512340	-2.998600	3.374800	-10.118000	26.108299	0.000607	20.728282
1744.510594	-2.989500	3.373000	-10.082000	26.127495	0.000605	20.741881
1745.510711	-2.992200	3.374000	-10.095000	26.154118	0.000604	20.737812
1746.515795	-2.998100	3.373100	-10.112000	26.113233	0.000602	20.749363
1747.511888	-3.001700	3.371800	-10.120000	26.092741	0.000603	20.751532
1748.511802	-2.993800	3.372800	-10.097000	26.078581	0.000602	20.739200
1749.511364	-2.994200	3.371900	-10.095000	26.021874	0.000602	20.718259
1750.514437	-3.011600	3.371600	-10.153000	26.018993	0.000604	20.714890
1751.514141	-2.985900	3.372100	-10.068000	26.061019	0.000602	20.721079
1752.513855	-3.019500	3.371500	-10.180000	26.070031	0.000603	20.732980
1753.515135	-2.989400	3.371500	-10.077000	26.104801	0.000599	20.723345
1754.515932	-3.008700	3.371600	-10.143000	26.132167	0.000598	20.748473
1755.514557	-3.007600	3.371100	-10.138000	26.112595	0.000600	20.738289
1756.515509	-3.021000	3.368800	-10.177000	26.120765	0.000598	20.744602
1757.520148	-2.968300	3.370000	-10.002000	26.122649	0.000597	20.733219
1758.515027	-2.985200	3.369300	-10.057000	26.164942	0.000597	20.743948
1759.517279	-3.003700	3.368900	-10.118000	26.171521	0.000598	20.712150
1760.517766	-2.996700	3.369400	-10.096000	26.184212	0.000597	20.733439
1761.518056	-3.008200	3.368200	-10.130000	26.204721	0.000595	20.738400
1762.521022	-2.999000	3.367800	-10.099000	26.245098	0.000595	20.735354
1763.516551	-3.017400	3.368500	-10.164000	26.229821	0.000593	20.728061
1764.517302	-3.008900	3.367100	-10.131000	26.223958	0.000594	20.751569
1765.516465	-2.987100	3.367000	-10.057000	26.198130	0.000596	20.763073
1766.518032	-2.997200	3.366900	-10.090000	26.194155	0.000595	20.755285
1767.517775	-3.002000	3.367500	-10.108000	26.201155	0.000594	20.737189
1768.518210	-2.989400	3.366700	-10.064000	26.169337	0.000593	20.717068
1769.521397	-2.992400	3.366500	-10.073000	26.157861	0.000594	20.723555
1770.518572	-2.998000	3.364800	-10.086000	26.130739	0.000592	20.736606
1771.518180	-3.008700	3.365500	-10.125000	26.119337	0.000593	20.736054
1772.521262	-3.029000	3.363300	-10.185000	26.060670	0.000593	20.731161
1773.518172	-3.012600	3.364400	-10.134000	26.031087	0.000592	20.733206
1774.518518	-3.018700	3.363500	-10.152000	26.012851	0.000589	20.746179
1775.522950	-3.000400	3.362800	-10.089000	25.987811	0.000591	20.740461
1776.518431	-2.990400	3.363000	-10.056000	25.965752	0.000590	20.725412
1777.520971	-3.007900	3.362400	-10.113000	25.964710	0.000588	20.717726
1778.523072	-3.018100	3.362100	-10.145000	25.952485	0.000587	20.741955
1779.523758	-2.998600	3.363500	-10.083000	25.995084	0.000587	20.745873
1780.521808	-3.002700	3.362900	-10.096000	26.022475	0.000587	20.724079
1781.525506	-3.039200	3.359800	-10.209000	26.067530	0.000586	20.733786
1782.521501	-2.999900	3.362900	-10.088000	26.054517	0.000585	20.741100
1783.519973	-3.001200	3.362100	-10.089000	26.029551	0.000584	20.750156
1784.523733	-2.977000	3.361900	-10.008000	26.014350	0.000585	20.709751
1785.522423	-3.017200	3.359000	-10.134000	25.962011	0.000585	20.715962
1786.525944	-2.996800	3.360100	-10.069000	25.919956	0.000584	20.728716
1787.521707	-2.982500	3.360800	-10.022000	25.882494	0.000583	20.734229
1788.525318	-2.990900	3.360800	-10.051000	25.846474	0.000584	20.735029
1789.520792	-3.008900	3.359200	-10.106000	25.858573	0.000582	20.730113
1790.523605	-2.997400	3.361100	-10.072000	25.891113	0.000580	20.721076
1791.524632	-3.024500	3.357300	-10.153000	25.918312	0.000582	20.738918
1792.522654	-3.013200	3.357100	-10.115000	25.953488	0.000580	20.721625
1793.523071	-3.009000	3.358600	-10.103000	25.968785	0.000578	20.724191
1794.526557	-3.010100	3.357700	-10.106000	26.036769	0.000581	20.728009
1795.527840	-2.995000	3.356700	-10.052000	26.060541	0.000580	20.725815
1796.527232	-2.997400	3.357100	-10.062000	26.110285	0.000580	20.716052
1797.524320	-3.007100	3.356300	-10.092000	26.123723	0.000578	20.714856
1798.523396	-3.015400	3.355400	-10.117000	26.129358	0.000580	20.710561
1799.524268	-2.986300	3.358100	-10.026000	26.135718	0.000577	20.711261
1800.523887	-3.011700	3.354300	-10.100000	26.121287	0.000578	20.724737
1801.524559	-3.019500	3.355600	-10.131000	26.099903	0.000578	20.711785
1802.524894	-3.001300	3.355100	-10.069000	26.106482	0.000576	20.722663
1803.525027	-2.993900	3.354200	-10.041000	26.144184	0.000576	20.717398
1804.526557	-3.023100	3.352800	-10.135000	26.138990	0.000574	20.697479
1805.528524	-3.039100	3.352400	-10.188000	26.143835	0.000575	20.730799
1806.534342	-2.998000	3.354800	-10.057000	26.148033	0.000575	20.720317
1807.527871	-2.997100	3.354500	-10.053000	26.125805	0.000572	20.720268
1808.530219	-3.001300	3.353000	-10.061000	26.095132	0.000574	20.722638
1809.530591	-3.002700	3.354100	-10.071000	26.038401	0.000570	20.717320
1810.528886	-2.993000	3.354400	-10.039000	26.051269	0.000572	20.719344
1811.527546	-2.999700	3.353100	-10.056000	26.078443	0.000573	20.730526
1812.530155	-2.993300	3.352200	-10.033000	26.112839	0.000573	20.725732
1813.526552	-3.006300	3.352000	-10.076000	26.130175	0.000572	20.692888
1814.532448	-3.023600	3.349800	-10.127000	26.061876	0.000573	20.716251
1815.526930	-2.986800	3.350800	-10.006000	26.025363	0.000569	20.728877
1816.530404	-3.018400	3.348700	-10.106000	25.976953	0.000570	20.712008
1817.533924	-2.983700	3.349800	-9.994600	25.954275	0.000570	20.702499
1818.531542	-3.000100	3.350400	-10.051000	25.958078	0.000566	20.712485
1819.531464	-2.994600	3.347700	-10.023000	25.980528	0.000567	20.710858
1820.531165	-3.000400	3.348900	-10.047000	26.013021	0.000568	20.716477
1821.534314	-3.020600	3.347500	-10.110000	26.074272	0.000567	20.708791
1822.538029	-3.007800	3.349000	-10.072000	26.072039	0.000564	20.703228
1823.532958	-2.991200	3.349600	-10.018000	26.074377	0.000567	20.718854
1824.535649	-3.004500	3.348000	-10.058000	26.120796	0.000565	20.694370
1825.535354	-3.002600	3.346800	-10.047000	26.112826	0.000566	20.704380
1826.536103	-3.002600	3.348400	-10.053000	26.070306	0.000563	20.703382
1827.537478	-2.981200	3.347600	-9.978100	26.043481	0.000563	20.698241
1828.535675	-3.010300	3.346800	-10.073000	26.050091	0.000563	20.713892
1829.534993	-3.021600	3.345200	-10.106000	26.054464	0.000563	20.701216
1830.536552	-3.001800	3.346200	-10.044000	26.087868	0.000561	20.700640
1831.535170	-2.998900	3.346400	-10.034000	26.107864	0.000561	20.719784
1832.534742	-3.025200	3.345500	-10.120000	26.124879	0.000563	20.700844
1833.536115	-2.985500	3.344300	-9.983100	26.139384	0.000562	20.690288
1834.535581	-2.980800	3.345300	-9.969700	26.166281	0.000560	20.705462
1835.536254	-3.002600	3.343800	-10.038000	26.210139	0.000561	20.712076
1836.537769	-3.001100	3.345500	-10.039000	26.238749	0.000557	20.688193
1837.536090	-2.993400	3.343600	-10.007000	26.247319	0.000559	20.714351
1838.536324	-3.005100	3.343000	-10.044000	26.301949	0.000560	20.716619
1839.537085	-2.998200	3.343700	-10.024000	26.304530	0.000557	20.689339
1840.540492	-3.013200	3.343500	-10.073000	26.332193	0.000558	20.722359
1841.536797	-3.001900	3.342600	-10.033000	26.339597	0.000555	20.695659
1842.539573	-3.001300	3.343100	-10.033000	26.350645	0.000556	20.703918
1843.538023	-2.993100	3.342800	-10.004000	26.350349	0.000555	20.716424
1844.539295	-2.998900	3.342100	-10.022000	26.338952	0.000558	20.719195
1845.539594	-3.002500	3.339700	-10.026000	26.392587	0.000554	20.723788
1846.540296	-3.008400	3.341100	-10.050000	26.355813	0.000554	20.723338
1847.544158	-2.979500	3.341900	-9.955000	26.351669	0.000554	20.727234
1848.541205	-2.985300	3.341100	-9.973400	26.292395	0.000553	20.716027
1849.544819	-2.976100	3.340100	-9.939700	26.223187	0.000551	20.725663
1850.542164	-2.990900	3.339600	-9.987000	26.208387	0.000551	20.719799
1851.541065	-2.980900	3.339700	-9.953400	26.236596	0.000551	20.712584
1852.539904	-2.985800	3.340000	-9.971700	26.266723	0.000552	20.702555
1853.546117	-2.996300	3.339000	-10.003000	26.256416	0.000550	20.692671
1854.542353	-2.965300	3.338600	-9.898400	26.227489	0.000549	20.710070
1855.541208	-2.992800	3.338700	-9.991300	26.188150	0.000549	20.716058
1856.545036	-3.006500	3.336300	-10.030000	26.174170	0.000550	20.696319
1857.544753	-3.006000	3.337300	-10.031000	26.156662	0.000549	20.725195
1858.542540	-2.992800	3.337400	-9.987600	26.197192	0.000549	20.708549
1859.547523	-2.969700	3.338300	-9.912300	26.204918	0.000546	20.703035
1860.549097	-2.990700	3.337500	-9.980800	26.234422	0.000545	20.696647
1861.544288	-3.014700	3.335200	-10.053000	26.250366	0.000546	20.718361
1862.543150	-3.028300	3.334900	-10.098000	26.286076	0.000546	20.708728
1863.544266	-2.982000	3.334900	-9.942100	26.314909	0.000544	20.715420
1864.545750	-2.981900	3.336000	-9.945900	26.329535	0.000545	20.711626
1865.544779	-3.014400	3.333800	-10.048000	26.366313	0.000545	20.691688
1866.546544	-2.999200	3.333400	-9.996000	26.377910	0.000543	20.705716
1867.545997	-2.998700	3.334200	-9.998000	26.417711	0.000542	20.700673
1868.546643	-3.012100	3.332900	-10.038000	26.377512	0.000543	20.692987
1869.550274	-3.022300	3.333500	-10.074000	26.335101	0.000543	20.705840
1870.546117	-3.009800	3.332200	-10.028000	26.275730	0.000544	20.713030
1871.545606	-2.997800	3.332900	-9.990300	26.256635	0.000540	20.710910
1872.547710	-3.000900	3.331500	-9.996600	26.208582	0.000540	20.688223
1873.547297	-2.998100	3.331700	-9.987500	26.194525	0.000540	20.705868
1874.546715	-2.995100	3.329700	-9.971500	26.170192	0.000539	20.714133
1875.550602	-2.983300	3.331100	-9.936200	26.150694	0.000541	20.709714
1876.550541	-2.997700	3.331600	-9.986100	26.154074	0.000539	20.715482
1877.549496	-3.011500	3.330800	-10.030000	26.185837	0.000539	20.708518
1878.551046	-3.005000	3.330600	-10.007000	26.158546	0.000539	20.708595
1879.548839	-3.016700	3.329100	-10.041000	26.172628	0.000537	20.704727
1880.548690	-3.037700	3.327700	-10.108000	26.218521	0.000537	20.714809
1881.553692	-2.998500	3.328900	-9.980200	26.196101	0.000537	20.714564
1882.547440	-3.026300	3.327100	-10.067000	26.196449	0.000536	20.699740
1883.551079	-3.003100	3.326700	-9.989000	26.158845	0.000536	20.716957
1884.548117	-3.008900	3.328000	-10.012000	26.175589	0.000536	20.718135
1885.549945	-2.984600	3.328200	-9.932600	26.190414	0.000534	20.711694
1886.547980	-2.985800	3.328400	-9.936900	26.261239	0.000532	20.707476
1887.551622	-2.975400	3.326400	-9.895600	26.258285	0.000533	20.710672
1888.550807	-2.999200	3.325200	-9.971100	26.264943	0.000532	20.729217
1889.547283	-2.990100	3.327100	-9.947900	26.223597	0.000532	20.720859
1890.548811	-3.003100	3.326400	-9.988800	26.217315	0.000530	20.711701
1891.551293	-2.982700	3.325900	-9.918800	26.206861	0.000530	20.711152
1892.565131	-3.004500	3.325200	-9.989400	26.190201	0.000531	20.705790
1893.547679	-3.008700	3.324400	-10.001000	26.200332	0.000529	20.712178
1894.548747	-3.019200	3.324100	-10.036000	26.192187	0.000528	20.722486
1895.547963	-2.998200	3.326400	-9.971000	26.247815	0.000529	20.722911
1896.553214	-3.008100	3.323300	-9.995400	26.263040	0.000529	20.701699
1897.549687	-2.996200	3.324400	-9.959400	26.249632	0.000531	20.696759
1898.551074	-3.004000	3.324100	-9.984300	26.245558	0.000526	20.722064
1899.549553	-3.001200	3.324300	-9.975900	26.248090	0.000526	20.692838
1900.550791	-3.010800	3.321300	-9.997800	26.276424	0.000528	20.714202
1901.549249	-3.018700	3.321900	-10.027000	26.301708	0.000527	20.723964
1902.549234	-3.006800	3.322500	-9.988500	26.310722	0.000524	20.723066
1903.549567	-2.993400	3.322000	-9.943000	26.319985	0.000525	20.718624
1904.548568	-2.998300	3.320700	-9.954500	26.286314	0.000525	20.709915
1905.549172	-3.004800	3.322100	-9.981500	26.300070	0.000526	20.716628
1906.562214	-3.009200	3.320700	-9.991900	26.304443	0.000523	20.712488
1907.555214	-2.991600	3.321600	-9.935600	26.307249	0.000524	20.713411
1908.549787	-3.007100	3.320000	-9.982800	26.260789	0.000523	20.715559
1909.555910	-3.015500	3.319300	-10.008000	26.295081	0.000523	20.713511
1910.550843	-3.000500	3.319700	-9.959600	26.327040	0.000524	20.718603
1911.554090	-2.988400	3.319400	-9.918500	26.357984	0.000522	20.716511
1912.551624	-2.996000	3.319600	-9.944200	26.375909	0.000523	20.725043
1913.553657	-3.006000	3.319200	-9.976100	26.365656	0.000521	20.717583
1914.550200	-3.017800	3.317700	-10.011000	26.365730	0.000520	20.741841
1915.550025	-2.993000	3.317700	-9.928500	26.356467	0.000518	20.703131
1916.554462	-2.997900	3.317200	-9.942700	26.371789	0.000520	20.739395
1917.551020	-2.971500	3.317400	-9.856000	26.329526	0.000518	20.735800
1918.553099	-2.978900	3.317500	-9.880300	26.319048	0.000517	20.715786
1919.556416	-3.003400	3.316700	-9.961100	26.298812	0.000519	20.723899
1920.551605	-2.995000	3.316900	-9.932500	26.248004	0.000517	20.709823
1921.550763	-3.018500	3.316000	-10.007000	26.250610	0.000518	20.738047
1922.550749	-3.004500	3.316400	-9.962600	26.258979	0.000518	20.719430
1923.551095	-3.001800	3.313700	-9.946700	26.266828	0.000516	20.726844
1924.550694	-3.001200	3.314700	-9.946300	26.255180	0.000513	20.731260
1925.552487	-3.023900	3.313500	-10.019000	26.268986	0.000516	20.726168
1926.552007	-3.001600	3.314200	-9.947100	26.217158	0.000515	20.728139
1927.551415	-3.010100	3.313200	-9.972700	26.241050	0.000515	20.716111
1928.553193	-2.973900	3.314500	-9.855000	26.243951	0.000513	20.720924
1929.557543	-3.017600	3.312600	-9.995000	26.284057	0.000513	20.717131
1930.553569	-2.996200	3.313800	-9.927000	26.298408	0.000511	20.726813
1931.553120	-3.001700	3.312200	-9.940900	26.316386	0.000513	20.729233
1932.552488	-3.002200	3.311400	-9.939800	26.286786	0.000511	20.751169
1933.553623	-3.008700	3.310900	-9.960700	26.302507	0.000508	20.734725
1934.551883	-3.007100	3.311800	-9.958200	26.328924	0.000510	20.730928
1935.553124	-2.998300	3.311200	-9.927300	26.302701	0.000509	20.741559
1936.552980	-2.997900	3.311000	-9.924900	26.304465	0.000510	20.742383
1937.550801	-3.007500	3.309700	-9.952800	26.327808	0.000509	20.753515
1938.556336	-2.993400	3.309800	-9.906800	26.333667	0.000507	20.752291
1939.552767	-2.981200	3.310800	-9.869000	26.368280	0.000506	20.752939
1940.555241	-2.987800	3.310200	-9.888700	26.360904	0.000505	20.740310
1941.553537	-3.001500	3.309000	-9.931400	26.396164	0.000507	20.738289
1942.551719	-2.988200	3.308900	-9.886500	26.393531	0.000505	20.745126
1943.557539	-2.981600	3.307200	-9.860100	26.420594	0.000507	20.732496
1944.556262	-2.989100	3.307700	-9.884400	26.434651	0.000505	20.772231
1945.553239	-2.999500	3.307000	-9.918000	26.440235	0.000506	20.743703
1946.552524	-3.003300	3.307700	-9.933400	26.455679	0.000503	20.740260
1947.552624	-3.026800	3.306400	-10.007000	26.478322	0.000503	20.763020
1948.555238	-3.034500	3.304900	-10.027000	26.496171	0.000504	20.745873
1949.553769	-3.031300	3.304200	-10.014000	26.452275	0.000502	20.755805
1950.553052	-3.001800	3.306600	-9.925000	26.460794	0.000502	20.744927
1951.555939	-3.009400	3.305100	-9.945000	26.449022	0.000500	20.752536
1952.554773	-3.017500	3.305100	-9.972400	26.434969	0.000499	20.759273
1953.555150	-2.989500	3.305200	-9.878700	26.447758	0.000500	20.752214
1954.554703	-2.986200	3.305600	-9.870700	26.445572	0.000499	20.726782
1955.556127	-2.986000	3.305000	-9.867800	26.446889	0.000500	20.752762
1956.554660	-3.020300	3.303500	-9.976400	26.457988	0.000500	20.768661
1957.555349	-2.990200	3.303900	-9.878600	26.490264	0.000499	20.750366
1958.556058	-2.990300	3.303500	-9.877800	26.510301	0.000497	20.740161
1959.555977	-3.004800	3.303800	-9.926200	26.538798	0.000499	20.745572
1960.557116	-2.999200	3.303300	-9.906100	26.533634	0.000497	20.748442
1961.557302	-3.001400	3.302600	-9.910800	26.556325	0.000496	20.759397
1962.557212	-2.989100	3.302800	-9.871700	26.557916	0.000495	20.742978
1963.557593	-2.997200	3.302300	-9.896800	26.532169	0.000496	20.740331
1964.558318	-2.982800	3.302000	-9.848100	26.558039	0.000493	20.761120
1965.558941	-2.982300	3.300600	-9.842700	26.549077	0.000495	20.747844
1966.559025	-3.005900	3.300200	-9.919500	26.555455	0.000494	20.762791
1967.562752	-3.016400	3.300800	-9.955600	26.539966	0.000495	20.757178
1968.562994	-2.992100	3.301800	-9.877200	26.524499	0.000494	20.765338
1969.558950	-2.993500	3.300700	-9.880300	26.471219	0.000494	20.760622
1970.562654	-3.008700	3.298800	-9.923500	26.431398	0.000490	20.766590
1971.558204	-2.986900	3.299500	-9.854500	26.409592	0.000491	20.758898
1972.561286	-3.007900	3.299900	-9.925000	26.399537	0.000490	20.775820
1973.559258	-2.994000	3.297600	-9.872400	26.410662	0.000490	20.763293
1974.561257	-3.022700	3.296400	-9.962800	26.410588	0.000491	20.766538
1975.563643	-3.003300	3.296700	-9.900400	26.356211	0.000489	20.746024
1976.561239	-2.995000	3.296700	-9.872800	26.337762	0.000489	20.754036
1977.564853	-3.006700	3.297500	-9.913800	26.333763	0.000488	20.768983
1978.562505	-2.984400	3.297500	-9.839900	26.381616	0.000485	20.772033
1979.567500	-3.002400	3.296600	-9.896900	26.377568	0.000485	20.761325
1980.566452	-2.977600	3.296400	-9.813700	26.397333	0.000487	20.766965
1981.567450	-2.978200	3.296300	-9.815700	26.430405	0.000486	20.762273
1982.565700	-2.993600	3.294800	-9.861900	26.478526	0.000485	20.776501
1983.567599	-3.007900	3.294900	-9.910400	26.507822	0.000482	20.775603
1984.565990	-2.986900	3.296100	-9.843500	26.521129	0.000484	20.773331
1985.567251	-3.001300	3.294600	-9.886900	26.478677	0.000482	20.768118
1986.565809	-2.993400	3.294300	-9.859600	26.467130	0.000483	20.774056
1987.566739	-3.001500	3.294200	-9.885800	26.426711	0.000484	20.745758
1988.565166	-2.985900	3.294000	-9.834000	26.451514	0.000482	20.772584
1989.565038	-2.994600	3.292000	-9.857600	26.477860	0.000481	20.765401
1990.568651	-2.998300	3.292600	-9.871800	26.489357	0.000478	20.782173
1991.568436	-3.001100	3.292200	-9.878900	26.528682	0.000481	20.761957
1992.567586	-3.013800	3.291900	-9.920400	26.535733	0.000481	20.776632
1993.575695	-2.994200	3.291600	-9.854400	26.570192	0.000479	20.787562
1994.568303	-2.992600	3.290200	-9.845100	26.605198	0.000479	20.759215
1995.571095	-3.007000	3.290900	-9.894500	26.615005	0.000476	20.787091
1996.568831	-3.015200	3.291200	-9.922500	26.607208	0.000480	20.798220
1997.573290	-2.986100	3.290500	-9.824200	26.656785	0.000477	20.773616
1998.575043	-2.964500	3.290000	-9.751900	26.644618	0.000474	20.773238
1999.571466	-2.979300	3.289400	-9.799100	26.623421	0.000477	20.783224
2000.574987	-2.995400	3.290500	-9.855100	26.667633	0.000473	20.786419
2001.571682	-2.991500	3.288200	-9.836000	26.689350	0.000474	20.759887
2002.570607	-2.998500	3.285900	-9.851500	26.686573	0.000473	20.786967
2003.575027	-3.013700	3.287600	-9.907100	26.665793	0.000474	20.788362
2004.571531	-2.986900	3.287400	-9.817500	26.629207	0.000476	20.790937
2005.571330	-2.995000	3.285500	-9.839100	26.585980	0.000471	20.788734
2006.571818	-3.001100	3.286700	-9.862500	26.582061	0.000471	20.782424
2007.576817	-2.989300	3.285500	-9.820200	26.584420	0.000470	20.795700
2008.575477	-2.999300	3.285900	-9.853500	26.559121	0.000470	20.771692
2009.572474	-2.997600	3.285100	-9.845700	26.548994	0.000468	20.781426
2010.575332	-2.982800	3.286300	-9.801200	26.530847	0.000470	20.791160
2011.572490	-2.947700	3.287600	-9.689300	26.529725	0.000470	20.800938
2012.573186	-2.998000	3.284300	-9.845100	26.527566	0.000467	20.789285
2013.576669	-2.993700	3.284100	-9.830200	26.513190	0.000466	20.783369
2014.573967	-3.010100	3.284600	-9.885800	26.520090	0.000466	20.805004
2015.574302	-3.025900	3.283600	-9.935400	26.533153	0.000468	20.785892
2016.573334	-3.008200	3.284100	-9.877800	26.562670	0.000465	20.809398
2017.577158	-3.004600	3.283000	-9.863500	26.569125	0.000464	20.802137
2018.576079	-3.028600	3.281800	-9.937800	26.571512	0.000463	20.782250
2019.576111	-3.006200	3.282500	-9.865700	26.598246	0.000465	20.797746
2020.577621	-3.018000	3.281900	-9.904100	26.562617	0.000463	20.802233
2021.576368	-3.028700	3.280400	-9.933600	26.494371	0.000462	20.815187
2022.575956	-3.003200	3.281700	-9.854600	26.466267	0.000462	20.795000
2023.577444	-3.022200	3.280800	-9.913700	26.452886	0.000462	20.788662
2024.576460	-3.007600	3.281600	-9.867500	26.450774	0.000462	20.796971
2025.577890	-3.033400	3.280600	-9.950100	26.510486	0.000459	20.787764
2026.576611	-3.002100	3.281300	-9.849900	26.540648	0.000462	20.801012
2027.578525	-2.985600	3.279500	-9.788900	26.570812	0.000461	20.824220
2028.577699	-2.979300	3.280900	-9.774300	26.577838	0.000458	20.792403
2029.578326	-3.009100	3.278400	-9.863900	26.597078	0.000458	20.806528
2030.582318	-3.012500	3.277500	-9.873300	26.652260	0.000458	20.815060
2031.577079	-3.007600	3.277800	-9.857100	26.696046	0.000456	20.811663
2032.578471	-3.009600	3.276700	-9.860700	26.710691	0.000457	20.799834
2033.579421	-2.985800	3.278500	-9.787700	26.707562	0.000456	20.797637
2034.581678	-3.024700	3.277600	-9.913100	26.727968	0.000455	20.815782
2035.579639	-2.999000	3.276400	-9.824600	26.727497	0.000456	20.818153
2036.582731	-2.998600	3.275900	-9.822400	26.759637	0.000454	20.823914
2037.580046	-3.007200	3.275900	-9.850500	26.760806	0.000453	20.818450
2038.579049	-2.996800	3.276000	-9.815900	26.698450	0.000454	20.788002
2039.579905	-2.993900	3.274500	-9.802100	26.668962	0.000450	20.809565
2040.579025	-2.983200	3.276100	-9.772100	26.633440	0.000453	20.814158
2041.580188	-2.995600	3.275200	-9.810100	26.632792	0.000451	20.793119
2042.581726	-3.007600	3.273800	-9.845300	26.667618	0.000450	20.800628
2043.581761	-3.012200	3.274500	-9.862400	26.675389	0.000448	20.821716
2044.582361	-2.990200	3.274000	-9.788800	26.730345	0.000451	20.830973
2045.581859	-3.007500	3.272200	-9.840600	26.751543	0.000449	20.797758
2046.581775	-3.011900	3.272400	-9.854800	26.789820	0.000448	20.801154
2047.585771	-2.991000	3.272300	-9.786000	26.816771	0.000448	20.815924
2048.583719	-3.013300	3.270200	-9.853200	26.816247	0.000447	20.822984
2049.586415	-3.009200	3.270800	-9.841800	26.838763	0.000445	20.810535
2050.584627	-2.976700	3.271100	-9.735400	26.847547	0.000446	20.821264
2051.585117	-2.997400	3.270800	-9.802900	26.846379	0.000443	20.806813
2052.585919	-2.986600	3.272000	-9.770900	26.854346	0.000444	20.814350
2053.585660	-3.004800	3.270900	-9.826700	26.813168	0.000443	20.801870
2054.587055	-2.994300	3.271100	-9.793900	26.801532	0.000444	20.815776
2055.588805	-2.979500	3.270000	-9.742100	26.757646	0.000442	20.822386
2056.587668	-2.988200	3.269500	-9.768700	26.769781	0.000441	20.814198
2057.599828	-2.966000	3.270300	-9.699000	26.780009	0.000442	20.848187
2058.589392	-2.999700	3.269000	-9.805000	26.788944	0.000442	20.825404
2059.587929	-2.988100	3.268600	-9.765200	26.820118	0.000440	20.827824
2060.589645	-2.986200	3.269000	-9.761300	26.839925	0.000439	20.818816
2061.592204	-2.989800	3.266900	-9.766700	26.848068	0.000438	20.834589
2062.588227	-3.018700	3.266200	-9.858500	26.872487	0.000438	20.826427
2063.590194	-2.961500	3.269100	-9.679900	26.888794	0.000437	20.848513
2064.589038	-2.988300	3.268500	-9.765500	26.852685	0.000436	20.830697
2065.591466	-3.012600	3.265700	-9.837500	26.875668	0.000438	20.832944
2066.593000	-3.004100	3.266500	-9.811900	26.872811	0.000435	20.836235
2067.589594	-3.009400	3.263500	-9.820200	26.885120	0.000434	20.849560
2068.590719	-2.984800	3.266000	-9.747100	26.909616	0.000434	20.846691
2069.599575	-3.005500	3.264200	-9.808000	26.888101	0.000436	20.845919
2070.590091	-3.010300	3.264100	-9.824300	26.895867	0.000432	20.847090
2071.596996	-3.006100	3.264300	-9.811800	26.913986	0.000432	20.851559
2072.590507	-3.002000	3.263200	-9.794300	26.889540	0.000430	20.850211
2073.590349	-2.994400	3.264300	-9.773700	26.851119	0.000431	20.826278
2074.594410	-2.976300	3.264700	-9.715700	26.859807	0.000430	20.834540
2075.590823	-2.993100	3.261700	-9.759900	26.872093	0.000429	20.845470
2076.591647	-3.005500	3.260900	-9.799900	26.895547	0.000430	20.846294
2077.594772	-2.993500	3.261200	-9.761700	26.911404	0.000430	20.833790
2078.594172	-3.007700	3.260900	-9.806000	26.908648	0.000427	20.841450
2079.594459	-3.000200	3.261100	-9.782600	26.947413	0.000426	20.827325
2080.596064	-3.012400	3.259900	-9.818700	26.915151	0.000425	20.842300
2081.596157	-2.947600	3.261200	-9.610600	26.892215	0.000425	20.857168
2082.598337	-2.991700	3.259600	-9.751000	26.856975	0.000424	20.832166
2083.594318	-3.000400	3.260700	-9.782200	26.822698	0.000424	20.847961
2084.593996	-2.977500	3.259700	-9.704000	26.840791	0.000423	20.837230
2085.595942	-3.014400	3.259000	-9.823100	26.852383	0.000423	20.838454
2086.595634	-3.010400	3.257700	-9.806400	26.814164	0.000423	20.828475
2087.596548	-3.005600	3.257700	-9.790500	26.855015	0.000424	20.845842
2088.597897	-3.013700	3.259100	-9.821100	26.850943	0.000423	20.838903
2089.596545	-2.999400	3.259000	-9.773000	26.878023	0.000423	20.826777
2090.597687	-2.984500	3.258700	-9.724700	26.881077	0.000420	20.842650
2091.618225	-3.004300	3.255800	-9.780600	26.842853	0.000417	20.828398
2092.598268	-3.028500	3.256100	-9.859700	26.808332	0.000417	20.820715
2093.600453	-2.978300	3.257400	-9.700600	26.788251	0.000418	20.832293
2094.607159	-2.996500	3.254600	-9.751500	26.754521	0.000417	20.815924
2095.598782	-3.005800	3.254800	-9.782800	26.798876	0.000415	20.821165
2096.600393	-2.986200	3.255300	-9.720600	26.815529	0.000415	20.809934
2097.599349	-2.992200	3.253600	-9.734400	26.855468	0.000415	20.817375
2098.600003	-2.989700	3.253800	-9.726700	26.888378	0.000411	20.817276
2099.599407	-2.996300	3.254400	-9.749800	26.913595	0.000413	20.821295
2100.600196	-3.007800	3.251900	-9.780300	26.948686	0.000412	20.807743
2101.602198	-2.976500	3.252700	-9.679900	26.951543	0.000412	20.832426
2102.599047	-3.006200	3.253100	-9.778100	26.977279	0.000410	20.813262
2103.598814	-3.001300	3.251100	-9.756400	26.984601	0.000411	20.819677
2104.604072	-2.980900	3.251500	-9.691100	27.012497	0.000410	20.806953
2105.599339	-2.991600	3.251200	-9.724500	27.018127	0.000409	20.804080
2106.600177	-2.976500	3.251500	-9.676700	27.012219	0.000408	20.802881
2107.600017	-3.004900	3.248600	-9.760400	26.974228	0.000410	20.807824
2108.600428	-2.994900	3.249400	-9.730500	26.916480	0.000408	20.786264
2109.601189	-2.989600	3.249900	-9.714100	26.870469	0.000408	20.803061
2110.601520	-3.006900	3.248900	-9.768100	26.855157	0.000406	20.809950
2111.602366	-3.006900	3.249200	-9.767800	26.863817	0.000403	20.801114
2112.601836	-3.010000	3.247700	-9.775400	26.901492	0.000405	20.790633
2113.600712	-2.998900	3.246500	-9.734700	26.915392	0.000404	20.801765
2114.603423	-2.977300	3.248200	-9.668800	26.937480	0.000403	20.785570
2115.599985	-3.007100	3.246700	-9.762400	26.965996	0.000404	20.797176
2116.601944	-3.045900	3.245200	-9.883500	26.918098	0.000400	20.808753
2117.606215	-3.006800	3.245700	-9.757500	26.891269	0.000400	20.803587
2118.605329	-3.007500	3.246000	-9.761000	26.912689	0.000399	20.798099
2119.602367	-3.002900	3.246300	-9.747300	26.897304	0.000399	20.808233
2120.604865	-2.994400	3.246800	-9.719700	26.849406	0.000397	20.787572
2121.604606	-2.998400	3.245400	-9.729500	26.780505	0.000396	20.777091
2122.603632	-2.983900	3.245200	-9.681600	26.754046	0.000395	20.791266
2123.604808	-3.010200	3.242700	-9.760100	26.736769	0.000395	20.797129
2124.605448	-3.013100	3.243100	-9.771000	26.718330	0.000398	20.792815
2125.606087	-3.017900	3.242800	-9.784600	26.698944	0.000396	20.795611
2126.605538	-2.994100	3.243100	-9.709700	26.679086	0.000394	20.802673
2127.606709	-2.995800	3.242500	-9.712800	26.652723	0.000393	20.795611
2128.609713	-3.017100	3.241500	-9.778200	26.652871	0.000396	20.763517
2129.608654	-3.012300	3.241300	-9.762200	26.677748	0.000392	20.785207
2130.608535	-2.992800	3.240900	-9.696700	26.736825	0.000391	20.793866
2131.614851	-3.005400	3.240300	-9.737600	26.807568	0.000390	20.796714
2132.609019	-2.984500	3.241500	-9.673900	26.822782	0.000391	20.769337
2133.608895	-2.994300	3.242200	-9.707200	26.850007	0.000390	20.770632
2134.610610	-3.000600	3.240000	-9.720600	26.862298	0.000386	20.815708
2135.607687	-2.997200	3.239400	-9.708300	26.889846	0.000388	20.770862
2136.607042	-2.985700	3.239500	-9.670800	26.896222	0.000387	20.790550
2137.610265	-2.995100	3.238500	-9.699000	26.865849	0.000385	20.774708
2138.608385	-2.983100	3.239000	-9.661300	26.888037	0.000385	20.784690
2139.608491	-3.023000	3.237300	-9.784300	26.926953	0.000385	20.783044
2140.609891	-3.027200	3.238000	-9.800200	26.958567	0.000385	20.769789
2141.612637	-3.011500	3.237500	-9.747800	26.911691	0.000386	20.765801
2142.611677	-2.981900	3.237500	-9.653500	26.897267	0.000383	20.773583
2143.609594	-3.002300	3.235200	-9.712300	26.872503	0.000382	20.775235
2144.611914	-3.005100	3.236500	-9.725200	26.851258	0.000380	20.777106
2145.610208	-3.006800	3.235300	-9.726800	26.871736	0.000381	20.778730
2146.609047	-3.001900	3.234300	-9.708300	26.891066	0.000382	20.786788
2147.611073	-2.986400	3.233400	-9.654800	26.844804	0.000380	20.767772
2148.613634	-2.991700	3.233000	-9.671700	26.815887	0.000379	20.771413
2149.610399	-2.989800	3.234300	-9.669100	26.771388	0.000378	20.770295
2150.617218	-2.994200	3.233200	-9.679700	26.731255	0.000378	20.770248
2151.610023	-3.002600	3.234300	-9.709600	26.748652	0.000375	20.759290
2152.610437	-2.993600	3.231600	-9.671800	26.797477	0.000376	20.779930
2153.610444	-3.013500	3.231300	-9.736800	26.799043	0.000377	20.765857
2154.612193	-3.007500	3.232200	-9.719900	26.821654	0.000376	20.780057
2155.609207	-3.017600	3.230300	-9.747000	26.800954	0.000376	20.773942
2156.608395	-2.991800	3.231800	-9.666400	26.795791	0.000374	20.772545
2157.612999	-3.021000	3.229500	-9.755200	26.811079	0.000374	20.766579
2158.610054	-3.028800	3.229300	-9.778900	26.874892	0.000374	20.784749
2159.611514	-3.002200	3.229500	-9.693700	26.919464	0.000374	20.762237
2160.616232	-2.994900	3.227500	-9.665200	26.972000	0.000371	20.764806
2161.610725	-3.007000	3.227900	-9.704400	26.977760	0.000371	20.775814
2162.609797	-3.008000	3.227000	-9.705300	26.918025	0.000369	20.779282
2163.616079	-3.013500	3.227300	-9.724400	26.887522	0.000370	20.759516
2164.611769	-3.006100	3.227400	-9.700400	26.861192	0.000370	20.772396
2165.613102	-2.983900	3.226200	-9.625600	26.871443	0.000368	20.736709
2166.614007	-3.016700	3.225600	-9.729000	26.913682	0.000369	20.761639
2167.612978	-2.990800	3.226200	-9.646800	26.912194	0.000368	20.763935
2168.618894	-2.996600	3.225800	-9.665900	26.967261	0.000368	20.778058
2169.612049	-2.992700	3.224100	-9.647500	26.975751	0.000367	20.769526
2170.613110	-3.011700	3.223900	-9.708900	27.046820	0.000367	20.746639
2171.615083	-3.011800	3.225900	-9.714300	27.056074	0.000367	20.766852
2172.612963	-3.008100	3.223900	-9.696800	27.107861	0.000366	20.753026
2173.614817	-2.994300	3.223400	-9.650000	27.116397	0.000364	20.770146
2174.617554	-2.998300	3.222800	-9.662100	27.086917	0.000361	20.756618
2175.613102	-2.996900	3.223000	-9.658100	27.088606	0.000364	20.765903
2176.620292	-2.993800	3.222400	-9.645600	27.109075	0.000359	20.747609
2177.615142	-3.013100	3.221600	-9.705100	27.158774	0.000362	20.754920
2178.618848	-3.003300	3.220900	-9.672100	27.189315	0.000359	20.767620
2179.616218	-3.003100	3.220800	-9.670800	27.163112	0.000363	20.755964
2180.614445	-3.005000	3.218900	-9.672000	27.146886	0.000360	20.761930
2181.614845	-3.003000	3.220500	-9.670200	27.075919	0.000359	20.751721
2182.618819	-2.988500	3.220700	-9.623900	27.064157	0.000358	20.739418
2183.618873	-2.990300	3.218600	-9.623100	27.050037	0.000357	20.754142
2184.617995	-2.987000	3.219700	-9.615700	27.020605	0.000357	20.754414
2185.619973	-2.976700	3.218900	-9.581100	27.016210	0.000356	20.760427
2186.621463	-3.016200	3.217000	-9.701700	26.972632	0.000356	20.749794
2187.621465	-3.009100	3.218600	-9.683000	26.966305	0.000355	20.753389
2188.621344	-3.001000	3.216100	-9.649900	26.966555	0.000351	20.749846
2189.625094	-3.014700	3.216100	-9.693800	27.017945	0.000353	20.752214
2190.622168	-3.007100	3.216900	-9.672600	27.041766	0.000352	20.754359
2191.619698	-3.011900	3.216100	-9.685300	27.126358	0.000350	20.730851
2192.621470	-2.984100	3.214700	-9.591500	27.138095	0.000351	20.756407
2193.620543	-3.001400	3.213700	-9.644900	27.102860	0.000350	20.734719
2194.622724	-2.986700	3.216600	-9.605800	27.077352	0.000349	20.753162
2195.624327	-3.006300	3.214700	-9.663100	27.044296	0.000348	20.754058
2196.624145	-3.002200	3.214000	-9.647200	26.990771	0.000348	20.756655
2197.623920	-3.007600	3.213900	-9.664800	26.956498	0.000348	20.745424
2198.628153	-3.027500	3.213000	-9.726600	26.886264	0.000347	20.752087
2199.626142	-3.000800	3.211400	-9.635800	26.882168	0.000345	20.742278
2200.625461	-3.013200	3.211300	-9.674000	26.876682	0.000345	20.741029
2201.631056	-2.966900	3.211000	-9.525600	26.882045	0.000345	20.753060
2202.626909	-2.984500	3.211800	-9.583100	26.897853	0.000347	20.742402
2203.626011	-2.992000	3.209700	-9.602400	26.924980	0.000343	20.761620
2204.628452	-3.007000	3.208600	-9.647900	26.955777	0.000343	20.752759
2205.626668	-3.005500	3.208900	-9.643100	26.942371	0.000343	20.743071
2206.627747	-3.015600	3.208200	-9.673500	26.958705	0.000342	20.748591
2207.628407	-2.981300	3.209500	-9.567500	26.924974	0.000341	20.745018
2208.632932	-3.005500	3.208600	-9.641700	26.910409	0.000340	20.717568
2209.629288	-2.996900	3.206600	-9.608600	26.875064	0.000337	20.750782
2210.629560	-3.031000	3.206600	-9.718300	26.874793	0.000338	20.726800
2211.630548	-2.999300	3.205600	-9.614000	26.924872	0.000337	20.748234
2212.630835	-2.992000	3.206700	-9.593300	26.947727	0.000338	20.743716
2213.630644	-3.003100	3.205300	-9.623900	27.011782	0.000336	20.742222
2214.632076	-2.984800	3.205600	-9.566700	27.035874	0.000337	20.765503
2215.632671	-3.012500	3.204200	-9.650500	27.085030	0.000335	20.763730
2216.637171	-2.993600	3.204900	-9.593700	27.127957	0.000333	20.752375
2217.634814	-2.992300	3.202900	-9.582700	27.191945	0.000334	20.754144
2218.634508	-3.023700	3.202200	-9.681200	27.194873	0.000333	20.752821
2219.634972	-3.003200	3.202800	-9.617200	27.166711	0.000330	20.743462
2220.640697	-2.996900	3.202200	-9.595800	27.142221	0.000332	20.732580
2221.634183	-2.986300	3.202100	-9.561300	27.078451	0.000331	20.750001
2222.635102	-2.989300	3.201600	-9.569700	27.080137	0.000329	20.737945
2223.640127	-2.993000	3.200500	-9.577400	27.109540	0.000332	20.728161
2224.633724	-2.995400	3.200900	-9.587000	27.147527	0.000329	20.735546
2225.635632	-2.987700	3.202500	-9.567200	27.161346	0.000329	20.756084
2226.636685	-2.986700	3.199500	-9.554700	27.177273	0.000327	20.736541
2227.633408	-2.995100	3.198700	-9.579600	27.171295	0.000326	20.735745
2228.635439	-3.027400	3.197200	-9.677600	27.225135	0.000325	20.736318
2229.638162	-3.004100	3.198500	-9.607900	27.224365	0.000327	20.722740
2230.638071	-2.977600	3.199800	-9.527100	27.204689	0.000327	20.738986
2231.637345	-2.988800	3.198400	-9.558500	27.219848	0.000324	20.739061
2232.640216	-2.979100	3.197400	-9.524900	27.270857	0.000324	20.735366
2233.640142	-2.992200	3.196900	-9.565400	27.304943	0.000323	20.737412
2234.639989	-3.010800	3.196600	-9.623700	27.325363	0.000323	20.750841
2235.639244	-2.994800	3.195300	-9.568900	27.295193	0.000322	20.762218
2236.639852	-2.993100	3.197300	-9.568300	27.263737	0.000321	20.754284
2237.642458	-3.009000	3.194900	-9.612600	27.295094	0.000322	20.737461
2238.641518	-2.989300	3.194400	-9.548700	27.274280	0.000319	20.745448
2239.642673	-2.997500	3.197000	-9.582500	27.274505	0.000320	20.720543
2240.640599	-2.979300	3.194100	-9.515100	27.210247	0.000319	20.737939
2241.642375	-3.008000	3.191800	-9.599400	27.173280	0.000319	20.730628
2242.642704	-3.013200	3.191000	-9.614800	27.119188	0.000319	20.747348
2243.643048	-2.997400	3.191900	-9.567000	27.134671	0.000318	20.723565
2244.644423	-3.010700	3.191200	-9.606500	27.148146	0.000315	20.719573
2245.650055	-2.995100	3.191000	-9.556000	27.137898	0.000315	20.723964
2246.643334	-3.003900	3.189500	-9.580000	27.143234	0.000316	20.730281
2247.645176	-2.988300	3.190200	-9.532300	27.153088	0.000315	20.727389
2248.648277	-2.996600	3.188900	-9.554800	27.189117	0.000315	20.738023
2249.647046	-3.011500	3.188100	-9.600200	27.211695	0.000313	20.732757
2250.646968	-2.981900	3.187700	-9.504400	27.201768	0.000315	20.723245
2251.650135	-3.002500	3.187800	-9.570600	27.208919	0.000312	20.722852
2252.646910	-2.986800	3.189000	-9.523900	27.219765	0.000312	20.726649
2253.647865	-3.020600	3.186500	-9.624400	27.199396	0.000312	20.722282
2254.648920	-2.994600	3.187200	-9.543900	27.225696	0.000309	20.735460
2255.649766	-2.997400	3.186600	-9.550000	27.281942	0.000309	20.720912
2256.648450	-2.970700	3.187300	-9.467900	27.334091	0.000309	20.703668
2257.650211	-3.004500	3.184000	-9.565500	27.367510	0.000307	20.724485
2258.648847	-2.991500	3.184100	-9.525000	27.387008	0.000307	20.700001
2259.649728	-2.999500	3.184900	-9.550900	27.388773	0.000308	20.710313
2260.650322	-2.991500	3.183800	-9.523700	27.383040	0.000308	20.723986
2261.652595	-2.977800	3.183900	-9.480700	27.385153	0.000305	20.717103
2262.650888	-3.003000	3.182500	-9.556300	27.353426	0.000304	20.712687
2263.654342	-2.961100	3.182900	-9.424000	27.329982	0.000304	20.722769
2264.653892	-2.984800	3.181500	-9.494800	27.349852	0.000305	20.706721
2265.652503	-3.023400	3.180400	-9.614100	27.370644	0.000302	20.728112
2266.650600	-3.010600	3.180200	-9.573200	27.399669	0.000304	20.716059
2267.650476	-2.995100	3.180300	-9.524300	27.428616	0.000304	20.715309
2268.653471	-3.001300	3.178500	-9.538500	27.452006	0.000302	20.717977
2269.651834	-2.976900	3.180100	-9.466400	27.455857	0.000301	20.733706
2270.654262	-2.997800	3.179600	-9.530400	27.459578	0.000300	20.714689
2271.654748	-2.991800	3.177300	-9.505100	27.426066	0.000300	20.715114
2272.652419	-2.981500	3.179000	-9.475800	27.393372	0.000300	20.701189
2273.655974	-3.028000	3.176800	-9.618300	27.324409	0.000298	20.720007
2274.658564	-2.984400	3.177400	-9.481300	27.323364	0.000299	20.708999
2275.655292	-3.003600	3.176500	-9.540200	27.267721	0.000297	20.723677
2276.654206	-3.000400	3.175300	-9.526000	27.275288	0.000297	20.701889
2277.657884	-2.982200	3.176400	-9.471100	27.287916	0.000297	20.693729
2278.654124	-2.980000	3.175900	-9.463500	27.286552	0.000294	20.699943
2279.654194	-2.995500	3.174900	-9.509000	27.269656	0.000296	20.710449
2280.656358	-2.993900	3.174200	-9.502200	27.301635	0.000292	20.713220
2281.656340	-3.015900	3.171100	-9.563300	27.321732	0.000295	20.693130
2282.660069	-3.004000	3.172800	-9.530500	27.360358	0.000293	20.706857
2283.658929	-3.018600	3.172000	-9.573000	27.351652	0.000292	20.682450
2284.658834	-3.031800	3.169200	-9.607300	27.367132	0.000292	20.701818
2285.663127	-3.020400	3.170100	-9.573500	27.414958	0.000293	20.709154
2286.659395	-3.006200	3.169600	-9.527300	27.414761	0.000291	20.705162
2287.658864	-3.016700	3.168600	-9.557800	27.444309	0.000288	20.712604
2288.661580	-3.007000	3.168600	-9.526900	27.452743	0.000290	20.720141
2289.660848	-3.011300	3.169300	-9.543300	27.426075	0.000289	20.690939
2290.659622	-2.996500	3.168700	-9.493700	27.360860	0.000289	20.697405
2291.659406	-3.007000	3.169600	-9.529600	27.331067	0.000287	20.696831
2292.658839	-3.014100	3.165900	-9.541200	27.321938	0.000288	20.707090
2293.658887	-3.007600	3.166800	-9.523100	27.313253	0.000286	20.699776
2294.659923	-3.022700	3.164700	-9.564100	27.327271	0.000286	20.685426
2295.660167	-2.977400	3.165900	-9.425100	27.351954	0.000286	20.697454
2296.664616	-3.001800	3.164900	-9.499000	27.329477	0.000286	20.695232
2297.660601	-2.997800	3.164100	-9.483300	27.320771	0.000285	20.717770
2298.662516	-2.991600	3.166100	-9.471500	27.340044	0.000284	20.722459
2299.661907	-3.002000	3.164300	-9.498200	27.283382	0.000285	20.710979
2300.659504	-2.996400	3.162100	-9.473400	27.235993	0.000285	20.704090
2301.660194	-2.991200	3.163800	-9.462700	27.222347	0.000283	20.702218
2302.665210	-3.000400	3.161800	-9.485800	27.197135	0.000283	20.714317
2303.661769	-3.013300	3.159100	-9.518100	27.224279	0.000284	20.702264
2304.661634	-3.020300	3.159000	-9.539700	27.238125	0.000281	20.710976
2305.662375	-3.004200	3.160500	-9.493600	27.222689	0.000281	20.703984
2306.661812	-2.999300	3.159400	-9.475300	27.249087	0.000282	20.699716
2307.663530	-2.990200	3.157800	-9.440700	27.261565	0.000282	20.708949
2308.662614	-2.982300	3.158700	-9.419300	27.278088	0.000281	20.702809
2309.662094	-2.998500	3.157000	-9.465200	27.319692	0.000276	20.726169
2310.665450	-3.014200	3.157600	-9.516700	27.388259	0.000277	20.705527
2311.662609	-2.986900	3.155600	-9.423500	27.419067	0.000279	20.704753
2312.663121	-2.985000	3.155200	-9.417400	27.437174	0.000277	20.709219
2313.666246	-3.012500	3.154600	-9.502300	27.438813	0.000278	20.697590
2314.662991	-2.964600	3.156000	-9.355400	27.400636	0.000276	20.709445
2315.669717	-3.010500	3.153300	-9.492400	27.341642	0.000276	20.695142
2316.670702	-3.037600	3.152600	-9.575400	27.326808	0.000277	20.694919
2317.666686	-2.960300	3.153200	-9.333700	27.356155	0.000273	20.716381
2318.669394	-2.986900	3.152700	-9.415900	27.388502	0.000273	20.717153
2319.669064	-3.023100	3.150300	-9.522900	27.391478	0.000274	20.694540
2320.668054	-3.010300	3.150200	-9.482300	27.408396	0.000270	20.702078
2321.670451	-2.992700	3.149200	-9.423400	27.431940	0.000272	20.723869
2322.668541	-3.000400	3.148000	-9.443300	27.479440	0.000274	20.713334
2323.667580	-2.995400	3.149500	-9.433200	27.464161	0.000274	20.714559
2324.668195	-2.972300	3.148500	-9.357500	27.507442	0.000270	20.709739
2325.667217	-3.026200	3.146600	-9.520100	27.518085	0.000268	20.701480
2326.668296	-3.021200	3.144700	-9.499200	27.528502	0.000269	20.691571
2327.668575	-2.999600	3.145300	-9.433500	27.560005	0.000269	20.717106
2328.670287	-3.000200	3.146500	-9.439000	27.542323	0.000266	20.698839
2329.669852	-2.995300	3.144600	-9.419000	27.543684	0.000268	20.715857
2330.670543	-2.997500	3.143300	-9.421100	27.522382	0.000267	20.724297
2331.669379	-2.996600	3.143600	-9.419300	27.505342	0.000268	20.699565
2332.669665	-2.981400	3.142100	-9.366100	27.507701	0.000265	20.708103
2333.670316	-3.028000	3.140500	-9.508300	27.513209	0.000265	20.707954
2334.673373	-3.001200	3.141300	-9.426500	27.520897	0.000264	20.700990
2335.669994	-2.997000	3.141000	-9.412100	27.485252	0.000264	20.706854
2336.669877	-3.012300	3.139900	-9.458100	27.463006	0.000264	20.708655
2337.675615	-3.000800	3.139100	-9.419100	27.447601	0.000264	20.702165
2338.671421	-3.011800	3.137300	-9.447800	27.506118	0.000262	20.724529
2339.673547	-2.989300	3.138700	-9.380500	27.571849	0.000263	20.700098
2340.676305	-2.960800	3.138700	-9.291900	27.588170	0.000262	20.715098
2341.675751	-2.994500	3.139100	-9.398500	27.574729	0.000262	20.720541
2342.672725	-3.012000	3.135500	-9.443400	27.607044	0.000261	20.713226
2343.677054	-2.994000	3.135600	-9.387500	27.643996	0.000260	20.712476
2344.677526	-2.998800	3.135900	-9.402600	27.685244	0.000260	20.714627
2345.680111	-3.013500	3.133800	-9.443000	27.693476	0.000259	20.717221
2346.675702	-3.007600	3.132700	-9.421100	27.710892	0.000260	20.707245
2347.675210	-2.993000	3.131600	-9.371600	27.698715	0.000259	20.727235
2348.677006	-2.995200	3.132100	-9.380000	27.702309	0.000260	20.738439
2349.675774	-2.989000	3.130800	-9.356200	27.661912	0.000258	20.721496
2350.677572	-3.016200	3.130400	-9.440800	27.592445	0.000257	20.713236
2351.678180	-2.996800	3.129100	-9.376300	27.571239	0.000257	20.729358
2352.676737	-2.982900	3.129400	-9.333900	27.585774	0.000257	20.719800
2353.682565	-2.971500	3.129500	-9.297400	27.635158	0.000257	20.736301
2354.677472	-2.997200	3.128400	-9.374500	27.674665	0.000258	20.720578
2355.678820	-3.002600	3.126400	-9.387000	27.651727	0.000256	20.730214
2356.682535	-3.001400	3.125100	-9.378800	27.657850	0.000255	20.745384
2357.678728	-3.005600	3.125700	-9.392900	27.644142	0.000258	20.722581
2358.678484	-3.027000	3.122500	-9.450700	27.599896	0.000255	20.703663
2359.679806	-3.010900	3.124600	-9.406500	27.600838	0.000254	20.732114
2360.681097	-2.986700	3.123500	-9.327000	27.549775	0.000255	20.735737
2361.687716	-3.000900	3.122800	-9.370600	27.580877	0.000255	20.744746
2362.680092	-2.980000	3.123200	-9.306300	27.591494	0.000254	20.719392
2363.681313	-3.017400	3.121000	-9.416900	27.577505	0.000255	20.740405
2364.686403	-3.019100	3.119400	-9.416600	27.555781	0.000255	20.729452
2365.681314	-2.999300	3.119400	-9.355900	27.521256	0.000254	20.728854
2366.684074	-2.993900	3.118300	-9.334700	27.550101	0.000253	20.726582
2367.682618	-3.013100	3.117100	-9.391200	27.478397	0.000253	20.702802
2368.680677	-2.996300	3.116500	-9.337700	27.433525	0.000250	20.743482
2369.681079	-2.984600	3.118100	-9.304700	27.416983	0.000251	20.736323
2370.681887	-2.990300	3.116700	-9.318500	27.425818	0.000249	20.728616
2371.680879	-3.003300	3.114500	-9.352000	27.430008	0.000252	20.717183
2372.682573	-2.999000	3.114700	-9.338900	27.475921	0.000252	20.755315
2373.681264	-2.999600	3.113200	-9.337900	27.480120	0.000251	20.708803
2374.682579	-2.988000	3.113000	-9.300400	27.434330	0.000251	20.716789
2375.682347	-2.995300	3.112100	-9.320600	27.400993	0.000250	20.747264
2376.682258	-3.003900	3.111700	-9.346300	27.435775	0.000250	20.747642
2377.683871	-3.021000	3.110600	-9.395800	27.513165	0.000248	20.742051
2378.684639	-2.989500	3.110400	-9.297200	27.574728	0.000247	20.729075
2379.682520	-3.023300	3.108000	-9.396000	27.614367	0.000248	20.728657
2380.683350	-2.990900	3.106900	-9.292000	27.630836	0.000249	20.722468
2381.682766	-2.978200	3.108400	-9.256100	27.639022	0.000246	20.701780
2382.682457	-2.969900	3.106800	-9.224800	27.670994	0.000247	20.739644
2383.681958	-3.019000	3.104500	-9.370600	27.719252	0.000248	20.735575
2384.682118	-2.994100	3.104300	-9.293500	27.777333	0.000245	20.740444
2385.683117	-2.998000	3.103300	-9.302700	27.806002	0.000248	20.727096
2386.682556	-2.966500	3.104000	-9.207000	27.817035	0.000246	20.740097
2387.683434	-2.995100	3.102500	-9.291200	27.791273	0.000246	20.741197
2388.691150	-3.012500	3.100400	-9.338600	27.787406	0.000246	20.723553
2389.685253	-2.981000	3.101900	-9.245300	27.815010	0.000244	20.778837
2390.684223	-3.012400	3.100500	-9.338100	27.845732	0.000243	20.750486
2391.686442	-3.001800	3.099100	-9.302300	27.919253	0.000245	20.728227
2392.682041	-2.981500	3.098800	-9.237700	27.907078	0.000245	20.742527
2393.684084	-2.983000	3.096600	-9.236800	27.904975	0.000245	20.727134
2394.689086	-3.000900	3.096300	-9.291100	27.920096	0.000242	20.729077
2395.686567	-3.009800	3.094800	-9.314500	27.953452	0.000245	20.754116
2396.685084	-2.984900	3.095300	-9.238500	27.991035	0.000244	20.745952
2397.688693	-2.997400	3.094300	-9.272600	27.960915	0.000245	20.737919
2398.690164	-2.988000	3.092000	-9.237900	27.909612	0.000245	20.741285
2399.688116	-2.981900	3.092900	-9.221600	27.899107	0.000244	20.748730
2400.691650	-2.995100	3.090700	-9.255900	27.912593	0.000244	20.742388
2401.688831	-3.019100	3.088900	-9.323300	27.939249	0.000243	20.736974
2402.686951	-2.994300	3.088600	-9.246800	27.989232	0.000243	20.745085
2403.690840	-3.000000	3.087400	-9.261400	28.010506	0.000242	20.770293
2404.690921	-3.010400	3.085500	-9.287200	27.994466	0.000242	20.761734
2405.687578	-3.004300	3.085800	-9.269700	27.965334	0.000241	20.730038
2406.688044	-3.000200	3.085300	-9.255000	27.978428	0.000242	20.744642
2407.688823	-2.956300	3.085900	-9.120800	28.007659	0.000239	20.745141
2408.689828	-2.996500	3.084300	-9.241200	28.036987	0.000240	20.747162
2409.691020	-3.008000	3.080100	-9.264300	28.033268	0.000239	20.744366
2410.689793	-3.015800	3.080900	-9.289000	28.043905	0.000240	20.748435
2411.688555	-2.975500	3.081400	-9.168000	28.045592	0.000241	20.753453
2412.689941	-2.987000	3.080700	-9.200900	28.042470	0.000240	20.747466
2413.691963	-2.981700	3.079000	-9.179700	28.067386	0.000239	20.761167
2414.690703	-2.978600	3.079600	-9.171600	28.078694	0.000238	20.749316
2415.690331	-2.996200	3.078000	-9.221300	28.114958	0.000238	20.744571
2416.695168	-2.998900	3.076800	-9.226400	28.125370	0.000240	20.741776
2417.691428	-3.001500	3.075200	-9.229400	28.163794	0.000238	20.760070
2418.691946	-3.012200	3.074700	-9.260700	28.157573	0.000237	20.759497
2419.693342	-3.016900	3.073400	-9.270800	28.169274	0.000238	20.743301
2420.696200	-3.001400	3.071400	-9.217400	28.126192	0.000237	20.741655
2421.697590	-3.000800	3.070900	-9.214000	28.047433	0.000240	20.748194
2422.694560	-3.013300	3.070100	-9.249900	28.017684	0.000240	20.763768
2423.697513	-3.014100	3.069200	-9.250000	28.011163	0.000236	20.758152
2424.696548	-3.015500	3.068300	-9.251500	27.996114	0.000237	20.749168
2425.695137	-3.007100	3.067900	-9.224300	27.941642	0.000237	20.753134
2426.695863	-3.016900	3.065900	-9.248200	27.913897	0.000235	20.763616
2427.694314	-2.997400	3.065600	-9.187300	27.947942	0.000235	20.777494
2428.695995	-3.000200	3.065900	-9.197500	27.983694	0.000237	20.759900
2429.695810	-3.007000	3.064400	-9.214100	28.034719	0.000236	20.770958
2430.695843	-2.991600	3.062600	-9.161200	28.034965	0.000237	20.772154
2431.696302	-2.999900	3.061300	-9.182200	28.049693	0.000236	20.752366
2432.695750	-3.015100	3.058100	-9.218700	28.030630	0.000236	20.770162
2433.696719	-2.993800	3.059600	-9.158900	28.007598	0.000234	20.755512
2434.696563	-3.008500	3.058900	-9.202000	27.936122	0.000234	20.767968
2435.696841	-2.992500	3.057100	-9.146900	27.894047	0.000236	20.770190
2436.696901	-2.995900	3.055900	-9.154100	27.882913	0.000235	20.757086
2437.697555	-2.999200	3.056100	-9.164700	27.927048	0.000235	20.755041
2438.698192	-3.017800	3.054200	-9.216400	27.906222	0.000234	20.785763
2439.698194	-2.998100	3.052900	-9.152300	27.871680	0.000234	20.787981
2440.699337	-2.986600	3.052200	-9.114300	27.793851	0.000233	20.765603
2441.701569	-3.010400	3.050500	-9.182000	27.758388	0.000234	20.775908
2442.699430	-2.984700	3.049500	-9.101100	27.776640	0.000234	20.775784
2443.701586	-3.000600	3.049000	-9.148200	27.770937	0.000234	20.777631
2444.699155	-2.980700	3.047900	-9.083500	27.801660	0.000233	20.785791
2445.701718	-3.007600	3.046600	-9.161400	27.818400	0.000234	20.795051
2446.701575	-2.992800	3.045600	-9.113900	27.812300	0.000232	20.792705
2447.704470	-2.986800	3.045400	-9.095200	27.837020	0.000233	20.771591
2448.701985	-3.002300	3.043200	-9.136100	27.850163	0.000232	20.783395
2449.705142	-3.000400	3.041700	-9.125300	27.843644	0.000232	20.775886
2450.705414	-2.985500	3.041000	-9.078300	27.841563	0.000232	20.769998
2451.705718	-2.989000	3.039500	-9.084100	27.835238	0.000232	20.791134
2452.706095	-3.006300	3.038800	-9.134800	27.845704	0.000233	20.790762
2453.707408	-2.996900	3.038000	-9.103400	27.841735	0.000231	20.779181
2454.708965	-2.996500	3.037000	-9.099200	27.842653	0.000230	20.768724
2455.705395	-3.024800	3.034600	-9.177900	27.847019	0.000232	20.784025
2456.705257	-3.000600	3.035400	-9.107300	27.851456	0.000234	20.788965
2457.704132	-3.013500	3.032300	-9.137500	27.883193	0.000232	20.802414
2458.707026	-2.991400	3.032400	-9.070300	27.862218	0.000229	20.777985
2459.704888	-2.990500	3.031100	-9.063500	27.837572	0.000233	20.790164
2460.704984	-2.970300	3.029200	-8.996800	27.838216	0.000230	20.796027
2461.708797	-3.014700	3.026900	-9.124200	27.808935	0.000232	20.781732
2462.705458	-2.989900	3.026300	-9.047000	27.763729	0.000231	20.779386
2463.706377	-2.987200	3.026300	-9.039100	27.805661	0.000231	20.776067
2464.707864	-2.997400	3.024100	-9.063600	27.824257	0.000229	20.799049
2465.704583	-3.027200	3.022700	-9.149100	27.839829	0.000230	20.787694
2466.705704	-3.008600	3.021300	-9.089200	27.897232	0.000229	20.812750
2467.708350	-2.995500	3.021400	-9.049900	27.921257	0.000231	20.787620
2468.705133	-2.995500	3.020400	-9.046100	27.932989	0.000229	20.798953
2469.705675	-3.007800	3.018900	-9.077900	27.949994	0.000230	20.813224
2470.710176	-2.995300	3.018000	-9.038700	28.000377	0.000233	20.797556
2471.705586	-2.984100	3.015700	-8.997500	28.052413	0.000230	20.793511
2472.704521	-3.007500	3.015400	-9.068500	28.084812	0.000228	20.793409
2473.708908	-3.024600	3.013200	-9.112500	28.042149	0.000230	20.807835
2474.707852	-2.987100	3.012800	-8.998300	27.992387	0.000230	20.818436
2475.704953	-2.998700	3.011900	-9.030500	27.971269	0.000230	20.803819
2476.709875	-3.002600	3.009000	-9.033100	27.995118	0.000233	20.795581
2477.704857	-3.004500	3.008500	-9.037200	28.004462	0.000230	20.817789
2478.705392	-2.991800	3.007400	-8.996000	28.018871	0.000229	20.816646
2479.704127	-3.000000	3.007300	-9.020900	28.042845	0.000230	20.811855
2480.706815	-2.993100	3.004200	-8.990100	28.056579	0.000232	20.816670
2481.703693	-2.996600	3.003400	-8.998400	28.064460	0.000230	20.825078
2482.707977	-2.984900	3.002800	-8.961200	28.031537	0.000229	20.816118
2483.706164	-3.031900	3.001800	-9.099800	28.055760	0.000228	20.795458
2484.706799	-3.002500	3.000000	-9.006600	28.043017	0.000231	20.812028
2485.708078	-3.042900	2.998100	-9.121800	28.030598	0.000227	20.809484
2486.710682	-3.010400	2.997000	-9.021500	28.027346	0.000230	20.796728
2487.710868	-2.965800	2.997900	-8.890200	28.079877	0.000229	20.811674
2488.711897	-3.001800	2.995900	-8.992100	28.086145	0.000231	20.821303
2489.710455	-3.033000	2.992200	-9.073500	28.135456	0.000229	20.834433
2490.710951	-3.029100	2.991600	-9.060600	28.161512	0.000228	20.803766
2491.709086	-3.001000	2.990700	-8.973700	28.154419	0.000228	20.810850
2492.710268	-2.987100	2.991600	-8.934900	28.193809	0.000229	20.803090
2493.709251	-2.994400	2.989700	-8.951500	28.200600	0.000228	20.825099
2494.710672	-2.970500	2.989000	-8.877600	28.204561	0.000228	20.833354
2495.710221	-3.020700	2.985000	-9.015100	28.181068	0.000229	20.845738
2496.711956	-2.992200	2.984500	-8.929100	28.126929	0.000226	20.809728
2497.712102	-3.012400	2.984300	-8.988400	28.062372	0.000228	20.830562
2498.712788	-3.002600	2.980800	-8.949100	28.005552	0.000227	20.828369
2499.716198	-3.020100	2.980400	-9.000000	28.003590	0.000230	20.829239
2500.717585	-3.018600	2.977400	-8.987000	28.013904	0.000229	20.820181
2501.714999	-3.003200	2.977200	-8.939900	28.085154	0.000227	20.836425
2502.715560	-3.008100	2.976600	-8.952900	28.130321	0.000228	20.837324
2503.714511	-3.022300	2.973900	-8.986000	28.191398	0.000229	20.828164
2504.717707	-3.005700	2.972600	-8.933500	28.206743	0.000230	20.841715
2505.715458	-2.989300	2.972300	-8.884600	28.208279	0.000227	20.837572
2506.716119	-2.990200	2.971000	-8.883100	28.151759	0.000230	20.835672
2507.718554	-3.002300	2.969700	-8.915400	28.175853	0.000228	20.838591
2508.716474	-3.022300	2.967400	-8.967400	28.222180	0.000229	20.851566
2509.717322	-3.020300	2.965300	-8.954500	28.249397	0.000230	20.843881
2510.718512	-3.015600	2.963000	-8.933100	28.287789	0.000227	20.824689
2511.720842	-3.020500	2.961600	-8.944100	28.316909	0.000226	20.829827
2512.721286	-3.003200	2.962200	-8.894800	28.275787	0.000229	20.857649
2513.719559	-2.978500	2.960400	-8.815500	28.276483	0.000227	20.846970
2514.721981	-2.972300	2.959700	-8.796400	28.309097	0.000228	20.837608
2515.719230	-3.010900	2.957600	-8.904200	28.335243	0.000226	20.832640
2516.719646	-2.989100	2.957100	-8.838300	28.331894	0.000226	20.842070
2517.719895	-3.005200	2.953900	-8.876000	28.359924	0.000227	20.857964
2518.720354	-2.974100	2.953300	-8.782500	28.387035	0.000229	20.846858
2519.718928	-2.997000	2.950900	-8.842000	28.371169	0.000227	20.858382
2520.720044	-3.012900	2.949600	-8.886300	28.321605	0.000228	20.847357
2521.722435	-2.980400	2.949800	-8.790600	28.247761	0.000228	20.852665
2522.721470	-2.996100	2.947800	-8.830200	28.202004	0.000228	20.862073
2523.720186	-2.973900	2.947100	-8.762300	28.179868	0.000228	20.853538
2524.721198	-2.974400	2.945000	-8.758500	28.244116	0.000228	20.852788
2525.721459	-3.016500	2.942000	-8.872700	28.287242	0.000228	20.843104
2526.723147	-2.989200	2.940100	-8.786800	28.320998	0.000225	20.869029
2527.732082	-2.996900	2.938400	-8.805000	28.338246	0.000227	20.867904
2528.721863	-3.023100	2.936700	-8.876100	28.361763	0.000226	20.854127
2529.722395	-3.002200	2.935600	-8.812300	28.360153	0.000226	20.884272
2530.725996	-2.971800	2.934800	-8.719600	28.375545	0.000227	20.861840
2531.723423	-3.014400	2.932000	-8.837200	28.369543	0.000228	20.854848
2532.723700	-2.994000	2.931200	-8.774700	28.412049	0.000227	20.864932
2533.731559	-3.028700	2.928500	-8.867500	28.431447	0.000228	20.882567
2534.731452	-2.988200	2.929100	-8.751300	28.437817	0.000228	20.856268
2535.722867	-3.012500	2.926900	-8.815100	28.464010	0.000225	20.848979
2536.727418	-2.983400	2.926800	-8.730600	28.498975	0.000224	20.873283
2537.722817	-2.989800	2.923100	-8.738300	28.499221	0.000228	20.866419
2538.725214	-3.019000	2.921000	-8.816000	28.486333	0.000227	20.850596
2539.723426	-3.027400	2.920900	-8.841800	28.480736	0.000226	20.880045
2540.726532	-2.974400	2.920700	-8.686000	28.500409	0.000228	20.841064
2541.724147	-2.993700	2.917400	-8.732600	28.538669	0.000228	20.872006
2542.725584	-3.020700	2.914200	-8.802100	28.578586	0.000227	20.836818
2543.729793	-3.035400	2.911200	-8.835200	28.546276	0.000226	20.866391
2544.724348	-3.013200	2.911900	-8.773600	28.567487	0.000226	20.874002
2545.725905	-3.008300	2.909800	-8.753000	28.582872	0.000225	20.858678
2546.735353	-2.984200	2.909100	-8.680600	28.598876	0.000227	20.861045
2547.734964	-3.004500	2.906400	-8.731500	28.617261	0.000228	20.846846
2548.730197	-2.980600	2.906100	-8.660700	28.647440	0.000224	20.865387
2549.730670	-3.004300	2.902200	-8.718300	28.665231	0.000226	20.864339
2550.736512	-2.984700	2.902400	-8.660800	28.671372	0.000230	20.862464
2551.730624	-3.005000	2.899100	-8.711500	28.681680	0.000226	20.862889
2552.734006	-2.975400	2.898700	-8.623500	28.664929	0.000227	20.836062
2553.737499	-3.014200	2.896100	-8.728300	28.582244	0.000227	20.866105
2554.728068	-3.003200	2.894700	-8.692500	28.548919	0.000227	20.858148
2555.730727	-3.008100	2.892700	-8.699500	28.513505	0.000228	20.855675
2556.728825	-3.034100	2.889300	-8.764300	28.483049	0.000225	20.861987
2557.732203	-2.997800	2.889200	-8.660500	28.440697	0.000225	20.860589
2558.739187	-2.994800	2.888500	-8.649500	28.413365	0.000224	20.856301
2559.736009	-2.987100	2.886600	-8.620700	28.351303	0.000227	20.860664
2560.733965	-2.978900	2.883800	-8.589500	28.408850	0.000226	20.856970
2561.734190	-2.997200	2.881500	-8.635500	28.431009	0.000225	20.834239
2562.733808	-3.012200	2.879000	-8.671200	28.361487	0.000226	20.847685
2563.735195	-2.989500	2.878600	-8.603900	28.309765	0.000228	20.848711
2564.735740	-2.990500	2.877100	-8.603000	28.267680	0.000225	20.831469
2565.735804	-2.989400	2.873900	-8.590100	28.254789	0.000226	20.848361
2566.739790	-2.999500	2.871900	-8.612200	28.226704	0.000223	20.835259
2567.736294	-3.019700	2.869800	-8.664400	28.224750	0.000224	20.829024
2568.732643	-3.004400	2.868100	-8.615100	28.235581	0.000225	20.833291
2569.733731	-2.992200	2.868400	-8.581600	28.245626	0.000223	20.836765
2570.732077	-3.005500	2.864700	-8.608400	28.284341	0.000225	20.820744
2571.736748	-3.012800	2.862800	-8.624100	28.314083	0.000226	20.828878
2572.735532	-3.011700	2.861100	-8.614600	28.295865	0.000224	20.828553
2573.735210	-2.999500	2.858500	-8.573400	28.264762	0.000224	20.842756
2574.740978	-3.023100	2.855300	-8.630500	28.270860	0.000224	20.850791
2575.732756	-3.007700	2.855000	-8.586400	28.300033	0.000222	20.836542
2576.734021	-2.958000	2.854700	-8.443200	28.285265	0.000224	20.811243
2577.739282	-2.998600	2.851300	-8.548800	28.336672	0.000227	20.819381
2578.738618	-3.009700	2.849300	-8.574600	28.323884	0.000227	20.813617
2579.734011	-3.000900	2.846600	-8.541200	28.332912	0.000226	20.842620
2580.735373	-3.005100	2.844300	-8.545700	28.383867	0.000225	20.838452
2581.737211	-2.987000	2.843500	-8.492800	28.415490	0.000224	20.814345
2582.737537	-2.982400	2.840800	-8.471600	28.442357	0.000222	20.842348
2583.738316	-2.987200	2.839200	-8.479100	28.479631	0.000224	20.825356
2584.740843	-2.992500	2.837800	-8.491400	28.502579	0.000223	20.825232
2585.740759	-2.983100	2.833900	-8.452500	28.547357	0.000223	20.824808
2586.738869	-2.976400	2.832800	-8.431000	28.587034	0.000227	20.813085
2587.745257	-3.007600	2.829300	-8.508300	28.592238	0.000224	20.816903
2588.742435	-2.987900	2.828200	-8.448400	28.558617	0.000224	20.823346
2589.738688	-2.996200	2.823400	-8.458000	28.532599	0.000226	20.818006
2590.742538	-2.963200	2.825700	-8.372000	28.505218	0.000224	20.800863
2591.743531	-3.018000	2.820100	-8.510000	28.447381	0.000224	20.820380
2592.739644	-3.006600	2.818600	-8.472500	28.454890	0.000225	20.805183
2593.741706	-2.985100	2.818000	-8.411100	28.472933	0.000225	20.793955
2594.743151	-2.991900	2.813500	-8.416200	28.489788	0.000224	20.823731
2595.746158	-3.000200	2.811900	-8.435400	28.527455	0.000224	20.822308
2596.743854	-3.019700	2.810200	-8.484700	28.551716	0.000225	20.815447
2597.743329	-2.999000	2.807900	-8.419700	28.573029	0.000226	20.813204
2598.745587	-2.979300	2.806600	-8.359600	28.620600	0.000224	20.806587
2599.744513	-2.991600	2.801600	-8.380700	28.648800	0.000226	20.819343
2600.748561	-2.994300	2.798900	-8.379900	28.612206	0.000224	20.802875
2601.747434	-2.992500	2.799500	-8.376100	28.652521	0.000222	20.801279
2602.745277	-2.986200	2.794200	-8.342300	28.684086	0.000222	20.797037
2603.748151	-3.004200	2.792500	-8.388500	28.682305	0.000225	20.797139
2604.748723	-3.009100	2.789400	-8.392400	28.674604	0.000225	20.797443
2605.742477	-3.006600	2.786400	-8.375800	28.648217	0.000221	20.790780
2606.749154	-3.001900	2.785200	-8.360400	28.573713	0.000223	20.796349
2607.748105	-2.998500	2.781600	-8.339500	28.534137	0.000222	20.814339
2608.745737	-2.980300	2.778900	-8.281400	28.565685	0.000224	20.811972
2609.745963	-2.992600	2.777700	-8.311700	28.621069	0.000223	20.803741
2610.744136	-2.990700	2.773000	-8.292500	28.640670	0.000224	20.818266
2611.744180	-3.003600	2.771500	-8.323400	28.667630	0.000224	20.801798
2612.745346	-2.978500	2.769400	-8.247800	28.684032	0.000223	20.796034
2613.749342	-3.003100	2.765000	-8.302900	28.689165	0.000224	20.812583
2614.746144	-3.027000	2.762500	-8.360900	28.675492	0.000223	20.816355
2615.746966	-2.990200	2.759000	-8.248900	28.642240	0.000223	20.786657
2616.747083	-3.010300	2.757000	-8.298700	28.639643	0.000226	20.800637
2617.756680	-3.011400	2.754200	-8.292700	28.669400	0.000223	20.795521
2618.747499	-2.988800	2.750300	-8.219300	28.686154	0.000223	20.790584
2619.752492	-3.005600	2.746700	-8.254000	28.637567	0.000223	20.806132
2620.750667	-2.975800	2.744200	-8.164900	28.598569	0.000224	20.784399
2621.749907	-2.996000	2.740500	-8.208800	28.577313	0.000223	20.805191
2622.755748	-2.989300	2.737100	-8.181700	28.562026	0.000222	20.803545
2623.754533	-2.989500	2.734500	-8.174100	28.511648	0.000222	20.809235
2624.749286	-3.016500	2.730600	-8.235200	28.497727	0.000224	20.795690
2625.752383	-3.004300	2.729400	-8.198000	28.554946	0.000224	20.809217
2626.752919	-2.975800	2.725700	-8.109500	28.589687	0.000225	20.787307
2627.748890	-3.023500	2.719600	-8.221800	28.650024	0.000224	20.789756
2628.748838	-3.001700	2.717300	-8.155100	28.591103	0.000220	20.781621
2629.754875	-3.005000	2.715100	-8.157800	28.606242	0.000221	20.787385
2630.750077	-2.971700	2.712100	-8.057900	28.602134	0.000221	20.798421
2631.749370	-3.027400	2.707100	-8.193600	28.600848	0.000223	20.793333
2632.752191	-3.011200	2.704100	-8.141100	28.632120	0.000224	20.792112
2633.749575	-2.981000	2.701100	-8.050800	28.685120	0.000220	20.798552
2634.748102	-3.013300	2.695800	-8.122400	28.693548	0.000224	20.788074
2635.753420	-2.985000	2.693000	-8.037700	28.715430	0.000223	20.785459
2636.749479	-3.020900	2.689200	-8.122800	28.782719	0.000225	20.787805
2637.750027	-2.990000	2.685900	-8.030000	28.751729	0.000220	20.795470
2638.752966	-2.993300	2.682300	-8.027400	28.738229	0.000221	20.777604
2639.750235	-2.991100	2.677100	-8.006500	28.743955	0.000223	20.786691
2640.750310	-3.012300	2.673500	-8.052000	28.780801	0.000224	20.771648
2641.752009	-2.957800	2.671100	-7.899800	28.826114	0.000221	20.785526
2642.751891	-2.998100	2.666800	-7.994100	28.814723	0.000221	20.774525
2643.751578	-3.006300	2.663600	-8.007000	28.827681	0.000221	20.790423
2644.750743	-3.014000	2.657000	-8.007200	28.793373	0.000221	20.753966
2645.752249	-3.004300	2.654300	-7.973200	28.795480	0.000222	20.758934
2646.753491	-2.998000	2.650000	-7.943500	28.838960	0.000223	20.783293
2647.754089	-2.997900	2.646000	-7.930800	28.847460	0.000224	20.788537
2648.753522	-2.969700	2.641600	-7.843700	28.849589	0.000223	20.774086
2649.753724	-2.985500	2.636800	-7.870700	28.857692	0.000224	20.786043
2650.752983	-2.995400	2.633300	-7.886800	28.895619	0.000225	20.770197
2651.756678	-3.033400	2.625400	-7.962600	28.905384	0.000223	20.778138
2652.756312	-2.983100	2.623300	-7.824000	28.924108	0.000224	20.785622
2653.754510	-3.012900	2.618500	-7.887800	28.971396	0.000223	20.760243
2654.756704	-2.998400	2.614300	-7.838000	28.955100	0.000223	20.770378
2655.756338	-2.976600	2.609400	-7.765600	28.949976	0.000224	20.770905
2656.755311	-3.009900	2.603100	-7.834100	28.952750	0.000225	20.767536
2657.757914	-2.987000	2.598900	-7.761500	28.986133	0.000223	20.763711
2658.759635	-2.982200	2.594300	-7.735200	28.969791	0.000223	20.779964
2659.756975	-2.991000	2.587600	-7.738600	29.004740	0.000223	20.763017
2660.762491	-2.967700	2.584700	-7.668500	28.952378	0.000222	20.760049
2661.759171	-2.989600	2.576700	-7.702400	28.945691	0.000224	20.776545
2662.757164	-3.005200	2.572200	-7.728700	28.983295	0.000224	20.756110
2663.762332	-2.996500	2.565700	-7.687700	28.988448	0.000223	20.768888
2664.759497	-2.999900	2.561300	-7.682000	29.062778	0.000224	20.766492
2665.760223	-2.998400	2.554600	-7.658900	29.089776	0.000225	20.794645
2666.756278	-2.976300	2.550100	-7.588500	29.164669	0.000223	20.776227
2667.757733	-2.994500	2.543200	-7.615200	29.169051	0.000225	20.754090
2668.758827	-2.979700	2.538800	-7.564400	29.193592	0.000225	20.770760
2669.761645	-3.024200	2.531400	-7.654900	29.197908	0.000223	20.747133
2670.759194	-3.065700	2.524500	-7.738100	29.195056	0.000224	20.754217
2671.759232	-2.999600	2.519900	-7.557100	29.203477	0.000225	20.776453
2672.760368	-2.981600	2.514500	-7.496300	29.215068	0.000224	20.758736
2673.760241	-2.997700	2.508600	-7.518800	29.233667	0.000224	20.800239
2674.759619	-2.987200	2.501300	-7.471400	29.233990	0.000226	20.764054
2675.759884	-2.976600	2.495100	-7.426000	29.281040	0.000223	20.786340
