LabVIEW Measurement	
Writer_Version	2
Reader_Version	2
Separator	Tab
Decimal_Separator	.
Multi_Headings	No
X_Columns	One
Time_Pref	Absolute
Operator	admin
Description	Clolumns are: time, Current, Voltage, Power, Battery Temp, and Chamber Temp
Date	2024/08/16
Time	13:06:06.104549407958984375
***End_of_Header***	
	
Channels	6						
Samples	1	1	1	1	1	1	
Date	2024/09/19	2024/09/19	2024/09/19	2024/09/19	2024/09/19	2024/09/19	
Time	04:59:39.0898432731628417969	04:59:39.0953702926635742188	04:59:39.105224609375	04:59:39.073070526123046875	04:59:39.073070526123046875	04:59:39.073070526123046875	
X_Dimension	Time	Time	Time	Time	Time	Time	
X0	0.0000000000000000E+0	0.0000000000000000E+0	0.0000000000000000E+0	0.0000000000000000E+0	0.0000000000000000E+0	0.0000000000000000E+0	
Delta_X	1.000000	1.000000	1.000000	1.000000	1.000000	1.000000	
***End_of_Header***							
X_Value	Untitled	Untitled 1	Untitled 2	Untitled 3	Untitled 4	Untitled 5	Comment
0.000000	0.001356	4.090300	0.005501	20.974244	0.001002	20.706831
0.997792	-3.002400	3.905200	-11.723000	20.975292	0.001003	20.720683
2.000088	-2.993800	3.897800	-11.668000	20.978810	0.001000	20.707605
2.999109	-3.003500	3.891400	-11.688000	20.991336	0.001000	20.722505
3.998248	-3.004300	3.887700	-11.679000	20.969478	0.001000	20.707755
5.001419	-2.983900	3.885600	-11.593000	20.975492	0.000999	20.711873
6.000773	-3.009700	3.880900	-11.679000	20.976540	0.000999	20.711025
7.001816	-3.018200	3.878100	-11.704000	20.994131	0.000998	20.718187
8.002154	-2.995000	3.876500	-11.609000	20.970152	0.000996	20.707954
9.000606	-3.008500	3.873000	-11.650000	20.979084	0.000994	20.724950
10.000065	-2.994700	3.872100	-11.595000	20.987394	0.000993	20.701491
11.002881	-2.995900	3.869600	-11.591000	21.009550	0.000992	20.712272
12.000670	-2.991400	3.869600	-11.574000	20.986720	0.000991	20.708878
13.001897	-2.991500	3.868500	-11.571000	21.006706	0.000993	20.703737
14.003930	-2.980500	3.865400	-11.520000	21.006780	0.000990	20.704285
15.001426	-2.995000	3.864800	-11.574000	20.998696	0.000989	20.726073
16.002450	-2.997800	3.864300	-11.581000	21.011122	0.000991	20.717164
17.004141	-2.982900	3.862900	-11.521000	21.019181	0.000989	20.713845
18.003469	-3.005800	3.861100	-11.604000	21.021801	0.000990	20.719310
19.003401	-3.021800	3.858000	-11.657000	21.030210	0.000989	20.706857
20.003992	-3.002200	3.859500	-11.586000	21.044481	0.000989	20.734883
21.003610	-2.979400	3.859600	-11.498000	21.032380	0.000988	20.704760
22.002749	-3.004800	3.857700	-11.590000	21.046153	0.000989	20.717114
23.002635	-2.998500	3.856800	-11.563000	21.052839	0.000986	20.723328
24.001161	-2.993300	3.855600	-11.539000	21.065064	0.000987	20.733186
25.002946	-3.006000	3.854600	-11.586000	21.065963	0.000989	20.706108
26.002337	-3.014400	3.854000	-11.617000	21.060798	0.000988	20.697622
27.003097	-3.013500	3.854000	-11.613000	21.105832	0.000987	20.720857
28.001681	-3.015300	3.851300	-11.611000	21.070629	0.000985	20.715991
29.002018	-3.001300	3.852000	-11.560000	21.110522	0.000987	20.727921
30.002250	-3.022200	3.851500	-11.638000	21.101016	0.000987	20.712247
31.003270	-3.010400	3.849800	-11.589000	21.128335	0.000987	20.724875
32.003283	-3.002300	3.850400	-11.558000	21.142456	0.000985	20.733311
33.003158	-3.015300	3.850400	-11.609000	21.135396	0.000986	20.719136
34.003846	-2.995400	3.848700	-11.528000	21.135421	0.000986	20.720109
35.002237	-3.001200	3.849700	-11.552000	21.145025	0.000984	20.708379
36.005809	-2.985200	3.847900	-11.486000	21.148818	0.000985	20.720234
37.003661	-3.018100	3.846300	-11.608000	21.167154	0.000985	20.730516
38.003878	-3.007800	3.847300	-11.571000	21.167379	0.000984	20.749233
39.005925	-2.992200	3.847200	-11.511000	21.168302	0.000985	20.726922
40.004658	-2.987900	3.846600	-11.492000	21.180451	0.000985	20.720108
41.006551	-2.987000	3.847100	-11.490000	21.198412	0.000984	20.742345
42.004573	-3.021400	3.844100	-11.612000	21.194446	0.000983	20.708978
43.004693	-2.979800	3.846600	-11.461000	21.201755	0.000983	20.739051
44.009778	-2.989800	3.844400	-11.493000	21.217596	0.000984	20.732137
45.005011	-2.977500	3.844000	-11.444000	21.229545	0.000984	20.728443
46.007106	-2.995500	3.844100	-11.514000	21.225978	0.000982	20.712546
47.007870	-2.982900	3.843600	-11.464000	21.246858	0.000984	20.747186
48.012437	-3.000500	3.843200	-11.531000	21.244039	0.000984	20.732986
49.008508	-3.006200	3.843000	-11.552000	21.265517	0.000984	20.743093
50.007176	-3.011500	3.842000	-11.568000	21.254766	0.000983	20.721905
51.008641	-3.016900	3.840500	-11.584000	21.260079	0.000982	20.708727
52.008428	-3.014300	3.839700	-11.574000	21.285099	0.000984	20.721430
53.011905	-3.020800	3.840900	-11.602000	21.297521	0.000983	20.723427
54.011889	-3.017600	3.838600	-11.580000	21.307948	0.000982	20.731014
55.009797	-2.992300	3.841800	-11.495000	21.304805	0.000982	20.717911
56.010056	-2.993900	3.839300	-11.494000	21.309020	0.000981	20.723077
57.011045	-3.007600	3.838800	-11.545000	21.325658	0.000981	20.729765
58.006912	-2.992000	3.838600	-11.484000	21.319147	0.000984	20.733209
59.007629	-3.012300	3.837500	-11.557000	21.359631	0.000983	20.729141
60.012341	-3.004700	3.838200	-11.532000	21.366715	0.000982	20.727693
61.008453	-2.999500	3.837100	-11.509000	21.367538	0.000984	20.738949
62.010476	-3.001100	3.837500	-11.516000	21.378737	0.000985	20.739722
63.014471	-3.025100	3.835500	-11.601000	21.379585	0.000983	20.740571
64.010019	-2.980800	3.837600	-11.438000	21.398341	0.000980	20.761708
65.015735	-2.999300	3.836600	-11.506000	21.415851	0.000982	20.731811
66.011307	-2.987400	3.835900	-11.457000	21.410163	0.000984	20.732284
67.011685	-2.968300	3.835900	-11.384000	21.400560	0.000984	20.749230
68.012774	-2.996100	3.833500	-11.485000	21.413980	0.000983	20.739422
69.013170	-2.999200	3.835100	-11.502000	21.417546	0.000984	20.755793
70.012528	-2.980000	3.834600	-11.427000	21.417795	0.000983	20.745610
71.011880	-3.001300	3.833800	-11.505000	21.445456	0.000983	20.750053
72.015741	-2.989100	3.834400	-11.460000	21.452239	0.000983	20.741193
73.011442	-2.986900	3.833200	-11.448000	21.465908	0.000985	20.753447
74.012493	-2.986700	3.832700	-11.446000	21.454583	0.000985	20.741167
75.015828	-2.985800	3.833200	-11.444000	21.478452	0.000983	20.717633
76.014070	-2.991200	3.832000	-11.460000	21.500051	0.000985	20.727392
77.013087	-3.004100	3.831800	-11.510000	21.507383	0.000983	20.735677
78.017078	-2.983400	3.832300	-11.432000	21.527235	0.000983	20.752697
79.013124	-3.001500	3.830000	-11.494000	21.522297	0.000983	20.738747
80.013809	-3.003700	3.829900	-11.501000	21.557312	0.000986	20.724945
81.023867	-2.989700	3.829400	-11.448000	21.511349	0.000984	20.753397
82.015008	-3.014700	3.829000	-11.542000	21.536363	0.000985	20.731010
83.017269	-3.027500	3.828500	-11.588000	21.540927	0.000984	20.747432
84.018949	-3.011800	3.828700	-11.531000	21.540303	0.000986	20.747282
85.014245	-2.995500	3.829100	-11.470000	21.533569	0.000985	20.748130
86.016397	-3.004100	3.829800	-11.503000	21.547985	0.000985	20.737898
87.022350	-3.009700	3.827200	-11.517000	21.557935	0.000988	20.749752
88.016492	-3.010300	3.828600	-11.524000	21.568584	0.000986	20.755193
89.017011	-3.021400	3.827400	-11.564000	21.580779	0.000986	20.757913
90.026921	-3.004900	3.827400	-11.499000	21.594047	0.000986	20.749378
91.021943	-3.017400	3.826300	-11.545000	21.577936	0.000988	20.754120
92.017859	-2.998700	3.826600	-11.473000	21.581951	0.000987	20.743438
93.021027	-3.012500	3.826000	-11.524000	21.603598	0.000987	20.757514
94.020060	-3.005100	3.827100	-11.500000	21.602700	0.000988	20.749503
95.019736	-3.001600	3.827900	-11.488000	21.638511	0.000988	20.754045
96.022833	-3.009300	3.826900	-11.514000	21.629782	0.000987	20.741042
97.019889	-2.991900	3.826500	-11.447000	21.625444	0.000988	20.761832
98.019931	-3.007500	3.825200	-11.503000	21.643697	0.000986	20.767770
99.024174	-3.001500	3.825600	-11.482000	21.663323	0.000987	20.772238
100.027978	-3.012100	3.824300	-11.518000	21.653797	0.000988	20.747057
101.020618	-2.979900	3.824900	-11.396000	21.655767	0.000989	20.751873
102.023824	-2.991100	3.823400	-11.435000	21.699381	0.000989	20.741941
103.020924	-2.999600	3.823200	-11.467000	21.700228	0.000989	20.769343
104.023469	-2.997500	3.824500	-11.463000	21.681526	0.000991	20.752048
105.026192	-2.983500	3.825100	-11.410000	21.723718	0.000990	20.771040
106.031187	-3.005900	3.822500	-11.489000	21.728380	0.000988	20.761955
107.021893	-3.001400	3.822500	-11.472000	21.739228	0.000990	20.761432
108.023501	-2.963900	3.824600	-11.334000	21.730101	0.000989	20.761307
109.021853	-2.990700	3.822500	-11.430000	21.731946	0.000991	20.757463
110.021906	-2.997600	3.822000	-11.456000	21.737706	0.000993	20.779350
111.027678	-3.004400	3.822800	-11.484000	21.738230	0.000989	20.778925
112.026162	-2.995400	3.820700	-11.442000	21.743765	0.000990	20.767396
113.024798	-3.017600	3.820700	-11.527000	21.770894	0.000990	20.775107
114.030641	-2.980600	3.822400	-11.392000	21.766157	0.000991	20.753770
115.028151	-2.996900	3.821100	-11.450000	21.775407	0.000993	20.775356
116.026907	-2.986400	3.820800	-11.408000	21.783311	0.000993	20.764775
117.027930	-2.980400	3.822000	-11.390000	21.787051	0.000993	20.779899
118.036238	-2.983200	3.819500	-11.393000	21.814902	0.000994	20.747555
119.027696	-2.986900	3.819600	-11.407000	21.816722	0.000994	20.780198
120.030014	-2.978000	3.820700	-11.377000	21.826496	0.000994	20.775281
121.030210	-3.002300	3.819000	-11.463000	21.830411	0.000993	20.778251
122.029391	-2.996800	3.818800	-11.443000	21.858485	0.000994	20.775531
123.038222	-3.007700	3.818600	-11.484000	21.873270	0.000994	20.778001
124.032471	-3.007500	3.818500	-11.483000	21.865092	0.000996	20.788782
125.032660	-2.988000	3.818800	-11.409000	21.883567	0.000995	20.790679
126.032203	-3.001400	3.817500	-11.456000	21.880873	0.000996	20.782767
127.035666	-2.976300	3.818200	-11.361000	21.889825	0.000996	20.775606
128.030816	-2.989900	3.818200	-11.414000	21.895260	0.000996	20.764451
129.034998	-2.983300	3.819100	-11.392000	21.907277	0.000998	20.790230
130.030998	-2.992900	3.818200	-11.427000	21.921712	0.000996	20.769117
131.031435	-2.979900	3.819000	-11.379000	21.922983	0.000996	20.760432
132.031369	-2.986600	3.818300	-11.401000	21.904509	0.000997	20.781770
133.032573	-3.019400	3.816600	-11.521000	21.928768	0.000997	20.784715
134.034550	-3.000100	3.815400	-11.446000	21.939762	0.001000	20.780547
135.036625	-3.030400	3.816200	-11.563000	21.910617	0.000999	20.789780
136.033008	-2.994400	3.815100	-11.423000	21.919418	0.001001	20.788633
137.036052	-3.000600	3.815900	-11.447000	21.930288	0.001002	20.783392
138.030782	-3.009200	3.815000	-11.479000	21.933853	0.001000	20.781271
139.033739	-2.996000	3.815900	-11.431000	21.935922	0.001000	20.773858
140.033308	-3.028500	3.814400	-11.551000	21.969005	0.001001	20.791801
141.031217	-3.003800	3.813900	-11.456000	21.962273	0.000999	20.786960
142.032717	-2.993700	3.814700	-11.418000	21.975412	0.001001	20.807225
143.033349	-3.003000	3.813500	-11.451000	22.004355	0.001004	20.795420
144.037316	-2.964300	3.815500	-11.309000	21.998123	0.001001	20.798664
145.034098	-2.994800	3.812700	-11.417000	22.011136	0.001003	20.784190
146.035910	-3.000100	3.813300	-11.440000	22.032176	0.001004	20.790080
147.035110	-3.007700	3.813300	-11.468000	22.016720	0.001002	20.809221
148.035044	-3.023200	3.812100	-11.522000	22.013554	0.001007	20.802733
149.037338	-3.020600	3.811900	-11.513000	22.039431	0.001006	20.791653
150.037007	-2.975900	3.814100	-11.349000	22.056382	0.001005	20.804355
151.037760	-3.010900	3.811500	-11.475000	22.047707	0.001004	20.799463
152.035469	-3.004400	3.813000	-11.455000	22.065032	0.001006	20.799264
153.033895	-2.995400	3.811800	-11.417000	22.103969	0.001005	20.824020
154.037003	-3.017300	3.809400	-11.492000	22.107633	0.001005	20.816783
155.034113	-2.988100	3.812500	-11.390000	22.116607	0.001006	20.797792
156.036249	-3.002100	3.811500	-11.442000	22.123960	0.001006	20.811792
157.034333	-2.988800	3.811000	-11.390000	22.158733	0.001009	20.798241
158.035523	-3.004100	3.810000	-11.443000	22.166660	0.001006	20.799540
159.037123	-3.008700	3.810100	-11.461000	22.172367	0.001007	20.820426
160.036973	-3.002500	3.810700	-11.441000	22.171295	0.001009	20.816034
161.037582	-3.008600	3.808300	-11.457000	22.193180	0.001009	20.788160
162.044255	-2.985300	3.811600	-11.378000	22.197841	0.001011	20.828862
163.039000	-2.982800	3.810100	-11.364000	22.207960	0.001011	20.829036
164.039011	-2.984700	3.810500	-11.371000	22.201579	0.001010	20.807475
165.039125	-3.009800	3.808600	-11.461000	22.200757	0.001009	20.827988
166.038580	-2.982300	3.809400	-11.360000	22.206839	0.001012	20.813688
167.041185	-2.998400	3.807600	-11.416000	22.204172	0.001011	20.824295
168.039893	-2.999100	3.809100	-11.423000	22.221743	0.001014	20.825292
169.040222	-3.008200	3.807100	-11.452000	22.232337	0.001014	20.816933
170.039447	-3.010900	3.807100	-11.460000	22.257535	0.001013	20.793800
171.041611	-2.996600	3.808500	-11.412000	22.248363	0.001012	20.826341
172.048295	-3.004000	3.807100	-11.435000	22.251478	0.001014	20.821400
173.038854	-2.999700	3.807800	-11.421000	22.263691	0.001015	20.821300
174.042952	-2.998000	3.806800	-11.412000	22.283630	0.001014	20.818980
175.041584	-2.976500	3.807600	-11.333000	22.296640	0.001017	20.808299
176.047171	-2.983000	3.807200	-11.356000	22.302970	0.001016	20.817482
177.044751	-2.994800	3.807200	-11.399000	22.281736	0.001017	20.824669
178.045217	-2.980900	3.806800	-11.346000	22.326248	0.001018	20.826566
179.044785	-3.007900	3.805000	-11.445000	22.302048	0.001017	20.808024
180.043820	-2.999600	3.806600	-11.417000	22.309475	0.001018	20.828737
181.044695	-3.008800	3.805300	-11.447000	22.300104	0.001019	20.839268
182.044437	-3.005700	3.804800	-11.435000	22.309849	0.001020	20.821999
183.044334	-3.004100	3.804800	-11.429000	22.331930	0.001019	20.827040
184.043149	-2.994300	3.804000	-11.389000	22.328416	0.001021	20.850547
185.042593	-3.002700	3.802300	-11.416000	22.352216	0.001021	20.824120
186.043993	-3.008700	3.803000	-11.441000	22.337013	0.001020	20.822647
187.044355	-2.985500	3.803800	-11.355000	22.369088	0.001022	20.840540
188.045712	-2.991300	3.803400	-11.375000	22.357849	0.001024	20.839243
189.044604	-3.005300	3.803300	-11.429000	22.354484	0.001022	20.819278
190.047062	-3.009900	3.802300	-11.442000	22.368241	0.001023	20.831157
191.047094	-3.019800	3.801900	-11.479000	22.380776	0.001026	20.839917
192.046244	-2.991700	3.802600	-11.375000	22.407541	0.001023	20.846330
193.045252	-2.995900	3.801700	-11.388000	22.391990	0.001023	20.838344
194.045639	-2.997400	3.801500	-11.394000	22.406071	0.001025	20.839168
195.048086	-2.996100	3.801300	-11.387000	22.426729	0.001027	20.822398
196.047262	-2.988200	3.801300	-11.358000	22.419278	0.001027	20.836747
197.047545	-2.990500	3.800900	-11.365000	22.435975	0.001026	20.831657
198.048210	-3.015300	3.800500	-11.458000	22.418232	0.001027	20.848027
199.048104	-3.017800	3.799600	-11.464000	22.463910	0.001026	20.856786
200.047014	-3.020500	3.799000	-11.473000	22.441283	0.001027	20.828437
201.045591	-2.983100	3.800000	-11.334000	22.458652	0.001028	20.853417
202.047226	-2.973100	3.800900	-11.299000	22.470712	0.001030	20.840365
203.046833	-2.997800	3.797700	-11.384000	22.461965	0.001029	20.851520
204.047812	-2.993800	3.799600	-11.374000	22.490024	0.001029	20.833627
205.050050	-3.012000	3.798000	-11.439000	22.490872	0.001031	20.839218
206.050373	-3.019600	3.798400	-11.468000	22.507093	0.001032	20.851670
207.051641	-2.991200	3.799600	-11.364000	22.513323	0.001032	20.857908
208.050659	-2.977900	3.800200	-11.315000	22.515840	0.001031	20.855688
209.050606	-2.992000	3.798200	-11.362000	22.510433	0.001032	20.855962
210.051667	-2.987300	3.798200	-11.345000	22.489352	0.001033	20.843860
211.050139	-2.976400	3.798200	-11.303000	22.499544	0.001034	20.878246
212.050942	-2.998800	3.796700	-11.385000	22.534454	0.001035	20.854416
213.049748	-3.003500	3.796900	-11.403000	22.503281	0.001034	20.856861
214.053267	-2.985700	3.798000	-11.338000	22.538216	0.001033	20.867666
215.052316	-2.993400	3.797200	-11.365000	22.558574	0.001037	20.864821
216.052954	-2.982200	3.796100	-11.320000	22.558100	0.001036	20.846330
217.054883	-2.998300	3.795200	-11.378000	22.589171	0.001036	20.850896
218.052570	-3.030300	3.796000	-11.500000	22.567992	0.001035	20.848176
219.052516	-2.999800	3.795200	-11.384000	22.572303	0.001037	20.859131
220.051903	-2.994500	3.795800	-11.365000	22.590143	0.001037	20.877946
221.051665	-3.024900	3.794700	-11.477000	22.608730	0.001037	20.865744
222.058960	-3.004100	3.793700	-11.396000	22.613066	0.001039	20.859181
223.056684	-2.991700	3.794700	-11.351000	22.634693	0.001038	20.871833
224.056518	-2.985300	3.794700	-11.326000	22.631354	0.001040	20.885557
225.056312	-2.996500	3.794600	-11.369000	22.662846	0.001039	20.886754
226.054912	-3.000700	3.794500	-11.385000	22.668327	0.001042	20.875176
227.060011	-2.998000	3.793700	-11.372000	22.664067	0.001042	20.878969
228.056121	-2.990300	3.792200	-11.338000	22.696281	0.001041	20.892743
229.060274	-3.016500	3.792100	-11.437000	22.702011	0.001043	20.879518
230.058442	-2.992900	3.794800	-11.356000	22.677671	0.001043	20.872207
231.055918	-3.021300	3.791600	-11.455000	22.702111	0.001043	20.860653
232.064791	-3.020500	3.790700	-11.449000	22.710906	0.001045	20.865194
233.061574	-2.992300	3.791800	-11.344000	22.721569	0.001045	20.868289
234.058666	-2.994700	3.792800	-11.357000	22.753183	0.001045	20.876723
235.065568	-3.006300	3.791400	-11.396000	22.754131	0.001045	20.890947
236.065266	-3.000900	3.791400	-11.376000	22.733602	0.001047	20.871808
237.063118	-3.003000	3.791800	-11.386000	22.763622	0.001047	20.887654
238.064311	-3.002300	3.791300	-11.382000	22.741052	0.001047	20.898234
239.072081	-3.015800	3.789400	-11.426000	22.755326	0.001048	20.869387
240.059166	-2.984200	3.790300	-11.310000	22.776303	0.001047	20.880442
241.063290	-2.982200	3.790800	-11.304000	22.795959	0.001050	20.894441
242.065177	-2.993000	3.790700	-11.344000	22.783030	0.001049	20.884335
243.060532	-2.993700	3.790900	-11.347000	22.800319	0.001051	20.881741
244.070539	-2.988200	3.788900	-11.321000	22.793294	0.001049	20.896987
245.066428	-3.005600	3.788200	-11.384000	22.808315	0.001051	20.883587
246.061855	-2.998700	3.789100	-11.361000	22.811629	0.001052	20.881691
247.063413	-3.007400	3.788000	-11.391000	22.835668	0.001053	20.880643
248.063912	-2.994900	3.789000	-11.346000	22.826899	0.001053	20.885134
249.060667	-3.015000	3.788500	-11.420000	22.817807	0.001054	20.885034
250.065806	-2.991600	3.789600	-11.336000	22.840053	0.001053	20.872708
251.064034	-2.996000	3.787100	-11.345000	22.850540	0.001053	20.876576
252.060472	-2.980400	3.788500	-11.291000	22.860181	0.001055	20.880069
253.065512	-2.980100	3.788200	-11.288000	22.851312	0.001053	20.870711
254.065646	-2.996300	3.786800	-11.345000	22.857939	0.001054	20.864548
255.060817	-2.977400	3.788800	-11.280000	22.870121	0.001057	20.888130
256.062156	-3.007800	3.786300	-11.387000	22.885764	0.001058	20.884362
257.062320	-2.981800	3.787900	-11.293000	22.876846	0.001058	20.878273
258.060105	-2.985600	3.785900	-11.302000	22.915580	0.001058	20.877250
259.076212	-2.991100	3.784700	-11.319000	22.936205	0.001058	20.866620
260.062493	-3.010500	3.785700	-11.396000	22.919915	0.001057	20.869739
261.061762	-2.973300	3.785900	-11.255000	22.954687	0.001061	20.862852
262.063762	-2.985000	3.785200	-11.297000	22.942035	0.001060	20.858236
263.062570	-3.017200	3.784300	-11.417000	22.960367	0.001060	20.861904
264.061153	-3.013400	3.783700	-11.400000	22.958424	0.001060	20.868966
265.065950	-2.975900	3.784500	-11.262000	22.962235	0.001061	20.879896
266.064138	-3.008700	3.784100	-11.384000	22.985026	0.001063	20.856265
267.069526	-2.999200	3.784200	-11.347000	22.985599	0.001063	20.863951
268.066164	-3.003100	3.784000	-11.363000	22.992075	0.001063	20.861431
269.066373	-3.014900	3.781900	-11.400000	22.976807	0.001061	20.851823
270.064782	-3.016700	3.783600	-11.413000	22.995712	0.001062	20.859858
271.066400	-3.012600	3.783000	-11.396000	22.989360	0.001064	20.844486
272.067431	-2.993800	3.783400	-11.325000	22.972672	0.001066	20.852422
273.065237	-3.005800	3.781300	-11.365000	22.964951	0.001064	20.852273
274.067078	-2.981600	3.783900	-11.282000	22.993022	0.001065	20.850526
275.067497	-2.992500	3.781700	-11.316000	22.999548	0.001066	20.840944
276.063091	-2.996100	3.781600	-11.329000	23.025850	0.001068	20.859710
277.069818	-3.013900	3.781200	-11.395000	23.018080	0.001066	20.843864
278.066026	-2.975000	3.780900	-11.246000	23.057282	0.001067	20.853272
279.064605	-2.980000	3.780800	-11.266000	23.059972	0.001068	20.846010
280.070213	-3.006100	3.779300	-11.360000	23.060819	0.001068	20.866298
281.065835	-3.006700	3.779600	-11.363000	23.073920	0.001070	20.844813
282.065333	-2.981400	3.781700	-11.274000	23.039700	0.001070	20.858888
283.065512	-2.980500	3.780600	-11.267000	23.041094	0.001071	20.844638
284.067341	-3.005800	3.779600	-11.360000	23.025029	0.001071	20.849404
285.067177	-2.981000	3.778800	-11.263000	23.050060	0.001072	20.856466
286.069287	-3.013800	3.778400	-11.386000	23.061691	0.001071	20.858164
287.071124	-2.966200	3.778200	-11.206000	23.080196	0.001072	20.862007
288.065229	-2.967300	3.778600	-11.210000	23.088440	0.001073	20.830440
289.068490	-2.983000	3.778400	-11.269000	23.091653	0.001072	20.813745
290.070456	-2.982200	3.776800	-11.260000	23.095962	0.001073	20.856941
291.065823	-2.967400	3.779800	-11.215000	23.084630	0.001074	20.842268
292.067333	-3.007100	3.776100	-11.353000	23.097730	0.001073	20.842592
293.069477	-3.005000	3.775200	-11.344000	23.085427	0.001076	20.835481
294.064674	-2.998100	3.775400	-11.318000	23.087669	0.001076	20.850528
295.065630	-2.990100	3.776000	-11.290000	23.092599	0.001075	20.840771
296.072686	-2.990600	3.775400	-11.290000	23.075814	0.001078	20.835805
297.065702	-3.017600	3.774900	-11.390000	23.073373	0.001075	20.840946
298.072663	-3.021500	3.775900	-11.409000	23.050808	0.001076	20.828294
299.069396	-2.987700	3.776000	-11.280000	23.030758	0.001077	20.843765
300.071809	-2.991900	3.775500	-11.293000	23.025653	0.001076	20.816365
301.074164	-3.000900	3.775700	-11.330000	23.021219	0.001077	20.826147
302.076511	-2.993600	3.773600	-11.295000	23.031182	0.001076	20.839922
303.072481	-3.030100	3.773200	-11.432000	23.065178	0.001078	20.820408
304.071685	-3.012600	3.774200	-11.369000	23.050807	0.001079	20.827345
305.076300	-3.001300	3.773000	-11.323000	23.054345	0.001081	20.812872
306.071574	-2.989100	3.773200	-11.276000	23.100320	0.001080	20.835231
307.076996	-3.002200	3.772800	-11.325000	23.097182	0.001080	20.831138
308.072855	-3.014800	3.769500	-11.363000	23.097058	0.001079	20.827220
309.073605	-3.021400	3.772300	-11.396000	23.147165	0.001081	20.821006
310.082262	-3.013900	3.772500	-11.369000	23.145596	0.001081	20.826546
311.074197	-2.993100	3.771300	-11.287000	23.140939	0.001081	20.817612
312.073839	-2.999400	3.771400	-11.310000	23.123157	0.001082	20.825398
313.077708	-3.009100	3.770300	-11.345000	23.112897	0.001083	20.816065
314.074440	-2.983000	3.772400	-11.252000	23.120343	0.001083	20.825897
315.075518	-3.008100	3.770300	-11.341000	23.120567	0.001084	20.845561
316.078609	-3.037200	3.768900	-11.446000	23.122784	0.001083	20.818860
317.075297	-2.975800	3.771700	-11.223000	23.130205	0.001086	20.822029
318.075119	-2.973000	3.771600	-11.212000	23.147838	0.001086	20.808404
319.076049	-3.000900	3.768900	-11.309000	23.162406	0.001087	20.804985
320.079563	-3.000700	3.770300	-11.312000	23.188978	0.001085	20.829241
321.073767	-3.002600	3.767900	-11.313000	23.200184	0.001086	20.802065
322.079555	-3.024300	3.766900	-11.391000	23.231313	0.001086	20.830415
323.077880	-2.989200	3.768400	-11.263000	23.252803	0.001088	20.806433
324.079726	-3.011400	3.768000	-11.345000	23.283282	0.001087	20.811374
325.081213	-3.003700	3.768500	-11.318000	23.306614	0.001090	20.822903
326.077743	-2.997500	3.768500	-11.294000	23.315031	0.001088	20.803364
327.079609	-2.990500	3.766900	-11.264000	23.306639	0.001088	20.810126
328.080564	-3.011000	3.766400	-11.339000	23.276634	0.001088	20.826048
329.077325	-2.997800	3.767000	-11.292000	23.285175	0.001087	20.818013
330.077232	-3.005500	3.765600	-11.316000	23.316475	0.001090	20.814294
331.079730	-2.995500	3.766100	-11.280000	23.293965	0.001088	20.810700
332.077735	-2.986800	3.765600	-11.246000	23.321531	0.001089	20.811774
333.079506	-2.997200	3.764900	-11.283000	23.332311	0.001091	20.813570
334.082386	-2.981900	3.766400	-11.230000	23.349542	0.001092	20.829417
335.078719	-3.003000	3.764400	-11.302000	23.336221	0.001091	20.822704
336.080725	-2.975100	3.765000	-11.200000	23.330170	0.001091	20.820433
337.079758	-3.013800	3.762500	-11.337000	23.348147	0.001094	20.818062
338.080842	-3.004100	3.763800	-11.306000	23.377429	0.001092	20.794779
339.080013	-3.014500	3.763200	-11.343000	23.363361	0.001094	20.813870
340.080909	-3.005900	3.763300	-11.310000	23.381637	0.001093	20.834083
341.078453	-3.003800	3.763000	-11.302000	23.372946	0.001093	20.809726
342.078988	-3.002400	3.762800	-11.296000	23.384426	0.001093	20.802740
343.083013	-2.996000	3.763800	-11.274000	23.401854	0.001094	20.811199
344.079177	-2.986600	3.762800	-11.236000	23.372972	0.001096	20.807381
345.080294	-3.013400	3.761900	-11.334000	23.366797	0.001094	20.816839
346.082653	-2.988700	3.763000	-11.245000	23.379993	0.001095	20.803987
347.080482	-2.987000	3.762000	-11.236000	23.376756	0.001094	20.814493
348.080320	-3.009900	3.761600	-11.320000	23.366025	0.001095	20.795677
349.081931	-3.006700	3.760900	-11.306000	23.352056	0.001095	20.795427
350.080957	-2.996200	3.760800	-11.266000	23.358106	0.001096	20.799594
351.082840	-2.990900	3.760200	-11.245000	23.383752	0.001095	20.801590
352.085290	-2.991900	3.759600	-11.247000	23.365749	0.001095	20.806780
353.080331	-2.994900	3.759200	-11.258000	23.388034	0.001097	20.807779
354.083389	-3.019100	3.758600	-11.345000	23.410467	0.001097	20.803237
355.081945	-3.000000	3.758000	-11.272000	23.435589	0.001098	20.806606
356.083724	-2.987600	3.758700	-11.229000	23.422667	0.001097	20.816887
357.083580	-2.991400	3.757900	-11.241000	23.451821	0.001097	20.803436
358.083970	-2.984100	3.758200	-11.213000	23.434618	0.001099	20.797572
359.083193	-2.999600	3.757100	-11.268000	23.443157	0.001099	20.802337
360.082861	-2.980300	3.758000	-11.199000	23.453266	0.001101	20.807254
361.090106	-2.994200	3.756200	-11.246000	23.430086	0.001099	20.798245
362.083818	-2.990600	3.756900	-11.234000	23.416541	0.001100	20.787040
363.085202	-3.004700	3.756200	-11.285000	23.412134	0.001100	20.794001
364.085161	-3.000800	3.756400	-11.271000	23.431355	0.001100	20.788137
365.085299	-2.985300	3.756200	-11.212000	23.445895	0.001100	20.811720
366.084916	-2.993100	3.755300	-11.238000	23.422765	0.001102	20.798494
367.086393	-2.980100	3.755000	-11.189000	23.422541	0.001102	20.787837
368.084837	-2.984900	3.754500	-11.206000	23.418233	0.001101	20.799167
369.084600	-3.011900	3.753400	-11.303000	23.417661	0.001102	20.783894
370.086268	-3.016000	3.753100	-11.319000	23.434840	0.001102	20.779302
371.084423	-3.003600	3.755100	-11.277000	23.437080	0.001104	20.803359
372.084640	-3.000900	3.752300	-11.258000	23.469720	0.001102	20.799092
373.086948	-3.024500	3.752300	-11.348000	23.481048	0.001104	20.808550
374.086344	-3.001900	3.753100	-11.265000	23.505073	0.001102	20.777630
375.088766	-2.968900	3.753500	-11.143000	23.513787	0.001102	20.807227
376.087512	-2.980900	3.753500	-11.188000	23.543088	0.001104	20.779701
377.086959	-3.016800	3.751200	-11.315000	23.561336	0.001105	20.814588
378.085267	-2.972300	3.751500	-11.150000	23.581351	0.001104	20.805729
379.089475	-3.000700	3.751300	-11.256000	23.585558	0.001104	20.792403
380.086493	-3.012900	3.749500	-11.296000	23.595665	0.001106	20.806802
381.086143	-2.970700	3.751800	-11.143000	23.593648	0.001107	20.806203
382.087222	-2.988400	3.750100	-11.205000	23.581251	0.001106	20.797568
383.089130	-3.003200	3.749400	-11.259000	23.541594	0.001105	20.769668
384.089799	-3.006600	3.750600	-11.276000	23.533403	0.001106	20.773785
385.094295	-2.999100	3.749200	-11.243000	23.539676	0.001107	20.772961
386.090419	-2.998500	3.748300	-11.238000	23.544183	0.001106	20.772263
387.089932	-2.991300	3.750100	-11.216000	23.522872	0.001108	20.794997
388.089195	-3.018900	3.748900	-11.316000	23.538556	0.001108	20.785115
389.092865	-3.008500	3.748500	-11.276000	23.545627	0.001107	20.796470
390.096222	-2.998600	3.747600	-11.236000	23.523594	0.001107	20.767271
391.092850	-3.013400	3.746500	-11.289000	23.530938	0.001107	20.791229
392.097737	-3.002400	3.747400	-11.250000	23.562531	0.001105	20.788285
393.092388	-2.981800	3.747500	-11.173000	23.577268	0.001110	20.777454
394.093866	-3.007400	3.747000	-11.268000	23.588146	0.001109	20.779350
395.102992	-2.993400	3.746400	-11.213000	23.572836	0.001108	20.790555
396.094597	-2.997100	3.746700	-11.228000	23.580155	0.001110	20.778926
397.095380	-2.996400	3.746100	-11.223000	23.574878	0.001108	20.797817
398.095967	-3.004500	3.745200	-11.252000	23.553892	0.001110	20.772513
399.097059	-2.987600	3.745100	-11.188000	23.587026	0.001111	20.788184
400.098567	-3.006600	3.744200	-11.257000	23.609580	0.001112	20.778078
401.100379	-2.992600	3.744100	-11.204000	23.623123	0.001111	20.771265
402.105016	-3.013100	3.745100	-11.284000	23.647492	0.001113	20.768195
403.099867	-3.003300	3.743300	-11.241000	23.662926	0.001111	20.772288
404.102931	-3.010000	3.742900	-11.265000	23.652072	0.001111	20.776105
405.101388	-2.987400	3.742700	-11.180000	23.675994	0.001112	20.751724
406.103282	-2.994600	3.742200	-11.206000	23.669248	0.001110	20.767246
407.107217	-2.997800	3.741100	-11.215000	23.698645	0.001112	20.764002
408.105132	-3.015100	3.740400	-11.276000	23.723213	0.001113	20.778676
409.101597	-3.023400	3.741400	-11.311000	23.741607	0.001112	20.787635
410.105371	-3.015300	3.741700	-11.282000	23.771077	0.001114	20.763602
411.102752	-3.028000	3.741200	-11.327000	23.745441	0.001112	20.778676
412.102329	-3.013000	3.740200	-11.269000	23.738870	0.001112	20.763553
413.105366	-3.003000	3.740900	-11.232000	23.728789	0.001114	20.760084
414.111081	-2.979800	3.740900	-11.146000	23.764631	0.001111	20.768045
415.104567	-3.015000	3.738600	-11.270000	23.733368	0.001112	20.784116
416.112014	-2.991500	3.740500	-11.189000	23.738794	0.001112	20.779599
417.105669	-3.004300	3.739300	-11.233000	23.766995	0.001113	20.770415
418.107262	-2.977000	3.738800	-11.129000	23.756591	0.001113	20.753345
419.106282	-2.978300	3.740400	-11.138000	23.730730	0.001114	20.784315
420.106556	-3.002400	3.737300	-11.220000	23.735857	0.001113	20.789456
421.105420	-2.989200	3.738600	-11.175000	23.734662	0.001111	20.768343
422.105444	-2.983300	3.738500	-11.152000	23.760400	0.001113	20.775656
423.105775	-2.985600	3.739200	-11.163000	23.772272	0.001116	20.761481
424.106096	-2.995600	3.737600	-11.194000	23.751513	0.001114	20.769117
425.105706	-2.982200	3.737200	-11.144000	23.741108	0.001112	20.748253
426.106749	-2.987200	3.737000	-11.162000	23.744942	0.001116	20.764899
427.109410	-2.983100	3.737600	-11.148000	23.763236	0.001116	20.769491
428.108675	-2.979500	3.736600	-11.132000	23.775606	0.001115	20.760083
429.110334	-2.986000	3.735700	-11.154000	23.779887	0.001114	20.761056
430.117726	-2.974100	3.735500	-11.107000	23.772370	0.001115	20.765372
431.109717	-2.978300	3.734900	-11.122000	23.797409	0.001116	20.772460
432.108994	-3.002000	3.733900	-11.208000	23.800047	0.001116	20.752345
433.110412	-2.995100	3.734000	-11.182000	23.817917	0.001115	20.755090
434.117723	-2.986600	3.734200	-11.151000	23.788025	0.001114	20.737445
435.109760	-2.976600	3.734000	-11.114000	23.758879	0.001114	20.770338
436.111147	-2.985900	3.733700	-11.147000	23.764255	0.001113	20.770512
437.117295	-2.979200	3.733600	-11.122000	23.735755	0.001117	20.755688
438.111019	-3.015200	3.730500	-11.248000	23.768337	0.001115	20.751845
439.110730	-2.997700	3.732800	-11.187000	23.771821	0.001115	20.735423
440.109814	-2.990300	3.732300	-11.160000	23.797457	0.001115	20.756860
441.109244	-2.977100	3.732900	-11.112000	23.828892	0.001115	20.743334
442.110027	-2.999200	3.732100	-11.193000	23.862690	0.001117	20.756361
443.113865	-2.983700	3.731200	-11.132000	23.881504	0.001115	20.758632
444.111656	-2.985200	3.730400	-11.135000	23.891062	0.001116	20.742136
445.111551	-2.985600	3.729800	-11.134000	23.918885	0.001115	20.757708
446.114656	-2.977600	3.731600	-11.110000	23.905047	0.001118	20.752368
447.114642	-2.982500	3.730200	-11.125000	23.915699	0.001116	20.756885
448.112792	-3.002400	3.728900	-11.195000	23.904649	0.001117	20.751019
449.112939	-2.984700	3.729100	-11.129000	23.963779	0.001118	20.736346
450.113531	-2.999800	3.727100	-11.180000	23.938992	0.001119	20.738517
451.115645	-3.004400	3.728900	-11.203000	23.963555	0.001117	20.758407
452.113589	-2.995400	3.728600	-11.166000	23.958876	0.001117	20.729058
453.114287	-2.995200	3.728500	-11.167000	23.970373	0.001117	20.750545
454.113702	-3.007300	3.727400	-11.209000	23.974703	0.001117	20.736395
455.115089	-3.014600	3.725100	-11.229000	23.963481	0.001117	20.739840
456.114195	-2.991400	3.727600	-11.150000	24.003745	0.001119	20.729009
457.114410	-3.003300	3.727300	-11.193000	23.993641	0.001120	20.736420
458.115678	-2.982000	3.725800	-11.109000	23.990033	0.001118	20.747501
459.115637	-3.004100	3.725200	-11.190000	23.989958	0.001120	20.749323
460.125673	-3.017400	3.723800	-11.235000	23.989062	0.001118	20.749847
461.114508	-2.993500	3.724900	-11.150000	24.005760	0.001120	20.732452
462.114083	-2.999700	3.723800	-11.169000	24.031490	0.001119	20.745928
463.116262	-2.996300	3.723900	-11.157000	24.062893	0.001119	20.725738
464.116337	-3.002500	3.724300	-11.180000	24.051696	0.001119	20.719249
465.117238	-3.009600	3.722600	-11.201000	24.074190	0.001118	20.747026
466.117158	-3.015200	3.724100	-11.227000	24.047963	0.001119	20.728783
467.116880	-3.005000	3.722800	-11.186000	24.032834	0.001118	20.741112
468.120701	-3.006600	3.721400	-11.188000	24.046296	0.001119	20.723792
469.117901	-2.978400	3.722800	-11.087000	24.043584	0.001120	20.720123
470.117361	-3.001700	3.722000	-11.172000	24.024324	0.001119	20.738267
471.120095	-2.994500	3.722900	-11.147000	24.051870	0.001120	20.728434
472.122641	-2.985400	3.721700	-11.110000	24.069811	0.001120	20.752118
473.118182	-3.015500	3.720900	-11.219000	24.069736	0.001119	20.744456
474.121429	-3.013900	3.720200	-11.211000	24.097729	0.001121	20.763522
475.119621	-3.004200	3.720300	-11.175000	24.112758	0.001120	20.722643
476.121979	-2.993100	3.721500	-11.138000	24.096013	0.001120	20.726711
477.122964	-3.014700	3.720800	-11.216000	24.071578	0.001120	20.737768
478.120610	-2.986200	3.719800	-11.106000	24.048959	0.001120	20.734997
479.119000	-3.011600	3.717700	-11.195000	24.026240	0.001120	20.721221
480.123888	-3.018600	3.718100	-11.222000	24.045127	0.001122	20.715980
481.120234	-3.000000	3.717500	-11.151000	24.055852	0.001121	20.738591
482.121104	-3.013900	3.718300	-11.205000	24.036294	0.001119	20.735098
483.124452	-3.002300	3.717400	-11.158000	24.006358	0.001121	20.734000
484.121266	-3.015900	3.716700	-11.208000	24.009493	0.001121	20.735247
485.122473	-3.010200	3.716300	-11.186000	24.004616	0.001121	20.741736
486.122892	-3.027800	3.716100	-11.250000	24.037090	0.001121	20.729733
487.125033	-2.999500	3.716600	-11.147000	24.043635	0.001120	20.735348
488.126634	-3.003100	3.716600	-11.160000	24.077526	0.001121	20.732827
489.126174	-2.998600	3.715500	-11.141000	24.069489	0.001119	20.721922
490.128216	-2.983500	3.715600	-11.085000	24.112512	0.001121	20.720025
491.125320	-3.018400	3.714600	-11.211000	24.132019	0.001121	20.725840
492.126318	-2.994500	3.715400	-11.123000	24.147023	0.001121	20.744209
493.127809	-3.008500	3.713000	-11.169000	24.115623	0.001122	20.737845
494.125336	-3.019300	3.713900	-11.212000	24.127417	0.001120	20.737346
495.130911	-2.996300	3.714000	-11.127000	24.111393	0.001120	20.724594
496.124917	-3.007100	3.713800	-11.167000	24.130154	0.001121	20.716856
497.123222	-3.016400	3.712900	-11.198000	24.096913	0.001120	20.741840
498.129035	-2.979400	3.713100	-11.062000	24.079271	0.001124	20.713713
499.130424	-2.987700	3.713300	-11.093000	24.096465	0.001121	20.734278
500.128682	-2.968900	3.713700	-11.025000	24.116918	0.001121	20.741990
501.128176	-2.983500	3.711900	-11.073000	24.144612	0.001122	20.725668
502.129830	-2.973400	3.713600	-11.040000	24.144762	0.001122	20.735302
503.129685	-2.981500	3.711800	-11.066000	24.146055	0.001121	20.752247
504.130738	-2.990100	3.710400	-11.093000	24.173301	0.001121	20.735477
505.134480	-2.985300	3.710900	-11.076000	24.196888	0.001122	20.753446
506.129293	-3.013000	3.709800	-11.177000	24.174445	0.001119	20.732831
507.131790	-3.000300	3.710100	-11.130000	24.162875	0.001122	20.732607
508.135921	-3.002000	3.709000	-11.133000	24.157402	0.001120	20.753196
509.130665	-2.981400	3.710000	-11.060000	24.139637	0.001122	20.742490
510.133986	-2.981200	3.710200	-11.060000	24.139487	0.001122	20.729537
511.135454	-2.956200	3.710400	-10.967000	24.140408	0.001121	20.746583
512.135171	-2.993600	3.709100	-11.103000	24.147101	0.001122	20.731484
513.135255	-3.001000	3.709100	-11.128000	24.122020	0.001121	20.723398
514.134034	-2.953900	3.709000	-10.955000	24.149515	0.001121	20.724421
515.134511	-2.967600	3.709000	-11.005000	24.137919	0.001121	20.750725
516.146611	-3.005100	3.708400	-11.143000	24.178899	0.001121	20.758163
517.137627	-3.026600	3.706000	-11.215000	24.164543	0.001123	20.717683
518.132843	-2.996000	3.706000	-11.102000	24.177307	0.001124	20.735702
519.138689	-3.000600	3.705300	-11.117000	24.157128	0.001122	20.721152
520.139702	-2.983500	3.706000	-11.056000	24.144066	0.001122	20.757838
521.137668	-3.013400	3.705500	-11.165000	24.141727	0.001121	20.725145
522.145957	-3.018100	3.703600	-11.176000	24.157726	0.001121	20.774859
523.137727	-2.988000	3.705700	-11.072000	24.137895	0.001123	20.752598
524.134769	-2.973400	3.704200	-11.013000	24.125529	0.001121	20.740195
525.143094	-3.012100	3.703800	-11.155000	24.144240	0.001123	20.730511
526.137577	-3.011000	3.704000	-11.152000	24.159393	0.001123	20.735752
527.137058	-2.989500	3.704200	-11.072000	24.167206	0.001121	20.739795
528.139732	-2.996200	3.703800	-11.095000	24.220823	0.001123	20.718657
529.137398	-3.003500	3.703000	-11.121000	24.240005	0.001121	20.739795
530.138589	-2.983800	3.704300	-11.052000	24.247096	0.001120	20.759236
531.140570	-3.002100	3.701600	-11.112000	24.247867	0.001120	20.755742
532.144550	-2.978300	3.702400	-11.026000	24.247419	0.001120	20.756716
533.137739	-3.015800	3.701200	-11.160000	24.228785	0.001121	20.737550
534.143120	-3.011700	3.699700	-11.142000	24.250729	0.001123	20.736801
535.140736	-3.016700	3.699500	-11.159000	24.242991	0.001121	20.763654
536.138517	-3.007400	3.700800	-11.128000	24.229158	0.001120	20.748356
537.144013	-2.992000	3.699500	-11.068000	24.228511	0.001121	20.747232
538.141988	-2.983200	3.701500	-11.041000	24.230377	0.001122	20.766175
539.143179	-2.976700	3.701500	-11.017000	24.231099	0.001120	20.731810
540.141567	-2.983100	3.700600	-11.039000	24.211991	0.001119	20.763854
541.146998	-3.024600	3.696900	-11.181000	24.230850	0.001122	20.746734
542.142773	-2.993200	3.697900	-11.066000	24.242916	0.001119	20.755044
543.143189	-2.996600	3.698100	-11.080000	24.249037	0.001119	20.756916
544.142961	-2.980900	3.698500	-11.024000	24.233911	0.001120	20.742691
545.144458	-2.987100	3.697100	-11.042000	24.265234	0.001119	20.758938
546.140583	-3.015500	3.696700	-11.147000	24.239807	0.001119	20.747658
547.145039	-3.000600	3.696900	-11.091000	24.257571	0.001119	20.752200
548.146728	-2.999500	3.695600	-11.084000	24.279937	0.001119	20.763256
549.141616	-3.010100	3.695500	-11.123000	24.272549	0.001120	20.757267
550.142732	-2.980800	3.696800	-11.019000	24.278370	0.001119	20.755519
551.141695	-2.985700	3.695200	-11.031000	24.296283	0.001120	20.761634
552.141881	-2.978800	3.696600	-11.011000	24.284491	0.001119	20.758814
553.145281	-2.989300	3.695600	-11.046000	24.272524	0.001120	20.761984
554.142916	-2.993300	3.694400	-11.057000	24.270236	0.001119	20.757317
555.149004	-3.007900	3.694200	-11.111000	24.286034	0.001120	20.769371
556.146307	-2.999300	3.695300	-11.082000	24.295040	0.001119	20.758490
557.147142	-3.017400	3.692400	-11.141000	24.294144	0.001118	20.762808
558.146658	-2.998800	3.694500	-11.079000	24.279168	0.001118	20.773390
559.149168	-3.006400	3.692800	-11.101000	24.263718	0.001118	20.774488
560.153152	-3.017300	3.691700	-11.138000	24.237944	0.001119	20.761910
561.145429	-2.994900	3.692500	-11.057000	24.269963	0.001118	20.757992
562.148686	-3.001900	3.691200	-11.079000	24.260609	0.001118	20.775162
563.144454	-2.977300	3.693300	-10.994000	24.236128	0.001118	20.785219
564.148920	-2.994300	3.691200	-11.051000	24.256205	0.001121	20.746562
565.149443	-3.012000	3.689800	-11.113000	24.283647	0.001118	20.788789
566.148707	-2.992000	3.690700	-11.042000	24.325268	0.001117	20.763209
567.149696	-2.977600	3.691900	-10.991000	24.365296	0.001117	20.760689
568.146745	-2.996300	3.689900	-11.056000	24.349623	0.001119	20.773891
569.147089	-2.992000	3.689800	-11.038000	24.376937	0.001116	20.765730
570.154663	-2.983200	3.689200	-11.003000	24.386365	0.001115	20.790361
571.152242	-3.039200	3.687200	-11.206000	24.390745	0.001118	20.775314
572.153546	-3.022200	3.687400	-11.142000	24.412112	0.001116	20.783474
573.157550	-3.010600	3.687000	-11.098000	24.434750	0.001116	20.779632
574.149600	-3.006200	3.687900	-11.085000	24.413457	0.001119	20.780555
575.150037	-3.013400	3.687700	-11.112000	24.393656	0.001117	20.796252
576.154213	-2.995000	3.686600	-11.040000	24.419476	0.001115	20.782327
577.154046	-2.980300	3.686400	-10.985000	24.393308	0.001116	20.772196
578.150740	-3.032900	3.685600	-11.177000	24.399974	0.001115	20.776986
579.154050	-3.000600	3.686000	-11.058000	24.387611	0.001116	20.760316
580.149353	-3.012200	3.684700	-11.098000	24.354824	0.001115	20.784324
581.149840	-3.017400	3.684700	-11.117000	24.332883	0.001118	20.782702
582.148993	-3.006900	3.685200	-11.079000	24.340421	0.001115	20.786945
583.153887	-2.991000	3.684400	-11.020000	24.327310	0.001114	20.783276
584.151020	-2.988000	3.684600	-11.008000	24.355595	0.001116	20.794581
585.149946	-3.026300	3.682300	-11.142000	24.376467	0.001115	20.795130
586.154829	-3.013100	3.682500	-11.095000	24.389924	0.001117	20.811001
587.149860	-2.989600	3.683300	-11.010000	24.428755	0.001112	20.792110
588.149690	-2.998200	3.683400	-11.042000	24.436392	0.001115	20.787917
589.157078	-3.005800	3.683100	-11.069000	24.389153	0.001115	20.802641
590.154243	-3.009400	3.681200	-11.077000	24.395447	0.001114	20.775764
591.156658	-2.995300	3.683300	-11.031000	24.372014	0.001113	20.787817
592.157251	-3.021500	3.680600	-11.120000	24.373406	0.001113	20.816715
593.155967	-2.998600	3.682100	-11.040000	24.344002	0.001114	20.772045
594.151979	-3.019500	3.679700	-11.109000	24.339300	0.001112	20.781553
595.160089	-2.999600	3.679700	-11.035000	24.356415	0.001114	20.790662
596.156608	-2.999600	3.680400	-11.039000	24.387734	0.001113	20.783674
597.151495	-2.996900	3.679300	-11.025000	24.390446	0.001112	20.788291
598.156630	-3.006600	3.680300	-11.064000	24.397560	0.001113	20.790212
599.154671	-2.990500	3.678600	-11.000000	24.393331	0.001112	20.785021
600.152843	-3.000800	3.680000	-11.042000	24.426241	0.001113	20.790536
601.163216	-3.020600	3.677900	-11.109000	24.456613	0.001111	20.794928
602.159721	-3.022500	3.677200	-11.113000	24.496486	0.001112	20.804112
603.156167	-3.018600	3.677700	-11.100000	24.533149	0.001112	20.798222
604.158635	-3.015100	3.678200	-11.089000	24.540660	0.001111	20.796275
605.153255	-3.000100	3.678500	-11.035000	24.547277	0.001112	20.804337
606.154040	-3.013600	3.677500	-11.080000	24.552798	0.001111	20.796125
607.160069	-2.989800	3.676300	-10.990000	24.530437	0.001111	20.784596
608.160478	-2.984700	3.677000	-10.974000	24.541382	0.001110	20.800793
609.158382	-2.997900	3.676800	-11.022000	24.552026	0.001111	20.786342
610.164012	-3.005500	3.675000	-11.044000	24.527726	0.001111	20.798471
611.157002	-2.991600	3.677300	-11.000000	24.537899	0.001110	20.816738
612.157163	-2.997300	3.675700	-11.017000	24.564811	0.001111	20.802015
613.162630	-2.988800	3.676700	-10.988000	24.564537	0.001111	20.804111
614.164208	-3.001800	3.674100	-11.027000	24.592965	0.001112	20.800866
615.159007	-3.007400	3.674700	-11.049000	24.609281	0.001112	20.802539
616.163004	-3.022600	3.673200	-11.101000	24.600576	0.001111	20.804710
617.158939	-2.985900	3.674400	-10.969000	24.614877	0.001110	20.801042
618.165445	-3.001700	3.672800	-11.024000	24.594707	0.001109	20.791709
619.163115	-2.991000	3.671800	-10.981000	24.542700	0.001109	20.796425
620.162542	-2.993300	3.672700	-10.992000	24.533423	0.001109	20.817463
621.160170	-3.006500	3.672400	-11.039000	24.548272	0.001107	20.796800
622.166685	-3.032400	3.670400	-11.129000	24.533771	0.001108	20.788415
623.169808	-3.007800	3.670900	-11.039000	24.559663	0.001109	20.798746
624.166096	-2.991200	3.671700	-10.982000	24.552500	0.001110	20.820483
625.167872	-3.010100	3.670500	-11.048000	24.548247	0.001107	20.830440
626.177540	-2.973600	3.672200	-10.919000	24.521509	0.001109	20.830165
627.180151	-2.998100	3.669000	-10.998000	24.556256	0.001109	20.830889
628.167618	-2.966300	3.671200	-10.887000	24.571478	0.001107	20.834782
629.166113	-2.970500	3.670400	-10.902000	24.563544	0.001107	20.810701
630.164644	-2.972000	3.671000	-10.909000	24.573319	0.001107	20.812448
631.167667	-3.001500	3.669400	-11.012000	24.588963	0.001106	20.820558
632.169286	-2.998300	3.668600	-10.998000	24.591625	0.001108	20.811849
633.168193	-2.994200	3.668900	-10.984000	24.617491	0.001106	20.805087
634.168477	-3.006000	3.670000	-11.031000	24.632089	0.001107	20.823054
635.172857	-2.992500	3.669000	-10.979000	24.650494	0.001107	20.825874
636.170895	-3.016600	3.667700	-11.063000	24.632737	0.001107	20.810902
637.173781	-3.000400	3.667500	-11.003000	24.644699	0.001106	20.842818
638.172222	-2.993900	3.667400	-10.978000	24.625375	0.001104	20.815842
639.168666	-2.994300	3.665800	-10.975000	24.588317	0.001107	20.805212
640.172259	-3.015000	3.665400	-11.049000	24.568893	0.001104	20.818438
641.177530	-3.001600	3.666900	-11.005000	24.578791	0.001104	20.824103
642.177641	-2.995300	3.665600	-10.978000	24.610279	0.001106	20.825351
643.176911	-3.011500	3.664600	-11.035000	24.596898	0.001103	20.815718
644.173077	-2.992000	3.665500	-10.966000	24.628981	0.001106	20.826099
645.179765	-3.020400	3.663500	-11.063000	24.657482	0.001104	20.823404
646.181285	-2.997600	3.664600	-10.984000	24.668301	0.001105	20.829992
647.171618	-2.993600	3.665100	-10.970000	24.685336	0.001105	20.814370
648.176953	-2.998200	3.663100	-10.981000	24.697050	0.001103	20.819960
649.176285	-2.987300	3.664500	-10.945000	24.705680	0.001103	20.816766
650.174605	-2.985200	3.664200	-10.937000	24.711722	0.001104	20.838003
651.172524	-2.983800	3.663600	-10.930000	24.735769	0.001103	20.807133
652.170855	-2.994100	3.662000	-10.964000	24.723634	0.001103	20.826249
653.173709	-2.988600	3.662200	-10.943000	24.730547	0.001102	20.821332
654.174790	-2.995200	3.661800	-10.966000	24.747035	0.001102	20.840248
655.174711	-3.000100	3.662300	-10.986000	24.798137	0.001100	20.833211
656.176966	-3.000800	3.661000	-10.985000	24.761608	0.001101	20.850130
657.177289	-2.983900	3.661100	-10.923000	24.811764	0.001103	20.838825
658.176470	-2.987200	3.661400	-10.937000	24.813206	0.001101	20.820834
659.180122	-3.017700	3.659200	-11.041000	24.814997	0.001100	20.832113
660.175232	-3.006700	3.659700	-11.003000	24.820690	0.001101	20.856792
661.174624	-2.978200	3.661100	-10.902000	24.799579	0.001101	20.828968
662.177883	-2.998700	3.659000	-10.971000	24.788115	0.001101	20.825050
663.172864	-3.020000	3.658600	-11.049000	24.766730	0.001103	20.829193
664.173860	-2.997700	3.658900	-10.968000	24.766357	0.001101	20.850155
665.176308	-2.966700	3.659500	-10.855000	24.728981	0.001099	20.839200
666.176488	-3.002100	3.660000	-10.986000	24.722889	0.001100	20.842570
667.175073	-2.983500	3.659000	-10.915000	24.700258	0.001099	20.855421
668.176142	-2.993200	3.659000	-10.951000	24.683745	0.001100	20.845963
669.177558	-2.991700	3.658600	-10.944000	24.660144	0.001100	20.851204
670.177322	-3.003600	3.655700	-10.979000	24.687476	0.001099	20.858715
671.181123	-3.002000	3.656400	-10.975000	24.680362	0.001100	20.867224
672.181748	-3.009300	3.655300	-10.997000	24.672504	0.001097	20.856020
673.179790	-3.005800	3.655600	-10.987000	24.694638	0.001098	20.863057
674.180309	-2.988500	3.656200	-10.925000	24.685485	0.001099	20.842968
675.178300	-2.983900	3.656300	-10.908000	24.698318	0.001098	20.848733
676.178834	-2.974200	3.656400	-10.875000	24.694016	0.001098	20.854847
677.183404	-2.995100	3.656700	-10.950000	24.711523	0.001098	20.829268
678.181265	-2.999800	3.654200	-10.960000	24.705431	0.001098	20.871516
679.181593	-3.024800	3.653900	-11.051000	24.714731	0.001096	20.852875
680.187932	-2.988400	3.653800	-10.919000	24.731716	0.001097	20.851901
681.179027	-3.025100	3.653700	-11.052000	24.756733	0.001097	20.847135
682.180517	-2.991000	3.653100	-10.923000	24.795202	0.001094	20.877678
683.181130	-2.970200	3.653000	-10.850000	24.797316	0.001097	20.882644
684.187655	-2.994300	3.652600	-10.935000	24.826732	0.001095	20.867597
685.180771	-2.984300	3.653000	-10.900000	24.848042	0.001095	20.861957
686.185243	-2.990000	3.652100	-10.919000	24.822728	0.001095	20.858363
687.185832	-2.995900	3.652100	-10.941000	24.806167	0.001093	20.861183
688.183476	-3.002800	3.652300	-10.966000	24.799304	0.001095	20.848606
689.196659	-3.002700	3.651900	-10.965000	24.790302	0.001095	20.863279
690.181848	-3.002000	3.650100	-10.957000	24.772447	0.001095	20.867171
691.191910	-2.986400	3.651600	-10.903000	24.749046	0.001094	20.872611
692.184967	-3.002900	3.648900	-10.956000	24.750116	0.001094	20.851874
693.183452	-2.991600	3.651100	-10.920000	24.765061	0.001093	20.862604
694.184146	-3.012600	3.650500	-10.997000	24.752303	0.001093	20.876353
695.187591	-2.999200	3.649800	-10.945000	24.753945	0.001093	20.875630
696.192672	-3.001600	3.648400	-10.951000	24.767597	0.001093	20.860882
697.190296	-3.016600	3.648700	-11.004000	24.782044	0.001093	20.876328
698.186774	-2.995900	3.648900	-10.931000	24.804076	0.001093	20.870464
699.187418	-2.964500	3.649200	-10.817000	24.793383	0.001091	20.868267
700.185781	-2.975900	3.648100	-10.856000	24.788434	0.001091	20.868516
701.189996	-2.974900	3.647200	-10.849000	24.799723	0.001090	20.877001
702.193592	-2.987600	3.647700	-10.897000	24.799822	0.001091	20.870462
703.186513	-2.998800	3.645700	-10.931000	24.824067	0.001090	20.872034
704.190907	-3.004800	3.647600	-10.958000	24.809794	0.001090	20.880469
705.193647	-2.990900	3.646200	-10.904000	24.825559	0.001088	20.871161
706.193892	-3.004800	3.645700	-10.953000	24.831427	0.001090	20.869463
707.188873	-3.025900	3.646000	-11.031000	24.873723	0.001089	20.886307
708.194190	-3.002200	3.646400	-10.946000	24.872902	0.001089	20.883113
709.203241	-2.989400	3.646200	-10.899000	24.837096	0.001087	20.880842
710.194104	-3.006100	3.646300	-10.960000	24.822250	0.001090	20.872108
711.193295	-3.026300	3.644100	-11.027000	24.842317	0.001088	20.862376
712.192033	-3.020400	3.643800	-11.005000	24.835230	0.001087	20.869961
713.189724	-2.998600	3.644900	-10.929000	24.848658	0.001087	20.881540
714.189427	-2.991500	3.644000	-10.901000	24.887994	0.001088	20.856536
715.196322	-2.996900	3.643500	-10.919000	24.874268	0.001087	20.855088
716.190641	-2.985500	3.644000	-10.878000	24.876481	0.001086	20.872007
717.196706	-2.987100	3.643700	-10.884000	24.877998	0.001086	20.872107
718.191596	-3.003200	3.643100	-10.939000	24.902489	0.001087	20.854963
719.192902	-3.001900	3.643700	-10.937000	24.921063	0.001086	20.859854
720.199747	-3.008900	3.641900	-10.958000	24.947219	0.001086	20.870459
721.196571	-3.015700	3.641700	-10.982000	24.951322	0.001085	20.860827
722.193670	-2.989100	3.642700	-10.886000	24.949357	0.001085	20.874976
723.195958	-2.993300	3.642400	-10.901000	24.945627	0.001084	20.865068
724.195393	-3.009900	3.640100	-10.955000	24.940008	0.001084	20.850420
725.192754	-2.996700	3.640400	-10.906000	24.919819	0.001084	20.869984
726.198490	-3.001200	3.638900	-10.920000	24.872005	0.001084	20.841911
727.197684	-3.009400	3.638400	-10.948000	24.870139	0.001084	20.856634
728.192921	-3.003200	3.638500	-10.927000	24.869293	0.001083	20.834923
729.198761	-3.016300	3.639300	-10.976000	24.853305	0.001082	20.858231
730.199010	-2.985700	3.639300	-10.864000	24.842812	0.001084	20.851494
731.198569	-3.011000	3.638100	-10.952000	24.816802	0.001081	20.853839
732.196790	-3.044400	3.636600	-11.070000	24.823715	0.001082	20.826639
733.194682	-3.014300	3.638100	-10.965000	24.816976	0.001082	20.837892
734.197607	-3.020800	3.636600	-10.984000	24.817175	0.001080	20.843308
735.200199	-3.001600	3.637200	-10.916000	24.840524	0.001081	20.826438
736.195006	-3.011700	3.635600	-10.948000	24.867180	0.001081	20.856983
737.201362	-2.980500	3.637400	-10.839000	24.862579	0.001080	20.838142
738.196715	-3.000600	3.636500	-10.910000	24.841916	0.001079	20.809344
739.195599	-3.000500	3.635700	-10.908000	24.879810	0.001080	20.829357
740.201593	-3.020400	3.633300	-10.972000	24.904277	0.001081	20.839688
741.194894	-3.001900	3.634400	-10.909000	24.889830	0.001081	20.829457
742.195761	-2.971300	3.636100	-10.802000	24.927002	0.001080	20.837841
743.196891	-3.000800	3.634900	-10.906000	24.955147	0.001080	20.837641
744.202260	-3.020000	3.633700	-10.972000	24.963700	0.001079	20.806397
745.196489	-3.025000	3.632500	-10.987000	24.965440	0.001078	20.837541
746.201859	-3.004500	3.632600	-10.912000	24.974440	0.001078	20.808643
747.204348	-3.005700	3.634600	-10.922000	24.967055	0.001078	20.832051
748.198902	-2.990400	3.633500	-10.864000	24.998829	0.001077	20.816528
749.201868	-3.009800	3.632300	-10.932000	24.968795	0.001075	20.833323
750.204758	-3.006100	3.633100	-10.921000	24.970038	0.001077	20.821294
751.198744	-3.011100	3.630800	-10.930000	24.990077	0.001077	20.810114
752.201709	-3.000200	3.632000	-10.894000	25.003228	0.001075	20.821892
753.200038	-2.988800	3.632300	-10.854000	24.994750	0.001076	20.811486
754.199722	-3.019100	3.630300	-10.958000	25.003650	0.001077	20.818049
755.199393	-3.005900	3.630600	-10.913000	24.997808	0.001074	20.827831
756.202826	-3.016900	3.630200	-10.951000	24.991692	0.001073	20.825011
757.200706	-3.000200	3.631000	-10.893000	24.968569	0.001075	20.815552
758.207448	-3.002800	3.630200	-10.898000	24.958748	0.001072	20.781039
759.199966	-2.979900	3.632400	-10.823000	24.970731	0.001075	20.824835
760.200876	-3.003400	3.631000	-10.904000	24.957852	0.001075	20.810011
761.201237	-2.990800	3.630300	-10.856000	24.970283	0.001072	20.797833
762.206220	-3.005200	3.628800	-10.904000	24.988855	0.001075	20.819319
763.201873	-3.007200	3.628700	-10.911000	25.017546	0.001072	20.808289
764.207186	-3.007700	3.628900	-10.914000	25.012077	0.001071	20.816549
765.207510	-3.000800	3.629400	-10.890000	25.008297	0.001070	20.810384
766.205913	-2.986300	3.629300	-10.836000	25.007675	0.001072	20.785579
767.207177	-2.982200	3.628400	-10.820000	25.029330	0.001070	20.820591
768.207446	-2.979800	3.627600	-10.808000	25.027042	0.001071	20.805493
769.206843	-3.013200	3.626900	-10.927000	25.036663	0.001071	20.814202
770.211815	-2.999200	3.626500	-10.876000	25.030249	0.001070	20.807289
771.207778	-2.982100	3.626800	-10.815000	25.009738	0.001068	20.812305
772.209735	-3.009600	3.625700	-10.911000	24.981718	0.001070	20.803621
773.211571	-3.008700	3.625100	-10.905000	24.979207	0.001069	20.811531
774.209754	-3.005000	3.626400	-10.897000	24.951733	0.001068	20.805766
775.208574	-2.987600	3.626500	-10.834000	24.948874	0.001068	20.803370
776.210688	-3.012100	3.624800	-10.917000	24.950763	0.001069	20.796258
777.205232	-2.984400	3.625800	-10.821000	24.982339	0.001066	20.800450
778.209234	-3.002200	3.625600	-10.884000	25.007251	0.001068	20.793213
779.204939	-3.022600	3.622300	-10.948000	25.027040	0.001065	20.790318
780.209562	-2.989400	3.625300	-10.837000	25.053418	0.001066	20.799726
781.205381	-2.985400	3.625100	-10.821000	25.078253	0.001066	20.805216
782.205880	-2.980900	3.623300	-10.800000	25.071143	0.001065	20.809458
783.211960	-3.007900	3.622300	-10.894000	25.084220	0.001066	20.793188
784.213904	-2.991300	3.622600	-10.835000	25.112410	0.001064	20.786873
785.207047	-2.990700	3.622500	-10.832000	25.095282	0.001065	20.798128
786.210279	-2.995500	3.622200	-10.849000	25.112634	0.001064	20.785675
787.212337	-3.016900	3.620700	-10.922000	25.122503	0.001065	20.806962
788.207743	-2.984600	3.621700	-10.808000	25.145323	0.001064	20.805689
789.212481	-3.002800	3.620700	-10.871000	25.118202	0.001063	20.798851
790.213683	-2.988700	3.621200	-10.821000	25.099631	0.001063	20.784477
791.209373	-2.997300	3.620200	-10.850000	25.069277	0.001062	20.788619
792.211424	-2.972600	3.621700	-10.765000	25.062092	0.001062	20.798477
793.213893	-2.999200	3.619700	-10.854000	25.069053	0.001063	20.795506
794.211417	-2.988400	3.620200	-10.817000	25.039617	0.001062	20.780658
795.212687	-3.015000	3.619000	-10.909000	25.015377	0.001060	20.790939
796.211661	-3.011600	3.617700	-10.894000	24.995563	0.001060	20.780533
797.210631	-3.022100	3.617100	-10.930000	24.972888	0.001059	20.783378
798.212635	-2.976000	3.618300	-10.767000	24.994518	0.001060	20.776165
799.215360	-3.009700	3.617700	-10.887000	25.029249	0.001057	20.777837
800.210641	-3.021100	3.616600	-10.925000	25.068977	0.001059	20.783103
801.209752	-2.987600	3.618700	-10.809000	25.097417	0.001058	20.780357
802.214117	-3.003400	3.618200	-10.866000	25.109623	0.001060	20.796878
803.208653	-3.009100	3.618000	-10.886000	25.115763	0.001058	20.784075
804.213915	-3.007100	3.617400	-10.877000	25.125383	0.001058	20.780930
805.214424	-3.012300	3.615500	-10.890000	25.115066	0.001058	20.788592
806.217634	-2.983400	3.616200	-10.787000	25.142187	0.001057	20.768876
807.216497	-2.986700	3.615500	-10.796000	25.152354	0.001056	20.779557
808.214101	-2.989500	3.616300	-10.810000	25.179152	0.001057	20.783700
809.218309	-3.005800	3.614400	-10.863000	25.196054	0.001057	20.769375
810.212496	-2.977300	3.615900	-10.765000	25.203785	0.001056	20.788990
811.214081	-2.992100	3.614500	-10.813000	25.191729	0.001054	20.786844
812.218853	-3.008200	3.615600	-10.876000	25.183650	0.001054	20.781578
813.214491	-2.997000	3.614800	-10.833000	25.150066	0.001055	20.773941
814.223479	-3.023900	3.612100	-10.921000	25.163291	0.001052	20.767302
815.217752	-3.010600	3.613200	-10.878000	25.148972	0.001055	20.770945
816.215349	-2.996700	3.612400	-10.824000	25.156131	0.001051	20.763434
817.215474	-2.964200	3.614600	-10.711000	25.135175	0.001051	20.750456
818.213084	-2.985000	3.612900	-10.783000	25.159660	0.001052	20.781201
819.217650	-2.989400	3.611400	-10.795000	25.144695	0.001054	20.770919
820.212628	-3.008100	3.611600	-10.863000	25.189887	0.001051	20.770296
821.216577	-3.018100	3.610000	-10.894000	25.187202	0.001052	20.766651
822.215357	-3.009000	3.609600	-10.860000	25.210443	0.001048	20.764380
823.214578	-2.996800	3.611500	-10.822000	25.218248	0.001051	20.745189
824.213846	-3.011300	3.609300	-10.868000	25.222623	0.001049	20.774237
825.215813	-2.972800	3.612000	-10.737000	25.208752	0.001050	20.781649
826.217141	-2.998300	3.610300	-10.824000	25.209796	0.001049	20.759937
827.213816	-2.997900	3.609900	-10.820000	25.190855	0.001050	20.785492
828.217855	-2.992600	3.610700	-10.804000	25.184466	0.001049	20.753473
829.223331	-3.015800	3.608500	-10.881000	25.217303	0.001046	20.753723
830.221573	-2.993400	3.609900	-10.806000	25.235224	0.001046	20.763181
831.219903	-2.978500	3.610200	-10.751000	25.250734	0.001047	20.744613
832.219443	-3.012000	3.607700	-10.865000	25.249442	0.001048	20.774610
833.216237	-2.985700	3.608200	-10.773000	25.230078	0.001047	20.746634
834.221494	-3.013000	3.605400	-10.861000	25.205147	0.001046	20.765226
835.223656	-3.024900	3.607900	-10.913000	25.191525	0.001047	20.765776
836.217981	-3.021300	3.605800	-10.894000	25.167636	0.001045	20.748905
837.219349	-3.023700	3.606700	-10.904000	25.154511	0.001045	20.755643
838.223400	-3.003100	3.604800	-10.824000	25.176386	0.001044	20.765276
839.220121	-2.998600	3.607700	-10.815000	25.206513	0.001044	20.767072
840.219882	-2.988700	3.607200	-10.778000	25.198136	0.001044	20.747282
841.221827	-2.992700	3.606700	-10.792000	25.217077	0.001044	20.735477
842.220182	-2.992100	3.606100	-10.787000	25.198334	0.001042	20.772612
843.223085	-2.999100	3.605800	-10.813000	25.184016	0.001044	20.770092
844.223396	-3.009800	3.603500	-10.845000	25.134324	0.001042	20.754344
845.221572	-2.986600	3.605200	-10.767000	25.147549	0.001042	20.756715
846.224120	-2.981800	3.605600	-10.749000	25.164055	0.001043	20.730136
847.225148	-2.996800	3.604200	-10.798000	25.162986	0.001040	20.757987
848.219550	-2.980600	3.604000	-10.741000	25.154036	0.001041	20.762753
849.220823	-2.995900	3.603400	-10.794000	25.140861	0.001038	20.736250
850.230968	-3.002100	3.603700	-10.816000	25.132434	0.001040	20.760033
851.221264	-3.012400	3.601000	-10.847000	25.124976	0.001038	20.773410
852.220297	-3.024700	3.601100	-10.891000	25.139817	0.001039	20.759384
853.225062	-3.011000	3.601400	-10.842000	25.212825	0.001040	20.742588
854.228040	-3.000200	3.600700	-10.801000	25.233183	0.001039	20.736000
855.223778	-2.999900	3.601000	-10.801000	25.268975	0.001035	20.753918
856.227261	-3.000600	3.600000	-10.802000	25.285281	0.001037	20.756065
857.224241	-2.998400	3.599700	-10.791000	25.302505	0.001036	20.746331
858.223610	-2.999600	3.600100	-10.798000	25.335810	0.001036	20.725243
859.227347	-3.002300	3.599900	-10.806000	25.354824	0.001035	20.746231
860.228645	-2.985500	3.601400	-10.751000	25.364293	0.001036	20.739144
861.221774	-3.006700	3.599300	-10.821000	25.390587	0.001036	20.740416
862.227779	-2.991600	3.599500	-10.767000	25.403188	0.001035	20.752120
863.226819	-2.996100	3.598500	-10.780000	25.389941	0.001034	20.710842
864.227312	-2.983200	3.599200	-10.736000	25.398913	0.001034	20.753992
865.225369	-3.007800	3.598400	-10.823000	25.412656	0.001034	20.719901
866.224086	-3.006200	3.597100	-10.813000	25.438602	0.001036	20.754965
867.231078	-2.993100	3.596400	-10.763000	25.452742	0.001033	20.736921
868.229084	-2.986100	3.597900	-10.743000	25.440242	0.001032	20.741438
869.226935	-3.023700	3.596600	-10.874000	25.429555	0.001035	20.744458
870.229117	-3.027500	3.595800	-10.885000	25.442677	0.001033	20.728710
871.227153	-3.002000	3.595700	-10.794000	25.434749	0.001032	20.746355
872.229380	-2.990400	3.595300	-10.750000	25.448094	0.001030	20.724193
873.233651	-2.989100	3.595300	-10.744000	25.454506	0.001031	20.714509
874.227807	-2.987900	3.595900	-10.743000	25.443994	0.001028	20.717229
875.231568	-2.965800	3.595600	-10.662000	25.434102	0.001029	20.736696
876.229689	-2.994500	3.595900	-10.766000	25.466236	0.001029	20.745256
877.229721	-3.011600	3.594800	-10.825000	25.466285	0.001029	20.744831
878.234615	-2.995300	3.594000	-10.764000	25.427889	0.001026	20.735198
879.234344	-2.999800	3.592300	-10.775000	25.415189	0.001026	20.734773
880.230000	-3.018700	3.592600	-10.844000	25.382483	0.001029	20.735123
881.234414	-2.978100	3.593600	-10.700000	25.330787	0.001028	20.721147
882.232197	-2.986400	3.592900	-10.729000	25.302850	0.001026	20.719175
883.231923	-2.997500	3.591800	-10.766000	25.296661	0.001025	20.736670
884.234836	-3.008100	3.591500	-10.802000	25.264423	0.001027	20.736545
885.236534	-3.007400	3.590500	-10.797000	25.267083	0.001025	20.731154
886.233523	-2.975100	3.593800	-10.691000	25.258109	0.001024	20.718825
887.236475	-3.013600	3.591700	-10.822000	25.232731	0.001023	20.699034
888.231981	-3.011700	3.591100	-10.814000	25.192885	0.001024	20.714507
889.232035	-2.992800	3.590800	-10.746000	25.178542	0.001022	20.731403
890.235569	-2.979400	3.591700	-10.699000	25.182618	0.001024	20.733125
891.237342	-3.009500	3.589600	-10.801000	25.194152	0.001023	20.717677
892.233471	-3.006900	3.588600	-10.789000	25.213541	0.001021	20.739514
893.239019	-2.997600	3.588400	-10.756000	25.213988	0.001023	20.716254
894.238634	-3.002000	3.587000	-10.766000	25.220352	0.001022	20.734023
895.235222	-3.015900	3.587100	-10.818000	25.191169	0.001019	20.702353
896.243078	-3.009800	3.586500	-10.794000	25.191194	0.001021	20.719448
897.237811	-3.006200	3.587600	-10.784000	25.217816	0.001020	20.712036
898.238741	-2.989000	3.588200	-10.724000	25.263726	0.001018	20.707868
899.239480	-3.006800	3.586600	-10.784000	25.302103	0.001017	20.697086
900.238942	-2.989500	3.588300	-10.726000	25.337322	0.001018	20.727234
901.237858	-3.006700	3.586800	-10.783000	25.380940	0.001019	20.717451
902.238869	-3.000500	3.585500	-10.758000	25.385637	0.001017	20.711262
903.241853	-3.003400	3.584500	-10.764000	25.410465	0.001018	20.710114
904.240267	-2.979600	3.585200	-10.682000	25.377535	0.001017	20.707867
905.244979	-2.993700	3.587600	-10.738000	25.412925	0.001016	20.717326
906.241730	-2.995600	3.585400	-10.739000	25.401095	0.001016	20.704498
907.242189	-3.003600	3.584900	-10.767000	25.402512	0.001017	20.701179
908.243580	-2.976700	3.585900	-10.673000	25.358298	0.001014	20.700879
909.247390	-3.037900	3.584000	-10.887000	25.311248	0.001014	20.725237
910.242899	-2.995300	3.583400	-10.732000	25.323999	0.001014	20.720970
911.247368	-3.017700	3.583300	-10.811000	25.321563	0.001013	20.720895
912.245431	-3.016500	3.584400	-10.811000	25.305432	0.001014	20.709439
913.242929	-3.024100	3.582000	-10.831000	25.302425	0.001014	20.725861
914.246673	-2.986400	3.582700	-10.698000	25.313883	0.001014	20.698009
915.245408	-2.994000	3.582500	-10.725000	25.318332	0.001013	20.722392
916.242984	-3.002600	3.581000	-10.751000	25.288381	0.001010	20.720770
917.245975	-3.004800	3.582500	-10.763000	25.300809	0.001010	20.701477
918.250826	-3.010100	3.582000	-10.781000	25.323129	0.001010	20.720096
919.246377	-2.993400	3.580900	-10.718000	25.353277	0.001011	20.697734
920.248612	-3.007400	3.581300	-10.769000	25.360161	0.001008	20.705121
921.249096	-3.018600	3.579800	-10.804000	25.393713	0.001010	20.691394
922.246133	-3.002700	3.580400	-10.749000	25.388668	0.001009	20.707192
923.247591	-2.964300	3.580400	-10.612000	25.355389	0.001006	20.701752
924.247812	-2.986400	3.579400	-10.688000	25.322855	0.001009	20.698956
925.247017	-2.998700	3.579000	-10.731000	25.268919	0.001006	20.700279
926.248457	-2.995200	3.578300	-10.715000	25.295390	0.001009	20.694613
927.251307	-2.993600	3.578400	-10.711000	25.289375	0.001006	20.697583
928.250502	-3.010100	3.578500	-10.771000	25.280377	0.001005	20.683332
929.251687	-2.998600	3.578000	-10.727000	25.306798	0.001006	20.698007
930.251253	-3.006600	3.576600	-10.752000	25.387300	0.001004	20.689697
931.249331	-3.025500	3.576600	-10.820000	25.427238	0.001004	20.694713
932.250741	-2.992100	3.577100	-10.702000	25.418739	0.001004	20.679538
933.255154	-2.994600	3.576500	-10.709000	25.427710	0.001002	20.683332
934.249656	-2.993700	3.574600	-10.701000	25.421994	0.001003	20.705095
935.250981	-3.019100	3.575500	-10.794000	25.431935	0.001003	20.691842
936.254970	-3.004200	3.575300	-10.740000	25.488895	0.001000	20.690719
937.253298	-3.025200	3.574800	-10.814000	25.490535	0.001000	20.692366
938.249612	-3.000800	3.574000	-10.724000	25.499705	0.001002	20.685927
939.254738	-3.010000	3.574300	-10.758000	25.553157	0.001001	20.688398
940.257577	-2.989600	3.573900	-10.683000	25.548957	0.000999	20.709312
941.251753	-2.995100	3.573900	-10.704000	25.579496	0.000999	20.711059
942.251786	-3.037600	3.572000	-10.847000	25.574303	0.000999	20.689246
943.257393	-3.017000	3.572500	-10.777000	25.586206	0.000999	20.717323
944.257828	-3.020500	3.572100	-10.788000	25.606854	0.000998	20.683531
945.255914	-3.008000	3.571600	-10.742000	25.588293	0.000997	20.698555
946.254561	-3.011500	3.572700	-10.757000	25.571346	0.000999	20.704770
947.257772	-3.006300	3.570000	-10.731000	25.557033	0.000996	20.690394
948.257253	-2.995400	3.572200	-10.699000	25.551119	0.000998	20.695361
949.256513	-3.000600	3.570000	-10.711000	25.572837	0.000996	20.707215
950.253349	-2.999800	3.569400	-10.707000	25.584068	0.000996	20.698106
951.256861	-3.008800	3.569600	-10.739000	25.584317	0.000993	20.696933
952.257815	-2.971400	3.571200	-10.611000	25.563493	0.000995	20.695460
953.260168	-2.997700	3.569200	-10.698000	25.531537	0.000991	20.697507
954.261944	-3.002700	3.568900	-10.715000	25.503779	0.000992	20.700452
955.260572	-3.003800	3.569000	-10.720000	25.471548	0.000991	20.696059
956.259603	-2.995700	3.569900	-10.692000	25.473536	0.000994	20.682882
957.268165	-2.966300	3.569000	-10.585000	25.484669	0.000993	20.675569
958.257295	-2.996200	3.568300	-10.690000	25.495802	0.000989	20.700976
959.258426	-2.982400	3.568000	-10.640000	25.472119	0.000989	20.696159
960.259821	-2.990100	3.567300	-10.666000	25.492994	0.000988	20.674920
961.263555	-3.002800	3.567200	-10.710000	25.492298	0.000989	20.678963
962.256250	-2.991700	3.566400	-10.669000	25.552410	0.000989	20.685277
963.266508	-3.014000	3.566600	-10.748000	25.557430	0.000987	20.703596
964.257071	-3.019600	3.565100	-10.763000	25.555119	0.000988	20.690843
965.259541	-3.011500	3.565200	-10.735000	25.532903	0.000989	20.710734
966.265015	-3.003600	3.565400	-10.708000	25.544409	0.000986	20.703322
967.263393	-2.993100	3.566100	-10.672000	25.564189	0.000986	20.698056
968.258765	-3.011600	3.564100	-10.733000	25.583571	0.000986	20.681958
969.261882	-3.004900	3.563500	-10.706000	25.583322	0.000985	20.697357
970.270810	-3.009500	3.563400	-10.723000	25.593858	0.000986	20.699403
971.263529	-2.984300	3.563500	-10.633000	25.619601	0.000985	20.700601
972.262853	-3.018500	3.561900	-10.751000	25.608693	0.000984	20.687274
973.265304	-3.013900	3.562600	-10.736000	25.640075	0.000984	20.690344
974.270256	-2.982500	3.563600	-10.627000	25.620222	0.000984	20.705019
975.274667	-3.009100	3.563100	-10.721000	25.642784	0.000981	20.699229
976.267725	-2.993100	3.562800	-10.663000	25.614457	0.000983	20.702548
977.270229	-3.006100	3.562200	-10.706000	25.609413	0.000982	20.703646
978.272461	-3.013800	3.560100	-10.728000	25.600219	0.000981	20.720018
979.271510	-2.983200	3.561200	-10.623000	25.575893	0.000980	20.706017
980.270220	-2.985400	3.559300	-10.624000	25.558300	0.000980	20.704944
981.267664	-2.978800	3.562100	-10.610000	25.545328	0.000977	20.715152
982.269932	-2.989400	3.560400	-10.643000	25.546347	0.000978	20.700053
983.266144	-2.985800	3.560000	-10.628000	25.518292	0.000977	20.706017
984.277496	-2.984200	3.559900	-10.622000	25.500300	0.000979	20.694113
985.268130	-2.982200	3.560200	-10.616000	25.536880	0.000978	20.717098
986.289091	-3.004700	3.558800	-10.692000	25.541427	0.000976	20.692740
987.273634	-2.985800	3.558400	-10.624000	25.509346	0.000976	20.704620
988.267514	-2.995000	3.558700	-10.657000	25.516627	0.000975	20.719519
989.283130	-3.001200	3.558400	-10.678000	25.487676	0.000974	20.702773
990.271804	-3.011900	3.555300	-10.708000	25.473387	0.000971	20.706916
991.278119	-3.025600	3.555000	-10.755000	25.452288	0.000972	20.719869
992.269948	-3.004600	3.557800	-10.689000	25.457532	0.000973	20.715651
993.277697	-3.012000	3.556300	-10.710000	25.477736	0.000972	20.708913
994.278830	-3.000300	3.556500	-10.670000	25.521374	0.000971	20.727606
995.272014	-3.010300	3.555600	-10.702000	25.580018	0.000971	20.745724
996.281476	-3.008500	3.555500	-10.696000	25.606929	0.000972	20.710635
997.293200	-2.968300	3.556700	-10.556000	25.631951	0.000971	20.697358
998.273387	-3.007300	3.553000	-10.684000	25.642114	0.000971	20.697133
999.277563	-3.006100	3.554900	-10.685000	25.657245	0.000970	20.709961
1000.269490	-2.986300	3.554900	-10.615000	25.637517	0.000969	20.719545
1001.281906	-2.994400	3.554100	-10.641000	25.622832	0.000970	20.699579
1002.282146	-3.009500	3.552600	-10.690000	25.644847	0.000968	20.703198
1003.284792	-3.010600	3.552300	-10.694000	25.668253	0.000968	20.700153
1004.286504	-2.993300	3.553200	-10.634000	25.659383	0.000969	20.705469
1005.269263	-3.016600	3.551600	-10.712000	25.669048	0.000965	20.695736
1006.286232	-2.989300	3.551900	-10.617000	25.698119	0.000968	20.704072
1007.281330	-2.988900	3.553100	-10.619000	25.714939	0.000966	20.714330
1008.279846	-3.004500	3.551600	-10.669000	25.717101	0.000967	20.718398
1009.273916	-2.972300	3.552900	-10.559000	25.704927	0.000966	20.734146
1010.278858	-2.999100	3.550500	-10.648000	25.673173	0.000964	20.694663
1011.278663	-3.039700	3.548100	-10.784000	25.644500	0.000964	20.710437
1012.281646	-3.026100	3.548700	-10.737000	25.622112	0.000963	20.734894
1013.285380	-3.000900	3.549000	-10.649000	25.611850	0.000961	20.707991
1014.275848	-3.007000	3.549100	-10.670000	25.600296	0.000962	20.725785
1015.280868	-2.999500	3.549500	-10.646000	25.610260	0.000961	20.714929
1016.280728	-2.997600	3.548200	-10.635000	25.651482	0.000959	20.715553
1017.292140	-3.043700	3.546400	-10.793000	25.664602	0.000960	20.732998
1018.281537	-2.999800	3.548200	-10.643000	25.676454	0.000961	20.712184
1019.279325	-3.009500	3.547700	-10.675000	25.695039	0.000957	20.730852
1020.283259	-3.000500	3.547500	-10.642000	25.721177	0.000959	20.735295
1021.287833	-2.995700	3.545800	-10.621000	25.709623	0.000957	20.700929
1022.275317	-2.999400	3.546700	-10.637000	25.669472	0.000956	20.720820
1023.282761	-2.982500	3.545900	-10.574000	25.672553	0.000958	20.712060
1024.284019	-2.998500	3.547000	-10.633000	25.712481	0.000955	20.726560
1025.281706	-2.996600	3.545800	-10.624000	25.694418	0.000958	20.741135
1026.290966	-3.027200	3.543200	-10.724000	25.708531	0.000954	20.718325
1027.280251	-2.989300	3.545900	-10.598000	25.737128	0.000955	20.729980
1028.289831	-2.978700	3.545300	-10.559000	25.717351	0.000953	20.712959
1029.287061	-3.005600	3.545600	-10.656000	25.717302	0.000952	20.747050
1030.285506	-3.002300	3.543200	-10.637000	25.690021	0.000953	20.733399
1031.292127	-3.009800	3.543200	-10.664000	25.672430	0.000952	20.742758
1032.290557	-3.010400	3.541500	-10.661000	25.706296	0.000952	20.714657
1033.287121	-3.006800	3.542700	-10.651000	25.720333	0.000950	20.716429
1034.298234	-3.010200	3.541500	-10.659000	25.719389	0.000950	20.742509
1035.287416	-3.023000	3.540800	-10.703000	25.738669	0.000949	20.730105
1036.285592	-2.993100	3.543300	-10.603000	25.737725	0.000949	20.739589
1037.292776	-3.017900	3.540000	-10.682000	25.758173	0.000948	20.743532
1038.283560	-3.014700	3.539500	-10.669000	25.757676	0.000948	20.743033
1039.293429	-2.984500	3.541300	-10.569000	25.757328	0.000947	20.720872
1040.281290	-3.010400	3.539300	-10.653000	25.727514	0.000947	20.727436
1041.287328	-3.011300	3.537900	-10.652000	25.727564	0.000947	20.738866
1042.285794	-3.001400	3.539400	-10.621000	25.758596	0.000947	20.743009
1043.291553	-3.002700	3.539400	-10.627000	25.722595	0.000945	20.741462
1044.289541	-3.013400	3.538100	-10.661000	25.749627	0.000945	20.737793
1045.292263	-3.000500	3.539900	-10.620000	25.733329	0.000945	20.738492
1046.295157	-3.031900	3.536900	-10.722000	25.725428	0.000943	20.740987
1047.292277	-2.993100	3.537400	-10.586000	25.711788	0.000942	20.747676
1048.296346	-3.014300	3.535800	-10.656000	25.723142	0.000942	20.726837
1049.292202	-2.979900	3.538800	-10.544000	25.766074	0.000942	20.746728
1050.298412	-3.028800	3.536300	-10.709000	25.770546	0.000941	20.746478
1051.295128	-3.022800	3.535900	-10.688000	25.752807	0.000943	20.739565
1052.294237	-2.994400	3.535400	-10.586000	25.749006	0.000940	20.750446
1053.286977	-3.007600	3.535700	-10.633000	25.686346	0.000942	20.747252
1054.296969	-2.998200	3.535400	-10.599000	25.680258	0.000939	20.755363
1055.289897	-2.987900	3.533800	-10.558000	25.712707	0.000940	20.747177
1056.300530	-3.034600	3.534000	-10.723000	25.721205	0.000940	20.756186
1057.293941	-2.996200	3.533900	-10.587000	25.698173	0.000941	20.743958
1058.299599	-3.011700	3.533000	-10.640000	25.695067	0.000938	20.755537
1059.285784	-2.986800	3.533900	-10.552000	25.695365	0.000937	20.761527
1060.301983	-3.020600	3.533600	-10.673000	25.680432	0.000937	20.750796
1061.290503	-3.007700	3.532900	-10.625000	25.631882	0.000937	20.764622
1062.288840	-3.000000	3.531800	-10.594000	25.641299	0.000935	20.777399
1063.304518	-2.998800	3.532000	-10.590000	25.656480	0.000935	20.755188
1064.296267	-2.988500	3.530400	-10.550000	25.682271	0.000934	20.758333
1065.301389	-3.006200	3.530200	-10.610000	25.715763	0.000932	20.763998
1066.301881	-3.017900	3.529700	-10.651000	25.747615	0.000934	20.760429
1067.304659	-2.994700	3.530400	-10.571000	25.753304	0.000932	20.757609
1068.299940	-2.995800	3.531200	-10.577000	25.747516	0.000934	20.757958
1069.314492	-2.994300	3.530300	-10.570000	25.765677	0.000934	20.767192
1070.300172	-3.014900	3.528700	-10.637000	25.798819	0.000931	20.758757
1071.300004	-2.992100	3.530500	-10.562000	25.794447	0.000931	20.751994
1072.297962	-3.005200	3.529300	-10.605000	25.823687	0.000929	20.774729
1073.298727	-2.989800	3.528800	-10.549000	25.804260	0.000928	20.768016
1074.307814	-2.988800	3.528500	-10.544000	25.828731	0.000930	20.779795
1075.296195	-3.019400	3.526200	-10.644000	25.847412	0.000928	20.772009
1076.304418	-2.990000	3.528100	-10.547000	25.858641	0.000928	20.755788
1077.300956	-2.971100	3.529300	-10.483000	25.867063	0.000928	20.801706
1078.302613	-2.996600	3.528800	-10.572000	25.875956	0.000927	20.779820
1079.300142	-3.000500	3.526400	-10.579000	25.848108	0.000925	20.774130
1080.300535	-2.981800	3.526200	-10.513000	25.849947	0.000925	20.775503
1081.296378	-3.008400	3.526800	-10.609000	25.861548	0.000925	20.790002
1082.299685	-3.002100	3.524900	-10.580000	25.842519	0.000925	20.773257
1083.294545	-2.998700	3.526500	-10.574000	25.843363	0.000923	20.772209
1084.298988	-2.980500	3.525200	-10.506000	25.839115	0.000922	20.774580
1085.298707	-3.018600	3.525000	-10.639000	25.849872	0.000922	20.777325
1086.290526	-3.007400	3.523400	-10.594000	25.856281	0.000921	20.791350
1087.302739	-2.984100	3.525700	-10.519000	25.869050	0.000920	20.773831
1088.297440	-3.019200	3.522700	-10.635000	25.911778	0.000918	20.785935
1089.308988	-2.985400	3.522800	-10.516000	25.941463	0.000921	20.793471
1090.292421	-2.972100	3.522600	-10.469000	25.991689	0.000919	20.791300
1091.303047	-2.985100	3.522800	-10.515000	26.014963	0.000920	20.792872
1092.311888	-3.009900	3.520400	-10.595000	26.047650	0.000918	20.778298
1093.308853	-3.004300	3.521000	-10.577000	26.055747	0.000919	20.791175
1094.301524	-3.025600	3.519800	-10.647000	26.051475	0.000917	20.775503
1095.310235	-3.003500	3.520800	-10.574000	26.037739	0.000918	20.799161
1096.299840	-3.002000	3.519300	-10.564000	26.025618	0.000917	20.794569
1097.304323	-3.004700	3.519500	-10.574000	26.034212	0.000915	20.816006
1098.298782	-3.005600	3.518700	-10.574000	26.031505	0.000914	20.796690
1099.305834	-3.010500	3.518600	-10.591000	25.982970	0.000916	20.781592
1100.308543	-3.001200	3.519300	-10.560000	25.964117	0.000914	20.807221
1101.309109	-3.003300	3.518000	-10.564000	25.953361	0.000914	20.807795
1102.310917	-2.993200	3.517600	-10.527000	25.980063	0.000913	20.805699
1103.303832	-3.022400	3.516100	-10.625000	25.983293	0.000913	20.804202
1104.307901	-2.991400	3.518800	-10.525000	26.006542	0.000911	20.803853
1105.311458	-2.995300	3.518400	-10.538000	25.979989	0.000914	20.809892
1106.308054	-3.043800	3.513700	-10.694000	25.973481	0.000910	20.808569
1107.310650	-2.987100	3.516900	-10.504000	25.974823	0.000911	20.797115
1108.310202	-3.013200	3.514900	-10.590000	25.944940	0.000910	20.801706
1109.315681	-2.987800	3.514600	-10.499000	25.907605	0.000908	20.794544
1110.307788	-3.021500	3.513000	-10.613000	25.904326	0.000907	20.789354
1111.309072	-3.015800	3.514100	-10.596000	25.912896	0.000907	20.806024
1112.316388	-3.008900	3.513200	-10.568000	25.942804	0.000907	20.793397
1113.306917	-2.980900	3.513400	-10.471000	25.957882	0.000906	20.806648
1114.320642	-3.004200	3.513700	-10.555000	25.978127	0.000904	20.839314
1115.319383	-3.002600	3.513400	-10.549000	26.008257	0.000905	20.824541
1116.312388	-3.009700	3.511800	-10.567000	26.030562	0.000904	20.824666
1117.311180	-2.998600	3.511900	-10.530000	26.054257	0.000906	20.841361
1118.312433	-2.990400	3.512000	-10.501000	26.065062	0.000904	20.807647
1119.311211	-3.004300	3.511600	-10.549000	26.054109	0.000903	20.809444
1120.316693	-3.002700	3.511400	-10.542000	26.038585	0.000904	20.807123
1121.321715	-2.980800	3.511100	-10.464000	26.055425	0.000901	20.823094
1122.318609	-3.003500	3.511100	-10.544000	26.044074	0.000902	20.805526
1123.314357	-3.001300	3.510400	-10.534000	25.999887	0.000899	20.830356
1124.317730	-3.006000	3.510400	-10.551000	25.974278	0.000901	20.814111
1125.314449	-2.978000	3.509100	-10.449000	25.925491	0.000899	20.833850
1126.312874	-2.983400	3.509600	-10.469000	25.886566	0.000901	20.820824
1127.320328	-2.987000	3.507600	-10.476000	25.820261	0.000898	20.829608
1128.307189	-2.983600	3.508400	-10.466000	25.815839	0.000900	20.846028
1129.312642	-2.994500	3.509700	-10.508000	25.804412	0.000896	20.835498
1130.327348	-3.005400	3.507800	-10.541000	25.824510	0.000896	20.823919
1131.321479	-2.989900	3.507300	-10.485000	25.870344	0.000896	20.833452
1132.312851	-2.974000	3.506400	-10.426000	25.885697	0.000897	20.844132
1133.317562	-2.986200	3.507400	-10.472000	25.900875	0.000894	20.832828
1134.316980	-3.000100	3.504500	-10.513000	25.886765	0.000893	20.842835
1135.316101	-2.981900	3.505800	-10.453000	25.907707	0.000894	20.855812
1136.320000	-2.992500	3.504900	-10.487000	25.919059	0.000893	20.821698
1137.316254	-2.998400	3.504500	-10.507000	25.924152	0.000893	20.842461
1138.332186	-2.985700	3.504300	-10.461000	25.952395	0.000893	20.829584
1139.311834	-3.014200	3.503000	-10.558000	25.943130	0.000892	20.845880
1140.320828	-2.988700	3.502800	-10.468000	25.891709	0.000892	20.844483
1141.342062	-3.044500	3.500600	-10.657000	25.860408	0.000891	20.848126
1142.325434	-3.005900	3.503000	-10.529000	25.886219	0.000890	20.834226
1143.316535	-2.995400	3.502500	-10.491000	25.899187	0.000890	20.824494
1144.322869	-2.993000	3.502800	-10.483000	25.923059	0.000891	20.846579
1145.330994	-3.005300	3.501800	-10.522000	25.938585	0.000888	20.823770
1146.328749	-2.986500	3.501400	-10.454000	25.926015	0.000888	20.857609
1147.324126	-2.992100	3.500800	-10.473000	25.950632	0.000888	20.847253
1148.324452	-3.019100	3.499300	-10.564000	25.899659	0.000886	20.847727
1149.316860	-2.998400	3.500500	-10.495000	25.945565	0.000886	20.843111
1150.319093	-2.979000	3.501000	-10.429000	25.954880	0.000887	20.851994
1151.319029	-3.012100	3.498900	-10.538000	26.008558	0.000885	20.851395
1152.315397	-3.024800	3.497300	-10.577000	26.009304	0.000884	20.840765
1153.319973	-2.995800	3.498400	-10.479000	26.059725	0.000884	20.847802
1154.336742	-3.030600	3.496900	-10.595000	26.076093	0.000884	20.848601
1155.316800	-2.980900	3.498500	-10.427000	26.095814	0.000884	20.838544
1156.322819	-2.983500	3.496700	-10.431000	26.103861	0.000882	20.840940
1157.328182	-2.984600	3.497500	-10.438000	26.130759	0.000884	20.845681
1158.322706	-3.007800	3.495400	-10.512000	26.134360	0.000883	20.838395
1159.324914	-3.016000	3.495400	-10.541000	26.143971	0.000882	20.855164
1160.324064	-3.010400	3.495400	-10.522000	26.106345	0.000883	20.833479
1161.326965	-2.992200	3.495700	-10.459000	26.088363	0.000880	20.837696
1162.328072	-3.014600	3.493800	-10.531000	26.098695	0.000881	20.857560
1163.317506	-3.018400	3.494500	-10.547000	26.124823	0.000879	20.844459
1164.343662	-2.976600	3.494700	-10.400000	26.108059	0.000878	20.842313
1165.324983	-3.015500	3.493700	-10.535000	26.130883	0.000877	20.869987
1166.336311	-3.010000	3.491800	-10.509000	26.112604	0.000878	20.848776
1167.325623	-2.979500	3.493000	-10.406000	26.131156	0.000876	20.875951
1168.336823	-3.002300	3.492700	-10.485000	26.121569	0.000877	20.858733
1169.326208	-2.996000	3.492500	-10.462000	26.121023	0.000874	20.873830
1170.321162	-3.007400	3.492600	-10.503000	26.120378	0.000873	20.862750
1171.327355	-2.989400	3.491700	-10.436000	26.121396	0.000875	20.865197
1172.324995	-2.979800	3.492400	-10.406000	26.170745	0.000872	20.874005
1173.324816	-2.977200	3.492100	-10.396000	26.146878	0.000873	20.843387
1174.334770	-2.990700	3.491700	-10.442000	26.120030	0.000871	20.855289
1175.329363	-3.004800	3.490600	-10.487000	26.095020	0.000872	20.848652
1176.320538	-3.010700	3.490200	-10.508000	26.076616	0.000870	20.849600
1177.320168	-2.986400	3.487800	-10.415000	26.060571	0.000871	20.879470
1178.323290	-2.981800	3.489500	-10.404000	26.029747	0.000868	20.861304
1179.322036	-2.999000	3.486500	-10.455000	26.007194	0.000870	20.856189
1180.324074	-3.008300	3.487700	-10.490000	25.993955	0.000869	20.850000
1181.332463	-2.979400	3.488000	-10.391000	26.026891	0.000869	20.840892
1182.319513	-3.000800	3.488300	-10.466000	26.063179	0.000866	20.826618
1183.328365	-3.021900	3.486500	-10.534000	26.092140	0.000866	20.857612
1184.329710	-2.995200	3.485500	-10.438000	26.115337	0.000866	20.827341
1185.325286	-2.999900	3.485500	-10.456000	26.112779	0.000866	20.836151
1186.336121	-3.023700	3.484500	-10.535000	26.128228	0.000866	20.833181
1187.325885	-3.031400	3.484800	-10.563000	26.131506	0.000864	20.841691
1188.328860	-3.006700	3.483300	-10.472000	26.151400	0.000863	20.854094
1189.324818	-2.994400	3.484700	-10.433000	26.127881	0.000863	20.815764
1190.327773	-3.004700	3.483600	-10.467000	26.164637	0.000861	20.816188
1191.323122	-3.011500	3.482000	-10.485000	26.125770	0.000861	20.847781
1192.324185	-3.005700	3.482500	-10.466000	26.096960	0.000861	20.829265
1193.333027	-3.002800	3.482900	-10.458000	26.051930	0.000861	20.835229
1194.330585	-2.999900	3.481500	-10.444000	26.029948	0.000861	20.823101
1195.334456	-2.992400	3.483400	-10.422000	26.040306	0.000861	20.824973
1196.325513	-2.977700	3.482700	-10.368000	26.039337	0.000858	20.848181
1197.330634	-3.017900	3.480200	-10.501000	26.078258	0.000859	20.839871
1198.337893	-2.989100	3.482000	-10.407000	26.079003	0.000859	20.836353
1199.325816	-3.019900	3.480000	-10.506000	26.078830	0.000858	20.799195
1200.330113	-2.987000	3.479400	-10.390000	26.033749	0.000856	20.812222
1201.329992	-3.003100	3.479600	-10.448000	26.004241	0.000858	20.820507
1202.326885	-3.009500	3.477800	-10.464000	25.967604	0.000855	20.813570
1203.333057	-3.003300	3.478600	-10.447000	25.937175	0.000854	20.810500
1204.333508	-3.015800	3.477400	-10.485000	25.931983	0.000855	20.820932
1205.330447	-2.990500	3.478700	-10.402000	25.958562	0.000853	20.822030
1206.342638	-2.977300	3.477300	-10.352000	25.992643	0.000853	20.812173
1207.328744	-3.010100	3.475300	-10.458000	26.023294	0.000854	20.798872
1208.328309	-2.986800	3.477400	-10.385000	26.041749	0.000851	20.796078
1209.344623	-2.997500	3.476600	-10.420000	26.083873	0.000851	20.829392
1210.332944	-3.011400	3.474900	-10.462000	26.074908	0.000852	20.807582
1211.334449	-3.020200	3.474100	-10.491000	26.120881	0.000850	20.802092
1212.334576	-2.995900	3.474900	-10.409000	26.127140	0.000851	20.818338
1213.330518	-2.982000	3.477200	-10.367000	26.086160	0.000849	20.824103
1214.332565	-3.008200	3.474800	-10.452000	26.125327	0.000850	20.803241
1215.341929	-2.999700	3.472700	-10.415000	26.105806	0.000849	20.823455
1216.334216	-3.007400	3.473100	-10.444000	26.119963	0.000846	20.821084
1217.339592	-2.995000	3.473700	-10.402000	26.114574	0.000847	20.814247
1218.355658	-2.985800	3.471600	-10.364000	26.090209	0.000845	20.820585
1219.332982	-2.980800	3.473500	-10.353000	26.057673	0.000845	20.831516
1220.341753	-3.013200	3.472600	-10.462000	26.054345	0.000844	20.805888
1221.335934	-3.023200	3.469300	-10.488000	26.029557	0.000844	20.805638
1222.352022	-2.969900	3.471900	-10.310000	26.067559	0.000844	20.797828
1223.335983	-3.003000	3.469700	-10.419000	26.065697	0.000842	20.806388
1224.337227	-2.985700	3.471100	-10.362000	26.076700	0.000840	20.809857
1225.340947	-3.022400	3.469300	-10.484000	26.067461	0.000841	20.796307
1226.340428	-2.986100	3.470600	-10.361000	26.094459	0.000842	20.785976
1227.332421	-3.015200	3.468500	-10.457000	26.077397	0.000841	20.803919
1228.353338	-2.994300	3.468300	-10.384000	26.065028	0.000839	20.799078
1229.354783	-3.039800	3.466600	-10.537000	26.066494	0.000839	20.810982
1230.338181	-2.998600	3.468100	-10.398000	26.071363	0.000837	20.796908
1231.338973	-2.994000	3.467100	-10.379000	26.049730	0.000841	20.806466
1232.342463	-2.985600	3.466700	-10.348000	26.023675	0.000840	20.783608
1233.365251	-2.989600	3.466900	-10.363000	26.023204	0.000840	20.801152
1234.350289	-3.004400	3.466000	-10.412000	26.019876	0.000838	20.789274
1235.351836	-3.000000	3.465200	-10.393000	26.035996	0.000837	20.789349
1236.350237	-3.013800	3.465100	-10.442000	26.040095	0.000837	20.808640
1237.340258	-2.984800	3.464200	-10.339000	26.042182	0.000836	20.789874
1238.349874	-3.017900	3.463300	-10.450000	26.042654	0.000836	20.799832
1239.345825	-3.011900	3.464900	-10.434000	26.029888	0.000834	20.785582
1240.357706	-2.987600	3.465100	-10.351000	26.025219	0.000834	20.772357
1241.357113	-2.999400	3.464100	-10.389000	26.062402	0.000833	20.790750
1242.348754	-2.991400	3.463400	-10.359000	26.115305	0.000831	20.785584
1243.345389	-2.998800	3.462300	-10.382000	26.125837	0.000830	20.793322
1244.353571	-3.001200	3.462600	-10.391000	26.139944	0.000830	20.783314
1245.359179	-2.993700	3.461700	-10.363000	26.179383	0.000829	20.785486
1246.346306	-2.999300	3.461000	-10.380000	26.204939	0.000831	20.771337
1247.357601	-2.995700	3.461900	-10.369000	26.200841	0.000828	20.772436
1248.348554	-2.994200	3.459900	-10.359000	26.178168	0.000827	20.780946
1249.345947	-2.995100	3.458800	-10.357000	26.151769	0.000828	20.776704
1250.356279	-3.004100	3.459200	-10.391000	26.153135	0.000827	20.753895
1251.353732	-3.004700	3.458500	-10.391000	26.166175	0.000825	20.783594
1252.363109	-3.014900	3.459100	-10.428000	26.172185	0.000827	20.787262
1253.347455	-2.987200	3.459900	-10.334000	26.155572	0.000827	20.783845
1254.347528	-3.027000	3.455600	-10.458000	26.145811	0.000824	20.765502
1255.346534	-2.997400	3.458500	-10.366000	26.093433	0.000825	20.775461
1256.363675	-3.001800	3.456400	-10.373000	26.120778	0.000823	20.773540
1257.346161	-3.007100	3.456400	-10.392000	26.095693	0.000825	20.748808
1258.359114	-3.005500	3.455800	-10.385000	26.049125	0.000824	20.783100
1259.350361	-2.981400	3.455300	-10.299000	26.040035	0.000822	20.773966
1260.354065	-3.000200	3.454700	-10.364000	26.022599	0.000821	20.782052
1261.354805	-2.997800	3.453900	-10.354000	26.035616	0.000821	20.771897
1262.360795	-2.989100	3.455000	-10.325000	26.028089	0.000820	20.777611
1263.349484	-3.017200	3.453800	-10.421000	26.038001	0.000823	20.765758
1264.354567	-3.000100	3.454100	-10.362000	26.060927	0.000821	20.775043
1265.359690	-3.010100	3.452500	-10.392000	26.072701	0.000817	20.776441
1266.356889	-3.006300	3.452200	-10.377000	26.109981	0.000818	20.781183
1267.352667	-3.005800	3.452400	-10.376000	26.142269	0.000817	20.786126
1268.370254	-2.982600	3.452300	-10.294000	26.148404	0.000818	20.766211
1269.361018	-2.996200	3.451800	-10.341000	26.116491	0.000816	20.758801
1270.361541	-2.997100	3.452400	-10.346000	26.130723	0.000816	20.780688
1271.357940	-3.000700	3.450300	-10.352000	26.152802	0.000816	20.789597
1272.355519	-3.029300	3.449700	-10.448000	26.158441	0.000813	20.769658
1273.363176	-3.004800	3.448500	-10.361000	26.171928	0.000815	20.759977
1274.359594	-2.983200	3.449500	-10.290000	26.180669	0.000813	20.764019
1275.355055	-2.997300	3.449500	-10.338000	26.191473	0.000814	20.759228
1276.369450	-2.976600	3.448100	-10.262000	26.204687	0.000814	20.775352
1277.371376	-2.999300	3.448600	-10.342000	26.214398	0.000814	20.781317
1278.361401	-3.004300	3.446400	-10.353000	26.239109	0.000811	20.752095
1279.361777	-2.974700	3.446900	-10.252000	26.234615	0.000814	20.776029
1280.360501	-2.998200	3.445800	-10.329000	26.274050	0.000811	20.762079
1281.362336	-3.003800	3.447000	-10.353000	26.295531	0.000810	20.754268
1282.359572	-3.009000	3.444600	-10.364000	26.252224	0.000810	20.759585
1283.373056	-3.013200	3.444800	-10.378000	26.188377	0.000810	20.758014
1284.370500	-2.983100	3.446500	-10.280000	26.156391	0.000810	20.776607
1285.373126	-3.000000	3.445900	-10.336000	26.192427	0.000810	20.740746
1286.364747	-3.015300	3.443400	-10.382000	26.167494	0.000808	20.759789
1287.365657	-2.999500	3.443200	-10.328000	26.141368	0.000807	20.749658
1288.365072	-2.992700	3.443700	-10.305000	26.122791	0.000807	20.760863
1289.365474	-3.005300	3.443100	-10.345000	26.149665	0.000805	20.746615
1290.365670	-2.996800	3.442500	-10.316000	26.157142	0.000804	20.768353
1291.367025	-3.012300	3.442200	-10.367000	26.156721	0.000805	20.768878
1292.369531	-3.001800	3.442500	-10.332000	26.156623	0.000802	20.760719
1293.361665	-2.993100	3.441400	-10.300000	26.182130	0.000802	20.747943
1294.365373	-2.998200	3.440200	-10.313000	26.200657	0.000804	20.749491
1295.364717	-2.970000	3.443400	-10.226000	26.186354	0.000802	20.746498
1296.379732	-3.009000	3.439400	-10.349000	26.160949	0.000800	20.740409
1297.370510	-3.010800	3.439500	-10.354000	26.164130	0.000800	20.751666
1298.369495	-2.999900	3.438000	-10.312000	26.119227	0.000800	20.740686
1299.370974	-2.993000	3.440000	-10.294000	26.120967	0.000798	20.737219
1300.371521	-2.995800	3.438900	-10.302000	26.104925	0.000798	20.732005
1301.368914	-3.018500	3.437600	-10.375000	26.118437	0.000796	20.758385
1302.370870	-2.995000	3.437300	-10.294000	26.138606	0.000797	20.740718
1303.373204	-2.988200	3.438200	-10.273000	26.144046	0.000796	20.748555
1304.368990	-2.992500	3.437400	-10.286000	26.151325	0.000796	20.755395
1305.376166	-3.010100	3.435400	-10.339000	26.178943	0.000796	20.760388
1306.371481	-2.997500	3.435900	-10.298000	26.172389	0.000795	20.736731
1307.371066	-2.985000	3.436600	-10.258000	26.179567	0.000796	20.747738
1308.376673	-3.015400	3.435600	-10.359000	26.169461	0.000794	20.729996
1309.378028	-3.030900	3.433800	-10.406000	26.224075	0.000793	20.735090
1310.375640	-2.998000	3.436100	-10.300000	26.253826	0.000793	20.731322
1311.376034	-3.005400	3.433600	-10.319000	26.242828	0.000794	20.735443
1312.381719	-2.980500	3.434400	-10.236000	26.255842	0.000791	20.752789
1313.377153	-3.003500	3.432800	-10.310000	26.282614	0.000792	20.722794
1314.375006	-3.004300	3.432400	-10.311000	26.303226	0.000792	20.712213
1315.376954	-3.003300	3.433300	-10.309000	26.259671	0.000791	20.737197
1316.375328	-2.970300	3.433500	-10.198000	26.217680	0.000790	20.739095
1317.381479	-3.021000	3.430300	-10.362000	26.199454	0.000789	20.720780
1318.382811	-3.004800	3.430200	-10.306000	26.143131	0.000790	20.739100
1319.386077	-2.991900	3.430500	-10.263000	26.089188	0.000788	20.755548
1320.381264	-2.988900	3.430300	-10.252000	26.065768	0.000787	20.718265
1321.383951	-2.997800	3.430700	-10.283000	26.104293	0.000787	20.720938
1322.382561	-3.008900	3.429200	-10.318000	26.128956	0.000786	20.709683
1323.389471	-2.986000	3.430100	-10.241000	26.183596	0.000786	20.704843
1324.380482	-2.989100	3.429300	-10.249000	26.212184	0.000786	20.728830
1325.383895	-2.996800	3.429400	-10.275000	26.150595	0.000785	20.733324
1326.385454	-3.014200	3.428600	-10.333000	26.151740	0.000785	20.722146
1327.379980	-2.994700	3.427100	-10.262000	26.154300	0.000784	20.716657
1328.383289	-3.003900	3.427900	-10.295000	26.170643	0.000783	20.715536
1329.383386	-3.009000	3.426200	-10.308000	26.177375	0.000783	20.711869
1330.379883	-2.971500	3.427100	-10.182000	26.196352	0.000780	20.716240
1331.385262	-3.000600	3.425400	-10.277000	26.179491	0.000780	20.708778
1332.393017	-3.013900	3.425900	-10.324000	26.154236	0.000779	20.712799
1333.381583	-2.979300	3.426100	-10.207000	26.145646	0.000780	20.708909
1334.383001	-2.987800	3.424800	-10.231000	26.123915	0.000780	20.725482
1335.382351	-2.997800	3.424700	-10.266000	26.095654	0.000779	20.698031
1336.384650	-2.991000	3.423500	-10.239000	26.102710	0.000779	20.710337
1337.384094	-2.977600	3.425000	-10.196000	26.105518	0.000778	20.706046
1338.386797	-3.006200	3.423000	-10.288000	26.105471	0.000778	20.708370
1339.387202	-3.019100	3.421400	-10.328000	26.134979	0.000776	20.718106
1340.390647	-3.000200	3.422200	-10.267000	26.175314	0.000775	20.709323
1341.386025	-3.008900	3.420500	-10.291000	26.160836	0.000777	20.708051
1342.386953	-3.004800	3.421100	-10.279000	26.140102	0.000774	20.686267
1343.385407	-3.005500	3.420800	-10.281000	26.151402	0.000774	20.701416
1344.388455	-3.009600	3.420900	-10.295000	26.139409	0.000774	20.720661
1345.387740	-3.008700	3.419100	-10.285000	26.135116	0.000774	20.720614
1346.388461	-2.995000	3.421300	-10.245000	26.173215	0.000772	20.709584
1347.388506	-3.007300	3.418900	-10.282000	26.196338	0.000772	20.701052
1348.387070	-3.008200	3.419700	-10.284000	26.259766	0.000770	20.688450
1349.388622	-3.026000	3.417300	-10.339000	26.287705	0.000771	20.682862
1350.388130	-2.998800	3.418200	-10.247000	26.296001	0.000770	20.698313
1351.393402	-2.995000	3.417400	-10.234000	26.248946	0.000771	20.689431
1352.390726	-2.991500	3.416100	-10.219000	26.252747	0.000771	20.701312
1353.388995	-2.983200	3.416900	-10.192000	26.262386	0.000768	20.695351
1354.394835	-3.010600	3.416200	-10.284000	26.262860	0.000770	20.699622
1355.393957	-3.012500	3.417700	-10.295000	26.255042	0.000768	20.691289
1356.391277	-3.011700	3.414300	-10.282000	26.234432	0.000767	20.692864
1357.393658	-3.012900	3.413900	-10.284000	26.217002	0.000766	20.677243
1358.392176	-3.002100	3.413100	-10.244000	26.243725	0.000766	20.707893
1359.393056	-2.984800	3.415700	-10.192000	26.232628	0.000764	20.694370
1360.391806	-2.996400	3.413100	-10.226000	26.222821	0.000764	20.683091
1361.395574	-3.011500	3.413700	-10.279000	26.169778	0.000763	20.662504
1362.391664	-3.005700	3.412000	-10.254000	26.157462	0.000761	20.676209
1363.392310	-2.993800	3.411700	-10.212000	26.159129	0.000763	20.698274
1364.394423	-2.992200	3.413200	-10.212000	26.163825	0.000762	20.697304
1365.393328	-2.993100	3.410800	-10.208000	26.180170	0.000763	20.682907
1366.396319	-2.985200	3.412900	-10.187000	26.220827	0.000762	20.673026
1367.394910	-2.989300	3.410600	-10.194000	26.243554	0.000760	20.691125
1368.394722	-2.979100	3.411400	-10.162000	26.244227	0.000760	20.678523
1369.404400	-2.992000	3.410400	-10.203000	26.220267	0.000760	20.679102
1370.397066	-2.997200	3.409800	-10.219000	26.228863	0.000758	20.665454
1371.395617	-2.993400	3.408500	-10.202000	26.218162	0.000759	20.677461
1372.403849	-3.010000	3.408900	-10.259000	26.212703	0.000759	20.667707
1373.396705	-3.027200	3.406400	-10.310000	26.226266	0.000759	20.678018
1374.406006	-2.988900	3.407800	-10.184000	26.213927	0.000754	20.651391
1375.401934	-3.001200	3.407100	-10.225000	26.223642	0.000759	20.659732
1376.400979	-3.002700	3.406500	-10.228000	26.259530	0.000757	20.667822
1377.404917	-2.995000	3.406700	-10.202000	26.276766	0.000754	20.668548
1378.405345	-2.990900	3.407800	-10.191000	26.322932	0.000758	20.668951
1379.404061	-2.993200	3.405700	-10.193000	26.357949	0.000755	20.665262
1380.409302	-2.996200	3.405200	-10.202000	26.351621	0.000753	20.664592
1381.402421	-2.971800	3.404900	-10.118000	26.343702	0.000753	20.679395
1382.403160	-2.974300	3.406100	-10.129000	26.337525	0.000752	20.657537
1383.406230	-2.969300	3.404800	-10.108000	26.370777	0.000751	20.661559
1384.404205	-2.986300	3.403800	-10.163000	26.353994	0.000753	20.662710
1385.404519	-3.003600	3.405100	-10.226000	26.342329	0.000752	20.636758
1386.403005	-3.008800	3.403300	-10.239000	26.337863	0.000749	20.662619
1387.404972	-3.001900	3.404300	-10.218000	26.307000	0.000748	20.652463
1388.404771	-3.017700	3.401900	-10.265000	26.312593	0.000749	20.638642
1389.405070	-2.986800	3.402200	-10.160000	26.255755	0.000748	20.661658
1390.406234	-2.978000	3.401700	-10.128000	26.200479	0.000748	20.639773
1391.407819	-3.009900	3.401200	-10.236000	26.205650	0.000745	20.651609
1392.405858	-2.991100	3.400500	-10.171000	26.222440	0.000747	20.649989
1393.406627	-2.992500	3.401200	-10.177000	26.281896	0.000747	20.643829
1394.405578	-2.986500	3.401300	-10.157000	26.306508	0.000746	20.653392
1395.405861	-3.033700	3.397200	-10.304000	26.343563	0.000745	20.664080
1396.408967	-3.010800	3.399100	-10.233000	26.355261	0.000743	20.661137
1397.409859	-2.999600	3.399300	-10.196000	26.399316	0.000744	20.648041
1398.407152	-3.022800	3.396600	-10.267000	26.374961	0.000743	20.651538
1399.410366	-3.005300	3.397900	-10.210000	26.382315	0.000745	20.655611
1400.411010	-2.993500	3.397800	-10.170000	26.383860	0.000742	20.628236
1401.407993	-2.996200	3.395800	-10.173000	26.305124	0.000741	20.652000
1402.409183	-3.000900	3.394900	-10.186000	26.278857	0.000740	20.623228
1403.408988	-2.969300	3.395600	-10.082000	26.257480	0.000741	20.610753
1404.408798	-2.998800	3.394900	-10.180000	26.268161	0.000739	20.631921
1405.416046	-3.002500	3.394000	-10.189000	26.279315	0.000740	20.631276
1406.413150	-2.992500	3.395300	-10.159000	26.256845	0.000738	20.626238
1407.412058	-3.028000	3.393600	-10.275000	26.244556	0.000738	20.630011
1408.409365	-2.983400	3.393500	-10.123000	26.224248	0.000738	20.636156
1409.414266	-3.017400	3.393700	-10.239000	26.186529	0.000737	20.621010
1410.411144	-3.020200	3.392400	-10.245000	26.195475	0.000738	20.625259
1411.410239	-3.004700	3.392300	-10.191000	26.229675	0.000736	20.631652
1412.411880	-3.002000	3.393700	-10.187000	26.254191	0.000736	20.638272
1413.410054	-3.033900	3.390500	-10.285000	26.230952	0.000736	20.638626
1414.410607	-2.985300	3.393400	-10.129000	26.233886	0.000733	20.624029
1415.412995	-2.978300	3.392800	-10.104000	26.212434	0.000736	20.610056
1416.418421	-2.993900	3.390800	-10.151000	26.219739	0.000732	20.613604
1417.413373	-2.981300	3.391000	-10.109000	26.227541	0.000733	20.639941
1418.415390	-3.011700	3.389100	-10.206000	26.243588	0.000732	20.630935
1419.421441	-2.999700	3.390800	-10.170000	26.262890	0.000733	20.617613
1420.420289	-2.998400	3.389800	-10.163000	26.268554	0.000732	20.616666
1421.414241	-3.020000	3.387900	-10.230000	26.303798	0.000729	20.608936
1422.419912	-2.992600	3.388600	-10.139000	26.334593	0.000728	20.622343
1423.421121	-3.017400	3.387600	-10.221000	26.345920	0.000728	20.617605
1424.415132	-2.994700	3.388200	-10.146000	26.352035	0.000731	20.628493
1425.420009	-2.994600	3.387600	-10.144000	26.371755	0.000729	20.636934
1426.415206	-2.992800	3.388200	-10.140000	26.367414	0.000728	20.607911
1427.416437	-2.995100	3.387100	-10.144000	26.348523	0.000727	20.616427
1428.415812	-3.013800	3.385300	-10.202000	26.346840	0.000727	20.610942
1429.417394	-2.988500	3.386700	-10.120000	26.332789	0.000725	20.648983
1430.421731	-3.008100	3.383600	-10.177000	26.309974	0.000725	20.614670
1431.415116	-2.997100	3.385800	-10.147000	26.356985	0.000725	20.611655
1432.420474	-3.006600	3.382700	-10.169000	26.368611	0.000725	20.625238
1433.417509	-3.008000	3.383200	-10.175000	26.353296	0.000723	20.620276
1434.417132	-3.012400	3.383400	-10.191000	26.380690	0.000723	20.643545
1435.418036	-3.015600	3.381900	-10.197000	26.411906	0.000720	20.609006
1436.423018	-3.002500	3.382800	-10.155000	26.447642	0.000721	20.600352
1437.418325	-3.000500	3.381900	-10.146000	26.394138	0.000719	20.600156
1438.418218	-3.007900	3.382800	-10.174000	26.385058	0.000720	20.597193
1439.420352	-3.003500	3.381400	-10.155000	26.415006	0.000720	20.622555
1440.418427	-2.984700	3.382100	-10.093000	26.433809	0.000720	20.610632
1441.419462	-2.992400	3.380200	-10.115000	26.486623	0.000717	20.620096
1442.418987	-2.990600	3.381400	-10.111000	26.475706	0.000718	20.603905
1443.419167	-3.007100	3.380100	-10.163000	26.509801	0.000720	20.625850
1444.419797	-3.025800	3.379200	-10.223000	26.533490	0.000716	20.635913
1445.418604	-3.011600	3.380400	-10.179000	26.523690	0.000716	20.613731
1446.419055	-2.981000	3.381200	-10.078000	26.497975	0.000719	20.616807
1447.419445	-3.007500	3.378400	-10.160000	26.434320	0.000716	20.626321
1448.422147	-3.003200	3.378500	-10.145000	26.393359	0.000715	20.597475
1449.420480	-2.983900	3.377600	-10.077000	26.380033	0.000712	20.618698
1450.419993	-2.978000	3.377900	-10.059000	26.369735	0.000714	20.614038
1451.421978	-2.983000	3.377900	-10.076000	26.358121	0.000713	20.606157
1452.423406	-3.007800	3.375900	-10.152000	26.337095	0.000712	20.629126
1453.421418	-2.986700	3.376300	-10.083000	26.321261	0.000713	20.610840
1454.422153	-3.001900	3.375000	-10.130000	26.326431	0.000713	20.616511
1455.425742	-2.976500	3.377000	-10.051000	26.334459	0.000710	20.608930
1456.423438	-3.008000	3.375000	-10.150000	26.357384	0.000710	20.616799
1457.424729	-2.960200	3.375100	-9.988900	26.406755	0.000708	20.623746
1458.426584	-3.007600	3.373800	-10.146000	26.439586	0.000709	20.602686
1459.424189	-3.006400	3.373300	-10.141000	26.453173	0.000708	20.617293
1460.424210	-2.993500	3.374500	-10.101000	26.427358	0.000709	20.606044
1461.426809	-2.980100	3.373200	-10.051000	26.396898	0.000708	20.620951
1462.427988	-2.988100	3.374000	-10.080000	26.383625	0.000709	20.606660
1463.427972	-2.984900	3.372200	-10.065000	26.403892	0.000705	20.595733
1464.428563	-2.994200	3.372800	-10.098000	26.429125	0.000703	20.603552
1465.426055	-2.987500	3.372700	-10.075000	26.486188	0.000704	20.604009
1466.426460	-2.991400	3.370700	-10.082000	26.508491	0.000705	20.614574
1467.432345	-2.969300	3.372200	-10.012000	26.497871	0.000706	20.616703
1468.427645	-3.008000	3.370900	-10.137000	26.495669	0.000705	20.634880
1469.427587	-3.022200	3.367900	-10.177000	26.452129	0.000704	20.596801
1470.428201	-3.004200	3.369200	-10.121000	26.412485	0.000703	20.620022
1471.427619	-2.999600	3.370500	-10.109000	26.334626	0.000700	20.632809
1472.426376	-3.004300	3.367700	-10.117000	26.336296	0.000704	20.612674
1473.429611	-2.986200	3.367900	-10.056000	26.326471	0.000701	20.616550
1474.430367	-3.017600	3.365700	-10.154000	26.350664	0.000701	20.625218
1475.430200	-2.984500	3.368800	-10.053000	26.355439	0.000700	20.635235
1476.430504	-3.008400	3.368100	-10.131000	26.409751	0.000699	20.605417
1477.431850	-2.989900	3.368100	-10.069000	26.452093	0.000695	20.599136
1478.432846	-2.983300	3.367400	-10.045000	26.484750	0.000699	20.608728
1479.433352	-3.004600	3.365700	-10.112000	26.467754	0.000697	20.611560
1480.435233	-3.012900	3.366300	-10.141000	26.443054	0.000696	20.592894
1481.433781	-2.995800	3.366400	-10.084000	26.465015	0.000694	20.608332
1482.433612	-3.017300	3.364300	-10.150000	26.446549	0.000694	20.620593
1483.441574	-2.999000	3.365100	-10.091000	26.463293	0.000693	20.618457
1484.437605	-3.021300	3.363600	-10.161000	26.510922	0.000696	20.594255
1485.432444	-3.006300	3.362700	-10.108000	26.554179	0.000693	20.597435
1486.435756	-2.978700	3.363800	-10.018000	26.586759	0.000694	20.631613
1487.434311	-2.999000	3.363700	-10.087000	26.614076	0.000694	20.605964
1488.434681	-2.992800	3.362800	-10.063000	26.623342	0.000692	20.603425
1489.435249	-3.002200	3.362300	-10.094000	26.634625	0.000689	20.610975
1490.434326	-2.997400	3.361900	-10.076000	26.587393	0.000689	20.626559
1491.436544	-3.019900	3.360200	-10.146000	26.586557	0.000688	20.620502
1492.435237	-2.979600	3.363200	-10.019000	26.552629	0.000689	20.630020
1493.437422	-2.993900	3.361100	-10.062000	26.523518	0.000688	20.616878
1494.437174	-2.966200	3.361700	-9.970100	26.497185	0.000690	20.624549
1495.436572	-2.984000	3.360700	-10.028000	26.463726	0.000685	20.617470
1496.437975	-3.006000	3.359300	-10.098000	26.445313	0.000687	20.609867
1497.436661	-3.011400	3.358500	-10.113000	26.452176	0.000686	20.585941
1498.436452	-3.006200	3.360000	-10.099000	26.454048	0.000686	20.605369
1499.439584	-3.001900	3.359000	-10.082000	26.470217	0.000684	20.611190
1500.440478	-3.017800	3.358400	-10.135000	26.477724	0.000683	20.608779
1501.437103	-3.018100	3.357500	-10.132000	26.445655	0.000684	20.620170
1502.441004	-3.000400	3.356700	-10.069000	26.418208	0.000683	20.624825
1503.442655	-2.986800	3.357800	-10.028000	26.426086	0.000683	20.596229
1504.436376	-3.000700	3.356200	-10.069000	26.426367	0.000681	20.613109
1505.440722	-3.007000	3.355500	-10.089000	26.433977	0.000682	20.603687
1506.437819	-2.981700	3.355200	-10.003000	26.469392	0.000680	20.607990
1507.444454	-3.013400	3.355400	-10.109000	26.515778	0.000681	20.590127
1508.438826	-2.995200	3.354500	-10.046000	26.549772	0.000682	20.606757
1509.437294	-3.005200	3.353400	-10.075000	26.534515	0.000680	20.620820
1510.436655	-2.994500	3.354000	-10.043000	26.533211	0.000677	20.615241
1511.441507	-3.011300	3.354300	-10.098000	26.539547	0.000677	20.620188
1512.437936	-2.993600	3.354600	-10.041000	26.546858	0.000678	20.618528
1513.439147	-3.002300	3.352000	-10.062000	26.537754	0.000676	20.611747
1514.440327	-3.005200	3.351200	-10.070000	26.559290	0.000677	20.603995
1515.438325	-2.990400	3.352900	-10.025000	26.565031	0.000675	20.610241
1516.439114	-2.974500	3.352700	-9.971800	26.589023	0.000678	20.613497
1517.443136	-3.014500	3.351600	-10.103000	26.572003	0.000673	20.614406
1518.443683	-3.022800	3.350600	-10.127000	26.604929	0.000676	20.623324
1519.439416	-2.982800	3.351300	-9.995800	26.642130	0.000673	20.629902
1520.444209	-3.000500	3.351500	-10.053000	26.666040	0.000672	20.618375
1521.439577	-3.021800	3.350600	-10.124000	26.684617	0.000670	20.628518
1522.441750	-2.998700	3.349700	-10.043000	26.664047	0.000671	20.608310
1523.441333	-2.998100	3.349100	-10.039000	26.649929	0.000670	20.618300
1524.441370	-3.012900	3.348600	-10.088000	26.664937	0.000671	20.606833
1525.441090	-2.999700	3.348300	-10.043000	26.639151	0.000673	20.612680
1526.440996	-2.977600	3.349700	-9.972100	26.665377	0.000671	20.610121
1527.445457	-2.996700	3.347500	-10.031000	26.676207	0.000669	20.601567
1528.441468	-2.987600	3.348500	-10.003000	26.712206	0.000669	20.603145
1529.441455	-2.991600	3.347700	-10.015000	26.738997	0.000668	20.613012
1530.440228	-2.984000	3.346700	-9.985500	26.736301	0.000667	20.612198
1531.442026	-2.999300	3.345700	-10.033000	26.726551	0.000667	20.624683
1532.441281	-3.009900	3.343800	-10.064000	26.684661	0.000667	20.625243
1533.443299	-2.993800	3.345200	-10.014000	26.691373	0.000665	20.628672
1534.441143	-2.991400	3.345800	-10.007000	26.711111	0.000664	20.636189
1535.441576	-2.990000	3.344800	-9.999500	26.730779	0.000665	20.632253
1536.441909	-2.975000	3.344400	-9.947900	26.768888	0.000662	20.634533
1537.441113	-3.020400	3.341700	-10.091000	26.777957	0.000665	20.633220
1538.443101	-2.973400	3.344300	-9.942700	26.778690	0.000664	20.621152
1539.441700	-2.999800	3.343300	-10.028000	26.804208	0.000661	20.613143
1540.442363	-2.999600	3.341600	-10.022000	26.790564	0.000663	20.611279
1541.442219	-3.036100	3.339900	-10.138000	26.797371	0.000662	20.642308
1542.441920	-3.013000	3.342200	-10.069000	26.802347	0.000662	20.618860
1543.442620	-3.018000	3.341000	-10.081000	26.818536	0.000661	20.626603
1544.442776	-3.022200	3.339900	-10.093000	26.833511	0.000662	20.622219
1545.442302	-3.023600	3.339300	-10.096000	26.801454	0.000661	20.632663
1546.442383	-3.015100	3.339900	-10.068000	26.786466	0.000657	20.629920
1547.441909	-3.030100	3.338200	-10.114000	26.784734	0.000658	20.624859
1548.441418	-3.020200	3.338900	-10.082000	26.774342	0.000657	20.637646
1549.445948	-2.983300	3.340300	-9.963900	26.743096	0.000656	20.637526
1550.443237	-2.992500	3.337900	-9.987400	26.724662	0.000657	20.610927
1551.445241	-3.005700	3.337400	-10.030000	26.710795	0.000656	20.618324
1552.442499	-2.969000	3.337600	-9.907900	26.688234	0.000656	20.635474
1553.443517	-2.985800	3.338900	-9.968200	26.700008	0.000654	20.639251
1554.443934	-3.006200	3.338100	-10.034000	26.707836	0.000654	20.631473
1555.442449	-2.988700	3.337200	-9.972600	26.695679	0.000654	20.614982
1556.444877	-2.990500	3.337900	-9.980600	26.653686	0.000652	20.651953
1557.444170	-3.004800	3.335200	-10.019000	26.677945	0.000650	20.633190
1558.443676	-2.982400	3.336600	-9.948500	26.683292	0.000652	20.641886
1559.444911	-2.978500	3.336800	-9.937000	26.710573	0.000651	20.629482
1560.445701	-2.991000	3.334500	-9.971300	26.739078	0.000650	20.664784
1561.444329	-2.976300	3.336100	-9.928300	26.719749	0.000649	20.648194
1562.445162	-2.971000	3.334900	-9.906600	26.740952	0.000648	20.631101
1563.444279	-2.994000	3.333300	-9.977800	26.757272	0.000651	20.620482
1564.444427	-3.014900	3.332400	-10.046000	26.749509	0.000649	20.637335
1565.447723	-2.992000	3.333500	-9.973500	26.762820	0.000646	20.645977
1566.444746	-2.967400	3.334100	-9.892000	26.748458	0.000647	20.655247
1567.448493	-3.007700	3.332500	-10.023000	26.748613	0.000646	20.640228
1568.447824	-2.987000	3.333100	-9.954300	26.755818	0.000645	20.643679
1569.447764	-3.001200	3.329900	-9.992400	26.721620	0.000644	20.647229
1570.451056	-3.000500	3.330300	-9.992400	26.746279	0.000644	20.641674
1571.450293	-3.017500	3.330300	-10.049000	26.731121	0.000644	20.637340
1572.449039	-2.988200	3.328900	-9.946100	26.758876	0.000642	20.660980
1573.448202	-3.001600	3.330200	-9.994700	26.786417	0.000643	20.645046
1574.450437	-3.001700	3.329300	-9.993000	26.788180	0.000638	20.652509
1575.450445	-3.003500	3.328600	-9.996500	26.782951	0.000640	20.638241
1576.453187	-2.996600	3.329700	-9.977000	26.731751	0.000638	20.662158
1577.450134	-3.011800	3.328600	-10.024000	26.733571	0.000638	20.647391
1578.450376	-3.002500	3.329000	-9.994100	26.737007	0.000639	20.650372
1579.449324	-2.993900	3.327700	-9.960800	26.770172	0.000638	20.668070
1580.450816	-2.983500	3.327600	-9.926700	26.787629	0.000636	20.651955
1581.451077	-2.999800	3.326300	-9.977600	26.803720	0.000639	20.628776
1582.450909	-2.992400	3.325000	-9.948500	26.830805	0.000637	20.654115
1583.451934	-2.985900	3.325600	-9.929200	26.847859	0.000636	20.645184
1584.455309	-2.995100	3.325300	-9.959200	26.821685	0.000634	20.688571
1585.452398	-2.997000	3.324100	-9.961000	26.791585	0.000635	20.663047
1586.451393	-2.994000	3.324500	-9.952400	26.781616	0.000631	20.661558
1587.453439	-2.964300	3.325000	-9.855500	26.750248	0.000633	20.676489
1588.452460	-3.011900	3.322200	-10.005000	26.698726	0.000632	20.675899
1589.452529	-2.972400	3.324500	-9.880400	26.732367	0.000631	20.657087
1590.452968	-2.971500	3.323900	-9.876200	26.746799	0.000631	20.658794
1591.453126	-3.000300	3.322300	-9.967200	26.742189	0.000629	20.660798
1592.458245	-3.002200	3.322400	-9.973300	26.764014	0.000630	20.688434
1593.454270	-2.991700	3.322800	-9.939900	26.775439	0.000632	20.671944
1594.455882	-2.995600	3.321700	-9.948900	26.767996	0.000629	20.685325
1595.452473	-2.983100	3.322000	-9.909200	26.795685	0.000628	20.670489
1596.453961	-3.005900	3.321600	-9.982900	26.808500	0.000627	20.669149
1597.455420	-2.986800	3.321300	-9.919100	26.818957	0.000629	20.673025
1598.458741	-2.988800	3.321000	-9.924700	26.852918	0.000628	20.683465
1599.454713	-3.009900	3.319900	-9.990800	26.897278	0.000626	20.665953
1600.455590	-3.007200	3.319700	-9.981200	26.853776	0.000625	20.658720
1601.455491	-2.990600	3.317800	-9.920100	26.880245	0.000623	20.681070
1602.456862	-3.011400	3.317600	-9.988100	26.881221	0.000624	20.674464
1603.458760	-2.982100	3.319000	-9.896400	26.892919	0.000623	20.668683
1604.457101	-3.006400	3.316900	-9.969800	26.905606	0.000623	20.683812
1605.462527	-3.004900	3.316200	-9.963600	26.939889	0.000621	20.684621
1606.457390	-3.006600	3.317600	-9.973400	26.921311	0.000622	20.686802
1607.456363	-2.999100	3.317300	-9.948000	26.923952	0.000621	20.672387
1608.460351	-3.004600	3.315900	-9.962000	26.949767	0.000622	20.673216
1609.458557	-3.018700	3.315300	-10.007000	26.946823	0.000619	20.684482
1610.459807	-3.009200	3.315500	-9.975500	26.960485	0.000619	20.690634
1611.458519	-3.019100	3.314500	-10.006000	26.995013	0.000617	20.683155
1612.459537	-3.001400	3.315600	-9.950200	26.988867	0.000618	20.679819
1613.458874	-3.018000	3.313300	-9.998400	26.991208	0.000615	20.683122
1614.460351	-2.988800	3.313200	-9.901600	26.980717	0.000618	20.681106
1615.459546	-3.009300	3.312100	-9.964700	27.013882	0.000617	20.687906
1616.458827	-3.018600	3.313300	-9.999200	27.009746	0.000616	20.694653
1617.459414	-2.996600	3.313000	-9.926500	27.008020	0.000613	20.691969
1618.462275	-3.006200	3.312300	-9.956200	26.993913	0.000615	20.680626
1619.465029	-2.998400	3.311400	-9.927500	27.009280	0.000614	20.693710
1620.462375	-2.977600	3.312600	-9.862000	27.041723	0.000613	20.690774
1621.464477	-3.016500	3.310800	-9.984200	27.046073	0.000612	20.687563
1622.461870	-2.998200	3.310600	-9.923900	27.098641	0.000613	20.685427
1623.462345	-3.000200	3.310300	-9.930000	27.104086	0.000610	20.681420
1624.465264	-2.999700	3.309500	-9.926000	27.113302	0.000611	20.674093
1625.463746	-3.012100	3.310300	-9.969100	27.100434	0.000612	20.686757
1626.462674	-2.985500	3.308400	-9.876600	27.067617	0.000607	20.692160
1627.462528	-2.992900	3.307800	-9.899600	27.006427	0.000609	20.690366
1628.462940	-2.976900	3.310500	-9.854200	26.997182	0.000609	20.705253
1629.462049	-2.990800	3.308800	-9.894900	26.975949	0.000607	20.682950
1630.463504	-3.008500	3.308200	-9.951800	26.986483	0.000608	20.692121
1631.464353	-2.999100	3.308300	-9.921000	27.026647	0.000605	20.699796
1632.469143	-2.994800	3.305900	-9.899400	27.062862	0.000604	20.698284
1633.464811	-3.018500	3.306800	-9.980500	27.065130	0.000604	20.715265
1634.466805	-2.996000	3.306100	-9.903200	27.048161	0.000603	20.690137
1635.471046	-3.013700	3.304100	-9.955300	27.021222	0.000603	20.695762
1636.465554	-3.010100	3.304100	-9.945600	26.973609	0.000604	20.719955
1637.465776	-2.991700	3.304000	-9.883500	26.961859	0.000601	20.703871
1638.464333	-3.012700	3.302800	-9.948300	26.957325	0.000604	20.699311
1639.467144	-3.013600	3.303500	-9.954200	26.969151	0.000597	20.706462
1640.464675	-3.000700	3.303200	-9.911600	26.990325	0.000599	20.701676
1641.469322	-2.989400	3.303700	-9.875100	27.006836	0.000600	20.705004
1642.467280	-2.978600	3.303500	-9.838900	27.016526	0.000599	20.712852
1643.465779	-3.001300	3.303300	-9.913800	27.027777	0.000597	20.706623
1644.466452	-2.970300	3.303500	-9.811300	27.060642	0.000599	20.730193
1645.466768	-2.988300	3.300800	-9.863000	27.057675	0.000597	20.712983
1646.466246	-2.992300	3.300800	-9.876200	27.106270	0.000596	20.703059
1647.467196	-3.006400	3.299800	-9.918700	27.124170	0.000597	20.703992
1648.468502	-2.983800	3.301500	-9.850700	27.097458	0.000593	20.716483
1649.467434	-3.027900	3.299400	-9.989900	27.083992	0.000595	20.710526
1650.467955	-3.007400	3.300300	-9.924100	27.037330	0.000594	20.715756
1651.468991	-3.014600	3.299700	-9.945800	27.023568	0.000593	20.711873
1652.468981	-3.007700	3.298800	-9.920700	27.042760	0.000592	20.717424
1653.469683	-2.989900	3.297600	-9.858500	27.018896	0.000591	20.721400
1654.468073	-3.026800	3.298500	-9.983200	27.002732	0.000589	20.699928
1655.467521	-3.012100	3.298400	-9.934400	27.018301	0.000592	20.719853
1656.469695	-3.032200	3.297400	-9.997700	27.054988	0.000592	20.715970
1657.468900	-3.001000	3.297100	-9.893100	27.040607	0.000590	20.719526
1658.468289	-2.997900	3.296700	-9.882200	27.006718	0.000587	20.722430
1659.467422	-2.998500	3.295900	-9.882100	27.044496	0.000585	20.725808
1660.467732	-3.026400	3.296100	-9.973900	27.029693	0.000585	20.720878
1661.468215	-2.995300	3.295200	-9.869100	27.051145	0.000588	20.733918
1662.468208	-3.017100	3.293700	-9.935500	27.017532	0.000585	20.711967
1663.468988	-3.016500	3.294800	-9.937800	26.996226	0.000584	20.741751
1664.470304	-3.014000	3.293700	-9.925700	26.962385	0.000582	20.724315
1665.469432	-2.997900	3.294900	-9.876200	26.984084	0.000584	20.707728
1666.470297	-2.999300	3.292500	-9.873900	26.971962	0.000584	20.724937
1667.472733	-3.010400	3.293800	-9.913800	26.960056	0.000582	20.726715
1668.470690	-2.987400	3.293100	-9.836400	26.965307	0.000582	20.722037
1669.472214	-3.013500	3.292100	-9.919900	26.948145	0.000580	20.719953
1670.470990	-2.999600	3.291200	-9.870800	26.926882	0.000580	20.741720
1671.472206	-2.963600	3.292000	-9.755700	26.942133	0.000580	20.748522
1672.475067	-2.979700	3.292300	-9.808900	26.949741	0.000580	20.730093
1673.472261	-2.980600	3.289700	-9.804500	26.982703	0.000578	20.718668
1674.472624	-3.018700	3.289300	-9.928400	27.031007	0.000579	20.717932
1675.473443	-2.990300	3.290500	-9.837700	27.068563	0.000579	20.740056
1676.471816	-2.990900	3.290000	-9.839100	27.090904	0.000576	20.720797
1677.475187	-3.005400	3.289100	-9.884300	27.087765	0.000573	20.742772
1678.480783	-2.994500	3.289700	-9.849800	27.102936	0.000574	20.731950
1679.475652	-2.983300	3.291200	-9.817800	27.128325	0.000573	20.730933
1680.477654	-3.015600	3.288100	-9.915300	27.123699	0.000574	20.734815
1681.476840	-3.009600	3.287300	-9.892500	27.134847	0.000576	20.727535
1682.475949	-2.998700	3.287100	-9.855900	27.099155	0.000573	20.727199
1683.478363	-3.039700	3.285500	-9.986500	27.087501	0.000575	20.717849
1684.479079	-2.983400	3.287500	-9.806800	27.099450	0.000572	20.734134
1685.476608	-2.993700	3.286400	-9.837600	27.083081	0.000573	20.720516
1686.476297	-3.002200	3.286500	-9.865800	27.101454	0.000573	20.703905
1687.479480	-2.984900	3.284500	-9.802700	27.161337	0.000571	20.711977
1688.479702	-2.991300	3.285400	-9.826100	27.180779	0.000568	20.729635
1689.475617	-3.008600	3.285900	-9.883300	27.218183	0.000567	20.721738
1690.476427	-3.006300	3.284600	-9.873600	27.242607	0.000569	20.723546
1691.477638	-2.992500	3.284300	-9.827500	27.237457	0.000569	20.711726
1692.477066	-3.001900	3.283400	-9.854200	27.247960	0.000566	20.728456
1693.479152	-2.997800	3.284000	-9.844000	27.266502	0.000566	20.692576
1694.476643	-2.999100	3.281900	-9.841000	27.267705	0.000565	20.710858
1695.489280	-3.000100	3.283200	-9.848300	27.258789	0.000567	20.700466
1696.476941	-3.003800	3.280800	-9.853800	27.279270	0.000564	20.685979
1697.478067	-2.987600	3.282100	-9.804500	27.251016	0.000564	20.720150
1698.481813	-2.991300	3.282100	-9.816800	27.217892	0.000563	20.692520
1699.484429	-2.997300	3.280700	-9.831300	27.223883	0.000564	20.681475
1700.478129	-2.990100	3.280400	-9.808000	27.229845	0.000561	20.696956
1701.479777	-3.006300	3.278800	-9.856700	27.203560	0.000563	20.700390
1702.480599	-3.002100	3.279300	-9.844300	27.272743	0.000559	20.699803
1703.479984	-3.024500	3.279000	-9.916500	27.290700	0.000561	20.689416
1704.481857	-3.001700	3.278900	-9.841200	27.298027	0.000562	20.698209
1705.480663	-3.006400	3.279000	-9.856200	27.310342	0.000560	20.696372
1706.481046	-3.004200	3.277000	-9.844100	27.341957	0.000557	20.705891
1707.481823	-2.986500	3.279400	-9.792800	27.312646	0.000557	20.711967
1708.481419	-3.002300	3.276600	-9.836700	27.310207	0.000556	20.701927
1709.483886	-2.993800	3.276900	-9.809400	27.326808	0.000556	20.690650
1710.482953	-2.987300	3.276300	-9.786000	27.302705	0.000556	20.684896
1711.483858	-3.015800	3.275300	-9.876300	27.287833	0.000555	20.697439
1712.484968	-3.011900	3.274000	-9.859700	27.242591	0.000554	20.703614
1713.483650	-2.989400	3.274700	-9.787200	27.226280	0.000554	20.683886
1714.486020	-3.007100	3.273500	-9.842400	27.174631	0.000553	20.677930
1715.486268	-2.999000	3.274900	-9.820200	27.129831	0.000554	20.677916
1716.486082	-2.980600	3.274200	-9.758000	27.127289	0.000550	20.666822
1717.485832	-2.984200	3.273200	-9.767000	27.135137	0.000551	20.676139
1718.485554	-3.005300	3.272300	-9.833900	27.124874	0.000548	20.678620
1719.484478	-3.024700	3.272200	-9.896700	27.126667	0.000547	20.667620
1720.486033	-3.004100	3.272200	-9.829400	27.108792	0.000547	20.670980
1721.485847	-3.011000	3.272200	-9.851900	27.140935	0.000547	20.655890
1722.490715	-2.999600	3.271500	-9.811300	27.209700	0.000547	20.683331
1723.486375	-3.007300	3.270500	-9.834300	27.235534	0.000548	20.684186
1724.487965	-2.998800	3.270500	-9.806800	27.277823	0.000545	20.648957
1725.491960	-3.022500	3.269100	-9.879100	27.301647	0.000547	20.685255
1726.489556	-2.985500	3.269700	-9.760800	27.260973	0.000544	20.682747
1727.492592	-3.006000	3.270200	-9.828700	27.248973	0.000546	20.663088
1728.490143	-3.007600	3.269500	-9.832000	27.248488	0.000543	20.654064
1729.491237	-2.996600	3.269400	-9.795900	27.260608	0.000546	20.676689
1730.494066	-3.014900	3.268600	-9.853800	27.197146	0.000542	20.665012
1731.499281	-3.014900	3.267700	-9.851000	27.162468	0.000543	20.673756
1732.493353	-3.023600	3.266200	-9.873700	27.097125	0.000539	20.679161
1733.494012	-3.010000	3.268100	-9.835800	27.083954	0.000540	20.675872
1734.492622	-3.003400	3.267500	-9.812100	27.046444	0.000540	20.661854
1735.493923	-3.004200	3.266100	-9.810900	27.060525	0.000541	20.665585
1736.494998	-3.002200	3.265200	-9.801700	27.029345	0.000537	20.667419
1737.493418	-2.997400	3.266100	-9.788600	27.041389	0.000538	20.663409
1738.496538	-3.001700	3.264800	-9.799000	27.007232	0.000539	20.650868
1739.498449	-2.988100	3.266100	-9.758600	26.993613	0.000537	20.670366
1740.492617	-3.007500	3.264000	-9.815300	27.007720	0.000537	20.667956
1741.496157	-2.967600	3.265200	-9.688500	26.998197	0.000536	20.664544
1742.494456	-3.001300	3.263200	-9.792700	27.005581	0.000532	20.653950
1743.493996	-3.019000	3.263000	-9.850300	27.016755	0.000535	20.669456
1744.496903	-3.012800	3.261900	-9.825900	26.999566	0.000532	20.664498
1745.495358	-3.000200	3.262100	-9.786200	27.009680	0.000531	20.647166
1746.495349	-2.995600	3.262100	-9.769400	27.024381	0.000531	20.679498
1747.497165	-2.978100	3.262100	-9.714300	27.039352	0.000530	20.677957
1748.494351	-3.000400	3.260500	-9.782000	27.095566	0.000531	20.677593
1749.496773	-2.986800	3.260900	-9.737700	27.075879	0.000528	20.663482
1750.496501	-3.015900	3.259600	-9.829900	27.058888	0.000529	20.667731
1751.499637	-2.995400	3.260800	-9.765400	27.074506	0.000531	20.664472
1752.504113	-3.007400	3.260400	-9.804000	27.102162	0.000527	20.641549
1753.497690	-3.006700	3.259100	-9.797700	27.144029	0.000526	20.676073
1754.497381	-3.023700	3.257600	-9.848600	27.190234	0.000526	20.652843
1755.506453	-3.011000	3.259600	-9.813400	27.254233	0.000526	20.657947
1756.496741	-3.013000	3.256600	-9.811600	27.276375	0.000525	20.636594
1757.502582	-3.004700	3.257700	-9.787700	27.318161	0.000524	20.652077
1758.498914	-3.000700	3.257600	-9.774800	27.287785	0.000524	20.652340
1759.499244	-3.018900	3.255400	-9.827100	27.277450	0.000525	20.631037
1760.499712	-2.993800	3.256700	-9.749800	27.245181	0.000524	20.655005
1761.499502	-3.020400	3.255800	-9.832500	27.195292	0.000522	20.661250
1762.502824	-3.018100	3.255000	-9.823300	27.183052	0.000522	20.650834
1763.499294	-3.001500	3.255800	-9.771200	27.184398	0.000521	20.646498
1764.499981	-3.040900	3.253000	-9.891300	27.211152	0.000518	20.657762
1765.501678	-3.022000	3.253600	-9.830700	27.246494	0.000518	20.650636
1766.501518	-3.003900	3.254600	-9.775700	27.274115	0.000521	20.642383
1767.503697	-2.993300	3.254300	-9.739400	27.324018	0.000520	20.655598
1768.501645	-2.990800	3.254200	-9.731800	27.363354	0.000520	20.627360
1769.504576	-2.986900	3.253600	-9.717400	27.398391	0.000518	20.651230
1770.503551	-2.978200	3.253400	-9.688100	27.405595	0.000519	20.630974
1771.503301	-3.000900	3.251100	-9.755900	27.386252	0.000516	20.638068
1772.506101	-3.006900	3.252300	-9.777300	27.386214	0.000515	20.656999
1773.509106	-3.000600	3.251300	-9.754200	27.412051	0.000516	20.655015
1774.505929	-3.019800	3.250800	-9.814400	27.426839	0.000513	20.658039
1775.510427	-3.010600	3.252000	-9.789600	27.465320	0.000514	20.644594
1776.507215	-3.000000	3.250300	-9.749900	27.473943	0.000511	20.636673
1777.506999	-2.999100	3.249400	-9.743000	27.453653	0.000510	20.660359
1778.509138	-2.999100	3.248800	-9.742700	27.381235	0.000511	20.642979
1779.507563	-2.995000	3.248200	-9.727200	27.383842	0.000509	20.650345
1780.509281	-2.979800	3.249000	-9.679700	27.357116	0.000510	20.645744
1781.508570	-2.986200	3.249400	-9.701800	27.368538	0.000509	20.634947
1782.510163	-2.984500	3.248000	-9.692500	27.355230	0.000510	20.640526
1783.511958	-2.999500	3.247700	-9.740600	27.345087	0.000508	20.639805
1784.508753	-3.001400	3.247400	-9.745900	27.319517	0.000507	20.635420
1785.509129	-2.993600	3.247700	-9.721300	27.354978	0.000504	20.664458
1786.509748	-3.008900	3.245700	-9.765300	27.327902	0.000504	20.642908
1787.511377	-3.006300	3.244400	-9.752100	27.364722	0.000506	20.650077
1788.510075	-3.012200	3.244700	-9.772800	27.379860	0.000505	20.642070
1789.513999	-2.981100	3.246300	-9.676100	27.393871	0.000502	20.625817
1790.512091	-3.007600	3.243200	-9.753400	27.398712	0.000505	20.628317
1791.512162	-2.988900	3.243900	-9.694700	27.351144	0.000503	20.632622
1792.512635	-3.008100	3.244400	-9.758400	27.335620	0.000501	20.626962
1793.513821	-2.994700	3.244800	-9.715100	27.326401	0.000500	20.657046
1794.514011	-2.997800	3.243200	-9.720400	27.371239	0.000499	20.637191
1795.512246	-3.022300	3.242300	-9.798100	27.400192	0.000498	20.635023
1796.513803	-3.010600	3.242300	-9.759300	27.396562	0.000499	20.639906
1797.513211	-3.022500	3.241200	-9.795400	27.385477	0.000499	20.628278
1798.512188	-3.032200	3.239600	-9.820800	27.346509	0.000496	20.660205
1799.513848	-3.003600	3.241400	-9.734700	27.348479	0.000496	20.653177
1800.517030	-2.993100	3.241300	-9.700200	27.363721	0.000496	20.632946
1801.514734	-2.993500	3.239100	-9.695600	27.416075	0.000496	20.630612
1802.513950	-2.985100	3.242300	-9.677300	27.450579	0.000497	20.630236
1803.514037	-3.006400	3.238600	-9.735100	27.438729	0.000494	20.639178
1804.515073	-2.992300	3.240200	-9.694800	27.478550	0.000492	20.658855
1805.515127	-3.000900	3.238900	-9.719000	27.502445	0.000493	20.650652
1806.517494	-3.020900	3.236800	-9.777200	27.503767	0.000493	20.647240
1807.516365	-2.996800	3.238500	-9.703200	27.481347	0.000491	20.636536
1808.516742	-2.988600	3.237500	-9.674400	27.434107	0.000489	20.653496
1809.517735	-2.994000	3.237400	-9.691600	27.440246	0.000489	20.643550
1810.521519	-3.000500	3.238600	-9.716200	27.435165	0.000489	20.642232
1811.518898	-3.002400	3.236200	-9.715100	27.401561	0.000488	20.632606
1812.521443	-2.984000	3.238200	-9.660400	27.402235	0.000488	20.646087
1813.518405	-2.996900	3.234900	-9.693300	27.319162	0.000486	20.647867
1814.518984	-2.980000	3.234700	-9.637900	27.290341	0.000486	20.626460
1815.518931	-3.002100	3.233700	-9.705900	27.297100	0.000484	20.627094
1816.521617	-2.990700	3.234600	-9.671600	27.317301	0.000485	20.623706
1817.520069	-3.004000	3.233100	-9.711200	27.296769	0.000484	20.638617
1818.524581	-3.004100	3.232300	-9.709400	27.243087	0.000484	20.629188
1819.522247	-3.004900	3.231200	-9.708800	27.237816	0.000482	20.628627
1820.524978	-2.988500	3.232000	-9.657200	27.225467	0.000480	20.630432
1821.523126	-3.010700	3.232300	-9.730300	27.250207	0.000481	20.653422
1822.521354	-2.990400	3.230800	-9.660700	27.269221	0.000480	20.617541
1823.521780	-2.988200	3.231000	-9.653200	27.261067	0.000479	20.625936
1824.522749	-3.009100	3.230800	-9.720400	27.274725	0.000480	20.636831
1825.524120	-3.001800	3.230800	-9.697400	27.265775	0.000478	20.614548
1826.527636	-3.020000	3.229900	-9.752400	27.312679	0.000479	20.615737
1827.526968	-3.014100	3.229100	-9.731900	27.371127	0.000476	20.636129
1828.527733	-2.997400	3.229500	-9.678800	27.420548	0.000474	20.622783
1829.524513	-2.987400	3.230000	-9.648100	27.456411	0.000474	20.618558
1830.524946	-2.999200	3.229900	-9.686200	27.502303	0.000475	20.622056
1831.529885	-3.000800	3.229700	-9.690000	27.485888	0.000476	20.634940
1832.523606	-3.011100	3.227900	-9.717600	27.519557	0.000473	20.616181
1833.524193	-2.982100	3.229400	-9.629900	27.543151	0.000472	20.631387
1834.525002	-3.008200	3.226400	-9.704500	27.558482	0.000471	20.623578
1835.524453	-2.983500	3.227300	-9.628000	27.569480	0.000472	20.622789
1836.525569	-2.989900	3.227400	-9.648900	27.537790	0.000469	20.628363
1837.530690	-2.995100	3.225500	-9.659700	27.512158	0.000469	20.617272
1838.526646	-2.986600	3.225800	-9.632800	27.545024	0.000469	20.627581
1839.526126	-3.001400	3.224600	-9.676400	27.567210	0.000469	20.629990
1840.526173	-2.989000	3.224800	-9.638500	27.597198	0.000467	20.611797
1841.526044	-3.006900	3.222900	-9.689800	27.617645	0.000469	20.642806
1842.528740	-2.998900	3.222100	-9.661500	27.574916	0.000466	20.611661
1843.533378	-3.013200	3.223000	-9.710900	27.548660	0.000464	20.622230
1844.529472	-2.994200	3.224200	-9.653200	27.472840	0.000464	20.623234
1845.527182	-3.007300	3.221500	-9.686900	27.444251	0.000463	20.610116
1846.529066	-2.999500	3.223300	-9.667600	27.412079	0.000463	20.634178
1847.530506	-3.000400	3.222200	-9.665000	27.447440	0.000462	20.627078
1848.530704	-3.009400	3.219800	-9.688800	27.485119	0.000462	20.623259
1849.532046	-2.992800	3.219600	-9.634600	27.494980	0.000461	20.627017
1850.531967	-3.008300	3.219100	-9.683100	27.551489	0.000460	20.612747
1851.532054	-2.972600	3.220500	-9.572000	27.544029	0.000459	20.613776
1852.532627	-2.989400	3.217700	-9.617200	27.512858	0.000457	20.636945
1853.535079	-2.990200	3.219200	-9.625100	27.449614	0.000457	20.632111
1854.533055	-3.030300	3.218100	-9.750400	27.451108	0.000457	20.613222
1855.534885	-3.025200	3.217300	-9.732300	27.474507	0.000456	20.613530
1856.533582	-2.999200	3.216800	-9.646300	27.506561	0.000455	20.621598
1857.534197	-2.976800	3.216800	-9.574100	27.506665	0.000455	20.618384
1858.536956	-2.999700	3.215100	-9.643400	27.538589	0.000454	20.632487
1859.534510	-3.011800	3.215600	-9.683700	27.581479	0.000453	20.604040
1860.537730	-3.001700	3.214700	-9.648300	27.614808	0.000453	20.624302
1861.535241	-2.997600	3.214100	-9.632800	27.594136	0.000453	20.602550
1862.535348	-3.006800	3.214900	-9.665200	27.627502	0.000451	20.595344
1863.535138	-3.003100	3.214500	-9.651300	27.671043	0.000451	20.625885
1864.537040	-2.987900	3.214200	-9.602900	27.672958	0.000450	20.616906
1865.535830	-2.996700	3.214000	-9.629300	27.660315	0.000448	20.608450
1866.535997	-3.022000	3.211200	-9.702500	27.617783	0.000449	20.620183
1867.537482	-3.018300	3.214500	-9.699700	27.549062	0.000445	20.603665
1868.538218	-2.990300	3.212300	-9.604100	27.553034	0.000447	20.602920
1869.542260	-3.016900	3.212100	-9.689600	27.565776	0.000446	20.611949
1870.538790	-3.016700	3.211100	-9.685500	27.585752	0.000445	20.622567
1871.543089	-3.003500	3.211200	-9.643400	27.611726	0.000445	20.626416
1872.539859	-3.024100	3.210200	-9.707200	27.663382	0.000443	20.607268
1873.540118	-2.987300	3.209800	-9.587700	27.672072	0.000442	20.607952
1874.544167	-3.024800	3.210200	-9.709300	27.611909	0.000442	20.616643
1875.540615	-2.998500	3.211800	-9.628500	27.570110	0.000440	20.619629
1876.541386	-2.997900	3.208600	-9.618100	27.548096	0.000441	20.613126
1877.542607	-2.995000	3.208400	-9.608300	27.569700	0.000440	20.610681
1878.541721	-3.020000	3.206700	-9.682300	27.595147	0.000436	20.603093
1879.542940	-2.982300	3.208800	-9.568600	27.644112	0.000437	20.627236
1880.546203	-3.010300	3.206700	-9.652100	27.617828	0.000435	20.593671
1881.545048	-3.008400	3.208500	-9.651800	27.602424	0.000435	20.611365
1882.545388	-2.994400	3.206100	-9.599200	27.617234	0.000433	20.599713
1883.545218	-2.991800	3.208100	-9.597300	27.666541	0.000434	20.609973
1884.545208	-3.000700	3.204400	-9.615200	27.688578	0.000434	20.610812
1885.551779	-3.010000	3.205500	-9.647900	27.732178	0.000435	20.597786
1886.547361	-2.968400	3.207500	-9.519700	27.766249	0.000432	20.599356
1887.546362	-3.000800	3.203800	-9.612700	27.771976	0.000430	20.589471
1888.545861	-3.008400	3.203800	-9.635500	27.777490	0.000430	20.624897
1889.546548	-2.986900	3.203600	-9.566300	27.742006	0.000429	20.602935
1890.549015	-2.979700	3.203000	-9.543400	27.734718	0.000428	20.613146
1891.547634	-3.023700	3.204000	-9.687200	27.716055	0.000425	20.601002
1892.545824	-3.042000	3.200900	-9.735700	27.688830	0.000428	20.623869
1893.545475	-3.022900	3.202100	-9.679000	27.685532	0.000425	20.613437
1894.548418	-3.019700	3.200100	-9.662500	27.727938	0.000425	20.600632
1895.546707	-3.000600	3.199900	-9.601200	27.717579	0.000424	20.612020
1896.552648	-2.984600	3.200100	-9.550000	27.732663	0.000424	20.603965
1897.547168	-3.001500	3.199800	-9.603300	27.697153	0.000423	20.611380
1898.551899	-2.999100	3.199100	-9.593700	27.698297	0.000421	20.613006
1899.547699	-3.004700	3.197600	-9.607100	27.666060	0.000421	20.615655
1900.547733	-3.009700	3.198900	-9.626300	27.660761	0.000421	20.620280
1901.548697	-3.014600	3.198400	-9.640600	27.702460	0.000421	20.610556
1902.546626	-3.017000	3.196900	-9.644100	27.708438	0.000419	20.622264
1903.547199	-3.024200	3.196700	-9.666000	27.762526	0.000418	20.587072
1904.547192	-3.023200	3.195100	-9.657500	27.777211	0.000417	20.615133
1905.548003	-3.012800	3.196900	-9.630100	27.794473	0.000416	20.615909
1906.550477	-3.010500	3.196300	-9.621800	27.854833	0.000416	20.595572
1907.548264	-3.033900	3.194500	-9.691400	27.898555	0.000414	20.615398
1908.549706	-2.999800	3.196900	-9.588300	27.918397	0.000416	20.616877
1909.549345	-2.998400	3.194200	-9.576200	27.903328	0.000412	20.618780
1910.548409	-2.957800	3.195700	-9.450600	27.873820	0.000415	20.599983
1911.551554	-3.007100	3.195800	-9.609000	27.827112	0.000412	20.619359
1912.549760	-2.999200	3.194000	-9.578300	27.802515	0.000412	20.595075
1913.552603	-2.991200	3.193300	-9.551000	27.775317	0.000409	20.624607
1914.549389	-2.995200	3.193100	-9.563000	27.770905	0.000412	20.601197
1915.549469	-2.992100	3.192200	-9.550500	27.780255	0.000408	20.642855
1916.552695	-3.007500	3.190600	-9.594600	27.809717	0.000409	20.623191
1917.553560	-2.986200	3.190000	-9.524100	27.845089	0.000406	20.622280
1918.550557	-3.003900	3.189800	-9.581000	27.863952	0.000405	20.623246
1919.549659	-2.994900	3.189000	-9.549300	27.884681	0.000405	20.612813
1920.556185	-2.996200	3.188700	-9.552000	27.902290	0.000405	20.638600
1921.552886	-3.013500	3.190300	-9.613100	27.914238	0.000403	20.611742
1922.550235	-3.029200	3.188700	-9.657500	27.922205	0.000400	20.612648
1923.555462	-2.990700	3.187400	-9.531700	27.895596	0.000402	20.632337
1924.549654	-3.008800	3.188400	-9.592300	27.903605	0.000403	20.631389
1925.549202	-3.046000	3.187100	-9.706400	27.905165	0.000402	20.632959
1926.550598	-3.028100	3.186200	-9.647200	27.944217	0.000401	20.638600
1927.551259	-3.017400	3.186300	-9.612100	27.954336	0.000399	20.619385
1928.549941	-2.977400	3.185800	-9.484700	27.920442	0.000397	20.624626
1929.549676	-2.997700	3.185100	-9.546900	27.921231	0.000397	20.640121
1930.550747	-3.007000	3.185000	-9.576200	27.938962	0.000398	20.635681
1931.551709	-2.975200	3.184700	-9.474800	27.963231	0.000397	20.633556
1932.553125	-2.980600	3.186000	-9.495200	27.952232	0.000394	20.627226
1933.553263	-3.014400	3.184600	-9.599200	27.927907	0.000393	20.629769
1934.555247	-3.001300	3.183300	-9.554100	27.890170	0.000393	20.640627
1935.553012	-3.000400	3.183000	-9.549400	27.821135	0.000393	20.636580
1936.552357	-3.010700	3.182600	-9.579700	27.814068	0.000392	20.635158
1937.556108	-3.001900	3.183300	-9.555100	27.799511	0.000390	20.637104
1938.553308	-2.984900	3.183800	-9.501900	27.826886	0.000391	20.634782
1939.560905	-2.982900	3.182800	-9.493200	27.862374	0.000389	20.629720
1940.554830	-2.996900	3.181800	-9.534400	27.867501	0.000390	20.633458
1941.553668	-2.992900	3.180600	-9.518100	27.833605	0.000388	20.644389
1942.557166	-3.007600	3.179300	-9.561300	27.790455	0.000389	20.641741
1943.559310	-3.008900	3.178900	-9.563300	27.785181	0.000386	20.602763
1944.554617	-3.008200	3.178800	-9.561300	27.819122	0.000386	20.655419
1945.555470	-2.980200	3.178800	-9.472000	27.818051	0.000387	20.633002
1946.565234	-2.978500	3.178000	-9.464800	27.852027	0.000383	20.631160
1947.555708	-2.968600	3.178000	-9.432700	27.839949	0.000383	20.637498
1948.559707	-3.019200	3.175900	-9.587900	27.869263	0.000383	20.648510
1949.557315	-3.027600	3.176800	-9.616400	27.882130	0.000379	20.646760
1950.560713	-2.991800	3.177100	-9.502500	27.940002	0.000379	20.637202
1951.558170	-3.015600	3.176000	-9.576900	27.999925	0.000379	20.637775
1952.558082	-3.015800	3.174000	-9.571200	28.029186	0.000379	20.660119
1953.561734	-3.000900	3.173200	-9.520700	28.022989	0.000377	20.649138
1954.558947	-3.034400	3.173800	-9.628800	28.004514	0.000377	20.632910
1955.560407	-2.994000	3.174500	-9.502600	28.011610	0.000375	20.637683
1956.560440	-2.996200	3.173300	-9.506900	28.041684	0.000377	20.649465
1957.560951	-3.026600	3.172900	-9.602200	28.044932	0.000376	20.663167
1958.561564	-3.022800	3.170900	-9.584300	28.059192	0.000374	20.628205
1959.563406	-3.017700	3.170800	-9.567700	28.053882	0.000374	20.642302
1960.561529	-2.990500	3.170300	-9.479300	28.070601	0.000372	20.643011
1961.562232	-2.995200	3.170700	-9.495000	28.100520	0.000372	20.647525
1962.561665	-2.990100	3.172900	-9.486000	28.146287	0.000369	20.652822
1963.562218	-2.988100	3.170100	-9.471100	28.142801	0.000368	20.651209
1964.565419	-3.001600	3.169300	-9.511400	28.130768	0.000370	20.654269
1965.562177	-2.989200	3.169900	-9.474500	28.088586	0.000367	20.647840
1966.564504	-3.010400	3.168400	-9.536700	28.075733	0.000367	20.660982
1967.562893	-2.990700	3.169200	-9.477300	28.104056	0.000366	20.660570
1968.562466	-3.013700	3.166800	-9.542600	28.123019	0.000364	20.633663
1969.565159	-2.984400	3.167600	-9.453000	28.142532	0.000362	20.665638
1970.562152	-2.999200	3.168000	-9.500100	28.168565	0.000364	20.639686
1971.562301	-2.987800	3.166500	-9.459400	28.171042	0.000361	20.663046
1972.562369	-2.978400	3.166500	-9.429000	28.183741	0.000361	20.678677
1973.562274	-2.995000	3.166000	-9.481200	28.205552	0.000361	20.656062
1974.561587	-3.004400	3.164300	-9.505600	28.228727	0.000359	20.652367
1975.565899	-2.989700	3.163900	-9.457900	28.260825	0.000359	20.649596
1976.562356	-3.006600	3.162900	-9.509100	28.249577	0.000358	20.651548
1977.563337	-2.975600	3.166300	-9.419000	28.256262	0.000357	20.684835
1978.562598	-2.974100	3.163000	-9.405500	28.232274	0.000354	20.643136
1979.562242	-3.005500	3.163700	-9.506800	28.207784	0.000354	20.662578
1980.565573	-3.004800	3.161000	-9.497100	28.180517	0.000356	20.669741
1981.563558	-3.017900	3.161000	-9.538300	28.150723	0.000353	20.659659
1982.563042	-3.019700	3.158400	-9.536900	28.122488	0.000353	20.668694
1983.564840	-2.970400	3.160800	-9.387900	28.083222	0.000351	20.677531
1984.564435	-2.997500	3.159100	-9.468400	28.059751	0.000353	20.665757
1985.566544	-3.008700	3.160600	-9.508200	28.045791	0.000348	20.669248
1986.563891	-3.017600	3.157000	-9.525800	28.062228	0.000350	20.665405
1987.564397	-3.005400	3.156000	-9.484400	28.061611	0.000350	20.682803
1988.565814	-3.007500	3.155700	-9.489100	28.104633	0.000350	20.680593
1989.567334	-3.013100	3.154800	-9.504500	28.135786	0.000346	20.659795
1990.564668	-3.009200	3.154500	-9.491900	28.125058	0.000345	20.663220
1991.573541	-3.000100	3.154300	-9.462800	28.111845	0.000344	20.680267
1992.565906	-3.031200	3.153600	-9.557600	28.131829	0.000345	20.702757
1993.567913	-2.993100	3.155600	-9.444200	28.159391	0.000342	20.662696
1994.570625	-2.994900	3.153800	-9.443900	28.212740	0.000342	20.680372
1995.567674	-2.990000	3.153400	-9.428000	28.214275	0.000344	20.687133
1996.567910	-2.988800	3.152500	-9.421100	28.246520	0.000342	20.662696
1997.567307	-2.985900	3.153600	-9.415500	28.254833	0.000340	20.674860
1998.566526	-2.986900	3.152000	-9.412700	28.286465	0.000340	20.689641
1999.567453	-2.972200	3.152500	-9.369200	28.302104	0.000340	20.679781
2000.570186	-3.020400	3.148500	-9.508000	28.339306	0.000338	20.684049
2001.569346	-2.970200	3.150700	-9.356200	28.366374	0.000337	20.698503
2002.569115	-3.009700	3.148600	-9.475300	28.379907	0.000337	20.675618
2003.569746	-2.981400	3.150000	-9.390500	28.374807	0.000336	20.708418
2004.569366	-2.998800	3.148100	-9.439900	28.333833	0.000334	20.690392
2005.570091	-3.008800	3.147900	-9.469300	28.293836	0.000337	20.665291
2006.572268	-2.984100	3.147200	-9.391000	28.266521	0.000336	20.670033
2007.570973	-3.002500	3.146600	-9.446800	28.293414	0.000332	20.700431
2008.581905	-3.016900	3.146700	-9.492000	28.286521	0.000332	20.684954
2009.571281	-3.009100	3.145100	-9.463200	28.256185	0.000330	20.683335
2010.574534	-2.986000	3.146800	-9.395100	28.207066	0.000331	20.692678
2011.578634	-3.001000	3.142900	-9.431100	28.141251	0.000330	20.697069
2012.571550	-2.990000	3.144200	-9.398900	28.155949	0.000328	20.705703
2013.572251	-2.997600	3.144100	-9.423900	28.191573	0.000328	20.685614
2014.572887	-3.010800	3.143200	-9.462700	28.253642	0.000327	20.682670
2015.573048	-3.013300	3.141300	-9.463500	28.271164	0.000326	20.708375
2016.572837	-2.996500	3.142100	-9.414400	28.329112	0.000324	20.686587
2017.572803	-2.980700	3.141800	-9.363200	28.368026	0.000326	20.688312
2018.575373	-3.012000	3.140000	-9.456700	28.407360	0.000325	20.696626
2019.573781	-2.992600	3.140500	-9.397400	28.442975	0.000323	20.708308
2020.573623	-2.992100	3.140100	-9.394900	28.420520	0.000325	20.715094
2021.580006	-3.005600	3.138600	-9.432700	28.381933	0.000321	20.680503
2022.577156	-3.022500	3.137300	-9.481800	28.378166	0.000321	20.698522
2023.578257	-3.004400	3.138100	-9.426600	28.384838	0.000322	20.707138
2024.576675	-2.989800	3.138400	-9.382000	28.372864	0.000319	20.687967
2025.577273	-3.021500	3.137200	-9.476800	28.324703	0.000320	20.714392
2026.579351	-2.983000	3.136400	-9.355300	28.305029	0.000318	20.686994
2027.584898	-3.004500	3.133700	-9.414600	28.296748	0.000318	20.705685
2028.577627	-2.981500	3.135800	-9.347300	28.309640	0.000316	20.703967
2029.578927	-2.999300	3.133300	-9.396700	28.328794	0.000317	20.696225
2030.578629	-2.996600	3.133900	-9.390600	28.321413	0.000313	20.718192
2031.579884	-3.004600	3.131900	-9.408900	28.327193	0.000311	20.725435
2032.582673	-2.996900	3.132000	-9.385300	28.389938	0.000314	20.729345
2033.579638	-2.990300	3.132300	-9.365500	28.364792	0.000315	20.701651
2034.581614	-3.002600	3.130900	-9.399500	28.331400	0.000311	20.732990
2035.585343	-2.996600	3.129400	-9.376700	28.347295	0.000310	20.716752
2036.582938	-3.012000	3.130300	-9.426800	28.330911	0.000309	20.723489
2037.584018	-3.013200	3.129000	-9.427800	28.304686	0.000309	20.708937
2038.581638	-2.994200	3.127800	-9.364100	28.275935	0.000307	20.705593
2039.581440	-2.994900	3.128000	-9.366900	28.282804	0.000307	20.701128
2040.593367	-2.997600	3.128000	-9.375600	28.298467	0.000305	20.723064
2041.591277	-3.019400	3.126600	-9.439900	28.286498	0.000305	20.718599
2042.582229	-3.000400	3.125200	-9.376200	28.356633	0.000306	20.710981
2043.584618	-2.995000	3.126000	-9.361600	28.355154	0.000302	20.727984
2044.585286	-3.022200	3.123600	-9.439600	28.366626	0.000304	20.717725
2045.585708	-3.007600	3.123500	-9.392700	28.309751	0.000303	20.734426
2046.590277	-2.990000	3.122700	-9.336000	28.277337	0.000301	20.720755
2047.587434	-2.996600	3.121600	-9.353300	28.269997	0.000301	20.727591
2048.590658	-2.985300	3.122400	-9.319100	28.292131	0.000302	20.735178
2049.587466	-2.988700	3.122800	-9.332300	28.288670	0.000299	20.728848
2050.589290	-2.991400	3.120100	-9.331700	28.307556	0.000299	20.726052
2051.585867	-3.000900	3.121800	-9.367300	28.338685	0.000299	20.715195
2052.587282	-2.995000	3.120600	-9.345100	28.355069	0.000297	20.734064
2053.589026	-3.028400	3.119100	-9.444400	28.364689	0.000296	20.720990
2054.592046	-3.001600	3.118300	-9.359300	28.426155	0.000295	20.743529
2055.588777	-3.008500	3.116800	-9.376300	28.415893	0.000296	20.746473
2056.588070	-2.979600	3.117100	-9.286800	28.399444	0.000294	20.727537
2057.588309	-3.009800	3.117800	-9.381900	28.360116	0.000294	20.730610
2058.588565	-2.985200	3.115600	-9.300100	28.306909	0.000292	20.735358
2059.593527	-2.988400	3.114700	-9.307300	28.284152	0.000293	20.741368
2060.593553	-2.973700	3.114600	-9.261100	28.287730	0.000292	20.742126
2061.594003	-3.040100	3.113100	-9.463500	28.290905	0.000290	20.727778
2062.589627	-2.981700	3.113900	-9.283300	28.316536	0.000288	20.727507
2063.590435	-2.989100	3.112100	-9.299600	28.365040	0.000290	20.733672
2064.591910	-2.980700	3.112900	-9.277400	28.391092	0.000289	20.755638
2065.590909	-2.999300	3.110600	-9.328300	28.335624	0.000289	20.743408
2066.590639	-3.021800	3.109400	-9.394600	28.352901	0.000287	20.737570
2067.592689	-3.002300	3.110000	-9.335900	28.324848	0.000288	20.752947
2068.593595	-2.986400	3.108900	-9.283400	28.319699	0.000284	20.744443
2069.593684	-2.986700	3.108000	-9.281700	28.302355	0.000284	20.749266
2070.603828	-3.001100	3.108900	-9.329700	28.307713	0.000283	20.748970
2071.592505	-2.994600	3.107200	-9.304400	28.325584	0.000282	20.751791
2072.599898	-3.022300	3.106100	-9.387400	28.376845	0.000283	20.769268
2073.592386	-2.988900	3.108200	-9.289800	28.432335	0.000283	20.731734
2074.593687	-3.013900	3.105200	-9.357000	28.413629	0.000281	20.761737
2075.595767	-2.997700	3.105700	-9.309000	28.371867	0.000280	20.719683
2076.592926	-2.998300	3.105000	-9.308700	28.338660	0.000280	20.745043
2077.592352	-3.006300	3.102500	-9.325600	28.308026	0.000278	20.760666
2078.592860	-2.997900	3.103400	-9.302500	28.336166	0.000280	20.745376
2079.593642	-3.006500	3.101000	-9.322700	28.347523	0.000275	20.757286
2080.593815	-2.993100	3.100300	-9.278600	28.424228	0.000278	20.738744
2081.593354	-2.985300	3.100600	-9.255300	28.472782	0.000277	20.766302
2082.596179	-2.972200	3.100800	-9.215300	28.481801	0.000275	20.751202
2083.592856	-2.998600	3.098600	-9.289500	28.532927	0.000275	20.759541
2084.593345	-2.991600	3.097700	-9.264900	28.557513	0.000273	20.748266
2085.597121	-3.013500	3.096400	-9.330100	28.594309	0.000274	20.763039
2086.594043	-2.979600	3.097000	-9.227100	28.634950	0.000273	20.764615
2087.592838	-3.004800	3.094700	-9.298000	28.651793	0.000271	20.774942
2088.595778	-2.980900	3.096600	-9.229600	28.627717	0.000271	20.759702
2089.592947	-3.019100	3.092600	-9.334200	28.651573	0.000271	20.769505
2090.601626	-2.990800	3.093500	-9.250800	28.621799	0.000271	20.763698
2091.597415	-2.986700	3.093300	-9.237400	28.632254	0.000269	20.760478
2092.593446	-3.009700	3.091500	-9.303100	28.654136	0.000268	20.756912
2093.599934	-3.004000	3.090200	-9.282700	28.649979	0.000267	20.759838
2094.601761	-2.995900	3.091100	-9.259600	28.651140	0.000267	20.752473
2095.596907	-2.982300	3.090000	-9.214400	28.672722	0.000264	20.768995
2096.598098	-2.976000	3.089700	-9.192900	28.658160	0.000265	20.774716
2097.602258	-2.988800	3.089000	-9.231700	28.590514	0.000264	20.758268
2098.597344	-2.994500	3.087000	-9.243000	28.580732	0.000263	20.778762
2099.597406	-2.994600	3.085800	-9.239800	28.553749	0.000263	20.762493
2100.599447	-2.980200	3.086700	-9.197800	28.526986	0.000262	20.782007
2101.602512	-2.983700	3.085900	-9.206200	28.512714	0.000263	20.767635
2102.602445	-2.997200	3.083800	-9.241100	28.549574	0.000260	20.768245
2103.600030	-3.029700	3.083100	-9.339800	28.534226	0.000260	20.767013
2104.600393	-3.019000	3.083700	-9.308700	28.531108	0.000260	20.793271
2105.607999	-3.025900	3.081400	-9.322800	28.542114	0.000259	20.768319
2106.600802	-2.995900	3.081500	-9.231100	28.565930	0.000259	20.776183
2107.603965	-3.004400	3.081300	-9.256600	28.607935	0.000257	20.781504
2108.605886	-3.005000	3.080100	-9.253600	28.645451	0.000258	20.800323
2109.604831	-2.977400	3.079900	-9.169400	28.680716	0.000256	20.771831
2110.607378	-2.983800	3.080000	-9.189400	28.692833	0.000257	20.772182
2111.603858	-2.997200	3.077000	-9.221500	28.709885	0.000252	20.789357
2112.604979	-2.992200	3.077300	-9.206400	28.648662	0.000255	20.773685
2113.603831	-2.981800	3.076300	-9.171100	28.647825	0.000257	20.779954
2114.603151	-2.982700	3.076200	-9.174500	28.694999	0.000253	20.793329
2115.603109	-3.018800	3.074200	-9.278400	28.737916	0.000251	20.785349
2116.602440	-3.004400	3.072900	-9.231600	28.725983	0.000254	20.785183
2117.602309	-2.988100	3.072700	-9.180000	28.741224	0.000252	20.800061
2118.604302	-2.989500	3.073100	-9.186000	28.735802	0.000253	20.779901
2119.606279	-2.999500	3.072500	-9.215000	28.776493	0.000251	20.776318
2120.603365	-3.008400	3.070000	-9.234700	28.775349	0.000249	20.771847
2121.602262	-3.006500	3.069600	-9.228300	28.795150	0.000248	20.786577
2122.603819	-2.997800	3.068300	-9.195800	28.808263	0.000248	20.776553
2123.607022	-3.019100	3.067300	-9.258900	28.792455	0.000248	20.780543
2124.602890	-2.989400	3.068100	-9.171000	28.826247	0.000247	20.801781
2125.606389	-3.005700	3.064600	-9.209500	28.816185	0.000246	20.779317
2126.604720	-2.977800	3.065100	-9.126600	28.838809	0.000247	20.785987
2127.606013	-2.984700	3.065000	-9.147300	28.826725	0.000246	20.793727
2128.608254	-3.004000	3.063100	-9.200900	28.815257	0.000245	20.789762
2129.610010	-3.010200	3.062200	-9.215800	28.789198	0.000247	20.804763
2130.605604	-2.990100	3.062300	-9.155400	28.779093	0.000246	20.792687
2131.606841	-2.990000	3.062500	-9.156200	28.730713	0.000244	20.787103
2132.608711	-3.024300	3.058700	-9.248600	28.740647	0.000247	20.808015
2133.606282	-3.010100	3.058700	-9.205800	28.743081	0.000244	20.783913
2134.609879	-3.009100	3.058900	-9.203100	28.686543	0.000244	20.792399
2135.608114	-2.982300	3.056700	-9.115600	28.652771	0.000243	20.791100
2136.611547	-2.993000	3.056900	-9.147900	28.622428	0.000242	20.803687
2137.607610	-2.996800	3.055400	-9.155000	28.591178	0.000241	20.789283
2138.607421	-2.981700	3.055900	-9.110000	28.563181	0.000240	20.802813
2139.610734	-3.000400	3.052800	-9.159000	28.579806	0.000241	20.780675
2140.606033	-2.993200	3.053500	-9.138700	28.556719	0.000239	20.804839
2141.613654	-3.001700	3.050300	-9.155200	28.527162	0.000238	20.796884
2142.608394	-3.007600	3.051200	-9.176000	28.495445	0.000237	20.800505
2143.616985	-3.021300	3.048900	-9.210300	28.511209	0.000239	20.780818
2144.607826	-2.995100	3.048400	-9.129400	28.513661	0.000238	20.772856
2145.610980	-3.011100	3.048500	-9.178900	28.555540	0.000237	20.793220
2146.609590	-3.011900	3.046300	-9.174100	28.624014	0.000238	20.793430
2147.609111	-3.003500	3.046200	-9.148500	28.612464	0.000235	20.775634
2148.607688	-3.012500	3.045000	-9.172300	28.580475	0.000237	20.794151
2149.608396	-3.018200	3.043100	-9.184100	28.549750	0.000235	20.802088
2150.613430	-2.985100	3.043600	-9.083900	28.551145	0.000235	20.794484
2151.612888	-3.017300	3.041600	-9.176600	28.555040	0.000233	20.769009
2152.612609	-2.986100	3.040700	-9.078200	28.599473	0.000237	20.776775
2153.611402	-2.993700	3.040800	-9.102600	28.643629	0.000234	20.782366
2154.611001	-3.027100	3.038200	-9.196000	28.668653	0.000234	20.761103
2155.613039	-2.982700	3.039600	-9.064900	28.690761	0.000234	20.771517
2156.612204	-2.986300	3.037100	-9.068800	28.739118	0.000233	20.767119
2157.611341	-3.008200	3.036400	-9.132900	28.739027	0.000232	20.784098
2158.617947	-3.002700	3.035800	-9.114600	28.805771	0.000235	20.778309
2159.612508	-2.971400	3.035100	-9.015800	28.801907	0.000234	20.759244
2160.611777	-3.002400	3.032500	-9.103200	28.757856	0.000232	20.763234
2161.612542	-3.007800	3.031300	-9.116300	28.662009	0.000230	20.763894
2162.613202	-3.026400	3.029100	-9.165900	28.660743	0.000230	20.772577
2163.626583	-3.015400	3.028600	-9.130500	28.664234	0.000230	20.766610
2164.614109	-3.015500	3.028400	-9.131200	28.666197	0.000230	20.788976
2165.617330	-2.997200	3.028100	-9.075100	28.684979	0.000227	20.747200
2166.615414	-2.997000	3.024700	-9.063800	28.703045	0.000229	20.774881
2167.625696	-3.014000	3.024700	-9.115500	28.708467	0.000227	20.779394
2168.615170	-3.020600	3.023700	-9.131800	28.736418	0.000230	20.773409
2169.615168	-3.016100	3.021400	-9.112600	28.799599	0.000226	20.774463
2170.617311	-3.002500	3.021800	-9.072100	28.811237	0.000229	20.761530
2171.617684	-3.006400	3.020800	-9.081200	28.759313	0.000227	20.747632
2172.616331	-3.006300	3.019400	-9.076000	28.700924	0.000226	20.767529
2173.614774	-2.984700	3.020000	-9.012900	28.645797	0.000226	20.751832
2174.614930	-2.996200	3.017500	-9.039500	28.580511	0.000226	20.763841
2175.615700	-3.006600	3.016100	-9.067000	28.535913	0.000225	20.769187
2176.628056	-3.020400	3.014400	-9.103900	28.520840	0.000226	20.746894
2177.614321	-3.016400	3.013600	-9.088700	28.521715	0.000225	20.742085
2178.615966	-2.995400	3.014000	-9.026800	28.557993	0.000226	20.764396
2179.618031	-2.990900	3.012500	-9.008600	28.575657	0.000225	20.751365
2180.615127	-2.995200	3.011400	-9.018800	28.566823	0.000224	20.775660
2181.618430	-2.996500	3.009600	-9.017000	28.608912	0.000223	20.741235
2182.618301	-2.990500	3.010400	-9.001800	28.646996	0.000222	20.752092
2183.617743	-3.008900	3.006700	-9.045900	28.696133	0.000223	20.739468
2184.618986	-2.999900	3.005700	-9.016900	28.732655	0.000222	20.738323
2185.618249	-2.992500	3.003600	-8.987600	28.702779	0.000223	20.760388
2186.619511	-2.969600	3.005700	-8.924200	28.702535	0.000224	20.744969
2187.624341	-2.985000	3.003500	-8.964000	28.739172	0.000223	20.741569
2188.620142	-2.984600	3.002000	-8.958300	28.805452	0.000221	20.746693
2189.622754	-3.013300	3.000300	-9.039600	28.825148	0.000222	20.753732
2190.625977	-3.002200	2.999500	-9.004600	28.861544	0.000222	20.722116
2191.621270	-2.997000	2.998200	-8.983700	28.930155	0.000220	20.756152
2192.625407	-3.003700	2.995600	-8.996800	28.968235	0.000222	20.740462
2193.625126	-3.023500	2.994800	-9.053800	28.997347	0.000219	20.742766
2194.624400	-3.000100	2.995300	-8.984700	28.989803	0.000221	20.736114
2195.625541	-3.004000	2.992600	-8.988800	28.933805	0.000220	20.729956
2196.624905	-3.005300	2.990800	-8.987400	28.953872	0.000221	20.753967
2197.624867	-3.019000	2.989300	-9.024300	28.955566	0.000218	20.747613
2198.625825	-2.991700	2.989400	-8.942200	29.001161	0.000219	20.733806
2199.624527	-2.999200	2.986200	-8.955600	29.043442	0.000221	20.741319
2200.626116	-2.995900	2.987200	-8.948700	29.010346	0.000217	20.731681
2201.624650	-2.986500	2.986000	-8.916100	28.997103	0.000218	20.743468
2202.625228	-2.999900	2.983700	-8.949500	29.029867	0.000220	20.733806
2203.629745	-3.023500	2.981500	-9.013900	29.074103	0.000218	20.729064
2204.627354	-2.997400	2.980800	-8.932900	29.109242	0.000219	20.738867
2205.631371	-2.999800	2.979300	-8.936500	29.154422	0.000220	20.736977
2206.634805	-3.029200	2.977700	-9.019000	29.182832	0.000218	20.740476
2207.627974	-2.988500	2.977200	-8.896300	29.239545	0.000217	20.720339
2208.630169	-3.005000	2.974900	-8.938000	29.217797	0.000219	20.723553
2209.630293	-3.003500	2.975100	-8.934700	29.224440	0.000217	20.730247
2210.629037	-2.990000	2.973200	-8.889700	29.189096	0.000218	20.736830
2211.631435	-3.013900	2.971400	-8.953000	29.156813	0.000215	20.746025
2212.629294	-3.028600	2.968900	-8.990200	29.135186	0.000217	20.745569
2213.629831	-3.001700	2.968400	-8.908500	29.132240	0.000217	20.721737
2214.632900	-2.972600	2.966900	-8.818100	29.057768	0.000217	20.717346
2215.630595	-3.008700	2.964700	-8.918900	29.016429	0.000217	20.726903
2216.629644	-3.024100	2.962800	-8.958600	28.984800	0.000216	20.733918
2217.630917	-3.007200	2.962200	-8.906700	28.986121	0.000219	20.717704
2218.630845	-3.033700	2.960200	-8.979100	29.018806	0.000215	20.731670
2219.632275	-2.997900	2.960300	-8.874600	29.031795	0.000216	20.737644
2220.630972	-2.990600	2.958500	-8.845500	29.014083	0.000216	20.727385
2221.632888	-3.058100	2.954900	-9.033500	29.045338	0.000213	20.730426
2222.632357	-2.974500	2.954700	-8.787600	29.066472	0.000216	20.725642
2223.633550	-2.997400	2.954600	-8.855100	29.060452	0.000214	20.725266
2224.635755	-3.006800	2.951100	-8.872000	29.073457	0.000215	20.722249
2225.635161	-3.021000	2.948400	-8.905600	29.051267	0.000215	20.731659
2226.634539	-2.998500	2.948000	-8.837800	29.052550	0.000218	20.730107
2227.634018	-2.978900	2.948400	-8.782100	29.050301	0.000216	20.724048
2228.633726	-2.995700	2.945700	-8.823300	29.067891	0.000215	20.720907
2229.634052	-2.986600	2.944900	-8.794100	29.080938	0.000215	20.717458
2230.644649	-3.006900	2.942700	-8.847400	29.082552	0.000217	20.726671
2231.635052	-2.991000	2.941300	-8.796400	29.076978	0.000213	20.721529
2232.637825	-2.961100	2.940800	-8.707300	29.022438	0.000216	20.709724
2233.638304	-3.026200	2.936500	-8.885900	29.008871	0.000215	20.718340
2234.644269	-2.990100	2.937500	-8.782500	28.952396	0.000214	20.726401
2235.638651	-2.975900	2.934900	-8.732500	28.895661	0.000213	20.721873
2236.639738	-3.002200	2.932600	-8.803000	28.821503	0.000213	20.718290
2237.639344	-2.992000	2.932100	-8.771500	28.809265	0.000212	20.714497
2238.639116	-3.063500	2.927700	-8.967500	28.771804	0.000213	20.722281
2239.640036	-2.965100	2.929200	-8.682600	28.737661	0.000214	20.704957
2240.640983	-3.017000	2.926800	-8.828800	28.719976	0.000214	20.751156
2241.641737	-3.009300	2.924700	-8.800400	28.744576	0.000211	20.718087
2242.639702	-3.009100	2.923600	-8.797200	28.749778	0.000213	20.708153
2243.637819	-2.994700	2.922800	-8.752000	28.767195	0.000215	20.710524
2244.640178	-3.013500	2.918500	-8.794100	28.749143	0.000211	20.720791
2245.640831	-2.994100	2.918100	-8.736000	28.713790	0.000213	20.718371
2246.643449	-3.007400	2.916700	-8.770700	28.723699	0.000212	20.722189
2247.643360	-3.026000	2.914300	-8.817500	28.747365	0.000213	20.720896
2248.647251	-3.003900	2.913300	-8.749900	28.817891	0.000212	20.715126
2249.644315	-2.994000	2.912100	-8.717500	28.897833	0.000212	20.702723
2250.646132	-3.009700	2.910100	-8.757400	28.928676	0.000211	20.715779
2251.645654	-3.007800	2.907800	-8.744100	28.962813	0.000212	20.735473
2252.649128	-2.974600	2.907800	-8.648600	29.012771	0.000211	20.727960
2253.647872	-2.996300	2.904600	-8.702000	29.073314	0.000214	20.714518
2254.648166	-3.001600	2.903200	-8.712700	29.042597	0.000212	20.720552
2255.647875	-3.008600	2.901800	-8.729000	29.025411	0.000213	20.732161
2256.648290	-3.041700	2.898400	-8.814700	29.054442	0.000210	20.717788
2257.649119	-2.986400	2.897900	-8.653300	29.076957	0.000211	20.707282
2258.648253	-2.979900	2.896900	-8.631800	29.071982	0.000209	20.713176
2259.648440	-3.002200	2.894900	-8.690200	29.070895	0.000212	20.718718
2260.648755	-2.995000	2.892100	-8.660200	29.041352	0.000211	20.709340
2261.649612	-2.990500	2.891400	-8.645600	29.059656	0.000211	20.718300
2262.652761	-3.019600	2.887500	-8.717300	29.081676	0.000212	20.706347
2263.648509	-2.984300	2.886200	-8.611400	29.093196	0.000212	20.713214
2264.654965	-3.015400	2.883800	-8.693800	29.122329	0.000210	20.691359
2265.649209	-2.993700	2.883200	-8.630400	29.120918	0.000211	20.701791
2266.649651	-2.978300	2.881100	-8.579700	29.158018	0.000211	20.693182
2267.650956	-2.963700	2.881000	-8.536900	29.187986	0.000210	20.696828
2268.652717	-3.012500	2.876600	-8.664800	29.217636	0.000211	20.716751
2269.650105	-2.987600	2.876100	-8.591700	29.199285	0.000212	20.698732
2270.650005	-3.015500	2.873400	-8.663900	29.220856	0.000209	20.685855
2271.652030	-3.029500	2.870000	-8.692900	29.256102	0.000210	20.702883
2272.651868	-2.982100	2.869200	-8.553900	29.304287	0.000211	20.696442
2273.654322	-3.008700	2.866800	-8.624500	29.270119	0.000211	20.710372
2274.652629	-3.012500	2.864800	-8.629400	29.245110	0.000210	20.701289
2275.655227	-2.984300	2.862800	-8.542600	29.219556	0.000210	20.697822
2276.652376	-2.992500	2.860300	-8.558800	29.226150	0.000211	20.683129
2277.653481	-3.034300	2.858100	-8.669700	29.240265	0.000210	20.715374
2278.656397	-3.020000	2.856800	-8.626500	29.287687	0.000209	20.675443
2279.654957	-2.992000	2.856900	-8.546700	29.347761	0.000209	20.678615
2280.654665	-2.994000	2.852700	-8.540300	29.353609	0.000210	20.701106
2281.655075	-2.979600	2.853100	-8.499300	29.370374	0.000210	20.712788
2282.656564	-2.998300	2.850100	-8.544200	29.343827	0.000210	20.700256
2283.654176	-2.990500	2.848800	-8.517500	29.348636	0.000210	20.687558
2284.658823	-2.998300	2.845700	-8.530800	29.327061	0.000211	20.700902
2285.654723	-2.980400	2.843000	-8.472500	29.388453	0.000209	20.696870
2286.654665	-3.004100	2.840500	-8.531700	29.416710	0.000209	20.683624
2287.655465	-2.990200	2.838900	-8.488000	29.421310	0.000212	20.683993
2288.654358	-3.009400	2.835400	-8.532000	29.458052	0.000212	20.680248
2289.658760	-3.009000	2.832500	-8.522100	29.406978	0.000210	20.677132
2290.657181	-2.967000	2.833300	-8.404600	29.433956	0.000209	20.697214
2291.657382	-2.986900	2.830400	-8.452600	29.453525	0.000211	20.710776
2292.658190	-3.013000	2.827700	-8.518300	29.478481	0.000209	20.721707
2293.657022	-3.017300	2.823300	-8.517500	29.510516	0.000211	20.701840
2294.658347	-2.998900	2.821800	-8.461400	29.492025	0.000209	20.716392
2295.660430	-3.011000	2.820800	-8.491800	29.432064	0.000210	20.705265
2296.656261	-3.021500	2.816100	-8.507100	29.393537	0.000212	20.697252
2297.656870	-3.010700	2.815700	-8.476500	29.345252	0.000210	20.694105
2298.657653	-3.029500	2.813200	-8.521700	29.295292	0.000211	20.695911
2299.657906	-3.020000	2.811100	-8.488800	29.298132	0.000211	20.683125
2300.660853	-2.988700	2.810100	-8.397300	29.274493	0.000212	20.676844
2301.660182	-3.024700	2.804800	-8.482600	29.302244	0.000211	20.692960
2302.662469	-2.973200	2.804200	-8.336700	29.318167	0.000209	20.678660
2303.659702	-2.996300	2.803500	-8.399500	29.367102	0.000211	20.685780
2304.659416	-3.005100	2.799200	-8.410300	29.352981	0.000209	20.688619
2305.662662	-3.018600	2.796000	-8.438700	29.373113	0.000209	20.693736
2306.661492	-2.977600	2.796200	-8.325000	29.392231	0.000210	20.682183
2307.664169	-2.986400	2.792300	-8.337400	29.404883	0.000210	20.671702
2308.662574	-3.006200	2.788600	-8.381500	29.385718	0.000210	20.676567
2309.663347	-2.996000	2.787300	-8.349500	29.342443	0.000208	20.678945
2310.663341	-3.015800	2.782600	-8.390800	29.327908	0.000210	20.688478
2311.666963	-3.016100	2.780700	-8.385400	29.287178	0.000209	20.702908
2312.664022	-2.988600	2.778300	-8.302000	29.236738	0.000207	20.708025
2313.664670	-2.995400	2.774400	-8.309600	29.240697	0.000208	20.684512
2314.663762	-3.012000	2.772200	-8.348500	29.220325	0.000209	20.683423
2315.664298	-3.029500	2.768800	-8.385600	29.258698	0.000209	20.684161
2316.665370	-2.979400	2.767600	-8.244500	29.312877	0.000210	20.694667
2317.663331	-3.022200	2.762300	-8.347000	29.304464	0.000207	20.680972
2318.665301	-3.014800	2.760900	-8.322200	29.291761	0.000209	20.674807
2319.664073	-2.985800	2.758900	-8.236400	29.307709	0.000208	20.695148
2320.664360	-3.009600	2.754500	-8.288200	29.274660	0.000209	20.677961
2321.668460	-3.019200	2.751500	-8.306100	29.258234	0.000212	20.674210
2322.665890	-3.010600	2.748300	-8.273200	29.265835	0.000208	20.674284
2323.671164	-3.014900	2.745100	-8.274800	29.292409	0.000209	20.690160
2324.667743	-2.997500	2.743200	-8.222400	29.297682	0.000208	20.685991
2325.666615	-2.990900	2.741200	-8.197800	29.321206	0.000209	20.700217
2326.669778	-2.990000	2.738800	-8.187600	29.298599	0.000207	20.683595
2327.667348	-3.015200	2.734600	-8.244000	29.252564	0.000209	20.661382
2328.667081	-3.011000	2.730900	-8.221700	29.273290	0.000208	20.691755
2329.668270	-3.008300	2.727300	-8.203200	29.274242	0.000207	20.689869
2330.668184	-3.019700	2.722900	-8.221000	29.249044	0.000209	20.691028
2331.669789	-3.000500	2.720500	-8.162100	29.204467	0.000207	20.679770
2332.671749	-3.000600	2.717900	-8.154200	29.177996	0.000208	20.685338
2333.668200	-3.010000	2.715500	-8.172600	29.177494	0.000208	20.662070
2334.669699	-2.988800	2.712700	-8.107300	29.222445	0.000208	20.656633
2335.669875	-2.990300	2.708500	-8.097800	29.222689	0.000211	20.652611
2336.669382	-2.994100	2.703500	-8.093900	29.262187	0.000209	20.689574
2337.674281	-2.985200	2.698900	-8.055600	29.294919	0.000208	20.659970
2338.671489	-3.019900	2.695200	-8.138100	29.351943	0.000208	20.671923
2339.671895	-2.997400	2.692900	-8.069900	29.424641	0.000209	20.668857
2340.672210	-3.024300	2.687100	-8.125700	29.375619	0.000210	20.676346
2341.672068	-3.001300	2.683700	-8.053700	29.382564	0.000208	20.688088
2342.676919	-3.013500	2.680000	-8.074900	29.363105	0.000209	20.659938
2343.672550	-3.002100	2.677000	-8.035600	29.395541	0.000208	20.695479
2344.675577	-2.985500	2.674000	-7.981900	29.470038	0.000210	20.676209
2345.672865	-3.002700	2.670100	-8.016200	29.516356	0.000207	20.662204
2346.672730	-2.983100	2.665800	-7.950900	29.549185	0.000208	20.688187
2347.672484	-3.018700	2.661400	-8.033000	29.600948	0.000207	20.673511
2348.672781	-3.006200	2.659000	-7.992900	29.627061	0.000206	20.670437
2349.672838	-2.999100	2.653900	-7.958000	29.647303	0.000208	20.674723
2350.672950	-3.025700	2.649800	-8.016700	29.687091	0.000209	20.665523
2351.674490	-3.008500	2.645500	-7.958300	29.746616	0.000208	20.671484
2352.673238	-3.016800	2.640700	-7.965600	29.760474	0.000208	20.659376
2353.677031	-3.036200	2.634300	-7.997400	29.748125	0.000208	20.676325
2354.674169	-2.992700	2.631800	-7.875600	29.678594	0.000208	20.661224
2355.674814	-3.029200	2.625100	-7.950700	29.630622	0.000209	20.671182
2356.673138	-2.999000	2.622700	-7.862800	29.626284	0.000209	20.684829
2357.675176	-3.045400	2.616300	-7.966500	29.622626	0.000209	20.669285
2358.678754	-3.018900	2.611800	-7.883900	29.595492	0.000208	20.658526
2359.673743	-2.999300	2.607800	-7.820300	29.616358	0.000207	20.682883
2360.675933	-2.977100	2.603800	-7.750900	29.632545	0.000209	20.690667
2361.676036	-3.008000	2.596900	-7.810600	29.639405	0.000209	20.671028
2362.674459	-2.974900	2.591700	-7.709500	29.664380	0.000208	20.695261
2363.676139	-2.953900	2.588900	-7.646000	29.694804	0.000208	20.691320
2364.675651	-2.992300	2.581500	-7.723800	29.739158	0.000208	20.667283
2365.674056	-3.024600	2.573500	-7.782400	29.699434	0.000208	20.684607
2366.676514	-3.005700	2.569000	-7.719000	29.647003	0.000208	20.674421
2367.676090	-2.986000	2.565800	-7.659700	29.574992	0.000207	20.667259
2368.675995	-2.961200	2.560700	-7.580500	29.524712	0.000206	20.684379
2369.678775	-2.979700	2.553700	-7.609000	29.518255	0.000208	20.679767
2370.675764	-3.010600	2.547200	-7.667300	29.544217	0.000206	20.682229
2371.678689	-3.028900	2.540800	-7.695500	29.624922	0.000207	20.645045
2372.678920	-2.981000	2.536200	-7.559000	29.656782	0.000209	20.669106
2373.681194	-3.037100	2.528400	-7.678700	29.686565	0.000208	20.684435
2374.682025	-2.999800	2.521000	-7.561200	29.681434	0.000208	20.662664
2375.679315	-3.038200	2.515100	-7.640500	29.693149	0.000207	20.660725
2376.683080	-2.976100	2.510300	-7.470200	29.752998	0.000207	20.678394
2377.680801	-3.001900	2.501700	-7.508900	29.776097	0.000208	20.692202
2378.680555	-3.008500	2.497200	-7.511300	29.858366	0.000207	20.684116
