LabVIEW Measurement	
Writer_Version	2
Reader_Version	2
Separator	Tab
Decimal_Separator	.
Multi_Headings	No
X_Columns	One
Time_Pref	Absolute
Operator	admin
Description	Clolumns are: time, Current, Voltage, Power, Battery Temp, and Chamber Temp
Date	2024/08/16
Time	13:06:06.104549407958984375
***End_of_Header***	
	
Channels	6						
Samples	1	1	1	1	1	1	
Date	2024/08/26	2024/08/26	2024/08/26	2024/08/26	2024/08/26	2024/08/26	
Time	20:02:33.8429694175720214844	20:02:33.8481087684631347656	20:02:33.8540096282958984375	20:02:33.8088583946228027344	20:02:33.8088583946228027344	20:02:33.8088583946228027344	
X_Dimension	Time	Time	Time	Time	Time	Time	
X0	0.0000000000000000E+0	0.0000000000000000E+0	0.0000000000000000E+0	0.0000000000000000E+0	0.0000000000000000E+0	0.0000000000000000E+0	
Delta_X	1.000000	1.000000	1.000000	1.000000	1.000000	1.000000	
***End_of_Header***							
X_Value	Untitled	Untitled 1	Untitled 2	Untitled 3	Untitled 4	Untitled 5	Comment
0.000000	0.029906	4.107800	0.122780	21.030808	0.000956	20.783798
0.991438	-3.000600	3.948300	-11.846000	21.001244	0.000958	20.785996
1.985809	-2.993800	3.941000	-11.798000	20.994934	0.000956	20.806712
2.986247	-2.990200	3.936100	-11.769000	21.000844	0.000955	20.785596
3.987295	-3.016100	3.932000	-11.858000	21.014698	0.000953	20.793288
4.987380	-2.991900	3.928400	-11.753000	21.026728	0.000951	20.764070
5.998305	-2.959100	3.926900	-11.619000	21.021907	0.000952	20.799076
6.997701	-2.998600	3.923900	-11.765000	21.028649	0.000951	20.793492
7.986028	-2.992500	3.922900	-11.738000	21.018465	0.000952	20.809859
8.995588	-2.985100	3.919800	-11.700000	21.040501	0.000948	20.816726
10.000846	-2.962600	3.918000	-11.606000	21.026736	0.000949	20.816234
11.000417	-2.994300	3.915600	-11.724000	21.051387	0.000947	20.811493
11.998696	-2.984600	3.915100	-11.683000	21.024169	0.000948	20.804184
13.000699	-3.005100	3.912900	-11.757000	21.050144	0.000946	20.815465
13.990840	-2.999600	3.911200	-11.731000	21.057034	0.000945	20.819038
14.994362	-3.007000	3.910700	-11.759000	21.054509	0.000944	20.813193
15.992570	-2.993600	3.909600	-11.702000	21.070184	0.000946	20.818915
16.989973	-2.987100	3.909500	-11.677000	21.040923	0.000944	20.829002
17.990743	-3.012000	3.906100	-11.763000	21.085484	0.000942	20.817623
18.989690	-3.007300	3.904500	-11.741000	21.073689	0.000943	20.805825
19.989900	-3.009800	3.904900	-11.753000	21.098045	0.000942	20.818333
20.998019	-2.983100	3.903100	-11.642000	21.094670	0.000942	20.802155
22.008137	-2.986300	3.903300	-11.655000	21.065164	0.000940	20.808204
22.992935	-2.996200	3.902800	-11.691000	21.090688	0.000940	20.819984
23.994904	-3.000100	3.901200	-11.703000	21.093189	0.000941	20.801148
25.006776	-3.008900	3.900800	-11.735000	21.103814	0.000939	20.800870
26.008250	-3.016900	3.900200	-11.765000	21.121304	0.000939	20.781855
26.991082	-3.014500	3.899500	-11.754000	21.112656	0.000937	20.821569
27.997002	-2.996600	3.898400	-11.681000	21.103601	0.000939	20.790700
28.995350	-2.984900	3.898700	-11.636000	21.128773	0.000937	20.810663
30.000650	-3.019100	3.898000	-11.767000	21.113840	0.000936	20.802365
30.999472	-3.033700	3.895700	-11.818000	21.125691	0.000935	20.800942
31.999619	-3.003400	3.895600	-11.699000	21.114216	0.000937	20.816017
33.002927	-3.010000	3.895200	-11.723000	21.117681	0.000936	20.807155
33.994602	-3.023200	3.894900	-11.774000	21.147527	0.000934	20.801922
34.997550	-3.005400	3.893500	-11.701000	21.133037	0.000935	20.806868
36.001624	-3.009000	3.893500	-11.715000	21.143514	0.000935	20.798856
36.997222	-3.003700	3.891900	-11.688000	21.156622	0.000932	20.805804
37.998736	-2.997200	3.893200	-11.668000	21.156598	0.000932	20.794400
39.008989	-2.988500	3.892700	-11.632000	21.165407	0.000933	20.811273
40.012198	-3.018200	3.891800	-11.745000	21.182422	0.000933	20.783249
40.999635	-3.004100	3.890800	-11.687000	21.178744	0.000933	20.779569
42.009907	-2.989300	3.891800	-11.633000	21.198799	0.000932	20.804372
43.001170	-3.006100	3.890900	-11.696000	21.173677	0.000931	20.797734
44.000041	-2.980600	3.891300	-11.598000	21.163551	0.000932	20.799933
45.008556	-2.995300	3.889200	-11.647000	21.187904	0.000932	20.780198
46.002251	-3.020000	3.889300	-11.744000	21.198308	0.000932	20.774009
47.003918	-2.980700	3.889500	-11.591000	21.175890	0.000930	20.776240
48.002382	-2.991200	3.889000	-11.632000	21.223788	0.000932	20.785748
49.007354	-3.012400	3.886600	-11.706000	21.207819	0.000929	20.791111
50.004570	-2.994600	3.888800	-11.644000	21.234647	0.000930	20.784284
51.001106	-3.021900	3.886100	-11.742000	21.223476	0.000931	20.788281
52.001544	-2.981600	3.887100	-11.589000	21.233854	0.000929	20.801983
53.002828	-2.993400	3.886400	-11.633000	21.225789	0.000930	20.782061
54.003290	-2.981600	3.887200	-11.588000	21.251416	0.000928	20.777825
55.015842	-2.987300	3.885800	-11.607000	21.236804	0.000931	20.776958
56.003934	-3.000100	3.886400	-11.659000	21.256735	0.000929	20.752800
57.006851	-2.993700	3.886100	-11.633000	21.261900	0.000927	20.772192
58.008967	-2.994100	3.885600	-11.633000	21.238511	0.000928	20.783408
59.012076	-3.008500	3.884300	-11.685000	21.290868	0.000928	20.773671
60.019824	-2.986700	3.884900	-11.603000	21.267055	0.000928	20.770711
61.005420	-3.012000	3.883400	-11.696000	21.275407	0.000928	20.782386
62.004169	-3.007300	3.883200	-11.676000	21.312203	0.000928	20.753290
63.004924	-2.995500	3.884400	-11.635000	21.307218	0.000929	20.773907
64.006941	-2.999300	3.883400	-11.646000	21.286021	0.000926	20.760287
65.009899	-2.973200	3.883200	-11.543000	21.292305	0.000926	20.793127
66.016484	-2.978900	3.883000	-11.567000	21.293832	0.000926	20.770473
67.009110	-3.006200	3.882900	-11.672000	21.274408	0.000926	20.760049
68.015135	-3.000800	3.881700	-11.647000	21.313223	0.000925	20.764741
69.014677	-3.009600	3.881900	-11.682000	21.315143	0.000927	20.757179
70.011148	-2.984200	3.884400	-11.590000	21.330284	0.000927	20.785130
71.008714	-2.981900	3.882500	-11.576000	21.340686	0.000926	20.769933
72.010787	-2.987900	3.881000	-11.596000	21.358851	0.000926	20.750173
73.016947	-3.006300	3.882200	-11.670000	21.334287	0.000926	20.769695
74.009448	-3.027500	3.878100	-11.739000	21.367209	0.000924	20.746207
75.011314	-3.004600	3.882100	-11.663000	21.339059	0.000925	20.755028
76.019380	-3.003600	3.879200	-11.651000	21.330651	0.000926	20.730493
77.017899	-3.005000	3.879300	-11.654000	21.361415	0.000926	20.757480
78.009890	-2.991300	3.879500	-11.604000	21.377528	0.000925	20.750367
79.013070	-2.996000	3.878600	-11.619000	21.393175	0.000924	20.757013
80.013483	-3.006400	3.879700	-11.663000	21.408013	0.000924	20.774705
81.011317	-3.009400	3.879700	-11.675000	21.412212	0.000926	20.747611
82.016212	-3.006200	3.878300	-11.658000	21.403756	0.000926	20.754797
83.013468	-2.995000	3.878500	-11.615000	21.431912	0.000925	20.754994
84.011900	-3.007500	3.876700	-11.658000	21.415775	0.000926	20.752124
85.014550	-2.999000	3.878300	-11.630000	21.418282	0.000925	20.762694
86.011444	-3.018500	3.876100	-11.698000	21.426240	0.000924	20.752164
87.011906	-2.988000	3.877300	-11.584000	21.425914	0.000923	20.749940
88.016004	-2.982400	3.877700	-11.564000	21.429941	0.000926	20.743538
89.013178	-3.009000	3.876000	-11.661000	21.447197	0.000924	20.734251
90.012293	-2.975800	3.877200	-11.537000	21.471039	0.000924	20.767590
91.013504	-2.988900	3.877800	-11.589000	21.469077	0.000923	20.739548
92.017877	-2.988700	3.876700	-11.586000	21.452990	0.000925	20.754746
93.013962	-2.992300	3.876100	-11.597000	21.458610	0.000924	20.735239
94.015254	-2.990900	3.875700	-11.589000	21.484020	0.000923	20.754501
95.021133	-2.997400	3.874900	-11.613000	21.464950	0.000924	20.746325
96.014363	-2.987500	3.874800	-11.575000	21.478243	0.000922	20.739711
97.019651	-2.992500	3.874000	-11.591000	21.501144	0.000922	20.727063
98.015609	-3.000500	3.875900	-11.629000	21.501699	0.000923	20.738525
99.015210	-3.011700	3.873900	-11.666000	21.516421	0.000924	20.741876
100.020802	-3.009400	3.874100	-11.657000	21.515269	0.000924	20.739775
101.017731	-2.986200	3.873300	-11.565000	21.526838	0.000925	20.749455
102.017164	-2.987400	3.874400	-11.572000	21.521715	0.000924	20.722516
103.018437	-2.995600	3.874100	-11.603000	21.533087	0.000924	20.745751
104.018510	-3.009900	3.872600	-11.655000	21.538798	0.000927	20.735343
105.022030	-3.016500	3.873200	-11.681000	21.532270	0.000926	20.734501
106.020342	-3.000800	3.873100	-11.621000	21.534239	0.000925	20.719875
107.019306	-3.002200	3.872700	-11.626000	21.566068	0.000926	20.725172
108.023866	-2.999300	3.873200	-11.616000	21.531379	0.000927	20.748309
109.029725	-2.997700	3.871500	-11.604000	21.541452	0.000924	20.747009
110.026965	-2.990600	3.872000	-11.579000	21.572088	0.000926	20.732619
111.023581	-2.995500	3.872300	-11.598000	21.562162	0.000925	20.729325
112.021410	-2.986000	3.873100	-11.564000	21.557350	0.000925	20.724983
113.027115	-2.993300	3.871400	-11.588000	21.545978	0.000924	20.743951
114.028867	-2.990100	3.872600	-11.578000	21.553240	0.000926	20.733674
115.018828	-3.018800	3.871000	-11.685000	21.578778	0.000926	20.716080
116.028075	-3.012800	3.869700	-11.658000	21.576262	0.000925	20.720674
117.028286	-3.019200	3.870600	-11.686000	21.596244	0.000926	20.734981
118.030307	-3.014000	3.868900	-11.659000	21.580804	0.000925	20.729962
119.024917	-2.992700	3.869600	-11.578000	21.610695	0.000927	20.706766
120.026699	-3.023400	3.869500	-11.698000	21.621038	0.000926	20.717117
121.021295	-3.016500	3.869100	-11.670000	21.621519	0.000926	20.730876
122.024406	-3.028900	3.869200	-11.718000	21.636772	0.000925	20.732863
123.025027	-3.017800	3.869600	-11.677000	21.658852	0.000926	20.720820
124.028014	-3.026000	3.869000	-11.706000	21.645659	0.000927	20.721368
125.022165	-3.006000	3.867300	-11.624000	21.650601	0.000926	20.712088
126.025608	-2.989700	3.868200	-11.563000	21.636770	0.000929	20.731914
127.023665	-2.998900	3.868000	-11.598000	21.633699	0.000927	20.734056
128.022477	-3.013100	3.866900	-11.650000	21.632987	0.000926	20.739982
129.026140	-2.985900	3.868900	-11.550000	21.671210	0.000928	20.717541
130.024306	-3.009800	3.868800	-11.642000	21.670434	0.000926	20.715816
131.023666	-2.998400	3.868400	-11.598000	21.667754	0.000927	20.730678
132.029230	-3.006400	3.866500	-11.623000	21.682091	0.000928	20.709937
133.027102	-3.005200	3.868200	-11.624000	21.676332	0.000930	20.730727
134.029547	-3.001500	3.866400	-11.604000	21.680898	0.000928	20.724391
135.026737	-3.009000	3.866900	-11.634000	21.695814	0.000928	20.713713
136.035160	-3.011800	3.867000	-11.645000	21.687408	0.000928	20.721897
137.026471	-3.004300	3.866000	-11.614000	21.679982	0.000928	20.706878
138.026331	-3.008000	3.867300	-11.631000	21.706294	0.000928	20.685793
139.032085	-3.022400	3.865500	-11.681000	21.707445	0.000928	20.699274
140.029179	-3.008000	3.866000	-11.627000	21.734875	0.000930	20.721512
141.036180	-3.012200	3.865700	-11.644000	21.751661	0.000930	20.724561
142.036311	-3.011300	3.866100	-11.641000	21.752486	0.000930	20.714481
143.029486	-2.993400	3.866100	-11.571000	21.747797	0.000930	20.700778
144.037571	-3.004500	3.865200	-11.611000	21.758342	0.000931	20.717024
145.032374	-3.000900	3.864900	-11.597000	21.788891	0.000931	20.718675
146.037672	-2.996300	3.864600	-11.579000	21.806452	0.000930	20.721552
147.032999	-3.016000	3.865800	-11.658000	21.782870	0.000931	20.703639
148.039752	-3.010300	3.863500	-11.629000	21.779431	0.000931	20.709206
149.035500	-3.006800	3.864000	-11.617000	21.780575	0.000929	20.713671
150.035727	-3.008800	3.862400	-11.621000	21.783467	0.000932	20.715142
151.032203	-3.003100	3.863800	-11.603000	21.780249	0.000932	20.693902
152.035767	-3.022100	3.861700	-11.669000	21.781923	0.000932	20.715968
153.032264	-3.026200	3.861300	-11.683000	21.776442	0.000932	20.707637
154.033510	-3.004000	3.862700	-11.603000	21.781057	0.000932	20.716523
155.032168	-2.993800	3.863900	-11.566000	21.787566	0.000933	20.721143
156.033822	-3.009300	3.861900	-11.621000	21.808909	0.000932	20.704096
157.032377	-2.992600	3.863700	-11.560000	21.816587	0.000933	20.710833
158.035281	-3.001400	3.862400	-11.591000	21.820189	0.000934	20.710170
159.039779	-2.986100	3.862800	-11.534000	21.810837	0.000932	20.701758
160.034419	-3.027400	3.860600	-11.686000	21.832056	0.000934	20.683166
161.038434	-3.007800	3.861200	-11.612000	21.858136	0.000932	20.694571
162.044726	-2.994900	3.861900	-11.565000	21.841948	0.000933	20.717725
163.036695	-2.986700	3.862700	-11.536000	21.874512	0.000935	20.686780
164.039771	-3.006400	3.861100	-11.607000	21.861157	0.000936	20.694276
165.036087	-3.009800	3.860300	-11.617000	21.853382	0.000935	20.693132
166.037980	-3.009200	3.861800	-11.620000	21.857890	0.000937	20.689109
167.036714	-3.009000	3.860000	-11.614000	21.850009	0.000935	20.705878
168.051893	-3.020900	3.860800	-11.662000	21.871857	0.000936	20.703090
169.043339	-3.019600	3.860200	-11.656000	21.849167	0.000936	20.703613
170.036407	-2.996000	3.860100	-11.563000	21.871587	0.000938	20.699975
171.037565	-2.996300	3.860300	-11.565000	21.862537	0.000940	20.690442
172.036378	-3.007000	3.859100	-11.603000	21.860063	0.000938	20.701242
173.036629	-3.002900	3.859200	-11.589000	21.881338	0.000937	20.699304
174.063903	-3.015500	3.858900	-11.635000	21.895893	0.000940	20.660763
175.040903	-2.997300	3.859400	-11.567000	21.899494	0.000939	20.694717
176.035896	-2.995100	3.859600	-11.559000	21.901732	0.000940	20.695061
177.036456	-2.974400	3.859100	-11.478000	21.918059	0.000938	20.695756
178.045498	-3.000400	3.858900	-11.577000	21.917495	0.000941	20.714159
179.036479	-2.997400	3.857100	-11.560000	21.938860	0.000940	20.688127
180.038687	-3.003800	3.858600	-11.590000	21.966635	0.000942	20.699336
181.037663	-2.976500	3.858300	-11.483000	21.958158	0.000941	20.685159
182.047407	-2.998900	3.857600	-11.567000	21.975880	0.000941	20.688201
183.041215	-3.018200	3.856900	-11.639000	21.974263	0.000941	20.674253
184.038041	-2.997400	3.857800	-11.562000	21.996247	0.000941	20.689624
185.040134	-3.000200	3.856600	-11.569000	21.997750	0.000942	20.702982
186.044307	-2.989600	3.857500	-11.532000	21.990743	0.000942	20.699761
187.040191	-2.975100	3.856900	-11.473000	21.998321	0.000942	20.686010
188.044780	-2.978700	3.857400	-11.489000	22.008840	0.000943	20.683263
189.045691	-2.982900	3.854600	-11.497000	22.021449	0.000943	20.693515
190.040267	-2.976700	3.856000	-11.477000	22.024895	0.000943	20.672781
191.042646	-2.987700	3.857500	-11.524000	22.020257	0.000944	20.706073
192.045126	-2.987500	3.856600	-11.520000	22.040297	0.000946	20.689624
193.042430	-3.011400	3.854200	-11.606000	22.031028	0.000945	20.692199
194.040490	-3.000700	3.854500	-11.565000	22.028031	0.000945	20.683508
195.043222	-3.000400	3.855800	-11.568000	22.063497	0.000946	20.702893
196.045081	-2.984600	3.854900	-11.504000	22.048341	0.000946	20.689616
197.051164	-3.000900	3.854600	-11.567000	22.050562	0.000946	20.687572
198.040609	-2.984700	3.855400	-11.506000	22.066673	0.000947	20.675724
199.047311	-2.990800	3.853500	-11.523000	22.087930	0.000946	20.681358
200.042728	-2.975500	3.854400	-11.467000	22.081724	0.000947	20.686051
201.041669	-3.009800	3.853500	-11.596000	22.091294	0.000947	20.661016
202.043642	-2.982900	3.855300	-11.498000	22.094364	0.000948	20.674997
203.041703	-3.005900	3.851500	-11.576000	22.090551	0.000948	20.685405
204.040985	-2.987300	3.853300	-11.510000	22.091196	0.000948	20.666609
205.041549	-2.998100	3.852700	-11.550000	22.097051	0.000949	20.687171
206.041586	-2.978000	3.853900	-11.476000	22.082197	0.000950	20.670877
207.043303	-3.026800	3.852100	-11.658000	22.086632	0.000949	20.696181
208.043326	-2.992400	3.853300	-11.529000	22.087505	0.000949	20.694211
209.044264	-3.003300	3.853000	-11.570000	22.098399	0.000952	20.682830
210.044960	-2.981100	3.853300	-11.486000	22.098325	0.000951	20.684179
211.045660	-3.009100	3.853400	-11.595000	22.121107	0.000951	20.687073
212.045403	-3.022300	3.851100	-11.639000	22.138753	0.000951	20.682454
213.045557	-2.992700	3.853000	-11.529000	22.141072	0.000951	20.663911
214.045204	-3.002200	3.850900	-11.560000	22.140852	0.000950	20.684555
215.048855	-3.010700	3.851000	-11.594000	22.145342	0.000954	20.673877
216.047053	-3.011900	3.850800	-11.597000	22.130710	0.000953	20.655906
217.046268	-2.996500	3.852900	-11.543000	22.153769	0.000954	20.671882
218.049354	-3.015900	3.849300	-11.608000	22.134646	0.000953	20.675022
219.050202	-3.027800	3.850200	-11.657000	22.133829	0.000953	20.674678
220.049767	-2.982200	3.850500	-11.482000	22.160865	0.000956	20.660967
221.049428	-2.984500	3.851000	-11.492000	22.141080	0.000955	20.660125
222.051490	-2.983600	3.850600	-11.487000	22.155467	0.000954	20.678798
223.052195	-2.978700	3.851700	-11.472000	22.191754	0.000956	20.687154
224.051913	-2.976600	3.851700	-11.463000	22.145791	0.000957	20.669584
225.049889	-2.991200	3.849600	-11.514000	22.169773	0.000958	20.677474
226.049837	-2.982800	3.850200	-11.484000	22.176698	0.000958	20.686778
227.047648	-2.987800	3.850100	-11.502000	22.187451	0.000959	20.671939
228.051965	-2.988400	3.849200	-11.502000	22.197771	0.000959	20.666624
229.047671	-2.990200	3.848900	-11.508000	22.192709	0.000959	20.673885
230.048947	-2.980100	3.849600	-11.471000	22.227834	0.000960	20.678234
231.050011	-3.006700	3.847400	-11.567000	22.250957	0.000961	20.669617
232.050133	-3.000900	3.849600	-11.551000	22.230774	0.000961	20.681651
233.051806	-2.992700	3.848900	-11.518000	22.248296	0.000960	20.658890
234.049910	-3.003800	3.847300	-11.556000	22.270658	0.000959	20.656150
235.049736	-3.006800	3.847300	-11.567000	22.258395	0.000961	20.663312
236.061656	-2.998600	3.847800	-11.537000	22.269907	0.000962	20.668202
237.050536	-3.016500	3.847900	-11.605000	22.280750	0.000963	20.673369
238.056507	-3.010500	3.844800	-11.573000	22.325115	0.000962	20.683654
239.053265	-3.027800	3.845800	-11.643000	22.307921	0.000963	20.659797
240.058599	-2.992700	3.845500	-11.508000	22.317219	0.000962	20.683335
241.051451	-2.999100	3.845700	-11.532000	22.290204	0.000964	20.678568
242.054218	-3.005900	3.845700	-11.559000	22.307528	0.000965	20.677424
243.051164	-3.009000	3.845200	-11.569000	22.305642	0.000965	20.650876
244.056125	-2.981900	3.846200	-11.467000	22.311815	0.000966	20.670809
245.056294	-2.976900	3.846900	-11.451000	22.330805	0.000965	20.649993
246.050846	-2.986900	3.845500	-11.485000	22.327816	0.000967	20.662175
247.063939	-2.986200	3.845300	-11.482000	22.342503	0.000967	20.670719
248.064610	-3.001300	3.844400	-11.536000	22.336796	0.000966	20.662633
249.057281	-2.982900	3.845900	-11.471000	22.336649	0.000967	20.674815
250.058092	-2.995600	3.845000	-11.517000	22.356537	0.000968	20.661063
251.055278	-2.986500	3.844700	-11.479000	22.386090	0.000969	20.662682
252.055916	-2.992700	3.844500	-11.504000	22.378497	0.000969	20.654603
253.058286	-2.979900	3.844300	-11.455000	22.381567	0.000970	20.674275
254.056178	-2.997300	3.843700	-11.519000	22.367379	0.000972	20.670498
255.056277	-2.999900	3.842200	-11.525000	22.394302	0.000971	20.676597
256.061676	-2.980800	3.843700	-11.456000	22.399209	0.000972	20.674872
257.063328	-3.001000	3.843200	-11.532000	22.398964	0.000972	20.643803
258.057067	-2.990600	3.843200	-11.492000	22.393110	0.000971	20.651692
259.061955	-3.008300	3.842700	-11.558000	22.397502	0.000974	20.668894
260.059096	-3.003000	3.842300	-11.538000	22.396604	0.000975	20.658037
261.064476	-3.006000	3.842400	-11.549000	22.393836	0.000974	20.659059
262.062438	-3.000400	3.841400	-11.524000	22.414229	0.000974	20.676162
263.060714	-2.999200	3.841300	-11.520000	22.435282	0.000973	20.670219
264.061003	-2.976800	3.842200	-11.436000	22.414793	0.000973	20.663924
265.059696	-2.985600	3.841800	-11.469000	22.427666	0.000976	20.655951
266.064034	-3.001600	3.840700	-11.526000	22.432817	0.000978	20.675811
267.065329	-3.005800	3.840000	-11.541000	22.430580	0.000977	20.666932
268.075725	-3.013200	3.840900	-11.573000	22.416457	0.000977	20.664168
269.062604	-3.003400	3.841100	-11.535000	22.396416	0.000978	20.662590
270.064336	-2.997000	3.839700	-11.506000	22.390096	0.000977	20.660529
271.074021	-3.003900	3.839300	-11.531000	22.412416	0.000979	20.675295
272.065026	-3.002200	3.840500	-11.529000	22.414465	0.000980	20.658853
273.065488	-2.995100	3.840300	-11.500000	22.417453	0.000979	20.674649
274.066384	-3.005600	3.840500	-11.541000	22.437641	0.000980	20.680642
275.062335	-3.001500	3.839600	-11.524000	22.417853	0.000982	20.664617
276.065755	-2.992600	3.839400	-11.489000	22.415787	0.000983	20.668239
277.065650	-2.997500	3.838900	-11.506000	22.443404	0.000984	20.654168
278.065871	-3.014500	3.837900	-11.567000	22.471110	0.000982	20.670537
279.064882	-2.988200	3.838700	-11.470000	22.499591	0.000981	20.659704
280.065004	-3.019400	3.837000	-11.585000	22.479159	0.000984	20.665795
281.065128	-3.006200	3.837400	-11.535000	22.507093	0.000985	20.671485
282.065528	-3.000500	3.838600	-11.517000	22.514472	0.000984	20.662753
283.069906	-3.012700	3.838100	-11.562000	22.526006	0.000986	20.672409
284.066712	-2.986800	3.838600	-11.463000	22.524887	0.000985	20.675557
285.066798	-2.992600	3.837900	-11.485000	22.526536	0.000985	20.656817
286.068666	-2.984500	3.835800	-11.447000	22.545318	0.000987	20.672311
287.070044	-2.991200	3.836400	-11.474000	22.519059	0.000988	20.678254
288.068140	-2.985300	3.837600	-11.455000	22.528830	0.000986	20.665753
289.069259	-2.993300	3.836300	-11.482000	22.526936	0.000988	20.682825
290.068755	-3.005000	3.834200	-11.521000	22.546469	0.000988	20.685318
291.069664	-2.996500	3.836600	-11.494000	22.573217	0.000989	20.665164
292.071518	-3.005300	3.835100	-11.524000	22.574458	0.000990	20.670675
293.069783	-3.003600	3.835000	-11.517000	22.576752	0.000990	20.663488
294.070004	-2.990100	3.834600	-11.464000	22.597582	0.000990	20.674869
295.069970	-2.995800	3.836300	-11.492000	22.599802	0.000988	20.686103
296.083709	-3.004100	3.834100	-11.517000	22.619856	0.000990	20.675368
297.072856	-3.007400	3.834900	-11.532000	22.609368	0.000992	20.691417
298.073028	-3.004500	3.833800	-11.518000	22.610812	0.000993	20.663464
299.073035	-2.963000	3.836100	-11.365000	22.609939	0.000993	20.672547
300.076151	-2.994300	3.833100	-11.476000	22.626638	0.000992	20.664142
301.072055	-2.993800	3.833600	-11.476000	22.624745	0.000993	20.673626
302.075830	-3.014300	3.832200	-11.551000	22.630001	0.000992	20.674624
303.071008	-3.002900	3.833400	-11.510000	22.637298	0.000994	20.690469
304.073267	-3.011200	3.831500	-11.535000	22.642766	0.000996	20.682668
305.071790	-3.005100	3.832300	-11.515000	22.656298	0.000995	20.679153
306.078883	-3.015400	3.831800	-11.553000	22.645704	0.000995	20.670437
307.075103	-2.990900	3.831900	-11.459000	22.669276	0.000997	20.658010
308.078600	-2.985400	3.832200	-11.439000	22.644611	0.000996	20.675032
309.078826	-3.007800	3.830800	-11.521000	22.659538	0.000998	20.687615
310.076972	-3.007100	3.830300	-11.517000	22.674091	0.000996	20.690811
311.074564	-3.009800	3.830400	-11.526000	22.672222	0.000997	20.687991
312.075900	-3.010100	3.829700	-11.526000	22.694495	0.000998	20.692757
313.077115	-3.006300	3.830800	-11.515000	22.704468	0.000998	20.699428
314.075587	-3.005900	3.829300	-11.509000	22.725148	0.000999	20.667035
315.078458	-2.975400	3.831900	-11.400000	22.704394	0.000999	20.680861
316.083431	-2.982700	3.829200	-11.419000	22.706231	0.001000	20.697401
317.078872	-2.990100	3.829400	-11.449000	22.717575	0.001000	20.695487
318.079989	-2.992900	3.829900	-11.461000	22.734664	0.001000	20.690320
319.081140	-3.001700	3.828900	-11.492000	22.760004	0.001001	20.692470
320.080812	-2.997900	3.829200	-11.478000	22.740948	0.001001	20.692822
321.081129	-2.967400	3.831000	-11.367000	22.780701	0.001003	20.691866
322.083068	-3.000600	3.828400	-11.485000	22.775151	0.001001	20.689625
323.081893	-2.989400	3.829200	-11.446000	22.808554	0.001002	20.688947
324.086355	-2.998900	3.827800	-11.477000	22.785557	0.001003	20.686298
325.080475	-3.024800	3.828300	-11.578000	22.797798	0.001004	20.697139
326.084064	-3.013100	3.828100	-11.534000	22.816772	0.001004	20.661141
327.082168	-3.002200	3.827700	-11.489000	22.843407	0.001004	20.694939
328.079674	-3.012800	3.827300	-11.529000	22.809378	0.001006	20.694514
329.085382	-2.990000	3.827100	-11.442000	22.830856	0.001006	20.682839
330.080859	-2.994200	3.826200	-11.455000	22.834888	0.001006	20.689723
331.082432	-2.989500	3.827200	-11.440000	22.853020	0.001007	20.690819
332.087951	-2.992100	3.825800	-11.446000	22.797120	0.001007	20.702625
333.081115	-2.991500	3.827800	-11.449000	22.810055	0.001008	20.685709
334.083206	-3.012400	3.826400	-11.525000	22.848760	0.001007	20.691293
335.082588	-3.005200	3.826300	-11.497000	22.815254	0.001009	20.689020
336.083265	-3.010600	3.825800	-11.517000	22.836504	0.001009	20.698455
337.083572	-3.012900	3.824900	-11.522000	22.821439	0.001009	20.684785
338.082928	-3.013100	3.824700	-11.523000	22.834537	0.001010	20.690794
339.086998	-3.001300	3.825900	-11.480000	22.840413	0.001011	20.692413
340.087248	-2.988200	3.824500	-11.427000	22.830669	0.001012	20.696878
341.090744	-2.985500	3.823900	-11.416000	22.838487	0.001012	20.694278
342.085234	-3.005800	3.824200	-11.493000	22.858545	0.001012	20.700622
343.086368	-2.996300	3.823400	-11.456000	22.848753	0.001011	20.706460
344.085115	-3.012800	3.822500	-11.516000	22.844664	0.001012	20.710425
345.087051	-2.998400	3.823700	-11.464000	22.845040	0.001013	20.706533
346.085475	-3.006800	3.822500	-11.491000	22.835419	0.001015	20.714913
347.089209	-3.002900	3.822000	-11.475000	22.853780	0.001013	20.702486
348.085315	-3.011400	3.822300	-11.510000	22.834644	0.001014	20.711766
349.085392	-3.025000	3.822100	-11.560000	22.827487	0.001015	20.726883
350.085623	-3.002300	3.821900	-11.473000	22.855959	0.001015	20.697083
351.085048	-3.001900	3.821300	-11.469000	22.866722	0.001016	20.710237
352.086503	-3.002600	3.822300	-11.475000	22.884504	0.001017	20.715724
353.086176	-2.987900	3.821100	-11.415000	22.880668	0.001017	20.730848
354.085327	-2.995700	3.820500	-11.443000	22.862227	0.001018	20.699095
355.087378	-3.009200	3.818800	-11.490000	22.886666	0.001017	20.699397
356.087373	-2.998700	3.820300	-11.454000	22.915806	0.001019	20.707254
357.089005	-3.000200	3.819000	-11.456000	22.931546	0.001019	20.715438
358.085819	-2.987200	3.821000	-11.413000	22.919764	0.001016	20.715013
359.087145	-2.982900	3.821000	-11.397000	22.909874	0.001020	20.724546
360.086906	-2.987400	3.819400	-11.408000	22.929197	0.001019	20.712135
361.091552	-3.000100	3.819800	-11.459000	22.956312	0.001021	20.706110
362.089088	-3.021600	3.818700	-11.538000	22.962497	0.001021	20.739336
363.088875	-2.977000	3.820000	-11.370000	22.959527	0.001020	20.727825
364.089271	-3.008600	3.818500	-11.487000	22.952126	0.001021	20.731790
365.089747	-2.985100	3.820300	-11.401000	22.944750	0.001021	20.725348
366.092794	-2.982600	3.820200	-11.393000	22.928259	0.001021	20.716412
367.090253	-2.982600	3.818700	-11.388000	22.942408	0.001022	20.711147
368.094773	-2.991200	3.818400	-11.420000	22.919733	0.001022	20.721620
369.090644	-3.001200	3.818400	-11.459000	22.943967	0.001024	20.707019
370.091312	-3.005400	3.815800	-11.466000	22.983728	0.001025	20.732158
371.092143	-2.983700	3.817100	-11.388000	22.963820	0.001024	20.714107
372.091068	-3.003500	3.816300	-11.461000	22.974876	0.001025	20.725185
373.091759	-3.014500	3.816400	-11.503000	22.990689	0.001024	20.711630
374.093475	-2.981800	3.817600	-11.382000	22.999134	0.001025	20.726256
375.093610	-3.000200	3.816200	-11.448000	23.002822	0.001027	20.719045
376.093316	-3.004400	3.815900	-11.463000	23.000652	0.001026	20.731096
377.097239	-3.003600	3.814600	-11.457000	22.969898	0.001026	20.729682
378.094322	-3.012100	3.814500	-11.489000	22.958736	0.001026	20.736991
379.094908	-3.000400	3.815200	-11.445000	22.951735	0.001027	20.745624
380.096254	-3.000900	3.813900	-11.444000	22.980294	0.001028	20.734882
381.096756	-3.019300	3.814300	-11.515000	22.976639	0.001029	20.734538
382.099029	-2.989800	3.815300	-11.407000	22.998677	0.001028	20.743818
383.098297	-3.001800	3.814800	-11.450000	23.008640	0.001027	20.742894
384.098094	-2.977900	3.813300	-11.354000	23.023367	0.001030	20.740580
385.097964	-2.992500	3.812800	-11.409000	23.032970	0.001027	20.769644
386.101076	-2.999600	3.812200	-11.434000	23.026345	0.001030	20.745935
387.098015	-2.982400	3.812800	-11.369000	23.023383	0.001030	20.765728
388.098008	-3.006500	3.812900	-11.463000	23.031526	0.001031	20.741169
389.098028	-2.988700	3.813400	-11.397000	23.056909	0.001032	20.740523
390.098042	-2.994300	3.812400	-11.414000	23.052429	0.001032	20.733664
391.099262	-2.981200	3.812100	-11.363000	23.065083	0.001032	20.724531
392.099670	-3.011200	3.811000	-11.474000	23.081760	0.001031	20.755468
393.097605	-3.000400	3.809900	-11.430000	23.096535	0.001030	20.740874
394.098409	-3.032700	3.809900	-11.552000	23.090050	0.001031	20.732953
395.099239	-3.012500	3.809900	-11.475000	23.108292	0.001029	20.737482
396.098029	-3.001400	3.810800	-11.436000	23.108407	0.001034	20.739019
397.103112	-2.986200	3.809300	-11.373000	23.092399	0.001034	20.738152
398.098178	-3.015100	3.809000	-11.483000	23.130695	0.001036	20.752819
399.101861	-2.985900	3.810300	-11.376000	23.135582	0.001037	20.752026
400.107349	-3.003200	3.810000	-11.440000	23.119942	0.001037	20.752950
401.101707	-2.987300	3.809300	-11.379000	23.130548	0.001037	20.737973
402.103150	-2.985200	3.809000	-11.370000	23.136006	0.001034	20.742493
403.102925	-3.014300	3.808600	-11.478000	23.152168	0.001036	20.754421
404.103102	-2.976000	3.809100	-11.334000	23.154183	0.001038	20.755492
405.102836	-2.997200	3.809400	-11.415000	23.169039	0.001039	20.743827
406.104957	-3.009600	3.807800	-11.459000	23.164830	0.001037	20.769007
407.106861	-2.980600	3.808200	-11.349000	23.163190	0.001039	20.738439
408.108165	-2.989100	3.807900	-11.379000	23.175965	0.001038	20.774002
409.107823	-3.002400	3.808000	-11.431000	23.183430	0.001039	20.761567
410.109896	-3.006500	3.806900	-11.443000	23.153841	0.001040	20.751357
411.108771	-3.003700	3.806700	-11.433000	23.190642	0.001040	20.765002
412.109666	-3.007700	3.806500	-11.448000	23.182035	0.001039	20.764911
413.110370	-3.005000	3.806900	-11.439000	23.177679	0.001041	20.769080
414.110154	-3.009400	3.805500	-11.451000	23.144500	0.001039	20.770920
415.111359	-3.017600	3.805800	-11.482000	23.155751	0.001041	20.742838
416.109353	-2.990200	3.806100	-11.380000	23.157741	0.001041	20.771861
417.110260	-3.020700	3.804100	-11.491000	23.154201	0.001041	20.778745
418.113695	-3.010400	3.804300	-11.451000	23.180690	0.001040	20.762615
419.119794	-2.988500	3.806600	-11.375000	23.190219	0.001039	20.784967
420.109694	-3.017100	3.804700	-11.478000	23.188955	0.001043	20.767578
421.110426	-2.969000	3.806100	-11.298000	23.212360	0.001042	20.782498
422.109718	-2.998800	3.804000	-11.407000	23.201681	0.001042	20.786021
423.110907	-3.012200	3.803700	-11.457000	23.196175	0.001042	20.762485
424.111331	-3.004200	3.802800	-11.423000	23.198378	0.001043	20.763745
425.109961	-2.997200	3.803300	-11.398000	23.206895	0.001043	20.776073
426.109990	-2.999500	3.803200	-11.406000	23.171285	0.001044	20.769786
427.113375	-3.008600	3.802600	-11.440000	23.191126	0.001043	20.778763
428.109630	-2.988300	3.802900	-11.362000	23.207205	0.001045	20.788713
429.112488	-2.994300	3.802200	-11.385000	23.186109	0.001045	20.782271
430.110535	-2.994500	3.802900	-11.386000	23.222020	0.001046	20.778902
431.112530	-3.004400	3.800300	-11.414000	23.227771	0.001045	20.787985
432.110277	-2.986300	3.801900	-11.352000	23.262334	0.001046	20.780423
433.111738	-2.973500	3.801700	-11.303000	23.270419	0.001047	20.795163
434.113434	-2.993500	3.801400	-11.378000	23.264717	0.001047	20.785656
435.112042	-2.996500	3.801300	-11.390000	23.289091	0.001048	20.783056
436.112117	-2.996800	3.799500	-11.384000	23.286725	0.001048	20.791591
437.112631	-2.988600	3.800300	-11.357000	23.285274	0.001049	20.784921
438.114183	-3.013300	3.800000	-11.449000	23.299141	0.001048	20.788861
439.112593	-2.987000	3.800200	-11.348000	23.278194	0.001046	20.783989
440.116573	-3.002700	3.799800	-11.409000	23.263323	0.001049	20.798958
441.112192	-2.999600	3.799800	-11.396000	23.284018	0.001049	20.786982
442.112884	-2.997200	3.799500	-11.386000	23.272085	0.001048	20.787350
443.112500	-3.002300	3.798300	-11.403000	23.253282	0.001050	20.800749
444.112578	-2.992300	3.798000	-11.363000	23.253846	0.001051	20.797994
445.118140	-2.982400	3.798600	-11.328000	23.246332	0.001050	20.796629
446.114083	-3.012700	3.797900	-11.441000	23.232432	0.001050	20.787440
447.115684	-3.015000	3.796900	-11.447000	23.273888	0.001053	20.801011
448.114872	-3.010900	3.795400	-11.425000	23.278318	0.001050	20.800709
449.114110	-2.997700	3.795700	-11.377000	23.272209	0.001052	20.786526
450.116510	-3.004000	3.796200	-11.403000	23.270863	0.001051	20.800350
451.115700	-3.001500	3.794900	-11.390000	23.269574	0.001051	20.791946
452.116448	-2.993300	3.795000	-11.358000	23.276280	0.001052	20.809572
453.115431	-2.999800	3.795600	-11.385000	23.274118	0.001052	20.789862
454.116251	-3.005200	3.794200	-11.401000	23.289503	0.001052	20.812867
455.117048	-3.005000	3.793300	-11.398000	23.303076	0.001053	20.811771
456.119186	-2.985100	3.795900	-11.330000	23.288279	0.001054	20.825391
457.117104	-3.009900	3.793200	-11.416000	23.314798	0.001053	20.802656
458.117580	-3.002400	3.793300	-11.388000	23.321887	0.001053	20.806916
459.117259	-2.993300	3.793500	-11.354000	23.323397	0.001053	20.809851
460.117687	-2.980300	3.794500	-11.307000	23.367850	0.001055	20.804619
461.118911	-2.977700	3.793900	-11.296000	23.367818	0.001053	20.826397
462.117548	-3.019000	3.791900	-11.447000	23.375861	0.001054	20.802216
463.118522	-2.975700	3.793200	-11.286000	23.385624	0.001055	20.813898
464.116771	-3.021300	3.792300	-11.456000	23.404066	0.001053	20.817209
465.117543	-2.987700	3.792500	-11.328000	23.432140	0.001055	20.811209
466.120336	-3.001300	3.791900	-11.379000	23.420640	0.001055	20.804898
467.120307	-3.017300	3.790500	-11.437000	23.420608	0.001053	20.820987
468.119114	-2.978200	3.791600	-11.290000	23.422581	0.001056	20.822491
469.118544	-2.975400	3.792600	-11.284000	23.438885	0.001055	20.832195
470.118642	-3.008500	3.790100	-11.401000	23.433601	0.001055	20.828794
471.119366	-2.992900	3.790700	-11.344000	23.440672	0.001057	20.814545
472.121455	-3.008300	3.789400	-11.399000	23.447189	0.001057	20.822500
473.121583	-3.007900	3.789200	-11.396000	23.449309	0.001057	20.817987
474.126381	-3.007300	3.788800	-11.393000	23.465189	0.001057	20.822999
475.122234	-2.991100	3.789600	-11.333000	23.463199	0.001055	20.825745
476.122922	-2.989400	3.789000	-11.326000	23.481640	0.001059	20.825264
477.125901	-3.010700	3.788200	-11.403000	23.506360	0.001059	20.838188
478.122061	-3.012900	3.787200	-11.409000	23.493164	0.001058	20.836815
479.122915	-3.015000	3.788200	-11.420000	23.527295	0.001058	20.825509
480.121316	-3.016700	3.786800	-11.424000	23.519874	0.001060	20.837036
481.122098	-3.003400	3.788500	-11.377000	23.526146	0.001058	20.840003
482.122830	-2.986400	3.789000	-11.314000	23.526766	0.001060	20.835883
483.125017	-3.007600	3.786300	-11.387000	23.560398	0.001061	20.843045
484.122011	-3.016700	3.787300	-11.425000	23.512225	0.001060	20.841222
485.123065	-2.983000	3.786100	-11.292000	23.529131	0.001060	20.837780
486.123044	-3.009800	3.785400	-11.392000	23.531863	0.001061	20.829140
487.123460	-2.994400	3.786000	-11.335000	23.557283	0.001058	20.836129
488.127460	-3.007500	3.786000	-11.386000	23.569083	0.001059	20.813346
489.125498	-3.014400	3.784500	-11.407000	23.560611	0.001059	20.846103
490.126457	-3.009700	3.784900	-11.390000	23.556884	0.001062	20.847582
491.126359	-3.005000	3.784200	-11.370000	23.546592	0.001059	20.832525
492.126300	-2.973900	3.786000	-11.257000	23.563979	0.001060	20.818185
493.130100	-3.011600	3.783500	-11.394000	23.562642	0.001061	20.828225
494.127047	-2.990600	3.784100	-11.315000	23.553729	0.001061	20.830196
495.127580	-3.012100	3.784000	-11.397000	23.579099	0.001062	20.838084
496.127295	-2.987500	3.783500	-11.302000	23.562390	0.001060	20.825127
497.127896	-2.985000	3.783500	-11.293000	23.589318	0.001062	20.826043
498.128702	-2.982300	3.783100	-11.281000	23.594921	0.001062	20.834504
499.127887	-2.999700	3.781700	-11.343000	23.580772	0.001059	20.813209
500.127687	-2.994000	3.781800	-11.322000	23.566590	0.001063	20.814639
501.127604	-3.012800	3.782200	-11.394000	23.563696	0.001061	20.810315
502.128990	-3.014200	3.781000	-11.396000	23.563419	0.001062	20.816202
503.127593	-3.005100	3.781800	-11.364000	23.595305	0.001064	20.806441
504.126755	-2.980900	3.782600	-11.273000	23.580863	0.001063	20.808084
505.128617	-2.999500	3.781500	-11.342000	23.600199	0.001063	20.807079
506.131560	-2.979800	3.781800	-11.268000	23.580488	0.001064	20.814347
507.129642	-3.016800	3.779300	-11.401000	23.592729	0.001066	20.812867
508.128711	-3.010000	3.778800	-11.374000	23.582600	0.001064	20.800343
509.135344	-2.995000	3.779300	-11.318000	23.568550	0.001063	20.816604
510.128528	-2.996700	3.779400	-11.325000	23.554980	0.001064	20.823389
511.131134	-2.999100	3.779500	-11.334000	23.581762	0.001063	20.820365
512.130095	-3.010700	3.778300	-11.374000	23.567530	0.001064	20.818901
513.128959	-2.998600	3.778500	-11.328000	23.589876	0.001064	20.826602
514.132049	-3.008500	3.778900	-11.368000	23.606112	0.001062	20.800679
515.133287	-3.004600	3.777800	-11.349000	23.607506	0.001065	20.798758
516.130606	-2.991200	3.777500	-11.297000	23.620791	0.001063	20.804015
517.129971	-3.007800	3.776900	-11.359000	23.612065	0.001065	20.803328
518.130451	-3.004700	3.777000	-11.348000	23.636929	0.001066	20.818771
519.130151	-3.010600	3.777400	-11.371000	23.655024	0.001062	20.813678
520.133618	-2.984700	3.776700	-11.271000	23.657356	0.001064	20.802266
521.131774	-3.001400	3.774400	-11.327000	23.642474	0.001064	20.801097
522.133919	-2.973200	3.776500	-11.227000	23.632142	0.001065	20.784101
523.132179	-2.996800	3.775300	-11.313000	23.623450	0.001066	20.790085
524.131927	-2.996400	3.775800	-11.313000	23.602614	0.001064	20.810924
525.132493	-2.989800	3.775600	-11.288000	23.593522	0.001067	20.802283
526.132276	-2.993200	3.773700	-11.295000	23.576649	0.001064	20.792481
527.132051	-3.008600	3.774700	-11.354000	23.566015	0.001065	20.764751
528.132747	-2.999900	3.773600	-11.319000	23.586827	0.001065	20.794149
529.133585	-3.000500	3.773400	-11.321000	23.578509	0.001067	20.789604
530.134141	-3.012200	3.772700	-11.362000	23.589812	0.001065	20.799038
531.136140	-2.996700	3.772400	-11.303000	23.601286	0.001065	20.809592
532.133765	-3.018300	3.770900	-11.380000	23.592152	0.001065	20.779573
533.135472	-3.013800	3.771700	-11.367000	23.590358	0.001066	20.789154
534.135025	-3.026800	3.771200	-11.414000	23.575818	0.001067	20.782639
535.134167	-3.029400	3.770500	-11.422000	23.599842	0.001067	20.791549
536.137898	-3.004700	3.770900	-11.329000	23.623028	0.001069	20.804361
537.135677	-3.025400	3.768800	-11.400000	23.641334	0.001065	20.792367
538.136994	-3.000400	3.769800	-11.310000	23.634534	0.001066	20.791240
539.136891	-2.986700	3.770300	-11.260000	23.611032	0.001066	20.795180
540.137055	-2.991700	3.770900	-11.280000	23.604378	0.001068	20.780923
541.137924	-2.997100	3.769400	-11.295000	23.598058	0.001066	20.787390
542.139193	-3.002800	3.769400	-11.317000	23.622302	0.001068	20.765701
543.136942	-3.021600	3.768000	-11.383000	23.608758	0.001067	20.790055
544.138495	-3.004500	3.768200	-11.320000	23.607567	0.001065	20.772266
545.138878	-3.000100	3.768600	-11.306000	23.630938	0.001068	20.775781
546.138401	-2.995600	3.769000	-11.289000	23.621748	0.001069	20.785060
547.139485	-3.004800	3.766800	-11.317000	23.614360	0.001066	20.771489
548.139224	-3.007800	3.767900	-11.332000	23.623486	0.001067	20.800553
549.145339	-3.003400	3.767500	-11.314000	23.622841	0.001068	20.788053
550.139978	-2.990400	3.767500	-11.265000	23.625704	0.001066	20.789500
551.140011	-3.019800	3.766600	-11.374000	23.630801	0.001069	20.778963
552.142305	-3.018300	3.765900	-11.365000	23.646605	0.001069	20.785797
553.139807	-3.006600	3.766100	-11.322000	23.643294	0.001069	20.773943
554.138538	-2.991600	3.766900	-11.268000	23.663484	0.001069	20.787546
555.139672	-2.971500	3.767300	-11.193000	23.649320	0.001068	20.784252
556.140003	-2.998200	3.765300	-11.288000	23.675879	0.001069	20.761092
557.140354	-3.001200	3.765900	-11.301000	23.682231	0.001067	20.783581
558.141202	-2.999700	3.765000	-11.292000	23.665001	0.001068	20.790964
559.142397	-3.004100	3.764700	-11.308000	23.638442	0.001067	20.775717
560.141954	-3.018100	3.762100	-11.352000	23.642943	0.001068	20.782127
561.143290	-2.986400	3.764100	-11.240000	23.645301	0.001067	20.783542
562.144984	-3.009600	3.763800	-11.326000	23.650805	0.001068	20.776732
563.144410	-3.001100	3.763200	-11.293000	23.678562	0.001068	20.778481
564.144809	-3.008300	3.762900	-11.319000	23.679288	0.001068	20.785372
565.145695	-2.963800	3.763300	-11.153000	23.709524	0.001068	20.782021
566.145834	-2.993000	3.762400	-11.259000	23.742082	0.001068	20.775783
567.144742	-3.006800	3.761500	-11.308000	23.760421	0.001069	20.774255
568.147112	-2.994400	3.761900	-11.264000	23.743820	0.001068	20.787956
569.149415	-3.009200	3.762500	-11.321000	23.781702	0.001068	20.769513
570.149060	-2.999100	3.761600	-11.280000	23.765329	0.001068	20.765899
571.147499	-2.995400	3.760900	-11.265000	23.781253	0.001067	20.789927
572.147760	-3.015100	3.760000	-11.336000	23.802688	0.001068	20.779176
573.150419	-3.001400	3.759400	-11.281000	23.812065	0.001069	20.751593
574.147320	-2.993800	3.760000	-11.256000	23.785681	0.001069	20.759752
575.148535	-3.001000	3.760600	-11.285000	23.831951	0.001069	20.778171
576.147855	-2.984400	3.759100	-11.218000	23.808005	0.001071	20.757480
577.148647	-2.998400	3.760500	-11.275000	23.825404	0.001067	20.769710
578.150946	-3.020200	3.758400	-11.350000	23.814430	0.001070	20.764396
579.149334	-2.999900	3.759200	-11.275000	23.815841	0.001067	20.761069
580.149855	-3.004600	3.756000	-11.285000	23.846627	0.001069	20.762541
581.148900	-2.985200	3.758700	-11.219000	23.846921	0.001068	20.754300
582.149611	-2.989100	3.756800	-11.229000	23.845625	0.001068	20.752526
583.151207	-2.999500	3.758100	-11.271000	23.861556	0.001069	20.766604
584.149415	-3.000200	3.757000	-11.270000	23.865811	0.001068	20.759966
585.153425	-3.004300	3.757200	-11.287000	23.871356	0.001068	20.747981
586.150431	-2.969700	3.757300	-11.156000	23.842641	0.001067	20.762811
587.149990	-2.977600	3.758200	-11.190000	23.826898	0.001068	20.747500
588.155987	-3.012500	3.756300	-11.314000	23.823074	0.001066	20.745561
589.150409	-2.993300	3.755800	-11.241000	23.842878	0.001068	20.753566
590.155215	-3.015300	3.754600	-11.320000	23.816576	0.001068	20.743313
591.153523	-2.998400	3.755600	-11.259000	23.831855	0.001069	20.729235
592.154122	-3.002400	3.754200	-11.271000	23.836388	0.001069	20.762231
593.153557	-2.987300	3.753700	-11.213000	23.830779	0.001068	20.746175
594.155391	-3.003600	3.753200	-11.272000	23.849523	0.001068	20.751693
595.153766	-2.988100	3.753200	-11.214000	23.849197	0.001067	20.754212
596.155246	-2.984600	3.754400	-11.204000	23.864785	0.001065	20.734279
597.155165	-2.963800	3.755000	-11.128000	23.857741	0.001067	20.743338
598.154431	-3.017300	3.752900	-11.322000	23.860717	0.001068	20.746797
599.156673	-3.004300	3.752200	-11.272000	23.875857	0.001066	20.743011
600.155484	-3.017300	3.750800	-11.316000	23.862633	0.001068	20.751563
601.155892	-3.010300	3.751600	-11.292000	23.879380	0.001069	20.750811
602.155013	-3.005900	3.750400	-11.273000	23.890956	0.001067	20.760049
603.157842	-3.025800	3.749800	-11.345000	23.905419	0.001068	20.748947
604.158066	-2.982600	3.751900	-11.190000	23.915789	0.001068	20.752708
605.157119	-3.008200	3.749900	-11.279000	23.917828	0.001069	20.731517
606.157142	-3.014500	3.751500	-11.308000	23.937418	0.001069	20.731721
607.161648	-3.002000	3.749700	-11.255000	23.923681	0.001069	20.758725
608.163806	-3.013000	3.748200	-11.291000	23.950878	0.001069	20.752806
609.161951	-2.998000	3.749400	-11.240000	23.926241	0.001068	20.720987
610.165950	-2.995200	3.748900	-11.228000	23.937631	0.001068	20.747583
611.164463	-2.986500	3.749700	-11.198000	23.917894	0.001066	20.732532
612.165166	-2.994900	3.749300	-11.228000	23.952982	0.001067	20.750175
613.161397	-3.013100	3.747800	-11.292000	23.924188	0.001068	20.729360
614.162853	-2.997100	3.747800	-11.231000	23.940134	0.001069	20.748671
615.165350	-2.989100	3.748600	-11.204000	23.913508	0.001067	20.751843
616.161781	-2.998500	3.747300	-11.235000	23.899193	0.001067	20.731797
617.164524	-2.984700	3.749600	-11.189000	23.871189	0.001067	20.735959
618.162566	-3.007500	3.746700	-11.267000	23.879472	0.001067	20.749956
619.163637	-3.001700	3.746300	-11.245000	23.873913	0.001067	20.744855
620.167697	-2.998300	3.745900	-11.231000	23.868736	0.001066	20.743931
621.165151	-3.004100	3.746000	-11.253000	23.843918	0.001066	20.716674
622.166233	-3.007900	3.746200	-11.266000	23.849056	0.001067	20.734629
623.165214	-2.996800	3.746200	-11.225000	23.828306	0.001068	20.733738
624.165459	-2.997600	3.745300	-11.225000	23.819093	0.001067	20.721654
625.166667	-3.010300	3.743600	-11.268000	23.846758	0.001067	20.736592
626.168129	-3.019100	3.744100	-11.302000	23.849049	0.001065	20.728932
627.167664	-2.997600	3.744500	-11.223000	23.867189	0.001066	20.730526
628.167044	-3.018300	3.744000	-11.299000	23.864639	0.001067	20.742194
629.166555	-3.029800	3.743000	-11.340000	23.865405	0.001067	20.717357
630.167072	-2.995900	3.742600	-11.212000	23.896386	0.001065	20.733725
631.169271	-3.001200	3.741300	-11.227000	23.879087	0.001066	20.748621
632.167523	-2.988000	3.743600	-11.184000	23.878834	0.001066	20.734142
633.170424	-2.981300	3.743600	-11.159000	23.860858	0.001065	20.745989
634.168751	-2.995300	3.741800	-11.206000	23.844829	0.001066	20.737503
635.169220	-2.991000	3.742100	-11.190000	23.838927	0.001066	20.740120
636.170132	-2.984400	3.740700	-11.163000	23.865221	0.001066	20.721914
637.170588	-3.003500	3.741800	-11.237000	23.881242	0.001066	20.720435
638.173681	-2.980700	3.742500	-11.154000	23.882318	0.001065	20.719617
639.170013	-2.996500	3.741000	-11.208000	23.882066	0.001067	20.736434
640.176995	-3.023100	3.739100	-11.301000	23.898983	0.001065	20.720681
641.175119	-2.990000	3.740700	-11.183000	23.902391	0.001065	20.726469
642.175733	-3.011100	3.739100	-11.258000	23.928643	0.001066	20.713438
643.171904	-2.988700	3.740300	-11.176000	23.956964	0.001066	20.722872
644.172545	-3.010200	3.739600	-11.256000	23.970945	0.001064	20.730729
645.171614	-2.995500	3.739400	-11.200000	23.992866	0.001066	20.725685
646.172173	-2.992300	3.739400	-11.188000	23.963698	0.001065	20.721091
647.173915	-2.998100	3.737300	-11.204000	23.961302	0.001066	20.749984
648.173443	-3.011300	3.736900	-11.251000	23.943408	0.001064	20.726349
649.178199	-2.996100	3.738500	-11.200000	23.922652	0.001065	20.735407
650.174696	-2.989400	3.737000	-11.171000	23.928148	0.001064	20.733805
651.173704	-3.006500	3.736200	-11.232000	23.918446	0.001065	20.707479
652.176484	-2.979300	3.738500	-11.137000	23.929118	0.001065	20.732407
653.175941	-2.995100	3.736500	-11.191000	23.944665	0.001064	20.717177
654.178570	-3.024600	3.735000	-11.296000	23.975945	0.001064	20.712983
655.174784	-3.026000	3.734100	-11.298000	23.970965	0.001065	20.722214
656.175761	-2.988100	3.736200	-11.162000	23.960692	0.001065	20.711912
657.176601	-2.972400	3.736700	-11.106000	23.994304	0.001064	20.727602
658.178690	-3.014400	3.734600	-11.257000	23.988508	0.001063	20.705666
659.176825	-3.006900	3.733100	-11.224000	24.001894	0.001064	20.722884
660.176369	-3.001600	3.733600	-11.206000	24.018344	0.001064	20.737486
661.176230	-2.963400	3.735400	-11.067000	24.011945	0.001065	20.729171
662.181118	-2.996700	3.734100	-11.188000	24.037655	0.001065	20.721764
663.177160	-3.002800	3.734200	-11.212000	24.002660	0.001063	20.707057
664.176250	-2.999800	3.732800	-11.197000	24.011766	0.001063	20.723776
665.176810	-3.002500	3.733500	-11.210000	24.003109	0.001063	20.727422
666.177651	-3.019000	3.731900	-11.266000	23.980186	0.001063	20.703958
667.178055	-2.981100	3.733300	-11.128000	23.955746	0.001063	20.696519
668.177074	-2.995300	3.731300	-11.176000	23.953333	0.001062	20.710221
669.177332	-2.994500	3.733100	-11.178000	23.976543	0.001065	20.727808
670.181771	-3.022800	3.731500	-11.278000	23.964347	0.001062	20.724587
671.178947	-3.003200	3.731100	-11.204000	23.947122	0.001064	20.706838
672.179408	-2.984200	3.731800	-11.135000	23.945476	0.001064	20.720361
673.182220	-3.019700	3.730500	-11.264000	23.896104	0.001062	20.700723
674.179251	-2.970600	3.730800	-11.082000	23.903540	0.001063	20.702015
675.179271	-2.997800	3.729800	-11.181000	23.901379	0.001062	20.696529
676.180166	-3.003300	3.730600	-11.203000	23.933410	0.001063	20.697828
677.180371	-3.002000	3.728600	-11.192000	23.944481	0.001062	20.721260
678.184378	-2.990000	3.728900	-11.148000	23.967121	0.001063	20.710772
679.181878	-3.004500	3.727900	-11.200000	23.946813	0.001061	20.718383
680.181976	-2.982700	3.728300	-11.119000	23.947181	0.001061	20.698836
681.181631	-3.006200	3.728500	-11.208000	23.919585	0.001062	20.714786
682.180262	-3.011200	3.726900	-11.220000	23.930730	0.001062	20.709840
683.183255	-2.983900	3.727700	-11.122000	23.970871	0.001061	20.728759
684.181813	-3.001000	3.726300	-11.181000	23.976366	0.001061	20.716250
685.181684	-2.994900	3.727200	-11.161000	23.955677	0.001060	20.686966
686.181858	-3.009300	3.726500	-11.213000	23.965656	0.001061	20.707405
687.183213	-3.005400	3.726000	-11.197000	23.970734	0.001059	20.711550
688.183051	-2.981700	3.727400	-11.113000	23.957096	0.001058	20.698347
689.183490	-3.024300	3.725600	-11.266000	23.982425	0.001060	20.693875
690.183920	-2.995100	3.726100	-11.158000	23.949677	0.001059	20.691855
691.184752	-3.003000	3.725200	-11.186000	23.960048	0.001060	20.695143
692.185660	-2.997700	3.724500	-11.164000	23.972618	0.001057	20.698740
693.185638	-3.003100	3.724800	-11.185000	23.984488	0.001059	20.700212
694.189493	-2.991000	3.724400	-11.139000	23.999740	0.001059	20.696067
695.187259	-2.992500	3.725100	-11.147000	23.983860	0.001059	20.703376
696.189940	-2.998300	3.724900	-11.167000	23.960545	0.001057	20.696590
697.187145	-2.987700	3.725200	-11.129000	23.986305	0.001057	20.701086
698.187502	-2.984600	3.724000	-11.113000	23.987668	0.001058	20.701030
699.190178	-2.988200	3.725100	-11.130000	23.980183	0.001058	20.687359
700.190495	-3.017100	3.723400	-11.233000	23.981937	0.001058	20.675367
701.188470	-3.018600	3.722100	-11.235000	23.972464	0.001059	20.696214
702.187579	-2.995900	3.724000	-11.155000	23.956535	0.001058	20.693991
703.189230	-3.008000	3.722900	-11.197000	23.960611	0.001056	20.706614
704.189456	-2.988300	3.723000	-11.123000	23.956731	0.001058	20.687074
705.192618	-2.996000	3.722500	-11.151000	23.968544	0.001057	20.687541
706.190824	-3.001700	3.721700	-11.170000	23.953095	0.001058	20.680109
707.189969	-3.024000	3.720900	-11.249000	23.951130	0.001057	20.710383
708.190166	-2.999700	3.722100	-11.164000	23.972897	0.001057	20.683846
709.193937	-3.011500	3.721400	-11.206000	23.969441	0.001056	20.684647
710.189692	-2.995500	3.721000	-11.145000	23.998283	0.001059	20.678956
711.191107	-2.998200	3.721300	-11.155000	24.000117	0.001055	20.685064
712.189605	-3.009800	3.720200	-11.196000	24.024182	0.001055	20.686912
713.195621	-3.021500	3.719100	-11.236000	24.040796	0.001056	20.699307
714.189910	-3.015100	3.719200	-11.212000	24.052542	0.001056	20.693069
715.193507	-3.005400	3.719800	-11.179000	24.083493	0.001055	20.702774
716.190475	-2.994000	3.719100	-11.134000	24.078513	0.001056	20.709160
717.190294	-3.003700	3.718200	-11.167000	24.087317	0.001054	20.690013
718.190747	-2.980200	3.719600	-11.084000	24.099714	0.001054	20.705293
719.189995	-2.986900	3.718500	-11.106000	24.120036	0.001053	20.702440
720.191604	-3.009400	3.717700	-11.186000	24.132947	0.001055	20.707804
721.190431	-3.000300	3.717200	-11.152000	24.110034	0.001054	20.687666
722.190426	-3.000700	3.718200	-11.157000	24.107933	0.001055	20.719226
723.191009	-3.018700	3.717700	-11.222000	24.138711	0.001054	20.693195
724.189314	-2.996900	3.716600	-11.137000	24.129753	0.001055	20.690848
725.193162	-3.020000	3.714900	-11.219000	24.095217	0.001054	20.684659
726.190163	-2.999900	3.715600	-11.145000	24.076674	0.001053	20.702099
727.193946	-2.996000	3.716900	-11.134000	24.082193	0.001054	20.703366
728.190981	-3.015600	3.715700	-11.204000	24.063575	0.001052	20.702713
729.193162	-2.970500	3.717100	-11.040000	24.103744	0.001052	20.690367
730.192431	-2.986300	3.715400	-11.094000	24.099163	0.001052	20.703317
731.193495	-2.997500	3.715100	-11.135000	24.120276	0.001053	20.711217
732.193738	-2.980100	3.714200	-11.067000	24.149913	0.001051	20.714388
733.200285	-2.994500	3.713900	-11.119000	24.161952	0.001051	20.705600
734.193773	-2.991800	3.714500	-11.112000	24.170388	0.001051	20.712165
735.192607	-2.992700	3.714400	-11.114000	24.202722	0.001049	20.710457
736.198078	-3.014800	3.711700	-11.189000	24.193414	0.001051	20.715821
737.195104	-2.981800	3.713700	-11.073000	24.210709	0.001051	20.708037
738.194936	-3.005100	3.711800	-11.153000	24.216970	0.001049	20.672588
739.196090	-3.004000	3.712400	-11.151000	24.215576	0.001048	20.720032
740.196018	-2.990700	3.713300	-11.104000	24.233172	0.001048	20.702593
741.196791	-3.010000	3.711100	-11.169000	24.260728	0.001052	20.707001
742.200560	-3.013400	3.711000	-11.181000	24.279440	0.001048	20.709649
743.196497	-2.975500	3.712100	-11.045000	24.267069	0.001050	20.703404
744.195759	-3.001300	3.709900	-11.134000	24.260525	0.001049	20.712961
745.195328	-3.004900	3.710100	-11.148000	24.300256	0.001050	20.711563
746.204947	-2.998700	3.709600	-11.123000	24.264079	0.001049	20.716052
747.200428	-2.997000	3.710100	-11.117000	24.259205	0.001049	20.692195
748.197460	-2.977300	3.711300	-11.048000	24.267030	0.001048	20.714271
749.198416	-2.988200	3.710200	-11.086000	24.291194	0.001047	20.717647
750.197927	-3.011000	3.708700	-11.165000	24.268154	0.001049	20.686473
751.198480	-2.999200	3.709700	-11.124000	24.267055	0.001049	20.693431
752.200421	-3.007600	3.707900	-11.150000	24.248742	0.001046	20.698770
753.197695	-3.002600	3.707500	-11.131000	24.234407	0.001046	20.701935
754.200073	-3.009400	3.707500	-11.156000	24.227869	0.001047	20.708180
755.199973	-3.000300	3.708200	-11.125000	24.235947	0.001046	20.738570
756.199524	-2.998700	3.707600	-11.117000	24.223576	0.001048	20.708615
757.202411	-3.017000	3.706300	-11.181000	24.247513	0.001046	20.713659
758.201597	-2.993500	3.707600	-11.098000	24.265517	0.001046	20.718443
759.202807	-3.010400	3.706800	-11.157000	24.273350	0.001045	20.736732
760.200446	-2.981000	3.705600	-11.046000	24.270538	0.001046	20.717315
761.200406	-2.995500	3.706500	-11.100000	24.252225	0.001046	20.693254
762.204935	-2.999300	3.706500	-11.114000	24.239585	0.001046	20.720406
763.203768	-2.985100	3.706200	-11.062000	24.190586	0.001045	20.720097
764.201040	-2.999900	3.705800	-11.116000	24.165409	0.001044	20.709542
765.201865	-3.005300	3.705100	-11.134000	24.150109	0.001043	20.708421
766.202032	-3.021200	3.704400	-11.190000	24.168392	0.001043	20.732450
767.201751	-3.006000	3.704100	-11.133000	24.169639	0.001044	20.705249
768.205562	-3.011400	3.703700	-11.152000	24.206701	0.001044	20.709232
769.201640	-2.996100	3.704500	-11.097000	24.241559	0.001043	20.727603
770.205109	-3.004200	3.702400	-11.122000	24.259865	0.001044	20.711824
771.204586	-2.998500	3.704000	-11.106000	24.225154	0.001042	20.729165
772.203128	-2.986200	3.703200	-11.058000	24.194826	0.001043	20.725772
773.203367	-3.027100	3.702000	-11.205000	24.183873	0.001042	20.720001
774.203493	-3.002100	3.702100	-11.113000	24.160677	0.001040	20.743678
775.203772	-3.014300	3.703700	-11.163000	24.192700	0.001042	20.727908
776.203124	-3.006900	3.702100	-11.132000	24.178095	0.001040	20.721318
777.203446	-2.994400	3.702000	-11.083000	24.209743	0.001040	20.729829
778.206323	-3.006000	3.701800	-11.127000	24.221154	0.001040	20.722783
779.206108	-2.999100	3.700700	-11.098000	24.246404	0.001040	20.729144
780.206984	-3.017900	3.701800	-11.171000	24.258369	0.001040	20.751577
781.205587	-2.991000	3.701300	-11.068000	24.288579	0.001038	20.719291
782.206362	-2.984700	3.701500	-11.046000	24.317699	0.001042	20.721950
783.208542	-3.006800	3.700600	-11.126000	24.309118	0.001041	20.705754
784.204740	-3.007800	3.698400	-11.122000	24.343052	0.001040	20.731736
785.206716	-2.981900	3.699900	-11.031000	24.326460	0.001040	20.710348
786.206667	-2.998300	3.699500	-11.091000	24.311929	0.001038	20.725645
787.209924	-2.993600	3.699200	-11.073000	24.310455	0.001038	20.734124
788.209814	-2.999000	3.698000	-11.089000	24.299307	0.001036	20.732898
789.210283	-3.006900	3.698400	-11.119000	24.306527	0.001039	20.735399
790.207319	-2.983700	3.698800	-11.036000	24.300105	0.001037	20.729905
791.207644	-2.992400	3.698400	-11.066000	24.282861	0.001037	20.731100
792.208918	-3.012400	3.696800	-11.134000	24.245150	0.001037	20.741163
793.208401	-2.989200	3.697800	-11.052000	24.254222	0.001036	20.729874
794.211807	-2.989500	3.697600	-11.053000	24.268998	0.001039	20.736635
795.209486	-3.012900	3.697500	-11.139000	24.277899	0.001037	20.730390
796.211330	-3.003900	3.696600	-11.103000	24.304573	0.001038	20.734861
797.209803	-3.011000	3.696600	-11.129000	24.292454	0.001036	20.715118
798.213275	-3.003100	3.696600	-11.100000	24.297157	0.001035	20.728370
799.215385	-3.023800	3.695300	-11.172000	24.291330	0.001036	20.752398
800.212455	-3.006400	3.696200	-11.112000	24.267671	0.001036	20.750477
801.213810	-3.013700	3.694700	-11.132000	24.258683	0.001036	20.730555
802.214726	-2.961200	3.696400	-10.945000	24.249995	0.001036	20.731324
803.214378	-2.978300	3.697000	-11.010000	24.275717	0.001035	20.715398
804.216028	-2.988900	3.695900	-11.045000	24.289793	0.001035	20.716241
805.218730	-2.989900	3.694400	-11.045000	24.294723	0.001036	20.739680
806.214280	-2.977200	3.695400	-11.002000	24.324477	0.001034	20.739181
807.214948	-2.974500	3.694900	-10.989000	24.324119	0.001034	20.746409
808.214599	-3.005100	3.693500	-11.098000	24.321830	0.001032	20.740319
809.215759	-3.009400	3.693800	-11.115000	24.304764	0.001034	20.747382
810.220047	-2.994500	3.693900	-11.061000	24.269981	0.001033	20.743311
811.215912	-2.989800	3.692700	-11.039000	24.241987	0.001033	20.735145
812.216943	-3.009500	3.692500	-11.111000	24.273731	0.001032	20.731425
813.215997	-3.005300	3.692000	-11.094000	24.276315	0.001034	20.746820
814.217159	-3.000600	3.691100	-11.075000	24.299925	0.001032	20.754382
815.219674	-3.003700	3.692900	-11.090000	24.286959	0.001034	20.749436
816.219153	-2.987400	3.692800	-11.031000	24.314473	0.001031	20.746216
817.216710	-3.024600	3.689800	-11.159000	24.339125	0.001032	20.762411
818.217643	-3.010000	3.691000	-11.109000	24.371487	0.001029	20.735130
819.216619	-3.017000	3.690500	-11.133000	24.351463	0.001032	20.759141
820.217864	-3.020300	3.689300	-11.141000	24.402576	0.001030	20.744508
821.219291	-3.017600	3.690100	-11.134000	24.414563	0.001029	20.751793
822.217806	-2.995600	3.691100	-11.056000	24.413292	0.001030	20.748621
823.220026	-2.982100	3.690100	-11.004000	24.451200	0.001031	20.752513
824.219375	-2.978400	3.689600	-10.986000	24.444038	0.001030	20.748646
825.220562	-3.003800	3.687600	-11.075000	24.414654	0.001029	20.763264
826.223283	-2.993600	3.689100	-11.042000	24.423602	0.001028	20.735256
827.222800	-3.013100	3.687700	-11.110000	24.411762	0.001028	20.767475
828.222069	-2.991100	3.688700	-11.032000	24.424425	0.001029	20.765480
829.222168	-3.001700	3.689300	-11.073000	24.420693	0.001027	20.769797
830.222893	-3.024500	3.687700	-11.153000	24.386460	0.001027	20.762481
831.222769	-3.026600	3.687400	-11.158000	24.405114	0.001029	20.766969
832.226903	-3.013400	3.687600	-11.111000	24.432404	0.001027	20.771114
833.222717	-3.007700	3.685500	-11.084000	24.442777	0.001026	20.755442
834.223274	-3.039600	3.687100	-11.205000	24.484261	0.001027	20.762923
835.222293	-3.021900	3.685200	-11.135000	24.465830	0.001025	20.759604
836.225050	-3.000300	3.686200	-11.058000	24.480456	0.001027	20.776649
837.227062	-2.997000	3.687500	-11.049000	24.503312	0.001025	20.751216
838.224223	-2.977700	3.687000	-10.978000	24.490349	0.001024	20.772350
839.225871	-3.001500	3.684700	-11.058000	24.474736	0.001024	20.757633
840.226624	-2.994700	3.685200	-11.035000	24.486103	0.001024	20.764771
841.227049	-3.013000	3.684600	-11.101000	24.495775	0.001024	20.773527
842.228715	-3.010400	3.684700	-11.091000	24.484426	0.001025	20.777787
843.227786	-3.024500	3.683400	-11.139000	24.497316	0.001024	20.769856
844.227744	-3.013200	3.683000	-11.097000	24.503736	0.001024	20.779617
845.225581	-3.011000	3.682600	-11.088000	24.519251	0.001024	20.771001
846.227113	-2.986500	3.684500	-11.002000	24.499850	0.001023	20.772873
847.227260	-3.007400	3.683000	-11.074000	24.487962	0.001025	20.774696
848.230522	-2.992700	3.682700	-11.020000	24.465546	0.001023	20.756948
849.230019	-3.008200	3.681900	-11.073000	24.481191	0.001024	20.789241
850.230267	-2.999200	3.684000	-11.048000	24.465049	0.001022	20.768778
851.230474	-2.995900	3.682600	-11.032000	24.462238	0.001024	20.765009
852.230238	-3.015000	3.681400	-11.098000	24.496087	0.001021	20.768623
853.233542	-3.002700	3.680400	-11.050000	24.495443	0.001020	20.767029
854.230734	-3.019400	3.681100	-11.115000	24.516636	0.001022	20.752256
855.233747	-3.003800	3.681700	-11.058000	24.501016	0.001020	20.777362
856.230373	-3.007800	3.680300	-11.069000	24.484321	0.001020	20.768672
857.230114	-2.986700	3.679700	-10.989000	24.484345	0.001020	20.775335
858.235573	-3.000200	3.680400	-11.042000	24.509914	0.001020	20.768746
859.232971	-2.996400	3.680400	-11.027000	24.518999	0.001021	20.760791
860.231731	-3.009300	3.680600	-11.075000	24.540982	0.001019	20.783322
861.231729	-2.991600	3.679500	-11.006000	24.560463	0.001019	20.777738
862.233037	-3.006700	3.679500	-11.062000	24.547753	0.001020	20.785848
863.238848	-3.030300	3.679000	-11.146000	24.561905	0.001019	20.787720
864.237112	-3.014000	3.679000	-11.087000	24.553367	0.001015	20.789110
865.234746	-3.014700	3.677900	-11.087000	24.562973	0.001018	20.775989
866.240609	-2.986600	3.679400	-10.988000	24.540688	0.001018	20.794881
867.234363	-2.983000	3.678200	-10.971000	24.565637	0.001016	20.788145
868.234285	-2.979200	3.679200	-10.959000	24.561440	0.001017	20.780615
869.235240	-2.990300	3.677300	-10.995000	24.562010	0.001016	20.780713
870.233540	-2.983000	3.678200	-10.971000	24.572977	0.001016	20.792191
871.234275	-3.017100	3.677000	-11.092000	24.601999	0.001015	20.779111
872.235906	-3.016300	3.676900	-11.089000	24.610971	0.001016	20.794277
873.235904	-2.980400	3.677600	-10.959000	24.615182	0.001015	20.797554
874.236608	-3.021300	3.676800	-11.107000	24.599091	0.001015	20.793262
875.237119	-2.992200	3.675900	-10.996000	24.601845	0.001014	20.811673
876.236614	-3.008100	3.676300	-11.058000	24.574917	0.001014	20.787024
877.238492	-3.024300	3.674600	-11.111000	24.585036	0.001013	20.800023
878.237129	-2.975100	3.677400	-10.940000	24.567853	0.001012	20.802222
879.238607	-2.997300	3.673500	-11.010000	24.591376	0.001014	20.813970
880.243221	-3.008800	3.675200	-11.058000	24.575039	0.001013	20.797579
881.240821	-3.004400	3.674200	-11.038000	24.551068	0.001012	20.799605
882.243137	-3.026000	3.672900	-11.114000	24.524099	0.001014	20.794832
883.239270	-3.015100	3.673000	-11.073000	24.481744	0.001011	20.810184
884.240088	-2.980200	3.673600	-10.947000	24.456020	0.001014	20.793385
885.244051	-3.003300	3.672400	-11.028000	24.457984	0.001011	20.811477
886.243540	-2.992100	3.672900	-10.989000	24.452785	0.001013	20.807683
887.241430	-3.025900	3.672000	-11.109000	24.472033	0.001009	20.809450
888.242723	-3.005200	3.673100	-11.037000	24.497561	0.001012	20.793810
889.241806	-3.000000	3.673000	-11.017000	24.506305	0.001010	20.790255
890.242935	-2.994000	3.671600	-10.991000	24.536225	0.001009	20.811740
891.245066	-2.999200	3.671100	-11.009000	24.554729	0.001010	20.808969
892.244550	-3.010700	3.671800	-11.054000	24.565028	0.001011	20.809819
893.248662	-3.003000	3.672100	-11.026000	24.579694	0.001010	20.823586
894.249995	-2.981100	3.671100	-10.944000	24.589170	0.001011	20.809386
895.245172	-2.968400	3.672500	-10.901000	24.560214	0.001010	20.815894
896.248197	-3.005100	3.670100	-11.028000	24.550013	0.001006	20.819410
897.247815	-3.003800	3.670900	-11.025000	24.515067	0.001008	20.806633
898.245068	-2.981500	3.670700	-10.943000	24.538395	0.001009	20.818184
899.245883	-3.003500	3.670400	-11.023000	24.588211	0.001008	20.831183
900.245991	-2.986500	3.670000	-10.960000	24.573463	0.001007	20.809748
901.246565	-3.007600	3.669000	-11.033000	24.614600	0.001008	20.819730
902.248214	-3.024800	3.668900	-11.096000	24.617680	0.001007	20.816656
903.253073	-3.021200	3.667500	-11.079000	24.668087	0.001005	20.819347
904.247370	-3.004800	3.668300	-11.020000	24.647891	0.001006	20.812831
905.247582	-2.991600	3.669000	-10.975000	24.670614	0.001007	20.836106
906.245903	-2.995500	3.668800	-10.989000	24.698223	0.001005	20.845793
907.250521	-2.998200	3.667600	-10.995000	24.682518	0.001005	20.845680
908.247034	-2.984600	3.668000	-10.946000	24.685980	0.001006	20.826395
909.250782	-3.022700	3.665300	-11.078000	24.669785	0.001005	20.825791
910.246644	-2.990600	3.667700	-10.968000	24.638899	0.001004	20.813766
911.248140	-3.015000	3.666700	-11.054000	24.606538	0.001004	20.841037
912.250588	-2.996800	3.666900	-10.989000	24.629024	0.001003	20.832306
913.247704	-3.013100	3.667700	-11.051000	24.640512	0.001004	20.829609
914.249058	-3.020800	3.665700	-11.072000	24.659130	0.001004	20.835962
915.248674	-3.003200	3.666500	-11.010000	24.644807	0.001003	20.832022
916.249385	-2.962300	3.666600	-10.860000	24.657460	0.001003	20.860838
917.249582	-2.997400	3.665200	-10.985000	24.647138	0.001002	20.837205
918.250391	-2.998300	3.665700	-10.990000	24.619356	0.001003	20.844890
919.249906	-2.999800	3.664900	-10.993000	24.613588	0.001002	20.845266
920.253433	-2.970100	3.665700	-10.886000	24.622745	0.001002	20.856824
921.249462	-2.978100	3.665400	-10.915000	24.610109	0.001002	20.844145
922.251034	-2.994400	3.664200	-10.971000	24.590506	0.001002	20.815469
923.257396	-2.993800	3.665000	-10.970000	24.608316	0.001000	20.830020
924.252394	-3.008100	3.662400	-11.015000	24.630501	0.001001	20.838055
925.251450	-3.004200	3.663200	-11.005000	24.667457	0.001000	20.838628
926.254553	-3.012500	3.662800	-11.032000	24.645931	0.000999	20.848796
927.253118	-3.017300	3.663500	-11.052000	24.629882	0.001001	20.840753
928.252468	-3.018800	3.661700	-11.052000	24.614165	0.000999	20.844897
929.254919	-3.001900	3.662900	-10.994000	24.608022	0.001000	20.845845
930.253632	-2.992000	3.662200	-10.956000	24.581283	0.000999	20.842723
931.256772	-2.983200	3.662200	-10.924000	24.594840	0.000997	20.843524
932.255651	-2.994900	3.661600	-10.965000	24.608365	0.000997	20.833862
933.254510	-3.010800	3.660200	-11.019000	24.641125	0.000997	20.834491
934.257951	-3.003200	3.659800	-10.990000	24.690292	0.000996	20.827877
935.255464	-3.026400	3.660100	-11.076000	24.712745	0.000997	20.844244
936.257367	-2.981300	3.661300	-10.914000	24.702055	0.000995	20.829251
937.254722	-3.018000	3.660100	-11.046000	24.695962	0.000994	20.844946
938.256598	-3.009600	3.659700	-11.013000	24.700711	0.000994	20.838333
939.256516	-2.983600	3.660600	-10.920000	24.714032	0.000992	20.840321
940.257042	-3.001600	3.660600	-10.986000	24.739180	0.000993	20.831892
941.256591	-2.997800	3.660000	-10.971000	24.740867	0.000993	20.845438
942.257999	-2.991800	3.659500	-10.947000	24.749207	0.000995	20.838161
943.257623	-2.999900	3.659000	-10.974000	24.746764	0.000992	20.821485
944.259306	-2.975900	3.658700	-10.888000	24.768400	0.000992	20.834663
945.259048	-2.969200	3.658400	-10.861000	24.763448	0.000991	20.835383
946.261262	-2.974100	3.658900	-10.880000	24.792220	0.000992	20.836282
947.259200	-3.012200	3.657300	-11.015000	24.761061	0.000992	20.821608
948.263767	-2.982300	3.657400	-10.906000	24.783863	0.000991	20.807032
949.265323	-3.015600	3.656500	-11.025000	24.809474	0.000992	20.826096
950.259286	-2.979200	3.658600	-10.899000	24.814965	0.000993	20.834452
951.259561	-2.998400	3.655300	-10.960000	24.822622	0.000991	20.835024
952.259373	-3.007400	3.656200	-10.995000	24.822524	0.000990	20.810271
953.259861	-3.007700	3.656800	-10.998000	24.805215	0.000991	20.827038
954.260445	-3.002500	3.656000	-10.976000	24.767221	0.000988	20.833479
955.263678	-2.997700	3.656500	-10.960000	24.726041	0.000989	20.816810
956.260455	-3.002300	3.655200	-10.973000	24.682955	0.000989	20.836162
957.260504	-3.002300	3.654600	-10.971000	24.663043	0.000988	20.816182
958.260981	-2.986600	3.654100	-10.913000	24.653659	0.000988	20.822412
959.261213	-2.999100	3.653700	-10.957000	24.675566	0.000988	20.823058
960.264337	-3.018100	3.653400	-11.026000	24.666490	0.000986	20.823434
961.261724	-3.016300	3.652300	-11.016000	24.663225	0.000987	20.813519
962.262367	-3.009600	3.652600	-10.991000	24.652014	0.000985	20.833563
963.261122	-2.994500	3.653500	-10.939000	24.646767	0.000986	20.823083
964.262187	-2.999600	3.653700	-10.958000	24.621876	0.000987	20.824186
965.264608	-2.992200	3.653300	-10.930000	24.635996	0.000987	20.802319
966.261754	-2.991300	3.652500	-10.925000	24.601207	0.000986	20.816722
967.261349	-2.999300	3.651600	-10.952000	24.623497	0.000987	20.815381
968.263111	-2.977600	3.652900	-10.876000	24.644534	0.000984	20.808514
969.264111	-2.987600	3.652100	-10.909000	24.692171	0.000984	20.792779
970.263613	-2.997900	3.652500	-10.948000	24.705758	0.000984	20.827276
971.266554	-2.996900	3.651200	-10.941000	24.697498	0.000982	20.824203
972.264608	-2.975300	3.652100	-10.864000	24.675591	0.000981	20.796056
973.264020	-2.992900	3.652100	-10.930000	24.711453	0.000982	20.824930
974.263609	-3.002500	3.652000	-10.964000	24.710606	0.000981	20.813175
975.264184	-3.014600	3.649800	-11.002000	24.727567	0.000982	20.803169
976.266438	-2.984100	3.650300	-10.892000	24.696553	0.000982	20.798599
977.266508	-2.989800	3.650100	-10.912000	24.724609	0.000981	20.796882
978.269660	-3.000400	3.649500	-10.949000	24.740471	0.000982	20.791936
979.266755	-2.992100	3.649400	-10.918000	24.760665	0.000980	20.806038
980.266292	-3.011400	3.648100	-10.985000	24.763899	0.000981	20.791266
981.268954	-2.985200	3.648800	-10.891000	24.810348	0.000981	20.788568
982.268660	-2.997200	3.649300	-10.937000	24.798715	0.000982	20.780687
983.266963	-3.009900	3.648000	-10.980000	24.794544	0.000979	20.806846
984.267273	-2.979200	3.648300	-10.868000	24.798894	0.000980	20.789401
985.267110	-2.992900	3.646600	-10.913000	24.772142	0.000977	20.802856
986.267369	-2.988800	3.646200	-10.897000	24.758807	0.000981	20.791845
987.269385	-2.975600	3.648200	-10.854000	24.740289	0.000978	20.797918
988.267773	-3.008400	3.646000	-10.968000	24.735435	0.000978	20.796366
989.271358	-3.013400	3.644700	-10.982000	24.730654	0.000978	20.794887
990.267498	-3.002900	3.645700	-10.946000	24.729317	0.000977	20.791174
991.279313	-2.999000	3.645800	-10.933000	24.801900	0.000977	20.806168
992.271316	-2.983100	3.646500	-10.876000	24.787660	0.000978	20.789506
993.268223	-3.007600	3.645200	-10.962000	24.798894	0.000974	20.770908
994.268603	-3.016900	3.644200	-10.993000	24.808049	0.000979	20.783890
995.268171	-3.024900	3.645000	-11.025000	24.819486	0.000976	20.774979
996.269083	-3.007800	3.643500	-10.959000	24.844582	0.000976	20.800640
997.268672	-3.001400	3.643700	-10.935000	24.849104	0.000975	20.790953
998.270445	-2.986000	3.644700	-10.882000	24.894342	0.000976	20.795105
999.270037	-2.982100	3.644400	-10.866000	24.884568	0.000976	20.769648
1000.269858	-2.978600	3.644700	-10.856000	24.901054	0.000974	20.777185
1001.270957	-3.010100	3.643100	-10.964000	24.909631	0.000972	20.800018
1002.271449	-3.009700	3.642400	-10.962000	24.888347	0.000975	20.778657
1003.273286	-3.001700	3.643100	-10.934000	24.917784	0.000973	20.781649
1004.270940	-3.004000	3.642600	-10.939000	24.888127	0.000972	20.788393
1005.273356	-2.984100	3.642300	-10.868000	24.901981	0.000973	20.800401
1006.277169	-3.009800	3.643300	-10.964000	24.912840	0.000971	20.765781
1007.272092	-2.986400	3.642500	-10.877000	24.900711	0.000972	20.784902
1008.274231	-2.993700	3.641600	-10.900000	24.908049	0.000969	20.785155
1009.272626	-3.002600	3.640100	-10.928000	24.917197	0.000970	20.790542
1010.273917	-3.006100	3.639600	-10.939000	24.934162	0.000970	20.779595
1011.274190	-2.992800	3.640300	-10.893000	24.922596	0.000969	20.779366
1012.274942	-2.998500	3.640500	-10.915000	24.923118	0.000971	20.784157
1013.276048	-3.010200	3.640800	-10.959000	24.899724	0.000971	20.780592
1014.275818	-3.004900	3.640500	-10.938000	24.865636	0.000969	20.780044
1015.276159	-3.000600	3.640400	-10.923000	24.864170	0.000970	20.767667
1016.277598	-2.992700	3.640500	-10.893000	24.860513	0.000967	20.773006
1017.276339	-2.993000	3.639100	-10.891000	24.841762	0.000967	20.769834
1018.276976	-2.986700	3.638400	-10.866000	24.857384	0.000969	20.794996
1019.277469	-2.979100	3.638000	-10.836000	24.875557	0.000966	20.788105
1020.275928	-3.005600	3.637500	-10.931000	24.890300	0.000967	20.762124
1021.278294	-2.992400	3.637500	-10.883000	24.923223	0.000967	20.771460
1022.277531	-2.995000	3.636700	-10.891000	24.948855	0.000966	20.770161
1023.277888	-2.978900	3.637700	-10.835000	24.915087	0.000964	20.755707
1024.280890	-3.017800	3.636100	-10.972000	24.933941	0.000965	20.781270
1025.285383	-3.020800	3.636600	-10.984000	24.924063	0.000965	20.769458
1026.284536	-3.004500	3.636400	-10.925000	24.905712	0.000964	20.762419
1027.280535	-3.018200	3.635500	-10.972000	24.874035	0.000963	20.771404
1028.279536	-3.004700	3.636400	-10.925000	24.892655	0.000962	20.780610
1029.281534	-3.020300	3.633600	-10.973000	24.845860	0.000962	20.759248
1030.284606	-2.964100	3.636200	-10.776000	24.809855	0.000962	20.765314
1031.281607	-2.959900	3.635700	-10.760000	24.829975	0.000962	20.759901
1032.282641	-2.977500	3.635800	-10.823000	24.799185	0.000962	20.765510
1033.282620	-2.985700	3.634600	-10.851000	24.814555	0.000962	20.759125
1034.283877	-2.980400	3.635900	-10.836000	24.835466	0.000960	20.766834
1035.295950	-2.988500	3.634800	-10.862000	24.869856	0.000961	20.761520
1036.285655	-3.011100	3.634400	-10.943000	24.861433	0.000959	20.768239
1037.287377	-2.993600	3.633300	-10.876000	24.879158	0.000960	20.760899
1038.285428	-3.011000	3.633700	-10.939000	24.915160	0.000959	20.748668
1039.286678	-3.002500	3.632200	-10.903000	24.921008	0.000957	20.761650
1040.290946	-2.990400	3.632700	-10.863000	24.896736	0.000960	20.760523
1041.287915	-2.976100	3.633700	-10.814000	24.855186	0.000957	20.768134
1042.287332	-3.005600	3.630800	-10.911000	24.859641	0.000958	20.742733
1043.287206	-3.016800	3.631700	-10.955000	24.859960	0.000959	20.762019
1044.287341	-2.980500	3.631800	-10.824000	24.822913	0.000956	20.745701
1045.287327	-3.002200	3.632400	-10.905000	24.826626	0.000956	20.741366
1046.289792	-2.993000	3.631900	-10.868000	24.843725	0.000957	20.759002
1047.288437	-3.005500	3.630400	-10.911000	24.837818	0.000956	20.746909
1048.288824	-2.992100	3.631200	-10.862000	24.876411	0.000953	20.738226
1049.290080	-3.009100	3.629600	-10.921000	24.871508	0.000955	20.752272
1050.289314	-3.012100	3.628200	-10.927000	24.873153	0.000953	20.758191
1051.293614	-3.006700	3.629300	-10.911000	24.846826	0.000954	20.741251
1052.289228	-2.987900	3.628900	-10.842000	24.852747	0.000955	20.752884
1053.291063	-2.983300	3.629800	-10.827000	24.834266	0.000954	20.755198
1054.288745	-3.006200	3.628500	-10.906000	24.853440	0.000952	20.770175
1055.289287	-2.990400	3.627800	-10.848000	24.861699	0.000952	20.760920
1056.290344	-2.995800	3.628500	-10.869000	24.863085	0.000953	20.759940
1057.288656	-3.016600	3.627500	-10.942000	24.883057	0.000950	20.757225
1058.288355	-3.004000	3.627000	-10.893000	24.893751	0.000953	20.745673
1059.288492	-2.995700	3.626300	-10.863000	24.903346	0.000953	20.750088
1060.288980	-2.988100	3.628300	-10.840000	24.948771	0.000949	20.721237
1061.289107	-2.973600	3.627200	-10.785000	24.950115	0.000948	20.741078
1062.291827	-3.001000	3.625300	-10.879000	24.936244	0.000950	20.733794
1063.290429	-2.996900	3.624800	-10.862000	24.934722	0.000949	20.754078
1064.291373	-2.974900	3.625800	-10.786000	24.897758	0.000948	20.754436
1065.291612	-3.015200	3.624200	-10.927000	24.875823	0.000948	20.747594
1066.290911	-3.027500	3.624200	-10.970000	24.841255	0.000948	20.738030
1067.293207	-3.022100	3.624900	-10.954000	24.855012	0.000947	20.748044
1068.291234	-3.012300	3.625200	-10.919000	24.886707	0.000946	20.757095
1069.297251	-2.994800	3.624500	-10.854000	24.909456	0.000946	20.745314
1070.291297	-3.026900	3.623000	-10.965000	24.916665	0.000947	20.734531
1071.291147	-3.000700	3.624100	-10.873000	24.934039	0.000944	20.731106
1072.292551	-3.007900	3.622700	-10.896000	24.886829	0.000943	20.758166
1073.293694	-3.015800	3.623600	-10.927000	24.880134	0.000944	20.717306
1074.292538	-2.995200	3.622700	-10.849000	24.884607	0.000944	20.751668
1075.292596	-3.024700	3.621400	-10.951000	24.914621	0.000945	20.732480
1076.292396	-2.994800	3.623700	-10.851000	24.924559	0.000942	20.754784
1077.293227	-3.000300	3.623300	-10.870000	24.945671	0.000943	20.739462
1078.297035	-2.990900	3.622900	-10.834000	24.955290	0.000944	20.728728
1079.292354	-2.995400	3.621500	-10.847000	24.979683	0.000944	20.724289
1080.296807	-3.024800	3.620300	-10.950000	24.977615	0.000942	20.730748
1081.293992	-2.988900	3.622400	-10.826000	24.954566	0.000943	20.751236
1082.294527	-2.982900	3.621700	-10.802000	24.932461	0.000941	20.739954
1083.294765	-2.982400	3.620700	-10.797000	24.949418	0.000941	20.742276
1084.295555	-2.996300	3.620300	-10.847000	24.926442	0.000939	20.736284
1085.295327	-2.973900	3.620700	-10.766000	24.937055	0.000942	20.757368
1086.295259	-3.015500	3.619800	-10.914000	24.951350	0.000939	20.734257
1087.296189	-3.006900	3.620000	-10.882000	24.945852	0.000940	20.736326
1088.295490	-2.969500	3.620200	-10.749000	24.976957	0.000936	20.716810
1089.298717	-2.984100	3.618200	-10.797000	24.952473	0.000938	20.729694
1090.296913	-3.025400	3.617700	-10.944000	24.952694	0.000938	20.727545
1091.296886	-3.026500	3.616600	-10.944000	24.943662	0.000937	20.727488
1092.297216	-3.004600	3.618300	-10.871000	24.946570	0.000940	20.733726
1093.296695	-2.986100	3.619000	-10.805000	24.886696	0.000940	20.718201
1094.300868	-2.987100	3.616800	-10.802000	24.876971	0.000935	20.744478
1095.298615	-3.010500	3.616800	-10.888000	24.882265	0.000937	20.734144
1096.299651	-3.023000	3.615700	-10.929000	24.904672	0.000937	20.731029
1097.298941	-3.007600	3.616400	-10.876000	24.926249	0.000936	20.724710
1098.297858	-3.016800	3.615600	-10.905000	24.929458	0.000935	20.738363
1099.300150	-2.998900	3.615500	-10.841000	24.956557	0.000936	20.724309
1100.301593	-2.990600	3.614400	-10.808000	24.965997	0.000934	20.719560
1101.298407	-3.009100	3.613500	-10.872000	24.976838	0.000934	20.735184
1102.298756	-2.970900	3.615200	-10.739000	24.952078	0.000933	20.709381
1103.299344	-2.973900	3.614100	-10.746000	24.935610	0.000930	20.715138
1104.299041	-3.006400	3.614600	-10.866000	24.942020	0.000932	20.732005
1105.302690	-2.984500	3.613300	-10.784000	24.948715	0.000931	20.719283
1106.299154	-2.993800	3.613300	-10.816000	24.916241	0.000932	20.723199
1107.299781	-2.987600	3.612900	-10.793000	24.942150	0.000931	20.734032
1108.298656	-2.992500	3.614000	-10.814000	24.967285	0.000929	20.710421
1109.299582	-3.018100	3.612100	-10.900000	24.962376	0.000930	20.726831
1110.301296	-2.994900	3.612500	-10.818000	24.938479	0.000931	20.723234
1111.300323	-2.983700	3.613100	-10.779000	24.935645	0.000930	20.721812
1112.301307	-2.994200	3.612300	-10.815000	24.927859	0.000928	20.697874
1113.302094	-3.025400	3.610900	-10.923000	24.935067	0.000930	20.733561
1114.302567	-3.013900	3.610200	-10.879000	24.959380	0.000927	20.718134
1115.302516	-2.999500	3.611000	-10.830000	24.993336	0.000926	20.709068
1116.305655	-3.019200	3.609900	-10.898000	25.012410	0.000927	20.700712
1117.304965	-2.980700	3.612000	-10.764000	24.985134	0.000927	20.728338
1118.305367	-2.978200	3.610400	-10.751000	25.014040	0.000926	20.744551
1119.305580	-2.986500	3.609800	-10.780000	25.044744	0.000925	20.720842
1120.305432	-3.007100	3.609000	-10.852000	25.042057	0.000926	20.708187
1121.308002	-2.989700	3.610400	-10.793000	25.039296	0.000923	20.707312
1122.307150	-2.989200	3.609800	-10.789000	25.052742	0.000924	20.706585
1123.307293	-3.006400	3.608400	-10.848000	25.052987	0.000924	20.703511
1124.305934	-2.997800	3.608600	-10.816000	25.042970	0.000922	20.718113
1125.306085	-2.995400	3.608400	-10.807000	25.036301	0.000922	20.708573
1126.308238	-2.993600	3.607900	-10.799000	25.030461	0.000924	20.735904
1127.309175	-2.981200	3.608400	-10.756000	25.036399	0.000925	20.730010
1128.307083	-3.017800	3.607500	-10.886000	25.040129	0.000923	20.703406
1129.307384	-3.007200	3.606800	-10.844000	25.035748	0.000922	20.726037
1130.307418	-2.997400	3.608000	-10.814000	25.036049	0.000923	20.720649
1131.307618	-3.010400	3.606600	-10.857000	25.029054	0.000922	20.707937
1132.310619	-3.006500	3.605000	-10.838000	25.040692	0.000919	20.706817
1133.308146	-2.992100	3.606300	-10.790000	25.025307	0.000920	20.701330
1134.309381	-2.990500	3.604400	-10.778000	25.028638	0.000916	20.711787
1135.308352	-2.967200	3.605900	-10.699000	25.016878	0.000917	20.703301
1136.308275	-2.999200	3.604500	-10.809000	25.058918	0.000916	20.708991
1137.311221	-2.979300	3.606200	-10.741000	25.056476	0.000916	20.712229
1138.307726	-3.002700	3.604600	-10.822000	25.052770	0.000918	20.701397
1139.308990	-2.980300	3.605800	-10.744000	25.066420	0.000915	20.691390
1140.309680	-3.034600	3.602400	-10.930000	25.048544	0.000916	20.698102
1141.309891	-2.998400	3.603700	-10.802000	25.071731	0.000917	20.706680
1142.309491	-2.999900	3.602000	-10.804000	25.059026	0.000915	20.723800
1143.312525	-3.009700	3.602200	-10.841000	25.086601	0.000915	20.702640
1144.309370	-3.000500	3.603400	-10.812000	25.089256	0.000915	20.705306
1145.308281	-3.013600	3.602100	-10.854000	25.085877	0.000916	20.697645
1146.309088	-3.004000	3.601100	-10.817000	25.092612	0.000913	20.711046
1147.309135	-2.988600	3.601000	-10.760000	25.111481	0.000915	20.708176
1148.313824	-2.994600	3.601000	-10.782000	25.120724	0.000914	20.689953
1149.309801	-2.991100	3.601200	-10.771000	25.145309	0.000913	20.713687
1150.308872	-3.020300	3.600200	-10.872000	25.148045	0.000912	20.676602
1151.309400	-2.972400	3.602000	-10.705000	25.164135	0.000912	20.707930
1152.309346	-2.992600	3.599200	-10.770000	25.155025	0.000910	20.700206
1153.310799	-2.983200	3.599800	-10.738000	25.125423	0.000910	20.719802
1154.310114	-2.982800	3.600300	-10.738000	25.118632	0.000911	20.705872
1155.311009	-3.014800	3.597400	-10.844000	25.109731	0.000910	20.711636
1156.313257	-2.981900	3.598200	-10.728000	25.083078	0.000910	20.698629
1157.313801	-2.997500	3.597800	-10.784000	25.072703	0.000910	20.702914
1158.314826	-3.028300	3.597400	-10.893000	25.099284	0.000910	20.722960
1159.316314	-2.978600	3.598300	-10.717000	25.121630	0.000908	20.696079
1160.315120	-2.993700	3.597800	-10.769000	25.133537	0.000907	20.701867
1161.322772	-3.011600	3.597400	-10.832000	25.146803	0.000907	20.707600
1162.320351	-2.989100	3.597600	-10.752000	25.165297	0.000909	20.708622
1163.315251	-3.005800	3.597300	-10.811000	25.150232	0.000905	20.704878
1164.320127	-3.004000	3.595100	-10.798000	25.163082	0.000906	20.713037
1165.317239	-2.978700	3.597200	-10.714000	25.146072	0.000906	20.697382
1166.317202	-2.997800	3.596200	-10.780000	25.179704	0.000904	20.700325
1167.316312	-3.004000	3.594800	-10.798000	25.132448	0.000904	20.707414
1168.319671	-3.008400	3.594600	-10.813000	25.116603	0.000903	20.694351
1169.321654	-2.983800	3.596800	-10.731000	25.131637	0.000903	20.718928
1170.317438	-2.978000	3.596300	-10.708000	25.124944	0.000902	20.698931
1171.317670	-2.993500	3.595500	-10.762000	25.122453	0.000901	20.708759
1172.318690	-3.015700	3.594400	-10.839000	25.088396	0.000904	20.702545
1173.319211	-3.028900	3.592200	-10.879000	25.085229	0.000900	20.713118
1174.320944	-2.978200	3.595300	-10.707000	25.082665	0.000900	20.724769
1175.319188	-2.991800	3.593800	-10.752000	25.087437	0.000898	20.713438
1176.323925	-3.010000	3.592600	-10.812000	25.117775	0.000900	20.719711
1177.318474	-3.010700	3.592700	-10.815000	25.080363	0.000900	20.725777
1178.319671	-3.001400	3.592200	-10.781000	25.055346	0.000899	20.693076
1179.324494	-2.990200	3.591500	-10.738000	25.065345	0.000900	20.695527
1180.320495	-2.989600	3.591800	-10.737000	25.054646	0.000896	20.715134
1181.320712	-3.007700	3.591500	-10.801000	25.080650	0.000897	20.714685
1182.319931	-2.993100	3.591800	-10.750000	25.084201	0.000896	20.707344
1183.319944	-2.970800	3.591600	-10.668000	25.115637	0.000895	20.707133
1184.321035	-3.000600	3.589300	-10.769000	25.110963	0.000896	20.722356
1185.325880	-2.977800	3.591200	-10.693000	25.122477	0.000895	20.721113
1186.322890	-2.984900	3.591200	-10.718000	25.087591	0.000896	20.714541
1187.323818	-3.006200	3.590000	-10.792000	25.079807	0.000895	20.723796
1188.322895	-3.002400	3.589700	-10.776000	25.074562	0.000894	20.716160
1189.323372	-2.983900	3.589200	-10.707000	25.060279	0.000896	20.724109
1190.327248	-2.997000	3.588500	-10.753000	25.035472	0.000894	20.705370
1191.323613	-3.013200	3.588600	-10.811000	25.021570	0.000894	20.723659
1192.325078	-3.010200	3.588000	-10.800000	25.006276	0.000891	20.734861
1193.322590	-3.024100	3.586000	-10.843000	24.968608	0.000892	20.729768
1194.322401	-3.015600	3.586300	-10.813000	24.957361	0.000891	20.718479
1195.324728	-3.004300	3.586900	-10.775000	24.950846	0.000891	20.720948
1196.325706	-2.994200	3.585700	-10.736000	24.934133	0.000891	20.745900
1197.324457	-3.018000	3.585500	-10.820000	24.927107	0.000890	20.724148
1198.324501	-2.970700	3.586900	-10.653000	24.957495	0.000890	20.726674
1199.324616	-2.991900	3.586100	-10.728000	24.972930	0.000889	20.729364
1200.324802	-3.013100	3.585200	-10.802000	24.984113	0.000890	20.721149
1201.326579	-3.015800	3.584300	-10.809000	25.007351	0.000887	20.722188
1202.327012	-3.021400	3.584000	-10.828000	25.068334	0.000887	20.712280
1203.334959	-2.993500	3.583800	-10.727000	25.095877	0.000888	20.731869
1204.325727	-3.008600	3.584800	-10.784000	25.052838	0.000887	20.708578
1205.327658	-3.013000	3.583200	-10.795000	25.043489	0.000887	20.713418
1206.333823	-2.973400	3.584900	-10.658000	25.039710	0.000886	20.721953
1207.327024	-3.012000	3.580800	-10.784000	25.058475	0.000884	20.711865
1208.327814	-3.017700	3.582500	-10.810000	25.081914	0.000883	20.722593
1209.328128	-3.000600	3.582900	-10.749000	25.094090	0.000884	20.725807
1210.328761	-2.967700	3.583800	-10.635000	25.106843	0.000886	20.741929
1211.329197	-3.001500	3.582200	-10.751000	25.137121	0.000883	20.741030
1212.331192	-2.997000	3.582900	-10.737000	25.154995	0.000882	20.706815
1213.329322	-2.992000	3.582300	-10.717000	25.152847	0.000883	20.744015
1214.330256	-2.977000	3.582600	-10.664000	25.139297	0.000881	20.725670
1215.329255	-2.980200	3.581200	-10.672000	25.128133	0.000882	20.751922
1216.329812	-3.008900	3.580000	-10.770000	25.108995	0.000879	20.734131
1217.333592	-2.999800	3.579600	-10.737000	25.086046	0.000882	20.731957
1218.332180	-3.014700	3.579700	-10.789000	25.085249	0.000880	20.734001
1219.333539	-2.974100	3.581500	-10.651000	25.093474	0.000879	20.732776
1220.331785	-3.020000	3.578000	-10.805000	25.063839	0.000878	20.740485
1221.332332	-2.987700	3.579500	-10.693000	25.110650	0.000879	20.741483
1222.334480	-3.005700	3.579300	-10.757000	25.100951	0.000878	20.734117
1223.331348	-2.995000	3.577900	-10.713000	25.142663	0.000879	20.740429
1224.332174	-3.003800	3.578700	-10.747000	25.152778	0.000877	20.748687
1225.332891	-2.994500	3.577500	-10.712000	25.170725	0.000877	20.742997
1226.333072	-2.984200	3.578800	-10.677000	25.179902	0.000876	20.750313
1227.331411	-2.976100	3.578400	-10.648000	25.185489	0.000875	20.738378
1228.334527	-3.007700	3.577100	-10.758000	25.216709	0.000874	20.741272
1229.333306	-3.001400	3.576800	-10.734000	25.222597	0.000873	20.741968
1230.332411	-3.012700	3.575700	-10.771000	25.260900	0.000876	20.744862
1231.334930	-2.996000	3.576200	-10.714000	25.254785	0.000874	20.745835
1232.334098	-3.017800	3.575100	-10.788000	25.227516	0.000874	20.723672
1233.333779	-3.010300	3.573800	-10.757000	25.199301	0.000873	20.738020
1234.334694	-3.005200	3.574500	-10.742000	25.170302	0.000872	20.760591
1235.338832	-2.988100	3.574600	-10.680000	25.180759	0.000870	20.736475
1236.335091	-2.992000	3.574100	-10.693000	25.147176	0.000871	20.745909
1237.335904	-3.008600	3.573700	-10.751000	25.146214	0.000870	20.762013
1238.339143	-2.994200	3.572100	-10.694000	25.135522	0.000871	20.750805
1239.336280	-3.014200	3.572700	-10.768000	25.171890	0.000869	20.745115
1240.337245	-2.982600	3.574100	-10.659000	25.166866	0.000868	20.741020
1241.338966	-2.999300	3.572000	-10.713000	25.176264	0.000869	20.751876
1242.338941	-2.993300	3.572300	-10.692000	25.187550	0.000868	20.753724
1243.342074	-3.017600	3.571100	-10.776000	25.223174	0.000868	20.754402
1244.339672	-3.024300	3.571800	-10.800000	25.225928	0.000867	20.757640
1245.340228	-2.994500	3.571700	-10.695000	25.259466	0.000866	20.750060
1246.339738	-3.011100	3.571300	-10.753000	25.294217	0.000865	20.741803
1247.338221	-3.006200	3.569600	-10.730000	25.301528	0.000864	20.752937
1248.340932	-2.987600	3.572100	-10.671000	25.271482	0.000866	20.736994
1249.339458	-2.979600	3.570900	-10.640000	25.263741	0.000863	20.761939
1250.339675	-2.980800	3.570900	-10.643000	25.245329	0.000865	20.761472
1251.340516	-3.014600	3.568400	-10.756000	25.233774	0.000866	20.760302
1252.341421	-3.018300	3.567000	-10.765000	25.243465	0.000865	20.736365
1253.339318	-3.011500	3.567800	-10.743000	25.227739	0.000863	20.745708
1254.341858	-3.011200	3.568200	-10.744000	25.222341	0.000865	20.747875
1255.342704	-3.007300	3.568300	-10.729000	25.205671	0.000860	20.754847
1256.345273	-3.021500	3.568200	-10.779000	25.221495	0.000861	20.736594
1257.342283	-2.996700	3.568200	-10.691000	25.216950	0.000860	20.750524
1258.345939	-3.021900	3.566700	-10.777000	25.218147	0.000861	20.746983
1259.345574	-2.984800	3.569000	-10.651000	25.253910	0.000861	20.771036
1260.341748	-3.005700	3.567100	-10.721000	25.245067	0.000860	20.768795
1261.344979	-3.001300	3.566800	-10.704000	25.249446	0.000858	20.749010
1262.342964	-3.005600	3.565800	-10.716000	25.271366	0.000859	20.764854
1263.343737	-2.972200	3.566000	-10.597000	25.272262	0.000859	20.752002
1264.346091	-3.033600	3.564100	-10.811000	25.284247	0.000857	20.749336
1265.345913	-3.012400	3.564900	-10.738000	25.198807	0.000855	20.755543
1266.345155	-2.993000	3.565500	-10.670000	25.221624	0.000858	20.758061
1267.345787	-3.007900	3.564900	-10.721000	25.230727	0.000857	20.765304
1268.347121	-2.980400	3.563800	-10.620000	25.214400	0.000856	20.759817
1269.346454	-2.989800	3.564900	-10.657000	25.237535	0.000855	20.787312
1270.348490	-3.056600	3.562600	-10.888000	25.221159	0.000856	20.769448
1271.348011	-2.998400	3.563500	-10.684000	25.228642	0.000854	20.759417
1272.352650	-3.004200	3.562900	-10.701000	25.261645	0.000854	20.747981
1273.349184	-2.990900	3.565100	-10.662000	25.260774	0.000854	20.760857
1274.348255	-3.005600	3.562100	-10.705000	25.263705	0.000855	20.776603
1275.352468	-3.019400	3.562300	-10.755000	25.268551	0.000852	20.785735
1276.348458	-2.995800	3.562700	-10.671000	25.305876	0.000854	20.764890
1277.349681	-2.992200	3.561300	-10.655000	25.343109	0.000851	20.756281
1278.349420	-2.990700	3.561300	-10.650000	25.343410	0.000851	20.752789
1279.350656	-2.982100	3.562900	-10.624000	25.365948	0.000852	20.774945
1280.350718	-3.007100	3.560500	-10.704000	25.373650	0.000851	20.781731
1281.354357	-3.002500	3.560700	-10.690000	25.389289	0.000851	20.777046
1282.350063	-2.988100	3.561500	-10.641000	25.379390	0.000849	20.778960
1283.350472	-3.008300	3.559900	-10.708000	25.386658	0.000848	20.755912
1284.349941	-3.007900	3.560100	-10.707000	25.385448	0.000846	20.777931
1285.351160	-2.985700	3.560200	-10.629000	25.409580	0.000846	20.775135
1286.353215	-3.005700	3.559900	-10.698000	25.397303	0.000847	20.771816
1287.352663	-2.996300	3.557500	-10.659000	25.410580	0.000846	20.769501
1288.353532	-2.995700	3.558200	-10.659000	25.379292	0.000845	20.765585
1289.351218	-2.991800	3.557600	-10.643000	25.375759	0.000846	20.770573
1290.355994	-2.985600	3.559100	-10.625000	25.386662	0.000844	20.777727
1291.355264	-3.002700	3.558200	-10.683000	25.394567	0.000846	20.783768
1292.352984	-2.969800	3.559200	-10.569000	25.418625	0.000844	20.773787
1293.351874	-3.005000	3.557800	-10.690000	25.436488	0.000847	20.768016
1294.354184	-3.008900	3.556200	-10.699000	25.436813	0.000841	20.785886
1295.351775	-2.984000	3.556400	-10.611000	25.442308	0.000842	20.790930
1296.352687	-3.000200	3.554900	-10.664000	25.417681	0.000842	20.788011
1297.353662	-2.994800	3.555100	-10.646000	25.414375	0.000841	20.781373
1298.355184	-3.007800	3.554900	-10.692000	25.401944	0.000842	20.796392
1299.356062	-3.005200	3.554000	-10.679000	25.372244	0.000842	20.801657
1300.354940	-3.004200	3.554600	-10.678000	25.381069	0.000841	20.793923
1301.355009	-2.990100	3.554200	-10.627000	25.371870	0.000839	20.797013
1302.355631	-2.986700	3.555000	-10.616000	25.396547	0.000839	20.793343
1303.356306	-3.014600	3.553600	-10.711000	25.389506	0.000840	20.782954
1304.357131	-3.008900	3.551900	-10.686000	25.393309	0.000837	20.771125
1305.357716	-3.018200	3.553000	-10.723000	25.410658	0.000839	20.809882
1306.358888	-3.003200	3.551800	-10.666000	25.400220	0.000837	20.774746
1307.357992	-3.008400	3.551900	-10.685000	25.391444	0.000837	20.799599
1308.358011	-3.028900	3.551300	-10.755000	25.391486	0.000834	20.772614
1309.358493	-3.027100	3.550700	-10.746000	25.357984	0.000836	20.802036
1310.358117	-3.025700	3.549900	-10.740000	25.334495	0.000834	20.800263
1311.357938	-3.004900	3.550800	-10.669000	25.338168	0.000833	20.799209
1312.359163	-3.007600	3.550800	-10.677000	25.318757	0.000833	20.786832
1313.360269	-2.974900	3.551700	-10.565000	25.296922	0.000835	20.814695
1314.358772	-2.995500	3.549700	-10.633000	25.287337	0.000833	20.798907
1315.360602	-2.997600	3.550200	-10.641000	25.326152	0.000834	20.803740
1316.360099	-2.963600	3.550700	-10.522000	25.349358	0.000832	20.781048
1317.361200	-2.974900	3.548700	-10.556000	25.362580	0.000832	20.798591
1318.363422	-3.018000	3.548300	-10.708000	25.355165	0.000832	20.811060
1319.361638	-3.001900	3.548400	-10.651000	25.400774	0.000831	20.814656
1320.362600	-2.999500	3.549600	-10.645000	25.384754	0.000828	20.792407
1321.362539	-2.995000	3.547900	-10.624000	25.340869	0.000830	20.796706
1322.362141	-2.996100	3.547700	-10.627000	25.337906	0.000829	20.810326
1323.366518	-2.992400	3.548500	-10.618000	25.338942	0.000827	20.797616
1324.361809	-3.001300	3.547100	-10.644000	25.366153	0.000828	20.815929
1325.361564	-3.008800	3.548100	-10.674000	25.389371	0.000827	20.807949
1326.363190	-3.002800	3.547200	-10.651000	25.396350	0.000829	20.818275
1327.364264	-3.012000	3.546600	-10.681000	25.429820	0.000829	20.794511
1328.366793	-3.020600	3.545300	-10.707000	25.414514	0.000826	20.817074
1329.365119	-2.988600	3.546500	-10.598000	25.411030	0.000825	20.803619
1330.365011	-3.010800	3.544700	-10.672000	25.446549	0.000825	20.831698
1331.363472	-3.013900	3.544600	-10.682000	25.444629	0.000823	20.819813
1332.371297	-2.999000	3.544700	-10.630000	25.442146	0.000824	20.819216
1333.363981	-2.988500	3.546000	-10.596000	25.418155	0.000823	20.833058
1334.365699	-3.014700	3.543400	-10.681000	25.390278	0.000820	20.820238
1335.367046	-3.011700	3.542400	-10.668000	25.370739	0.000823	20.809154
1336.367071	-2.975100	3.544300	-10.544000	25.371015	0.000821	20.820337
1337.366109	-3.014500	3.543100	-10.679000	25.386329	0.000822	20.814376
1338.366867	-2.994700	3.542200	-10.606000	25.395668	0.000821	20.838926
1339.370029	-2.999800	3.542600	-10.626000	25.401041	0.000820	20.825355
1340.367902	-2.995100	3.542500	-10.610000	25.334066	0.000821	20.819272
1341.368505	-3.001900	3.542500	-10.631000	25.322431	0.000820	20.840307
1342.369697	-2.993400	3.541800	-10.600000	25.333618	0.000820	20.819771
1343.370051	-3.017800	3.541100	-10.686000	25.337469	0.000817	20.837388
1344.374291	-2.999700	3.540100	-10.619000	25.350601	0.000818	20.813115
1345.371143	-3.006000	3.539500	-10.637000	25.382656	0.000818	20.840559
1346.372648	-3.023500	3.539000	-10.699000	25.351115	0.000817	20.835442
1347.370654	-3.009000	3.539900	-10.650000	25.354795	0.000816	20.826809
1348.371914	-2.999500	3.539300	-10.615000	25.355624	0.000816	20.839969
1349.373940	-3.002500	3.538300	-10.623000	25.395584	0.000816	20.825092
1350.372922	-2.984300	3.539100	-10.561000	25.386335	0.000814	20.817702
1351.371470	-3.005000	3.539100	-10.634000	25.416556	0.000816	20.839039
1352.370378	-2.994000	3.539000	-10.595000	25.432611	0.000814	20.826711
1353.371779	-2.979900	3.538700	-10.543000	25.410044	0.000814	20.812585
1354.370455	-3.031300	3.537100	-10.721000	25.407609	0.000814	20.831003
1355.376188	-3.016800	3.536900	-10.668000	25.426620	0.000813	20.845824
1356.371080	-2.997000	3.537700	-10.602000	25.422094	0.000811	20.847443
1357.377411	-2.987400	3.536300	-10.563000	25.425227	0.000813	20.831624
1358.372533	-2.992200	3.536900	-10.581000	25.428949	0.000812	20.851482
1359.372699	-3.023100	3.535200	-10.685000	25.462670	0.000812	20.845515
1360.376323	-2.997800	3.535200	-10.597000	25.484341	0.000811	20.842621
1361.374378	-2.979600	3.537100	-10.538000	25.515374	0.000810	20.843440
1362.374603	-3.008800	3.534700	-10.635000	25.519274	0.000811	20.838347
1363.374248	-3.029400	3.533700	-10.704000	25.534285	0.000809	20.843938
1364.373960	-3.020000	3.533800	-10.670000	25.528570	0.000808	20.848631
1365.377250	-3.020400	3.534300	-10.673000	25.548547	0.000811	20.844985
1366.375963	-3.034400	3.532100	-10.716000	25.546089	0.000807	20.854843
1367.375373	-2.996200	3.533100	-10.585000	25.541084	0.000808	20.845077
1368.376125	-2.991500	3.533600	-10.570000	25.528539	0.000806	20.849547
1369.377122	-2.997400	3.533500	-10.590000	25.492176	0.000806	20.840532
1370.378135	-2.976700	3.533500	-10.516000	25.461216	0.000804	20.845003
1371.382743	-3.006000	3.532000	-10.617000	25.454409	0.000805	20.859030
1372.377482	-3.000600	3.532100	-10.596000	25.463080	0.000805	20.840237
1373.377547	-3.011100	3.531300	-10.631000	25.454679	0.000804	20.852189
1374.378184	-3.026300	3.530900	-10.684000	25.435595	0.000804	20.831604
1375.377960	-2.996800	3.530700	-10.580000	25.451821	0.000803	20.862595
1376.379132	-3.019300	3.530000	-10.657000	25.449429	0.000803	20.856874
1377.381004	-3.003600	3.529100	-10.598000	25.454066	0.000801	20.852048
1378.379070	-2.997300	3.530800	-10.580000	25.483610	0.000803	20.864172
1379.380054	-3.005600	3.529300	-10.606000	25.448351	0.000801	20.834930
1380.379601	-3.002000	3.530200	-10.597000	25.456175	0.000802	20.834252
1381.378298	-3.001600	3.528600	-10.590000	25.439453	0.000801	20.853495
1382.379925	-3.003300	3.528500	-10.597000	25.449645	0.000802	20.844290
1383.378736	-2.991900	3.529600	-10.560000	25.439061	0.000800	20.854050
1384.384546	-3.000200	3.528900	-10.586000	25.474769	0.000798	20.860508
1385.380029	-3.009900	3.528600	-10.620000	25.480343	0.000801	20.868477
1386.379417	-3.006500	3.527500	-10.604000	25.501493	0.000799	20.849413
1387.380822	-2.997900	3.526700	-10.572000	25.511433	0.000799	20.845645
1388.381206	-3.002900	3.527000	-10.591000	25.548806	0.000798	20.858520
1389.382194	-2.988200	3.526100	-10.535000	25.561431	0.000797	20.852234
1390.381831	-3.011200	3.525300	-10.614000	25.562854	0.000794	20.856982
1391.382757	-2.991400	3.526300	-10.547000	25.569170	0.000797	20.842937
1392.386612	-2.982700	3.526400	-10.518000	25.576668	0.000797	20.849993
1393.385951	-2.992100	3.524900	-10.546000	25.609178	0.000795	20.831909
1394.386729	-2.977700	3.525600	-10.497000	25.600551	0.000795	20.828460
1395.384490	-2.989300	3.524800	-10.534000	25.606223	0.000795	20.826570
1396.384683	-2.996200	3.524900	-10.560000	25.602862	0.000794	20.836945
1397.387113	-2.997000	3.524400	-10.562000	25.582617	0.000794	20.836053
1398.386662	-2.991900	3.524000	-10.542000	25.584064	0.000794	20.841300
1399.386491	-3.000000	3.522600	-10.567000	25.523900	0.000792	20.850579
1400.387965	-3.000500	3.523900	-10.572000	25.495791	0.000790	20.837525
1401.387113	-3.005300	3.523400	-10.589000	25.486729	0.000793	20.836485
1402.387481	-3.013000	3.521600	-10.608000	25.483270	0.000791	20.826373
1403.387938	-2.996600	3.522200	-10.553000	25.463072	0.000790	20.820315
1404.387464	-3.009300	3.521400	-10.596000	25.451886	0.000790	20.831842
1405.389711	-2.986100	3.520800	-10.512000	25.467216	0.000791	20.820684
1406.390461	-3.006300	3.520700	-10.583000	25.468210	0.000792	20.829267
1407.390709	-3.022000	3.518900	-10.632000	25.471466	0.000789	20.844391
1408.396382	-3.005500	3.519400	-10.576000	25.487838	0.000788	20.820529
1409.390135	-3.011900	3.518800	-10.597000	25.529168	0.000790	20.827894
1410.390691	-3.007200	3.519800	-10.583000	25.525243	0.000787	20.819212
1411.389907	-2.993900	3.519000	-10.535000	25.554810	0.000788	20.800067
1412.391138	-2.960700	3.519600	-10.418000	25.539628	0.000787	20.826071
1413.391377	-2.974800	3.518600	-10.466000	25.548875	0.000787	20.818288
1414.395396	-3.013900	3.518000	-10.602000	25.525243	0.000788	20.816367
1415.390679	-2.980800	3.518500	-10.487000	25.486642	0.000787	20.831182
1416.391627	-2.987900	3.518300	-10.511000	25.446801	0.000785	20.816778
1417.392176	-3.002200	3.519000	-10.563000	25.482417	0.000784	20.800387
1418.392407	-3.023100	3.516000	-10.628000	25.476800	0.000782	20.801859
1419.395956	-2.977200	3.516700	-10.467000	25.499716	0.000782	20.810172
1420.395683	-2.984500	3.517400	-10.496000	25.521540	0.000783	20.809329
1421.393903	-2.988100	3.516000	-10.504000	25.499439	0.000783	20.806101
1422.393478	-3.001400	3.515600	-10.550000	25.483484	0.000781	20.816157
1423.393922	-2.996700	3.516000	-10.536000	25.479210	0.000780	20.792899
1424.395882	-2.998600	3.514000	-10.536000	25.444716	0.000779	20.807573
1425.395435	-2.992300	3.515600	-10.518000	25.479234	0.000780	20.804303
1426.395010	-3.025500	3.513200	-10.627000	25.490622	0.000779	20.802937
1427.395546	-2.975700	3.513200	-10.453000	25.530815	0.000779	20.805842
1428.396065	-2.984700	3.512400	-10.482000	25.485642	0.000778	20.791771
1429.395158	-2.998000	3.513100	-10.530000	25.455147	0.000780	20.798606
1430.397688	-2.989700	3.511900	-10.498000	25.453104	0.000779	20.813151
1431.395020	-2.999900	3.512900	-10.538000	25.457997	0.000776	20.782977
1432.397113	-3.012600	3.512000	-10.579000	25.492172	0.000774	20.813976
1433.397071	-2.991800	3.511000	-10.503000	25.505858	0.000776	20.817288
1434.396330	-2.996000	3.512500	-10.522000	25.491718	0.000774	20.813520
1435.400667	-3.010000	3.510400	-10.565000	25.499548	0.000775	20.807159
1436.397513	-3.004000	3.510600	-10.545000	25.489626	0.000774	20.801936
1437.400861	-2.996200	3.510300	-10.517000	25.493110	0.000774	20.803064
1438.399339	-3.007100	3.508700	-10.549000	25.507967	0.000773	20.795225
1439.399911	-2.989100	3.509500	-10.489000	25.488014	0.000773	20.790360
1440.401770	-3.016600	3.508200	-10.581000	25.491956	0.000774	20.796689
1441.402201	-3.001000	3.509500	-10.531000	25.486297	0.000770	20.807602
1442.399974	-3.008700	3.508900	-10.556000	25.523996	0.000771	20.793777
1443.400838	-3.003300	3.508800	-10.536000	25.542102	0.000772	20.777347
1444.400515	-3.008600	3.508100	-10.553000	25.550583	0.000770	20.817633
1445.404734	-3.013900	3.507900	-10.571000	25.524860	0.000769	20.783265
1446.403767	-2.998800	3.507000	-10.516000	25.502595	0.000770	20.792675
1447.402899	-3.006400	3.507500	-10.543000	25.477490	0.000771	20.810612
1448.408306	-2.999600	3.507700	-10.521000	25.477987	0.000770	20.799257
1449.403899	-3.001400	3.505900	-10.521000	25.519212	0.000770	20.810310
1450.403986	-2.981300	3.506100	-10.451000	25.528900	0.000769	20.796331
1451.406863	-3.012800	3.505200	-10.558000	25.563041	0.000767	20.779409
1452.403142	-3.014500	3.504500	-10.564000	25.580436	0.000768	20.773171
1453.404438	-2.987700	3.505300	-10.472000	25.590707	0.000767	20.790599
1454.404778	-3.010700	3.503800	-10.547000	25.586605	0.000767	20.786005
1455.405937	-3.013500	3.504000	-10.556000	25.542788	0.000764	20.786097
1456.405109	-3.008600	3.503300	-10.539000	25.499797	0.000764	20.787020
1457.409723	-2.980000	3.503900	-10.440000	25.457400	0.000763	20.781903
1458.407846	-3.001300	3.502800	-10.511000	25.431129	0.000764	20.781127
1459.407913	-2.996800	3.502300	-10.495000	25.399247	0.000764	20.788468
1460.407458	-3.008200	3.502700	-10.535000	25.378470	0.000764	20.769975
1461.407165	-2.997800	3.501500	-10.495000	25.407275	0.000764	20.798425
1462.409428	-2.991000	3.502900	-10.477000	25.428548	0.000763	20.799398
1463.406807	-3.004900	3.500000	-10.516000	25.429370	0.000762	20.798326
1464.410444	-3.029700	3.500500	-10.604000	25.480211	0.000762	20.802439
1465.408138	-3.003600	3.500500	-10.513000	25.469799	0.000759	20.795777
1466.408216	-3.000100	3.501100	-10.501000	25.518586	0.000758	20.770326
1467.411563	-3.011000	3.499200	-10.534000	25.532009	0.000761	20.799928
1468.410203	-3.007600	3.499600	-10.524000	25.536755	0.000760	20.779090
1469.410321	-2.986800	3.500000	-10.453000	25.543120	0.000760	20.767464
1470.411186	-2.985200	3.498200	-10.442000	25.548460	0.000759	20.779465
1471.410798	-2.987100	3.499100	-10.451000	25.531960	0.000756	20.798456
1472.411803	-3.006500	3.498400	-10.516000	25.522646	0.000757	20.767766
1473.414340	-2.994700	3.498000	-10.474000	25.505397	0.000756	20.783634
1474.411332	-3.010300	3.497400	-10.527000	25.483383	0.000756	20.783339
1475.415879	-2.996700	3.498300	-10.483000	25.461044	0.000756	20.768967
1476.410704	-2.978200	3.498000	-10.417000	25.466931	0.000755	20.772507
1477.410887	-3.001400	3.497700	-10.497000	25.465073	0.000754	20.761159
1478.414238	-3.015700	3.495700	-10.541000	25.494201	0.000755	20.772391
1479.412434	-2.995300	3.494900	-10.468000	25.511597	0.000755	20.775162
1480.412746	-3.033600	3.496200	-10.605000	25.532225	0.000753	20.766480
1481.412762	-2.999400	3.496500	-10.486000	25.547340	0.000753	20.773599
1482.415382	-3.005600	3.494800	-10.503000	25.548383	0.000752	20.772749
1483.412974	-3.018100	3.492900	-10.541000	25.568390	0.000752	20.758229
1484.415895	-3.033800	3.493400	-10.598000	25.564988	0.000750	20.764769
1485.413660	-2.987800	3.494800	-10.440000	25.559689	0.000752	20.775569
1486.414330	-2.980400	3.494500	-10.414000	25.532882	0.000751	20.763821
1487.415481	-2.995500	3.492600	-10.461000	25.518154	0.000751	20.767522
1488.415635	-3.005900	3.493900	-10.502000	25.514653	0.000751	20.774912
1489.417333	-2.987100	3.493000	-10.433000	25.526929	0.000750	20.754049
1490.415591	-2.992900	3.493000	-10.454000	25.536176	0.000748	20.767603
1491.417244	-3.001600	3.490800	-10.477000	25.545871	0.000747	20.776391
1492.415844	-3.002600	3.490900	-10.480000	25.555646	0.000747	20.750645
1493.416556	-3.001800	3.490400	-10.476000	25.574727	0.000748	20.752738
1494.416728	-3.019500	3.490100	-10.536000	25.584960	0.000745	20.773447
1495.417440	-3.038700	3.488000	-10.598000	25.603435	0.000746	20.768769
1496.416270	-3.012000	3.488500	-10.505000	25.565022	0.000747	20.756268
1497.416382	-2.994200	3.489200	-10.447000	25.596189	0.000747	20.747266
1498.417515	-3.007700	3.487400	-10.489000	25.608096	0.000745	20.757329
1499.418970	-3.003800	3.489800	-10.482000	25.582903	0.000743	20.761424
1500.420698	-2.989400	3.489800	-10.431000	25.597318	0.000745	20.749822
1501.421472	-3.015300	3.488300	-10.517000	25.587833	0.000744	20.755470
1502.420408	-3.018700	3.486600	-10.524000	25.596006	0.000743	20.745660
1503.421282	-2.990100	3.487500	-10.427000	25.550885	0.000741	20.752028
1504.423256	-2.988800	3.488600	-10.425000	25.506485	0.000741	20.764813
1505.422956	-3.002300	3.486200	-10.465000	25.531712	0.000741	20.767861
1506.420787	-2.973700	3.486900	-10.368000	25.522944	0.000742	20.743882
1507.421533	-2.994400	3.486300	-10.438000	25.529928	0.000741	20.762751
1508.420999	-2.992900	3.487100	-10.435000	25.564279	0.000738	20.737978
1509.422038	-2.990100	3.485400	-10.420000	25.554462	0.000739	20.767949
1510.426012	-3.004600	3.484700	-10.469000	25.566112	0.000737	20.740767
1511.424694	-2.984100	3.486100	-10.402000	25.578841	0.000739	20.758293
1512.426162	-3.003100	3.483900	-10.461000	25.571987	0.000737	20.744771
1513.425805	-2.977200	3.484300	-10.372000	25.548233	0.000737	20.740356
1514.424707	-3.003100	3.482400	-10.457000	25.549681	0.000738	20.751293
1515.425454	-2.981800	3.484200	-10.388000	25.584968	0.000737	20.742161
1516.425479	-2.986600	3.481600	-10.398000	25.583650	0.000736	20.740837
1517.425207	-3.000900	3.482200	-10.448000	25.585472	0.000737	20.762107
1518.425902	-3.005600	3.480900	-10.461000	25.572228	0.000738	20.759712
1519.426379	-3.003000	3.481000	-10.452000	25.570941	0.000737	20.741349
1520.427039	-3.015400	3.481900	-10.498000	25.571714	0.000734	20.742125
1521.427518	-3.017900	3.482000	-10.506000	25.561806	0.000735	20.739287
1522.428998	-2.997200	3.480200	-10.429000	25.552713	0.000734	20.742958
1523.427486	-3.011600	3.479900	-10.479000	25.529210	0.000735	20.725518
1524.428871	-3.017500	3.479000	-10.497000	25.503217	0.000733	20.730710
1525.428753	-2.988500	3.480800	-10.400000	25.477322	0.000731	20.740741
1526.429976	-2.995900	3.479500	-10.423000	25.482106	0.000732	20.733217
1527.427400	-3.007600	3.478000	-10.460000	25.484915	0.000732	20.750737
1528.430272	-3.001100	3.476800	-10.434000	25.504550	0.000731	20.742954
1529.429744	-2.984200	3.478100	-10.377000	25.534302	0.000729	20.734426
1530.429352	-2.999400	3.478600	-10.432000	25.543776	0.000729	20.734931
1531.431289	-2.980600	3.478400	-10.366000	25.568548	0.000729	20.733256
1532.431520	-2.979200	3.476200	-10.356000	25.511597	0.000729	20.720632
1533.432041	-2.989900	3.475900	-10.392000	25.453405	0.000729	20.716248
1534.429650	-2.994600	3.476500	-10.410000	25.416004	0.000728	20.741282
1535.428415	-2.991100	3.476200	-10.396000	25.449131	0.000727	20.736614
1536.430691	-2.992300	3.475500	-10.396000	25.469294	0.000727	20.715135
1537.429907	-3.001400	3.473600	-10.425000	25.469847	0.000726	20.719483
1538.430909	-3.013800	3.473400	-10.465000	25.506928	0.000725	20.713572
1539.430367	-2.994700	3.473400	-10.399000	25.526139	0.000724	20.713898
1540.431058	-3.003100	3.473500	-10.430000	25.513894	0.000725	20.711559
1541.430315	-3.000700	3.474100	-10.424000	25.499184	0.000725	20.740410
1542.432571	-3.004500	3.473300	-10.434000	25.530157	0.000725	20.721727
1543.430962	-3.015200	3.472200	-10.468000	25.543279	0.000725	20.733009
1544.432451	-2.995200	3.473600	-10.402000	25.490528	0.000724	20.721759
1545.431955	-3.007600	3.471800	-10.441000	25.450774	0.000722	20.724039
1546.431914	-2.992500	3.473200	-10.392000	25.463376	0.000722	20.713933
1547.433784	-3.026800	3.470800	-10.505000	25.421561	0.000721	20.717937
1548.431480	-3.007600	3.470300	-10.437000	25.387556	0.000721	20.716034
1549.436462	-3.020500	3.468900	-10.475000	25.417882	0.000722	20.698594
1550.433340	-2.996600	3.470700	-10.398000	25.385884	0.000722	20.720045
1551.434060	-3.011900	3.469300	-10.447000	25.441977	0.000718	20.729904
1552.435075	-2.983100	3.470500	-10.351000	25.434527	0.000718	20.717207
1553.438685	-2.988600	3.470200	-10.370000	25.443285	0.000719	20.721260
1554.435784	-2.986100	3.469000	-10.358000	25.437318	0.000720	20.730442
1555.434476	-3.010500	3.466800	-10.435000	25.416297	0.000721	20.711702
1556.440648	-3.011300	3.468600	-10.445000	25.407381	0.000720	20.704646
1557.439995	-2.999600	3.468000	-10.402000	25.445408	0.000716	20.720073
1558.437496	-2.983900	3.469400	-10.350000	25.475309	0.000720	20.712640
1559.436907	-3.019000	3.467600	-10.468000	25.509452	0.000716	20.704252
1560.437348	-2.992200	3.467400	-10.374000	25.520147	0.000715	20.695552
1561.436834	-3.008700	3.465600	-10.426000	25.524771	0.000716	20.719637
1562.437348	-3.005800	3.465100	-10.414000	25.500481	0.000715	20.696665
1563.439122	-3.015900	3.466200	-10.453000	25.509288	0.000715	20.694603
1564.437533	-3.010500	3.465100	-10.430000	25.479248	0.000714	20.726553
1565.436520	-2.985600	3.464800	-10.343000	25.456185	0.000714	20.710979
1566.437787	-3.001800	3.464900	-10.400000	25.425346	0.000713	20.698977
1567.439143	-2.970900	3.465700	-10.294000	25.418238	0.000715	20.696581
1568.441038	-2.976900	3.464900	-10.314000	25.429798	0.000712	20.700603
1569.439251	-2.996600	3.463400	-10.377000	25.433967	0.000711	20.710480
1570.440661	-3.008800	3.462200	-10.415000	25.460962	0.000712	20.708664
1571.438469	-2.986700	3.465700	-10.349000	25.453642	0.000712	20.693251
1572.439106	-3.017500	3.461800	-10.445000	25.416412	0.000710	20.712293
1573.440329	-2.994500	3.461500	-10.364000	25.446136	0.000711	20.720803
1574.441121	-2.987100	3.462200	-10.341000	25.466415	0.000712	20.681421
1575.439260	-2.979300	3.462500	-10.315000	25.474596	0.000712	20.698172
1576.439531	-3.001800	3.461500	-10.389000	25.518570	0.000710	20.679742
1577.440324	-2.994300	3.460700	-10.362000	25.533053	0.000711	20.674845
1578.440435	-2.991600	3.460100	-10.351000	25.559045	0.000709	20.700476
1579.442002	-3.028000	3.459600	-10.475000	25.574331	0.000708	20.707768
1580.441314	-3.015400	3.458000	-10.427000	25.589520	0.000709	20.702633
1581.442943	-2.998800	3.459100	-10.372000	25.576968	0.000706	20.688604
1582.441339	-3.018200	3.459200	-10.440000	25.545171	0.000706	20.701242
1583.440763	-3.010700	3.459700	-10.415000	25.533539	0.000707	20.688137
1584.444060	-3.018500	3.458700	-10.439000	25.543454	0.000708	20.687188
1585.441582	-3.005300	3.457600	-10.391000	25.561941	0.000704	20.682046
1586.441668	-2.994500	3.458500	-10.354000	25.543136	0.000708	20.671694
1587.442458	-3.016800	3.456100	-10.425000	25.567946	0.000705	20.684284
1588.442797	-3.017400	3.455500	-10.424000	25.559276	0.000703	20.686008
1589.441967	-3.003000	3.456200	-10.378000	25.607132	0.000705	20.693293
1590.445428	-2.998400	3.455100	-10.358000	25.632258	0.000702	20.697667
1591.443304	-2.997600	3.454900	-10.355000	25.628359	0.000703	20.681421
1592.443682	-2.999200	3.455700	-10.363000	25.622523	0.000702	20.703062
1593.444495	-2.998600	3.455000	-10.360000	25.649911	0.000702	20.701172
1594.444077	-2.984100	3.454900	-10.309000	25.669561	0.000703	20.695777
1595.449201	-2.986200	3.456400	-10.320000	25.657391	0.000699	20.685450
1596.446434	-2.982700	3.455600	-10.306000	25.666190	0.000699	20.679587
1597.448542	-3.006700	3.452900	-10.381000	25.665798	0.000698	20.676349
1598.446828	-3.011200	3.452900	-10.397000	25.673645	0.000701	20.673324
1599.447510	-3.018700	3.452000	-10.419000	25.705673	0.000699	20.689374
1600.448422	-3.002100	3.451800	-10.362000	25.688962	0.000699	20.697719
1601.449120	-3.008300	3.450800	-10.380000	25.669110	0.000700	20.682995
1602.447876	-3.014000	3.451400	-10.401000	25.666431	0.000699	20.682201
1603.448424	-3.027600	3.451400	-10.449000	25.668246	0.000697	20.662685
1604.450167	-2.995100	3.450900	-10.336000	25.670582	0.000697	20.704390
1605.450249	-2.992000	3.451300	-10.325000	25.717618	0.000697	20.689043
1606.451324	-2.984000	3.450800	-10.296000	25.693242	0.000697	20.676886
1607.450367	-3.006200	3.449800	-10.369000	25.680835	0.000697	20.681969
1608.453312	-3.010800	3.449100	-10.383000	25.685199	0.000696	20.671178
1609.449948	-2.975400	3.450600	-10.266000	25.641694	0.000696	20.682011
1610.450069	-2.992200	3.448700	-10.318000	25.648083	0.000694	20.675151
1611.454019	-2.996100	3.449400	-10.333000	25.628531	0.000694	20.689181
1612.449971	-2.969000	3.449500	-10.241000	25.637427	0.000695	20.678200
1613.451016	-3.015300	3.446500	-10.391000	25.659151	0.000695	20.682475
1614.451829	-2.989100	3.447900	-10.306000	25.650873	0.000694	20.677480
1615.451632	-3.011500	3.446800	-10.379000	25.645754	0.000692	20.698893
1616.450618	-2.974300	3.448400	-10.256000	25.643327	0.000692	20.685549
1617.456597	-3.028200	3.445800	-10.433000	25.662732	0.000691	20.703617
1618.451344	-2.991700	3.446500	-10.310000	25.618606	0.000693	20.676841
1619.453065	-3.000500	3.446500	-10.339000	25.612616	0.000693	20.675566
1620.451649	-3.011200	3.444200	-10.370000	25.618281	0.000692	20.691215
1621.454815	-2.976700	3.445500	-10.254000	25.623401	0.000691	20.689718
1622.451846	-2.995100	3.444600	-10.316000	25.590629	0.000691	20.687625
1623.452915	-3.003500	3.444500	-10.345000	25.561658	0.000690	20.673701
1624.452589	-3.010600	3.442900	-10.365000	25.523586	0.000690	20.678141
1625.451788	-2.994800	3.443800	-10.313000	25.515983	0.000689	20.685205
1626.454394	-2.991600	3.444000	-10.302000	25.514290	0.000687	20.683030
1627.454175	-2.988300	3.442100	-10.285000	25.507711	0.000688	20.684959
1628.454482	-2.993100	3.444200	-10.308000	25.500059	0.000691	20.696241
1629.452782	-2.994600	3.443000	-10.309000	25.502622	0.000686	20.686487
1630.452547	-3.007200	3.441500	-10.349000	25.491413	0.000686	20.690877
1631.459397	-3.010900	3.441700	-10.362000	25.470263	0.000686	20.676276
1632.455599	-3.006200	3.440500	-10.342000	25.485967	0.000686	20.691573
1633.455571	-3.017600	3.439400	-10.377000	25.486121	0.000688	20.673708
1634.456485	-2.992300	3.440800	-10.294000	25.535754	0.000685	20.696526
1635.455331	-3.012300	3.439400	-10.359000	25.550813	0.000684	20.668973
1636.454399	-2.992600	3.439700	-10.293000	25.568933	0.000685	20.697130
1637.460124	-2.985400	3.439500	-10.267000	25.565229	0.000683	20.690091
1638.455180	-2.990800	3.440400	-10.288000	25.561980	0.000683	20.696786
1639.455773	-3.008600	3.438200	-10.344000	25.531983	0.000683	20.717871
1640.455181	-2.986100	3.438700	-10.267000	25.485670	0.000683	20.690800
1641.457848	-3.011000	3.437700	-10.350000	25.453244	0.000683	20.700439
1642.456287	-2.996200	3.437500	-10.298000	25.433706	0.000682	20.680344
1643.457248	-3.005500	3.436200	-10.326000	25.432566	0.000681	20.698166
1644.455786	-3.015100	3.436300	-10.360000	25.444972	0.000681	20.702090
1645.456214	-2.987500	3.437700	-10.269000	25.478214	0.000682	20.698012
1646.457036	-2.984300	3.435700	-10.252000	25.495446	0.000680	20.685444
1647.456405	-2.999900	3.435000	-10.303000	25.497782	0.000679	20.696800
1648.456678	-2.992700	3.436700	-10.284000	25.529392	0.000680	20.701043
1649.456050	-3.022300	3.433000	-10.373000	25.560781	0.000679	20.670923
1650.455522	-2.999100	3.436300	-10.305000	25.570118	0.000678	20.699269
1651.456405	-2.980400	3.434900	-10.236000	25.545819	0.000676	20.698574
1652.457684	-2.990000	3.435400	-10.270000	25.549229	0.000677	20.686350
1653.457879	-2.999200	3.433100	-10.296000	25.566845	0.000678	20.705940
1654.460134	-3.021700	3.432400	-10.371000	25.580145	0.000675	20.699382
1655.458564	-3.001400	3.432800	-10.303000	25.617810	0.000674	20.677938
1656.458384	-3.004500	3.432600	-10.311000	25.642488	0.000676	20.692294
1657.461091	-3.019300	3.430600	-10.358000	25.667240	0.000675	20.689178
1658.458178	-2.975900	3.432300	-10.213000	25.645923	0.000675	20.682466
1659.460504	-2.992400	3.433300	-10.271000	25.605825	0.000673	20.696723
1660.457954	-2.997500	3.431000	-10.284000	25.594169	0.000673	20.703984
1661.458559	-2.978900	3.431400	-10.221000	25.588878	0.000675	20.697247
1662.460032	-2.985600	3.430600	-10.242000	25.614526	0.000671	20.695504
1663.460295	-2.987200	3.430800	-10.248000	25.637764	0.000672	20.693239
1664.459176	-2.974600	3.431300	-10.206000	25.667580	0.000671	20.710384
1665.458023	-2.978800	3.430100	-10.217000	25.675042	0.000671	20.697963
1666.456867	-3.002200	3.429300	-10.295000	25.715438	0.000672	20.712459
1667.459439	-3.010600	3.429300	-10.324000	25.753706	0.000670	20.696369
1668.463430	-2.991400	3.428500	-10.255000	25.774525	0.000669	20.717282
1669.459960	-2.998400	3.428200	-10.279000	25.736516	0.000669	20.709924
1670.462245	-2.980100	3.427900	-10.214000	25.700321	0.000669	20.698224
1671.461009	-3.015500	3.427400	-10.334000	25.689691	0.000667	20.709832
1672.461878	-3.006600	3.426700	-10.301000	25.648050	0.000669	20.711157
1673.465381	-3.010600	3.425700	-10.312000	25.603297	0.000669	20.715049
1674.462320	-2.984900	3.427300	-10.229000	25.617125	0.000667	20.691476
1675.462539	-3.006800	3.425400	-10.299000	25.639786	0.000666	20.705228
1676.462080	-2.999500	3.425200	-10.273000	25.646501	0.000666	20.712446
1677.462487	-2.987500	3.424400	-10.229000	25.600364	0.000665	20.716844
1678.464287	-2.968200	3.425200	-10.166000	25.593786	0.000666	20.683682
1679.462865	-3.014100	3.424800	-10.322000	25.622634	0.000666	20.712183
1680.464519	-2.985800	3.423700	-10.221000	25.623064	0.000667	20.709770
1681.463209	-3.007100	3.425000	-10.299000	25.630691	0.000666	20.712689
1682.470666	-2.984400	3.424100	-10.218000	25.638658	0.000666	20.718794
1683.465692	-3.003100	3.422800	-10.277000	25.659227	0.000664	20.729496
1684.465868	-3.015600	3.422400	-10.318000	25.661489	0.000665	20.715173
1685.464628	-3.007300	3.422200	-10.290000	25.668130	0.000663	20.708092
1686.464237	-3.000300	3.422100	-10.266000	25.676366	0.000664	20.710199
1687.468747	-2.976500	3.422500	-10.186000	25.713562	0.000661	20.699669
1688.464746	-2.982400	3.421900	-10.205000	25.707799	0.000663	20.685819
1689.467353	-3.002500	3.421600	-10.272000	25.728392	0.000663	20.700340
1690.465018	-3.006300	3.420800	-10.283000	25.704201	0.000664	20.702595
1691.470456	-3.004100	3.420300	-10.274000	25.702736	0.000662	20.709659
1692.468226	-3.003100	3.420300	-10.271000	25.701995	0.000659	20.717449
1693.469229	-2.980500	3.419900	-10.191000	25.709629	0.000661	20.715159
1694.471716	-2.996000	3.419100	-10.243000	25.682923	0.000658	20.729589
1695.473685	-3.000800	3.419200	-10.259000	25.685934	0.000658	20.722181
1696.470005	-3.010800	3.417700	-10.289000	25.728567	0.000659	20.714742
1697.470171	-2.983800	3.419100	-10.201000	25.741963	0.000659	20.697850
1698.469163	-3.008100	3.418800	-10.284000	25.782094	0.000658	20.718722
1699.469846	-2.975500	3.419200	-10.172000	25.782143	0.000657	20.728254
1700.473408	-2.987700	3.418500	-10.212000	25.784137	0.000656	20.721721
1701.470312	-2.997400	3.416100	-10.238000	25.754838	0.000657	20.714103
1702.470178	-3.005300	3.415200	-10.262000	25.769633	0.000653	20.713316
1703.470506	-2.990500	3.416300	-10.214000	25.791298	0.000655	20.726070
1704.470148	-2.961700	3.417000	-10.119000	25.771699	0.000656	20.721082
1705.473059	-2.997800	3.416700	-10.242000	25.749692	0.000655	20.717942
1706.470403	-2.997200	3.414700	-10.234000	25.717413	0.000654	20.707331
1707.470440	-3.005400	3.414100	-10.259000	25.674560	0.000652	20.735413
1708.469957	-3.000000	3.415700	-10.244000	25.626088	0.000653	20.718972
1709.470664	-3.012800	3.413300	-10.284000	25.593040	0.000652	20.723239
1710.475987	-3.001800	3.414200	-10.248000	25.603703	0.000652	20.738217
1711.471674	-2.977000	3.415000	-10.166000	25.620325	0.000651	20.713657
1712.471358	-3.028200	3.412200	-10.331000	25.643678	0.000651	20.740433
1713.473025	-2.999900	3.413000	-10.237000	25.626413	0.000652	20.726411
1714.472221	-3.008800	3.413500	-10.268000	25.606113	0.000651	20.719299
1715.470689	-3.013400	3.412100	-10.281000	25.628302	0.000650	20.750120
1716.472571	-2.996600	3.412100	-10.225000	25.641472	0.000649	20.737268
1717.473001	-2.996500	3.412300	-10.224000	25.653729	0.000649	20.731087
1718.475026	-2.974600	3.412000	-10.150000	25.707490	0.000648	20.707795
1719.475369	-2.979800	3.411700	-10.165000	25.731621	0.000649	20.724448
1720.475636	-2.992600	3.410200	-10.203000	25.750105	0.000647	20.743963
1721.479823	-3.002500	3.409500	-10.235000	25.740916	0.000648	20.761286
1722.475533	-3.007700	3.410200	-10.255000	25.748224	0.000648	20.754876
1723.477036	-2.979400	3.409000	-10.155000	25.738083	0.000647	20.744690
1724.475158	-3.010400	3.408500	-10.260000	25.767693	0.000645	20.730335
1725.475072	-2.992200	3.408500	-10.199000	25.756493	0.000644	20.762235
1726.478359	-2.988400	3.409500	-10.188000	25.802159	0.000645	20.735084
1727.475101	-2.988800	3.409000	-10.188000	25.825638	0.000643	20.742074
1728.479444	-3.004900	3.408200	-10.240000	25.808995	0.000643	20.742425
1729.476049	-3.033400	3.407600	-10.335000	25.838707	0.000642	20.740030
1730.475550	-3.035100	3.405100	-10.334000	25.850825	0.000645	20.737030
1731.479651	-2.994500	3.406000	-10.198000	25.880537	0.000643	20.751230
1732.475543	-3.021300	3.407100	-10.293000	25.878143	0.000642	20.746928
1733.477686	-3.015400	3.404800	-10.266000	25.887778	0.000641	20.734796
1734.477222	-2.969600	3.406800	-10.116000	25.887477	0.000643	20.750142
1735.477358	-3.002000	3.405600	-10.223000	25.903924	0.000641	20.735843
1736.478399	-3.000000	3.404600	-10.213000	25.884345	0.000642	20.724708
1737.477930	-3.008600	3.404700	-10.242000	25.887998	0.000640	20.753510
1738.480349	-3.002500	3.404600	-10.221000	25.894117	0.000639	20.746855
1739.479730	-2.998700	3.402900	-10.204000	25.838047	0.000641	20.745056
1740.479280	-3.010800	3.403100	-10.245000	25.838690	0.000639	20.748073
1741.479616	-3.019600	3.402200	-10.272000	25.827687	0.000641	20.747452
1742.481910	-3.007700	3.403200	-10.235000	25.840805	0.000637	20.757311
1743.479988	-2.957700	3.404400	-10.068000	25.873129	0.000637	20.741417
1744.478127	-2.996300	3.402300	-10.193000	25.838893	0.000637	20.759183
1745.479426	-2.995800	3.401900	-10.191000	25.833505	0.000637	20.739545
1746.478366	-2.975000	3.402100	-10.120000	25.815862	0.000637	20.765920
1747.482264	-2.991300	3.401000	-10.171000	25.797558	0.000638	20.749903
1748.480347	-2.992500	3.401900	-10.179000	25.782135	0.000636	20.764283
1749.481976	-2.965300	3.401500	-10.085000	25.765117	0.000635	20.751930
1750.480953	-2.995300	3.400000	-10.183000	25.761333	0.000633	20.747181
1751.479751	-3.012900	3.398700	-10.239000	25.756295	0.000632	20.760613
1752.482059	-3.007700	3.400300	-10.226000	25.736615	0.000635	20.762183
1753.482984	-3.021500	3.398600	-10.268000	25.738584	0.000633	20.750409
1754.480980	-3.010200	3.399200	-10.232000	25.751655	0.000633	20.759271
1755.482734	-3.010400	3.398900	-10.231000	25.767778	0.000633	20.740852
1756.484578	-2.996700	3.397700	-10.179000	25.802107	0.000630	20.766327
1757.482892	-2.993800	3.398100	-10.172000	25.813436	0.000630	20.767750
1758.485270	-2.990200	3.398100	-10.160000	25.789785	0.000630	20.774813
1759.482515	-2.990500	3.397300	-10.159000	25.799373	0.000628	20.752675
1760.488172	-2.988500	3.399100	-10.157000	25.803677	0.000628	20.756525
1761.483764	-2.984100	3.397300	-10.136000	25.803149	0.000628	20.755994
1762.482776	-3.011500	3.395600	-10.225000	25.768893	0.000629	20.768052
1763.487198	-3.006900	3.395200	-10.207000	25.728143	0.000629	20.766949
1764.482701	-3.013200	3.394800	-10.228000	25.672568	0.000625	20.768502
1765.484967	-3.026200	3.395100	-10.272000	25.659472	0.000630	20.794229
1766.483354	-3.004300	3.396300	-10.201000	25.702561	0.000629	20.768280
1767.485638	-3.011300	3.394900	-10.221000	25.708788	0.000627	20.779751
1768.488278	-2.978800	3.394400	-10.110000	25.691549	0.000627	20.778083
1769.491131	-3.002500	3.393600	-10.188000	25.658412	0.000626	20.760448
1770.489963	-2.990100	3.394400	-10.147000	25.663403	0.000627	20.782530
1771.487670	-3.007600	3.393100	-10.204000	25.696130	0.000626	20.765141
1772.489805	-2.981100	3.394200	-10.118000	25.712946	0.000623	20.765910
1773.489804	-2.970400	3.393200	-10.078000	25.729965	0.000625	20.778737
1774.490623	-2.994600	3.392900	-10.160000	25.752281	0.000624	20.788350
1775.489749	-3.004900	3.392000	-10.192000	25.752085	0.000624	20.770135
1776.493935	-3.012300	3.391500	-10.215000	25.762527	0.000624	20.778727
1777.492444	-2.994400	3.390800	-10.152000	25.778097	0.000624	20.795315
1778.493308	-3.009000	3.390000	-10.200000	25.787041	0.000624	20.780591
1779.490651	-3.008200	3.390500	-10.199000	25.798629	0.000620	20.797921
1780.488291	-3.002000	3.391000	-10.178000	25.813440	0.000620	20.770125
1781.488975	-3.010200	3.390500	-10.205000	25.811325	0.000621	20.795976
1782.488918	-3.005100	3.389000	-10.183000	25.781660	0.000620	20.791782
1783.488408	-3.002900	3.390100	-10.179000	25.781594	0.000619	20.780810
1784.489621	-3.022600	3.387600	-10.239000	25.796349	0.000619	20.780933
1785.491876	-3.013200	3.388000	-10.207000	25.823132	0.000620	20.786026
1786.489925	-3.008800	3.387700	-10.193000	25.860844	0.000617	20.781709
1787.492068	-3.002300	3.387100	-10.167000	25.868795	0.000617	20.798231
1788.489763	-2.988900	3.388100	-10.126000	25.875753	0.000616	20.779142
1789.490151	-2.999900	3.387700	-10.161000	25.873889	0.000617	20.805245
1790.492857	-2.997200	3.386800	-10.150000	25.843461	0.000617	20.795066
1791.489750	-2.998300	3.387100	-10.154000	25.852559	0.000618	20.799464
1792.492709	-2.978100	3.388600	-10.091000	25.817101	0.000615	20.788976
1793.490066	-2.994300	3.386500	-10.139000	25.795420	0.000615	20.796120
1794.489741	-3.003200	3.385900	-10.167000	25.788616	0.000615	20.787389
1795.492198	-3.004500	3.384800	-10.169000	25.789910	0.000614	20.789163
1796.491302	-3.009000	3.385400	-10.185000	25.809500	0.000613	20.784185
1797.494445	-3.000500	3.387100	-10.161000	25.830780	0.000614	20.786595
1798.491085	-3.017200	3.385300	-10.213000	25.830601	0.000613	20.795425
1799.492883	-3.027700	3.383100	-10.242000	25.817661	0.000613	20.804712
1800.494498	-3.036600	3.382400	-10.270000	25.796948	0.000612	20.796707
1801.495052	-2.997300	3.383900	-10.141000	25.792399	0.000611	20.789293
1802.493719	-3.009900	3.384400	-10.186000	25.801302	0.000612	20.814357
1803.492811	-3.012700	3.382200	-10.188000	25.798316	0.000608	20.807564
1804.492409	-3.032100	3.382100	-10.253000	25.815788	0.000611	20.812313
1805.491703	-2.986700	3.384700	-10.108000	25.816365	0.000610	20.802935
1806.494960	-3.011300	3.383400	-10.188000	25.846794	0.000609	20.802682
1807.493475	-3.014400	3.381400	-10.192000	25.846077	0.000609	20.801014
1808.498444	-2.975000	3.383600	-10.065000	25.882502	0.000609	20.787344
1809.495151	-3.003500	3.380900	-10.154000	25.910650	0.000608	20.792388
1810.493706	-3.004500	3.380400	-10.156000	25.936738	0.000607	20.813855
1811.497030	-2.997700	3.381600	-10.135000	25.953404	0.000606	20.810684
1812.495865	-3.009400	3.381700	-10.175000	25.967986	0.000606	20.804945
1813.494742	-3.004600	3.380400	-10.156000	25.946535	0.000606	20.815162
1814.497082	-2.979000	3.379900	-10.068000	25.981313	0.000607	20.820704
1815.496147	-2.952000	3.380500	-9.978100	25.958187	0.000606	20.813118
1816.497525	-3.004100	3.377500	-10.146000	25.936875	0.000606	20.820631
1817.500278	-2.980200	3.379100	-10.069000	25.868868	0.000604	20.806839
1818.498070	-3.012000	3.378400	-10.175000	25.879049	0.000603	20.835558
1819.496279	-2.985500	3.378300	-10.085000	25.870683	0.000605	20.826679
1820.498294	-2.989200	3.377600	-10.096000	25.873294	0.000602	20.809389
1821.497849	-2.983200	3.377000	-10.073000	25.853796	0.000604	20.816828
1822.500655	-2.999600	3.376400	-10.127000	25.834989	0.000604	20.813582
1823.499001	-2.999400	3.376400	-10.127000	25.812933	0.000599	20.826989
1824.499650	-2.993200	3.377700	-10.109000	25.838178	0.000603	20.808251
1825.498133	-3.017900	3.375700	-10.186000	25.864984	0.000602	20.829015
1826.497492	-3.004200	3.376100	-10.142000	25.889438	0.000601	20.826554
1827.501674	-3.010800	3.374800	-10.159000	25.908146	0.000600	20.816425
1828.501616	-2.962100	3.375400	-9.998000	25.904394	0.000600	20.821665
1829.499859	-2.991100	3.374600	-10.092000	25.919400	0.000600	20.825360
1830.501411	-2.993700	3.373700	-10.099000	25.931402	0.000599	20.833624
1831.501510	-2.992500	3.375900	-10.101000	25.929563	0.000600	20.810440
1832.502055	-3.003200	3.373700	-10.130000	25.917918	0.000598	20.826242
1833.503131	-2.993600	3.373700	-10.098000	25.937195	0.000598	20.828539
1834.502616	-2.997500	3.373400	-10.111000	25.926543	0.000596	20.834432
1835.507192	-2.992400	3.373200	-10.093000	25.956448	0.000596	20.833182
1836.502755	-2.992200	3.373200	-10.092000	25.933280	0.000598	20.832192
1837.504232	-2.975200	3.372700	-10.033000	25.937577	0.000598	20.841250
1838.508519	-3.000100	3.372800	-10.118000	25.951516	0.000597	20.829649
1839.504778	-2.992400	3.372000	-10.088000	25.953460	0.000596	20.860050
1840.505720	-3.000500	3.371900	-10.117000	25.981281	0.000595	20.822095
1841.503344	-2.991900	3.371300	-10.086000	25.981907	0.000594	20.830310
1842.504491	-2.989500	3.372200	-10.080000	25.979547	0.000593	20.828413
1843.504945	-2.999100	3.369900	-10.105000	25.961270	0.000592	20.830914
1844.508608	-2.993000	3.371600	-10.090000	25.975803	0.000594	20.837454
1845.507274	-2.992000	3.369700	-10.081000	25.996813	0.000592	20.845760
1846.506092	-2.995400	3.370500	-10.095000	25.993713	0.000594	20.848335
1847.507463	-2.987300	3.368900	-10.063000	25.986291	0.000591	20.844672
1848.507864	-3.008800	3.368700	-10.135000	25.997552	0.000589	20.825166
1849.512091	-2.995600	3.369200	-10.092000	25.974101	0.000591	20.828632
1850.509911	-3.014500	3.366800	-10.148000	25.919581	0.000591	20.837395
1851.511030	-2.985400	3.368300	-10.054000	25.935652	0.000589	20.821299
1852.509350	-2.997700	3.367200	-10.093000	25.938866	0.000589	20.828320
1853.513680	-3.013800	3.368300	-10.151000	25.960625	0.000589	20.826473
1854.511763	-2.990800	3.366400	-10.067000	25.964978	0.000587	20.819466
1855.508708	-3.025500	3.366800	-10.185000	25.971854	0.000587	20.815469
1856.509647	-2.983500	3.367500	-10.046000	25.965034	0.000586	20.812885
1857.511104	-2.986900	3.367600	-10.057000	25.989999	0.000588	20.820896
1858.509851	-2.995200	3.365800	-10.080000	25.979119	0.000587	20.812811
1859.508721	-2.993300	3.365900	-10.074000	26.023213	0.000586	20.818705
1860.511659	-2.988300	3.365900	-10.058000	26.024440	0.000587	20.823257
1861.510344	-3.016300	3.364500	-10.147000	26.025881	0.000586	20.821385
1862.509758	-3.021900	3.363200	-10.162000	26.065749	0.000584	20.803596
1863.509624	-3.006200	3.364500	-10.114000	26.071510	0.000584	20.828824
1864.510575	-2.983300	3.364600	-10.036000	26.080232	0.000582	20.825733
1865.514724	-3.003000	3.363600	-10.100000	26.070997	0.000585	20.823093
1866.514101	-2.999200	3.362800	-10.085000	26.097675	0.000582	20.809121
1867.513661	-3.009400	3.362700	-10.119000	26.076146	0.000583	20.812620
1868.513544	-3.006900	3.361900	-10.108000	26.067155	0.000582	20.834880
1869.518697	-3.004200	3.362600	-10.101000	26.041777	0.000580	20.826451
1870.515403	-3.017000	3.361400	-10.140000	26.018499	0.000579	20.814443
1871.516793	-3.004300	3.361900	-10.099000	26.011671	0.000582	20.806635
1872.516678	-2.989000	3.363300	-10.053000	26.006967	0.000579	20.802857
1873.515899	-3.007600	3.361000	-10.108000	26.005282	0.000580	20.807328
1874.516493	-2.975600	3.362100	-10.004000	26.006356	0.000580	20.816467
1875.521448	-2.992200	3.360500	-10.055000	25.988634	0.000579	20.789654
1876.517118	-3.007000	3.360000	-10.102000	26.000839	0.000580	20.799071
1877.518101	-2.987400	3.359600	-10.036000	26.006356	0.000577	20.802717
1878.518738	-2.989900	3.358700	-10.041000	26.001790	0.000576	20.809510
1879.518731	-3.005000	3.358500	-10.092000	25.993100	0.000575	20.796985
1880.522821	-2.980900	3.359900	-10.015000	25.987307	0.000575	20.808709
1881.518334	-3.026600	3.359000	-10.165000	25.991936	0.000574	20.800558
1882.521059	-3.028000	3.356700	-10.162000	26.010733	0.000574	20.783407
1883.518412	-3.016200	3.356900	-10.123000	26.020749	0.000576	20.801056
1884.519123	-3.004200	3.357000	-10.084000	26.067207	0.000573	20.800794
1885.522322	-3.022800	3.356300	-10.145000	26.061919	0.000574	20.788367
1886.519411	-3.002600	3.357000	-10.079000	25.999673	0.000573	20.798848
1887.521348	-3.010100	3.357100	-10.104000	25.973838	0.000573	20.794229
1888.518261	-3.005700	3.357300	-10.089000	25.971958	0.000569	20.778115
1889.519558	-3.015600	3.356900	-10.121000	25.980355	0.000571	20.778491
1890.521349	-3.020500	3.355200	-10.133000	25.987564	0.000568	20.785260
1891.522390	-3.029900	3.354800	-10.164000	26.000282	0.000571	20.793770
1892.519993	-3.020200	3.353300	-10.127000	25.980037	0.000571	20.802354
1893.519899	-2.998400	3.354300	-10.056000	25.975968	0.000571	20.780248
1894.520378	-2.997000	3.354800	-10.053000	25.973210	0.000570	20.794546
1895.521282	-3.020400	3.354400	-10.131000	26.033643	0.000568	20.801209
1896.524734	-3.001800	3.354100	-10.066000	26.030127	0.000568	20.785348
1897.522347	-3.010600	3.353500	-10.095000	26.026522	0.000569	20.780779
1898.523200	-3.002800	3.353300	-10.068000	26.013455	0.000569	20.813168
1899.522817	-2.994400	3.352800	-10.039000	25.984845	0.000566	20.773045
1900.522820	-3.016600	3.353100	-10.114000	25.972176	0.000565	20.800145
1901.522030	-3.006700	3.352600	-10.079000	25.997416	0.000565	20.788046
1902.524596	-3.001400	3.351900	-10.058000	26.004187	0.000566	20.772089
1903.522003	-2.992600	3.352500	-10.031000	25.998028	0.000564	20.771590
1904.522902	-2.994200	3.352700	-10.037000	26.017164	0.000564	20.787498
1905.525825	-3.006300	3.351700	-10.076000	26.033227	0.000564	20.776135
1906.527256	-3.002500	3.352300	-10.064000	26.042600	0.000564	20.780811
1907.525388	-3.003500	3.351900	-10.066000	26.072550	0.000560	20.775342
1908.526661	-2.990000	3.350700	-10.018000	26.032266	0.000561	20.778015
1909.527503	-3.019000	3.349500	-10.111000	26.007100	0.000563	20.792085
1910.524253	-2.990500	3.350000	-10.017000	26.021957	0.000562	20.779985
1911.528245	-2.986800	3.350100	-10.004000	26.046179	0.000561	20.789149
1912.524904	-2.992400	3.348800	-10.020000	26.060361	0.000560	20.804346
1913.531081	-2.998400	3.348400	-10.039000	26.032550	0.000561	20.780671
1914.525926	-2.990700	3.349500	-10.016000	26.011687	0.000561	20.775357
1915.526916	-2.979700	3.349600	-9.980200	26.033242	0.000560	20.780418
1916.531343	-2.996700	3.347900	-10.031000	26.059873	0.000559	20.778725
1917.525943	-2.992500	3.348200	-10.019000	26.063900	0.000558	20.770443
1918.526675	-3.021900	3.346700	-10.112000	26.087194	0.000559	20.786262
1919.528252	-2.989000	3.348100	-10.007000	26.094077	0.000556	20.763306
1920.528909	-3.003700	3.347200	-10.053000	26.120520	0.000557	20.782764
1921.527452	-2.996800	3.346700	-10.028000	26.106501	0.000557	20.782427
1922.532488	-3.010200	3.345900	-10.071000	26.161882	0.000555	20.776435
1923.528375	-2.999100	3.346000	-10.034000	26.168904	0.000557	20.774008
1924.529524	-2.991200	3.345400	-10.004000	26.187867	0.000556	20.777890
1925.529539	-3.014700	3.344400	-10.081000	26.147587	0.000556	20.763019
1926.530481	-3.027900	3.344100	-10.124000	26.112188	0.000558	20.762063
1927.533019	-2.991000	3.344600	-10.001000	26.089324	0.000555	20.786980
1928.530333	-2.985300	3.345100	-9.984600	26.068284	0.000556	20.777693
1929.531466	-3.023800	3.342600	-10.106000	26.102953	0.000552	20.775544
1930.530111	-2.984200	3.345300	-9.982000	26.138995	0.000553	20.774775
1931.529655	-3.031100	3.342900	-10.132000	26.140044	0.000553	20.772510
1932.532951	-3.008200	3.343300	-10.057000	26.175809	0.000554	20.777153
1933.530600	-3.050400	3.340900	-10.189000	26.199573	0.000551	20.771161
1934.531230	-3.026200	3.342700	-10.115000	26.177004	0.000550	20.775510
1935.531126	-2.984300	3.343700	-9.977800	26.213784	0.000549	20.744190
1936.530944	-3.023300	3.340800	-10.099000	26.226011	0.000549	20.757425
1937.531475	-3.011100	3.341100	-10.058000	26.226759	0.000549	20.772876
1938.532079	-3.001300	3.342300	-10.031000	26.235814	0.000550	20.762061
1939.531166	-2.998300	3.340800	-10.016000	26.271835	0.000548	20.753688
1940.532677	-3.006500	3.340500	-10.042000	26.281939	0.000550	20.778067
1941.532439	-3.005700	3.338800	-10.034000	26.298012	0.000548	20.762452
1942.535193	-2.988300	3.340700	-9.981600	26.264440	0.000547	20.750050
1943.535866	-2.975000	3.339500	-9.933300	26.252945	0.000548	20.747981
1944.535791	-3.006400	3.338600	-10.036000	26.230444	0.000546	20.754767
1945.535422	-2.982400	3.339600	-9.959200	26.230769	0.000546	20.773586
1946.536069	-2.995900	3.338400	-10.000000	26.212025	0.000543	20.760440
1947.536228	-2.992900	3.337600	-9.987500	26.228124	0.000545	20.761445
1948.538507	-3.026800	3.337100	-10.099000	26.200725	0.000546	20.754300
1949.537043	-2.984200	3.337500	-9.958400	26.169695	0.000545	20.754888
1950.538332	-2.995900	3.337600	-9.997900	26.144116	0.000542	20.755264
1951.536710	-3.022300	3.335400	-10.079000	26.109042	0.000542	20.733297
1952.535681	-3.008600	3.335500	-10.035000	26.108708	0.000542	20.736280
1953.540740	-2.982600	3.335900	-9.949000	26.132742	0.000542	20.743834
1954.536855	-2.976600	3.337100	-9.931800	26.152243	0.000540	20.756792
1955.535708	-3.001200	3.334300	-10.006000	26.159003	0.000542	20.735135
1956.534985	-3.018100	3.334700	-10.062000	26.180286	0.000539	20.738503
1957.536754	-3.028800	3.333400	-10.095000	26.225396	0.000540	20.735469
1958.538471	-2.991700	3.335000	-9.976700	26.235403	0.000538	20.749793
1959.537272	-2.996100	3.335000	-9.990700	26.227658	0.000539	20.740587
1960.540566	-3.012200	3.333100	-10.039000	26.273645	0.000537	20.755982
1961.537146	-3.005400	3.333600	-10.017000	26.274775	0.000539	20.754746
1962.536014	-3.012000	3.332400	-10.036000	26.297341	0.000538	20.756562
1963.541134	-2.991000	3.334300	-9.972200	26.318646	0.000535	20.734349
1964.538838	-2.984600	3.334800	-9.951600	26.260994	0.000535	20.749432
1965.538172	-2.984700	3.333100	-9.946700	26.256423	0.000536	20.743889
1966.538679	-3.009400	3.331400	-10.024000	26.245864	0.000535	20.754142
1967.538114	-3.007100	3.331200	-10.016000	26.236752	0.000537	20.740717
1968.537165	-3.010600	3.332200	-10.031000	26.224907	0.000533	20.758213
1969.542197	-2.975200	3.332400	-9.913700	26.214583	0.000532	20.750208
1970.538249	-3.005100	3.331400	-10.010000	26.214307	0.000533	20.751353
1971.538352	-3.046300	3.328700	-10.138000	26.243585	0.000533	20.743791
1972.537687	-2.989400	3.330100	-9.953200	26.239737	0.000531	20.768374
1973.538311	-2.983500	3.329900	-9.933600	26.201315	0.000533	20.739720
1974.543355	-2.995900	3.329300	-9.972400	26.182546	0.000533	20.746938
1975.538832	-3.006500	3.330200	-10.011000	26.168016	0.000531	20.724750
1976.541170	-2.999400	3.329100	-9.984300	26.180984	0.000529	20.739678
1977.538902	-3.022000	3.328300	-10.058000	26.208222	0.000528	20.747609
1978.540174	-3.015300	3.328400	-10.035000	26.211500	0.000530	20.746162
1979.542250	-3.003400	3.328100	-9.994700	26.258733	0.000530	20.738624
1980.543190	-2.988300	3.326800	-9.940300	26.243211	0.000528	20.751002
1981.542629	-3.009000	3.327800	-10.012000	26.201542	0.000528	20.735207
1982.540141	-3.014400	3.325800	-10.025000	26.170009	0.000528	20.718692
1983.541345	-3.004000	3.326800	-9.991800	26.140525	0.000527	20.738853
1984.541040	-2.995800	3.326800	-9.964600	26.151256	0.000526	20.736833
1985.542952	-2.995500	3.326100	-9.962900	26.156764	0.000526	20.737627
1986.545335	-2.993700	3.325400	-9.953000	26.189607	0.000525	20.733170
1987.544698	-2.982500	3.326100	-9.918400	26.203291	0.000525	20.760672
1988.542659	-3.001700	3.324200	-9.977100	26.160921	0.000523	20.746071
1989.542790	-2.992600	3.324300	-9.947600	26.147464	0.000525	20.739187
1990.545968	-2.978000	3.326200	-9.904100	26.159310	0.000524	20.739236
1991.543420	-2.990900	3.324600	-9.942700	26.145853	0.000523	20.736146
1992.545464	-2.984600	3.323800	-9.918900	26.163124	0.000520	20.721257
1993.542214	-2.985300	3.324000	-9.922400	26.164711	0.000521	20.744664
1994.544308	-3.003500	3.322600	-9.978000	26.200149	0.000520	20.736652
1995.546546	-3.003100	3.322500	-9.977200	26.200995	0.000520	20.743666
1996.547227	-2.995300	3.323100	-9.953200	26.230656	0.000519	20.730797
1997.545575	-3.005000	3.322000	-9.980800	26.247691	0.000519	20.725156
1998.544654	-2.995700	3.322700	-9.953900	26.258714	0.000520	20.728648
1999.544715	-2.979900	3.322900	-9.901600	26.279377	0.000517	20.731394
2000.544620	-2.995300	3.322200	-9.949400	26.245290	0.000517	20.711838
2001.547801	-2.989200	3.320100	-9.923400	26.234991	0.000517	20.742266
2002.546204	-3.009500	3.320200	-9.990900	26.221706	0.000516	20.719906
2003.549867	-3.002600	3.319600	-9.966400	26.277106	0.000516	20.721051
2004.546439	-3.003900	3.320600	-9.974100	26.251610	0.000516	20.709180
2005.546533	-2.965700	3.320900	-9.847900	26.236715	0.000514	20.727403
2006.546776	-2.985500	3.319900	-9.910900	26.190855	0.000517	20.729209
2007.547043	-3.001100	3.319100	-9.960400	26.192222	0.000514	20.737221
2008.547820	-3.000400	3.319100	-9.957900	26.166619	0.000514	20.709121
2009.546424	-2.991800	3.318600	-9.927800	26.122857	0.000511	20.722521
2010.547162	-2.982200	3.317200	-9.892000	26.072777	0.000512	20.723411
2011.546793	-3.001600	3.317200	-9.956000	26.085243	0.000510	20.732617
2012.548882	-2.996800	3.319100	-9.945900	26.109016	0.000510	20.712881
2013.547691	-2.981300	3.318200	-9.890900	26.150818	0.000509	20.725961
2014.548147	-3.004400	3.317500	-9.965400	26.139322	0.000509	20.722944
2015.546787	-2.985800	3.317900	-9.904100	26.103190	0.000510	20.724571
2016.548428	-3.003000	3.315700	-9.956100	26.104435	0.000509	20.705906
2017.552387	-2.967500	3.316500	-9.840900	26.124660	0.000506	20.722436
2018.548016	-3.005000	3.315600	-9.961600	26.150914	0.000508	20.723213
2019.548915	-3.004900	3.314800	-9.959400	26.175484	0.000507	20.703803
2020.549733	-2.998200	3.314900	-9.937200	26.207675	0.000506	20.712919
2021.548405	-3.000900	3.315500	-9.946900	26.220293	0.000506	20.706157
2022.552597	-3.000100	3.314300	-9.941400	26.261294	0.000505	20.701366
2023.549527	-2.999000	3.315100	-9.940300	26.297274	0.000505	20.713818
2024.552299	-3.007500	3.313800	-9.964600	26.279531	0.000505	20.713531
2025.548421	-2.996600	3.314100	-9.929400	26.316430	0.000506	20.714103
2026.549683	-3.001000	3.313400	-9.940900	26.318765	0.000506	20.724037
2027.555214	-3.005000	3.312000	-9.952000	26.344648	0.000503	20.686510
2028.551691	-3.007300	3.312200	-9.959900	26.358288	0.000503	20.708755
2029.550554	-2.996300	3.313800	-9.928600	26.361884	0.000502	20.718534
2030.551092	-2.982300	3.312600	-9.878000	26.366203	0.000501	20.715288
2031.551795	-3.013500	3.311800	-9.978600	26.372141	0.000501	20.704659
2032.551785	-3.005200	3.310900	-9.949100	26.395217	0.000500	20.718844
2033.555712	-3.002600	3.310200	-9.937800	26.391865	0.000501	20.716424
2034.553019	-3.004400	3.310000	-9.943800	26.346843	0.000500	20.701520
2035.553680	-3.009800	3.309900	-9.961900	26.277894	0.000501	20.690547
2036.553597	-2.989300	3.310300	-9.894100	26.271167	0.000499	20.700857
2037.552867	-3.001000	3.309400	-9.930700	26.235812	0.000497	20.688086
2038.554794	-3.021700	3.309000	-9.997700	26.210511	0.000499	20.684472
2039.552923	-3.006900	3.308100	-9.946600	26.230719	0.000495	20.709523
2040.553569	-2.990100	3.309400	-9.893200	26.235047	0.000498	20.694904
2041.555487	-3.002400	3.309200	-9.934300	26.278154	0.000496	20.724001
2042.556060	-3.000300	3.307300	-9.922000	26.309700	0.000495	20.697855
2043.560397	-2.993700	3.307800	-9.901700	26.326888	0.000494	20.697585
2044.556634	-3.003400	3.306200	-9.928500	26.361475	0.000495	20.689197
2045.556717	-3.018100	3.306400	-9.977200	26.371927	0.000492	20.687848
2046.557804	-2.985600	3.306900	-9.872200	26.380053	0.000495	20.692696
2047.557069	-2.999400	3.305700	-9.913600	26.385218	0.000493	20.701681
2048.568236	-2.999900	3.306200	-9.917300	26.367567	0.000493	20.692475
2049.556507	-3.017200	3.304600	-9.969000	26.372854	0.000492	20.686408
2050.558084	-2.993600	3.305900	-9.894700	26.384502	0.000492	20.698590
2051.556946	-2.994100	3.304800	-9.893700	26.404292	0.000490	20.690030
2052.556790	-2.999900	3.305000	-9.912800	26.418127	0.000489	20.684020
2053.557608	-3.017600	3.304200	-9.969500	26.427090	0.000491	20.705359
2054.560469	-2.975900	3.305400	-9.835300	26.427814	0.000489	20.685696
2055.558532	-2.993500	3.303600	-9.888600	26.382109	0.000488	20.694289
2056.560629	-2.991100	3.302400	-9.876900	26.376961	0.000489	20.698598
2057.560485	-3.007300	3.303800	-9.933700	26.367387	0.000489	20.692768
2058.562009	-3.014300	3.302200	-9.952000	26.372772	0.000487	20.707664
2059.564754	-3.000100	3.301500	-9.904000	26.406072	0.000487	20.689448
2060.562036	-3.018700	3.300600	-9.963200	26.418240	0.000485	20.704524
2061.563945	-2.998100	3.302700	-9.900200	26.465569	0.000486	20.713689
2062.563200	-2.983800	3.301400	-9.850000	26.446000	0.000486	20.695441
2063.564354	-2.991200	3.301200	-9.873700	26.426690	0.000485	20.694525
2064.565774	-2.994400	3.300500	-9.882600	26.371242	0.000482	20.685262
2065.568614	-3.005900	3.298700	-9.914200	26.386867	0.000486	20.682948
2066.565168	-3.035800	3.298700	-10.013000	26.365483	0.000484	20.678525
2067.565155	-3.013700	3.298500	-9.939700	26.377854	0.000483	20.692383
2068.565224	-3.008700	3.299400	-9.925900	26.405860	0.000481	20.682596
2069.566768	-3.014500	3.299100	-9.943500	26.402492	0.000482	20.673046
2070.569986	-2.991400	3.298400	-9.865500	26.410138	0.000480	20.670299
2071.567193	-2.988100	3.298200	-9.854200	26.412399	0.000479	20.704817
2072.570732	-3.011400	3.297100	-9.928100	26.399067	0.000482	20.678614
2073.566630	-3.023300	3.295800	-9.963500	26.371900	0.000478	20.687346
2074.567113	-3.014800	3.296400	-9.936700	26.371810	0.000478	20.679194
2075.570912	-3.022300	3.294800	-9.957300	26.341730	0.000479	20.691638
2076.568326	-2.994900	3.295800	-9.869400	26.322223	0.000480	20.681516
2077.570175	-3.009300	3.295900	-9.917600	26.374844	0.000478	20.684614
2078.568780	-3.009900	3.295600	-9.918600	26.337548	0.000476	20.694074
2079.568354	-3.009300	3.295300	-9.915500	26.331090	0.000478	20.696118
2080.568627	-3.001200	3.295800	-9.889900	26.332505	0.000476	20.674779
2081.570602	-3.024100	3.294200	-9.961200	26.317017	0.000477	20.678654
2082.569851	-3.006600	3.293200	-9.900600	26.281208	0.000474	20.688661
2083.570103	-3.006700	3.292700	-9.898400	26.251141	0.000475	20.676462
2084.571545	-2.983800	3.293800	-9.827300	26.220227	0.000472	20.689495
2085.570128	-3.012500	3.292200	-9.917200	26.220073	0.000472	20.680330
2086.571241	-3.009600	3.292600	-9.908300	26.225882	0.000472	20.692806
2087.572480	-3.011000	3.292300	-9.910300	26.242875	0.000471	20.676217
2088.572437	-2.988600	3.292900	-9.840000	26.277766	0.000471	20.693264
2089.572203	-2.980100	3.292600	-9.811300	26.301406	0.000470	20.673396
2090.572376	-3.037000	3.289900	-9.990400	26.351815	0.000471	20.699404
2091.573200	-3.009600	3.292000	-9.906600	26.370540	0.000469	20.673175
2092.573305	-2.972700	3.291400	-9.782700	26.383155	0.000470	20.679217
2093.570374	-2.995700	3.291700	-9.859900	26.397137	0.000467	20.690426
2094.571211	-3.019000	3.290200	-9.931800	26.426403	0.000468	20.705617
2095.572630	-2.995400	3.290600	-9.854200	26.450495	0.000468	20.667239
2096.572527	-3.005900	3.289900	-9.888300	26.431332	0.000466	20.690655
2097.573544	-2.993200	3.289100	-9.844100	26.385588	0.000466	20.684981
2098.572472	-2.998600	3.288200	-9.859500	26.378795	0.000465	20.704235
2099.573492	-2.980000	3.289200	-9.800900	26.390288	0.000465	20.685913
2100.572940	-3.007300	3.287300	-9.883800	26.393924	0.000465	20.685773
2101.574286	-2.989300	3.287800	-9.826200	26.443605	0.000463	20.694456
2102.576997	-2.989400	3.288200	-9.828600	26.418431	0.000464	20.698552
2103.573012	-2.988000	3.287100	-9.821100	26.444377	0.000462	20.682903
2104.573506	-3.008400	3.285800	-9.883400	26.465427	0.000463	20.692208
2105.574327	-3.018600	3.284800	-9.914300	26.507069	0.000462	20.687122
2106.574286	-2.974700	3.287500	-9.778500	26.522538	0.000462	20.687024
2107.578795	-3.008300	3.285100	-9.881000	26.543659	0.000462	20.704463
2108.575922	-3.005300	3.283700	-9.867500	26.568862	0.000460	20.695183
2109.577930	-2.977700	3.285800	-9.783100	26.618120	0.000459	20.669307
2110.576951	-2.970700	3.285800	-9.759400	26.634653	0.000457	20.702525
2111.575655	-2.991300	3.284600	-9.825200	26.635701	0.000457	20.690302
2112.578561	-2.991300	3.284500	-9.823900	26.642849	0.000454	20.681366
2113.576625	-3.004600	3.284500	-9.867500	26.652974	0.000457	20.700080
2114.576827	-3.023900	3.283300	-9.927800	26.653470	0.000455	20.715279
2115.575414	-2.987700	3.284000	-9.810000	26.597601	0.000453	20.679501
2116.576943	-2.990700	3.283400	-9.818300	26.595983	0.000457	20.687833
2117.576682	-3.013600	3.282100	-9.890300	26.618477	0.000454	20.696695
2118.580311	-2.991800	3.282900	-9.820700	26.589932	0.000455	20.705459
2119.576985	-2.997800	3.282600	-9.839700	26.598098	0.000455	20.716987
2120.578428	-2.989200	3.282000	-9.810100	26.604205	0.000453	20.711272
2121.578334	-2.990300	3.283000	-9.815900	26.644118	0.000451	20.700661
2122.578155	-3.001600	3.280900	-9.846800	26.659512	0.000453	20.700489
2123.579139	-2.994500	3.280800	-9.822300	26.677979	0.000452	20.698666
2124.578250	-2.993100	3.280700	-9.818500	26.696031	0.000449	20.715867
2125.578963	-2.999700	3.280100	-9.838200	26.725467	0.000448	20.698044
2126.578992	-2.996900	3.280100	-9.828900	26.732989	0.000450	20.713668
2127.583143	-3.007600	3.278600	-9.859500	26.755049	0.000449	20.708820
2128.582211	-2.998800	3.277700	-9.828400	26.762246	0.000448	20.693769
2129.581253	-2.986800	3.278300	-9.789600	26.800047	0.000445	20.706171
2130.580462	-3.005500	3.277300	-9.848800	26.799599	0.000448	20.700031
2131.580661	-2.997300	3.278200	-9.825100	26.782907	0.000445	20.715018
2132.579967	-2.996400	3.278000	-9.821300	26.746772	0.000446	20.700972
2133.581382	-3.008200	3.275700	-9.852900	26.714800	0.000446	20.712925
2134.580766	-3.008800	3.276300	-9.856500	26.649437	0.000444	20.723553
2135.583051	-3.016500	3.276800	-9.883700	26.588340	0.000444	20.698642
2136.580027	-2.988900	3.276300	-9.791100	26.570563	0.000441	20.698316
2137.580277	-3.017700	3.275000	-9.881100	26.578256	0.000443	20.714111
2138.583755	-2.987900	3.275400	-9.785700	26.594960	0.000441	20.707669
2139.579584	-2.996200	3.275100	-9.811600	26.614177	0.000441	20.706124
2140.579794	-2.993000	3.274800	-9.800200	26.624432	0.000440	20.714536
2141.584079	-3.013300	3.273000	-9.860600	26.625766	0.000439	20.723939
2142.580962	-3.035300	3.272900	-9.931100	26.602377	0.000438	20.708013
2143.581691	-2.984800	3.273400	-9.769100	26.559422	0.000437	20.701816
2144.584778	-2.994800	3.272300	-9.799100	26.578590	0.000438	20.741001
2145.582632	-2.993900	3.271100	-9.791900	26.572231	0.000439	20.711848
2146.582916	-2.987300	3.272700	-9.774300	26.598044	0.000437	20.713140
2147.581969	-3.013000	3.271400	-9.855100	26.619203	0.000436	20.722557
2148.582731	-3.008600	3.271100	-9.839600	26.657547	0.000435	20.692823
2149.584342	-2.990200	3.270700	-9.778700	26.698458	0.000434	20.714039
2150.582972	-3.004000	3.269400	-9.820300	26.701580	0.000434	20.717653
2151.583551	-2.976300	3.272200	-9.737600	26.688594	0.000434	20.716451
2152.582575	-2.994000	3.271000	-9.792500	26.671908	0.000434	20.736661
2153.582945	-2.991700	3.269600	-9.780600	26.647553	0.000433	20.723082
2154.583588	-3.012500	3.269000	-9.845500	26.684041	0.000431	20.728944
2155.583512	-2.983300	3.268500	-9.750000	26.703671	0.000429	20.734455
2156.585323	-3.001200	3.268300	-9.807800	26.736881	0.000429	20.728487
2157.588980	-3.009700	3.267600	-9.833900	26.731294	0.000430	20.697738
2158.588059	-3.006000	3.267000	-9.820000	26.730620	0.000429	20.712708
2159.586283	-2.997900	3.267100	-9.793500	26.718724	0.000427	20.721138
2160.588551	-2.986300	3.267300	-9.756000	26.742370	0.000427	20.736852
2161.586403	-3.011900	3.265500	-9.834300	26.718269	0.000428	20.719258
2162.594101	-2.981900	3.266600	-9.739800	26.731792	0.000428	20.727164
2163.589089	-3.001100	3.266300	-9.801600	26.784011	0.000426	20.728930
2164.587705	-2.998600	3.265900	-9.791100	26.770725	0.000424	20.754454
2165.592134	-3.005100	3.264500	-9.809200	26.836495	0.000424	20.736657
2166.589608	-2.978900	3.265800	-9.726800	26.831999	0.000423	20.734033
2167.593016	-2.995900	3.265000	-9.780800	26.801249	0.000424	20.741047
2168.590039	-2.993400	3.264600	-9.770100	26.773596	0.000422	20.737900
2169.590318	-2.983100	3.263700	-9.734100	26.752683	0.000420	20.759075
2170.593432	-2.999900	3.263700	-9.789300	26.725005	0.000422	20.734091
2171.594966	-2.970700	3.263800	-9.694400	26.678939	0.000419	20.735194
2172.591028	-3.023800	3.261000	-9.858600	26.663472	0.000421	20.727706
2173.591541	-2.997500	3.262900	-9.778900	26.673572	0.000419	20.739757
2174.591536	-2.987400	3.261000	-9.740900	26.703505	0.000418	20.732865
2175.592350	-2.984200	3.263100	-9.736500	26.706181	0.000417	20.744564
2176.595588	-3.001400	3.260400	-9.783700	26.715613	0.000417	20.736029
2177.591491	-2.993600	3.259700	-9.757200	26.733063	0.000417	20.749306
2178.595062	-2.996500	3.260200	-9.768600	26.735585	0.000416	20.748996
2179.594184	-3.006700	3.258800	-9.797100	26.744944	0.000418	20.738491
2180.596892	-3.010200	3.260100	-9.811500	26.805260	0.000415	20.762150
2181.596890	-2.988900	3.259700	-9.741800	26.817123	0.000415	20.746102
2182.593865	-2.992600	3.257800	-9.747400	26.787031	0.000414	20.755676
2183.594586	-2.997100	3.258400	-9.764200	26.760377	0.000413	20.740257
2184.593911	-2.998600	3.257800	-9.767600	26.778005	0.000412	20.746127
2185.594454	-2.991300	3.257900	-9.743900	26.775192	0.000414	20.749937
2186.595492	-2.990300	3.255900	-9.735500	26.763996	0.000413	20.734886
2187.595268	-2.996700	3.257700	-9.761500	26.737586	0.000410	20.753379
2188.596555	-3.021400	3.254300	-9.830900	26.692342	0.000412	20.752937
2189.593798	-2.978700	3.256900	-9.700000	26.688805	0.000410	20.760287
2190.594964	-3.016100	3.254300	-9.813100	26.659563	0.000408	20.756494
2191.598362	-2.986700	3.254700	-9.719800	26.660978	0.000408	20.734682
2192.595642	-3.006100	3.255500	-9.785400	26.689895	0.000407	20.750477
2193.600688	-2.999200	3.255900	-9.764300	26.675876	0.000408	20.743495
2194.598127	-3.004000	3.255200	-9.777300	26.665028	0.000407	20.764833
2195.597703	-3.011200	3.253800	-9.796600	26.660783	0.000405	20.775738
2196.600231	-3.002800	3.253400	-9.767400	26.636655	0.000405	20.750060
2197.600564	-2.982000	3.254400	-9.703600	26.606737	0.000406	20.765977
2198.598506	-3.003500	3.251700	-9.764700	26.557682	0.000404	20.744640
2199.598997	-2.998600	3.251900	-9.749900	26.560691	0.000405	20.754303
2200.599628	-2.998300	3.250600	-9.746200	26.580599	0.000403	20.746340
2201.599271	-3.006200	3.250900	-9.771700	26.641714	0.000401	20.762258
2202.602436	-3.000300	3.250700	-9.751300	26.693570	0.000402	20.768872
2203.599023	-2.989500	3.251900	-9.721000	26.698555	0.000399	20.778625
2204.602624	-3.025300	3.248300	-9.825200	26.742969	0.000399	20.753575
2205.601887	-3.002700	3.250000	-9.756600	26.767021	0.000400	20.763533
2206.601252	-2.960600	3.250900	-9.623900	26.790552	0.000399	20.758268
2207.603746	-2.997400	3.248700	-9.735900	26.850914	0.000398	20.760165
2208.600707	-2.990100	3.249400	-9.715100	26.888289	0.000397	20.773090
2209.604667	-3.000900	3.248300	-9.746100	26.931273	0.000396	20.757042
2210.602002	-2.981300	3.248200	-9.683300	26.916355	0.000395	20.769542
2211.602289	-2.983500	3.248000	-9.688800	26.871062	0.000394	20.758612
2212.606132	-2.993900	3.247900	-9.723000	26.859541	0.000394	20.782590
2213.601739	-2.986800	3.247100	-9.697400	26.850760	0.000397	20.778028
2214.604583	-2.989000	3.246100	-9.701300	26.854833	0.000395	20.771218
2215.601633	-2.988200	3.248200	-9.704600	26.861306	0.000391	20.775355
2216.603215	-2.963800	3.246100	-9.619100	26.855451	0.000391	20.770891
2217.605203	-2.966900	3.247300	-9.632900	26.849932	0.000394	20.758702
2218.604814	-2.972600	3.246100	-9.648400	26.872330	0.000391	20.753249
2219.602762	-2.991400	3.243900	-9.702200	26.898192	0.000391	20.777832
2220.604351	-2.991200	3.244200	-9.702300	26.901932	0.000391	20.790602
2221.605102	-3.008900	3.243100	-9.756700	26.896103	0.000388	20.780472
2222.604504	-3.004900	3.243800	-9.745300	26.864729	0.000389	20.785909
2223.607305	-3.002600	3.242800	-9.736100	26.866688	0.000386	20.765120
2224.604426	-3.016000	3.242900	-9.779700	26.869322	0.000388	20.762078
2225.608554	-2.994500	3.242000	-9.707400	26.895453	0.000386	20.785983
2226.604448	-2.982900	3.242600	-9.671500	26.916144	0.000387	20.777865
2227.605354	-3.005700	3.240600	-9.739500	26.937102	0.000384	20.769542
2228.609712	-3.009600	3.240200	-9.750200	26.977750	0.000384	20.787658
2229.606661	-2.990000	3.240100	-9.687700	27.006724	0.000385	20.781234
2230.611724	-3.008800	3.240100	-9.748000	27.054840	0.000386	20.769404
2231.606954	-3.002700	3.238900	-9.723900	27.077601	0.000385	20.792768
2232.607219	-2.984600	3.239900	-9.668800	27.094842	0.000383	20.788297
2233.612013	-2.992800	3.238200	-9.690900	27.122812	0.000383	20.781339
2234.608283	-3.011700	3.238100	-9.750700	27.087550	0.000382	20.769109
2235.608187	-3.015300	3.237900	-9.762900	27.092428	0.000381	20.798197
2236.608731	-3.012200	3.237600	-9.751500	27.032283	0.000381	20.804091
2237.609772	-2.996800	3.236100	-9.697200	26.992897	0.000381	20.812373
2238.609423	-2.978100	3.237800	-9.641300	26.961184	0.000379	20.787594
2239.612020	-2.987700	3.235100	-9.664700	26.909608	0.000378	20.796898
2240.610166	-3.005800	3.234700	-9.722000	26.890023	0.000376	20.784791
2241.608730	-3.009900	3.234500	-9.734800	26.881609	0.000378	20.816158
2242.609175	-3.022500	3.234000	-9.772800	26.909129	0.000376	20.805899
2243.610955	-3.006200	3.232900	-9.717700	26.962908	0.000377	20.810665
2244.610851	-2.996500	3.234500	-9.690200	27.017155	0.000374	20.805474
2245.609708	-3.017100	3.233000	-9.753300	27.049688	0.000375	20.805474
2246.609962	-2.997600	3.234100	-9.693200	27.074659	0.000375	20.795500
2247.611426	-2.988700	3.232400	-9.658500	27.045371	0.000376	20.821995
2248.610964	-2.982700	3.233100	-9.642600	27.062149	0.000372	20.802833
2249.613348	-2.986600	3.230900	-9.648800	27.058297	0.000372	20.810812
2250.612154	-2.995300	3.231600	-9.678300	27.020554	0.000371	20.794667
2251.616797	-3.015300	3.229900	-9.737800	26.985768	0.000370	20.789557
2252.610579	-2.996000	3.229900	-9.675100	26.974745	0.000370	20.806921
2253.611662	-3.016900	3.229500	-9.741800	26.948535	0.000370	20.790522
2254.617538	-2.998900	3.228600	-9.681400	26.973030	0.000367	20.818472
2255.613148	-3.000300	3.230000	-9.689200	26.985760	0.000367	20.810886
2256.618003	-2.978300	3.229300	-9.616700	27.028374	0.000367	20.819126
2257.611864	-3.005600	3.229500	-9.704900	27.037657	0.000366	20.814711
2258.612607	-3.012700	3.227400	-9.722000	27.040234	0.000364	20.803553
2259.613031	-2.987800	3.226900	-9.640000	27.073904	0.000366	20.805646
2260.614357	-2.982200	3.227700	-9.624700	27.096940	0.000367	20.830235
2261.617929	-2.982000	3.226400	-9.620400	27.140037	0.000363	20.809569
2262.614058	-3.001800	3.225900	-9.682600	27.163259	0.000364	20.811589
2263.614743	-3.008900	3.224500	-9.701100	27.160016	0.000363	20.823973
2264.614559	-2.977400	3.225900	-9.603800	27.152783	0.000367	20.824285
2265.618867	-2.992800	3.224400	-9.648500	27.170135	0.000363	20.817082
2266.614356	-2.985600	3.225500	-9.628800	27.170209	0.000362	20.838018
2267.614626	-2.980900	3.224700	-9.610300	27.177182	0.000360	20.817532
2268.613611	-2.999900	3.224400	-9.671800	27.167478	0.000360	20.812513
2269.612501	-2.980100	3.224400	-9.608500	27.128073	0.000361	20.802278
2270.615310	-3.006500	3.221900	-9.684300	27.086511	0.000358	20.835868
2271.615164	-3.027700	3.222900	-9.755800	27.076367	0.000358	20.825192
2272.613564	-3.020200	3.222300	-9.730100	27.064555	0.000357	20.803830
2273.615503	-2.996100	3.223100	-9.655300	27.090974	0.000358	20.815701
2274.615173	-3.008000	3.221300	-9.688800	27.130479	0.000358	20.824138
2275.614515	-3.000300	3.221800	-9.665500	27.101314	0.000357	20.831316
2276.616484	-2.994400	3.220600	-9.642300	27.109305	0.000356	20.837929
2277.614377	-3.019000	3.219600	-9.719000	27.115255	0.000354	20.822103
2278.617405	-2.997500	3.218800	-9.647000	27.120710	0.000356	20.847028
2279.615718	-3.022400	3.217100	-9.722800	27.126050	0.000354	20.831537
2280.616560	-2.975900	3.219400	-9.578900	27.142738	0.000354	20.828407
2281.618858	-2.974900	3.218600	-9.574000	27.146590	0.000353	20.818057
2282.619550	-2.983200	3.218300	-9.599200	27.135244	0.000352	20.833197
2283.618752	-2.993400	3.217500	-9.630800	27.150679	0.000353	20.840186
2284.617766	-3.015100	3.215500	-9.693300	27.191937	0.000351	20.848966
2285.618053	-2.991200	3.216300	-9.620300	27.206446	0.000351	20.832266
2286.617247	-2.993000	3.215000	-9.621500	27.243435	0.000349	20.852400
2287.619691	-2.999500	3.216300	-9.646300	27.249067	0.000351	20.842419
2288.617809	-3.012000	3.213400	-9.677800	27.290873	0.000349	20.844642
2289.617959	-2.993100	3.212700	-9.615200	27.288907	0.000346	20.840768
2290.622653	-3.006200	3.212200	-9.655700	27.318676	0.000346	20.850799
2291.618134	-2.993900	3.213700	-9.620100	27.295238	0.000347	20.842395
2292.619608	-2.977100	3.213300	-9.565500	27.269695	0.000346	20.844676
2293.618468	-3.002000	3.212000	-9.641500	27.267688	0.000345	20.837442
2294.621479	-3.011100	3.211200	-9.668100	27.259325	0.000346	20.857478
2295.617788	-2.996700	3.210900	-9.621000	27.248085	0.000344	20.864189
2296.617991	-3.002400	3.210100	-9.636700	27.228140	0.000342	20.860249
2297.618746	-2.985400	3.210000	-9.581200	27.180967	0.000343	20.853105
2298.617511	-3.008400	3.211000	-9.658200	27.152315	0.000344	20.830452
2299.621829	-3.013300	3.211000	-9.675100	27.125785	0.000342	20.844546
2300.618315	-3.027400	3.210700	-9.719000	27.112535	0.000342	20.841652
2301.619140	-2.982600	3.210900	-9.575900	27.155566	0.000341	20.861696
2302.626338	-3.004500	3.209000	-9.640300	27.150446	0.000341	20.855598
2303.618639	-2.983600	3.207500	-9.569100	27.134969	0.000339	20.858999
2304.619262	-2.957700	3.207800	-9.486500	27.125533	0.000339	20.856146
2305.619340	-2.996700	3.208400	-9.613600	27.130125	0.000338	20.844170
2306.620487	-2.978400	3.206500	-9.549500	27.136571	0.000338	20.849705
2307.620840	-2.999200	3.206200	-9.615200	27.109601	0.000339	20.863830
2308.625402	-3.036800	3.203400	-9.727000	27.080493	0.000336	20.844514
2309.621982	-3.016100	3.203900	-9.661900	27.073023	0.000336	20.860234
2310.622383	-2.998900	3.204000	-9.607300	27.061456	0.000334	20.851446
2311.622861	-3.002200	3.204500	-9.619500	27.101709	0.000333	20.854945
2312.626710	-3.005500	3.203100	-9.626300	27.148780	0.000333	20.834483
2313.628947	-2.995600	3.202400	-9.592700	27.157835	0.000334	20.838375
2314.624881	-2.989200	3.204600	-9.578200	27.169296	0.000334	20.848005
2315.624726	-3.011200	3.201100	-9.638000	27.176985	0.000333	20.819704
2316.624685	-3.013700	3.200800	-9.645100	27.221549	0.000334	20.840345
2317.625352	-2.988000	3.202000	-9.567000	27.239421	0.000332	20.848838
2318.625114	-2.993200	3.199600	-9.576000	27.267372	0.000334	20.852296
2319.623947	-2.971200	3.201800	-9.511600	27.287129	0.000331	20.844195
2320.624359	-2.984900	3.198800	-9.547300	27.297069	0.000330	20.838072
2321.624059	-3.001600	3.199500	-9.603300	27.313127	0.000330	20.840475
2322.623349	-3.008300	3.199100	-9.622700	27.329195	0.000330	20.834827
2323.624662	-3.005600	3.199200	-9.615100	27.304488	0.000328	20.828941
2324.628043	-3.018400	3.197100	-9.649100	27.275508	0.000328	20.818281
2325.625422	-2.995200	3.197200	-9.575200	27.255993	0.000329	20.829946
2326.629179	-2.999100	3.196900	-9.587200	27.182398	0.000329	20.851700
2327.625968	-2.993000	3.196900	-9.567700	27.134410	0.000329	20.811022
2328.627455	-2.966700	3.198100	-9.487200	27.093222	0.000328	20.836454
2329.627546	-2.988600	3.195800	-9.549900	27.047832	0.000326	20.829211
2330.626323	-2.985800	3.194200	-9.535600	27.071210	0.000326	20.826170
2331.628884	-3.020400	3.194200	-9.647100	27.083217	0.000324	20.811218
2332.628838	-2.982400	3.194800	-9.526600	27.130955	0.000325	20.835996
2333.626313	-2.985000	3.193300	-9.531200	27.179481	0.000324	20.819844
2334.628237	-3.000700	3.193000	-9.580000	27.202702	0.000324	20.816647
2335.629315	-3.024000	3.191500	-9.649800	27.234132	0.000324	20.824079
2336.627057	-3.018100	3.192900	-9.635800	27.196965	0.000320	20.815144
2337.626682	-3.020100	3.189900	-9.632500	27.218764	0.000321	20.810043
2338.627421	-3.009700	3.190400	-9.601500	27.222242	0.000321	20.815438
2339.627207	-2.988500	3.189800	-9.532000	27.273438	0.000319	20.819044
2340.629767	-2.991400	3.190700	-9.542300	27.300006	0.000319	20.823010
2341.627087	-3.010000	3.189400	-9.599100	27.349669	0.000319	20.814647
2342.631055	-2.997200	3.188500	-9.555000	27.382638	0.000318	20.808932
2343.627373	-3.005000	3.187700	-9.578000	27.410708	0.000319	20.820575
2344.628221	-2.985600	3.188900	-9.520100	27.417428	0.000319	20.810266
2345.633678	-2.991100	3.186500	-9.528500	27.388248	0.000317	20.824532
2346.629203	-3.002300	3.186400	-9.565500	27.382088	0.000318	20.814069
2347.628438	-2.998700	3.185400	-9.551000	27.395732	0.000318	20.807406
2348.628516	-3.010800	3.184700	-9.587600	27.395920	0.000316	20.808543
2349.629277	-3.016700	3.185500	-9.608800	27.433552	0.000314	20.817953
2350.629440	-3.005500	3.183000	-9.565800	27.420324	0.000315	20.823136
2351.631308	-2.984900	3.183300	-9.501300	27.476506	0.000312	20.808536
2352.628702	-3.018200	3.181600	-9.601800	27.492481	0.000315	20.812280
2353.629665	-2.993400	3.183500	-9.527300	27.489939	0.000316	20.827266
2354.630301	-3.010800	3.183300	-9.583500	27.494383	0.000315	20.812297
2355.634490	-2.986500	3.182400	-9.503300	27.494896	0.000313	20.798588
2356.634153	-2.973200	3.181100	-9.457100	27.523465	0.000314	20.802202
2357.629815	-2.970700	3.181500	-9.450000	27.523465	0.000312	20.799831
2358.631567	-3.009300	3.179500	-9.566700	27.545461	0.000312	20.811056
2359.632720	-2.992300	3.183600	-9.524900	27.539488	0.000311	20.805521
2360.630778	-3.014300	3.178800	-9.580200	27.577806	0.000312	20.821790
2361.634634	-2.990600	3.179700	-9.508300	27.589036	0.000310	20.801320
2362.633914	-2.980300	3.179800	-9.473700	27.601954	0.000310	20.808155
2363.636455	-2.988200	3.180200	-9.501300	27.622940	0.000311	20.811727
2364.634615	-2.982500	3.178500	-9.478500	27.627474	0.000308	20.791159
2365.634608	-3.010100	3.176300	-9.559200	27.621697	0.000307	20.803838
2366.635798	-2.983400	3.176400	-9.475600	27.598526	0.000308	20.807076
2367.636982	-3.009500	3.175100	-9.554300	27.546381	0.000306	20.806766
2368.634947	-2.991200	3.175100	-9.496800	27.481377	0.000305	20.820074
2369.636441	-3.008500	3.174500	-9.550200	27.467791	0.000305	20.809724
2370.635161	-2.992300	3.174200	-9.497300	27.457886	0.000305	20.814933
2371.635762	-3.018200	3.172100	-9.572800	27.435857	0.000304	20.788029
2372.637827	-2.990400	3.172800	-9.487000	27.402264	0.000305	20.799752
2373.637027	-3.025300	3.172000	-9.594000	27.404181	0.000304	20.807371
2374.639877	-2.993900	3.171900	-9.494700	27.335058	0.000300	20.784776
2375.637608	-3.002000	3.171700	-9.520400	27.291002	0.000304	20.795460
2376.637548	-2.994500	3.171100	-9.494700	27.275593	0.000304	20.766210
2377.641078	-2.975000	3.171100	-9.431600	27.259566	0.000303	20.795608
2378.638371	-2.997200	3.170900	-9.502900	27.227543	0.000302	20.779993
2379.640557	-3.028900	3.168200	-9.595300	27.269213	0.000303	20.801993
2380.637115	-3.004700	3.167600	-9.517000	27.314489	0.000301	20.802017
2381.638879	-3.019800	3.166900	-9.561900	27.287946	0.000302	20.781481
2382.639951	-3.030900	3.165700	-9.593200	27.315879	0.000300	20.781604
2383.642732	-2.999900	3.167700	-9.502100	27.334457	0.000300	20.800767
2384.640115	-3.003100	3.166000	-9.507400	27.351782	0.000301	20.774099
2385.640055	-3.008300	3.164700	-9.519800	27.391685	0.000297	20.805705
2386.639963	-2.988600	3.164700	-9.457000	27.418672	0.000298	20.781646
2387.640318	-3.001000	3.163700	-9.493000	27.432308	0.000297	20.793942
2388.644678	-3.006900	3.164100	-9.512000	27.424230	0.000298	20.786289
2389.641754	-2.991200	3.163200	-9.460000	27.486979	0.000295	20.791571
2390.642308	-2.988400	3.163800	-9.453700	27.488392	0.000297	20.784933
2391.645556	-3.015700	3.162200	-9.534900	27.501295	0.000296	20.791276
2392.641653	-3.005200	3.162600	-9.503400	27.513167	0.000296	20.793738
2393.643252	-3.004500	3.160400	-9.494600	27.541363	0.000296	20.779432
2394.642931	-3.011900	3.160500	-9.517100	27.585172	0.000293	20.782260
2395.644402	-3.020900	3.158700	-9.541300	27.611285	0.000294	20.780085
2396.643795	-3.020500	3.157800	-9.535800	27.637698	0.000292	20.786274
2397.644412	-2.989700	3.158900	-9.443200	27.623286	0.000296	20.776513
2398.646920	-2.988300	3.157400	-9.433400	27.614179	0.000292	20.778729
2399.644828	-3.006500	3.158200	-9.494000	27.604412	0.000292	20.779334
2400.646667	-3.000800	3.156400	-9.471000	27.618290	0.000294	20.769590
2401.646492	-3.003200	3.154700	-9.473300	27.646417	0.000291	20.789357
2402.646716	-2.990700	3.155300	-9.435800	27.643314	0.000291	20.784338
2403.646343	-3.002100	3.154000	-9.467700	27.674479	0.000290	20.773024
2404.650464	-2.980800	3.153600	-9.399400	27.711557	0.000289	20.776670
2405.647522	-2.967400	3.154700	-9.359400	27.693474	0.000290	20.778862
2406.647765	-2.980800	3.153000	-9.396400	27.702678	0.000291	20.781486
2407.647998	-3.008300	3.151700	-9.480200	27.702451	0.000288	20.792163
2408.648765	-3.009500	3.150300	-9.480000	27.701777	0.000291	20.774415
2409.652023	-3.003800	3.151700	-9.465800	27.685903	0.000289	20.773140
2410.653245	-3.004400	3.150300	-9.463900	27.645323	0.000287	20.763126
2411.651365	-3.008500	3.149000	-9.472900	27.626020	0.000288	20.783058
2412.650954	-3.022200	3.149200	-9.516400	27.607869	0.000288	20.784709
2413.650744	-2.997400	3.147900	-9.434900	27.610526	0.000286	20.785011
2414.651084	-3.013300	3.147200	-9.481900	27.661613	0.000287	20.788052
2415.650824	-3.009500	3.147400	-9.470900	27.703923	0.000287	20.777523
2416.650459	-3.011800	3.146100	-9.474300	27.700641	0.000286	20.772324
2417.649599	-2.993600	3.147200	-9.421300	27.676586	0.000287	20.780834
2418.650377	-2.985500	3.144600	-9.386500	27.607666	0.000285	20.779289
2419.650462	-2.990700	3.144600	-9.403200	27.583934	0.000286	20.778169
2420.651556	-3.003600	3.143200	-9.439300	27.564832	0.000284	20.773648
2421.650476	-2.987500	3.142800	-9.387700	27.523305	0.000284	20.776437
2422.652319	-3.028700	3.142200	-9.515600	27.537541	0.000286	20.764681
2423.649871	-3.000000	3.140100	-9.418900	27.568050	0.000284	20.775938
2424.649352	-3.033100	3.139100	-9.519100	27.588736	0.000284	20.762138
2425.654298	-3.000800	3.139800	-9.420800	27.607757	0.000283	20.765155
2426.650727	-3.014800	3.140400	-9.465500	27.657901	0.000285	20.775783
2427.659842	-3.009100	3.138400	-9.442800	27.675165	0.000284	20.769447
2428.649852	-3.007700	3.136700	-9.433800	27.682233	0.000283	20.771818
2429.652675	-3.004300	3.136800	-9.421400	27.665001	0.000283	20.762064
2430.653716	-2.996100	3.135000	-9.391900	27.665985	0.000283	20.754519
2431.655326	-3.003500	3.136500	-9.418000	27.691056	0.000281	20.759833
2432.652703	-3.025700	3.133200	-9.478800	27.664044	0.000282	20.767265
2433.652802	-3.023100	3.133400	-9.471000	27.631660	0.000281	20.761705
2434.653404	-2.996900	3.132800	-9.387500	27.599421	0.000281	20.742542
2435.654496	-3.017100	3.132100	-9.449100	27.613826	0.000279	20.756563
2436.655788	-2.989100	3.131600	-9.359400	27.619059	0.000279	20.736223
2437.653332	-3.008700	3.130900	-9.418800	27.662858	0.000280	20.758485
2438.656061	-3.010000	3.129400	-9.418600	27.702756	0.000278	20.769710
2439.655056	-2.994500	3.127800	-9.365700	27.751109	0.000278	20.744399
2440.655542	-2.984500	3.129400	-9.338500	27.769491	0.000278	20.767641
2441.656322	-2.996100	3.126500	-9.365600	27.768005	0.000278	20.743859
2442.655321	-3.000700	3.126500	-9.381100	27.772838	0.000278	20.759155
2443.657046	-2.969700	3.126900	-9.284600	27.773415	0.000277	20.751200
2444.657052	-2.977800	3.125500	-9.306100	27.759736	0.000279	20.738382
2445.658400	-3.010600	3.125800	-9.407400	27.758281	0.000278	20.766317
2446.662461	-2.972800	3.124800	-9.287700	27.765324	0.000277	20.762973
2447.659781	-3.020400	3.122700	-9.431300	27.753894	0.000278	20.727761
2448.659446	-2.993500	3.122600	-9.346900	27.771027	0.000274	20.769186
2449.659537	-3.001400	3.122300	-9.370600	27.761904	0.000274	20.766169
2450.658617	-2.987100	3.120800	-9.321200	27.799970	0.000275	20.752795
2451.661244	-2.983100	3.120200	-9.307200	27.779906	0.000276	20.763897
2452.659263	-3.013900	3.119800	-9.401300	27.784366	0.000274	20.764118
2453.663624	-2.996300	3.119400	-9.346100	27.799889	0.000275	20.767887
2454.659403	-2.981800	3.118000	-9.295800	27.814990	0.000272	20.768860
2455.658826	-2.994700	3.117400	-9.334200	27.844493	0.000273	20.746394
2456.664063	-2.985300	3.116600	-9.302900	27.836784	0.000274	20.744326
2457.659722	-3.010000	3.115300	-9.376000	27.842982	0.000273	20.747244
2458.661935	-3.012400	3.114200	-9.379400	27.819409	0.000273	20.743434
2459.661934	-3.009800	3.114000	-9.371300	27.796511	0.000272	20.754055
2460.663154	-2.988400	3.113000	-9.302000	27.758867	0.000271	20.754578
2461.663192	-3.000700	3.111500	-9.335500	27.792019	0.000273	20.738154
2462.665440	-3.005900	3.111700	-9.351700	27.762336	0.000272	20.754750
2463.663399	-2.977800	3.110900	-9.263100	27.727088	0.000271	20.739667
2464.663866	-2.995300	3.109800	-9.312300	27.720743	0.000270	20.766474
2465.663651	-3.005800	3.108500	-9.341600	27.747356	0.000270	20.735407
2466.666034	-3.005600	3.108300	-9.341500	27.708371	0.000268	20.758290
2467.665105	-3.000500	3.105600	-9.317600	27.738892	0.000270	20.756288
2468.664997	-3.023400	3.105400	-9.387100	27.776659	0.000270	20.749249
2469.665445	-3.013900	3.103600	-9.352700	27.772987	0.000270	20.736070
2470.666603	-3.026900	3.102700	-9.390400	27.759973	0.000269	20.741466
2471.665760	-3.002300	3.102100	-9.313000	27.757292	0.000268	20.734026
2472.668495	-2.969900	3.102700	-9.213400	27.752117	0.000268	20.736879
2473.665271	-3.003200	3.100100	-9.309300	27.718956	0.000269	20.740493
2474.669522	-2.994000	3.099100	-9.278000	27.664606	0.000269	20.743173
2475.668237	-3.015300	3.099600	-9.345200	27.627365	0.000267	20.736520
2476.668005	-3.014700	3.097300	-9.336200	27.561985	0.000269	20.740436
2477.672791	-2.992000	3.098500	-9.269700	27.576496	0.000266	20.728484
2478.667947	-3.000800	3.096000	-9.288700	27.582004	0.000265	20.723594
2479.668402	-2.999800	3.095100	-9.284700	27.591185	0.000266	20.721926
2480.668674	-2.987700	3.096700	-9.251600	27.607102	0.000267	20.697637
2481.672414	-3.007300	3.093000	-9.300400	27.620419	0.000267	20.754187
2482.669792	-2.994000	3.093000	-9.259400	27.637627	0.000266	20.727405
2483.672216	-3.007700	3.092600	-9.300700	27.679694	0.000266	20.723268
2484.668532	-2.989700	3.092400	-9.244300	27.749551	0.000266	20.719597
2485.668442	-2.989500	3.090400	-9.237400	27.812158	0.000266	20.738033
2486.668192	-2.989900	3.091200	-9.241600	27.826227	0.000267	20.723268
2487.668611	-2.971200	3.089300	-9.177500	27.854934	0.000267	20.730823
2488.670188	-3.014000	3.087000	-9.303100	27.852829	0.000264	20.724437
2489.667982	-3.011600	3.088300	-9.299500	27.812061	0.000263	20.717071
2490.670316	-3.022100	3.084600	-9.321100	27.821662	0.000264	20.737640
2491.669957	-2.987200	3.085000	-9.214600	27.823124	0.000264	20.710187
2492.669538	-2.962200	3.085000	-9.137100	27.838891	0.000263	20.727479
2493.670949	-2.989500	3.084500	-9.219900	27.851960	0.000264	20.724511
2494.670518	-3.003200	3.081400	-9.253300	27.876759	0.000264	20.706794
2495.669613	-2.983800	3.082000	-9.195000	27.869814	0.000262	20.713555
2496.669316	-2.977800	3.081200	-9.174500	27.884321	0.000265	20.722467
2497.668706	-2.960900	3.079000	-9.115700	27.908696	0.000265	20.728508
2498.669264	-3.001500	3.079100	-9.241200	27.921140	0.000264	20.719695
2499.670131	-3.018600	3.077400	-9.288000	27.887741	0.000264	20.689870
2500.670057	-3.007600	3.077100	-9.253200	27.826356	0.000265	20.719130
2501.673853	-2.994600	3.074400	-9.204200	27.794360	0.000262	20.720594
2502.670662	-2.989100	3.075600	-9.192100	27.784944	0.000264	20.719653
2503.671089	-2.990300	3.073300	-9.188900	27.802816	0.000265	20.712509
2504.674234	-3.002200	3.071600	-9.219600	27.808550	0.000265	20.716383
2505.671060	-2.983600	3.071800	-9.164400	27.723563	0.000265	20.716678
2506.671539	-2.999800	3.070100	-9.208200	27.750298	0.000264	20.710865
2507.672715	-3.004500	3.068300	-9.217900	27.760144	0.000264	20.715558
2508.672139	-3.012100	3.068700	-9.242200	27.808470	0.000263	20.712509
2509.673120	-2.992800	3.067900	-9.180900	27.816528	0.000263	20.705919
2510.676797	-2.990400	3.064700	-9.162900	27.841027	0.000265	20.709713
2511.673883	-2.984200	3.064800	-9.144900	27.833140	0.000263	20.695610
2512.674979	-3.008100	3.063400	-9.214000	27.836714	0.000262	20.717226
2513.677198	-3.015900	3.062900	-9.236700	27.824091	0.000261	20.705470
2514.676287	-3.016000	3.059800	-9.225500	27.779129	0.000262	20.708585
2515.677936	-3.036700	3.060500	-9.292100	27.697016	0.000261	20.717464
2516.676919	-3.022900	3.059200	-9.246600	27.673829	0.000259	20.724953
2517.679015	-3.019100	3.058900	-9.232700	27.658726	0.000260	20.698374
2518.677253	-3.011800	3.057300	-9.207600	27.650171	0.000261	20.713474
2519.677864	-3.015900	3.057500	-9.220500	27.645200	0.000260	20.706101
2520.679364	-2.991300	3.054900	-9.137200	27.632070	0.000260	20.702846
2521.679686	-2.997100	3.055200	-9.156300	27.616365	0.000262	20.711226
2522.679531	-2.987800	3.053500	-9.122500	27.588196	0.000259	20.719393
2523.680541	-3.023800	3.052200	-9.228300	27.572865	0.000261	20.699224
2524.681803	-2.993300	3.049600	-9.127500	27.539992	0.000261	20.711668
2525.680603	-3.009900	3.049600	-9.177200	27.502022	0.000261	20.715192
2526.683927	-2.964500	3.049600	-9.040000	27.522035	0.000260	20.717309
2527.680686	-2.978300	3.048300	-9.077400	27.491483	0.000261	20.693207
2528.682061	-3.021800	3.046000	-9.203100	27.514146	0.000260	20.704155
2529.681880	-2.984500	3.045800	-9.089200	27.526179	0.000261	20.716263
2530.681931	-3.001000	3.043400	-9.132500	27.570624	0.000261	20.718307
2531.688713	-2.983900	3.042600	-9.077100	27.623768	0.000261	20.704450
2532.682051	-3.018300	3.042300	-9.181000	27.661612	0.000257	20.715504
2533.681810	-3.009600	3.041400	-9.152700	27.697033	0.000258	20.706101
2534.682279	-3.000000	3.039600	-9.117900	27.673229	0.000259	20.682620
2535.682120	-3.007600	3.039000	-9.139200	27.669232	0.000260	20.703256
2536.683363	-3.002200	3.036700	-9.115600	27.630544	0.000263	20.700361
2537.685272	-3.036100	3.036000	-9.216200	27.602587	0.000261	20.727235
2538.682782	-3.013300	3.035200	-9.145000	27.622118	0.000261	20.705160
2539.684310	-2.998100	3.033500	-9.093500	27.639521	0.000261	20.695644
2540.683752	-3.003200	3.032100	-9.104700	27.717465	0.000258	20.707695
2541.687876	-2.996400	3.030500	-9.080100	27.742461	0.000258	20.695865
2542.687151	-3.009000	3.031800	-9.120700	27.773534	0.000258	20.703902
2543.683600	-2.996700	3.029300	-9.076400	27.787117	0.000259	20.731324
2544.685688	-2.989800	3.029000	-9.055400	27.806597	0.000260	20.704934
2545.684236	-2.984800	3.026900	-9.033400	27.866292	0.000261	20.715700
2546.685712	-3.026400	3.025700	-9.155400	27.881245	0.000258	20.695187
2547.686822	-2.990000	3.025600	-9.045100	27.899985	0.000260	20.696504
2548.686563	-2.969700	3.024500	-8.980900	27.883252	0.000260	20.695784
2549.688640	-2.991700	3.022700	-9.042300	27.895298	0.000259	20.708383
2550.687887	-3.000900	3.020600	-9.061900	27.896118	0.000259	20.698777
2551.690439	-3.016300	3.019900	-9.107900	27.863636	0.000261	20.694534
2552.690896	-2.990700	3.019100	-9.028700	27.826637	0.000259	20.708032
2553.692991	-2.972500	3.018700	-8.971500	27.838432	0.000258	20.694772
2554.691047	-2.984100	3.015600	-8.997700	27.846099	0.000260	20.724302
2555.691125	-3.017300	3.013700	-9.091900	27.881677	0.000257	20.732609
2556.690901	-3.005800	3.012900	-9.055300	27.898061	0.000258	20.702629
2557.690638	-2.982700	3.011800	-8.982600	27.885544	0.000259	20.695246
2558.694168	-2.995300	3.011100	-9.018300	27.842501	0.000259	20.690806
2559.691069	-2.987800	3.010100	-8.992400	27.818888	0.000257	20.722995
2560.694496	-3.000700	3.008400	-9.026200	27.796818	0.000257	20.696514
2561.691780	-2.999000	3.006400	-9.014400	27.776956	0.000257	20.722995
2562.691680	-3.015700	3.006400	-9.065000	27.833494	0.000256	20.695966
2563.695724	-3.028600	3.004400	-9.098100	27.912162	0.000258	20.697855
2564.716255	-3.026000	3.003100	-9.087100	27.957443	0.000258	20.695067
2565.691306	-2.977100	3.003200	-8.939300	28.009333	0.000257	20.698934
2566.693052	-3.000300	3.001200	-9.003700	28.046140	0.000257	20.698526
2567.693731	-3.011000	3.000200	-9.032100	28.065111	0.000256	20.717624
2568.693611	-2.981600	3.000200	-8.943800	28.106024	0.000258	20.700013
2569.697630	-2.998200	2.996400	-8.982900	28.113497	0.000257	20.691413
2570.693709	-3.026200	2.994200	-9.059300	28.131029	0.000256	20.688674
2571.700671	-3.004100	2.994400	-8.993600	28.126814	0.000255	20.723788
2572.695802	-2.984900	2.993900	-8.935600	28.052086	0.000257	20.725375
2573.695530	-2.995100	2.992200	-8.960800	28.065380	0.000256	20.696081
2574.700012	-2.985200	2.989900	-8.924500	28.098993	0.000256	20.709057
2575.696262	-3.000000	2.989000	-8.965800	28.097255	0.000258	20.718214
2576.695522	-2.992900	2.988600	-8.943700	28.078463	0.000257	20.701666
2577.697353	-2.990600	2.986600	-8.930300	28.073729	0.000256	20.714919
2578.697410	-2.994000	2.985000	-8.935200	28.108040	0.000256	20.721484
2579.697518	-2.991700	2.984600	-8.928200	28.124256	0.000256	20.712204
2580.700049	-2.992600	2.982600	-8.924700	28.115227	0.000257	20.705958
2581.698924	-2.989400	2.981300	-8.911600	28.131380	0.000257	20.705150
2582.699263	-2.986300	2.980300	-8.898900	28.128757	0.000256	20.707725
2583.698303	-3.008000	2.976500	-8.951200	28.163910	0.000257	20.713717
2584.698237	-3.007400	2.977500	-8.954000	28.144763	0.000256	20.720995
2585.698550	-2.973400	2.976400	-8.849500	28.156367	0.000256	20.711339
2586.698666	-2.979700	2.974700	-8.862800	28.144592	0.000255	20.717029
2587.699030	-2.985400	2.973200	-8.875700	28.133354	0.000257	20.712828
2588.699756	-2.992500	2.972600	-8.894100	28.156709	0.000255	20.713106
2589.700176	-3.018000	2.970400	-8.963400	28.122302	0.000257	20.719245
2590.701157	-3.029100	2.968400	-8.990300	28.172917	0.000256	20.705715
2591.699613	-2.982100	2.967500	-8.847600	28.171797	0.000256	20.721184
2592.699878	-3.008700	2.966000	-8.923000	28.206105	0.000254	20.722059
2593.699795	-2.992600	2.965500	-8.873100	28.224417	0.000256	20.731012
2594.701329	-3.002300	2.962600	-8.893600	28.185302	0.000254	20.737151
2595.700996	-3.006500	2.962500	-8.906600	28.184677	0.000255	20.732255
2596.702368	-3.002700	2.959300	-8.884000	28.176744	0.000256	20.721422
2597.701509	-3.013200	2.958100	-8.913000	28.162014	0.000254	20.720344
2598.702822	-3.001200	2.956900	-8.873300	28.209258	0.000255	20.738036
2599.700611	-3.005100	2.955400	-8.880300	28.244921	0.000257	20.712774
2600.700912	-2.984400	2.955200	-8.819000	28.272487	0.000255	20.724882
2601.706527	-3.011700	2.950900	-8.885600	28.300833	0.000256	20.728292
2602.701542	-3.023700	2.951400	-8.923500	28.261875	0.000255	20.734586
2603.700889	-3.019400	2.949200	-8.904000	28.230988	0.000256	20.732412
2604.702195	-3.024900	2.947500	-8.915000	28.262834	0.000257	20.733181
2605.701525	-3.017300	2.947600	-8.892200	28.272797	0.000258	20.727090
2606.704440	-2.987800	2.946700	-8.803500	28.278148	0.000256	20.728211
2607.705296	-2.996500	2.943100	-8.818400	28.280332	0.000256	20.723771
2608.703012	-2.968200	2.944200	-8.738200	28.285188	0.000257	20.721548
2609.702680	-3.043800	2.940200	-8.948900	28.254074	0.000256	20.747596
2610.702796	-3.013200	2.939100	-8.854400	28.241708	0.000257	20.743205
2611.700845	-3.033100	2.935300	-8.901600	28.167173	0.000255	20.742134
2612.706376	-2.982000	2.937000	-8.756700	28.136405	0.000256	20.725857
2613.701635	-3.017100	2.933100	-8.848100	28.127554	0.000257	20.748716
2614.702971	-3.008800	2.931600	-8.819300	28.138809	0.000255	20.742977
2615.703071	-3.035200	2.929900	-8.891600	28.119149	0.000255	20.737409
2616.702767	-3.024400	2.929500	-8.858800	28.134165	0.000255	20.734508
2617.704602	-3.018500	2.928100	-8.837500	28.146638	0.000256	20.739952
2618.704086	-2.970300	2.926000	-8.690100	28.160216	0.000258	20.734655
2619.702615	-2.991300	2.926800	-8.751900	28.176075	0.000255	20.742087
2620.703027	-3.021400	2.923700	-8.831700	28.150520	0.000255	20.732481
2621.703529	-3.005100	2.922800	-8.782900	28.153859	0.000254	20.750067
2622.703526	-3.025800	2.919400	-8.832400	28.141264	0.000255	20.736913
2623.706567	-2.997700	2.918300	-8.746700	28.074705	0.000256	20.751940
2624.704164	-3.001100	2.916500	-8.751700	28.069517	0.000255	20.733439
2625.705490	-3.015200	2.914700	-8.787800	28.057245	0.000255	20.748114
2626.704188	-3.000900	2.912800	-8.739900	28.048393	0.000254	20.731142
2627.704332	-3.027800	2.912100	-8.815300	28.022528	0.000255	20.750151
2628.705008	-2.993300	2.911000	-8.712000	28.033808	0.000256	20.745859
2629.705297	-3.026700	2.907900	-8.800500	28.029886	0.000254	20.734798
2630.704057	-2.984500	2.907700	-8.676800	28.044886	0.000255	20.744208
2631.704002	-3.008900	2.904500	-8.737500	28.067918	0.000256	20.763126
2632.705523	-2.991400	2.903100	-8.683800	28.105568	0.000255	20.746498
2633.705613	-2.992000	2.902200	-8.682400	28.125148	0.000254	20.765735
2634.709104	-2.984400	2.900800	-8.656700	28.137784	0.000255	20.750955
2635.705619	-3.016500	2.897400	-8.739200	28.128064	0.000253	20.756817
2636.707113	-3.004500	2.894900	-8.697500	28.161756	0.000255	20.753276
2637.706510	-3.001100	2.894000	-8.684600	28.144947	0.000253	20.748208
2638.706091	-3.016800	2.891500	-8.722400	28.121641	0.000256	20.765524
2639.710427	-2.978800	2.892200	-8.614200	28.075743	0.000256	20.758674
2640.708034	-2.969500	2.891300	-8.584200	28.086779	0.000255	20.752714
2641.711698	-2.975400	2.889100	-8.595200	28.114513	0.000257	20.752183
2642.709666	-2.984800	2.885100	-8.610900	28.142075	0.000253	20.751007
2643.708956	-2.999300	2.883500	-8.647800	28.202207	0.000255	20.755119
2644.713483	-2.995500	2.883700	-8.637200	28.241509	0.000254	20.774300
2645.711442	-2.985800	2.881700	-8.602800	28.265673	0.000255	20.762119
2646.709181	-2.984200	2.878400	-8.587500	28.245691	0.000253	20.753380
2647.708607	-2.983500	2.876800	-8.581100	28.199335	0.000253	20.740374
2648.709841	-2.965900	2.875500	-8.527300	28.141324	0.000255	20.779649
2649.716288	-3.023700	2.871800	-8.681400	28.107192	0.000254	20.752874
2650.712514	-2.995000	2.870100	-8.594900	28.089108	0.000254	20.771180
2651.711117	-2.999200	2.870200	-8.606100	28.077803	0.000254	20.766439
2652.713629	-3.018200	2.865500	-8.648000	28.072705	0.000255	20.780273
2653.710374	-3.018500	2.864800	-8.646300	28.070999	0.000256	20.792780
2654.711563	-3.016900	2.862200	-8.633900	28.089743	0.000255	20.770397
2655.715995	-3.018100	2.860000	-8.630800	28.114821	0.000255	20.787108
2656.710529	-2.991900	2.858500	-8.551400	28.184552	0.000255	20.786184
2657.711456	-2.979500	2.858000	-8.514100	28.205617	0.000254	20.783683
2658.712845	-2.985100	2.855900	-8.523700	28.250902	0.000252	20.788499
2659.713356	-2.994300	2.854500	-8.546400	28.271965	0.000254	20.770824
2660.712364	-3.023000	2.850000	-8.613800	28.281781	0.000255	20.767432
2661.714171	-3.005800	2.847500	-8.558200	28.295902	0.000253	20.798719
2662.714592	-2.978300	2.847400	-8.478400	28.312911	0.000254	20.773645
2663.713036	-2.991800	2.845600	-8.512500	28.342986	0.000254	20.779745
2664.713902	-2.993500	2.842200	-8.507200	28.386040	0.000254	20.785639
2665.713185	-2.971600	2.840400	-8.439100	28.438875	0.000252	20.774358
2666.718606	-2.992600	2.839500	-8.495900	28.428094	0.000253	20.757337
2667.714146	-2.994400	2.835700	-8.490700	28.443357	0.000254	20.785509
2668.716883	-2.976700	2.834400	-8.436600	28.452565	0.000255	20.795255
2669.714127	-2.997200	2.831800	-8.485500	28.501435	0.000254	20.770975
2670.714304	-3.004300	2.829700	-8.500300	28.501264	0.000255	20.777441
2671.715837	-3.011500	2.827000	-8.512300	28.534159	0.000252	20.796344
2672.713507	-3.018000	2.824800	-8.524900	28.540984	0.000255	20.789941
2673.714767	-3.028500	2.823400	-8.548600	28.516097	0.000255	20.791904
2674.715456	-3.025500	2.819800	-8.530300	28.480160	0.000255	20.797914
2675.715278	-3.032400	2.817800	-8.542300	28.467423	0.000253	20.779397
2676.713619	-2.987300	2.816700	-8.412300	28.497679	0.000255	20.780942
2677.720622	-3.000300	2.813500	-8.438200	28.516780	0.000256	20.797808
2678.715800	-2.977300	2.812200	-8.371500	28.506098	0.000255	20.786102
2679.716408	-2.999200	2.809100	-8.424100	28.470038	0.000255	20.795307
2680.713666	-2.988800	2.808000	-8.391100	28.449191	0.000256	20.789487
2681.715172	-2.969300	2.804700	-8.326900	28.452048	0.000255	20.811804
2682.719280	-3.003900	2.800500	-8.410700	28.451968	0.000255	20.793232
2683.715919	-3.020200	2.796800	-8.445400	28.449962	0.000256	20.806385
2684.718216	-2.997500	2.797500	-8.384700	28.398533	0.000254	20.801538
2685.715222	-3.010000	2.792800	-8.404800	28.367350	0.000255	20.807596
2686.713579	-3.002000	2.791500	-8.378500	28.346354	0.000255	20.811112
2687.719859	-2.957100	2.790300	-8.250500	28.291972	0.000253	20.803297
2688.716693	-3.025200	2.784400	-8.421500	28.318166	0.000255	20.803118
2689.716840	-3.025400	2.781400	-8.413200	28.351722	0.000252	20.782378
2690.729438	-2.967700	2.781100	-8.252600	28.365256	0.000255	20.802644
2691.716315	-2.999400	2.778700	-8.333400	28.372564	0.000254	20.791036
2692.717802	-2.995000	2.775500	-8.311600	28.369927	0.000254	20.806398
2693.718218	-3.017300	2.772300	-8.363700	28.413328	0.000254	20.810746
2694.718543	-2.997800	2.769600	-8.301500	28.454960	0.000254	20.802882
2695.718554	-2.994900	2.765500	-8.280600	28.519409	0.000255	20.806145
2696.719009	-3.003600	2.763600	-8.299800	28.543794	0.000254	20.816004
2697.720386	-2.982700	2.761800	-8.234800	28.568422	0.000253	20.803349
2698.719543	-2.990400	2.757900	-8.246400	28.546692	0.000252	20.824612
2699.718894	-2.956200	2.755700	-8.145000	28.546838	0.000253	20.823811
2700.720498	-2.975900	2.751900	-8.188500	28.555362	0.000256	20.806791
2701.719029	-3.005600	2.748800	-8.260900	28.578449	0.000256	20.821507
2702.720891	-3.009600	2.743900	-8.257700	28.592621	0.000254	20.799746
2703.722677	-3.001800	2.743000	-8.233100	28.627906	0.000255	20.833385
2704.721326	-3.031600	2.737500	-8.297500	28.675202	0.000254	20.801839
2705.720904	-3.026100	2.734500	-8.273700	28.725248	0.000254	20.830435
2706.721789	-2.970400	2.732900	-8.117000	28.747452	0.000255	20.826723
2707.721071	-3.024300	2.729500	-8.253500	28.728323	0.000254	20.808877
2708.720861	-2.986800	2.726800	-8.142900	28.718504	0.000255	20.813685
2709.721172	-2.966400	2.723900	-8.078200	28.744443	0.000254	20.817528
2710.726783	-3.001600	2.719700	-8.162100	28.780193	0.000255	20.836943
2711.721046	-2.957200	2.716900	-8.034000	28.803753	0.000254	20.816105
2712.720874	-3.008800	2.712100	-8.158800	28.816218	0.000253	20.840989
2713.722388	-3.006600	2.708000	-8.140800	28.771542	0.000254	20.803574
2714.727540	-3.009300	2.705700	-8.140600	28.770277	0.000254	20.825058
2715.724370	-2.971400	2.703200	-8.031600	28.777337	0.000255	20.810833
2716.728872	-3.007300	2.697000	-8.109900	28.750562	0.000254	20.864941
2717.729538	-2.995400	2.694900	-8.071500	28.808777	0.000254	20.823537
2718.731639	-2.990600	2.692200	-8.050100	28.764353	0.000254	20.835211
2719.729879	-2.972700	2.688400	-7.990500	28.707816	0.000254	20.828524
2720.730922	-2.971200	2.683700	-7.972700	28.667583	0.000253	20.823087
2721.734060	-3.000000	2.680000	-8.039000	28.615118	0.000254	20.844687
2722.732835	-2.975700	2.676300	-7.962400	28.562566	0.000255	20.830642
2723.733210	-3.002300	2.671500	-8.019100	28.500669	0.000253	20.827102
2724.729952	-3.008800	2.665800	-8.018500	28.475659	0.000255	20.835106
2725.732788	-3.006200	2.664000	-8.007300	28.449047	0.000254	20.829170
2726.734001	-2.974100	2.660200	-7.910400	28.468425	0.000254	20.827822
2727.731162	-3.026700	2.654000	-8.031800	28.475352	0.000254	20.841435
2728.734201	-2.981000	2.652100	-7.905000	28.470602	0.000256	20.836177
2729.734766	-2.996000	2.646600	-7.926900	28.487245	0.000256	20.825911
2730.731102	-3.026900	2.641300	-7.992300	28.507498	0.000254	20.842513
2731.736224	-3.006500	2.637200	-7.927100	28.515056	0.000256	20.832106
2732.739676	-3.001100	2.634100	-7.903400	28.582326	0.000256	20.853386
2733.737514	-3.034500	2.627500	-7.971600	28.595362	0.000256	20.842334
2734.733634	-2.999500	2.623800	-7.869400	28.644884	0.000254	20.842425
2735.737605	-2.996600	2.619800	-7.849300	28.670118	0.000255	20.839865
2736.740677	-2.939500	2.617200	-7.692100	28.691545	0.000254	20.834421
2737.734416	-2.985500	2.609600	-7.789900	28.747214	0.000254	20.835018
2738.742378	-2.988700	2.604800	-7.783100	28.745998	0.000255	20.841852
2739.734924	-2.993300	2.599300	-7.779800	28.707788	0.000254	20.853151
2740.735671	-2.957200	2.596700	-7.677000	28.665752	0.000254	20.860596
2741.741300	-2.996400	2.589300	-7.757200	28.659625	0.000253	20.843521
2742.739637	-2.999500	2.583800	-7.748900	28.652124	0.000253	20.854931
2743.735279	-2.999500	2.577800	-7.730900	28.681970	0.000254	20.857492
2744.738910	-3.018400	2.572000	-7.762400	28.733752	0.000253	20.848009
2745.739295	-2.990300	2.567500	-7.675500	28.756102	0.000254	20.866728
2746.736578	-2.977800	2.563100	-7.631600	28.831561	0.000252	20.868772
2747.735753	-2.984700	2.557600	-7.631300	28.883799	0.000256	20.856438
2748.740358	-2.955200	2.551900	-7.540900	28.858261	0.000254	20.857263
2749.739378	-3.007000	2.544600	-7.650700	28.785482	0.000255	20.837529
2750.736470	-2.992800	2.538600	-7.596100	28.763805	0.000254	20.843194
2751.740150	-3.019500	2.531600	-7.643600	28.701222	0.000254	20.843693
2752.736940	-2.978800	2.527200	-7.526000	28.680031	0.000253	20.860754
2753.739592	-2.985900	2.521500	-7.528300	28.729093	0.000256	20.863230
2754.736820	-3.019900	2.514200	-7.590100	28.746827	0.000254	20.873981
2755.740627	-3.019400	2.508100	-7.571400	28.803930	0.000257	20.869861
2756.737882	-3.021600	2.502300	-7.559900	28.859251	0.000254	20.875329
2757.741762	-3.001500	2.495800	-7.490500	28.954292	0.000257	20.865341
