LabVIEW Measurement	
Writer_Version	2
Reader_Version	2
Separator	Tab
Decimal_Separator	.
Multi_Headings	No
X_Columns	One
Time_Pref	Absolute
Operator	admin
Description	Clolumns are: time, Current, Voltage, Power, Battery Temp, and Chamber Temp
Date	2024/08/16
Time	13:06:06.104549407958984375
***End_of_Header***	
	
Channels	6						
Samples	1	1	1	1	1	1	
Date	2024/09/02	2024/09/02	2024/09/02	2024/09/02	2024/09/02	2024/09/02	
Time	03:22:58.1197409629821777344	03:22:58.1257424354553222656	03:22:58.1317448616027832031	03:22:58.1000895500183105469	03:22:58.1000895500183105469	03:22:58.1000895500183105469	
X_Dimension	Time	Time	Time	Time	Time	Time	
X0	0.0000000000000000E+0	0.0000000000000000E+0	0.0000000000000000E+0	0.0000000000000000E+0	0.0000000000000000E+0	0.0000000000000000E+0	
Delta_X	1.000000	1.000000	1.000000	1.000000	1.000000	1.000000	
***End_of_Header***							
X_Value	Untitled	Untitled 1	Untitled 2	Untitled 3	Untitled 4	Untitled 5	Comment
0.000000	0.008608	4.105200	0.035342	21.025123	0.000948	20.792336
0.999658	-3.011600	3.938000	-11.859000	21.045764	0.000947	20.806343
1.995445	-3.029600	3.929700	-11.904000	21.017972	0.000948	20.801779
3.000053	-2.996700	3.925700	-11.763000	21.007055	0.000947	20.804610
4.000434	-3.005900	3.920100	-11.783000	21.019369	0.000946	20.778046
5.001177	-2.992000	3.917300	-11.719000	21.032962	0.000946	20.790220
5.998846	-2.981700	3.915000	-11.673000	21.044622	0.000944	20.778648
7.002964	-3.012500	3.911700	-11.784000	21.037420	0.000944	20.789463
7.999553	-2.999600	3.909100	-11.723000	21.033833	0.000943	20.779711
8.999944	-3.007000	3.906200	-11.746000	21.044916	0.000943	20.780365
10.001891	-2.993600	3.906700	-11.694000	21.043763	0.000940	20.792962
11.000174	-2.980200	3.903500	-11.632000	21.049386	0.000939	20.799534
12.001382	-2.997200	3.902500	-11.695000	21.047375	0.000940	20.782350
13.007378	-3.025000	3.900200	-11.796000	21.044223	0.000937	20.789154
14.005242	-3.010100	3.901300	-11.742000	21.058650	0.000937	20.790308
15.002001	-2.996400	3.898500	-11.681000	21.061148	0.000939	20.779057
16.007435	-3.002500	3.897100	-11.701000	21.079482	0.000937	20.768471
17.002063	-2.998500	3.897700	-11.687000	21.076252	0.000935	20.766189
18.002266	-2.999800	3.895500	-11.685000	21.055894	0.000935	20.770482
19.006529	-2.996400	3.894700	-11.668000	21.074767	0.000936	20.790308
20.004524	-3.007200	3.893900	-11.707000	21.071589	0.000933	20.766266
21.002556	-2.998600	3.893600	-11.675000	21.094291	0.000933	20.783285
22.006455	-3.010100	3.891400	-11.713000	21.091088	0.000931	20.772019
23.003539	-2.990200	3.890700	-11.633000	21.110523	0.000934	20.762536
24.004373	-3.012500	3.889500	-11.716000	21.100594	0.000933	20.782477
25.008948	-2.993500	3.889400	-11.642000	21.110677	0.000932	20.786398
26.006123	-3.010700	3.889300	-11.708000	21.111919	0.000931	20.758717
27.005481	-3.008700	3.886200	-11.691000	21.105014	0.000931	20.787372
28.008175	-3.028300	3.886500	-11.769000	21.111357	0.000931	20.779491
29.006433	-3.003100	3.885200	-11.666000	21.127870	0.000929	20.769931
30.010663	-3.004600	3.885900	-11.674000	21.104540	0.000929	20.789269
31.011115	-3.024400	3.884400	-11.746000	21.110114	0.000929	20.780145
32.009385	-2.993500	3.883300	-11.624000	21.141528	0.000928	20.772213
33.007081	-2.996300	3.884700	-11.639000	21.142116	0.000927	20.774224
34.010255	-3.012100	3.883300	-11.695000	21.148818	0.000930	20.765281
35.008900	-2.993700	3.883400	-11.624000	21.140874	0.000926	20.761128
36.008315	-2.999900	3.882300	-11.646000	21.162307	0.000927	20.764549
37.009516	-3.000800	3.881100	-11.645000	21.188197	0.000926	20.767215
38.011493	-2.992800	3.879700	-11.609000	21.174799	0.000926	20.768985
39.010335	-3.007400	3.880100	-11.668000	21.176887	0.000926	20.753055
40.009046	-2.990400	3.882000	-11.608000	21.181755	0.000925	20.779737
41.010561	-3.027000	3.879000	-11.740000	21.172173	0.000924	20.767780
42.012125	-2.992900	3.879100	-11.609000	21.205980	0.000924	20.764141
43.012071	-3.009700	3.878100	-11.671000	21.189685	0.000923	20.747839
44.009873	-3.000100	3.879300	-11.637000	21.200498	0.000923	20.774778
45.010669	-2.999200	3.877800	-11.629000	21.200561	0.000923	20.768203
46.010446	-3.002700	3.876800	-11.640000	21.199716	0.000922	20.769728
47.010002	-2.993000	3.877700	-11.604000	21.204378	0.000921	20.781979
48.011265	-3.021100	3.875900	-11.709000	21.226028	0.000923	20.783722
49.011096	-2.988200	3.877500	-11.586000	21.218789	0.000923	20.768420
50.011051	-2.998500	3.875700	-11.620000	21.249712	0.000922	20.781337
51.009207	-2.994100	3.874500	-11.599000	21.248970	0.000921	20.766843
52.011537	-2.997100	3.876600	-11.617000	21.257821	0.000922	20.764318
53.015413	-3.001800	3.874800	-11.630000	21.273333	0.000922	20.762767
54.011115	-3.008300	3.874300	-11.655000	21.277716	0.000922	20.777109
55.010685	-3.011700	3.874400	-11.668000	21.289639	0.000918	20.763433
56.015505	-3.023900	3.872400	-11.708000	21.287027	0.000922	20.768880
57.014554	-3.006600	3.874200	-11.647000	21.284466	0.000921	20.771533
58.012522	-2.997300	3.873400	-11.609000	21.304332	0.000920	20.773865
59.012429	-2.994600	3.873100	-11.597000	21.295878	0.000920	20.777261
60.015976	-2.994600	3.873000	-11.597000	21.329182	0.000921	20.773122
61.011584	-2.989800	3.872600	-11.577000	21.342989	0.000921	20.774607
62.017055	-3.012100	3.871700	-11.661000	21.320894	0.000920	20.769097
63.015224	-3.010000	3.871300	-11.652000	21.340862	0.000919	20.791920
64.012293	-2.995100	3.871100	-11.592000	21.339980	0.000920	20.768752
65.016125	-3.011500	3.868900	-11.649000	21.359205	0.000918	20.780874
66.013526	-3.012100	3.870300	-11.657000	21.356182	0.000917	20.775953
67.012897	-2.998600	3.869700	-11.602000	21.373526	0.000919	20.783348
68.015107	-3.024800	3.867900	-11.699000	21.373423	0.000918	20.758589
69.018630	-2.990600	3.869200	-11.569000	21.354903	0.000919	20.783682
70.015290	-3.012600	3.869300	-11.656000	21.370374	0.000918	20.791100
71.015706	-3.005300	3.868900	-11.626000	21.364958	0.000918	20.775724
72.018912	-2.984300	3.869700	-11.548000	21.362434	0.000919	20.779363
73.015273	-2.991800	3.868500	-11.573000	21.383760	0.000918	20.784105
74.019123	-3.007900	3.867100	-11.630000	21.389319	0.000918	20.779235
75.020050	-3.007600	3.867400	-11.631000	21.399873	0.000918	20.791691
76.019033	-2.988100	3.867300	-11.555000	21.414616	0.000916	20.793165
77.019558	-2.988100	3.867700	-11.557000	21.426501	0.000918	20.780874
78.019633	-3.010700	3.864800	-11.634000	21.427911	0.000919	20.770431
79.018143	-3.002100	3.867700	-11.610000	21.438976	0.000918	20.792408
80.021182	-3.012000	3.865600	-11.642000	21.447149	0.000919	20.778300
81.019268	-3.014500	3.864900	-11.650000	21.458688	0.000917	20.764241
82.020204	-2.993000	3.865900	-11.570000	21.468728	0.000920	20.787090
83.022035	-3.006600	3.865500	-11.620000	21.433597	0.000918	20.786552
84.022544	-3.001200	3.865500	-11.600000	21.466373	0.000917	20.789949
85.024690	-3.015100	3.864300	-11.650000	21.482036	0.000916	20.784284
86.023409	-2.997200	3.864200	-11.580000	21.470612	0.000918	20.773802
87.022112	-2.990800	3.865100	-11.558000	21.493960	0.000919	20.795267
88.021150	-3.025100	3.862600	-11.683000	21.479744	0.000920	20.794319
89.022279	-3.010600	3.862400	-11.627000	21.467052	0.000918	20.790154
90.021702	-3.007200	3.863000	-11.615000	21.492450	0.000917	20.779531
91.022852	-3.000500	3.865000	-11.596000	21.474762	0.000918	20.778429
92.023011	-3.015700	3.863300	-11.649000	21.519551	0.000918	20.796218
93.023788	-3.014600	3.861100	-11.639000	21.517322	0.000918	20.783082
94.024234	-2.996200	3.861700	-11.569000	21.545547	0.000917	20.807532
95.023553	-3.007500	3.862900	-11.616000	21.546957	0.000918	20.801356
96.024730	-3.002300	3.863100	-11.597000	21.547174	0.000918	20.781659
97.022977	-2.976100	3.862300	-11.494000	21.560122	0.000918	20.802202
98.024946	-2.998600	3.862000	-11.580000	21.556934	0.000916	20.802805
99.026280	-3.005000	3.862900	-11.608000	21.570778	0.000917	20.804804
100.026621	-3.007400	3.860400	-11.608000	21.601742	0.000918	20.780788
101.027563	-2.999100	3.860900	-11.578000	21.591512	0.000918	20.806586
102.025321	-2.999900	3.860100	-11.578000	21.596864	0.000917	20.785863
103.026070	-3.003500	3.861100	-11.595000	21.595008	0.000917	20.817197
104.026787	-2.999300	3.861400	-11.581000	21.585352	0.000921	20.807060
105.024002	-3.007400	3.859600	-11.605000	21.614741	0.000920	20.802805
106.026870	-2.990700	3.859900	-11.543000	21.613140	0.000921	20.802625
107.028408	-2.991200	3.859200	-11.543000	21.618994	0.000919	20.787620
108.027879	-3.011500	3.857900	-11.616000	21.630171	0.000919	20.796909
109.028217	-3.004600	3.859000	-11.594000	21.639636	0.000919	20.806855
110.032361	-3.017900	3.858900	-11.644000	21.634501	0.000920	20.793655
111.028786	-2.996900	3.858700	-11.563000	21.647768	0.000919	20.800294
112.029296	-2.997300	3.859100	-11.566000	21.664979	0.000919	20.820362
113.028666	-3.003900	3.857700	-11.587000	21.654989	0.000921	20.814158
114.028615	-2.986000	3.857200	-11.517000	21.676515	0.000919	20.799191
115.028589	-3.015800	3.857600	-11.632000	21.674121	0.000918	20.805329
116.028204	-2.990800	3.858300	-11.538000	21.705864	0.000919	20.805804
117.026940	-2.974000	3.858900	-11.476000	21.705647	0.000920	20.797052
118.028952	-2.998300	3.856600	-11.562000	21.715751	0.000919	20.790093
119.030089	-2.988700	3.857300	-11.528000	21.704149	0.000920	20.813570
120.030078	-3.005900	3.856300	-11.590000	21.710474	0.000920	20.804253
121.030148	-3.015300	3.856400	-11.626000	21.735558	0.000920	20.805649
122.029113	-2.986900	3.856900	-11.517000	21.728081	0.000920	20.798166
123.037356	-2.977600	3.857700	-11.486000	21.720012	0.000920	20.824704
124.038316	-3.002200	3.856900	-11.578000	21.724827	0.000920	20.836160
125.034069	-3.005000	3.855900	-11.586000	21.718628	0.000922	20.824267
126.036506	-2.996400	3.857100	-11.556000	21.742203	0.000920	20.816092
127.037454	-3.006200	3.856100	-11.592000	21.749283	0.000919	20.817489
128.034274	-2.991200	3.855100	-11.530000	21.796057	0.000920	20.821628
129.036662	-2.988500	3.854900	-11.519000	21.780526	0.000923	20.832636
130.037387	-3.002300	3.856200	-11.576000	21.775352	0.000923	20.817975
131.035997	-3.019400	3.855300	-11.639000	21.802957	0.000922	20.820000
132.042414	-3.002200	3.854200	-11.569000	21.809821	0.000922	20.825921
133.039665	-3.017000	3.853100	-11.624000	21.829295	0.000923	20.816489
134.036790	-3.012200	3.852700	-11.603000	21.829755	0.000923	20.825958
135.040464	-2.995500	3.853400	-11.542000	21.840856	0.000923	20.817155
136.043147	-2.998700	3.853800	-11.555000	21.833482	0.000924	20.834430
137.041828	-3.033500	3.852300	-11.685000	21.834249	0.000923	20.829034
138.041434	-3.009400	3.853900	-11.597000	21.857179	0.000924	20.837286
139.043454	-2.996600	3.854000	-11.547000	21.863209	0.000922	20.817718
140.042374	-3.006000	3.853200	-11.582000	21.868164	0.000924	20.835004
141.040418	-3.005400	3.853300	-11.579000	21.866833	0.000924	20.817078
142.043171	-2.991900	3.852300	-11.525000	21.874399	0.000925	20.827969
143.044979	-2.991900	3.853200	-11.527000	21.863132	0.000924	20.827124
144.046601	-2.991300	3.853300	-11.525000	21.884193	0.000925	20.831608
145.045979	-2.994000	3.851700	-11.531000	21.897251	0.000925	20.820023
146.043221	-3.010700	3.851800	-11.597000	21.897111	0.000924	20.825573
147.046694	-2.999600	3.851800	-11.552000	21.896637	0.000926	20.830314
148.048723	-3.011200	3.850000	-11.591000	21.888647	0.000926	20.828007
149.043672	-3.010800	3.851300	-11.594000	21.896292	0.000926	20.828546
150.046586	-2.999900	3.850800	-11.551000	21.920296	0.000925	20.832659
151.044758	-2.976000	3.852400	-11.463000	21.918056	0.000927	20.826150
152.044980	-2.996000	3.850800	-11.536000	21.927325	0.000928	20.841117
153.048636	-3.020000	3.849200	-11.624000	21.936607	0.000926	20.824804
154.046685	-3.008000	3.849500	-11.579000	21.945747	0.000929	20.843436
155.048366	-3.019900	3.849200	-11.623000	21.973951	0.000928	20.830417
156.048276	-2.997400	3.849100	-11.536000	21.967037	0.000927	20.838669
157.052600	-2.991400	3.851700	-11.520000	21.984768	0.000927	20.866374
158.051107	-3.001700	3.849300	-11.553000	21.966832	0.000926	20.837989
159.049132	-2.992100	3.849500	-11.516000	21.999823	0.000929	20.850151
160.048621	-2.974000	3.849300	-11.447000	22.002599	0.000927	20.835387
161.049478	-2.994000	3.849400	-11.525000	22.002163	0.000927	20.860554
162.050387	-2.994700	3.849200	-11.525000	22.005019	0.000929	20.852508
163.048839	-3.002900	3.846600	-11.550000	22.021328	0.000929	20.850342
164.047814	-2.987200	3.849100	-11.497000	22.028739	0.000930	20.853019
165.049854	-2.970500	3.849600	-11.433000	22.044523	0.000929	20.844165
166.048284	-2.985400	3.847700	-11.486000	22.054444	0.000930	20.852673
167.049319	-3.000500	3.847700	-11.544000	22.076576	0.000931	20.855864
168.051528	-3.007000	3.846600	-11.565000	22.058373	0.000931	20.850917
169.056095	-3.011300	3.846200	-11.582000	22.083463	0.000932	20.867974
170.049987	-3.020200	3.847200	-11.618000	22.080813	0.000932	20.861528
171.050430	-3.030000	3.845200	-11.650000	22.091104	0.000932	20.857606
172.049982	-3.019900	3.846300	-11.615000	22.092525	0.000931	20.850494
173.049390	-3.000700	3.846500	-11.542000	22.091487	0.000934	20.857041
174.050716	-2.990400	3.846500	-11.502000	22.115028	0.000933	20.864013
175.050004	-2.991900	3.845900	-11.506000	22.098297	0.000934	20.849635
176.050114	-2.990700	3.845500	-11.500000	22.101036	0.000933	20.861385
177.051724	-2.993600	3.845300	-11.510000	22.099193	0.000935	20.854799
178.052673	-2.979300	3.846300	-11.458000	22.098220	0.000935	20.862359
179.052991	-2.996600	3.845900	-11.524000	22.103610	0.000935	20.881978
180.054059	-3.003700	3.845600	-11.549000	22.122258	0.000935	20.868406
181.053793	-2.993800	3.846000	-11.513000	22.152543	0.000936	20.864587
182.052123	-3.013900	3.843700	-11.584000	22.160608	0.000936	20.859860
183.057141	-2.984900	3.845500	-11.477000	22.170399	0.000937	20.867292
184.051571	-3.004000	3.844700	-11.549000	22.179257	0.000939	20.870945
185.052973	-2.983900	3.845800	-11.474000	22.179243	0.000938	20.861922
186.058581	-3.011600	3.841800	-11.569000	22.186949	0.000937	20.863473
187.053496	-2.991400	3.842500	-11.494000	22.209681	0.000939	20.872956
188.053708	-2.999700	3.844100	-11.530000	22.212842	0.000937	20.871379
189.057137	-3.008900	3.843700	-11.564000	22.210922	0.000939	20.867086
190.054537	-2.988700	3.843300	-11.485000	22.214468	0.000939	20.867318
191.054056	-2.998000	3.843900	-11.523000	22.222122	0.000941	20.866921
192.055404	-3.003200	3.841600	-11.536000	22.218846	0.000941	20.891140
193.054823	-3.013500	3.841300	-11.576000	22.215606	0.000940	20.887896
194.054646	-3.010800	3.840700	-11.563000	22.219959	0.000941	20.874238
195.056700	-2.995000	3.841600	-11.504000	22.210590	0.000943	20.867229
196.054945	-3.001600	3.841800	-11.530000	22.230697	0.000943	20.887833
197.056687	-2.994100	3.842500	-11.504000	22.253544	0.000941	20.882735
198.059550	-2.995300	3.841500	-11.505000	22.253288	0.000942	20.877737
199.055397	-2.985000	3.842400	-11.468000	22.295895	0.000944	20.873458
200.055116	-2.995600	3.840300	-11.503000	22.288598	0.000941	20.901237
201.058044	-3.005000	3.839500	-11.536000	22.283763	0.000944	20.876482
202.057542	-2.999300	3.840800	-11.518000	22.311291	0.000944	20.874175
203.057236	-3.003200	3.839400	-11.529000	22.292261	0.000945	20.884991
204.059082	-3.005400	3.840200	-11.540000	22.284211	0.000948	20.909645
205.056907	-3.003000	3.839900	-11.530000	22.306966	0.000946	20.887387
206.056284	-3.003300	3.838400	-11.527000	22.314311	0.000945	20.884785
207.059322	-3.017600	3.838500	-11.581000	22.343478	0.000945	20.879379
208.059661	-2.980400	3.839400	-11.441000	22.339973	0.000948	20.894833
209.057474	-3.005600	3.839000	-11.537000	22.363149	0.000947	20.888170
210.061091	-3.001800	3.837900	-11.520000	22.346436	0.000949	20.897512
211.057217	-2.999400	3.838600	-11.513000	22.357199	0.000948	20.899754
212.057184	-3.002500	3.838700	-11.524000	22.346334	0.000950	20.913529
213.059471	-2.980300	3.838500	-11.439000	22.325795	0.000947	20.890594
214.056600	-3.013100	3.838600	-11.565000	22.336621	0.000951	20.892425
215.057780	-2.992600	3.837900	-11.484000	22.356100	0.000951	20.876370
216.056002	-3.024100	3.837100	-11.601000	22.340178	0.000950	20.901676
217.060429	-3.040400	3.836400	-11.663000	22.365276	0.000949	20.904049
218.057219	-3.019900	3.836000	-11.583000	22.337813	0.000951	20.906894
219.059666	-3.003300	3.836600	-11.522000	22.377856	0.000951	20.903369
220.057592	-3.012200	3.836200	-11.554000	22.376563	0.000950	20.914876
221.056088	-2.998300	3.836000	-11.500000	22.381427	0.000952	20.903152
222.061877	-2.987900	3.837800	-11.466000	22.418014	0.000954	20.912763
223.059636	-2.978200	3.836700	-11.425000	22.415800	0.000956	20.902961
224.057716	-2.977500	3.836800	-11.423000	22.413382	0.000955	20.909547
225.058335	-2.974100	3.837200	-11.410000	22.424477	0.000954	20.923027
226.057901	-2.998400	3.836700	-11.502000	22.444759	0.000956	20.911572
227.057954	-3.006800	3.834800	-11.530000	22.448228	0.000954	20.923104
228.062498	-2.995300	3.835000	-11.486000	22.463404	0.000955	20.904166
229.062212	-3.002500	3.833000	-11.507000	22.470903	0.000954	20.918786
230.061915	-3.002000	3.835600	-11.512000	22.476470	0.000956	20.919146
231.061408	-2.995500	3.833300	-11.481000	22.488857	0.000955	20.923490
232.062675	-2.991900	3.834700	-11.472000	22.499783	0.000957	20.902666
233.061418	-3.001900	3.833300	-11.505000	22.481858	0.000958	20.951564
234.061749	-3.009200	3.832500	-11.532000	22.506323	0.000958	20.920594
235.062600	-3.003800	3.835000	-11.518000	22.507013	0.000958	20.925552
236.061951	-3.007500	3.834400	-11.532000	22.501064	0.000959	20.937136
237.064342	-3.009600	3.832800	-11.535000	22.504891	0.000961	20.926271
238.064713	-2.985600	3.833900	-11.445000	22.494450	0.000960	20.929564
239.063880	-2.991300	3.832400	-11.462000	22.482140	0.000960	20.927668
240.064281	-2.992400	3.831700	-11.465000	22.482588	0.000960	20.942339
241.063339	-2.991100	3.832700	-11.463000	22.499441	0.000961	20.935036
242.063918	-3.014000	3.832100	-11.549000	22.526516	0.000964	20.926591
243.066168	-3.003500	3.832200	-11.508000	22.503049	0.000963	20.931538
244.064425	-3.005600	3.831400	-11.515000	22.531327	0.000964	20.938995
245.065151	-2.999100	3.830600	-11.487000	22.536754	0.000963	20.917406
246.068229	-3.000300	3.831700	-11.495000	22.535882	0.000961	20.937867
247.064586	-2.998200	3.831000	-11.486000	22.544226	0.000963	20.945275
248.066293	-3.004700	3.830700	-11.509000	22.564262	0.000964	20.936893
249.066843	-3.014600	3.830100	-11.545000	22.548217	0.000964	20.927936
250.066115	-3.011500	3.831400	-11.537000	22.562331	0.000966	20.943493
251.065771	-3.030100	3.829600	-11.604000	22.568408	0.000964	20.933934
252.067504	-3.009500	3.829600	-11.524000	22.565465	0.000965	20.936676
253.065127	-2.995700	3.829300	-11.471000	22.571759	0.000966	20.943927
254.067458	-3.014500	3.828600	-11.538000	22.595995	0.000967	20.954922
255.067083	-3.000300	3.829700	-11.489000	22.637651	0.000969	20.944016
256.065253	-3.022500	3.827200	-11.567000	22.635464	0.000968	20.944196
257.066918	-3.010800	3.828500	-11.526000	22.631229	0.000968	20.951333
258.066030	-3.010100	3.828700	-11.523000	22.610873	0.000970	20.956074
259.065293	-2.998100	3.827600	-11.474000	22.626047	0.000970	20.958470
260.067067	-3.001600	3.828700	-11.492000	22.633864	0.000970	20.945438
261.069809	-2.997400	3.828700	-11.475000	22.634900	0.000972	20.955009
262.066987	-2.973200	3.828500	-11.382000	22.627043	0.000974	20.961363
263.069223	-2.987400	3.829000	-11.438000	22.600941	0.000972	20.958453
264.066566	-3.004300	3.827100	-11.496000	22.619802	0.000973	20.940837
265.066151	-2.988700	3.827400	-11.437000	22.640732	0.000972	20.950420
266.067176	-2.992000	3.828400	-11.453000	22.655726	0.000972	20.955006
267.069490	-3.010100	3.826400	-11.516000	22.679127	0.000973	20.939567
268.067972	-2.984000	3.828200	-11.422000	22.683949	0.000974	20.973790
269.068329	-3.002300	3.826700	-11.488000	22.690679	0.000972	20.946396
270.066939	-3.012900	3.826100	-11.527000	22.698955	0.000974	20.935720
271.065783	-2.987000	3.826400	-11.428000	22.702756	0.000976	20.962284
272.067393	-2.999000	3.826200	-11.475000	22.698444	0.000974	20.964128
273.066718	-3.002600	3.826000	-11.487000	22.704584	0.000976	20.949418
274.067062	-3.009600	3.825800	-11.512000	22.703600	0.000976	20.947958
275.073460	-2.999600	3.824300	-11.471000	22.684985	0.000979	20.938796
276.068406	-2.988800	3.825400	-11.432000	22.683206	0.000978	20.955504
277.071273	-2.982800	3.825200	-11.409000	22.682860	0.000980	20.947573
278.069061	-3.008000	3.824100	-11.501000	22.706760	0.000980	20.937848
279.069513	-3.009800	3.824000	-11.508000	22.742324	0.000980	20.950712
280.073446	-3.008100	3.823100	-11.499000	22.756179	0.000981	20.945625
281.069617	-2.993900	3.823500	-11.447000	22.763932	0.000981	20.949123
282.073307	-3.025700	3.821700	-11.562000	22.741084	0.000980	20.933824
283.070887	-3.010000	3.822400	-11.505000	22.749194	0.000983	20.945739
284.071974	-3.003300	3.822300	-11.477000	22.764571	0.000982	20.935066
285.074764	-3.000300	3.823500	-11.470000	22.777850	0.000984	20.947893
286.074862	-3.007200	3.821000	-11.489000	22.785834	0.000983	20.926021
287.074954	-3.003500	3.822400	-11.480000	22.804613	0.000984	20.938194
288.071546	-2.993400	3.821900	-11.440000	22.796515	0.000984	20.922023
289.073036	-2.991000	3.821800	-11.430000	22.782008	0.000986	20.948264
290.072639	-2.984000	3.821300	-11.402000	22.774845	0.000988	20.927341
291.077193	-2.997500	3.821500	-11.452000	22.816868	0.000986	20.934824
292.072546	-2.982100	3.820800	-11.392000	22.788112	0.000986	20.944422
293.074481	-2.977400	3.821300	-11.377000	22.810741	0.000988	20.917782
294.074553	-3.000800	3.820700	-11.464000	22.811214	0.000987	20.913989
295.074574	-3.006800	3.819700	-11.484000	22.817150	0.000986	20.913297
296.075452	-2.971900	3.820900	-11.355000	22.807621	0.000988	20.926983
297.074640	-3.001700	3.819500	-11.463000	22.845677	0.000989	20.920538
298.075830	-3.009700	3.818800	-11.493000	22.843259	0.000988	20.909108
299.074668	-3.016800	3.818900	-11.519000	22.827486	0.000988	20.908479
300.075683	-2.996500	3.819100	-11.443000	22.829316	0.000989	20.909839
301.076892	-3.012200	3.820200	-11.506000	22.848146	0.000990	20.923485
302.080306	-3.011900	3.818100	-11.499000	22.865658	0.000992	20.924433
303.075590	-3.009900	3.819100	-11.493000	22.867346	0.000991	20.901945
304.077817	-2.984400	3.819100	-11.397000	22.858405	0.000993	20.916693
305.077629	-3.002100	3.818400	-11.463000	22.864315	0.000993	20.911709
306.077961	-3.026700	3.817000	-11.552000	22.856269	0.000990	20.909813
307.080397	-2.992800	3.817600	-11.424000	22.864327	0.000995	20.899868
308.077471	-3.008200	3.817100	-11.481000	22.877861	0.000993	20.909159
309.079047	-3.004500	3.817900	-11.469000	22.891843	0.000994	20.901356
310.077394	-3.004600	3.817800	-11.469000	22.912987	0.000995	20.886504
311.076477	-2.992200	3.817400	-11.422000	22.926098	0.000994	20.911492
312.077130	-3.007000	3.817300	-11.477000	22.919792	0.000995	20.899485
313.080560	-3.018000	3.817200	-11.518000	22.925240	0.000997	20.923908
314.077328	-2.996000	3.816600	-11.433000	22.940168	0.000997	20.903304
315.078365	-2.990500	3.816000	-11.411000	22.917514	0.000996	20.912375
316.076736	-3.005600	3.816500	-11.470000	22.900425	0.001000	20.903316
317.075917	-3.008400	3.815100	-11.476000	22.899849	0.000996	20.908428
318.081229	-2.988200	3.816800	-11.405000	22.915034	0.000998	20.884762
319.078048	-3.020400	3.815000	-11.522000	22.915544	0.000996	20.886696
320.078176	-2.993900	3.813900	-11.417000	22.906808	0.000998	20.898806
321.078976	-2.979200	3.815000	-11.365000	22.882850	0.000999	20.903727
322.078258	-2.996600	3.815500	-11.432000	22.877619	0.000999	20.895167
323.083697	-2.993800	3.815100	-11.421000	22.871503	0.000998	20.890463
324.078351	-3.006100	3.812700	-11.460000	22.922452	0.000999	20.917322
325.079822	-3.010200	3.811800	-11.473000	22.910543	0.001001	20.874574
326.079323	-3.009300	3.813200	-11.472000	22.924396	0.000999	20.887504
327.079772	-3.022800	3.811400	-11.521000	22.906079	0.001001	20.901393
328.079640	-3.014700	3.811800	-11.491000	22.919727	0.001001	20.881403
329.079860	-3.013900	3.811400	-11.486000	22.948379	0.001003	20.904418
330.080246	-2.997000	3.814500	-11.432000	22.936023	0.001002	20.883031
331.080940	-3.014500	3.811800	-11.490000	22.963024	0.001005	20.896332
332.080338	-2.984500	3.813300	-11.380000	22.975483	0.001004	20.885582
333.080519	-2.988300	3.811900	-11.390000	22.971454	0.001003	20.894821
334.081559	-3.005500	3.811100	-11.453000	22.980637	0.001003	20.896909
335.079838	-3.004100	3.810900	-11.447000	22.970032	0.001005	20.878225
336.084270	-2.991200	3.812700	-11.403000	22.960108	0.001006	20.903841
337.080389	-3.001900	3.810800	-11.438000	22.956693	0.001006	20.884300
338.080306	-3.000900	3.810600	-11.435000	22.953559	0.001005	20.885902
339.083332	-3.014800	3.810000	-11.485000	22.942534	0.001007	20.881969
340.081065	-2.990600	3.810600	-11.395000	22.933183	0.001008	20.887773
341.081451	-3.013200	3.810800	-11.482000	22.934079	0.001006	20.885351
342.080769	-3.010700	3.810300	-11.470000	22.953021	0.001008	20.875880
343.080041	-2.990400	3.811000	-11.394000	22.973525	0.001009	20.901636
344.081160	-3.008700	3.807500	-11.455000	22.963267	0.001009	20.882352
345.082539	-3.014100	3.808900	-11.479000	22.965391	0.001009	20.891591
346.082062	-3.001900	3.808800	-11.432000	22.992403	0.001010	20.891629
347.091030	-3.000800	3.808600	-11.427000	22.997788	0.001011	20.895127
348.081309	-3.001800	3.807800	-11.429000	22.999182	0.001011	20.870447
349.080542	-2.999300	3.807900	-11.420000	23.020888	0.001010	20.886030
350.087607	-2.995800	3.808100	-11.407000	23.009414	0.001011	20.881646
351.083242	-2.992900	3.808100	-11.397000	23.030544	0.001012	20.862516
352.083723	-3.006000	3.807300	-11.444000	23.067007	0.001011	20.860645
353.085096	-3.022400	3.806300	-11.502000	23.063247	0.001011	20.883428
354.086063	-3.011000	3.806700	-11.460000	23.075767	0.001012	20.896447
355.084836	-2.993100	3.807200	-11.395000	23.086320	0.001012	20.865771
356.088179	-3.001000	3.806200	-11.422000	23.101640	0.001014	20.873535
357.084329	-2.991500	3.805800	-11.384000	23.098110	0.001015	20.889912
358.086164	-3.011900	3.806000	-11.462000	23.091549	0.001015	20.878596
359.088168	-3.003400	3.805400	-11.427000	23.065625	0.001012	20.870639
360.084424	-2.989300	3.805100	-11.373000	23.097535	0.001014	20.880801
361.088534	-3.018900	3.803800	-11.482000	23.067760	0.001017	20.885579
362.084958	-3.021000	3.803700	-11.490000	23.081688	0.001015	20.879147
363.088026	-3.012000	3.804700	-11.459000	23.098493	0.001016	20.863270
364.084676	-3.018900	3.802800	-11.479000	23.092187	0.001015	20.877814
365.084417	-3.012400	3.803100	-11.456000	23.115989	0.001016	20.867526
366.088305	-2.986700	3.804500	-11.363000	23.128395	0.001016	20.881378
367.088460	-3.007300	3.802300	-11.434000	23.129686	0.001017	20.883146
368.086002	-3.002900	3.801800	-11.415000	23.111026	0.001019	20.895267
369.085864	-2.999400	3.802200	-11.403000	23.116884	0.001018	20.889284
370.085742	-3.011200	3.802000	-11.448000	23.140786	0.001019	20.864398
371.087258	-2.997900	3.803000	-11.400000	23.143779	0.001020	20.880672
372.088947	-2.994600	3.801200	-11.382000	23.140979	0.001020	20.872178
373.088205	-3.012700	3.802700	-11.455000	23.138688	0.001019	20.885054
374.092479	-2.992000	3.802000	-11.374000	23.150979	0.001019	20.892628
375.088315	-2.999800	3.800600	-11.400000	23.130196	0.001021	20.858529
376.088590	-2.995500	3.802000	-11.388000	23.148037	0.001020	20.878776
377.090859	-2.996100	3.800600	-11.384000	23.153690	0.001020	20.868794
378.090590	-2.986400	3.800400	-11.348000	23.133112	0.001022	20.870933
379.092767	-2.993400	3.800400	-11.375000	23.145147	0.001022	20.874458
380.091609	-3.012800	3.800300	-11.448000	23.155711	0.001023	20.851854
381.091446	-3.005900	3.799400	-11.420000	23.147450	0.001024	20.868231
382.093646	-3.019200	3.799300	-11.469000	23.175085	0.001025	20.870793
383.091987	-3.009500	3.798100	-11.430000	23.162834	0.001026	20.862310
384.092958	-2.988600	3.800100	-11.355000	23.183525	0.001023	20.863604
385.091000	-2.982100	3.799000	-11.327000	23.185979	0.001025	20.859900
386.090321	-2.996700	3.797300	-11.379000	23.200188	0.001024	20.865129
387.093080	-3.010300	3.799200	-11.435000	23.219408	0.001026	20.862105
388.095583	-3.001100	3.798200	-11.398000	23.188499	0.001026	20.871907
389.092326	-3.000800	3.797500	-11.395000	23.204623	0.001025	20.851083
390.094842	-2.996200	3.797100	-11.376000	23.212989	0.001027	20.867051
391.092482	-3.023500	3.796000	-11.476000	23.186863	0.001027	20.859363
392.092581	-3.026700	3.795100	-11.485000	23.190263	0.001026	20.861822
393.094458	-3.002700	3.797600	-11.401000	23.198218	0.001029	20.881172
394.092442	-3.005800	3.797000	-11.411000	23.211096	0.001029	20.858043
395.096178	-3.014500	3.795400	-11.440000	23.212439	0.001027	20.857492
396.093551	-3.001200	3.796600	-11.394000	23.189907	0.001030	20.867154
397.094628	-2.994200	3.796200	-11.365000	23.191058	0.001028	20.861670
398.098804	-2.977800	3.797600	-11.306000	23.181889	0.001030	20.843473
399.093358	-2.977000	3.795900	-11.299000	23.151338	0.001031	20.865489
400.092304	-2.998900	3.794800	-11.378000	23.168729	0.001029	20.868691
401.093169	-2.994600	3.794800	-11.362000	23.152259	0.001031	20.855506
402.103552	-3.016700	3.793400	-11.442000	23.170507	0.001032	20.859094
403.094488	-3.003300	3.794900	-11.396000	23.203794	0.001033	20.866846
404.097095	-2.999300	3.792800	-11.375000	23.209805	0.001033	20.853904
405.095669	-3.002800	3.794200	-11.392000	23.222169	0.001032	20.844011
406.095544	-2.996600	3.793300	-11.366000	23.239983	0.001033	20.868499
407.097566	-3.004900	3.793000	-11.396000	23.223601	0.001033	20.842126
408.095227	-3.024100	3.792700	-11.469000	23.248793	0.001033	20.863578
409.097101	-3.017600	3.791000	-11.438000	23.250238	0.001033	20.835156
410.094786	-3.009200	3.791600	-11.409000	23.286361	0.001034	20.859029
411.098450	-2.993500	3.792200	-11.350000	23.299443	0.001034	20.861708
412.096971	-2.990700	3.791400	-11.337000	23.312588	0.001035	20.850226
413.097733	-2.988300	3.791900	-11.330000	23.314121	0.001033	20.851763
414.098206	-3.007900	3.790900	-11.402000	23.332891	0.001037	20.862987
415.106001	-2.982800	3.791300	-11.307000	23.327881	0.001036	20.856069
416.100114	-2.997200	3.789800	-11.357000	23.360382	0.001037	20.866832
417.099468	-3.022100	3.789400	-11.451000	23.384765	0.001037	20.855236
418.098554	-3.011700	3.788300	-11.409000	23.359627	0.001037	20.865601
419.098745	-2.974400	3.790000	-11.271000	23.348720	0.001036	20.854670
420.100937	-2.995500	3.788300	-11.347000	23.336291	0.001037	20.844585
421.098757	-2.980200	3.790400	-11.295000	23.341202	0.001036	20.849506
422.103578	-2.997300	3.790600	-11.360000	23.348720	0.001038	20.855145
423.100680	-3.010300	3.788500	-11.403000	23.316216	0.001037	20.858129
424.107640	-3.007000	3.788300	-11.391000	23.303468	0.001036	20.835397
425.101972	-3.005600	3.788900	-11.386000	23.320651	0.001037	20.838393
426.100415	-2.989100	3.787800	-11.321000	23.336163	0.001038	20.843034
427.101749	-2.978600	3.789000	-11.285000	23.337161	0.001039	20.843086
428.101564	-3.002200	3.787600	-11.370000	23.318990	0.001039	20.859012
429.100346	-2.982800	3.788700	-11.299000	23.339564	0.001037	20.854502
430.101119	-3.007800	3.786300	-11.388000	23.351736	0.001040	20.851529
431.104136	-3.010700	3.786600	-11.400000	23.371375	0.001040	20.856039
432.107105	-3.007300	3.785300	-11.382000	23.369571	0.001039	20.843326
433.102821	-3.011900	3.785600	-11.400000	23.344702	0.001040	20.844954
434.102421	-3.019900	3.784200	-11.427000	23.338501	0.001041	20.855808
435.104331	-2.987900	3.786900	-11.314000	23.342157	0.001041	20.831024
436.105822	-2.986300	3.785000	-11.303000	23.349613	0.001039	20.843238
437.105094	-3.020300	3.783300	-11.426000	23.370312	0.001041	20.844543
438.106817	-2.972500	3.785500	-11.251000	23.362577	0.001043	20.852912
439.105888	-3.010900	3.785700	-11.397000	23.373176	0.001041	20.836509
440.105300	-3.005600	3.784300	-11.373000	23.376781	0.001042	20.863828
441.106902	-3.002800	3.783600	-11.360000	23.393889	0.001041	20.837828
442.107624	-3.001300	3.783300	-11.354000	23.411674	0.001040	20.822938
443.105451	-3.017700	3.782900	-11.415000	23.422438	0.001041	20.837520
444.105844	-3.008500	3.781600	-11.374000	23.436849	0.001040	20.848170
445.105517	-2.998900	3.783200	-11.345000	23.465013	0.001044	20.830882
446.105762	-2.994400	3.781600	-11.322000	23.485558	0.001042	20.831088
447.108075	-2.985700	3.782000	-11.291000	23.467135	0.001045	20.827320
448.105286	-2.994700	3.782300	-11.325000	23.456652	0.001044	20.844786
449.107633	-2.996600	3.781000	-11.329000	23.478987	0.001043	20.838725
450.105588	-2.999900	3.781900	-11.343000	23.472607	0.001043	20.838968
451.105042	-2.975600	3.782700	-11.254000	23.478705	0.001043	20.835124
452.109657	-3.008000	3.779900	-11.368000	23.486695	0.001045	20.853563
453.106083	-3.009600	3.778700	-11.371000	23.492756	0.001047	20.830716
454.105993	-2.993600	3.779400	-11.313000	23.505169	0.001046	20.819451
455.105481	-2.973400	3.780400	-11.239000	23.529792	0.001044	20.836546
456.106281	-3.002200	3.778500	-11.342000	23.544327	0.001045	20.847797
457.106402	-3.002900	3.778900	-11.347000	23.562671	0.001046	20.842479
458.110786	-3.005900	3.778400	-11.357000	23.559272	0.001047	20.839545
459.106296	-3.006600	3.779800	-11.363000	23.579124	0.001047	20.846169
460.106332	-2.982100	3.779100	-11.269000	23.536542	0.001046	20.847105
461.108393	-2.990800	3.779200	-11.301000	23.534445	0.001048	20.847848
462.107989	-3.017800	3.776600	-11.395000	23.519921	0.001048	20.836135
463.111062	-3.012200	3.778000	-11.379000	23.514629	0.001047	20.822296
464.107391	-2.994300	3.778300	-11.312000	23.494774	0.001048	20.828472
465.108153	-3.020400	3.775500	-11.402000	23.483818	0.001048	20.840248
466.106986	-3.003100	3.775500	-11.336000	23.480238	0.001046	20.823859
467.106516	-3.016300	3.775500	-11.386000	23.472083	0.001047	20.848873
468.110314	-3.005700	3.774800	-11.346000	23.461981	0.001047	20.843016
469.108419	-2.999700	3.775800	-11.325000	23.469895	0.001047	20.835301
470.107868	-2.988200	3.776000	-11.282000	23.486271	0.001048	20.821845
471.106741	-2.999600	3.774300	-11.320000	23.496729	0.001048	20.808621
472.108411	-2.999600	3.772900	-11.316000	23.481042	0.001049	20.821820
473.109905	-2.990900	3.774000	-11.286000	23.513553	0.001052	20.833545
474.110063	-3.003200	3.773100	-11.331000	23.539825	0.001050	20.830009
475.110296	-2.989200	3.773100	-11.277000	23.579263	0.001049	20.812171
476.111955	-2.997100	3.774300	-11.310000	23.587943	0.001048	20.811389
477.110522	-3.009900	3.773500	-11.357000	23.575608	0.001048	20.815618
478.109625	-2.978000	3.772400	-11.233000	23.609521	0.001048	20.817373
479.115034	-2.999000	3.773100	-11.314000	23.581218	0.001049	20.832622
480.113194	-3.026400	3.772100	-11.415000	23.559563	0.001051	20.802854
481.114826	-3.003300	3.771300	-11.325000	23.564293	0.001052	20.824190
482.112844	-3.007900	3.770900	-11.342000	23.542894	0.001050	20.807007
483.111794	-3.009600	3.771300	-11.349000	23.532245	0.001050	20.815298
484.114608	-3.006700	3.770200	-11.334000	23.502086	0.001051	20.805930
485.122446	-3.011300	3.770300	-11.353000	23.487346	0.001051	20.811543
486.112326	-2.993500	3.771000	-11.287000	23.473770	0.001050	20.828754
487.112259	-2.992800	3.770700	-11.283000	23.479036	0.001051	20.807007
488.111805	-3.000500	3.769900	-11.311000	23.459795	0.001051	20.806687
489.116573	-2.970400	3.769900	-11.197000	23.478600	0.001052	20.814630
490.114370	-3.011800	3.769400	-11.352000	23.469282	0.001052	20.820937
491.112924	-3.028600	3.767600	-11.409000	23.498353	0.001051	20.805033
492.112338	-3.005000	3.767100	-11.319000	23.494825	0.001052	20.818092
493.112751	-3.003800	3.767900	-11.316000	23.532616	0.001051	20.823730
494.114571	-3.010200	3.768600	-11.343000	23.539597	0.001052	20.812710
495.114172	-3.009000	3.768400	-11.338000	23.574713	0.001052	20.803816
496.113366	-3.008900	3.768100	-11.337000	23.594245	0.001054	20.806801
497.115989	-3.018600	3.766700	-11.369000	23.579788	0.001054	20.818386
498.116515	-3.019900	3.765800	-11.372000	23.584492	0.001053	20.811248
499.116931	-3.005100	3.767600	-11.321000	23.605483	0.001054	20.808583
500.119131	-2.989700	3.766500	-11.260000	23.614917	0.001052	20.819937
501.117387	-2.991100	3.765000	-11.260000	23.602773	0.001054	20.808238
502.119036	-2.989400	3.765700	-11.255000	23.600049	0.001053	20.802188
503.119977	-3.005000	3.764900	-11.310000	23.621128	0.001054	20.802457
504.120922	-2.987000	3.765800	-11.248000	23.602838	0.001053	20.828691
505.123645	-3.003900	3.766200	-11.312000	23.614253	0.001055	20.810737
506.121244	-2.999200	3.765200	-11.292000	23.601265	0.001054	20.787760
507.121850	-3.005900	3.764700	-11.315000	23.611608	0.001056	20.802870
508.121976	-3.013300	3.764400	-11.342000	23.618307	0.001054	20.801525
509.121599	-3.005300	3.763500	-11.309000	23.608169	0.001055	20.811276
510.124317	-3.016200	3.762900	-11.349000	23.598148	0.001056	20.808343
511.124297	-2.979800	3.763500	-11.213000	23.579382	0.001056	20.795220
512.121660	-3.007600	3.761000	-11.310000	23.609129	0.001055	20.788057
513.120072	-3.019400	3.759700	-11.350000	23.605320	0.001055	20.801307
514.121726	-2.980400	3.763400	-11.215000	23.600846	0.001054	20.784021
515.122750	-2.999400	3.760000	-11.277000	23.619204	0.001057	20.787725
516.123744	-2.986600	3.762300	-11.236000	23.643428	0.001055	20.797311
517.123641	-3.016600	3.759700	-11.340000	23.622834	0.001056	20.809856
518.128119	-3.008400	3.762100	-11.317000	23.641832	0.001055	20.786702
519.124614	-2.999400	3.761000	-11.280000	23.644616	0.001055	20.795183
520.123753	-2.996600	3.759900	-11.264000	23.647787	0.001056	20.777499
521.127321	-3.021500	3.759000	-11.357000	23.689663	0.001054	20.798145
522.123348	-2.983200	3.760200	-11.217000	23.691683	0.001056	20.778833
523.125704	-3.008400	3.758400	-11.306000	23.698674	0.001055	20.804809
524.125522	-3.006600	3.758500	-11.298000	23.700478	0.001058	20.786228
525.125446	-3.013900	3.758800	-11.328000	23.705233	0.001056	20.781038
526.125716	-2.990800	3.758600	-11.240000	23.736702	0.001055	20.800735
527.128173	-3.010700	3.758600	-11.315000	23.738543	0.001057	20.780295
528.125126	-3.001000	3.757200	-11.274000	23.724611	0.001057	20.786716
529.126996	-2.977500	3.759000	-11.191000	23.746494	0.001057	20.784474
530.129761	-3.013800	3.756400	-11.320000	23.731258	0.001058	20.777258
531.127145	-2.995900	3.759000	-11.261000	23.698984	0.001057	20.785205
532.129722	-2.986800	3.757400	-11.222000	23.726454	0.001056	20.787141
533.128522	-3.006800	3.757000	-11.296000	23.737383	0.001059	20.776287
534.129394	-2.999700	3.756000	-11.266000	23.766154	0.001057	20.784270
535.130973	-3.005400	3.755500	-11.286000	23.736092	0.001057	20.781631
536.129828	-2.987500	3.756800	-11.222000	23.763330	0.001056	20.792345
537.133214	-2.990000	3.755900	-11.229000	23.772099	0.001056	20.766523
538.129653	-3.013700	3.754900	-11.315000	23.767421	0.001056	20.792653
539.131778	-2.996500	3.755300	-11.252000	23.794172	0.001057	20.777275
540.132097	-3.007100	3.754200	-11.288000	23.774899	0.001055	20.791142
541.129800	-3.012800	3.755200	-11.312000	23.809293	0.001055	20.797652
542.129776	-3.014200	3.752700	-11.309000	23.801202	0.001058	20.777686
543.132209	-3.002800	3.753200	-11.269000	23.797356	0.001058	20.806072
544.130574	-2.990400	3.754400	-11.226000	23.802775	0.001057	20.782108
545.137734	-3.000000	3.752200	-11.255000	23.800869	0.001058	20.800111
546.136006	-2.994700	3.752900	-11.238000	23.831148	0.001057	20.771202
547.133289	-2.985400	3.752200	-11.201000	23.827773	0.001057	20.794844
548.140320	-2.993600	3.752400	-11.233000	23.844184	0.001058	20.797075
549.132825	-2.996900	3.751200	-11.240000	23.829385	0.001057	20.782710
550.135680	-2.994400	3.750400	-11.229000	23.823798	0.001058	20.767152
551.133152	-3.011000	3.749600	-11.289000	23.828080	0.001056	20.797049
552.133667	-2.994500	3.751800	-11.234000	23.829256	0.001059	20.783530
553.134138	-2.992400	3.749800	-11.219000	23.839364	0.001058	20.758103
554.137179	-3.006400	3.749200	-11.271000	23.841193	0.001060	20.766575
555.134726	-3.021100	3.748700	-11.324000	23.859993	0.001059	20.784952
556.138900	-3.014000	3.749600	-11.301000	23.886423	0.001056	20.762141
557.136223	-2.995900	3.750400	-11.234000	23.871955	0.001059	20.779877
558.136565	-2.987900	3.749000	-11.201000	23.882780	0.001059	20.768920
559.140945	-3.006000	3.749200	-11.269000	23.857641	0.001057	20.781171
560.138628	-3.000400	3.747400	-11.243000	23.851684	0.001058	20.797958
561.142042	-3.016200	3.747000	-11.301000	23.839313	0.001058	20.795510
562.137619	-2.985800	3.747600	-11.189000	23.873231	0.001058	20.783528
563.137850	-3.006100	3.745900	-11.259000	23.852425	0.001057	20.772148
564.139900	-3.001900	3.747500	-11.249000	23.841526	0.001059	20.792039
565.137174	-3.005500	3.746700	-11.259000	23.843224	0.001059	20.782362
566.137524	-3.007000	3.746400	-11.264000	23.861820	0.001058	20.791999
567.141050	-2.994900	3.746500	-11.219000	23.848337	0.001058	20.775635
568.138597	-2.997700	3.746300	-11.229000	23.891852	0.001059	20.766164
569.138186	-3.008600	3.745300	-11.267000	23.898703	0.001059	20.801008
570.139858	-3.005200	3.746100	-11.257000	23.899278	0.001059	20.780722
571.139231	-2.988100	3.746400	-11.193000	23.918525	0.001058	20.779160
572.142293	-2.992000	3.744300	-11.203000	23.918921	0.001058	20.791411
573.141175	-3.006800	3.743700	-11.256000	23.930500	0.001058	20.806341
574.139880	-2.992800	3.743400	-11.202000	23.948941	0.001057	20.785478
575.145899	-3.003000	3.743300	-11.241000	23.963675	0.001057	20.795987
576.141885	-3.000200	3.743000	-11.229000	23.966729	0.001056	20.792411
577.140765	-3.005800	3.742100	-11.247000	23.979330	0.001059	20.784184
578.141865	-3.002100	3.743000	-11.236000	23.969324	0.001057	20.808289
579.144305	-3.004800	3.743800	-11.247000	23.962744	0.001058	20.800742
580.141735	-3.004500	3.741800	-11.241000	23.946910	0.001059	20.792450
581.142492	-2.993900	3.742700	-11.205000	23.945990	0.001060	20.779674
582.142833	-3.027400	3.741500	-11.325000	23.909683	0.001058	20.791630
583.143348	-3.002500	3.740600	-11.230000	23.915511	0.001060	20.774241
584.144331	-3.008800	3.740100	-11.252000	23.882283	0.001058	20.792130
585.147067	-2.994700	3.740800	-11.201000	23.865824	0.001059	20.789851
586.144613	-2.989100	3.740400	-11.180000	23.828683	0.001058	20.805715
587.145849	-2.983500	3.741900	-11.162000	23.861594	0.001058	20.775177
588.144357	-3.005500	3.741100	-11.243000	23.876087	0.001058	20.802987
589.143613	-3.008400	3.739700	-11.250000	23.886311	0.001059	20.813238
590.153476	-2.990000	3.739800	-11.180000	23.896024	0.001057	20.795952
591.144734	-2.996500	3.738200	-11.201000	23.934339	0.001059	20.794543
592.144513	-2.999200	3.738600	-11.212000	23.944217	0.001060	20.798759
593.145411	-2.992600	3.738200	-11.186000	23.946351	0.001060	20.789045
594.145162	-3.025800	3.737100	-11.306000	23.963885	0.001058	20.804257
595.146386	-3.001100	3.738700	-11.218000	23.973074	0.001056	20.794980
596.150264	-3.012300	3.736200	-11.253000	23.966773	0.001057	20.808576
597.146934	-2.994400	3.736800	-11.189000	23.969983	0.001056	20.810847
598.146944	-3.003500	3.736100	-11.221000	23.992741	0.001059	20.804271
599.147008	-3.002400	3.736400	-11.217000	23.987298	0.001056	20.813512
600.146338	-3.015100	3.736800	-11.267000	24.012345	0.001058	20.793586
601.151160	-2.996300	3.735800	-11.192000	23.991095	0.001059	20.808310
602.149308	-2.994200	3.736100	-11.185000	23.959185	0.001057	20.806656
603.151310	-2.996000	3.735800	-11.192000	23.944106	0.001056	20.809078
604.149169	-3.015500	3.736000	-11.264000	23.962623	0.001058	20.819587
605.148374	-3.013700	3.734400	-11.254000	23.917920	0.001057	20.807476
606.150257	-2.990300	3.736200	-11.172000	23.941166	0.001058	20.806131
607.149996	-3.017000	3.734000	-11.265000	23.977332	0.001058	20.804940
608.151025	-3.010200	3.733600	-11.238000	23.961409	0.001056	20.821215
609.154597	-3.003000	3.734300	-11.212000	23.968476	0.001058	20.795111
610.151259	-3.003200	3.731600	-11.206000	23.995709	0.001057	20.819101
611.150285	-3.010300	3.732600	-11.235000	24.017560	0.001057	20.814936
612.152683	-2.991500	3.733400	-11.168000	24.033035	0.001055	20.800109
613.152504	-3.002000	3.732900	-11.206000	24.043935	0.001056	20.826687
614.152722	-2.993500	3.732600	-11.172000	24.052969	0.001056	20.830532
615.152740	-2.994500	3.732500	-11.176000	24.080416	0.001056	20.808747
616.152423	-3.001400	3.731300	-11.198000	24.087775	0.001056	20.810912
617.154628	-3.014600	3.731500	-11.248000	24.086881	0.001056	20.797687
618.152624	-3.004900	3.730800	-11.208000	24.070040	0.001056	20.820626
619.156042	-2.990200	3.731900	-11.158000	24.050887	0.001057	20.819435
620.153812	-3.013700	3.729300	-11.238000	24.033419	0.001058	20.832737
621.154062	-3.026100	3.730100	-11.286000	24.020309	0.001057	20.807261
622.166720	-3.007800	3.729100	-11.214000	23.989972	0.001056	20.810029
623.157097	-3.012800	3.729700	-11.237000	24.004911	0.001055	20.809838
624.154615	-2.998800	3.728300	-11.180000	24.010520	0.001057	20.842962
625.154780	-2.981100	3.730400	-11.119000	24.039158	0.001055	20.819052
626.156402	-2.996100	3.728100	-11.169000	24.048269	0.001056	20.802585
627.156454	-2.993800	3.728900	-11.163000	24.100696	0.001055	20.830034
628.159272	-2.986600	3.729200	-11.137000	24.124001	0.001054	20.803148
629.157413	-3.011200	3.728100	-11.225000	24.131605	0.001057	20.814568
630.160580	-2.994100	3.727200	-11.157000	24.161553	0.001055	20.825164
631.156286	-2.998100	3.727800	-11.175000	24.154744	0.001055	20.853421
632.155982	-2.986700	3.725800	-11.127000	24.195476	0.001055	20.839748
633.161229	-2.993900	3.725800	-11.153000	24.177347	0.001055	20.839583
634.156299	-2.991600	3.727000	-11.147000	24.192244	0.001054	20.841248
635.157192	-3.001600	3.726100	-11.182000	24.137648	0.001055	20.839120
636.157365	-2.990700	3.727000	-11.145000	24.115685	0.001057	20.822782
637.158508	-2.997700	3.725800	-11.168000	24.116300	0.001053	20.836201
638.158215	-3.002600	3.724700	-11.183000	24.141086	0.001053	20.824076
639.160825	-2.986100	3.725400	-11.123000	24.102077	0.001058	20.849437
640.158532	-2.975000	3.724900	-11.081000	24.147334	0.001054	20.830343
641.157845	-2.981600	3.724800	-11.104000	24.152534	0.001055	20.849308
642.159184	-3.006200	3.723400	-11.193000	24.155499	0.001056	20.826678
643.159745	-3.003300	3.724500	-11.185000	24.162436	0.001055	20.829843
644.158070	-3.007100	3.724500	-11.198000	24.184643	0.001054	20.838840
645.164040	-2.997900	3.723000	-11.161000	24.192002	0.001055	20.835315
646.159192	-3.008800	3.722900	-11.200000	24.229831	0.001054	20.826318
647.158435	-2.991300	3.722000	-11.132000	24.205352	0.001055	20.847283
648.160654	-2.989700	3.723500	-11.130000	24.213938	0.001053	20.825076
649.161172	-2.983700	3.723600	-11.109000	24.247717	0.001052	20.849948
650.159317	-2.980900	3.724000	-11.099000	24.213374	0.001053	20.858648
651.158945	-3.006300	3.720400	-11.183000	24.229971	0.001053	20.854907
652.158986	-3.013800	3.721600	-11.214000	24.218307	0.001053	20.842259
653.160170	-2.998300	3.720200	-11.153000	24.199999	0.001054	20.832431
654.159634	-2.996100	3.720600	-11.147000	24.205415	0.001054	20.858251
655.159698	-3.015800	3.720400	-11.219000	24.217233	0.001053	20.852087
656.162056	-3.000700	3.719400	-11.160000	24.245710	0.001052	20.835607
657.159490	-2.984400	3.719700	-11.100000	24.260287	0.001053	20.844065
658.158831	-2.995100	3.719600	-11.140000	24.272668	0.001051	20.845578
659.161691	-2.981300	3.720100	-11.090000	24.304848	0.001052	20.860788
660.158875	-2.994600	3.719400	-11.137000	24.282734	0.001053	20.853778
661.159929	-3.005000	3.719200	-11.175000	24.251536	0.001052	20.855675
662.159614	-2.991200	3.717900	-11.120000	24.267047	0.001052	20.862698
663.161112	-2.994000	3.718600	-11.133000	24.256531	0.001052	20.864952
664.159113	-2.987300	3.717400	-11.104000	24.270316	0.001052	20.855072
665.162592	-3.003300	3.715800	-11.158000	24.298013	0.001049	20.855355
666.160903	-2.975300	3.717300	-11.059000	24.294793	0.001052	20.866349
667.160949	-2.988000	3.714600	-11.098000	24.264157	0.001052	20.860748
668.161447	-3.001000	3.714400	-11.145000	24.255585	0.001052	20.860211
669.162941	-2.988400	3.715800	-11.104000	24.244930	0.001051	20.867066
670.166890	-2.984800	3.716200	-11.091000	24.248495	0.001051	20.864952
671.161736	-2.978200	3.715300	-11.064000	24.258869	0.001051	20.866349
672.164955	-2.994400	3.715500	-11.125000	24.253720	0.001051	20.853599
673.162176	-2.980000	3.715600	-11.072000	24.274186	0.001050	20.856109
674.161632	-2.998600	3.714600	-11.138000	24.276139	0.001049	20.873715
675.163541	-3.021300	3.712500	-11.215000	24.287498	0.001051	20.859979
676.162728	-3.005300	3.715500	-11.165000	24.294013	0.001053	20.864618
677.163465	-3.007300	3.713500	-11.166000	24.327049	0.001049	20.874049
678.163233	-3.002500	3.713600	-11.149000	24.334025	0.001050	20.879624
679.164030	-3.004300	3.712300	-11.151000	24.311286	0.001049	20.877202
680.164699	-3.013000	3.711400	-11.182000	24.328481	0.001049	20.882597
681.165074	-3.028000	3.711900	-11.239000	24.324253	0.001049	20.857020
682.164787	-3.015500	3.711700	-11.191000	24.371365	0.001049	20.870616
683.165981	-3.026100	3.711300	-11.230000	24.367023	0.001048	20.874320
684.165065	-3.029300	3.710800	-11.239000	24.371454	0.001049	20.892040
685.164857	-3.016600	3.711000	-11.194000	24.357467	0.001049	20.884174
686.168509	-2.995300	3.711100	-11.115000	24.324139	0.001048	20.886302
687.164988	-2.995100	3.712200	-11.117000	24.294668	0.001047	20.897040
688.166655	-3.005300	3.710200	-11.149000	24.306866	0.001048	20.873243
689.166490	-3.009400	3.710400	-11.165000	24.300314	0.001050	20.867145
690.166482	-3.034600	3.708000	-11.251000	24.299101	0.001046	20.883945
691.168572	-2.999800	3.709000	-11.125000	24.308492	0.001048	20.904269
692.170517	-2.995200	3.709600	-11.109000	24.330645	0.001047	20.884767
693.168061	-2.987300	3.709500	-11.080000	24.341604	0.001049	20.886278
694.167793	-2.983000	3.710100	-11.066000	24.334107	0.001048	20.913842
695.169969	-2.995700	3.709400	-11.111000	24.315878	0.001048	20.905040
696.169119	-2.980400	3.710200	-11.057000	24.324093	0.001048	20.899530
697.171966	-2.999000	3.707500	-11.118000	24.356068	0.001046	20.904106
698.172529	-2.990100	3.709100	-11.090000	24.362341	0.001047	20.894278
699.175483	-2.986300	3.707100	-11.069000	24.325576	0.001047	20.884898
700.172155	-3.003000	3.707000	-11.131000	24.331174	0.001047	20.894306
701.171429	-3.008400	3.707500	-11.152000	24.303733	0.001045	20.889539
702.173801	-2.988000	3.707300	-11.075000	24.317645	0.001046	20.883107
703.171962	-2.987600	3.706800	-11.073000	24.336450	0.001044	20.910977
704.171909	-3.002800	3.705800	-11.127000	24.335672	0.001047	20.881750
705.171425	-2.981100	3.705700	-11.046000	24.351754	0.001046	20.877495
706.172462	-2.981600	3.706300	-11.049000	24.353773	0.001045	20.898958
707.173530	-2.990600	3.704800	-11.079000	24.352765	0.001045	20.904111
708.178217	-3.010000	3.704600	-11.150000	24.307337	0.001044	20.903111
709.179369	-3.015300	3.703600	-11.167000	24.314875	0.001046	20.910197
710.175357	-3.023700	3.703600	-11.198000	24.300427	0.001045	20.889542
711.174236	-3.002000	3.704800	-11.120000	24.298294	0.001045	20.907789
712.174799	-3.002600	3.703300	-11.119000	24.314863	0.001045	20.892643
713.177933	-3.014600	3.702300	-11.160000	24.347528	0.001044	20.896962
714.177159	-3.002800	3.703000	-11.117000	24.348092	0.001044	20.923129
715.180246	-2.977000	3.704400	-11.026000	24.372630	0.001044	20.933045
716.178502	-3.005000	3.702400	-11.125000	24.382977	0.001044	20.897910
717.179957	-2.991800	3.703500	-11.079000	24.398230	0.001044	20.905150
718.181173	-2.999900	3.701600	-11.104000	24.404004	0.001044	20.912364
719.179677	-3.020200	3.702600	-11.181000	24.381841	0.001043	20.899615
720.178840	-2.995200	3.702100	-11.087000	24.374202	0.001041	20.910442
721.178405	-2.995200	3.702000	-11.086000	24.361964	0.001042	20.921872
722.179471	-2.998200	3.699900	-11.092000	24.377895	0.001042	20.916517
723.180005	-3.004000	3.700500	-11.115000	24.347836	0.001042	20.935673
724.180457	-2.994100	3.700500	-11.079000	24.357252	0.001041	20.908137
725.180321	-3.003400	3.700000	-11.112000	24.356665	0.001041	20.915135
726.182738	-2.993500	3.699800	-11.074000	24.353063	0.001042	20.939494
727.180597	-2.998800	3.699400	-11.093000	24.365415	0.001042	20.919170
728.179763	-2.989200	3.700200	-11.059000	24.371127	0.001041	20.937226
729.182626	-2.964000	3.701200	-10.970000	24.376465	0.001042	20.919350
730.181257	-3.010700	3.699200	-11.136000	24.363168	0.001040	20.924976
731.182737	-2.984500	3.700000	-11.041000	24.333582	0.001038	20.905730
732.182705	-2.991600	3.698700	-11.064000	24.362607	0.001041	20.912561
733.181649	-3.009000	3.698500	-11.128000	24.364267	0.001040	20.933190
734.185477	-3.010800	3.697400	-11.131000	24.361662	0.001040	20.929629
735.184139	-3.013600	3.696100	-11.138000	24.395935	0.001038	20.920864
736.183494	-3.015500	3.696700	-11.146000	24.403013	0.001040	20.929386
737.183370	-2.999200	3.696500	-11.086000	24.398198	0.001039	20.933564
738.183413	-3.013700	3.695400	-11.136000	24.410589	0.001038	20.919918
739.184158	-3.002400	3.695600	-11.095000	24.418612	0.001039	20.921803
740.184442	-3.038700	3.694700	-11.225000	24.424219	0.001038	20.922686
741.181929	-2.991900	3.696400	-11.058000	24.422661	0.001036	20.945776
742.183656	-3.006800	3.694200	-11.107000	24.454646	0.001038	20.958897
743.184713	-3.005300	3.694900	-11.104000	24.434759	0.001039	20.939896
744.186460	-2.990100	3.694700	-11.047000	24.453011	0.001037	20.938294
745.187371	-3.000700	3.693900	-11.083000	24.462822	0.001038	20.933438
746.187368	-3.013300	3.694000	-11.130000	24.463856	0.001038	20.938268
747.190544	-3.019600	3.693700	-11.153000	24.474102	0.001037	20.931479
748.187322	-3.003000	3.694700	-11.095000	24.492494	0.001036	20.966522
749.188017	-3.015600	3.693800	-11.137000	24.510339	0.001037	20.957400
750.195522	-3.013500	3.693800	-11.130000	24.492124	0.001037	20.943868
751.188890	-3.002000	3.692600	-11.084000	24.499506	0.001035	20.944163
752.188525	-3.013600	3.691400	-11.124000	24.515167	0.001034	20.963192
753.188894	-3.002600	3.693000	-11.088000	24.529191	0.001036	20.948341
754.188534	-3.005400	3.690200	-11.089000	24.510774	0.001035	20.959733
755.188904	-3.000300	3.690500	-11.073000	24.506558	0.001035	20.944600
756.193553	-2.992300	3.692300	-11.047000	24.487668	0.001036	20.964051
757.190673	-2.989500	3.691700	-11.035000	24.508067	0.001034	20.948958
758.196765	-3.007700	3.690100	-11.097000	24.499010	0.001036	20.958836
759.191905	-3.015900	3.689200	-11.125000	24.510111	0.001033	20.960016
760.192877	-2.997600	3.690700	-11.062000	24.501960	0.001033	20.958477
761.197591	-3.004200	3.688700	-11.080000	24.511221	0.001035	20.962552
762.194449	-3.002500	3.690400	-11.079000	24.524174	0.001035	20.963220
763.195053	-2.988500	3.689400	-11.025000	24.527406	0.001033	20.963617
764.195245	-2.996600	3.689800	-11.056000	24.547151	0.001033	20.950240
765.193357	-2.986400	3.688500	-11.015000	24.567703	0.001033	20.959953
766.195565	-2.988800	3.688500	-11.024000	24.566629	0.001032	20.964565
767.197326	-2.996400	3.689100	-11.053000	24.589543	0.001032	20.965745
768.195438	-3.001900	3.687800	-11.069000	24.573732	0.001031	20.959839
769.208722	-3.012900	3.686900	-11.106000	24.596617	0.001034	20.976634
770.197626	-2.981700	3.689200	-10.999000	24.588942	0.001030	20.957083
771.196573	-2.989200	3.687700	-11.022000	24.582352	0.001031	20.973227
772.197587	-3.009100	3.686100	-11.090000	24.547931	0.001031	20.960978
773.196433	-3.014600	3.687800	-11.117000	24.521925	0.001030	20.975661
774.196728	-3.006100	3.687400	-11.082000	24.507990	0.001030	20.951251
775.195810	-3.028800	3.684700	-11.158000	24.510227	0.001030	20.978622
776.195909	-3.010300	3.685800	-11.095000	24.506842	0.001029	20.951522
777.197980	-2.998300	3.686000	-11.051000	24.501402	0.001029	20.968821
778.196849	-3.005300	3.684600	-11.072000	24.531417	0.001030	20.964322
779.198591	-2.983800	3.685900	-10.998000	24.549489	0.001027	20.961118
780.195763	-3.014100	3.684000	-11.102000	24.545466	0.001030	20.968461
781.195977	-2.991300	3.684200	-11.019000	24.544202	0.001029	20.940644
782.199247	-3.003100	3.684400	-11.062000	24.555837	0.001027	20.964642
783.197012	-3.011400	3.684100	-11.094000	24.582927	0.001028	20.957211
784.197514	-2.984100	3.684800	-10.995000	24.595558	0.001029	20.945705
785.197187	-3.016100	3.681800	-11.103000	24.602390	0.001029	20.938810
786.198437	-2.977500	3.684000	-10.968000	24.623948	0.001028	20.939579
787.197548	-3.023200	3.681300	-11.127000	24.619148	0.001027	20.940926
788.199661	-3.023900	3.682500	-11.134000	24.650897	0.001027	20.939119
789.197969	-2.968300	3.684200	-10.935000	24.654204	0.001025	20.921577
790.204330	-3.009300	3.682800	-11.082000	24.636669	0.001026	20.955186
791.198432	-3.011800	3.681200	-11.086000	24.658303	0.001026	20.930905
792.199332	-3.029600	3.681200	-11.151000	24.642710	0.001026	20.946076
793.199421	-3.017500	3.680200	-11.103000	24.623387	0.001026	20.966039
794.203706	-2.976600	3.681600	-10.958000	24.606273	0.001025	20.934172
795.198868	-3.013300	3.681400	-11.092000	24.581190	0.001026	20.937454
796.197781	-3.005800	3.679200	-11.059000	24.578520	0.001026	20.929560
797.199728	-3.020000	3.679100	-11.110000	24.612020	0.001024	20.930930
798.200246	-2.999900	3.680100	-11.039000	24.607807	0.001025	20.920540
799.203548	-2.971600	3.680600	-10.935000	24.583693	0.001024	20.921948
800.200825	-2.993100	3.680600	-11.015000	24.593821	0.001024	20.922628
801.201493	-2.995000	3.679100	-11.018000	24.620028	0.001024	20.918578
802.201376	-3.008100	3.679500	-11.067000	24.599287	0.001022	20.919104
803.202932	-2.996400	3.679100	-11.022000	24.609888	0.001023	20.912672
804.208166	-2.997700	3.678300	-11.025000	24.648278	0.001023	20.919898
805.204639	-2.997200	3.678800	-11.024000	24.661585	0.001022	20.906700
806.205789	-3.018100	3.677900	-11.098000	24.665813	0.001024	20.901459
807.205190	-3.004300	3.678000	-11.048000	24.683014	0.001023	20.933415
808.206777	-3.025400	3.675600	-11.118000	24.693563	0.001022	20.916502
809.209563	-2.995500	3.677600	-11.015000	24.692464	0.001022	20.916822
810.206155	-2.986600	3.678200	-10.983000	24.726894	0.001021	20.892105
811.206221	-2.978300	3.676300	-10.948000	24.716869	0.001022	20.910493
812.206324	-3.031900	3.675100	-11.142000	24.732895	0.001021	20.905238
813.206091	-2.996700	3.676800	-11.017000	24.721005	0.001021	20.902790
814.206584	-2.992800	3.676700	-11.002000	24.705834	0.001020	20.917910
815.208249	-2.958600	3.677400	-10.878000	24.694354	0.001022	20.908762
816.207500	-2.981100	3.675600	-10.956000	24.686564	0.001021	20.917065
817.209581	-2.997300	3.674900	-11.013000	24.668275	0.001021	20.895396
818.207818	-2.981600	3.673500	-10.952000	24.626985	0.001019	20.908491
819.208601	-2.988900	3.674400	-10.982000	24.619527	0.001020	20.899111
820.215277	-2.988900	3.675100	-10.983000	24.605977	0.001017	20.896421
821.210117	-3.009900	3.672100	-11.049000	24.607241	0.001021	20.908119
822.209778	-2.990400	3.673500	-10.984000	24.616820	0.001018	20.912515
823.210578	-2.997800	3.674300	-11.013000	24.627190	0.001018	20.921971
824.209584	-3.003900	3.672300	-11.030000	24.677113	0.001016	20.905212
825.211504	-2.985500	3.672600	-10.963000	24.682667	0.001018	20.912681
826.214240	-3.002700	3.671100	-11.022000	24.700457	0.001017	20.897343
827.212594	-2.999600	3.673600	-11.018000	24.690190	0.001017	20.893679
828.213684	-3.002100	3.672600	-11.024000	24.689894	0.001018	20.893382
829.213035	-2.994700	3.673300	-11.000000	24.701209	0.001018	20.894779
830.212729	-3.013700	3.671500	-11.064000	24.671862	0.001015	20.878607
831.216037	-3.002200	3.669700	-11.016000	24.657418	0.001016	20.881184
832.214500	-2.991200	3.670800	-10.979000	24.639462	0.001016	20.900622
833.215345	-2.989800	3.672300	-10.979000	24.638159	0.001017	20.880824
834.213858	-2.984600	3.671400	-10.956000	24.612436	0.001017	20.881092
835.214821	-3.000300	3.670400	-11.012000	24.607583	0.001015	20.918419
836.214996	-2.990600	3.670500	-10.976000	24.599715	0.001014	20.896775
837.213570	-2.997500	3.670100	-11.000000	24.610088	0.001016	20.915717
838.215704	-2.986300	3.670100	-10.959000	24.601198	0.001014	20.889729
839.214143	-2.989000	3.669300	-10.966000	24.607839	0.001014	20.897341
840.213734	-3.005200	3.668100	-11.022000	24.639639	0.001013	20.901274
841.217196	-3.010200	3.668200	-11.040000	24.663789	0.001014	20.882361
842.214873	-2.995100	3.668300	-10.986000	24.706802	0.001013	20.881426
843.215198	-3.002800	3.667900	-11.013000	24.716238	0.001014	20.901325
844.215466	-3.006000	3.667700	-11.024000	24.729354	0.001012	20.882246
845.214509	-2.997500	3.668600	-10.994000	24.744716	0.001013	20.878222
846.214810	-2.990400	3.669100	-10.971000	24.758469	0.001012	20.872110
847.216081	-3.001300	3.667500	-11.006000	24.743401	0.001012	20.866946
848.214644	-2.987000	3.666000	-10.948000	24.738599	0.001012	20.896264
849.217401	-3.018000	3.666700	-11.065000	24.716315	0.001011	20.881489
850.216015	-3.003600	3.665000	-11.007000	24.674108	0.001011	20.887973
851.214864	-2.991700	3.665300	-10.964000	24.671554	0.001010	20.870713
852.220550	-3.013500	3.665700	-11.045000	24.653265	0.001009	20.893137
853.219932	-3.015000	3.664100	-11.046000	24.658463	0.001011	20.883180
854.222874	-2.996600	3.665700	-10.982000	24.647199	0.001008	20.873775
855.219118	-2.978700	3.665200	-10.916000	24.639536	0.001009	20.883629
856.219276	-2.970600	3.665500	-10.887000	24.673763	0.001009	20.883360
857.223207	-2.986700	3.664500	-10.944000	24.651005	0.001010	20.860999
858.225375	-3.014500	3.661900	-11.036000	24.677620	0.001007	20.884860
859.222973	-3.001500	3.663400	-10.995000	24.726212	0.001010	20.880515
860.220230	-2.998300	3.663800	-10.984000	24.731959	0.001008	20.864472
861.221264	-2.999300	3.662800	-10.985000	24.769516	0.001006	20.876083
862.222892	-3.000400	3.663700	-10.992000	24.791338	0.001007	20.868111
863.228918	-2.994800	3.663700	-10.971000	24.797058	0.001008	20.844456
864.222295	-3.007000	3.662600	-11.012000	24.775504	0.001006	20.878773
865.222364	-2.993500	3.662800	-10.963000	24.781020	0.001006	20.886205
866.222785	-2.990100	3.662900	-10.952000	24.776309	0.001005	20.875788
867.221409	-3.002500	3.662700	-10.996000	24.794582	0.001007	20.876582
868.224729	-3.014300	3.661300	-11.036000	24.789601	0.001005	20.874903
869.224340	-3.002400	3.661200	-10.991000	24.796318	0.001005	20.846558
870.225753	-3.017800	3.659800	-11.043000	24.785657	0.001004	20.866677
871.223669	-2.972900	3.661900	-10.886000	24.763066	0.001006	20.877197
872.224921	-3.027400	3.659800	-11.079000	24.768366	0.001004	20.881566
873.227663	-3.009000	3.660300	-11.013000	24.762992	0.001005	20.874277
874.224806	-3.009600	3.660100	-11.014000	24.750374	0.001005	20.875840
875.226286	-2.990600	3.659700	-10.943000	24.759733	0.001004	20.868637
876.224957	-2.998100	3.659700	-10.972000	24.758495	0.001002	20.860282
877.226793	-2.995500	3.659200	-10.960000	24.754166	0.001002	20.895764
878.225617	-2.975900	3.658900	-10.888000	24.736581	0.001002	20.881438
879.233525	-3.012800	3.658200	-11.021000	24.744983	0.001004	20.878490
880.225804	-3.012400	3.657400	-11.017000	24.736211	0.001002	20.885334
881.226031	-2.988000	3.658100	-10.930000	24.741229	0.001002	20.890843
882.226943	-3.016300	3.656400	-11.028000	24.724908	0.001000	20.870199
883.229079	-2.980700	3.657300	-10.899000	24.683737	0.001001	20.878670
884.230358	-3.020800	3.657500	-11.047000	24.701770	0.001001	20.872110
885.228266	-3.008000	3.656800	-10.998000	24.700645	0.001000	20.883783
886.228352	-3.009700	3.656500	-11.003000	24.707426	0.001002	20.884423
887.236405	-2.994900	3.655700	-10.947000	24.729047	0.001001	20.884783
888.228161	-3.003200	3.655800	-10.978000	24.741218	0.001000	20.887039
889.229188	-3.003300	3.655200	-10.977000	24.758711	0.001000	20.874723
890.228082	-2.994700	3.654800	-10.944000	24.811244	0.000999	20.876234
891.228248	-3.017800	3.654900	-11.028000	24.835302	0.000998	20.872878
892.229176	-3.014800	3.654600	-11.017000	24.820858	0.001000	20.869288
893.228644	-2.998100	3.656400	-10.960000	24.831725	0.000997	20.866443
894.228174	-2.985200	3.654900	-10.908000	24.825110	0.000998	20.857435
895.231266	-2.977400	3.654000	-10.878000	24.845349	0.000997	20.858780
896.228540	-2.998900	3.654500	-10.958000	24.896972	0.000996	20.874081
897.233387	-3.024100	3.653000	-11.045000	24.899488	0.000996	20.862856
898.228151	-3.012300	3.651500	-10.997000	24.903905	0.001000	20.871556
899.228886	-3.022300	3.652600	-11.038000	24.922380	0.000996	20.869237
900.231252	-3.029900	3.652500	-11.066000	24.921333	0.000994	20.881461
901.229588	-3.008200	3.653400	-10.989000	24.922802	0.000995	20.867289
902.231731	-2.992600	3.653000	-10.930000	24.940651	0.000995	20.875246
903.228978	-2.992000	3.652100	-10.925000	24.939629	0.000997	20.851463
904.238741	-3.001600	3.651000	-10.957000	24.943013	0.000995	20.851066
905.232706	-2.995100	3.652100	-10.937000	24.940306	0.000995	20.871108
906.232995	-3.000800	3.650600	-10.953000	24.926108	0.000991	20.847850
907.232643	-3.005000	3.650200	-10.968000	24.907494	0.000993	20.865201
908.232796	-2.982900	3.649500	-10.885000	24.889911	0.000989	20.869365
909.232406	-3.001900	3.649500	-10.954000	24.884305	0.000993	20.865161
910.234394	-2.993600	3.648400	-10.921000	24.870439	0.000994	20.856935
911.232657	-2.980400	3.649100	-10.875000	24.891904	0.000991	20.849555
912.232368	-2.990200	3.649600	-10.912000	24.881077	0.000992	20.858129
913.236986	-2.989200	3.648800	-10.905000	24.902821	0.000990	20.863356
914.231938	-2.999100	3.648600	-10.941000	24.903051	0.000989	20.855053
915.231549	-3.000500	3.648700	-10.947000	24.946296	0.000991	20.866215
916.236710	-2.989100	3.648200	-10.904000	24.923735	0.000991	20.864433
917.236158	-2.987000	3.647400	-10.894000	24.921911	0.000991	20.863550
918.232323	-3.000000	3.647800	-10.942000	24.910649	0.000990	20.858412
919.233960	-3.002900	3.647300	-10.952000	24.904073	0.000990	20.862242
920.235525	-3.012300	3.645400	-10.979000	24.869204	0.000989	20.850954
921.235161	-3.021600	3.646200	-11.016000	24.848007	0.000988	20.839638
922.237160	-3.014300	3.647200	-10.991000	24.797608	0.000987	20.857335
923.235722	-2.998400	3.645600	-10.930000	24.813748	0.000988	20.855989
924.236169	-2.997200	3.645400	-10.925000	24.787521	0.000987	20.857169
925.235555	-3.026700	3.644100	-11.029000	24.830119	0.000988	20.870996
926.234627	-3.022300	3.645900	-11.018000	24.809917	0.000989	20.862102
927.238656	-2.971800	3.646200	-10.834000	24.805090	0.000986	20.845404
928.235325	-3.005900	3.645100	-10.956000	24.804823	0.000987	20.859360
929.234845	-3.031900	3.643000	-11.044000	24.813148	0.000986	20.871981
930.235923	-3.008300	3.644200	-10.962000	24.827845	0.000986	20.855438
931.235520	-2.985400	3.643600	-10.876000	24.846450	0.000985	20.863204
932.236557	-2.973100	3.645400	-10.837000	24.857342	0.000985	20.868445
933.236444	-3.014500	3.643700	-10.982000	24.845019	0.000984	20.845647
934.237313	-2.997500	3.642400	-10.917000	24.855657	0.000984	20.830720
935.235572	-3.002300	3.643400	-10.937000	24.878038	0.000984	20.844173
936.237894	-2.998000	3.643800	-10.923000	24.871145	0.000987	20.841997
937.239401	-3.003000	3.643400	-10.940000	24.834625	0.000982	20.845647
938.236911	-2.982500	3.643300	-10.864000	24.884168	0.000984	20.869765
939.238509	-3.027300	3.641300	-11.022000	24.884908	0.000985	20.855335
940.238132	-2.994000	3.641600	-10.902000	24.915846	0.000982	20.853670
941.237951	-3.010500	3.640700	-10.959000	24.923035	0.000982	20.847609
942.238111	-2.994200	3.641900	-10.904000	24.915132	0.000982	20.864332
943.238814	-2.999100	3.642200	-10.921000	24.900461	0.000981	20.844867
944.238118	-2.995200	3.640900	-10.904000	24.911469	0.000982	20.842639
945.240484	-3.012000	3.640900	-10.965000	24.901778	0.000979	20.844767
946.238451	-3.004200	3.638900	-10.931000	24.906235	0.000981	20.849714
947.238357	-3.000400	3.639800	-10.920000	24.904269	0.000978	20.838258
948.241349	-3.016400	3.639200	-10.977000	24.891348	0.000981	20.848049
949.237890	-2.983900	3.640900	-10.863000	24.850451	0.000978	20.839720
950.241370	-3.007700	3.639200	-10.944000	24.843211	0.000979	20.863746
951.239594	-3.003200	3.637900	-10.924000	24.824071	0.000977	20.835530
952.239262	-3.011700	3.638900	-10.957000	24.817101	0.000979	20.854612
953.243810	-3.013200	3.637900	-10.961000	24.817229	0.000977	20.862801
954.241374	-2.980800	3.638500	-10.844000	24.841324	0.000979	20.850948
955.242685	-2.983500	3.637300	-10.851000	24.820012	0.000978	20.834302
956.241158	-2.998400	3.638400	-10.908000	24.818953	0.000979	20.848411
957.241734	-2.997800	3.636900	-10.901000	24.803553	0.000976	20.853344
958.242744	-3.011400	3.636000	-10.948000	24.785422	0.000975	20.841788
959.242733	-2.999200	3.636500	-10.906000	24.792854	0.000975	20.833599
960.242310	-2.999100	3.636100	-10.903000	24.840623	0.000977	20.845504
961.241422	-3.002600	3.635600	-10.916000	24.844978	0.000977	20.839917
962.241577	-2.968500	3.636900	-10.793000	24.838517	0.000976	20.848605
963.242752	-3.012900	3.634900	-10.951000	24.821037	0.000974	20.834381
964.244599	-3.010400	3.633100	-10.935000	24.815458	0.000975	20.830205
965.242014	-2.994300	3.633700	-10.879000	24.806672	0.000973	20.837035
966.245093	-3.015400	3.634000	-10.955000	24.829950	0.000974	20.845224
967.244553	-3.005400	3.633400	-10.920000	24.834151	0.000973	20.849439
968.243506	-2.991300	3.633300	-10.867000	24.838645	0.000973	20.838777
969.247859	-2.976900	3.634400	-10.818000	24.829694	0.000971	20.816992
970.244704	-2.992500	3.635100	-10.876000	24.818523	0.000972	20.840868
971.247466	-3.008800	3.632000	-10.927000	24.826350	0.000973	20.832602
972.244484	-3.031000	3.633100	-11.009000	24.865563	0.000973	20.817903
973.245844	-2.974900	3.633300	-10.808000	24.920786	0.000971	20.825438
974.246367	-3.015100	3.632200	-10.950000	24.944636	0.000970	20.833256
975.247707	-3.015300	3.631900	-10.950000	24.940103	0.000968	20.818275
976.245028	-3.011500	3.630600	-10.933000	24.961606	0.000970	20.835589
977.246165	-3.005100	3.632100	-10.913000	24.925382	0.000970	20.840482
978.246421	-2.992100	3.631900	-10.865000	24.930017	0.000970	20.821902
979.247422	-3.002600	3.630500	-10.900000	24.912231	0.000968	20.804524
980.248794	-2.966800	3.633000	-10.776000	24.938865	0.000966	20.844532
981.246396	-2.997200	3.629300	-10.877000	24.946577	0.000967	20.836152
982.249629	-3.011300	3.630000	-10.929000	24.960109	0.000968	20.820811
983.246803	-2.988200	3.630000	-10.846000	24.953535	0.000968	20.838868
984.248455	-3.022000	3.630700	-10.970000	24.958003	0.000968	20.832922
985.253002	-3.001300	3.629000	-10.890000	24.979759	0.000966	20.831051
986.248769	-2.991700	3.630600	-10.861000	24.969736	0.000965	20.827629
987.250864	-3.004600	3.629200	-10.903000	24.947149	0.000967	20.820131
988.249427	-2.999400	3.627800	-10.880000	24.955143	0.000965	20.819620
989.249563	-2.991600	3.628300	-10.854000	24.955857	0.000965	20.821285
990.250584	-3.002400	3.627900	-10.892000	24.950698	0.000965	20.817529
991.251440	-2.986000	3.627600	-10.831000	24.992473	0.000965	20.821054
992.253121	-2.996600	3.629000	-10.874000	24.999471	0.000965	20.806267
993.250564	-3.030600	3.627100	-10.991000	25.002368	0.000963	20.827192
994.251254	-3.012300	3.626500	-10.923000	25.015913	0.000964	20.803805
995.256842	-2.985600	3.626800	-10.827000	25.025616	0.000962	20.815915
996.254219	-3.003500	3.627000	-10.893000	25.058528	0.000962	20.812916
997.253481	-3.017400	3.625200	-10.938000	25.077052	0.000962	20.812545
998.254138	-2.989800	3.628000	-10.845000	25.097644	0.000962	20.816147
999.253690	-3.009900	3.625600	-10.912000	25.057151	0.000962	20.824810
1000.253976	-3.000500	3.624600	-10.875000	25.046261	0.000960	20.812456
1001.256353	-3.012000	3.623600	-10.913000	25.025209	0.000961	20.818826
1002.254761	-2.986800	3.624300	-10.824000	25.035155	0.000960	20.798937
1003.260468	-3.009400	3.624100	-10.905000	25.019336	0.000960	20.802499
1004.254893	-2.990200	3.624900	-10.838000	24.992641	0.000960	20.803679
1005.254659	-2.993200	3.624800	-10.849000	25.006201	0.000959	20.814444
1006.260760	-3.003700	3.622000	-10.878000	25.003557	0.000957	20.798515
1007.259455	-2.996200	3.622000	-10.851000	25.002638	0.000959	20.793799
1008.256486	-3.009000	3.622100	-10.898000	25.045905	0.000957	20.815892
1009.258054	-2.994000	3.623500	-10.848000	25.065923	0.000956	20.824133
1010.257248	-3.007800	3.622300	-10.894000	25.059629	0.000956	20.774667
1011.258474	-2.997300	3.621900	-10.855000	25.042229	0.000956	20.818840
1012.263037	-2.994500	3.621900	-10.844000	24.993461	0.000958	20.811614
1013.258373	-2.988600	3.622100	-10.823000	25.002359	0.000957	20.795415
1014.258758	-3.012300	3.620500	-10.905000	24.976645	0.000956	20.789046
1015.259413	-3.016700	3.619400	-10.916000	24.996742	0.000954	20.799734
1016.257865	-2.999500	3.621000	-10.860000	24.971182	0.000955	20.796838
1017.262591	-3.005600	3.620400	-10.881000	24.939326	0.000955	20.805167
1018.260317	-2.980600	3.621700	-10.794000	24.926699	0.000954	20.786804
1019.260065	-2.996900	3.620900	-10.850000	24.950894	0.000952	20.805398
1020.261009	-3.013000	3.619100	-10.904000	24.936378	0.000953	20.794147
1021.260821	-3.000200	3.619700	-10.857000	24.956142	0.000953	20.799286
1022.263137	-2.993100	3.619500	-10.832000	24.963495	0.000953	20.793864
1023.259826	-3.016700	3.617600	-10.913000	24.961517	0.000951	20.782870
1024.261801	-2.993100	3.617300	-10.826000	24.962257	0.000951	20.800683
1025.262436	-2.990200	3.618800	-10.819000	24.987601	0.000951	20.810474
1026.262035	-2.984700	3.618900	-10.800000	25.002040	0.000950	20.806949
1027.266135	-2.990800	3.619000	-10.822000	24.985214	0.000950	20.806181
1028.264526	-2.999100	3.617600	-10.849000	24.990333	0.000949	20.813690
1029.264740	-2.985700	3.617900	-10.800000	25.000649	0.000949	20.803182
1030.267682	-3.002500	3.617300	-10.860000	25.017310	0.000949	20.803310
1031.264842	-2.979500	3.617900	-10.778000	25.034085	0.000948	20.781742
1032.264969	-3.024600	3.615500	-10.934000	25.068962	0.000947	20.791622
1033.271098	-3.011100	3.616700	-10.890000	25.063627	0.000948	20.806181
1034.266501	-3.010500	3.615000	-10.882000	25.059566	0.000948	20.801631
1035.269390	-3.019300	3.615600	-10.916000	25.085967	0.000949	20.799683
1036.267989	-2.998800	3.614400	-10.838000	25.119056	0.000946	20.791174
1037.267513	-2.987600	3.614600	-10.797000	25.131822	0.000945	20.797826
1038.269960	-2.999100	3.615300	-10.841000	25.120882	0.000946	20.785895
1039.273460	-2.985700	3.616200	-10.796000	25.118353	0.000945	20.788572
1040.268731	-3.014900	3.613500	-10.893000	25.125310	0.000946	20.785598
1041.269485	-2.969300	3.613500	-10.730000	25.122680	0.000945	20.794339
1042.269139	-2.998200	3.613200	-10.832000	25.104923	0.000944	20.820608
1043.269797	-3.018800	3.613400	-10.905000	25.086029	0.000942	20.790737
1044.272804	-2.983100	3.612600	-10.776000	25.085147	0.000945	20.780842
1045.270230	-2.991400	3.612300	-10.805000	25.119704	0.000942	20.787558
1046.275674	-3.020800	3.612400	-10.912000	25.126712	0.000942	20.780368
1047.271133	-2.994200	3.611900	-10.814000	25.141559	0.000941	20.762556
1048.272414	-3.016300	3.611000	-10.890000	25.150405	0.000940	20.788032
1049.271938	-3.013400	3.609700	-10.876000	25.191712	0.000941	20.792991
1050.274443	-2.997000	3.612300	-10.826000	25.192415	0.000941	20.784213
1051.271283	-3.006600	3.611900	-10.859000	25.204885	0.000940	20.794836
1052.271048	-2.994100	3.611200	-10.811000	25.235671	0.000939	20.811520
1053.271590	-3.006100	3.611400	-10.855000	25.207909	0.000938	20.804036
1054.271634	-3.002900	3.611000	-10.843000	25.213984	0.000940	20.796384
1055.275342	-3.005700	3.609300	-10.847000	25.224758	0.000939	20.783019
1056.274224	-3.014200	3.608300	-10.875000	25.228599	0.000938	20.807264
1057.273423	-3.007300	3.609100	-10.852000	25.215656	0.000937	20.769140
1058.275429	-2.999300	3.609100	-10.824000	25.177375	0.000938	20.789977
1059.273742	-3.013100	3.607600	-10.867000	25.152596	0.000938	20.789283
1060.277443	-2.978900	3.609300	-10.750000	25.161112	0.000938	20.806367
1061.278783	-3.008200	3.606500	-10.848000	25.162020	0.000936	20.797321
1062.277771	-3.002000	3.607600	-10.829000	25.140330	0.000936	20.799255
1063.274181	-2.994100	3.607400	-10.800000	25.122957	0.000934	20.807892
1064.275253	-3.006200	3.607100	-10.843000	25.099648	0.000936	20.796821
1065.279365	-2.992600	3.608100	-10.796000	25.070949	0.000934	20.801677
1066.276548	-3.015600	3.606700	-10.875000	25.016371	0.000935	20.810903
1067.275569	-3.003400	3.605700	-10.829000	25.016306	0.000934	20.790923
1068.275648	-3.014800	3.605100	-10.868000	24.981657	0.000934	20.804982
1069.275650	-3.004600	3.603900	-10.827000	25.003196	0.000932	20.800523
1070.276365	-3.010300	3.604700	-10.850000	25.034856	0.000932	20.806224
1071.280421	-2.986900	3.604000	-10.764000	25.055794	0.000933	20.803059
1072.276501	-3.001500	3.603000	-10.814000	25.080356	0.000932	20.781248
1073.278841	-2.993200	3.603900	-10.786000	25.066811	0.000931	20.792308
1074.282491	-2.987000	3.603600	-10.762000	25.056138	0.000929	20.796767
1075.277908	-3.002200	3.602400	-10.813000	25.071993	0.000932	20.807941
1076.282592	-3.004700	3.602200	-10.822000	25.086841	0.000929	20.783491
1077.279444	-3.008800	3.602800	-10.838000	25.144029	0.000928	20.806287
1078.281186	-3.009200	3.601300	-10.836000	25.157561	0.000928	20.792845
1079.279295	-3.001200	3.601900	-10.808000	25.204191	0.000929	20.804570
1080.279227	-3.005700	3.601400	-10.824000	25.206527	0.000929	20.803122
1081.282102	-3.010700	3.600700	-10.840000	25.237558	0.000927	20.821000
1082.279192	-3.008000	3.601000	-10.831000	25.217657	0.000926	20.808607
1083.283306	-3.012200	3.601300	-10.847000	25.207064	0.000927	20.822628
1084.279976	-2.986300	3.601600	-10.754000	25.185683	0.000928	20.798792
1085.280592	-3.009200	3.599700	-10.830000	25.190062	0.000928	20.801291
1086.282908	-2.980400	3.601100	-10.731000	25.179913	0.000926	20.805327
1087.289010	-3.005600	3.600600	-10.820000	25.166282	0.000927	20.808712
1088.282016	-3.007300	3.600700	-10.827000	25.148334	0.000925	20.816298
1089.281571	-3.017600	3.599600	-10.861000	25.140686	0.000924	20.809095
1090.280761	-3.004600	3.598500	-10.811000	25.118424	0.000923	20.818989
1091.282424	-3.001900	3.598100	-10.799000	25.083523	0.000923	20.823782
1092.285507	-2.998200	3.599100	-10.789000	25.113433	0.000922	20.824410
1093.282432	-3.015000	3.598600	-10.849000	25.139960	0.000923	20.822591
1094.282481	-3.021300	3.598400	-10.871000	25.155151	0.000923	20.811762
1095.282618	-2.997100	3.598300	-10.784000	25.179660	0.000921	20.812185
1096.283425	-3.014200	3.596600	-10.840000	25.177873	0.000921	20.815133
1097.287488	-2.997700	3.596900	-10.780000	25.202686	0.000921	20.790731
1098.285110	-3.009500	3.597200	-10.824000	25.221859	0.000920	20.800023
1099.287107	-2.998700	3.595500	-10.781000	25.240431	0.000920	20.838109
1100.286143	-3.008000	3.595500	-10.813000	25.212362	0.000920	20.800920
1101.285433	-2.990800	3.595100	-10.751000	25.237930	0.000922	20.810469
1102.288513	-2.988100	3.597400	-10.748000	25.224846	0.000920	20.819143
1103.288802	-2.992000	3.595400	-10.755000	25.269291	0.000917	20.821091
1104.291068	-2.992300	3.597000	-10.763000	25.252531	0.000919	20.827024
1105.288930	-3.005300	3.594600	-10.802000	25.278927	0.000918	20.844041
1106.288926	-3.015600	3.594400	-10.838000	25.319284	0.000916	20.810120
1107.295313	-3.002600	3.594200	-10.791000	25.307390	0.000917	20.842273
1108.290707	-2.981400	3.593600	-10.713000	25.338455	0.000916	20.829369
1109.293931	-2.994400	3.594900	-10.763000	25.332430	0.000918	20.825216
1110.291363	-3.010800	3.591800	-10.813000	25.315352	0.000915	20.835570
1111.291621	-3.005900	3.593800	-10.802000	25.318035	0.000916	20.807444
1112.293894	-3.008100	3.591200	-10.801000	25.335596	0.000916	20.830291
1113.295444	-2.998300	3.593200	-10.773000	25.347581	0.000914	20.840902
1114.291789	-3.006900	3.593000	-10.804000	25.350477	0.000913	20.831008
1115.291562	-3.012800	3.592400	-10.821000	25.376258	0.000915	20.837929
1116.290273	-3.007500	3.592200	-10.802000	25.382116	0.000914	20.837646
1117.290979	-2.972000	3.593500	-10.679000	25.351205	0.000912	20.829369
1118.293270	-3.002600	3.590800	-10.780000	25.347618	0.000913	20.823870
1119.290907	-2.999400	3.590800	-10.769000	25.291945	0.000912	20.833879
1120.297185	-3.009800	3.588500	-10.799000	25.319526	0.000912	20.840708
1121.293737	-3.008400	3.588900	-10.796000	25.314638	0.000912	20.839120
1122.293213	-2.978400	3.590500	-10.693000	25.362704	0.000911	20.818629
1123.295278	-2.995400	3.590500	-10.754000	25.368663	0.000910	20.842156
1124.294722	-3.010200	3.589700	-10.805000	25.374611	0.000909	20.846706
1125.293832	-2.996600	3.590100	-10.757000	25.387028	0.000908	20.832622
1126.294045	-2.999500	3.588400	-10.762000	25.351894	0.000908	20.858982
1127.296563	-2.999200	3.588800	-10.762000	25.322729	0.000911	20.827804
1128.293490	-2.977600	3.589100	-10.685000	25.281555	0.000908	20.821077
1129.297267	-2.996100	3.587700	-10.748000	25.266429	0.000909	20.856149
1130.295376	-3.001800	3.587200	-10.768000	25.259575	0.000907	20.846898
1131.295506	-3.000100	3.585600	-10.756000	25.240813	0.000905	20.851293
1132.296165	-3.018300	3.586600	-10.824000	25.214775	0.000906	20.858342
1133.295930	-3.012500	3.585800	-10.801000	25.206336	0.000906	20.854612
1134.296377	-3.006800	3.585100	-10.778000	25.224986	0.000905	20.850576
1135.299172	-2.997000	3.585900	-10.746000	25.228152	0.000904	20.859445
1136.296069	-3.006500	3.585400	-10.779000	25.233871	0.000904	20.852384
1137.296051	-3.004400	3.585300	-10.771000	25.194671	0.000904	20.829626
1138.298305	-3.017500	3.583800	-10.813000	25.228061	0.000903	20.851767
1139.296490	-3.001300	3.583700	-10.755000	25.220581	0.000903	20.839991
1140.300007	-3.016800	3.584900	-10.814000	25.198142	0.000901	20.845912
1141.297123	-3.019700	3.582700	-10.818000	25.198742	0.000903	20.842722
1142.298635	-3.000500	3.583000	-10.750000	25.201192	0.000901	20.858931
1143.298972	-2.986600	3.583900	-10.703000	25.232184	0.000901	20.867759
1144.298647	-3.005600	3.583200	-10.769000	25.258275	0.000898	20.861239
1145.300160	-2.992700	3.581800	-10.718000	25.269291	0.000898	20.853807
1146.300703	-3.006700	3.582000	-10.769000	25.270042	0.000899	20.857880
1147.303077	-3.003000	3.582100	-10.756000	25.242613	0.000899	20.857843
1148.300363	-3.000900	3.581700	-10.747000	25.224334	0.000898	20.872206
1149.300127	-2.986800	3.581000	-10.694000	25.236281	0.000899	20.865234
1150.301794	-3.005000	3.578300	-10.752000	25.267604	0.000897	20.860173
1151.301455	-3.022800	3.579300	-10.818000	25.303330	0.000896	20.875180
1152.301901	-3.016300	3.579100	-10.795000	25.295965	0.000896	20.854984
1153.302594	-2.994000	3.580900	-10.721000	25.277203	0.000895	20.864595
1154.301245	-3.003700	3.580000	-10.752000	25.269123	0.000895	20.842733
1155.306597	-3.009800	3.580200	-10.775000	25.300852	0.000896	20.869373
1156.306269	-2.990400	3.578600	-10.701000	25.297788	0.000893	20.866771
1157.304989	-2.998900	3.578800	-10.731000	25.327195	0.000894	20.873063
1158.302776	-2.997300	3.577700	-10.723000	25.318351	0.000894	20.891208
1159.303691	-2.981800	3.578800	-10.671000	25.291649	0.000893	20.871987
1160.303504	-2.994400	3.578100	-10.712000	25.261502	0.000892	20.865900
1161.304981	-3.006600	3.578600	-10.759000	25.252005	0.000894	20.859685
1162.306660	-3.019700	3.576900	-10.798000	25.238653	0.000894	20.860505
1163.305602	-2.985800	3.578200	-10.683000	25.238562	0.000891	20.859465
1164.306077	-2.982500	3.577200	-10.668000	25.274404	0.000891	20.858940
1165.308111	-2.999400	3.576700	-10.727000	25.308548	0.000891	20.874254
1166.306277	-3.016500	3.576000	-10.786000	25.347308	0.000891	20.867654
1167.306497	-3.008400	3.575700	-10.756000	25.334162	0.000891	20.860619
1168.305746	-2.985100	3.577000	-10.677000	25.337750	0.000888	20.873229
1169.305871	-3.004000	3.574700	-10.737000	25.324143	0.000889	20.887067
1170.306248	-2.993600	3.574200	-10.698000	25.347780	0.000888	20.880929
1171.308849	-3.013800	3.573600	-10.769000	25.371443	0.000888	20.884299
1172.306782	-3.004100	3.574500	-10.737000	25.381729	0.000887	20.881826
1173.307982	-3.003700	3.572500	-10.729000	25.400489	0.000887	20.874586
1174.308367	-2.991700	3.574300	-10.691000	25.415409	0.000886	20.895730
1175.307404	-2.992900	3.572300	-10.690000	25.424918	0.000885	20.889632
1176.311072	-3.002300	3.571400	-10.721000	25.426232	0.000886	20.883365
1177.308887	-2.969600	3.574500	-10.614000	25.411415	0.000884	20.887453
1178.310313	-3.006100	3.572300	-10.738000	25.411162	0.000883	20.905215
1179.308455	-3.003400	3.571900	-10.727000	25.422239	0.000883	20.898320
1180.307642	-3.014200	3.570200	-10.761000	25.424639	0.000883	20.880343
1181.309561	-3.009400	3.571000	-10.746000	25.443501	0.000884	20.890274
1182.312557	-2.992800	3.571000	-10.686000	25.461803	0.000882	20.915762
1183.308732	-3.012300	3.572200	-10.760000	25.456062	0.000881	20.892930
1184.308371	-3.013500	3.570100	-10.758000	25.448698	0.000884	20.900233
1185.308650	-3.025000	3.570200	-10.798000	25.443760	0.000879	20.918980
1186.308680	-2.983500	3.571200	-10.654000	25.469016	0.000878	20.900722
1187.311426	-2.987600	3.570100	-10.665000	25.476622	0.000879	20.887972
1188.309754	-2.994200	3.568200	-10.683000	25.457174	0.000879	20.886935
1189.308370	-2.978000	3.570000	-10.631000	25.424505	0.000879	20.910078
1190.308663	-3.006700	3.567600	-10.725000	25.411386	0.000877	20.883630
1191.308419	-2.975900	3.568500	-10.617000	25.370853	0.000878	20.906465
1192.311004	-3.018200	3.566700	-10.764000	25.364575	0.000877	20.912963
1193.311889	-2.984100	3.568400	-10.648000	25.338819	0.000878	20.912706
1194.310867	-2.997500	3.567000	-10.691000	25.344602	0.000875	20.915667
1195.311385	-3.001000	3.568100	-10.708000	25.348329	0.000876	20.918460
1196.312969	-3.002800	3.566800	-10.709000	25.346758	0.000876	20.912143
1197.313387	-3.001700	3.567600	-10.708000	25.369260	0.000876	20.918140
1198.319851	-3.020700	3.566100	-10.771000	25.366606	0.000875	20.909312
1199.312550	-3.011400	3.565900	-10.738000	25.332261	0.000876	20.911811
1200.312281	-3.029300	3.564300	-10.797000	25.333371	0.000873	20.911503
1201.312519	-2.995600	3.564700	-10.677000	25.340685	0.000873	20.910312
1202.311818	-2.995500	3.565500	-10.680000	25.347168	0.000873	20.911606
1203.312787	-3.004000	3.564100	-10.706000	25.335772	0.000872	20.912491
1204.314030	-2.982400	3.564200	-10.629000	25.313042	0.000872	20.929970
1205.312614	-3.011100	3.562700	-10.726000	25.321235	0.000871	20.922550
1206.312765	-3.008200	3.563400	-10.718000	25.316678	0.000872	20.927457
1207.316545	-2.998300	3.564000	-10.684000	25.349850	0.000870	20.934211
1208.313239	-2.984500	3.562700	-10.631000	25.375413	0.000871	20.912940
1209.313539	-3.006200	3.564500	-10.714000	25.378593	0.000869	20.921348
1210.314911	-2.999600	3.562600	-10.685000	25.365255	0.000869	20.925023
1211.315006	-3.024100	3.561000	-10.766000	25.356004	0.000869	20.923795
1212.314829	-2.987900	3.563800	-10.646000	25.357790	0.000870	20.926537
1213.317375	-2.994400	3.562100	-10.665000	25.337075	0.000866	20.934186
1214.315685	-3.010900	3.561200	-10.722000	25.330617	0.000866	20.932443
1215.315730	-3.008500	3.560600	-10.712000	25.330207	0.000865	20.931558
1216.316249	-2.992600	3.560800	-10.655000	25.328600	0.000865	20.946538
1217.317272	-2.975400	3.560900	-10.593000	25.360291	0.000866	20.925255
1218.320354	-3.017400	3.558200	-10.735000	25.405213	0.000864	20.929585
1219.316299	-3.028900	3.558800	-10.779000	25.382254	0.000863	20.928342
1220.320185	-2.989900	3.560800	-10.644000	25.371331	0.000863	20.930650
1221.317070	-2.975700	3.560600	-10.594000	25.377891	0.000864	20.937236
1222.316961	-3.005400	3.559600	-10.697000	25.379970	0.000863	20.937901
1223.319049	-2.982400	3.560100	-10.615000	25.378414	0.000862	20.926383
1224.319000	-3.002600	3.557500	-10.681000	25.380991	0.000860	20.952675
1225.318018	-3.001000	3.559200	-10.679000	25.413511	0.000861	20.936019
1226.318915	-3.014700	3.557800	-10.725000	25.455803	0.000862	20.945295
1227.321171	-2.997700	3.556700	-10.660000	25.450532	0.000861	20.934788
1228.318393	-3.008600	3.557900	-10.704000	25.459299	0.000860	20.962554
1229.317772	-2.997800	3.557000	-10.663000	25.486685	0.000860	20.951176
1230.320379	-3.010500	3.555200	-10.701000	25.458827	0.000857	20.950228
1231.319126	-3.015100	3.555500	-10.719000	25.438816	0.000858	20.932980
1232.318577	-2.989400	3.556000	-10.629000	25.476806	0.000859	20.959747
1233.323045	-2.993200	3.556000	-10.642000	25.508455	0.000858	20.958813
1234.319515	-2.982300	3.555700	-10.603000	25.515882	0.000858	20.944936
1235.321706	-2.974900	3.555300	-10.575000	25.538340	0.000854	20.960849
1236.318945	-3.003000	3.554400	-10.674000	25.515447	0.000856	20.961092
1237.318559	-3.009300	3.554300	-10.695000	25.506081	0.000855	20.959273
1238.321940	-3.009200	3.553200	-10.691000	25.493932	0.000854	20.941860
1239.321610	-2.984400	3.553300	-10.604000	25.497377	0.000854	20.948163
1240.319273	-3.006200	3.552400	-10.678000	25.468765	0.000855	20.969214
1241.320773	-2.999400	3.553800	-10.659000	25.443714	0.000853	20.936002
1242.322769	-3.010200	3.551300	-10.688000	25.473194	0.000852	20.950905
1243.323159	-3.006300	3.553200	-10.681000	25.487945	0.000852	20.954338
1244.325622	-3.028700	3.551500	-10.755000	25.503808	0.000854	20.972161
1245.323268	-3.023900	3.552200	-10.741000	25.540903	0.000852	20.967689
1246.325815	-3.013600	3.549100	-10.693000	25.554837	0.000850	20.955606
1247.323571	-2.998900	3.552200	-10.652000	25.526816	0.000850	20.958759
1248.322993	-3.026700	3.549500	-10.743000	25.509690	0.000853	20.965741
1249.327088	-3.006800	3.550100	-10.674000	25.516351	0.000850	20.965793
1250.324450	-2.993100	3.550800	-10.627000	25.503182	0.000849	20.960155
1251.325388	-2.991800	3.548700	-10.616000	25.466379	0.000847	20.976774
1252.325533	-2.991900	3.548900	-10.617000	25.477762	0.000850	20.973981
1253.325336	-2.986900	3.550300	-10.603000	25.463955	0.000847	20.965807
1254.325393	-3.013000	3.547300	-10.687000	25.463623	0.000848	20.966421
1255.327610	-3.015200	3.549200	-10.700000	25.466430	0.000848	20.993892
1256.326543	-2.993800	3.548300	-10.621000	25.479230	0.000846	20.963128
1257.326696	-3.008000	3.548100	-10.672000	25.486568	0.000844	20.963385
1258.327910	-2.968800	3.547700	-10.532000	25.514605	0.000845	20.985373
1259.326957	-3.012700	3.546600	-10.684000	25.532763	0.000846	20.977530
1260.329196	-2.999700	3.546800	-10.638000	25.536298	0.000846	20.993880
1261.326466	-2.995500	3.546100	-10.621000	25.517463	0.000844	20.980184
1262.326358	-3.007500	3.547700	-10.667000	25.492911	0.000843	20.985398
1263.327914	-2.990700	3.546400	-10.605000	25.472110	0.000842	20.983002
1264.328732	-2.989200	3.546500	-10.599000	25.456847	0.000845	20.990907
1265.331222	-2.987300	3.546100	-10.592000	25.469698	0.000841	20.960669
1266.330600	-3.011100	3.544200	-10.671000	25.500287	0.000840	20.976211
1267.329667	-3.023900	3.544500	-10.716000	25.535943	0.000842	20.975508
1268.329941	-3.006600	3.544800	-10.657000	25.530951	0.000841	20.977608
1269.329103	-3.002700	3.544500	-10.642000	25.534944	0.000841	20.980195
1270.329079	-3.017700	3.542500	-10.688000	25.530786	0.000840	20.972227
1271.331069	-2.980000	3.544400	-10.561000	25.556663	0.000838	20.982091
1272.330065	-2.982300	3.542400	-10.564000	25.518075	0.000839	20.959464
1273.331977	-2.963800	3.543200	-10.501000	25.521534	0.000838	20.973841
1274.329943	-2.982100	3.542300	-10.562000	25.545090	0.000838	20.962885
1275.329550	-2.996400	3.541700	-10.611000	25.562789	0.000838	20.961694
1276.333049	-2.999200	3.540900	-10.617000	25.541543	0.000838	20.960272
1277.332808	-3.038000	3.540300	-10.754000	25.529828	0.000836	20.965576
1278.332509	-2.999700	3.540500	-10.619000	25.515026	0.000837	20.961143
1279.332723	-3.022200	3.540600	-10.699000	25.501754	0.000837	20.967729
1280.334207	-2.990100	3.540500	-10.586000	25.498296	0.000834	20.953826
1281.332734	-3.007200	3.541300	-10.648000	25.481477	0.000837	20.960643
1282.336822	-2.994500	3.540600	-10.601000	25.454626	0.000836	20.956439
1283.335025	-2.993700	3.539100	-10.594000	25.435138	0.000834	20.961052
1284.333824	-3.012400	3.538700	-10.659000	25.443088	0.000835	20.949123
1285.334747	-2.997200	3.539300	-10.607000	25.464018	0.000833	20.948803
1286.334754	-2.991000	3.539300	-10.584000	25.463264	0.000834	20.937616
1287.338558	-2.978400	3.538800	-10.539000	25.439516	0.000832	20.940320
1288.334538	-3.001200	3.538200	-10.618000	25.399570	0.000831	20.954260
1289.337011	-3.019000	3.536900	-10.677000	25.394119	0.000832	20.946418
1290.335124	-2.995500	3.538400	-10.598000	25.363235	0.000831	20.943856
1291.335320	-3.039300	3.536100	-10.746000	25.367243	0.000832	20.947406
1292.336625	-3.004600	3.536700	-10.626000	25.366413	0.000829	20.948469
1293.337450	-3.001500	3.535900	-10.612000	25.366745	0.000828	20.941691
1294.337432	-2.976900	3.535900	-10.526000	25.426536	0.000828	20.930607
1295.337371	-2.982500	3.537100	-10.548000	25.430186	0.000829	20.934271
1296.339845	-2.999700	3.535400	-10.605000	25.448641	0.000827	20.937156
1297.339108	-2.996800	3.536300	-10.596000	25.464630	0.000827	20.949891
1298.340174	-2.999600	3.533700	-10.598000	25.439527	0.000827	20.939858
1299.339989	-2.997300	3.534400	-10.593000	25.423461	0.000825	20.947432
1300.341567	-2.973700	3.535500	-10.513000	25.422210	0.000827	20.929582
1301.340099	-3.005600	3.533900	-10.620000	25.454728	0.000824	20.924778
1302.342055	-2.989600	3.533200	-10.562000	25.458198	0.000823	20.927314
1303.344637	-3.010300	3.533800	-10.637000	25.476602	0.000822	20.924458
1304.341087	-3.012700	3.531100	-10.637000	25.456642	0.000822	20.926226
1305.344674	-3.003700	3.533600	-10.612000	25.445247	0.000823	20.925215
1306.341633	-3.014400	3.531300	-10.642000	25.444622	0.000821	20.920320
1307.344381	-3.011700	3.532000	-10.636000	25.437067	0.000820	20.933120
1308.344700	-2.989800	3.530800	-10.555000	25.457524	0.000822	20.929956
1309.346106	-2.991500	3.531400	-10.563000	25.486748	0.000823	20.920422
1310.343060	-3.006300	3.532000	-10.617000	25.494979	0.000822	20.909724
1311.342730	-2.989000	3.531400	-10.555000	25.479767	0.000822	20.920051
1312.343985	-2.997700	3.529900	-10.579000	25.461876	0.000821	20.913465
1313.344617	-3.013900	3.530200	-10.639000	25.468831	0.000820	20.917604
1314.346771	-2.993900	3.529700	-10.566000	25.498131	0.000817	20.927585
1315.346786	-3.004900	3.528300	-10.602000	25.522174	0.000819	20.929919
1316.349972	-3.014400	3.528700	-10.636000	25.534819	0.000818	20.929342
1317.346217	-2.989800	3.528700	-10.549000	25.535573	0.000819	20.926306
1318.347301	-2.972300	3.528000	-10.485000	25.532407	0.000817	20.907956
1319.350368	-2.996400	3.529200	-10.574000	25.554433	0.000816	20.926280
1320.347194	-2.990900	3.527800	-10.551000	25.573369	0.000815	20.911634
1321.347187	-3.002900	3.527800	-10.593000	25.560852	0.000815	20.921348
1322.347250	-2.996500	3.528800	-10.573000	25.576842	0.000815	20.908010
1323.346719	-2.972300	3.529100	-10.487000	25.610246	0.000815	20.936813
1324.346518	-3.001200	3.527000	-10.584000	25.609916	0.000812	20.917992
1325.350552	-2.993200	3.526900	-10.555000	25.630140	0.000814	20.934508
1326.348626	-2.960600	3.526500	-10.439000	25.662191	0.000813	20.920234
1327.348802	-3.018500	3.525400	-10.640000	25.646180	0.000811	20.915059
1328.348320	-2.970300	3.525400	-10.471000	25.651805	0.000812	20.895580
1329.348722	-2.988800	3.525200	-10.536000	25.659754	0.000811	20.945284
1330.351755	-2.991700	3.525300	-10.546000	25.651947	0.000809	20.919428
1331.350394	-3.014300	3.522800	-10.618000	25.633993	0.000810	20.909458
1332.350182	-2.997100	3.524600	-10.563000	25.588162	0.000808	20.919851
1333.351693	-3.014800	3.523200	-10.621000	25.567744	0.000808	20.918312
1334.351771	-3.026500	3.523000	-10.662000	25.585519	0.000807	20.917198
1335.352003	-2.987800	3.522400	-10.523000	25.614446	0.000809	20.916378
1336.353212	-2.976800	3.523900	-10.489000	25.664847	0.000809	20.895403
1337.352489	-2.974800	3.523500	-10.481000	25.682684	0.000806	20.903834
1338.353061	-2.992200	3.522400	-10.537000	25.669836	0.000805	20.928385
1339.353185	-2.994100	3.521600	-10.543000	25.709095	0.000806	20.915187
1340.354462	-2.989400	3.522800	-10.531000	25.725043	0.000803	20.940212
1341.353737	-3.002700	3.522600	-10.577000	25.754299	0.000803	20.911280
1342.356772	-2.996500	3.521800	-10.551000	25.701630	0.000804	20.927128
1343.354581	-3.003700	3.519300	-10.570000	25.709044	0.000801	20.911817
1344.354635	-3.019300	3.520100	-10.627000	25.712553	0.000801	20.918186
1345.355538	-2.986800	3.520600	-10.513000	25.699423	0.000803	20.890776
1346.354300	-3.010200	3.520200	-10.594000	25.729328	0.000801	20.899002
1347.353595	-3.010700	3.520700	-10.599000	25.715320	0.000799	20.920017
1348.355434	-3.028500	3.516800	-10.648000	25.707218	0.000801	20.907139
1349.353652	-2.986400	3.519000	-10.509000	25.726393	0.000798	20.911700
1350.354100	-2.991700	3.519400	-10.527000	25.691230	0.000801	20.899616
1351.358085	-3.033200	3.515600	-10.662000	25.670293	0.000799	20.904665
1352.354489	-3.005800	3.518800	-10.575000	25.627242	0.000797	20.905522
1353.354393	-2.987100	3.516800	-10.504000	25.620248	0.000798	20.881905
1354.354166	-3.015000	3.515100	-10.597000	25.599131	0.000797	20.913799
1355.354758	-3.030800	3.516900	-10.657000	25.592357	0.000796	20.903677
1356.359959	-3.004400	3.515800	-10.562000	25.613653	0.000797	20.900410
1357.356067	-2.994300	3.516200	-10.528000	25.652147	0.000794	20.918206
1358.356842	-3.011600	3.513000	-10.578000	25.631909	0.000795	20.907365
1359.356713	-2.978700	3.516500	-10.473000	25.634946	0.000795	20.913259
1360.359370	-3.023000	3.513900	-10.622000	25.619941	0.000793	20.905302
1361.360745	-2.986100	3.515300	-10.496000	25.606950	0.000794	20.896997
1362.369597	-2.984700	3.513800	-10.487000	25.615806	0.000793	20.901150
1363.357348	-2.997100	3.512700	-10.527000	25.625004	0.000792	20.911809
1364.358058	-2.989800	3.513400	-10.504000	25.584428	0.000792	20.885284
1365.356981	-3.006600	3.513200	-10.560000	25.620308	0.000792	20.897611
1366.360040	-2.986500	3.512400	-10.490000	25.656939	0.000791	20.908796
1367.357462	-3.011500	3.512300	-10.576000	25.640071	0.000792	20.909398
1368.359828	-2.998200	3.511100	-10.526000	25.686552	0.000791	20.918623
1369.357243	-2.984400	3.512300	-10.481000	25.714928	0.000789	20.907770
1370.358022	-2.990400	3.512400	-10.503000	25.708012	0.000788	20.894661
1371.360631	-3.020100	3.509400	-10.596000	25.716867	0.000789	20.893598
1372.365529	-2.965300	3.510600	-10.408000	25.711902	0.000788	20.909947
1373.360301	-2.999900	3.510500	-10.531000	25.736410	0.000789	20.883357
1374.358518	-3.006200	3.510100	-10.551000	25.762679	0.000789	20.898363
1375.358747	-3.014900	3.509700	-10.581000	25.767514	0.000788	20.898951
1376.359519	-3.008400	3.508500	-10.554000	25.818991	0.000789	20.885701
1377.362789	-2.982900	3.510000	-10.470000	25.830422	0.000787	20.895761
1378.361242	-2.990200	3.509000	-10.491000	25.852618	0.000784	20.885816
1379.364345	-3.002000	3.507500	-10.529000	25.883118	0.000786	20.900808
1380.361251	-2.986400	3.508800	-10.478000	25.872083	0.000784	20.887352
1381.361421	-2.980700	3.507500	-10.454000	25.853994	0.000784	20.901896
1382.363380	-2.985400	3.506200	-10.466000	25.845242	0.000782	20.881726
1383.361564	-3.013900	3.506900	-10.568000	25.793920	0.000784	20.870950
1384.361617	-2.988400	3.506800	-10.479000	25.783586	0.000782	20.900870
1385.360909	-2.969800	3.506600	-10.412000	25.774248	0.000782	20.885802
1386.362469	-2.987800	3.505800	-10.473000	25.800630	0.000781	20.870578
1387.362385	-2.993200	3.504800	-10.489000	25.811663	0.000779	20.904892
1388.364667	-2.990500	3.505300	-10.482000	25.746295	0.000781	20.879061
1389.362837	-3.000600	3.504400	-10.515000	25.716720	0.000780	20.894399
1390.363455	-3.002500	3.505000	-10.523000	25.710301	0.000778	20.894590
1391.363865	-2.986300	3.505000	-10.466000	25.654417	0.000779	20.875920
1392.363085	-2.984900	3.503200	-10.455000	25.628924	0.000779	20.883980
1393.365189	-3.001000	3.503800	-10.514000	25.661626	0.000778	20.881737
1394.369490	-3.006200	3.502700	-10.529000	25.707264	0.000778	20.890591
1395.365267	-3.000600	3.501900	-10.507000	25.714141	0.000778	20.871895
1396.363600	-3.012100	3.500100	-10.541000	25.751726	0.000777	20.882620
1397.363758	-2.986200	3.503200	-10.459000	25.741776	0.000777	20.866463
1398.365872	-3.001200	3.501900	-10.509000	25.727179	0.000776	20.909170
1399.365332	-3.023500	3.499200	-10.579000	25.726861	0.000776	20.880404
1400.367729	-3.009500	3.500300	-10.533000	25.707697	0.000776	20.887233
1401.366356	-3.014600	3.499600	-10.549000	25.705069	0.000772	20.895498
1402.366923	-2.990800	3.499600	-10.466000	25.716538	0.000774	20.903698
1403.369433	-2.992200	3.499300	-10.469000	25.702222	0.000774	20.877942
1404.367733	-2.999300	3.499500	-10.495000	25.679702	0.000774	20.866703
1405.366153	-2.991500	3.500500	-10.471000	25.665093	0.000771	20.887590
1406.366177	-2.980700	3.499300	-10.429000	25.679091	0.000772	20.899751
1407.366245	-2.986200	3.499700	-10.450000	25.680288	0.000771	20.870136
1408.366087	-2.972500	3.499400	-10.399000	25.686758	0.000772	20.893228
1409.368707	-3.009700	3.497100	-10.523000	25.676958	0.000770	20.862999
1410.368471	-3.000800	3.498500	-10.498000	25.659593	0.000770	20.893445
1411.368181	-3.019800	3.497200	-10.560000	25.646400	0.000769	20.889204
1412.372083	-3.014600	3.496000	-10.538000	25.640581	0.000769	20.890472
1413.368256	-3.005000	3.496300	-10.505000	25.629749	0.000768	20.885756
1414.371341	-3.008400	3.495500	-10.514000	25.616376	0.000768	20.889395
1415.367937	-2.996300	3.495600	-10.473000	25.616006	0.000770	20.872904
1416.370614	-2.990900	3.494800	-10.451000	25.603055	0.000767	20.878388
1417.369933	-2.991300	3.495000	-10.454000	25.606678	0.000769	20.864958
1418.370033	-3.015200	3.493300	-10.531000	25.619872	0.000767	20.887690
1419.371809	-3.003000	3.494000	-10.491000	25.641321	0.000766	20.876991
1420.375234	-3.001200	3.492700	-10.481000	25.669939	0.000767	20.869225
1421.370262	-3.007000	3.493100	-10.502000	25.682851	0.000765	20.883615
1422.371140	-3.020600	3.492900	-10.550000	25.674035	0.000766	20.883295
1423.370053	-3.021400	3.491300	-10.547000	25.626672	0.000763	20.883615
1424.373227	-3.007100	3.491300	-10.498000	25.601254	0.000765	20.889855
1425.369790	-3.023600	3.489700	-10.550000	25.585572	0.000764	20.855616
1426.373687	-2.983100	3.490500	-10.412000	25.617625	0.000762	20.875003
1427.370068	-2.995800	3.490400	-10.455000	25.656769	0.000764	20.868326
1428.376775	-3.003700	3.490800	-10.484000	25.688029	0.000763	20.867480
1429.377148	-3.007400	3.490200	-10.496000	25.721967	0.000761	20.883549
1430.370123	-2.989500	3.490200	-10.433000	25.748761	0.000762	20.886279
1431.371789	-2.983400	3.490400	-10.412000	25.734611	0.000761	20.891980
1432.371521	-2.962400	3.490600	-10.340000	25.727351	0.000760	20.869043
1433.369313	-2.992800	3.488800	-10.440000	25.754053	0.000761	20.878320
1434.369256	-2.995500	3.487900	-10.447000	25.752483	0.000760	20.870105
1435.373794	-3.009300	3.487600	-10.495000	25.770893	0.000759	20.879588
1436.370524	-3.007700	3.487700	-10.489000	25.795260	0.000759	20.899321
1437.370642	-3.018900	3.487000	-10.526000	25.806998	0.000757	20.866544
1438.372793	-3.014900	3.487200	-10.513000	25.825814	0.000757	20.851306
1439.370418	-3.006900	3.486100	-10.481000	25.839897	0.000757	20.843169
1440.374883	-3.000100	3.487500	-10.462000	25.862184	0.000755	20.845642
1441.370911	-2.981000	3.487300	-10.394000	25.845829	0.000757	20.875204
1442.372625	-2.985800	3.485200	-10.403000	25.819754	0.000755	20.869874
1443.371754	-2.990200	3.485100	-10.420000	25.804854	0.000754	20.873398
1444.372287	-2.996000	3.485100	-10.441000	25.762064	0.000756	20.872142
1445.374407	-3.011900	3.484200	-10.493000	25.740529	0.000754	20.888916
1446.372958	-2.979100	3.485000	-10.379000	25.690362	0.000754	20.857021
1447.373162	-3.002600	3.485100	-10.463000	25.710228	0.000752	20.848053
1448.372773	-3.003500	3.483500	-10.462000	25.695847	0.000751	20.860634
1449.376455	-3.011600	3.484300	-10.492000	25.692978	0.000753	20.878140
1450.374518	-3.007600	3.482800	-10.474000	25.671823	0.000751	20.863531
1451.376683	-2.999300	3.482800	-10.444000	25.673176	0.000753	20.862519
1452.375770	-2.996000	3.482100	-10.431000	25.680474	0.000752	20.842823
1453.376085	-2.984400	3.480200	-10.385000	25.636467	0.000749	20.855522
1454.374550	-2.998800	3.479900	-10.435000	25.670918	0.000751	20.865467
1455.375669	-2.985000	3.482400	-10.394000	25.671427	0.000749	20.857444
1456.376969	-2.969100	3.482000	-10.336000	25.687708	0.000749	20.851037
1457.377439	-3.015600	3.479700	-10.493000	25.684034	0.000748	20.859675
1458.378538	-3.011500	3.480100	-10.479000	25.702445	0.000747	20.848295
1459.375952	-3.010700	3.479600	-10.475000	25.749805	0.000747	20.851769
1460.375292	-3.010800	3.480100	-10.476000	25.758020	0.000746	20.860494
1461.380587	-3.011100	3.478800	-10.474000	25.777744	0.000746	20.840478
1462.379788	-2.995100	3.480100	-10.422000	25.770205	0.000745	20.860406
1463.376974	-3.009400	3.476700	-10.460000	25.763289	0.000747	20.860571
1464.377873	-3.017100	3.476600	-10.488000	25.755123	0.000745	20.856636
1465.377237	-3.049800	3.475300	-10.596000	25.720614	0.000745	20.832406
1466.378782	-2.965800	3.477900	-10.314000	25.736192	0.000745	20.839992
1467.381352	-3.001400	3.477200	-10.435000	25.746500	0.000745	20.853665
1468.377283	-2.993100	3.476600	-10.405000	25.775742	0.000744	20.847950
1469.389019	-3.005600	3.476200	-10.447000	25.797034	0.000743	20.846579
1470.380080	-2.993800	3.475700	-10.404000	25.796716	0.000743	20.847207
1471.381018	-3.002100	3.475100	-10.432000	25.818403	0.000742	20.857138
1472.384549	-3.019300	3.473800	-10.487000	25.808044	0.000741	20.861905
1473.381109	-3.020300	3.472000	-10.485000	25.832169	0.000742	20.829241
1474.382886	-3.011100	3.473900	-10.460000	25.831353	0.000739	20.857344
1475.382206	-3.004200	3.473900	-10.435000	25.806310	0.000741	20.839775
1476.383696	-3.008600	3.473200	-10.449000	25.796602	0.000742	20.850886
1477.382525	-2.988600	3.473200	-10.379000	25.787352	0.000740	20.859612
1478.384343	-2.974500	3.474700	-10.335000	25.800927	0.000738	20.842428
1479.383807	-2.993300	3.470800	-10.388000	25.797802	0.000739	20.841186
1480.382719	-2.982700	3.471800	-10.355000	25.762959	0.000738	20.843171
1481.384231	-2.984600	3.472400	-10.362000	25.783846	0.000738	20.863676
1482.385345	-3.004200	3.471100	-10.427000	25.778895	0.000737	20.826936
1483.386933	-2.990400	3.471000	-10.378000	25.784062	0.000736	20.849669
1484.387743	-3.008600	3.469800	-10.438000	25.807714	0.000736	20.851143
1485.387290	-2.983400	3.471300	-10.356000	25.796616	0.000736	20.850426
1486.385180	-3.001600	3.471200	-10.418000	25.773333	0.000735	20.827513
1487.386122	-2.989000	3.469700	-10.370000	25.774533	0.000737	20.826348
1488.387214	-3.013400	3.469500	-10.454000	25.794881	0.000736	20.828296
1489.386167	-2.988300	3.469200	-10.366000	25.812193	0.000734	20.826245
1490.387528	-3.010700	3.469700	-10.444000	25.829913	0.000732	20.840726
1491.388875	-2.988000	3.467200	-10.358000	25.858348	0.000732	20.829461
1492.387251	-3.004900	3.467800	-10.419000	25.871476	0.000733	20.808510
1493.388401	-3.007600	3.467100	-10.427000	25.903315	0.000732	20.827219
1494.393232	-3.020600	3.466600	-10.470000	25.910102	0.000731	20.844942
1495.390446	-2.979200	3.468200	-10.332000	25.873429	0.000730	20.833231
1496.395494	-3.005400	3.465200	-10.413000	25.842544	0.000731	20.839189
1497.389892	-2.981600	3.466200	-10.334000	25.835782	0.000729	20.834768
1498.389773	-2.984200	3.465000	-10.339000	25.842570	0.000732	20.846327
1499.391352	-2.995600	3.465600	-10.378000	25.849306	0.000730	20.845033
1500.396339	-2.998900	3.466200	-10.394000	25.885050	0.000727	20.815982
1501.391713	-2.998100	3.463200	-10.381000	25.874054	0.000728	20.841920
1502.391378	-2.994200	3.464000	-10.371000	25.843528	0.000729	20.840177
1503.392250	-3.020000	3.463300	-10.457000	25.828767	0.000727	20.811600
1504.392192	-2.982800	3.463500	-10.330000	25.804057	0.000726	20.847943
1505.397138	-2.974100	3.462900	-10.297000	25.776884	0.000726	20.808795
1506.396355	-3.003900	3.462700	-10.401000	25.743559	0.000724	20.827953
1507.395789	-2.994200	3.462500	-10.366000	25.735102	0.000724	20.811397
1508.394606	-3.016100	3.461700	-10.439000	25.735944	0.000725	20.816510
1509.393397	-2.993700	3.461200	-10.360000	25.730993	0.000723	20.836193
1510.395771	-2.968100	3.460900	-10.271000	25.709036	0.000723	20.824096
1511.395175	-3.012500	3.460300	-10.423000	25.704367	0.000723	20.823200
1512.395418	-2.987200	3.459600	-10.333000	25.716922	0.000723	20.815896
1513.396340	-2.976100	3.460200	-10.297000	25.760263	0.000723	20.829083
1514.395957	-3.006600	3.459500	-10.400000	25.753424	0.000722	20.823162
1515.397976	-3.005700	3.457300	-10.389000	25.736379	0.000721	20.806042
1516.394792	-3.002200	3.456800	-10.377000	25.744378	0.000722	20.804594
1517.396378	-2.998500	3.459200	-10.371000	25.703348	0.000720	20.825022
1518.395298	-2.996100	3.456600	-10.355000	25.720405	0.000720	20.817498
1519.394773	-3.004100	3.458000	-10.387000	25.741878	0.000721	20.817730
1520.396728	-2.993400	3.458800	-10.352000	25.784197	0.000719	20.814719
1521.394874	-2.994100	3.457100	-10.350000	25.808066	0.000719	20.811669
1522.396563	-3.007700	3.455800	-10.393000	25.852640	0.000719	20.817090
1523.395010	-3.002300	3.454900	-10.372000	25.826731	0.000718	20.815245
1524.395612	-3.004300	3.455700	-10.381000	25.825992	0.000717	20.824459
1525.396716	-3.000300	3.454500	-10.363000	25.839834	0.000717	20.823665
1526.398564	-2.978700	3.455700	-10.293000	25.859109	0.000718	20.817898
1527.399518	-3.006700	3.455900	-10.389000	25.900289	0.000716	20.807584
1528.398152	-2.999000	3.454500	-10.360000	25.873309	0.000715	20.811300
1529.397056	-2.978200	3.455800	-10.291000	25.889089	0.000715	20.819092
1530.396513	-2.987200	3.452800	-10.313000	25.876982	0.000714	20.799817
1531.397881	-2.989000	3.453300	-10.321000	25.895544	0.000716	20.813248
1532.397722	-3.009000	3.453900	-10.392000	25.912791	0.000713	20.799755
1533.397242	-2.992600	3.452500	-10.331000	25.876576	0.000715	20.804150
1534.397609	-3.015800	3.451000	-10.406000	25.905074	0.000716	20.807649
1535.396505	-2.978200	3.452400	-10.280000	25.903391	0.000712	20.802639
1536.400340	-3.005100	3.450700	-10.369000	25.907116	0.000713	20.805907
1537.397325	-3.002000	3.450500	-10.358000	25.904233	0.000711	20.790683
1538.400488	-2.998300	3.451900	-10.348000	25.931110	0.000710	20.799666
1539.398882	-2.988500	3.450100	-10.309000	25.934402	0.000711	20.801077
1540.398248	-3.010700	3.450300	-10.387000	25.951367	0.000711	20.796784
1541.399160	-2.986800	3.449200	-10.302000	25.961534	0.000710	20.796093
1542.399831	-3.008300	3.448000	-10.370000	25.990667	0.000710	20.782213
1543.396778	-2.996100	3.448000	-10.329000	25.991674	0.000708	20.790811
1544.398423	-2.983400	3.448900	-10.288000	25.978155	0.000711	20.801411
1545.397015	-2.991000	3.449100	-10.316000	25.965668	0.000709	20.810203
1546.399971	-2.987500	3.447800	-10.300000	25.933921	0.000708	20.808180
1547.398597	-2.978900	3.448200	-10.270000	25.876197	0.000707	20.806141
1548.398231	-3.020300	3.445900	-10.405000	25.894287	0.000707	20.798709
1549.398533	-3.017600	3.445300	-10.395000	25.878304	0.000708	20.813473
1550.397759	-3.002500	3.445700	-10.344000	25.891725	0.000705	20.805618
1551.397342	-2.997800	3.445200	-10.326000	25.894938	0.000705	20.791302
1552.401097	-3.013000	3.445100	-10.379000	25.874784	0.000706	20.791919
1553.399270	-2.982700	3.445800	-10.276000	25.829241	0.000705	20.780782
1554.398525	-2.993900	3.444900	-10.313000	25.875333	0.000704	20.809066
1555.398289	-3.001100	3.444600	-10.336000	25.868011	0.000705	20.802185
1556.397258	-3.012500	3.444600	-10.376000	25.852435	0.000704	20.773735
1557.400940	-3.000800	3.443000	-10.331000	25.816778	0.000702	20.790548
1558.398558	-2.990500	3.444200	-10.298000	25.786096	0.000702	20.771582
1559.399022	-2.997300	3.444400	-10.322000	25.779528	0.000703	20.792959
1560.398956	-2.995800	3.442700	-10.312000	25.738752	0.000703	20.779028
1561.398151	-2.982200	3.442000	-10.263000	25.689748	0.000700	20.773904
1562.399684	-2.988000	3.441700	-10.283000	25.666346	0.000702	20.781219
1563.398442	-2.965100	3.441900	-10.204000	25.650526	0.000700	20.782873
1564.398104	-3.001700	3.439000	-10.322000	25.660695	0.000699	20.804467
1565.397753	-3.001100	3.441900	-10.328000	25.639718	0.000699	20.787666
1566.398760	-3.020600	3.439600	-10.389000	25.680421	0.000699	20.783976
1567.398674	-2.993600	3.440600	-10.299000	25.670902	0.000700	20.784847
1568.399142	-2.990300	3.438900	-10.282000	25.659879	0.000698	20.805544
1569.397386	-2.994400	3.439000	-10.297000	25.655949	0.000697	20.759870
1570.401381	-2.988500	3.438900	-10.277000	25.663349	0.000697	20.782002
1571.399364	-2.989400	3.439100	-10.280000	25.693983	0.000696	20.779105
1572.399461	-2.992500	3.437200	-10.284000	25.734467	0.000696	20.788474
1573.403719	-2.981200	3.437100	-10.246000	25.780753	0.000696	20.775698
1574.398348	-3.011100	3.437100	-10.348000	25.806013	0.000696	20.776415
1575.402471	-2.998900	3.436800	-10.306000	25.851491	0.000696	20.779899
1576.400489	-2.990200	3.437900	-10.278000	25.849961	0.000694	20.795432
1577.400892	-3.011200	3.437200	-10.348000	25.845904	0.000694	20.774761
1578.402981	-3.021600	3.436400	-10.383000	25.806050	0.000693	20.763175
1579.405661	-2.998900	3.436700	-10.305000	25.783966	0.000694	20.786038
1580.400976	-3.017700	3.435400	-10.366000	25.755337	0.000692	20.778617
1581.402199	-3.002100	3.434400	-10.309000	25.742159	0.000692	20.752578
1582.401188	-2.988400	3.434100	-10.260000	25.737259	0.000693	20.759036
1583.402443	-3.002100	3.434400	-10.310000	25.763936	0.000692	20.787255
1584.404118	-3.021300	3.433800	-10.373000	25.791391	0.000691	20.773107
1585.402227	-3.002300	3.434200	-10.309000	25.808449	0.000691	20.781708
1586.406542	-2.975900	3.434700	-10.220000	25.838198	0.000692	20.775555
1587.402704	-2.976000	3.434200	-10.219000	25.809482	0.000690	20.788909
1588.403043	-3.011000	3.432200	-10.334000	25.790447	0.000689	20.811039
1589.404609	-2.992500	3.433900	-10.275000	25.753309	0.000688	20.774210
1590.403827	-3.023700	3.431500	-10.374000	25.761334	0.000688	20.780374
1591.403249	-2.980900	3.430100	-10.224000	25.801904	0.000688	20.770391
1592.405252	-2.962600	3.431200	-10.164000	25.800627	0.000689	20.770531
1593.404250	-3.006800	3.429100	-10.309000	25.802782	0.000688	20.790240
1594.404553	-2.984400	3.429700	-10.235000	25.816434	0.000687	20.792099
1595.405410	-2.992600	3.430400	-10.265000	25.834601	0.000685	20.774312
1596.403929	-2.994100	3.428700	-10.265000	25.863507	0.000688	20.770159
1597.405480	-3.000000	3.429100	-10.286000	25.843313	0.000685	20.772633
1598.405774	-2.984700	3.429600	-10.235000	25.800027	0.000686	20.771350
1599.406207	-3.003400	3.428700	-10.297000	25.803587	0.000686	20.783936
1600.411414	-3.004400	3.429000	-10.301000	25.801699	0.000684	20.789151
1601.406746	-3.000600	3.426800	-10.282000	25.844181	0.000684	20.783461
1602.411438	-3.015200	3.427700	-10.334000	25.846490	0.000684	20.768237
1603.411560	-2.985900	3.428600	-10.237000	25.811893	0.000680	20.799865
1604.409171	-3.007100	3.427800	-10.307000	25.821956	0.000683	20.815190
1605.411402	-3.031500	3.425600	-10.384000	25.817517	0.000681	20.787972
1606.411305	-3.016700	3.426600	-10.336000	25.806419	0.000683	20.776823
1607.410183	-2.992100	3.425500	-10.248000	25.776323	0.000681	20.800645
1608.410368	-3.004000	3.426000	-10.291000	25.770991	0.000681	20.798609
1609.410873	-2.983400	3.426000	-10.219000	25.783648	0.000682	20.776235
1610.410501	-2.988400	3.425400	-10.235000	25.818948	0.000680	20.794150
1611.411443	-2.979800	3.424600	-10.203000	25.802273	0.000680	20.799686
1612.410697	-3.011300	3.424300	-10.310000	25.799467	0.000679	20.786909
1613.412585	-2.994600	3.424000	-10.252000	25.745208	0.000677	20.800685
1614.410625	-3.003700	3.423600	-10.282000	25.694660	0.000678	20.804441
1615.411301	-3.002600	3.422700	-10.276000	25.715621	0.000679	20.784244
1616.414606	-3.000400	3.422700	-10.269000	25.728546	0.000675	20.792485
1617.411300	-2.998500	3.421600	-10.258000	25.731086	0.000676	20.799777
1618.411570	-2.997500	3.422300	-10.258000	25.778916	0.000674	20.807992
1619.411839	-2.995600	3.421700	-10.249000	25.759676	0.000676	20.790562
1620.411428	-3.015500	3.421100	-10.315000	25.766234	0.000674	20.796201
1621.411659	-3.028900	3.419200	-10.356000	25.760430	0.000675	20.788948
1622.411944	-3.014800	3.419500	-10.309000	25.753528	0.000675	20.785335
1623.410820	-3.011600	3.420700	-10.300000	25.800300	0.000674	20.816195
1624.416842	-3.001500	3.418300	-10.259000	25.813553	0.000672	20.814810
1625.410928	-3.011100	3.419800	-10.297000	25.813235	0.000674	20.804058
1626.411605	-3.010700	3.418200	-10.290000	25.786597	0.000674	20.818077
1627.416586	-3.000900	3.417700	-10.255000	25.785323	0.000673	20.806840
1628.413362	-3.009200	3.417300	-10.281000	25.741422	0.000673	20.803047
1629.412211	-3.014300	3.416500	-10.297000	25.728256	0.000672	20.812582
1630.413576	-3.008100	3.417400	-10.277000	25.711364	0.000672	20.821219
1631.413732	-2.993000	3.416500	-10.225000	25.691039	0.000673	20.806969
1632.413573	-2.971200	3.417800	-10.154000	25.677005	0.000669	20.809942
1633.416469	-2.987400	3.415900	-10.203000	25.671852	0.000669	20.811879
1634.412838	-2.978500	3.416600	-10.175000	25.656350	0.000671	20.829025
1635.414868	-2.997100	3.414500	-10.233000	25.663812	0.000669	20.804752
1636.413803	-3.001600	3.414800	-10.248000	25.651563	0.000668	20.807623
1637.416238	-2.996800	3.415200	-10.233000	25.671596	0.000666	20.809251
1638.418624	-3.012800	3.413400	-10.283000	25.672196	0.000667	20.806535
1639.416662	-3.000600	3.415300	-10.246000	25.687214	0.000665	20.823041
1640.417508	-3.005300	3.413600	-10.258000	25.724431	0.000666	20.825809
1641.416605	-3.038300	3.412800	-10.368000	25.737495	0.000666	20.806689
1642.417408	-3.005400	3.414400	-10.261000	25.740086	0.000664	20.815929
1643.418136	-3.007000	3.412200	-10.260000	25.725262	0.000664	20.804832
1644.422510	-2.991000	3.413500	-10.208000	25.669173	0.000665	20.821516
1645.417918	-3.021000	3.411000	-10.304000	25.636994	0.000665	20.799154
1646.418536	-3.011000	3.411800	-10.272000	25.642838	0.000663	20.805972
1647.418697	-3.003400	3.410600	-10.242000	25.623610	0.000666	20.811790
1648.418982	-3.007200	3.410100	-10.254000	25.599928	0.000664	20.818351
1649.422229	-2.987100	3.410800	-10.187000	25.591060	0.000662	20.821773
1650.420564	-3.024100	3.410300	-10.312000	25.621696	0.000663	20.807971
1651.420335	-3.011900	3.408700	-10.266000	25.645901	0.000664	20.820902
1652.420481	-3.022600	3.409000	-10.303000	25.700407	0.000660	20.810688
1653.419121	-3.005100	3.409600	-10.245000	25.730224	0.000661	20.805549
1654.421884	-2.989200	3.410300	-10.191000	25.810841	0.000659	20.829154
1655.421867	-3.007300	3.407800	-10.246000	25.806172	0.000660	20.805972
1656.423195	-3.033300	3.406000	-10.330000	25.796017	0.000659	20.822799
1657.420786	-3.015100	3.406700	-10.271000	25.845770	0.000657	20.828205
1658.421703	-3.015500	3.405900	-10.270000	25.850439	0.000656	20.821990
1659.424137	-2.995600	3.407900	-10.208000	25.853948	0.000658	20.847325
1660.425898	-3.001500	3.407900	-10.226000	25.856919	0.000656	20.824232
1661.422727	-3.015500	3.405300	-10.268000	25.843984	0.000658	20.833998
1662.423042	-2.992500	3.405200	-10.189000	25.817460	0.000655	20.834855
1663.422612	-3.018200	3.405000	-10.276000	25.815535	0.000653	20.834818
1664.422323	-3.009400	3.403600	-10.241000	25.844672	0.000655	20.809085
1665.424640	-3.016300	3.404700	-10.269000	25.839736	0.000654	20.815506
1666.424473	-3.007800	3.403000	-10.235000	25.863095	0.000653	20.825221
1667.428996	-3.015100	3.402100	-10.257000	25.839583	0.000653	20.834792
1668.424894	-3.003500	3.403200	-10.221000	25.863373	0.000653	20.836406
1669.426092	-3.010700	3.403600	-10.247000	25.865759	0.000657	20.826475
1670.431556	-3.008400	3.403600	-10.237000	25.898978	0.000652	20.834241
1671.426304	-2.969500	3.403600	-10.105000	25.943955	0.000651	20.820631
1672.426013	-2.996100	3.402900	-10.195000	25.948330	0.000651	20.825501
1673.427017	-3.004200	3.402200	-10.219000	25.974569	0.000651	20.819145
1674.427007	-2.987000	3.401400	-10.160000	25.940614	0.000652	20.831025
1675.426439	-3.005200	3.401700	-10.222000	25.897687	0.000650	20.823461
1676.430824	-2.997100	3.401800	-10.194000	25.886080	0.000650	20.836931
1677.427995	-2.977200	3.402200	-10.129000	25.883263	0.000650	20.854963
1678.427806	-2.996900	3.400400	-10.190000	25.902256	0.000649	20.847491
1679.428005	-2.981600	3.400900	-10.139000	25.939542	0.000648	20.847491
1680.429191	-2.983200	3.399300	-10.139000	25.945831	0.000647	20.838162
1681.429240	-2.984600	3.400600	-10.149000	25.984941	0.000648	20.828617
1682.428600	-2.998600	3.399400	-10.192000	25.998155	0.000648	20.847582
1683.428401	-2.994500	3.398200	-10.175000	26.014571	0.000648	20.848902
1684.428810	-2.982600	3.399200	-10.138000	25.993257	0.000646	20.842661
1685.428659	-2.992900	3.398000	-10.168000	25.987761	0.000646	20.806795
1686.430622	-3.018400	3.397600	-10.254000	25.990783	0.000647	20.834012
1687.431377	-3.006300	3.396600	-10.209000	25.995273	0.000644	20.845160
1688.428784	-3.002000	3.396800	-10.196000	26.015759	0.000644	20.841087
1689.430165	-2.995600	3.397300	-10.176000	26.017365	0.000643	20.841279
1690.429117	-3.003300	3.396500	-10.199000	26.053539	0.000643	20.853914
1691.429053	-2.997000	3.395600	-10.176000	26.070286	0.000643	20.847982
1692.431433	-3.001500	3.395900	-10.191000	26.068617	0.000643	20.856736
1693.431815	-2.981000	3.396200	-10.123000	26.036297	0.000643	20.840859
1694.437786	-3.001300	3.395400	-10.190000	26.047853	0.000642	20.888028
1695.432139	-2.998600	3.394700	-10.177000	26.035404	0.000642	20.853237
1696.431571	-3.007300	3.394300	-10.206000	26.034054	0.000642	20.849510
1697.436962	-3.009600	3.393700	-10.212000	26.030659	0.000640	20.865539
1698.431829	-2.982900	3.393000	-10.120000	26.019373	0.000642	20.855148
1699.432525	-2.989100	3.393600	-10.143000	26.034514	0.000639	20.852818
1700.433882	-3.003400	3.391700	-10.186000	26.006261	0.000640	20.862837
1701.432763	-3.018800	3.391400	-10.237000	25.982078	0.000640	20.857033
1702.431738	-3.000200	3.391700	-10.173000	25.963328	0.000638	20.859533
1703.434284	-2.997700	3.392100	-10.168000	25.959845	0.000637	20.863620
1704.432645	-3.025600	3.391500	-10.260000	25.941310	0.000638	20.857328
1705.433742	-2.994200	3.390600	-10.150000	25.955228	0.000636	20.867041
1706.437973	-2.999400	3.390000	-10.167000	25.934819	0.000635	20.866453
1707.433125	-3.004800	3.390100	-10.186000	25.904587	0.000635	20.862160
1708.437813	-3.013600	3.389000	-10.211000	25.890084	0.000635	20.865134
1709.435725	-3.005600	3.389800	-10.187000	25.874940	0.000635	20.881688
1710.437107	-3.012400	3.389300	-10.209000	25.883692	0.000636	20.881471
1711.435700	-3.028500	3.387600	-10.258000	25.903859	0.000634	20.883239
1712.436021	-2.982900	3.389200	-10.109000	25.924550	0.000634	20.856611
1713.441011	-3.033100	3.387900	-10.274000	25.979732	0.000634	20.861789
1714.437321	-2.989200	3.388300	-10.127000	26.028112	0.000633	20.860609
1715.436301	-3.021600	3.385400	-10.228000	26.027194	0.000633	20.876755
1716.437329	-2.984200	3.388200	-10.110000	26.042167	0.000634	20.876627
1717.441306	-2.994700	3.387400	-10.143000	26.060674	0.000634	20.858239
1718.436472	-3.025300	3.385400	-10.241000	26.067409	0.000633	20.892030
1719.438747	-3.004400	3.384700	-10.168000	26.071924	0.000633	20.871911
1720.436549	-2.997600	3.386900	-10.151000	26.068697	0.000631	20.869618
1721.439123	-3.001600	3.384600	-10.158000	26.040319	0.000631	20.881408
1722.436183	-2.992400	3.385600	-10.131000	26.027194	0.000629	20.890979
1723.438116	-3.002200	3.383500	-10.157000	26.040919	0.000630	20.902397
1724.439862	-3.027700	3.382200	-10.240000	26.082306	0.000630	20.898462
1725.437351	-2.999300	3.386300	-10.155000	26.077319	0.000628	20.867376
1726.438542	-3.009300	3.382500	-10.177000	26.033584	0.000628	20.896451
1727.437311	-2.992600	3.384700	-10.128000	26.012794	0.000627	20.877935
1728.438026	-3.025200	3.382900	-10.233000	25.961733	0.000628	20.883533
1729.441774	-2.990800	3.384500	-10.121000	25.951657	0.000626	20.895694
1730.438394	-2.985800	3.382400	-10.099000	25.932931	0.000627	20.897271
1731.440690	-2.992200	3.383500	-10.123000	25.896754	0.000627	20.891747
1732.441716	-3.003400	3.381300	-10.155000	25.882634	0.000626	20.883727
1733.440861	-3.010500	3.381700	-10.179000	25.892009	0.000624	20.879868
1734.441889	-3.010900	3.381200	-10.179000	25.882825	0.000626	20.894823
1735.441817	-3.010100	3.380200	-10.173000	25.898949	0.000624	20.875461
1736.441719	-3.004000	3.380600	-10.153000	25.952001	0.000622	20.891299
1737.443087	-3.007900	3.380800	-10.168000	25.976685	0.000622	20.891441
1738.443575	-3.019400	3.378800	-10.201000	25.992193	0.000621	20.895643
1739.443789	-3.023500	3.379900	-10.218000	25.969503	0.000623	20.898924
1740.443838	-3.017800	3.379000	-10.196000	25.962628	0.000619	20.923310
1741.444060	-3.004700	3.379700	-10.154000	25.982922	0.000622	20.916198
1742.446309	-2.991200	3.379500	-10.107000	25.960957	0.000622	20.900769
1743.443165	-2.992800	3.379100	-10.112000	25.965446	0.000621	20.911917
1744.443117	-3.003000	3.378500	-10.145000	25.991099	0.000619	20.909241
1745.445371	-3.025400	3.377300	-10.217000	25.999631	0.000619	20.910700
1746.442875	-3.002400	3.377000	-10.138000	26.036976	0.000619	20.909815
1747.445827	-3.002000	3.377600	-10.138000	26.035000	0.000619	20.907356
1748.442523	-3.006800	3.377100	-10.152000	26.032092	0.000618	20.897322
1749.445297	-3.000700	3.375400	-10.127000	25.977066	0.000618	20.907470
1750.447577	-3.012500	3.375500	-10.167000	25.986098	0.000617	20.908484
1751.449544	-2.972500	3.376600	-10.034000	25.989515	0.000617	20.893901
1752.447336	-2.994400	3.375800	-10.108000	25.997373	0.000617	20.913173
1753.448472	-2.986100	3.374900	-10.076000	26.028712	0.000618	20.910520
1754.449495	-2.989500	3.375000	-10.088000	26.039438	0.000615	20.906125
1755.447976	-2.986600	3.375000	-10.078000	26.086311	0.000614	20.904857
1756.451934	-3.000000	3.374400	-10.122000	26.111233	0.000615	20.912354
1757.448816	-2.994000	3.374200	-10.101000	26.145681	0.000612	20.918043
1758.451941	-3.018500	3.372200	-10.178000	26.174630	0.000612	20.913942
1759.447151	-3.018000	3.372900	-10.179000	26.208439	0.000614	20.924680
1760.448265	-3.000900	3.373800	-10.124000	26.205747	0.000613	20.934776
1761.449047	-3.003900	3.373000	-10.132000	26.231292	0.000613	20.913982
1762.448137	-3.018100	3.371800	-10.175000	26.199269	0.000612	20.944861
1763.453884	-3.001600	3.371700	-10.120000	26.203669	0.000610	20.915621
1764.449824	-2.982000	3.371800	-10.054000	26.167743	0.000614	20.924563
1765.449825	-3.007300	3.369900	-10.133000	26.140644	0.000610	20.934791
1766.454027	-2.998500	3.370700	-10.106000	26.068214	0.000609	20.934559
1767.453407	-3.011500	3.369300	-10.146000	26.059171	0.000611	20.921208
1768.450418	-3.031300	3.369700	-10.213000	26.016748	0.000609	20.936430
1769.450139	-3.010800	3.369700	-10.144000	26.055714	0.000609	20.940491
1770.451192	-3.020100	3.367700	-10.169000	26.067983	0.000608	20.930535
1771.451864	-2.990500	3.370100	-10.077000	26.110696	0.000607	20.930304
1772.458317	-2.973900	3.369300	-10.019000	26.150781	0.000608	20.911788
1773.457518	-2.981000	3.369600	-10.044000	26.156560	0.000606	20.926603
1774.452266	-2.989800	3.367600	-10.067000	26.198095	0.000605	20.934200
1775.453474	-2.996500	3.368100	-10.092000	26.162157	0.000605	20.929856
1776.456300	-2.996500	3.368500	-10.093000	26.124267	0.000605	20.954843
1777.455084	-2.975100	3.368300	-10.019000	26.084998	0.000606	20.941465
1778.454475	-2.964700	3.368100	-9.984700	26.068990	0.000605	20.940554
1779.453028	-2.997300	3.365500	-10.087000	26.077626	0.000604	20.947334
1780.452618	-2.992800	3.366400	-10.074000	26.115529	0.000603	20.930892
1781.452483	-2.981800	3.366300	-10.037000	26.153805	0.000602	20.966978
1782.454884	-2.990000	3.366200	-10.063000	26.184667	0.000603	20.932086
1783.451869	-3.003200	3.365200	-10.105000	26.197981	0.000600	20.939774
1784.455184	-3.001800	3.364800	-10.100000	26.207404	0.000601	20.944501
1785.452867	-2.957100	3.365700	-9.952000	26.186617	0.000603	20.941631
1786.452725	-2.998000	3.364700	-10.086000	26.220261	0.000600	20.943670
1787.456078	-2.979800	3.364400	-10.023000	26.207825	0.000600	20.953457
1788.453084	-3.027800	3.362600	-10.180000	26.218626	0.000599	20.960991
1789.454598	-3.011800	3.363400	-10.128000	26.187638	0.000598	20.958775
1790.456022	-3.001600	3.363400	-10.094000	26.193504	0.000598	20.955662
1791.457073	-2.999000	3.362600	-10.083000	26.210886	0.000596	20.961274
1792.457853	-2.991700	3.362500	-10.058000	26.234595	0.000598	20.945746
1793.460232	-2.968100	3.363700	-9.982900	26.205787	0.000597	20.970373
1794.458531	-2.986000	3.361900	-10.037000	26.208757	0.000596	20.946335
1795.458317	-3.002700	3.362000	-10.094000	26.194857	0.000598	20.952281
1796.458662	-3.002900	3.361200	-10.092000	26.185216	0.000595	20.967246
1797.458925	-3.018700	3.359200	-10.139000	26.201387	0.000596	20.963108
1798.459105	-3.002600	3.360800	-10.090000	26.198428	0.000596	20.966772
1799.459530	-2.985000	3.360400	-10.030000	26.158078	0.000594	20.964159
1800.460325	-2.999100	3.360300	-10.077000	26.160909	0.000594	20.955625
1801.460737	-2.986400	3.361200	-10.035000	26.182692	0.000594	20.949065
1802.460447	-3.021900	3.360200	-10.153000	26.209894	0.000596	20.961226
1803.462619	-2.999600	3.360100	-10.079000	26.228040	0.000593	20.966658
1804.462440	-2.995700	3.358300	-10.060000	26.242235	0.000593	20.972861
1805.462537	-3.002900	3.357900	-10.083000	26.255026	0.000591	20.964853
1806.462867	-3.007600	3.357700	-10.098000	26.275937	0.000593	20.966426
1807.462177	-3.002100	3.358100	-10.080000	26.286050	0.000590	20.972795
1808.466722	-2.984100	3.357100	-10.017000	26.286075	0.000591	20.987991
1809.462845	-3.006000	3.356400	-10.089000	26.236190	0.000590	20.976268
1810.466853	-3.028000	3.355600	-10.158000	26.238205	0.000590	20.961700
1811.463881	-3.010700	3.356400	-10.104000	26.221486	0.000589	20.967183
1812.465491	-3.017500	3.356400	-10.126000	26.183789	0.000588	20.970553
1813.467516	-2.993100	3.356800	-10.046000	26.147213	0.000590	20.944710
1814.468451	-3.003200	3.354600	-10.074000	26.168638	0.000588	20.961020
1815.465492	-3.009600	3.355000	-10.095000	26.205341	0.000587	20.966606
1816.466037	-3.016100	3.353400	-10.113000	26.238981	0.000586	20.971013
1817.467372	-3.008900	3.353200	-10.088000	26.274024	0.000585	20.958341
1818.466769	-3.031200	3.352000	-10.160000	26.300878	0.000584	20.960672
1819.471429	-3.017900	3.354100	-10.121000	26.294949	0.000584	20.962300
1820.466791	-3.014500	3.352900	-10.106000	26.322862	0.000583	20.967592
1821.471853	-3.017500	3.352300	-10.114000	26.308719	0.000585	20.971396
1822.470027	-2.980500	3.354400	-9.997500	26.325323	0.000584	20.951575
1823.468216	-3.008500	3.352000	-10.083000	26.338724	0.000582	20.958404
1824.471915	-3.003800	3.352600	-10.069000	26.321140	0.000584	20.963490
1825.467722	-3.000800	3.352100	-10.058000	26.327540	0.000582	20.951907
1826.469946	-2.990400	3.352500	-10.025000	26.368037	0.000581	20.980749
1827.467418	-3.020500	3.350800	-10.120000	26.374273	0.000580	20.940080
1828.468522	-3.004000	3.351700	-10.068000	26.376734	0.000582	20.945872
1829.468669	-3.005900	3.350800	-10.070000	26.374273	0.000579	20.933443
1830.471403	-2.986000	3.351300	-10.006000	26.392632	0.000583	20.932929
1831.467896	-3.013300	3.349600	-10.092000	26.373673	0.000579	20.947063
1832.469010	-3.009600	3.349500	-10.080000	26.351306	0.000580	20.953032
1833.469542	-2.972300	3.350300	-9.957400	26.344192	0.000579	20.950150
1834.469197	-2.973200	3.351500	-9.963100	26.334793	0.000580	20.945921
1835.471405	-2.989200	3.350600	-10.014000	26.286988	0.000578	20.927277
1836.470875	-2.978300	3.349700	-9.975800	26.284614	0.000577	20.914462
1837.471777	-3.011900	3.347000	-10.080000	26.279859	0.000578	20.903994
1838.470098	-2.997400	3.348000	-10.033000	26.261956	0.000575	20.944318
1839.470091	-2.997800	3.347400	-10.034000	26.261623	0.000576	20.913642
1840.475770	-2.998100	3.347000	-10.033000	26.272435	0.000576	20.938729
1841.473003	-3.000600	3.346900	-10.042000	26.295671	0.000575	20.907081
1842.473281	-2.997600	3.346700	-10.031000	26.284933	0.000575	20.908618
1843.473486	-2.995800	3.347000	-10.026000	26.287687	0.000573	20.910437
1844.473347	-3.008900	3.345200	-10.064000	26.262209	0.000575	20.920394
1845.474953	-2.998400	3.346300	-10.032000	26.242557	0.000573	20.909655
1846.473047	-2.980200	3.345000	-9.967400	26.189889	0.000572	20.915050
1847.477903	-3.005300	3.345200	-10.053000	26.155008	0.000572	20.926940
1848.475562	-3.011300	3.343700	-10.068000	26.150059	0.000568	20.897314
1849.474843	-3.027500	3.343100	-10.120000	26.152214	0.000569	20.904220
1850.481882	-2.975000	3.343200	-9.945100	26.146309	0.000572	20.925312
1851.476029	-3.019400	3.343700	-10.094000	26.177478	0.000570	20.918226
1852.476498	-3.007100	3.343000	-10.051000	26.228757	0.000569	20.917598
1853.476665	-2.984700	3.343700	-9.979200	26.245999	0.000569	20.914536
1854.475325	-2.991300	3.342400	-9.997400	26.208851	0.000570	20.906605
1855.476949	-2.981700	3.343700	-9.968700	26.173473	0.000568	20.901875
1856.479737	-2.999200	3.341400	-10.021000	26.162441	0.000569	20.910229
1857.477126	-3.021400	3.341500	-10.096000	26.160568	0.000566	20.935371
1858.477816	-3.024300	3.340600	-10.102000	26.181509	0.000566	20.901889
1859.479074	-3.007200	3.340700	-10.046000	26.201338	0.000565	20.916598
1860.478904	-3.012900	3.341200	-10.066000	26.201734	0.000565	20.928373
1861.481126	-2.977400	3.340900	-9.944800	26.225798	0.000566	20.896134
1862.484445	-2.980500	3.340700	-9.954800	26.251914	0.000563	20.885869
1863.482783	-3.002900	3.340400	-10.030000	26.264934	0.000563	20.908435
1864.481408	-3.017900	3.338900	-10.075000	26.217981	0.000563	20.907718
1865.482271	-3.015200	3.340000	-10.070000	26.165426	0.000561	20.887626
1866.483217	-3.001900	3.340400	-10.027000	26.151665	0.000564	20.886600
1867.489196	-2.974900	3.340200	-9.935600	26.134484	0.000564	20.913431
1868.484577	-2.988300	3.337200	-9.971400	26.183687	0.000561	20.901706
1869.484786	-2.998300	3.335900	-10.001000	26.202740	0.000560	20.870595
1870.484481	-3.005500	3.338500	-10.033000	26.235564	0.000561	20.906896
1871.485326	-3.007500	3.336600	-10.034000	26.285322	0.000558	20.901424
1872.484134	-3.008500	3.337000	-10.038000	26.300687	0.000559	20.903115
1873.486531	-3.014600	3.335200	-10.053000	26.335538	0.000561	20.911586
1874.486165	-3.014300	3.335500	-10.053000	26.360350	0.000558	20.891005
1875.485616	-3.003600	3.336100	-10.020000	26.373318	0.000558	20.887443
1876.487928	-3.012600	3.335300	-10.048000	26.317201	0.000558	20.890788
1877.487805	-2.980400	3.336400	-9.943300	26.292118	0.000556	20.888340
1878.485037	-2.975600	3.334400	-9.920400	26.263070	0.000556	20.892338
1879.485767	-3.021900	3.334400	-10.075000	26.204866	0.000557	20.874628
1880.486267	-2.966200	3.333600	-9.886900	26.174770	0.000558	20.896066
1881.487621	-2.982500	3.333100	-9.940300	26.137708	0.000557	20.886326
1882.488974	-3.012900	3.332800	-10.040000	26.155142	0.000556	20.877767
1883.489155	-3.012000	3.332600	-10.037000	26.175713	0.000556	20.873308
1884.491836	-3.002100	3.332700	-10.003000	26.160307	0.000554	20.891016
1885.488763	-2.980500	3.332600	-9.931500	26.174067	0.000553	20.879240
1886.489833	-3.008200	3.332800	-10.025000	26.213627	0.000552	20.900498
1887.493577	-2.974900	3.331600	-9.910000	26.232537	0.000552	20.876830
1888.490125	-3.008900	3.331600	-10.024000	26.215017	0.000551	20.873448
1889.490504	-3.003600	3.332100	-10.007000	26.196054	0.000550	20.884738
1890.490218	-3.010400	3.330400	-10.025000	26.175546	0.000550	20.886889
1891.490172	-3.004000	3.330100	-10.002000	26.169119	0.000551	20.885647
1892.491960	-2.993200	3.331600	-9.971200	26.163570	0.000552	20.886235
1893.493762	-2.998000	3.329600	-9.980500	26.161122	0.000550	20.884724
1894.490933	-2.987500	3.330600	-9.948900	26.189997	0.000550	20.901884
1895.490682	-2.993100	3.329800	-9.965200	26.256231	0.000548	20.883096
1896.491027	-2.998600	3.328300	-9.978400	26.304982	0.000548	20.862863
1897.491796	-2.995300	3.328000	-9.966500	26.332628	0.000546	20.869784
1898.494333	-2.983900	3.328700	-9.929700	26.360194	0.000547	20.883736
1899.491454	-2.998600	3.327900	-9.978200	26.385263	0.000546	20.879535
1900.492610	-3.013200	3.327800	-10.026000	26.354572	0.000546	20.878561
1901.491860	-2.997200	3.327800	-9.972600	26.309572	0.000544	20.877432
1902.491285	-3.007100	3.327500	-10.004000	26.287895	0.000545	20.886941
1903.494815	-2.995600	3.327300	-9.966100	26.271469	0.000544	20.874228
1904.494406	-3.017100	3.325400	-10.032000	26.249293	0.000543	20.870435
1905.492933	-2.970000	3.327300	-9.880500	26.228137	0.000542	20.874305
1906.493095	-2.995300	3.326300	-9.962500	26.174346	0.000542	20.878098
1907.494165	-3.003800	3.326300	-9.990900	26.168277	0.000542	20.881008
1908.495678	-3.010700	3.324800	-10.009000	26.207837	0.000544	20.875242
1909.494025	-2.986000	3.324200	-9.925500	26.224746	0.000540	20.867579
1910.494666	-3.009200	3.324300	-10.003000	26.272427	0.000540	20.890362
1911.496815	-2.995100	3.325800	-9.959300	26.308629	0.000542	20.882174
1912.494925	-3.021100	3.323800	-10.040000	26.317581	0.000540	20.860827
1913.497602	-2.976300	3.324000	-9.892100	26.334120	0.000538	20.855637
1914.500635	-2.990500	3.323700	-9.939100	26.341043	0.000540	20.875870
1915.497135	-3.003100	3.322400	-9.977400	26.330459	0.000537	20.890362
1916.497458	-2.999300	3.323400	-9.966600	26.309433	0.000539	20.863069
1917.497648	-3.021600	3.322100	-10.037000	26.288597	0.000537	20.862992
1918.497179	-3.030700	3.320500	-10.062000	26.286314	0.000536	20.869707
1919.499969	-3.007300	3.321700	-9.988800	26.289529	0.000536	20.881471
1920.497515	-3.027400	3.320900	-10.053000	26.338278	0.000534	20.861712
1921.499792	-3.011200	3.320600	-9.997900	26.365986	0.000535	20.884815
1922.498507	-3.026200	3.319700	-10.045000	26.387420	0.000537	20.880754
1923.499944	-2.995000	3.320200	-9.943100	26.381224	0.000537	20.858881
1924.500422	-3.004300	3.320300	-9.973500	26.373702	0.000533	20.878346
1925.500747	-3.006300	3.320200	-9.981000	26.372582	0.000534	20.866316
1926.500808	-2.984600	3.319500	-9.906300	26.343240	0.000533	20.889457
1927.501033	-3.010800	3.318500	-9.989100	26.332096	0.000533	20.868301
1928.500668	-3.011600	3.317900	-9.991300	26.346696	0.000533	20.880603
1929.501417	-3.028300	3.317400	-10.045000	26.327967	0.000531	20.863677
1930.502308	-2.989500	3.316200	-9.913200	26.363084	0.000532	20.880951
1931.501432	-2.993600	3.316300	-9.926900	26.388253	0.000530	20.863574
1932.504205	-2.986600	3.316900	-9.905100	26.383575	0.000532	20.868829
1933.500589	-2.981800	3.316700	-9.888400	26.348370	0.000530	20.859053
1934.502701	-3.007700	3.315300	-9.969900	26.336689	0.000527	20.875761
1935.506026	-3.003900	3.315500	-9.958700	26.329575	0.000528	20.894215
1936.501643	-3.014500	3.314600	-9.991600	26.338909	0.000530	20.873725
1937.505755	-3.009300	3.315800	-9.977000	26.393661	0.000527	20.873751
1938.503980	-3.017600	3.314900	-10.002000	26.430623	0.000526	20.880080
1939.503576	-3.022800	3.314900	-10.019000	26.469346	0.000526	20.863051
1940.503095	-2.990700	3.314600	-9.912500	26.457998	0.000526	20.870612
1941.505876	-2.999200	3.314200	-9.938500	26.465254	0.000526	20.866524
1942.502572	-2.984200	3.315500	-9.893700	26.447148	0.000523	20.852121
1943.502600	-2.992400	3.312800	-9.912800	26.386701	0.000524	20.864385
1944.502326	-2.984000	3.314400	-9.888500	26.370851	0.000523	20.858887
1945.502418	-2.981500	3.313200	-9.877000	26.330175	0.000526	20.871112
1946.507001	-3.003100	3.312500	-9.946000	26.331386	0.000522	20.864268
1947.503387	-2.993000	3.312300	-9.912400	26.349570	0.000523	20.883490
1948.503952	-3.002600	3.312100	-9.944200	26.311584	0.000521	20.861912
1949.503656	-3.002900	3.309900	-9.938200	26.330098	0.000522	20.853018
1950.503294	-3.012600	3.310500	-9.972200	26.334856	0.000520	20.853058
1951.506783	-2.978700	3.311700	-9.863300	26.379343	0.000520	20.875956
1952.503657	-2.992300	3.310500	-9.905100	26.382327	0.000520	20.874213
1953.504617	-2.991500	3.310800	-9.902700	26.372190	0.000518	20.866870
1954.504920	-3.003100	3.309300	-9.936800	26.377558	0.000517	20.880325
1955.505350	-3.035800	3.308000	-10.040000	26.421904	0.000518	20.879377
1956.505809	-2.996600	3.309600	-9.916600	26.451306	0.000518	20.856773
1957.507405	-2.988700	3.307400	-9.884000	26.469539	0.000517	20.857556
1958.506289	-2.980100	3.309300	-9.860200	26.445148	0.000519	20.870972
1959.507906	-3.011100	3.307200	-9.957400	26.462730	0.000516	20.854032
1960.505934	-2.987400	3.309300	-9.885200	26.466160	0.000515	20.863643
1961.506189	-3.004900	3.307100	-9.936900	26.478169	0.000515	20.853903
1962.509433	-2.993900	3.308500	-9.904700	26.456802	0.000515	20.877943
1963.507825	-2.991800	3.306400	-9.891900	26.492818	0.000514	20.860092
1964.509406	-3.019800	3.305900	-9.982100	26.479266	0.000513	20.871126
1965.507771	-2.986600	3.306400	-9.872800	26.551834	0.000514	20.842127
1966.508053	-2.977900	3.306900	-9.846100	26.564441	0.000511	20.869498
1967.507080	-3.017800	3.303600	-9.968200	26.583730	0.000511	20.872291
1968.511616	-2.999800	3.304100	-9.910400	26.616122	0.000509	20.856965
1969.509337	-3.002600	3.304600	-9.921800	26.636264	0.000509	20.870100
1970.508994	-2.993200	3.303600	-9.886900	26.644180	0.000510	20.850084
1971.509645	-2.990000	3.304800	-9.879200	26.679247	0.000510	20.848828
1972.510550	-2.995200	3.304300	-9.895600	26.676406	0.000509	20.855928
1973.514407	-2.983700	3.303400	-9.854400	26.658725	0.000509	20.846214
1974.512492	-2.991900	3.304000	-9.884100	26.637091	0.000508	20.845803
1975.516166	-3.003000	3.302900	-9.917600	26.561725	0.000508	20.869612
1976.513340	-3.001900	3.302800	-9.913400	26.535017	0.000507	20.852723
1977.513031	-2.997300	3.302900	-9.898400	26.461568	0.000506	20.843381
1978.516810	-3.004300	3.301600	-9.917000	26.419443	0.000505	20.848930
1979.515544	-3.002300	3.300500	-9.908300	26.395880	0.000504	20.853223
1980.513916	-3.014700	3.298600	-9.943500	26.358508	0.000506	20.845060
1981.513633	-3.002500	3.300300	-9.908000	26.370467	0.000503	20.842381
1982.514744	-3.021200	3.299100	-9.966100	26.394400	0.000503	20.848890
1983.515638	-3.003800	3.300400	-9.913400	26.452031	0.000504	20.851812
1984.517620	-2.988900	3.300600	-9.863900	26.516888	0.000501	20.831656
1985.514224	-3.002700	3.298900	-9.904700	26.532721	0.000500	20.860846
1986.514018	-2.974000	3.298300	-9.807500	26.513853	0.000501	20.849467
1987.514153	-2.997600	3.299300	-9.888600	26.515816	0.000499	20.844803
1988.513968	-2.993600	3.299400	-9.875700	26.477007	0.000499	20.843252
1989.516421	-3.002000	3.298000	-9.899400	26.414609	0.000498	20.845968
1990.514725	-3.015100	3.296400	-9.937900	26.382759	0.000499	20.839088
1991.516343	-2.989800	3.297500	-9.857700	26.372201	0.000499	20.846020
1992.514872	-3.033700	3.295200	-9.995100	26.401132	0.000499	20.841433
1993.516879	-2.989300	3.297500	-9.856200	26.465609	0.000498	20.818994
1994.517150	-2.977900	3.297200	-9.817500	26.484171	0.000494	20.844763
1995.519191	-2.982500	3.296500	-9.830600	26.542448	0.000497	20.856873
1996.516860	-2.992000	3.296600	-9.861700	26.565396	0.000496	20.837268
1997.516226	-2.998300	3.295900	-9.880800	26.600147	0.000496	20.849916
1998.516936	-2.969100	3.295400	-9.783500	26.629226	0.000495	20.827940
1999.516941	-3.013700	3.294000	-9.926100	26.668845	0.000494	20.832207
2000.520552	-2.999000	3.294000	-9.877500	26.676289	0.000494	20.827837
2001.517811	-2.993800	3.294200	-9.861500	26.680446	0.000491	20.865679
2002.518347	-3.015000	3.293700	-9.928200	26.659731	0.000492	20.846277
2003.517800	-3.016200	3.292600	-9.930600	26.647712	0.000492	20.841307
2004.517218	-2.999600	3.292400	-9.874000	26.597778	0.000490	20.839947
2005.518670	-2.989600	3.293200	-9.844700	26.571952	0.000491	20.854763
2006.518101	-2.997500	3.292700	-9.868100	26.534534	0.000489	20.829953
2007.517601	-3.000700	3.292500	-9.878800	26.488499	0.000490	20.835363
2008.519120	-2.979500	3.290800	-9.803500	26.470929	0.000489	20.833350
2009.518283	-3.007600	3.289900	-9.893200	26.473353	0.000487	20.824407
2010.522701	-2.995400	3.291600	-9.857600	26.449956	0.000486	20.846882
2011.518690	-2.991500	3.288800	-9.837500	26.446972	0.000488	20.836771
2012.521830	-2.994700	3.290300	-9.852200	26.468891	0.000484	20.839362
2013.519033	-2.971700	3.290900	-9.778500	26.453591	0.000486	20.816872
2014.519129	-2.980700	3.291200	-9.808300	26.422097	0.000484	20.837848
2015.519831	-2.997200	3.289200	-9.857500	26.412995	0.000484	20.834863
2016.524064	-2.994800	3.288800	-9.848800	26.425937	0.000484	20.832698
2017.521554	-2.972400	3.290000	-9.778300	26.466404	0.000484	20.830225
2018.520913	-3.003300	3.288200	-9.873200	26.478030	0.000484	20.822470
2019.520495	-3.000500	3.287200	-9.862400	26.561117	0.000484	20.830122
2020.520728	-3.020300	3.285800	-9.922300	26.533210	0.000483	20.834312
2021.525524	-3.017500	3.286800	-9.917400	26.539967	0.000483	20.821190
2022.520355	-2.991500	3.286900	-9.832300	26.546801	0.000482	20.821422
2023.523136	-3.014500	3.286700	-9.906600	26.576211	0.000480	20.809734
2024.523173	-2.995600	3.287100	-9.845900	26.616508	0.000481	20.845974
2025.523577	-2.993400	3.285600	-9.833600	26.646885	0.000478	20.833364
2026.525366	-2.994300	3.285700	-9.837100	26.671794	0.000479	20.824267
2027.526005	-2.993300	3.286200	-9.835200	26.697161	0.000480	20.813733
2028.524219	-2.979500	3.285900	-9.789600	26.678602	0.000478	20.833955
2029.525521	-2.992600	3.284000	-9.826500	26.698755	0.000477	20.853740
2030.527308	-2.996700	3.283300	-9.838500	26.713489	0.000474	20.817820
2031.525585	-2.996600	3.284000	-9.840400	26.683980	0.000475	20.823715
2032.527886	-3.003700	3.282800	-9.859000	26.644453	0.000476	20.835186
2033.526123	-3.039600	3.281400	-9.972000	26.625765	0.000473	20.832047
2034.528625	-3.013200	3.281800	-9.887200	26.618168	0.000473	20.816349
2035.528073	-2.986600	3.281400	-9.797700	26.620767	0.000472	20.822281
2036.527762	-2.968200	3.283100	-9.743500	26.614661	0.000472	20.829419
2037.531449	-2.995700	3.280500	-9.826100	26.631133	0.000472	20.827011
2038.527534	-3.023700	3.280300	-9.917300	26.609129	0.000470	20.823384
2039.527675	-3.002300	3.280500	-9.848500	26.603992	0.000471	20.806366
2040.527636	-3.004300	3.280400	-9.854300	26.593246	0.000469	20.823538
2041.529358	-3.016300	3.280900	-9.894300	26.554937	0.000469	20.828651
2042.528332	-3.005200	3.279600	-9.855300	26.544011	0.000469	20.837108
2043.530979	-3.009700	3.280000	-9.869900	26.537447	0.000468	20.808700
2044.529108	-3.023200	3.278700	-9.911500	26.514677	0.000468	20.810468
2045.530930	-3.014300	3.277800	-9.878600	26.547352	0.000468	20.806329
2046.528624	-2.998400	3.278900	-9.830100	26.588887	0.000466	20.806355
2047.529565	-3.003700	3.276800	-9.841500	26.616767	0.000467	20.830588
2048.532051	-2.979300	3.278800	-9.768400	26.647655	0.000465	20.829871
2049.529153	-3.026400	3.275700	-9.913300	26.596880	0.000466	20.825769
2050.533358	-2.994900	3.277800	-9.815800	26.590916	0.000464	20.810765
2051.529980	-2.963400	3.276800	-9.709700	26.560037	0.000464	20.811019
2052.533430	-3.007200	3.275900	-9.849000	26.582093	0.000464	20.822758
2053.533626	-3.015800	3.274200	-9.873600	26.636909	0.000463	20.820016
2054.531220	-2.993400	3.276900	-9.807900	26.644763	0.000463	20.812264
2055.530272	-3.015100	3.274800	-9.872700	26.671951	0.000461	20.825846
2056.531053	-3.019100	3.274200	-9.883900	26.710398	0.000461	20.809971
2057.532870	-3.012400	3.273900	-9.861900	26.718876	0.000461	20.798580
2058.535071	-2.983600	3.274100	-9.766700	26.719128	0.000461	20.817800
2059.532171	-2.990600	3.273300	-9.788800	26.747886	0.000459	20.816366
2060.532796	-3.018700	3.272900	-9.878600	26.733482	0.000460	20.812790
2061.532756	-2.981500	3.273600	-9.758800	26.785537	0.000459	20.813444
2062.534884	-2.972600	3.272800	-9.727900	26.804657	0.000458	20.815598
2063.538697	-2.996500	3.273300	-9.807200	26.825673	0.000457	20.824401
2064.532921	-2.994500	3.271600	-9.794900	26.866407	0.000457	20.821736
2065.535141	-3.001700	3.272400	-9.821200	26.856746	0.000454	20.828617
2066.532952	-2.986600	3.272900	-9.772600	26.829983	0.000455	20.798388
2067.534636	-2.993800	3.270900	-9.792000	26.850988	0.000452	20.806706
2068.535842	-3.019000	3.268800	-9.867500	26.816600	0.000453	20.818123
2069.538469	-2.990600	3.270400	-9.780100	26.805245	0.000454	20.812870
2070.534070	-3.016400	3.269600	-9.861400	26.828977	0.000452	20.811128
2071.536304	-2.998500	3.267400	-9.795700	26.837645	0.000453	20.819842
2072.536078	-2.990300	3.269000	-9.774400	26.834903	0.000451	20.807129
2073.537615	-3.001100	3.270200	-9.811400	26.865544	0.000451	20.820868
2074.538754	-2.997100	3.269900	-9.798300	26.888229	0.000452	20.819497
2075.539692	-3.021600	3.267700	-9.872500	26.903816	0.000449	20.800082
2076.542318	-3.004000	3.268700	-9.818300	26.862027	0.000449	20.817332
2077.539402	-2.976400	3.269500	-9.729400	26.821637	0.000447	20.813704
2078.540709	-3.004200	3.265600	-9.809000	26.764358	0.000445	20.838142
2079.544164	-2.973200	3.267100	-9.711800	26.738675	0.000446	20.822279
2080.541148	-2.981500	3.268100	-9.743400	26.729905	0.000446	20.823893
2081.539868	-3.002600	3.264900	-9.802700	26.699403	0.000445	20.814564
2082.541057	-3.032700	3.265800	-9.902300	26.685941	0.000444	20.824738
2083.543439	-3.004700	3.266300	-9.813400	26.697235	0.000444	20.833247
2084.541054	-3.008800	3.265500	-9.824300	26.714659	0.000444	20.814255
2085.543692	-3.019700	3.264800	-9.857800	26.737502	0.000443	20.835797
2086.541816	-2.996500	3.265700	-9.783900	26.745698	0.000443	20.834081
2087.541793	-3.004000	3.263900	-9.803500	26.693641	0.000441	20.821573
2088.542335	-2.996600	3.264000	-9.780500	26.634875	0.000441	20.818446
2089.542726	-3.010600	3.263200	-9.823500	26.599957	0.000438	20.831233
2090.545612	-3.009200	3.262500	-9.816200	26.589430	0.000440	20.817806
2091.544605	-3.005700	3.263400	-9.808100	26.591635	0.000437	20.831876
2092.543649	-2.980700	3.263200	-9.726800	26.563791	0.000437	20.849404
2093.543466	-2.989600	3.262600	-9.752400	26.626473	0.000436	20.818060
2094.542669	-3.005200	3.260700	-9.798300	26.632082	0.000437	20.834129
2095.545226	-3.004500	3.261400	-9.798500	26.623478	0.000436	20.810308
2096.543481	-3.005700	3.259600	-9.796100	26.596286	0.000435	20.826120
2097.543466	-3.003500	3.259000	-9.787400	26.622075	0.000435	20.825966
2098.543024	-2.997300	3.258800	-9.765600	26.609709	0.000434	20.809268
2099.542662	-3.000700	3.260300	-9.782300	26.631036	0.000432	20.815535
2100.543408	-2.992000	3.258300	-9.747500	26.611735	0.000432	20.825055
2101.544258	-2.990300	3.258200	-9.742000	26.603793	0.000432	20.847891
2102.543818	-3.021000	3.258700	-9.843200	26.587946	0.000432	20.810625
2103.545321	-2.991300	3.257900	-9.744700	26.597840	0.000430	20.843803
2104.545095	-2.997400	3.258100	-9.764700	26.649124	0.000430	20.830873
2105.545437	-2.983900	3.258800	-9.721500	26.674070	0.000429	20.829873
2106.547282	-3.000400	3.255400	-9.766000	26.699729	0.000428	20.838599
2107.544843	-2.999100	3.255200	-9.761500	26.741283	0.000428	20.853823
2108.546754	-2.990000	3.256400	-9.735300	26.769784	0.000428	20.845020
2109.545058	-3.025400	3.254600	-9.845700	26.776603	0.000428	20.843815
2110.544819	-2.996100	3.255600	-9.751800	26.838267	0.000426	20.827106
2111.547029	-3.016000	3.254200	-9.813100	26.886494	0.000424	20.838614
2112.548230	-2.997600	3.254300	-9.754400	26.910122	0.000424	20.840087
2113.545991	-2.996100	3.254100	-9.747400	26.879815	0.000423	20.830476
2114.545496	-2.991400	3.252500	-9.728400	26.825918	0.000425	20.833181
2115.546329	-3.006200	3.252600	-9.776800	26.812586	0.000422	20.843009
2116.545152	-2.991700	3.252400	-9.728300	26.805691	0.000423	20.833232
2117.550204	-3.021800	3.252300	-9.826300	26.777293	0.000421	20.828388
2118.546169	-2.977900	3.254000	-9.689800	26.757525	0.000421	20.817523
2119.547969	-2.958100	3.252000	-9.618200	26.755588	0.000420	20.826006
2120.546562	-3.012900	3.251400	-9.794600	26.704653	0.000420	20.836911
2121.548176	-3.027400	3.250000	-9.838100	26.668720	0.000421	20.853418
2122.548879	-3.001600	3.249500	-9.752200	26.685700	0.000418	20.828762
2123.547244	-3.000300	3.251300	-9.754900	26.709065	0.000417	20.850830
2124.550925	-2.988100	3.250100	-9.709700	26.715577	0.000417	20.835566
2125.548971	-3.000500	3.251700	-9.755200	26.715233	0.000417	20.838065
2126.549388	-2.996400	3.250500	-9.739200	26.740434	0.000413	20.861978
2127.553775	-2.994300	3.250100	-9.730600	26.735718	0.000415	20.853917
2128.551620	-3.013700	3.247900	-9.787700	26.821256	0.000414	20.860735
2129.551547	-3.003100	3.247200	-9.750500	26.817037	0.000413	20.831839
2130.551581	-3.007300	3.246600	-9.762900	26.838602	0.000414	20.849727
2131.553124	-3.030800	3.245600	-9.835400	26.885301	0.000412	20.836466
2132.555360	-2.977700	3.247200	-9.668400	26.944536	0.000411	20.840553
2133.554389	-3.003800	3.245800	-9.748500	26.943044	0.000410	20.869398
2134.557756	-3.013500	3.246100	-9.780500	26.939667	0.000410	20.843244
2135.554445	-3.005000	3.244100	-9.748200	26.985379	0.000411	20.845589
2136.559674	-2.984600	3.246200	-9.686800	26.993573	0.000409	20.857148
2137.559433	-2.989600	3.243400	-9.696100	27.033701	0.000408	20.843923
2138.558204	-2.989900	3.244600	-9.699400	27.028478	0.000407	20.857162
2139.556210	-3.016500	3.241600	-9.777000	27.020576	0.000407	20.852535
2140.556466	-2.995400	3.244100	-9.716300	27.042659	0.000405	20.860044
2141.564096	-2.992800	3.244300	-9.709100	27.068400	0.000407	20.878818
2142.555579	-2.993800	3.242600	-9.707400	27.035576	0.000405	20.871886
2143.556505	-3.022400	3.241500	-9.795800	27.011874	0.000404	20.849473
2144.556506	-3.013200	3.241700	-9.766700	26.986898	0.000403	20.858496
2145.563506	-2.994400	3.241100	-9.703600	26.956554	0.000402	20.843155
2146.557675	-2.991600	3.241100	-9.695000	26.940727	0.000402	20.885084
2147.560301	-3.022500	3.238700	-9.788100	26.944206	0.000399	20.875307
2148.565000	-3.004900	3.241000	-9.737600	26.988975	0.000401	20.862480
2149.560607	-3.021500	3.240200	-9.789700	27.000700	0.000401	20.854357
2150.561477	-3.011100	3.239200	-9.752800	27.021903	0.000400	20.870937
2151.560416	-2.996600	3.239700	-9.707100	26.976090	0.000400	20.852369
2152.561413	-3.001500	3.238400	-9.717400	26.941516	0.000399	20.863120
2153.561415	-3.010600	3.237600	-9.745000	26.934827	0.000397	20.866825
2154.563414	-2.981700	3.237400	-9.651600	26.942536	0.000397	20.851344
2155.561413	-2.986300	3.238300	-9.669900	26.935679	0.000395	20.855354
2156.568414	-3.007800	3.235800	-9.732100	26.925586	0.000397	20.882662
2157.564414	-3.044500	3.235800	-9.850100	26.950870	0.000396	20.896705
2158.563927	-2.995500	3.236300	-9.693100	26.966189	0.000393	20.879869
2159.567928	-3.030100	3.234900	-9.800000	26.961576	0.000392	20.901781
2160.565353	-3.001300	3.235200	-9.708300	26.981851	0.000393	20.883764
2161.566354	-2.996000	3.234400	-9.688300	27.030978	0.000393	20.871055
2162.564355	-3.010900	3.234500	-9.737800	27.069727	0.000390	20.889160
2163.566353	-3.011600	3.233200	-9.736000	27.065739	0.000392	20.889891
2164.565365	-3.004000	3.233200	-9.711600	27.062987	0.000390	20.881908
2165.564757	-2.992000	3.232600	-9.669200	27.088395	0.000389	20.863840
2166.567228	-2.993300	3.231400	-9.671900	27.101940	0.000390	20.861341
2167.566184	-3.002500	3.231400	-9.701200	27.132839	0.000389	20.885778
2168.567060	-3.004800	3.232700	-9.712200	27.156488	0.000386	20.879692
2169.567261	-3.000500	3.232400	-9.697400	27.171102	0.000387	20.883010
2170.568893	-3.034600	3.229800	-9.800400	27.186418	0.000386	20.877078
2171.568036	-2.997100	3.230600	-9.681500	27.201438	0.000385	20.880331
2172.568761	-3.002700	3.229800	-9.696700	27.151251	0.000387	20.882011
2173.568877	-3.011300	3.230300	-9.726600	27.134217	0.000387	20.865828
2174.568100	-3.004700	3.229300	-9.701900	27.149851	0.000382	20.886766
2175.570101	-3.017300	3.229600	-9.742500	27.191501	0.000382	20.909215
2176.569010	-2.978400	3.227900	-9.611700	27.201401	0.000383	20.887880
2177.572453	-2.985300	3.228000	-9.635600	27.196496	0.000381	20.897171
2178.569269	-2.972500	3.229400	-9.598400	27.208816	0.000382	20.883959
2179.573080	-2.999600	3.226900	-9.678000	27.234819	0.000381	20.908216
2180.571620	-2.999100	3.226300	-9.675100	27.244960	0.000380	20.889020
2181.571857	-2.997100	3.226400	-9.669300	27.244832	0.000380	20.910226
2182.569535	-3.007500	3.227500	-9.705500	27.249239	0.000379	20.889531
2183.568567	-2.994700	3.225700	-9.658700	27.242921	0.000379	20.891710
2184.570465	-3.007100	3.225400	-9.698000	27.214191	0.000376	20.907856
2185.571256	-2.989400	3.224600	-9.638900	27.193029	0.000376	20.900321
2186.574307	-3.006700	3.223900	-9.692100	27.123484	0.000376	20.906713
2187.579094	-3.013100	3.224200	-9.714000	27.135003	0.000374	20.879420
2188.575167	-2.977000	3.225200	-9.600700	27.099250	0.000377	20.904151
2189.572426	-2.990200	3.223600	-9.638300	27.049962	0.000373	20.899627
2190.572033	-2.990800	3.223200	-9.639200	27.035715	0.000376	20.902843
2191.574158	-3.010200	3.222700	-9.700300	26.987838	0.000372	20.919654
2192.571996	-3.019200	3.221300	-9.725000	26.972100	0.000371	20.901932
2193.574864	-3.005500	3.221200	-9.679000	26.963930	0.000372	20.905097
2194.572297	-3.008000	3.221300	-9.688300	26.929356	0.000372	20.901149
2195.574231	-2.997300	3.220700	-9.652500	26.967856	0.000370	20.928482
2196.575665	-3.015000	3.219400	-9.705700	26.985058	0.000371	20.919702
2197.573514	-3.000200	3.219000	-9.657200	27.011538	0.000370	20.902712
2198.577218	-3.008200	3.218200	-9.680400	27.039177	0.000367	20.914859
2199.576219	-3.003300	3.218400	-9.664900	27.064560	0.000368	20.916204
2200.577448	-2.985100	3.217200	-9.601900	27.113962	0.000365	20.918946
2201.577816	-3.010900	3.217100	-9.685900	27.097219	0.000367	20.904954
2202.577958	-3.017000	3.217200	-9.705800	27.138923	0.000366	20.926506
2203.576389	-2.987700	3.217400	-9.611400	27.137801	0.000366	20.915421
2204.583638	-2.993900	3.216800	-9.630200	27.162264	0.000363	20.903991
2205.576637	-2.971700	3.217400	-9.559700	27.146758	0.000363	20.935808
2206.578326	-3.007500	3.214800	-9.667700	27.152543	0.000362	20.922661
2207.582878	-2.988600	3.215700	-9.608400	27.183975	0.000361	20.923455
2208.579837	-3.011800	3.215500	-9.683400	27.238658	0.000362	20.925352
2209.583706	-3.030100	3.213600	-9.736600	27.294267	0.000360	20.927234
2210.581228	-3.010200	3.213300	-9.671500	27.294318	0.000361	20.930604
2211.580917	-2.990100	3.214400	-9.610900	27.297669	0.000360	20.928285
2212.583975	-2.999300	3.214100	-9.639200	27.330829	0.000360	20.933666
2213.586801	-2.995900	3.213000	-9.624300	27.332956	0.000358	20.954768
2214.581168	-2.998700	3.210500	-9.626600	27.288878	0.000357	20.920391
2215.580720	-2.968200	3.212500	-9.534200	27.268163	0.000359	20.935114
2216.581757	-2.974300	3.211000	-9.548800	27.264761	0.000357	20.937855
2217.581857	-3.015300	3.210700	-9.680700	27.260555	0.000355	20.928885
2218.585332	-3.003500	3.210500	-9.641800	27.273780	0.000355	20.918954
2219.583220	-2.996500	3.211300	-9.621800	27.284775	0.000355	20.929064
2220.584079	-3.003300	3.209800	-9.638800	27.309337	0.000353	20.929116
2221.583097	-3.000800	3.209300	-9.629800	27.316649	0.000354	20.936944
2222.584204	-3.026000	3.207200	-9.703800	27.284914	0.000352	20.955754
2223.588706	-2.987800	3.209100	-9.586600	27.306316	0.000351	20.937455
2224.584840	-2.997700	3.207700	-9.615100	27.319145	0.000351	20.941351
2225.585541	-3.013900	3.205800	-9.660500	27.348303	0.000351	20.921373
2226.585907	-3.000800	3.206600	-9.620900	27.347145	0.000353	20.929690
2227.585545	-2.998700	3.207300	-9.616700	27.333552	0.000350	20.944464
2228.588953	-2.995000	3.206500	-9.601500	27.349743	0.000349	20.952689
2229.586436	-2.992100	3.207700	-9.596800	27.367435	0.000348	20.944410
2230.586070	-2.993500	3.205800	-9.594600	27.370979	0.000348	20.952715
2231.587242	-2.981500	3.205300	-9.555700	27.347894	0.000347	20.946089
2232.586880	-3.002200	3.204600	-9.620500	27.323231	0.000346	20.943564
2233.586974	-2.998100	3.204100	-9.605100	27.305969	0.000346	20.954648
2234.590220	-3.007400	3.201500	-9.627300	27.317089	0.000346	20.951136
2235.589493	-3.006000	3.203400	-9.628000	27.321229	0.000345	20.955774
2236.591494	-3.029100	3.199900	-9.690400	27.358860	0.000345	20.945741
2237.588671	-2.997700	3.201900	-9.597300	27.372696	0.000344	20.955865
2238.586560	-2.996900	3.201600	-9.593800	27.324261	0.000343	20.950290
2239.592598	-2.972400	3.202900	-9.519300	27.279507	0.000342	20.944627
2240.587468	-3.003200	3.200800	-9.611700	27.243196	0.000341	20.970213
2241.586782	-3.034900	3.200500	-9.711100	27.216148	0.000338	20.958181
2242.587717	-3.014600	3.200100	-9.646100	27.172664	0.000339	20.962808
2243.588719	-2.985900	3.200000	-9.553900	27.141280	0.000340	20.960166
2244.588602	-2.992300	3.198200	-9.569200	27.118244	0.000338	20.953595
2245.592640	-2.993800	3.199100	-9.576300	27.106674	0.000337	20.970405
2246.589604	-3.003300	3.197800	-9.603200	27.124206	0.000338	20.959589
2247.595609	-2.992600	3.198100	-9.570400	27.209139	0.000337	20.973415
2248.589741	-3.010600	3.196500	-9.622200	27.221359	0.000335	20.977170
2249.589741	-2.974900	3.198300	-9.512900	27.215279	0.000336	20.958256
2250.593740	-2.988300	3.196200	-9.550200	27.207637	0.000334	20.982334
2251.590742	-3.014500	3.194800	-9.628100	27.238570	0.000335	20.975991
2252.592122	-3.003600	3.194200	-9.594000	27.234583	0.000336	20.971033
2253.592120	-3.013700	3.194000	-9.625300	27.234938	0.000332	20.978975
2254.593155	-3.021200	3.194800	-9.651600	27.237219	0.000332	20.969417
2255.595123	-2.993600	3.193300	-9.559200	27.236926	0.000333	20.974811
2256.594126	-2.975700	3.194300	-9.504100	27.203252	0.000330	20.969391
2257.596125	-2.991100	3.192600	-9.548100	27.192640	0.000332	20.975785
2258.594681	-2.970400	3.192300	-9.481500	27.168762	0.000331	20.983062
2259.596052	-2.985100	3.193200	-9.531300	27.132169	0.000331	20.987983
2260.595816	-3.006100	3.190800	-9.591400	27.162162	0.000329	20.988277
2261.596817	-2.996500	3.190800	-9.560000	27.181936	0.000329	20.978770
2262.598258	-3.016000	3.189500	-9.619000	27.226732	0.000327	20.986840
2263.597757	-3.010700	3.190600	-9.604100	27.271210	0.000328	20.978950
2264.597755	-2.988400	3.188600	-9.527100	27.305529	0.000326	20.979332
2265.597755	-3.022000	3.187400	-9.631300	27.310728	0.000328	20.974606
2266.600032	-3.023700	3.187700	-9.637000	27.278190	0.000327	20.964636
2267.598207	-3.010400	3.187700	-9.595300	27.251806	0.000325	20.963228
2268.600851	-3.016300	3.189400	-9.617900	27.267629	0.000327	20.977245
2269.597848	-3.012900	3.187400	-9.601700	27.286802	0.000325	20.965238
2270.600197	-2.982400	3.187000	-9.503800	27.303223	0.000324	20.977961
2271.602168	-2.985800	3.185500	-9.510600	27.354754	0.000323	20.978590
2272.605166	-2.988900	3.186800	-9.522400	27.372066	0.000324	20.941482
2273.600164	-2.983700	3.184800	-9.501000	27.401416	0.000324	20.972427
2274.601166	-3.023900	3.183600	-9.626600	27.367810	0.000322	20.975603
2275.601165	-3.015000	3.184400	-9.599900	27.379085	0.000321	20.952809
2276.601165	-3.003300	3.184100	-9.561000	27.390971	0.000320	20.941060
2277.601165	-2.994100	3.183200	-9.529700	27.463220	0.000321	20.974860
2278.602165	-3.026800	3.181600	-9.629400	27.471934	0.000319	20.965610
2279.602169	-3.000200	3.181500	-9.544500	27.527939	0.000320	20.955103
2280.602547	-3.007100	3.180700	-9.563600	27.568277	0.000318	20.959178
2281.602545	-3.002600	3.179800	-9.546400	27.552927	0.000318	20.954166
2282.603547	-2.985500	3.181900	-9.498700	27.571894	0.000318	20.949542
2283.602546	-3.022000	3.178700	-9.604300	27.547886	0.000316	20.946249
2284.603659	-3.027900	3.177900	-9.620800	27.589392	0.000312	20.959087
2285.603664	-2.992800	3.181100	-9.519400	27.621042	0.000315	20.953001
2286.603658	-2.997600	3.180200	-9.531500	27.627880	0.000314	20.944710
2287.610325	-2.994900	3.179100	-9.520000	27.614828	0.000314	20.938689
2288.605290	-3.012900	3.177000	-9.571000	27.563499	0.000314	20.924029
2289.607728	-2.998700	3.177200	-9.527100	27.527914	0.000313	20.965033
2290.609695	-3.011000	3.175300	-9.558900	27.486924	0.000312	20.955088
2291.605729	-2.989300	3.176700	-9.495500	27.430891	0.000311	20.929539
2292.608054	-3.006600	3.176100	-9.547300	27.406879	0.000311	20.935254
2293.608903	-3.012200	3.174500	-9.561300	27.446878	0.000309	20.932820
2294.604900	-2.977500	3.177400	-9.459300	27.474889	0.000310	20.944878
2295.611903	-2.990600	3.175200	-9.494700	27.533963	0.000310	20.916124
2296.604901	-2.983300	3.173300	-9.465500	27.576288	0.000308	20.946378
2297.604987	-2.990200	3.173200	-9.487900	27.589560	0.000310	20.923698
2298.609983	-3.005200	3.172500	-9.533900	27.610269	0.000308	20.916561
2299.605984	-2.979300	3.173700	-9.454900	27.627857	0.000307	20.935205
2300.609985	-3.002500	3.170600	-9.519000	27.642808	0.000307	20.945507
2301.609987	-3.017900	3.171200	-9.568800	27.659965	0.000305	20.943804
2302.605721	-3.010900	3.172300	-9.549200	27.667070	0.000305	20.949056
2303.609720	-2.997300	3.168800	-9.496900	27.642911	0.000304	20.941817
2304.605718	-3.042800	3.168700	-9.640100	27.607061	0.000306	20.926608
2305.605717	-3.013800	3.170700	-9.554900	27.593917	0.000303	20.920022
2306.606782	-3.015100	3.168600	-9.553000	27.644963	0.000302	20.904531
2307.606673	-3.010500	3.167500	-9.534900	27.659392	0.000305	20.929953
2308.605670	-2.993800	3.168800	-9.485900	27.642647	0.000303	20.915475
2309.608004	-3.001500	3.166100	-9.501600	27.612386	0.000301	20.931966
2310.607006	-3.005600	3.164600	-9.509600	27.621581	0.000302	20.926520
2311.606281	-2.966000	3.165700	-9.387500	27.640952	0.000300	20.933209
2312.606176	-2.979600	3.165000	-9.429500	27.694964	0.000300	20.912171
2313.607093	-2.985200	3.164500	-9.445900	27.694913	0.000299	20.932032
2314.608387	-2.999000	3.162800	-9.484100	27.705597	0.000299	20.920025
2315.609181	-2.992300	3.164400	-9.468000	27.725603	0.000298	20.926406
2316.609709	-2.989200	3.163100	-9.453200	27.661075	0.000298	20.908415
2317.611814	-2.988000	3.162300	-9.448000	27.638292	0.000298	20.931007
2318.611062	-3.002000	3.162200	-9.492300	27.581310	0.000297	20.929147
2319.609180	-3.027300	3.160100	-9.566000	27.552501	0.000295	20.936670
2320.610469	-3.021400	3.160700	-9.548900	27.562398	0.000294	20.924818
2321.609160	-3.002700	3.158800	-9.482900	27.590826	0.000294	20.910275
2322.610175	-2.995400	3.159900	-9.463800	27.572754	0.000295	20.916746
2323.611933	-3.007200	3.158300	-9.497500	27.611205	0.000295	20.918926
2324.610386	-3.000400	3.159700	-9.479000	27.603169	0.000294	20.917478
2325.612017	-3.011900	3.156500	-9.506600	27.612809	0.000294	20.910583
2326.611589	-2.987500	3.156900	-9.430400	27.630920	0.000293	20.906522
2327.615455	-3.018600	3.154500	-9.521100	27.597960	0.000292	20.927408
2328.612606	-3.008200	3.155400	-9.490900	27.609397	0.000292	20.922321
2329.614574	-2.985800	3.154600	-9.418200	27.635976	0.000289	20.922039
2330.616907	-3.028700	3.153500	-9.550100	27.660964	0.000290	20.932483
2331.623363	-2.981100	3.153600	-9.400000	27.665395	0.000290	20.898065
2332.613353	-3.005100	3.151700	-9.470100	27.632845	0.000290	20.927422
2333.615165	-3.008700	3.151800	-9.481400	27.649425	0.000286	20.919451
2334.615160	-3.009100	3.150900	-9.480800	27.645326	0.000287	20.928602
2335.615704	-2.990000	3.151400	-9.421900	27.620746	0.000286	20.901027
2336.616595	-2.984600	3.151400	-9.404900	27.602814	0.000286	20.928025
2337.614286	-3.027300	3.149500	-9.533000	27.610762	0.000288	20.912317
2338.615232	-2.997200	3.149700	-9.438800	27.590230	0.000286	20.913942
2339.613798	-3.012300	3.148100	-9.482100	27.611066	0.000285	20.909303
2340.615066	-2.987500	3.149000	-9.406000	27.616480	0.000285	20.926128
2341.616238	-3.002700	3.146400	-9.446900	27.634258	0.000286	20.924104
2342.615443	-2.998100	3.147600	-9.436300	27.611004	0.000284	20.924412
2343.613691	-3.011100	3.145400	-9.470600	27.614595	0.000283	20.913328
2344.615776	-3.000500	3.144600	-9.435000	27.616352	0.000283	20.924104
2345.615937	-3.015400	3.144400	-9.479800	27.689060	0.000282	20.906704
2346.620655	-2.969400	3.144400	-9.335200	27.737311	0.000282	20.923489
2347.619013	-3.020300	3.143300	-9.492500	27.764526	0.000280	20.906307
2348.633768	-2.983100	3.142100	-9.372100	27.755088	0.000282	20.919568
2349.618940	-3.008000	3.141200	-9.447200	27.753536	0.000280	20.913265
2350.620121	-3.008200	3.141400	-9.448800	27.749460	0.000280	20.927654
2351.618024	-2.968200	3.140700	-9.320700	27.738228	0.000280	20.904974
2352.618262	-3.002800	3.140300	-9.428300	27.744302	0.000279	20.920094
2353.619110	-2.999400	3.140200	-9.418100	27.709563	0.000279	20.912637
2354.619411	-3.005600	3.137500	-9.429100	27.689710	0.000278	20.894083
2355.620465	-3.022500	3.137900	-9.483600	27.705884	0.000278	20.916047
2356.620594	-3.011800	3.136100	-9.444700	27.738995	0.000278	20.919968
2357.622027	-2.966900	3.139100	-9.311900	27.778916	0.000278	20.914150
2358.620674	-3.024400	3.134400	-9.478600	27.782009	0.000277	20.896877
2359.619462	-3.020100	3.135300	-9.468100	27.823255	0.000276	20.901875
2360.620100	-3.013700	3.134600	-9.445500	27.849981	0.000274	20.885152
2361.621106	-3.028400	3.133300	-9.487800	27.848480	0.000274	20.908769
2362.623743	-3.001500	3.134200	-9.405900	27.803748	0.000273	20.921122
2363.621291	-3.007000	3.134000	-9.422800	27.755880	0.000273	20.909935
2364.622534	-2.983300	3.133200	-9.344800	27.702435	0.000274	20.921585
2365.622207	-3.013200	3.128900	-9.427300	27.652270	0.000272	20.908564
2366.623704	-2.999800	3.130900	-9.391400	27.621234	0.000273	20.911948
2367.624445	-2.991500	3.131200	-9.365800	27.583726	0.000273	20.896020
2368.624186	-2.983100	3.130900	-9.338900	27.564978	0.000273	20.916509
2369.623098	-2.988900	3.129000	-9.351700	27.543340	0.000271	20.922239
2370.622811	-3.008400	3.127600	-9.408300	27.546193	0.000269	20.906145
2371.622714	-2.983700	3.128700	-9.334200	27.583868	0.000270	20.905645
2372.624109	-3.014200	3.126400	-9.422600	27.600208	0.000270	20.907861
2373.627346	-2.996700	3.124400	-9.361900	27.580785	0.000269	20.907284
2374.624266	-2.992600	3.124700	-9.350500	27.602221	0.000269	20.892344
2375.626895	-2.997000	3.124500	-9.362700	27.599342	0.000269	20.899404
2376.629391	-2.989400	3.123700	-9.336900	27.634151	0.000268	20.919728
2377.625875	-2.973900	3.121800	-9.282700	27.671935	0.000268	20.916498
2378.631042	-2.986000	3.123900	-9.326100	27.656247	0.000270	20.900712
2379.626751	-2.975000	3.121900	-9.286000	27.645383	0.000267	20.907324
2380.630154	-2.998100	3.120300	-9.353900	27.617720	0.000269	20.894663
2381.627947	-3.006500	3.120300	-9.379800	27.611520	0.000266	20.897908
2382.628218	-3.007700	3.119700	-9.381600	27.603879	0.000268	20.907287
2383.628786	-2.987500	3.117500	-9.311400	27.584813	0.000264	20.899484
2384.631557	-3.016000	3.117700	-9.402000	27.548030	0.000264	20.906096
2385.627669	-3.009000	3.116400	-9.376000	27.504750	0.000267	20.909492
2386.628633	-2.987800	3.116800	-9.311600	27.481504	0.000264	20.893218
2387.627937	-2.985800	3.116500	-9.304100	27.531284	0.000264	20.895412
2388.629756	-2.994000	3.114900	-9.325600	27.550273	0.000266	20.898396
2389.632618	-2.971200	3.114500	-9.252700	27.594318	0.000265	20.900513
2390.629553	-2.999000	3.113800	-9.337300	27.651259	0.000265	20.910866
2391.632840	-3.018700	3.111700	-9.392500	27.624298	0.000266	20.901281
2392.630758	-2.995300	3.112300	-9.321200	27.603373	0.000265	20.887814
2393.630532	-2.999600	3.110100	-9.329000	27.603615	0.000263	20.900858
2394.647105	-2.990900	3.109800	-9.300000	27.584078	0.000263	20.909175
2395.670940	-3.004700	3.108200	-9.338400	27.641659	0.000263	20.908318
2396.655810	-3.005800	3.107900	-9.341100	27.657374	0.000263	20.920811
2397.680427	-2.988600	3.108400	-9.287100	27.701959	0.000265	20.914942
2398.648901	-3.014600	3.105100	-9.359900	27.748580	0.000263	20.891684
2399.654930	-3.013800	3.104500	-9.355400	27.736165	0.000262	20.893415
2400.656694	-3.025300	3.103000	-9.386300	27.718629	0.000261	20.892364
2401.654734	-3.021200	3.103100	-9.374500	27.730678	0.000262	20.897377
2402.652067	-2.997300	3.102600	-9.298400	27.735580	0.000261	20.886189
2403.667734	-2.975700	3.103100	-9.231900	27.682745	0.000261	20.911729
2404.649960	-2.996800	3.100600	-9.290900	27.658305	0.000259	20.896620
2405.659834	-2.997500	3.101200	-9.294800	27.698203	0.000260	20.892199
2406.648672	-2.998900	3.100800	-9.298000	27.738396	0.000261	20.898505
2407.648167	-3.005400	3.097700	-9.308900	27.773503	0.000260	20.904911
2408.768007	-2.999800	3.097700	-9.291100	27.806791	0.000258	20.889100
2409.767421	-2.988500	3.096600	-9.252600	27.833518	0.000259	20.899876
2410.779783	-3.009300	3.095300	-9.312900	27.864141	0.000257	20.906513
2411.772135	-3.001800	3.096000	-9.292000	27.898634	0.000260	20.883385
2412.761364	-2.998800	3.093200	-9.274400	27.932831	0.000259	20.887932
2413.773129	-2.983600	3.093400	-9.227800	27.942800	0.000261	20.913137
2414.771852	-3.001200	3.091300	-9.276700	27.957557	0.000258	20.911869
2415.750201	-2.993200	3.091600	-9.251700	27.970364	0.000256	20.891570
2416.773442	-2.982600	3.090300	-9.215500	27.957316	0.000255	20.897877
2417.731439	-2.983300	3.091500	-9.222800	27.917807	0.000257	20.882768
2418.732337	-3.002100	3.090300	-9.275300	27.913056	0.000258	20.898848
2419.765622	-3.017100	3.089400	-9.320200	27.901395	0.000256	20.899913
2420.783964	-2.995300	3.086600	-9.244600	27.840775	0.000257	20.878732
2421.775652	-2.984700	3.085800	-9.209900	27.794297	0.000255	20.881742
2422.763638	-2.998300	3.085300	-9.249300	27.786733	0.000256	20.897362
2423.764850	-3.014900	3.083500	-9.295800	27.808380	0.000255	20.902078
2424.735961	-2.983400	3.083000	-9.197200	27.775374	0.000254	20.883562
2425.735083	-2.989900	3.083100	-9.217500	27.794118	0.000254	20.894838
2426.739094	-3.026600	3.080900	-9.324000	27.778774	0.000256	20.877027
2427.754101	-3.025300	3.078600	-9.312600	27.807946	0.000255	20.897374
2428.737360	-2.980900	3.080200	-9.179700	27.832751	0.000255	20.869709
2429.736322	-3.002900	3.077600	-9.240700	27.829541	0.000255	20.873591
2430.772326	-2.997900	3.077800	-9.226000	27.792029	0.000255	20.877564
2431.779580	-3.018500	3.076100	-9.283700	27.743678	0.000255	20.880114
2432.770543	-3.007400	3.076300	-9.250600	27.669446	0.000253	20.889340
2433.778093	-2.997900	3.074700	-9.216400	27.638116	0.000253	20.866350
2434.770097	-2.997000	3.074900	-9.213600	27.663664	0.000252	20.879255
2435.786092	-3.007200	3.073100	-9.240400	27.661677	0.000253	20.885789
2436.768770	-3.008300	3.073000	-9.244000	27.691541	0.000253	20.884073
2437.777816	-3.015400	3.070600	-9.258000	27.702671	0.000251	20.858290
2438.772542	-2.962600	3.071000	-9.096600	27.713548	0.000251	20.901001
2439.774528	-3.012100	3.068300	-9.241000	27.750172	0.000250	20.876219
2440.770167	-3.012400	3.067300	-9.238600	27.803768	0.000252	20.860455
2441.755166	-2.999800	3.068100	-9.203700	27.865435	0.000251	20.882688
2442.764339	-3.004300	3.066900	-9.213300	27.903518	0.000251	20.860327
2443.775339	-3.002400	3.064400	-9.199500	27.944210	0.000251	20.874730
2444.762865	-2.994500	3.064900	-9.176300	27.915956	0.000251	20.888965
2445.761866	-2.995200	3.063200	-9.174200	27.893917	0.000250	20.866310
2446.761865	-3.004300	3.061200	-9.195000	27.890659	0.000253	20.876781
2447.758878	-2.991800	3.062400	-9.160000	27.893815	0.000250	20.879957
2448.764117	-3.003600	3.060400	-9.191800	27.903007	0.000251	20.891105
2449.756117	-3.002900	3.059800	-9.187800	27.922106	0.000249	20.889465
2450.756984	-2.972900	3.057600	-9.088300	27.972092	0.000250	20.868655
2451.756986	-3.033300	3.055700	-9.267900	28.024569	0.000250	20.871691
2452.783985	-3.012500	3.054300	-9.200100	28.082952	0.000248	20.877355
2453.785589	-2.980800	3.055000	-9.105500	28.107357	0.000250	20.882956
2454.766585	-3.021400	3.052900	-9.222900	28.099299	0.000249	20.862992
2455.742586	-2.996100	3.053600	-9.148000	28.171412	0.000249	20.864939
2456.742472	-2.997800	3.051500	-9.146500	28.161686	0.000250	20.859416
2457.742891	-2.990300	3.049900	-9.119200	28.157042	0.000247	20.880343
2458.744282	-2.988700	3.050300	-9.114900	28.176542	0.000249	20.872000
2459.747968	-2.998600	3.048300	-9.139600	28.162566	0.000249	20.863620
2460.744380	-2.987200	3.048200	-9.103700	28.118318	0.000248	20.850370
2461.747376	-2.994100	3.046500	-9.120900	28.082597	0.000247	20.876524
2462.743914	-2.996500	3.046400	-9.127700	28.044024	0.000247	20.894592
2463.743796	-3.009900	3.043200	-9.158600	27.973647	0.000249	20.861686
2464.744192	-3.007400	3.043100	-9.150800	27.976386	0.000245	20.867761
2465.746190	-2.995100	3.041900	-9.109600	27.988619	0.000247	20.856368
2466.746191	-2.973700	3.040700	-9.040300	28.006837	0.000246	20.864274
2467.746427	-2.993600	3.040000	-9.099000	28.012427	0.000248	20.870375
2468.746426	-2.982000	3.037200	-9.056300	27.970554	0.000247	20.864263
2469.746156	-3.001300	3.036900	-9.112200	27.954143	0.000247	20.856754
2470.749241	-2.987900	3.036500	-9.071200	27.902615	0.000247	20.850410
2471.746240	-3.020000	3.035200	-9.165600	27.892864	0.000247	20.880897
2472.746209	-3.006100	3.033400	-9.117900	27.889935	0.000245	20.860407
2473.748207	-2.980800	3.033300	-9.041100	27.894124	0.000245	20.866045
2474.747657	-2.990800	3.032800	-9.069100	27.941350	0.000246	20.869007
2475.750526	-3.015000	3.030300	-9.135600	27.978704	0.000244	20.854449
2476.748729	-3.005600	3.029600	-9.105200	28.026434	0.000247	20.851758
2477.750152	-3.020300	3.027100	-9.141300	28.038261	0.000245	20.860818
2478.749151	-3.040100	3.026600	-9.200000	28.008333	0.000246	20.854874
2479.748150	-2.969200	3.026600	-8.986000	28.010509	0.000244	20.871289
2480.748962	-2.993800	3.023900	-9.051500	28.004502	0.000245	20.874725
2481.749960	-2.987200	3.023600	-9.030800	28.013974	0.000245	20.867190
2482.784105	-3.017100	3.022300	-9.117400	28.011173	0.000243	20.864845
2483.768108	-3.007300	3.021200	-9.084900	28.035248	0.000243	20.857311
2484.803105	-3.001100	3.019600	-9.061300	28.050182	0.000245	20.853378
2485.804471	-3.004100	3.019400	-9.070300	28.061487	0.000243	20.846740
2486.753471	-2.978800	3.018100	-8.989600	28.006210	0.000244	20.876444
2487.768471	-2.993100	3.016200	-9.027500	27.980404	0.000244	20.858056
2488.751472	-3.011800	3.014900	-9.079400	27.966922	0.000246	20.859185
2489.784486	-3.016100	3.014500	-9.091800	27.979119	0.000245	20.857711
2490.769488	-2.978600	3.013500	-8.974500	28.041706	0.000243	20.841053
2491.786970	-3.002400	3.011900	-9.042300	28.092336	0.000245	20.844604
2492.750969	-3.017900	3.009700	-9.082000	28.144771	0.000244	20.854241
2493.754042	-2.993400	3.008000	-9.003500	28.148283	0.000244	20.863940
2494.751041	-2.973800	3.007900	-8.943400	28.192326	0.000242	20.849485
2495.776044	-3.007100	3.006900	-9.041200	28.233544	0.000242	20.853050
2496.770047	-3.026300	3.005500	-9.094600	28.255704	0.000243	20.852127
2497.786043	-3.011000	3.003500	-9.042400	28.246986	0.000242	20.842876
2498.792046	-2.986200	3.002800	-8.966000	28.177232	0.000244	20.840928
2499.754099	-3.016300	3.001500	-9.052100	28.091218	0.000242	20.838263
2500.787167	-2.997200	3.001800	-8.996200	28.064001	0.000243	20.846426
2501.772233	-3.009100	2.998700	-9.022000	28.036363	0.000241	20.849899
2502.785252	-3.005700	2.997500	-9.008300	27.998310	0.000240	20.864700
2503.808249	-3.001400	2.996000	-8.991200	28.006648	0.000243	20.835635
2504.781451	-3.008200	2.993700	-9.004700	27.992453	0.000242	20.833202
2505.754454	-3.001500	2.994900	-8.989000	27.992391	0.000239	20.836458
2506.771453	-3.008500	2.993700	-9.005800	27.985745	0.000241	20.860587
2507.781950	-3.000200	2.992200	-8.976200	27.992695	0.000243	20.845772
2508.787951	-3.028100	2.990300	-9.053300	27.994338	0.000241	20.848374
2509.772469	-3.006300	2.988400	-8.981800	28.032405	0.000241	20.842596
2510.772753	-3.001200	2.987900	-8.966100	28.033793	0.000242	20.843519
2511.773754	-2.972300	2.986500	-8.875300	27.983455	0.000241	20.844533
2512.755755	-3.011100	2.986500	-8.991000	27.955750	0.000240	20.841302
2513.757125	-2.998200	2.983300	-8.943500	27.977215	0.000243	20.828295
2514.797164	-2.991100	2.984100	-8.923700	28.016543	0.000239	20.829475
2515.779137	-3.016300	2.980100	-8.987600	28.075689	0.000241	20.837803
2516.757130	-3.017600	2.978400	-8.987100	28.137366	0.000241	20.832562
2517.776968	-2.985900	2.978500	-8.891700	28.175691	0.000242	20.849808
2518.760968	-3.008000	2.975800	-8.950300	28.143080	0.000241	20.817926
2519.775484	-2.976400	2.974700	-8.852600	28.114298	0.000242	20.840160
2520.814485	-2.993500	2.972900	-8.898900	28.137771	0.000240	20.821117
2521.779484	-3.011100	2.971200	-8.945700	28.146465	0.000241	20.825127
2522.788484	-2.985200	2.971000	-8.868100	28.124850	0.000241	20.840825
2523.812485	-3.004900	2.969200	-8.921300	28.064801	0.000242	20.814990
2524.796484	-3.007200	2.966800	-8.921000	28.042192	0.000241	20.823051
2525.779485	-2.998400	2.966700	-8.894100	28.040001	0.000239	20.832699
2526.804485	-3.004700	2.965100	-8.908700	28.047793	0.000240	20.816361
2527.761483	-3.003000	2.964300	-8.900200	28.082496	0.000241	20.816207
2528.763483	-2.985800	2.962400	-8.843700	28.154406	0.000241	20.820794
2529.778486	-3.018500	2.959900	-8.934000	28.192070	0.000239	20.811297
2530.781483	-3.020900	2.959600	-8.939900	28.231299	0.000240	20.824239
2531.799484	-2.989800	2.957200	-8.839600	28.238593	0.000239	20.819254
2532.805483	-2.976800	2.955600	-8.797500	28.232636	0.000240	20.808515
2533.803485	-3.003400	2.955300	-8.875000	28.232814	0.000240	20.811540
2534.803484	-3.009000	2.953100	-8.884400	28.234519	0.000239	20.802351
2535.807499	-3.005200	2.952600	-8.872300	28.263463	0.000240	20.818215
2536.782484	-2.982600	2.951300	-8.801000	28.301024	0.000239	20.809092
2537.801485	-2.997700	2.948800	-8.839100	28.324008	0.000241	20.815164
2538.803484	-3.008500	2.947400	-8.867000	28.358129	0.000241	20.815855
2539.793487	-3.010400	2.945700	-8.866800	28.401961	0.000238	20.795033
2540.766483	-3.008700	2.944200	-8.856700	28.444529	0.000239	20.813242
2541.764483	-2.999200	2.943700	-8.827300	28.435901	0.000241	20.817829
2542.765487	-3.002600	2.941000	-8.829200	28.448271	0.000241	20.793776
2543.765481	-3.032100	2.938000	-8.907200	28.450713	0.000242	20.810934
2544.796485	-3.012300	2.937200	-8.846700	28.451808	0.000240	20.810140
2545.804485	-3.019400	2.935800	-8.863200	28.442237	0.000240	20.824210
2546.798483	-2.980500	2.936100	-8.750100	28.460513	0.000240	20.803259
2547.811485	-2.996900	2.933400	-8.789900	28.447774	0.000240	20.813190
2548.787483	-3.004500	2.931200	-8.805700	28.435225	0.000241	20.809563
2549.817485	-3.005200	2.930500	-8.805000	28.386496	0.000238	20.791788
2550.814485	-3.007600	2.928400	-8.806600	28.335423	0.000237	20.805795
2551.781486	-3.003100	2.926900	-8.789200	28.308187	0.000241	20.799234
2552.767485	-2.982200	2.926300	-8.723800	28.292175	0.000239	20.794967
2553.766485	-3.011800	2.923500	-8.803900	28.289426	0.000242	20.792199
2554.781498	-3.002300	2.921800	-8.770900	28.320124	0.000238	20.807461
2555.785787	-3.002300	2.920800	-8.768300	28.368361	0.000238	20.812408
2556.811828	-3.001100	2.919200	-8.758800	28.420070	0.000239	20.804259
2557.803875	-3.014600	2.917100	-8.793200	28.420285	0.000239	20.796415
2558.797867	-3.008700	2.915700	-8.771300	28.371263	0.000239	20.798734
2559.796215	-3.024500	2.913100	-8.809900	28.329542	0.000239	20.789443
2560.822243	-3.023400	2.911300	-8.801100	28.291095	0.000240	20.791508
2561.771240	-2.991900	2.910600	-8.707200	28.265690	0.000238	20.806232
2562.791240	-2.985700	2.908700	-8.683900	28.235816	0.000237	20.802233
2563.767241	-3.016900	2.906000	-8.765600	28.210307	0.000239	20.787932
2564.775564	-3.007400	2.906000	-8.738300	28.174437	0.000239	20.804450
2565.766565	-3.027200	2.902600	-8.785500	28.165006	0.000239	20.798749
2566.766593	-3.027500	2.901100	-8.781700	28.193239	0.000240	20.806784
2567.797592	-3.003200	2.901400	-8.711700	28.221891	0.000240	20.796749
2568.818594	-3.015700	2.898700	-8.740800	28.268325	0.000239	20.810783
2569.769593	-2.986600	2.898400	-8.655000	28.285202	0.000237	20.797903
2570.811590	-2.978800	2.896000	-8.625400	28.272677	0.000239	20.818009
2571.787595	-2.996000	2.893900	-8.669000	28.267230	0.000240	20.799249
2572.810589	-3.012600	2.891000	-8.707900	28.263908	0.000238	20.800171
2573.787108	-3.003500	2.891000	-8.682800	28.300272	0.000238	20.805490
2574.770628	-3.021000	2.888800	-8.726000	28.299954	0.000239	20.801851
2575.770628	-2.987100	2.887000	-8.623000	28.324238	0.000239	20.813025
2576.770630	-3.010800	2.883900	-8.681500	28.330396	0.000239	20.787458
2577.791630	-3.005000	2.883000	-8.661900	28.317452	0.000239	20.805718
2578.772987	-2.980400	2.881900	-8.588600	28.314181	0.000239	20.792942
2579.771003	-2.972600	2.880300	-8.560900	28.322022	0.000240	20.793250
2580.789020	-2.986700	2.878100	-8.594400	28.358713	0.000240	20.810754
2581.772242	-2.988700	2.874600	-8.590300	28.321358	0.000239	20.787366
2582.788243	-2.987100	2.873400	-8.582400	28.347488	0.000237	20.793762
2583.775798	-3.009000	2.872700	-8.642700	28.377779	0.000239	20.805770
2584.817805	-3.010800	2.869800	-8.639500	28.412354	0.000238	20.786532
2585.772798	-3.007200	2.867500	-8.622200	28.444972	0.000241	20.797092
2586.773800	-3.004300	2.864000	-8.602800	28.497349	0.000237	20.789146
2587.812860	-3.002700	2.864000	-8.599500	28.518741	0.000239	20.787455
2588.772858	-3.024300	2.860300	-8.649400	28.557972	0.000238	20.814161
2589.791025	-3.011400	2.859400	-8.610200	28.570695	0.000238	20.792836
2590.773024	-3.018100	2.856300	-8.620100	28.544622	0.000239	20.801665
2591.807030	-2.964200	2.857400	-8.468000	28.540487	0.000241	20.798449
2592.806025	-3.000000	2.854000	-8.560800	28.502018	0.000239	20.775355
2593.773023	-2.992300	2.852600	-8.533800	28.456474	0.000240	20.791131
2594.791257	-2.998100	2.850400	-8.545400	28.405226	0.000238	20.790734
2595.790257	-2.995100	2.848500	-8.530700	28.369209	0.000239	20.788606
2596.774352	-2.969100	2.846400	-8.449500	28.336527	0.000237	20.799794
2597.773872	-3.028900	2.843200	-8.610800	28.314303	0.000242	20.803022
2598.773389	-3.002800	2.840800	-8.528800	28.299094	0.000238	20.779174
2599.795429	-2.962300	2.841100	-8.414400	28.344645	0.000239	20.782364
2600.791334	-3.013100	2.835700	-8.543900	28.377506	0.000237	20.792693
2601.778818	-2.997000	2.834500	-8.492400	28.400021	0.000238	20.802562
2602.779819	-3.015800	2.831500	-8.538500	28.456091	0.000238	20.802599
2603.775273	-2.992700	2.830500	-8.469700	28.471095	0.000239	20.784044
2604.790537	-2.990600	2.828200	-8.456900	28.518344	0.000238	20.794167
2605.779922	-3.017200	2.828000	-8.531300	28.560297	0.000237	20.810814
2606.776920	-3.018200	2.823700	-8.521900	28.584677	0.000241	20.777520
2607.774976	-3.020900	2.822400	-8.525100	28.578786	0.000237	20.784390
2608.795976	-2.984000	2.821600	-8.419200	28.602888	0.000239	20.813879
2609.774981	-3.027000	2.816500	-8.524800	28.569575	0.000240	20.797398
2610.814978	-3.021800	2.814000	-8.502100	28.558009	0.000239	20.823207
2611.810979	-3.004600	2.813300	-8.452300	28.577159	0.000239	20.772793
2612.825977	-3.002400	2.811800	-8.440400	28.596731	0.000237	20.814316
2613.775978	-2.988600	2.809200	-8.393400	28.580417	0.000237	20.803576
2614.774979	-3.014700	2.805200	-8.454600	28.579998	0.000239	20.814533
2615.775978	-3.007600	2.803700	-8.431800	28.607048	0.000239	20.808586
2616.801977	-2.985000	2.802000	-8.362700	28.656049	0.000236	20.812893
2617.808980	-3.001400	2.799100	-8.400700	28.672996	0.000240	20.803410
2618.775978	-2.980700	2.795900	-8.332600	28.689969	0.000238	20.786841
2619.800977	-2.999800	2.792900	-8.377400	28.659307	0.000238	20.831822
2620.828978	-2.988200	2.791400	-8.340400	28.649115	0.000236	20.816815
2621.776977	-2.997100	2.788300	-8.355600	28.647640	0.000239	20.816278
2622.811977	-3.027700	2.783400	-8.425100	28.700033	0.000238	20.813099
2623.774981	-2.985800	2.784600	-8.313500	28.707948	0.000237	20.834347
2624.825977	-3.002400	2.779000	-8.342300	28.764220	0.000239	20.819906
2625.776978	-3.028200	2.776400	-8.406700	28.778685	0.000237	20.822622
2626.805979	-2.996300	2.775400	-8.315100	28.774156	0.000237	20.801939
2627.776977	-3.029700	2.771500	-8.394800	28.746931	0.000240	20.802491
2628.777977	-2.985800	2.770000	-8.269800	28.679425	0.000236	20.814153
2629.804979	-3.003800	2.766300	-8.308000	28.622908	0.000239	20.801325
2630.800978	-3.008400	2.762600	-8.310400	28.572723	0.000237	20.823801
2631.778976	-2.976600	2.762200	-8.220700	28.551080	0.000238	20.835195
2632.812978	-2.967600	2.759200	-8.186400	28.494822	0.000236	20.813153
2633.803977	-2.970500	2.756400	-8.186700	28.470174	0.000238	20.814884
2634.777977	-3.035900	2.750000	-8.347300	28.471192	0.000239	20.815910
2635.776977	-2.995400	2.750100	-8.236300	28.475047	0.000240	20.815050
2636.778978	-3.004000	2.745500	-8.246600	28.462615	0.000239	20.800634
2637.799986	-2.992900	2.742900	-8.208300	28.454114	0.000238	20.806298
2638.820977	-2.977100	2.739300	-8.153900	28.440510	0.000237	20.815833
2639.779977	-3.000000	2.736000	-8.207000	28.485916	0.000238	20.826469
2640.778976	-3.029000	2.732300	-8.275200	28.538623	0.000239	20.812693
2641.816977	-3.043200	2.729700	-8.305900	28.596773	0.000238	20.815781
2642.835977	-2.991100	2.726600	-8.154100	28.619141	0.000238	20.802748
2643.795978	-2.992600	2.724000	-8.150300	28.575624	0.000238	20.832887
2644.778976	-3.030400	2.719500	-8.240200	28.548179	0.000239	20.828006
2645.806977	-2.995700	2.716500	-8.137000	28.514572	0.000238	20.815972
2646.800979	-3.004000	2.712200	-8.146300	28.460870	0.000240	20.823533
2647.778981	-3.015600	2.708800	-8.167700	28.402826	0.000239	20.830042
2648.805052	-3.023400	2.705700	-8.179700	28.376114	0.000237	20.820214
2649.814051	-2.994500	2.702700	-8.091300	28.391817	0.000238	20.838397
2650.823127	-2.974700	2.699100	-8.027800	28.425173	0.000239	20.818880
2651.821964	-2.994100	2.696000	-8.071200	28.464254	0.000239	20.830260
2652.802755	-2.998100	2.691800	-8.069200	28.500954	0.000239	20.830708
2653.801973	-2.999900	2.687400	-8.060600	28.572442	0.000240	20.846751
2654.831080	-2.992000	2.686200	-8.036000	28.637984	0.000238	20.838320
2655.823085	-3.008300	2.681800	-8.066800	28.702084	0.000238	20.850724
2656.815693	-2.982300	2.678100	-7.986000	28.768289	0.000239	20.822108
2657.824028	-2.976000	2.672100	-7.951000	28.841809	0.000237	20.826941
2658.828085	-3.015300	2.668400	-8.045300	28.907498	0.000237	20.836218
2659.814953	-2.975100	2.665500	-7.929000	28.925256	0.000239	20.854580
2660.826368	-3.007300	2.660700	-8.000600	28.889727	0.000238	20.821633
2661.815329	-2.982400	2.657800	-7.925700	28.846133	0.000238	20.841727
2662.797527	-2.987700	2.653500	-7.926800	28.862581	0.000238	20.871572
2663.810977	-3.006100	2.649600	-7.963600	28.852913	0.000238	20.846186
2664.786980	-2.995700	2.645500	-7.923500	28.849771	0.000240	20.820262
2665.782561	-2.992200	2.639500	-7.896900	28.830065	0.000239	20.839765
2666.782557	-2.983900	2.637000	-7.867100	28.868686	0.000240	20.829360
2667.783561	-2.979100	2.633200	-7.843800	28.888366	0.000238	20.840650
2668.787076	-2.987800	2.627100	-7.848100	28.900169	0.000238	20.844955
2669.787079	-3.018700	2.622600	-7.915500	28.889548	0.000238	20.846583
2670.783592	-3.022900	2.616300	-7.908000	28.899903	0.000239	20.854643
2671.787592	-2.980600	2.612100	-7.784800	28.939207	0.000238	20.844929
2672.809593	-2.983100	2.607600	-7.778100	28.913552	0.000238	20.841841
2673.822594	-3.003300	2.602100	-7.814000	28.870353	0.000239	20.850005
2674.784594	-3.014400	2.596800	-7.826400	28.821413	0.000240	20.859973
2675.784595	-3.012400	2.591900	-7.807200	28.807216	0.000239	20.881705
2676.811592	-2.993300	2.587300	-7.743500	28.796226	0.000239	20.853092
2677.786591	-3.012500	2.580000	-7.770600	28.829605	0.000238	20.859690
2678.787594	-2.975100	2.576500	-7.663600	28.847925	0.000237	20.850170
2679.788592	-2.979800	2.570600	-7.658600	28.862757	0.000239	20.844249
2680.806592	-3.007700	2.564100	-7.710700	28.848892	0.000238	20.825541
2681.786911	-3.019300	2.559500	-7.726700	28.843612	0.000239	20.843455
2682.787424	-3.009000	2.554600	-7.685800	28.825471	0.000240	20.870223
2683.789174	-3.010200	2.549600	-7.673900	28.781860	0.000237	20.844312
2684.786858	-3.018100	2.543100	-7.674700	28.783911	0.000240	20.848274
2685.814407	-3.015200	2.536600	-7.646200	28.824873	0.000239	20.855397
2686.812833	-3.000800	2.529800	-7.589800	28.839731	0.000240	20.844760
2687.837296	-3.001700	2.524500	-7.577100	28.861586	0.000239	20.858242
2688.816945	-2.992200	2.518700	-7.535400	28.892814	0.000239	20.827115
2689.812457	-3.028600	2.512000	-7.606500	28.896324	0.000239	20.879960
2690.813459	-2.996700	2.506800	-7.511200	28.916475	0.000238	20.865648
2691.807452	-2.982600	2.501300	-7.459200	28.908091	0.000239	20.861469
2692.836452	-3.035300	2.493600	-7.567100	28.854092	0.000240	20.870606
