LabVIEW Measurement	
Writer_Version	2
Reader_Version	2
Separator	Tab
Decimal_Separator	.
Multi_Headings	No
X_Columns	One
Time_Pref	Absolute
Operator	admin
Description	Clolumns are: time, Current, Voltage, Power, Battery Temp, and Chamber Temp
Date	2024/08/16
Time	13:06:06.104549407958984375
***End_of_Header***	
	
Channels	6						
Samples	1	1	1	1	1	1	
Date	2024/08/23	2024/08/23	2024/08/23	2024/08/23	2024/08/23	2024/08/23	
Time	10:04:40.3810358047485351562	10:04:40.3860349655151367187	10:04:40.3915433883666992187	10:04:40.3638901710510253906	10:04:40.3638901710510253906	10:04:40.3638901710510253906	
X_Dimension	Time	Time	Time	Time	Time	Time	
X0	0.0000000000000000E+0	0.0000000000000000E+0	0.0000000000000000E+0	0.0000000000000000E+0	0.0000000000000000E+0	0.0000000000000000E+0	
Delta_X	1.000000	1.000000	1.000000	1.000000	1.000000	1.000000	
***End_of_Header***							
X_Value	Untitled	Untitled 1	Untitled 2	Untitled 3	Untitled 4	Untitled 5	Comment
0.000000	-0.005309	4.105000	-0.021934	21.071142	0.000981	20.871553
1.010686	-2.987700	3.949900	-11.800000	21.065678	0.000979	20.885054
2.001823	-3.015500	3.943700	-11.892000	21.061686	0.000980	20.898128
3.008886	-3.013500	3.936800	-11.862000	21.078751	0.000978	20.878689
4.016082	-2.982600	3.935400	-11.734000	21.079224	0.000977	20.882481
5.011543	-3.003500	3.931400	-11.807000	21.091349	0.000976	20.887497
6.011900	-3.001500	3.928200	-11.789000	21.087382	0.000976	20.887796
7.004374	-2.991000	3.924400	-11.737000	21.072586	0.000977	20.889118
7.999678	-2.989500	3.923200	-11.727000	21.094342	0.000975	20.897128
8.998026	-3.008500	3.921800	-11.798000	21.082291	0.000972	20.883652
10.000938	-3.015700	3.919700	-11.820000	21.089950	0.000973	20.896054
11.011047	-3.001600	3.918800	-11.761000	21.088079	0.000971	20.894182
12.013337	-3.004200	3.916600	-11.765000	21.086581	0.000973	20.919709
13.012330	-3.004600	3.915300	-11.763000	21.092419	0.000972	20.891885
14.012221	-3.004500	3.915100	-11.761000	21.115421	0.000971	20.870799
15.004184	-2.995900	3.913000	-11.722000	21.109758	0.000969	20.913020
16.012970	-3.005300	3.911400	-11.754000	21.093665	0.000969	20.901666
17.009911	-3.001900	3.911100	-11.740000	21.125798	0.000969	20.905359
18.019581	-3.002700	3.910900	-11.742000	21.126247	0.000970	20.896325
19.011734	-2.991500	3.910400	-11.696000	21.111876	0.000969	20.912769
20.013812	-3.001400	3.907500	-11.726000	21.122180	0.000967	20.917385
21.005578	-2.991000	3.906400	-11.681000	21.144883	0.000968	20.884147
22.017880	-2.973100	3.906300	-11.612000	21.134004	0.000969	20.913566
23.015617	-2.965200	3.906800	-11.583000	21.137123	0.000965	20.930434
24.011652	-3.013600	3.904800	-11.766000	21.139543	0.000966	20.906304
25.026820	-3.000800	3.904300	-11.714000	21.154811	0.000965	20.930109
26.007308	-2.995800	3.903400	-11.693000	21.166436	0.000962	20.927988
27.015880	-2.986700	3.902200	-11.654000	21.185121	0.000963	20.892629
28.010998	-3.002500	3.902400	-11.717000	21.158826	0.000963	20.917532
29.022075	-3.004200	3.901200	-11.719000	21.166760	0.000961	20.919778
30.013920	-3.008200	3.900700	-11.733000	21.169853	0.000963	20.890158
31.012910	-3.019600	3.900100	-11.776000	21.188089	0.000962	20.892753
32.022468	-2.996800	3.898900	-11.683000	21.186019	0.000960	20.922922
33.032524	-3.001300	3.899700	-11.702000	21.187714	0.000958	20.931729
34.029814	-3.018300	3.897100	-11.761000	21.210790	0.000960	20.896496
35.015033	-2.989100	3.897400	-11.649000	21.213883	0.000959	20.911917
36.010496	-2.975300	3.896400	-11.592000	21.209268	0.000960	20.930057
37.027638	-3.011200	3.896600	-11.733000	21.220743	0.000958	20.935372
38.018977	-3.003700	3.896100	-11.702000	21.214231	0.000960	20.934548
39.016975	-2.972400	3.895500	-11.578000	21.229449	0.000958	20.898566
40.021831	-3.000200	3.896300	-11.688000	21.212161	0.000955	20.924417
41.012385	-2.992000	3.894300	-11.650000	21.246412	0.000957	20.930230
42.020623	-3.026400	3.892200	-11.779000	21.246436	0.000957	20.939263
43.031773	-3.009700	3.893400	-11.716000	21.241597	0.000956	20.934896
44.011484	-3.012300	3.893500	-11.726000	21.245413	0.000953	20.913587
45.025614	-3.008100	3.893000	-11.709000	21.271357	0.000954	20.927685
46.031895	-2.990800	3.892800	-11.642000	21.259657	0.000957	20.926412
47.023479	-3.007000	3.892700	-11.703000	21.275996	0.000956	20.915258
48.018710	-2.993300	3.892100	-11.649000	21.267141	0.000955	20.928683
49.022311	-2.991500	3.890600	-11.638000	21.299120	0.000955	20.938389
50.021216	-2.990300	3.889400	-11.628000	21.294006	0.000954	20.922369
51.015797	-2.984300	3.891400	-11.612000	21.301614	0.000954	20.931876
52.021278	-3.020100	3.889400	-11.745000	21.301763	0.000953	20.927759
53.016722	-3.023400	3.888300	-11.755000	21.305305	0.000952	20.927035
54.032191	-3.006700	3.888700	-11.691000	21.314809	0.000953	20.932274
55.028385	-3.007300	3.888500	-11.693000	21.332719	0.000952	20.932175
56.028816	-2.974800	3.889800	-11.570000	21.337882	0.000953	20.937814
57.019642	-2.990700	3.888300	-11.626000	21.339303	0.000953	20.933072
58.014637	-2.994700	3.887100	-11.639000	21.349804	0.000953	20.944051
59.029659	-3.008100	3.885800	-11.687000	21.347459	0.000951	20.940757
60.024798	-2.983200	3.888800	-11.601000	21.370033	0.000953	20.944375
61.032550	-3.024100	3.886300	-11.751000	21.367962	0.000950	20.933770
62.021087	-2.994100	3.886800	-11.637000	21.356339	0.000952	20.962440
63.017334	-3.004600	3.886800	-11.677000	21.394227	0.000953	20.956252
64.027363	-2.985600	3.887000	-11.603000	21.403405	0.000951	20.924662
65.026079	-3.008400	3.885900	-11.690000	21.387342	0.000951	20.963113
66.017894	-3.007400	3.885100	-11.683000	21.394551	0.000948	20.933819
67.027469	-2.994400	3.884200	-11.630000	21.417647	0.000949	20.952183
68.021650	-2.980400	3.885100	-11.577000	21.414254	0.000950	20.953057
69.014427	-2.987400	3.885800	-11.608000	21.431514	0.000953	20.951834
70.023920	-3.002700	3.884900	-11.664000	21.414578	0.000949	20.969974
71.037479	-2.981700	3.885200	-11.582000	21.436577	0.000950	20.960692
72.021324	-2.990300	3.883700	-11.612000	21.429294	0.000947	20.968576
73.028172	-3.020700	3.882600	-11.726000	21.447850	0.000950	20.950635
74.038311	-3.005600	3.884200	-11.673000	21.446453	0.000948	20.961090
75.039962	-2.971600	3.883300	-11.539000	21.467953	0.000949	20.966480
76.031930	-3.003100	3.882000	-11.656000	21.461518	0.000950	20.951983
77.018533	-2.994300	3.881800	-11.623000	21.465433	0.000949	20.956848
78.022853	-2.994200	3.882200	-11.623000	21.480622	0.000949	20.956873
79.022665	-2.987000	3.882000	-11.595000	21.484638	0.000949	20.965631
80.036866	-3.018000	3.880700	-11.712000	21.485560	0.000950	20.966554
81.030231	-3.008200	3.881900	-11.675000	21.501647	0.000949	20.958470
82.038755	-3.001400	3.880800	-11.647000	21.501023	0.000949	20.957371
83.038311	-3.012400	3.880400	-11.688000	21.526986	0.000949	20.972917
84.037026	-2.992300	3.879700	-11.608000	21.517059	0.000949	20.950185
85.027035	-2.985400	3.882200	-11.588000	21.541425	0.000949	20.961289
86.040125	-2.990800	3.882100	-11.610000	21.519204	0.000949	20.972243
87.032007	-2.997200	3.880100	-11.629000	21.537036	0.000948	20.964957
88.023573	-2.983900	3.880700	-11.578000	21.559506	0.000948	20.969423
89.021985	-3.006700	3.878900	-11.662000	21.549904	0.000950	20.972617
90.021913	-3.001600	3.878700	-11.642000	21.577512	0.000948	20.974638
91.033407	-3.011300	3.878700	-11.679000	21.589856	0.000951	20.965655
92.029664	-2.988700	3.880100	-11.596000	21.581925	0.000948	20.956297
93.037013	-3.003100	3.878700	-11.648000	21.569381	0.000950	20.966503
94.030658	-3.019900	3.877300	-11.708000	21.581202	0.000949	20.974063
95.030715	-3.022900	3.876900	-11.718000	21.577162	0.000949	20.967651
96.033062	-2.992700	3.878900	-11.606000	21.588758	0.000950	20.972615
97.030236	-2.995200	3.877800	-11.614000	21.597985	0.000949	20.958617
98.031232	-3.015600	3.878400	-11.694000	21.600229	0.000950	20.967026
99.034127	-2.997000	3.879000	-11.625000	21.614019	0.000949	20.977979
100.032891	-3.016700	3.877600	-11.696000	21.629007	0.000950	20.962634
101.038257	-3.002700	3.877100	-11.641000	21.613620	0.000951	20.975684
102.029313	-2.989400	3.878100	-11.592000	21.643720	0.000949	20.981622
103.040903	-3.018400	3.874700	-11.694000	21.632597	0.000949	20.952004
104.030813	-2.987700	3.877200	-11.583000	21.636039	0.000949	20.957818
105.027331	-3.010600	3.876100	-11.668000	21.636886	0.000947	20.956769
106.039754	-3.000000	3.875500	-11.625000	21.650327	0.000949	20.967374
107.037455	-3.000500	3.876100	-11.629000	21.640053	0.000949	20.968945
108.033059	-2.993500	3.877000	-11.605000	21.650576	0.000949	20.947711
109.036476	-3.002700	3.876400	-11.639000	21.659628	0.000950	20.964828
110.032401	-3.001700	3.875600	-11.632000	21.672869	0.000951	20.953425
111.027587	-3.002100	3.873900	-11.629000	21.670251	0.000948	20.962183
112.036370	-3.023500	3.875200	-11.716000	21.683766	0.000948	20.948683
113.031098	-2.985100	3.874700	-11.566000	21.696134	0.000949	20.942570
114.034463	-2.981900	3.875200	-11.554000	21.699775	0.000948	20.960436
115.028440	-3.013500	3.872500	-11.669000	21.725483	0.000949	20.939226
116.034003	-3.008800	3.874400	-11.657000	21.725832	0.000949	20.941946
117.038173	-2.991200	3.873200	-11.584000	21.730171	0.000949	20.952451
118.049746	-3.002800	3.874300	-11.634000	21.727228	0.000948	20.943817
119.041286	-3.004500	3.873700	-11.638000	21.718127	0.000950	20.943243
120.040827	-2.986500	3.874400	-11.570000	21.736978	0.000949	20.956892
121.042188	-3.011600	3.871500	-11.659000	21.730694	0.000951	20.960086
122.035110	-2.994100	3.872800	-11.593000	21.749171	0.000949	20.950603
123.039421	-3.020400	3.872200	-11.695000	21.753235	0.000949	20.944240
124.048371	-2.999800	3.873200	-11.616000	21.747649	0.000950	20.953822
125.025128	-2.981700	3.871900	-11.543000	21.755404	0.000949	20.947833
126.033335	-2.995100	3.872100	-11.597000	21.744906	0.000948	20.934484
127.060755	-2.990100	3.871400	-11.575000	21.774279	0.000950	20.940647
128.041613	-3.003500	3.872900	-11.631000	21.761737	0.000951	20.937104
129.042533	-2.987600	3.871800	-11.566000	21.773431	0.000950	20.951651
130.029959	-2.990900	3.872000	-11.579000	21.792231	0.000948	20.942493
131.033340	-3.015700	3.871800	-11.676000	21.789214	0.000951	20.926673
132.031404	-2.980600	3.872600	-11.541000	21.791259	0.000951	20.935356
133.037582	-2.997300	3.871500	-11.603000	21.797442	0.000951	20.939648
134.039782	-3.016800	3.870800	-11.677000	21.791209	0.000951	20.938625
135.033885	-3.002400	3.869100	-11.616000	21.800285	0.000951	20.930640
136.042034	-2.987500	3.870500	-11.562000	21.800185	0.000950	20.931014
137.040919	-2.999200	3.870500	-11.608000	21.802429	0.000952	20.925675
138.041745	-3.017200	3.870100	-11.676000	21.824220	0.000951	20.927096
139.040130	-2.988000	3.869100	-11.559000	21.818810	0.000952	20.928319
140.039308	-3.015300	3.868700	-11.664000	21.815219	0.000952	20.935630
141.034263	-3.000400	3.869100	-11.608000	21.832747	0.000952	20.926148
142.052990	-3.005000	3.869100	-11.626000	21.837584	0.000952	20.951375
143.044176	-3.017400	3.866800	-11.666000	21.833071	0.000952	20.952548
144.042679	-2.992900	3.870400	-11.583000	21.862791	0.000952	20.953371
145.039427	-3.006500	3.869100	-11.631000	21.855461	0.000951	20.931338
146.036234	-3.018100	3.867900	-11.673000	21.839728	0.000952	20.925549
147.045177	-2.986700	3.868100	-11.552000	21.854463	0.000953	20.936503
148.043700	-3.005100	3.868100	-11.623000	21.862043	0.000953	20.923702
149.038910	-3.029800	3.867300	-11.715000	21.851920	0.000953	20.939647
150.040404	-2.997700	3.868800	-11.595000	21.887050	0.000954	20.937351
151.050244	-2.982900	3.866900	-11.533000	21.874235	0.000953	20.935430
152.041107	-2.990000	3.867300	-11.563000	21.890690	0.000954	20.931986
153.042243	-2.976100	3.866900	-11.507000	21.901510	0.000954	20.914370
154.050515	-3.002400	3.866900	-11.609000	21.908491	0.000956	20.944113
155.057481	-3.007600	3.867600	-11.631000	21.910884	0.000956	20.937027
156.051053	-3.006800	3.866400	-11.624000	21.916070	0.000954	20.919460
157.068581	-2.999200	3.867000	-11.597000	21.934843	0.000956	20.936353
158.046504	-3.024300	3.863700	-11.684000	21.941275	0.000956	20.930464
159.037401	-3.004300	3.867000	-11.617000	21.941349	0.000957	20.932435
160.041178	-2.977500	3.865500	-11.509000	21.942297	0.000958	20.924850
161.038647	-3.001800	3.866500	-11.605000	21.920931	0.000958	20.933333
162.041370	-2.997300	3.867200	-11.589000	21.923898	0.000960	20.921606
163.058902	-2.996900	3.866500	-11.586000	21.942047	0.000958	20.927919
164.043071	-3.027300	3.864800	-11.699000	21.944291	0.000959	20.937750
165.057211	-2.992700	3.864600	-11.565000	21.928161	0.000959	20.923976
166.046900	-3.002100	3.865700	-11.603000	21.947058	0.000958	20.912547
167.046063	-3.008500	3.863900	-11.624000	21.942720	0.000961	20.922903
168.045185	-3.007300	3.863700	-11.619000	21.947382	0.000960	20.923302
169.052670	-3.016900	3.864400	-11.657000	21.969146	0.000960	20.928018
170.043032	-3.001000	3.865000	-11.598000	21.953789	0.000961	20.902691
171.042939	-2.989600	3.863900	-11.551000	21.976376	0.000960	20.923876
172.049427	-2.987900	3.864400	-11.546000	21.967152	0.000962	20.927444
173.051502	-3.008800	3.863900	-11.624000	21.977423	0.000962	20.927294
174.054470	-2.981200	3.863500	-11.517000	22.006017	0.000961	20.897126
175.050416	-3.005000	3.862900	-11.607000	22.001430	0.000961	20.915766
176.053019	-2.987200	3.861200	-11.532000	22.014119	0.000961	20.903339
177.046462	-2.999900	3.861500	-11.583000	22.033962	0.000962	20.914194
178.054879	-2.986000	3.863100	-11.534000	22.022096	0.000962	20.914643
179.053044	-3.009400	3.861700	-11.621000	22.052409	0.000963	20.906583
180.060159	-3.018500	3.860500	-11.652000	22.039023	0.000962	20.905036
181.051542	-2.990600	3.862500	-11.550000	22.041864	0.000963	20.898872
182.046042	-2.974800	3.863400	-11.491000	22.057569	0.000963	20.911274
183.056083	-3.004100	3.860300	-11.596000	22.041391	0.000965	20.904088
184.048295	-2.999200	3.860900	-11.578000	22.032940	0.000965	20.910326
185.056360	-2.980800	3.860800	-11.507000	22.051736	0.000963	20.896901
186.063222	-3.015600	3.861200	-11.643000	22.053007	0.000966	20.930887
187.052099	-3.004000	3.860800	-11.597000	22.040767	0.000965	20.901567
188.052362	-2.999500	3.860000	-11.577000	22.060062	0.000964	20.894805
189.042894	-3.003000	3.861900	-11.596000	22.091521	0.000966	20.920132
190.053722	-3.016300	3.859300	-11.640000	22.081674	0.000966	20.912172
191.051966	-2.959400	3.862700	-11.430000	22.099422	0.000967	20.921405
192.059263	-2.984300	3.860100	-11.519000	22.109318	0.000968	20.900494
193.045347	-2.990700	3.860800	-11.545000	22.119165	0.000968	20.896601
194.046780	-2.984400	3.860300	-11.519000	22.114578	0.000968	20.889165
195.050373	-2.998100	3.859800	-11.571000	22.110964	0.000967	20.899296
196.057070	-2.995800	3.858700	-11.559000	22.116074	0.000968	20.890188
197.059106	-2.983500	3.858500	-11.510000	22.134444	0.000966	20.926121
198.058362	-2.984900	3.860800	-11.523000	22.144066	0.000969	20.917262
199.053721	-3.008600	3.857400	-11.604000	22.126194	0.000969	20.909327
200.046038	-2.990700	3.858500	-11.538000	22.155258	0.000968	20.886745
201.064075	-3.014900	3.857500	-11.628000	22.188060	0.000968	20.900145
202.057722	-3.009100	3.858600	-11.610000	22.168294	0.000967	20.893158
203.051206	-3.014500	3.858600	-11.630000	22.179012	0.000971	20.886819
204.060868	-2.980600	3.857100	-11.495000	22.192173	0.000969	20.903314
205.066224	-2.994700	3.858600	-11.554000	22.212536	0.000969	20.904736
206.061050	-3.005900	3.857900	-11.594000	22.192945	0.000969	20.897450
207.053776	-2.994300	3.856400	-11.546000	22.213957	0.000973	20.891935
208.065155	-2.989200	3.857800	-11.530000	22.212611	0.000971	20.905759
209.057941	-3.008500	3.856900	-11.602000	22.237560	0.000972	20.905609
210.067159	-2.994500	3.857200	-11.549000	22.219964	0.000972	20.907905
211.066391	-3.006400	3.855800	-11.591000	22.224226	0.000972	20.902690
212.072546	-3.006400	3.854800	-11.588000	22.206056	0.000973	20.879758
213.051698	-2.969200	3.856500	-11.449000	22.222656	0.000973	20.906807
214.058515	-3.016400	3.854900	-11.626000	22.220039	0.000975	20.908454
215.063798	-2.997400	3.855700	-11.556000	22.208748	0.000973	20.913744
216.062169	-3.002800	3.854700	-11.574000	22.223254	0.000974	20.887019
217.072203	-2.998400	3.855900	-11.560000	22.240202	0.000977	20.903039
218.066545	-2.983100	3.854300	-11.497000	22.213284	0.000976	20.911174
219.069746	-2.993500	3.855300	-11.539000	22.220238	0.000976	20.876414
220.066334	-2.998000	3.855500	-11.558000	22.234046	0.000977	20.900194
221.079463	-3.002000	3.854400	-11.569000	22.229959	0.000976	20.881879
222.077966	-3.016800	3.854200	-11.627000	22.239455	0.000977	20.880007
223.071626	-3.007300	3.853300	-11.586000	22.258023	0.000978	20.868254
224.080219	-3.013100	3.854200	-11.611000	22.259668	0.000979	20.890762
225.065982	-3.005600	3.853100	-11.580000	22.263905	0.000979	20.883151
226.084836	-2.978300	3.853700	-11.476000	22.290498	0.000978	20.884174
227.076390	-3.011200	3.852500	-11.599000	22.262385	0.000980	20.864087
228.069357	-2.998800	3.853300	-11.555000	22.263207	0.000981	20.897624
229.070899	-2.988500	3.852300	-11.511000	22.266771	0.000979	20.900718
230.069257	-3.002500	3.851400	-11.562000	22.304081	0.000982	20.901093
231.067984	-2.992700	3.853100	-11.530000	22.309240	0.000981	20.882078
232.063274	-2.993600	3.854200	-11.537000	22.317165	0.000981	20.872945
233.082719	-3.000600	3.851500	-11.557000	22.310636	0.000984	20.870674
234.074155	-3.020200	3.851500	-11.631000	22.315869	0.000980	20.880182
235.069011	-2.993200	3.851100	-11.526000	22.322075	0.000982	20.881180
236.077720	-2.993500	3.851400	-11.528000	22.327807	0.000983	20.877437
237.069625	-2.981700	3.852900	-11.486000	22.321502	0.000983	20.877761
238.075671	-2.980000	3.850600	-11.473000	22.328779	0.000985	20.864186
239.080167	-2.982600	3.851500	-11.487000	22.351857	0.000986	20.881130
240.069000	-3.000100	3.851900	-11.554000	22.382759	0.000985	20.876514
241.077419	-2.997400	3.850000	-11.538000	22.345801	0.000986	20.876015
242.071845	-2.996800	3.851500	-11.541000	22.395120	0.000987	20.880831
243.074246	-2.996200	3.850100	-11.534000	22.398335	0.000987	20.870300
244.073883	-2.970500	3.852200	-11.443000	22.399705	0.000989	20.882103
245.085764	-3.014900	3.849800	-11.605000	22.391905	0.000988	20.872870
246.079656	-3.010600	3.848500	-11.585000	22.357788	0.000991	20.875216
247.082525	-2.996000	3.849200	-11.530000	22.362748	0.000992	20.879708
248.075175	-2.990500	3.849900	-11.512000	22.391482	0.000989	20.880032
249.080017	-2.996500	3.847900	-11.529000	22.400927	0.000991	20.872895
250.070011	-3.011500	3.848700	-11.588000	22.413038	0.000990	20.877437
251.080095	-2.999100	3.850100	-11.546000	22.430532	0.000990	20.879308
252.081531	-2.998300	3.848200	-11.537000	22.417897	0.000991	20.857648
253.073247	-2.989700	3.847900	-11.502000	22.408029	0.000991	20.859146
254.086344	-3.009700	3.846100	-11.574000	22.421361	0.000992	20.868703
255.091297	-2.982700	3.848000	-11.477000	22.397687	0.000991	20.849738
256.074803	-2.996500	3.847100	-11.526000	22.397662	0.000993	20.883850
257.083282	-3.009600	3.846300	-11.575000	22.442369	0.000994	20.851809
258.092650	-3.004600	3.845500	-11.554000	22.425299	0.000993	20.866956
259.077719	-3.020900	3.846300	-11.618000	22.432800	0.000994	20.865933
260.088842	-3.025500	3.845700	-11.632000	22.470179	0.000993	20.869701
261.081206	-2.994600	3.847000	-11.519000	22.455601	0.000995	20.847991
262.093609	-2.997300	3.846700	-11.528000	22.458591	0.000994	20.853356
263.079463	-2.998100	3.847500	-11.535000	22.451240	0.000995	20.858322
264.089662	-2.995400	3.845300	-11.517000	22.460161	0.000996	20.877212
265.082377	-3.002400	3.845100	-11.544000	22.476583	0.000997	20.865210
266.093678	-2.983600	3.845200	-11.471000	22.464522	0.000996	20.867356
267.073357	-3.008400	3.844800	-11.565000	22.490762	0.000996	20.874193
268.090948	-2.992500	3.844400	-11.502000	22.478402	0.000998	20.865135
269.086107	-3.025300	3.843800	-11.628000	22.481965	0.001001	20.845471
270.090208	-3.017900	3.842700	-11.595000	22.514708	0.001000	20.865933
271.089351	-3.004300	3.844600	-11.549000	22.520863	0.001001	20.867830
272.091402	-3.012200	3.844500	-11.579000	22.523355	0.001001	20.846145
273.086611	-3.000500	3.843700	-11.532000	22.526071	0.000999	20.863563
274.094300	-3.012300	3.843700	-11.577000	22.517674	0.001000	20.851834
275.096725	-2.992800	3.843000	-11.501000	22.517175	0.001002	20.847068
276.083427	-2.988200	3.843500	-11.484000	22.516951	0.001002	20.860593
277.089084	-2.994600	3.844500	-11.511000	22.505912	0.001002	20.848590
278.098702	-3.000900	3.841400	-11.527000	22.498985	0.001002	20.857774
279.083472	-2.976200	3.843000	-11.436000	22.526096	0.001002	20.864062
280.076881	-3.011900	3.841500	-11.569000	22.505638	0.001004	20.853532
281.071945	-3.005800	3.842000	-11.546000	22.524227	0.001004	20.847493
282.074612	-2.998900	3.842000	-11.521000	22.510173	0.001004	20.853332
283.070270	-2.981100	3.842600	-11.454000	22.522657	0.001004	20.824584
284.088511	-3.015600	3.840900	-11.581000	22.533472	0.001004	20.847268
285.076991	-2.995800	3.840900	-11.506000	22.535640	0.001004	20.850861
286.073219	-3.005600	3.841400	-11.545000	22.568954	0.001006	20.849140
287.074955	-3.005900	3.840400	-11.543000	22.549344	0.001007	20.850362
288.079355	-2.995400	3.841700	-11.506000	22.573539	0.001007	20.834766
289.072064	-2.994700	3.843000	-11.508000	22.562700	0.001007	20.839557
290.074907	-2.998700	3.840300	-11.514000	22.577824	0.001009	20.857075
291.078058	-2.980800	3.841200	-11.448000	22.597284	0.001010	20.843849
292.072295	-2.996700	3.840500	-11.508000	22.585897	0.001010	20.837661
293.087472	-2.989500	3.840900	-11.482000	22.578173	0.001009	20.831821
294.083634	-3.020100	3.838100	-11.590000	22.607923	0.001012	20.834591
295.077002	-3.009300	3.840200	-11.554000	22.599003	0.001011	20.827080
296.096995	-3.004800	3.838100	-11.531000	22.600997	0.001011	20.838085
297.077405	-3.014000	3.839200	-11.570000	22.608098	0.001011	20.844723
298.073866	-2.991200	3.839600	-11.484000	22.602217	0.001011	20.852109
299.080060	-2.991800	3.838300	-11.483000	22.592126	0.001012	20.836787
300.077430	-3.001400	3.838600	-11.520000	22.614152	0.001012	20.851261
301.080129	-3.005900	3.837500	-11.534000	22.625265	0.001014	20.824934
302.074503	-3.004900	3.836800	-11.528000	22.648884	0.001016	20.838634
303.075151	-3.024000	3.837000	-11.601000	22.664033	0.001014	20.829151
304.077303	-3.008100	3.837000	-11.541000	22.642631	0.001016	20.833793
305.075447	-3.018900	3.835700	-11.577000	22.664755	0.001016	20.832245
306.098986	-3.027200	3.836300	-11.613000	22.643303	0.001016	20.841104
307.073219	-2.988300	3.836300	-11.463000	22.651675	0.001016	20.826256
308.086107	-2.982400	3.837200	-11.443000	22.660171	0.001017	20.847093
309.084198	-2.998300	3.838000	-11.507000	22.668094	0.001018	20.832270
310.084507	-2.993000	3.836400	-11.481000	22.654141	0.001018	20.823037
311.080993	-3.010900	3.836100	-11.549000	22.662612	0.001017	20.832944
312.077500	-2.998700	3.836300	-11.502000	22.661342	0.001019	20.820766
313.073303	-2.987000	3.836900	-11.460000	22.684164	0.001019	20.815176
314.090036	-2.985100	3.835700	-11.449000	22.692311	0.001018	20.821440
315.078404	-3.001900	3.836500	-11.515000	22.696396	0.001018	20.804670
316.075909	-2.988400	3.836300	-11.462000	22.712217	0.001021	20.840430
317.081433	-3.017000	3.834700	-11.569000	22.700208	0.001021	20.839782
318.082882	-3.021200	3.833600	-11.581000	22.713388	0.001022	20.840655
319.078674	-3.007100	3.835100	-11.531000	22.693008	0.001022	20.830673
320.080546	-3.008900	3.832700	-11.530000	22.699585	0.001021	20.820192
321.087156	-2.982800	3.833400	-11.433000	22.686505	0.001023	20.842177
322.084944	-2.986800	3.831900	-11.445000	22.690516	0.001024	20.828178
323.088052	-2.977000	3.834900	-11.415000	22.665801	0.001023	20.820492
324.087914	-3.020000	3.831500	-11.569000	22.674696	0.001025	20.822762
325.079904	-2.992900	3.833800	-11.473000	22.683042	0.001024	20.819743
326.090629	-2.965500	3.833500	-11.367000	22.686680	0.001024	20.828128
327.088235	-3.013700	3.831800	-11.547000	22.699386	0.001025	20.816673
328.092611	-2.991900	3.832100	-11.463000	22.698763	0.001024	20.819368
329.092878	-3.021200	3.829900	-11.570000	22.730104	0.001026	20.829899
330.106372	-3.001100	3.832200	-11.499000	22.737728	0.001026	20.834217
331.089598	-2.994100	3.832500	-11.474000	22.779108	0.001026	20.851959
332.091966	-2.984600	3.832600	-11.438000	22.775744	0.001026	20.815875
333.092025	-2.986100	3.832500	-11.443000	22.777937	0.001029	20.817597
334.087145	-2.999600	3.830800	-11.490000	22.772954	0.001030	20.823985
335.091059	-3.012900	3.831000	-11.540000	22.774823	0.001030	20.825857
336.084934	-3.004000	3.830500	-11.505000	22.798713	0.001031	20.825607
337.081978	-2.982200	3.830300	-11.422000	22.784588	0.001032	20.830898
338.081160	-3.009000	3.829000	-11.520000	22.797567	0.001030	20.797907
339.082970	-2.990200	3.830300	-11.453000	22.815877	0.001032	20.818146
340.080857	-2.988100	3.831300	-11.447000	22.818144	0.001032	20.823736
341.081209	-2.989800	3.829700	-11.449000	22.826764	0.001033	20.815301
342.096586	-3.013900	3.828300	-11.537000	22.819240	0.001034	20.816299
343.104068	-3.013300	3.828700	-11.536000	22.841561	0.001032	20.833917
344.089705	-3.006200	3.828500	-11.507000	22.857703	0.001035	20.812156
345.093481	-3.011300	3.827200	-11.524000	22.859546	0.001033	20.826805
346.095129	-2.976000	3.828100	-11.392000	22.871055	0.001035	20.827429
347.087924	-2.984500	3.828900	-11.426000	22.876136	0.001036	20.841054
348.090075	-2.994300	3.827600	-11.460000	22.872699	0.001034	20.812955
349.098563	-3.018300	3.827000	-11.550000	22.879997	0.001036	20.830698
350.106047	-2.980500	3.829200	-11.411000	22.874069	0.001036	20.821914
351.093431	-2.991900	3.826300	-11.446000	22.875613	0.001038	20.834366
352.104206	-3.012400	3.826500	-11.526000	22.890061	0.001036	20.834616
353.088490	-3.010200	3.826300	-11.517000	22.888243	0.001036	20.828053
354.091788	-3.007200	3.827200	-11.508000	22.923066	0.001038	20.838284
355.090014	-2.983400	3.825800	-11.413000	22.908195	0.001038	20.824809
356.098982	-2.987000	3.827400	-11.431000	22.927724	0.001040	20.819718
357.095454	-3.034300	3.823700	-11.601000	22.950117	0.001041	20.821764
358.103569	-2.994400	3.826200	-11.456000	22.939655	0.001040	20.821714
359.103091	-2.988300	3.825800	-11.432000	22.957963	0.001042	20.827729
360.097024	-2.996300	3.825300	-11.461000	22.941573	0.001041	20.839283
361.108016	-3.018400	3.822500	-11.537000	22.939880	0.001040	20.826206
362.090890	-2.992400	3.824100	-11.442000	22.941997	0.001041	20.815526
363.096168	-3.006800	3.823500	-11.495000	22.934998	0.001043	20.830798
364.104500	-3.009500	3.823700	-11.507000	22.921522	0.001043	20.820143
365.095071	-3.000000	3.823300	-11.469000	22.919106	0.001041	20.827205
366.093382	-3.011900	3.823000	-11.514000	22.940801	0.001042	20.838983
367.097619	-3.020400	3.822000	-11.543000	22.959308	0.001042	20.834766
368.099787	-3.006200	3.823300	-11.492000	22.952583	0.001044	20.841778
369.093040	-3.015900	3.823500	-11.530000	22.973630	0.001043	20.811184
370.102769	-3.015400	3.821400	-11.521000	22.956344	0.001042	20.826581
371.093821	-2.996700	3.822500	-11.454000	22.976146	0.001046	20.846420
372.107745	-3.029300	3.821200	-11.573000	22.984017	0.001046	20.830599
373.097402	-3.021500	3.820300	-11.542000	22.981153	0.001044	20.830574
374.107048	-2.994400	3.821700	-11.443000	22.979359	0.001047	20.839208
375.097910	-2.980000	3.820100	-11.382000	22.956519	0.001047	20.836713
376.101738	-2.985800	3.821900	-11.409000	22.966656	0.001047	20.833119
377.106647	-3.004800	3.821200	-11.479000	22.991788	0.001048	20.825583
378.100430	-2.992200	3.820000	-11.429000	22.987330	0.001047	20.851461
379.101666	-3.000800	3.818900	-11.459000	23.001627	0.001049	20.849664
380.101862	-3.024700	3.819500	-11.552000	22.983618	0.001050	20.831622
381.119145	-3.006100	3.819000	-11.479000	22.995200	0.001049	20.838484
382.114465	-2.985900	3.818900	-11.402000	22.987902	0.001050	20.833543
383.106165	-2.999500	3.818800	-11.454000	23.012137	0.001051	20.838385
384.099212	-2.992200	3.820200	-11.429000	23.013134	0.001051	20.848391
385.103717	-3.020800	3.818800	-11.534000	23.017741	0.001051	20.810335
386.106997	-3.012300	3.817100	-11.497000	23.019908	0.001053	20.832420
387.107168	-3.012200	3.818100	-11.499000	23.048202	0.001052	20.838484
388.111336	-2.995400	3.817500	-11.435000	23.042299	0.001052	20.838260
389.110010	-3.005200	3.816600	-11.469000	23.076794	0.001053	20.846270
390.109848	-2.996400	3.817500	-11.437000	23.069796	0.001056	20.830249
391.112582	-2.984400	3.816300	-11.388000	23.074104	0.001054	20.822239
392.108511	-2.978700	3.816700	-11.367000	23.079683	0.001054	20.841105
393.118643	-3.028000	3.815800	-11.553000	23.080505	0.001055	20.859945
394.113412	-3.013200	3.814200	-11.492000	23.073307	0.001056	20.848940
395.124282	-3.014100	3.815900	-11.500000	23.076919	0.001056	20.835490
396.106683	-3.022200	3.816200	-11.532000	23.085362	0.001057	20.843001
397.111582	-3.016300	3.815500	-11.508000	23.076446	0.001057	20.833119
398.103242	-3.027200	3.813400	-11.542000	23.111612	0.001054	20.835640
399.127660	-3.010900	3.813500	-11.481000	23.114301	0.001055	20.843550
400.110593	-3.001400	3.815000	-11.449000	23.106257	0.001059	20.853981
401.117810	-2.988100	3.814500	-11.396000	23.097914	0.001057	20.827604
402.110496	-3.008800	3.812800	-11.471000	23.083195	0.001058	20.862640
403.115369	-3.003900	3.815200	-11.459000	23.116344	0.001058	20.851286
404.111265	-2.993100	3.812600	-11.410000	23.126754	0.001058	20.859346
405.108399	-3.018200	3.812500	-11.505000	23.122918	0.001059	20.853133
406.112292	-2.989300	3.814200	-11.400000	23.139878	0.001058	20.868230
407.126959	-3.009800	3.813200	-11.475000	23.148047	0.001061	20.854605
408.126382	-3.018700	3.812700	-11.508000	23.163263	0.001061	20.846146
409.125337	-3.011800	3.811300	-11.478000	23.169539	0.001061	20.849115
410.120713	-3.014300	3.812100	-11.489000	23.158058	0.001060	20.869852
411.114403	-2.982000	3.811900	-11.366000	23.158980	0.001061	20.840431
412.116478	-3.018200	3.810700	-11.500000	23.161221	0.001061	20.857375
413.124172	-3.000500	3.812600	-11.439000	23.150861	0.001063	20.857425
414.122882	-3.017000	3.811800	-11.498000	23.171133	0.001064	20.838385
415.119017	-3.004700	3.810600	-11.449000	23.175889	0.001064	20.862591
416.116683	-2.999900	3.810300	-11.430000	23.154397	0.001063	20.869029
417.116165	-3.011300	3.811300	-11.475000	23.139654	0.001065	20.858049
418.123880	-3.013100	3.811000	-11.481000	23.164060	0.001066	20.867806
419.115344	-3.012400	3.810200	-11.476000	23.163861	0.001065	20.869029
420.133571	-2.995100	3.810100	-11.411000	23.170709	0.001065	20.864512
421.113005	-2.974300	3.810000	-11.331000	23.160798	0.001064	20.840831
422.118158	-3.001100	3.807800	-11.427000	23.177309	0.001066	20.846470
423.119512	-2.983400	3.809700	-11.364000	23.171307	0.001066	20.861792
424.121878	-3.015700	3.808000	-11.483000	23.203258	0.001067	20.844025
425.116206	-2.997300	3.807200	-11.410000	23.196733	0.001066	20.855978
426.130545	-3.002400	3.807700	-11.431000	23.196509	0.001066	20.873296
427.118020	-2.984600	3.808600	-11.366000	23.174769	0.001069	20.858623
428.130762	-3.006000	3.808200	-11.445000	23.184406	0.001068	20.873022
429.127882	-2.993300	3.808300	-11.399000	23.186698	0.001067	20.881481
430.127446	-2.998300	3.806900	-11.413000	23.191852	0.001068	20.843027
431.118875	-3.020000	3.806300	-11.494000	23.194766	0.001069	20.867756
432.121745	-2.994500	3.806800	-11.398000	23.193122	0.001070	20.849515
433.119224	-2.987100	3.807300	-11.372000	23.222956	0.001069	20.853807
434.123694	-2.998400	3.806600	-11.413000	23.235158	0.001069	20.868879
435.126142	-2.985100	3.805700	-11.359000	23.237150	0.001071	20.869453
436.121933	-3.002100	3.806600	-11.427000	23.243301	0.001069	20.866134
437.118556	-2.993300	3.806600	-11.394000	23.262550	0.001072	20.870252
438.120136	-3.001000	3.805700	-11.419000	23.284114	0.001072	20.860570
439.116381	-2.995800	3.805000	-11.398000	23.262226	0.001070	20.873720
440.118655	-3.006300	3.803400	-11.434000	23.292307	0.001070	20.878736
441.118360	-2.985500	3.806100	-11.361000	23.302939	0.001072	20.870901
442.132355	-3.011700	3.803000	-11.452000	23.273009	0.001071	20.868405
443.119896	-2.990600	3.804400	-11.376000	23.283417	0.001070	20.884051
444.123830	-3.000100	3.803500	-11.410000	23.307297	0.001071	20.840182
445.118688	-2.967100	3.805600	-11.289000	23.326371	0.001073	20.879685
446.132532	-2.993600	3.803900	-11.387000	23.314319	0.001073	20.879934
447.125916	-2.994900	3.803400	-11.390000	23.318079	0.001073	20.859048
448.122525	-2.993100	3.802200	-11.379000	23.331251	0.001072	20.892636
449.117116	-2.993300	3.802400	-11.381000	23.325499	0.001075	20.879760
450.119204	-3.008700	3.801500	-11.437000	23.308667	0.001075	20.885649
451.121012	-3.016800	3.802000	-11.469000	23.273731	0.001077	20.871026
452.122019	-2.999900	3.803200	-11.408000	23.273706	0.001077	20.871475
453.121806	-3.014800	3.800200	-11.456000	23.288920	0.001074	20.887670
454.122522	-2.998900	3.800500	-11.395000	23.305330	0.001074	20.881831
455.121074	-3.016600	3.800200	-11.463000	23.303712	0.001073	20.886847
456.118655	-3.000700	3.800300	-11.403000	23.303413	0.001077	20.896503
457.127003	-3.019300	3.799900	-11.472000	23.313224	0.001076	20.894008
458.123927	-2.997900	3.798000	-11.385000	23.313124	0.001078	20.897701
459.129798	-2.998100	3.799700	-11.391000	23.308293	0.001079	20.886697
460.122008	-3.004200	3.799200	-11.412000	23.307995	0.001077	20.874070
461.121924	-2.998000	3.800100	-11.391000	23.306102	0.001079	20.895406
462.128066	-3.012800	3.797800	-11.441000	23.326172	0.001079	20.883279
463.128155	-2.996900	3.798800	-11.384000	23.331949	0.001078	20.895705
464.134627	-3.000700	3.797000	-11.393000	23.347810	0.001078	20.900696
465.131970	-2.996500	3.798200	-11.380000	23.331625	0.001080	20.884951
466.129921	-2.994000	3.797400	-11.367000	23.348233	0.001079	20.888793
467.143281	-2.994100	3.798300	-11.370000	23.371863	0.001078	20.900621
468.123570	-3.012200	3.795600	-11.432000	23.369497	0.001079	20.894458
469.123685	-2.989300	3.795800	-11.345000	23.372037	0.001078	20.883254
470.131716	-3.002700	3.796000	-11.397000	23.383167	0.001080	20.889667
471.125974	-2.996600	3.796200	-11.375000	23.350076	0.001079	20.913872
472.127719	-3.000100	3.796400	-11.387000	23.376270	0.001080	20.894134
473.137620	-3.017200	3.794400	-11.448000	23.378760	0.001080	20.900896
474.130456	-3.002200	3.796200	-11.395000	23.411775	0.001080	20.892736
475.121842	-2.993900	3.794800	-11.361000	23.432465	0.001082	20.890715
476.143034	-2.988200	3.795900	-11.341000	23.399550	0.001082	20.921258
477.128574	-3.004800	3.794000	-11.399000	23.396015	0.001081	20.914396
478.134820	-2.989800	3.793500	-11.341000	23.409634	0.001081	20.913822
479.141233	-3.007300	3.793700	-11.408000	23.405302	0.001080	20.916118
480.131835	-3.011400	3.794600	-11.426000	23.398878	0.001081	20.899724
481.132449	-2.974100	3.794500	-11.284000	23.410332	0.001082	20.910728
482.140515	-2.988600	3.793400	-11.336000	23.426092	0.001081	20.906611
483.135759	-2.993600	3.793100	-11.354000	23.403609	0.001079	20.922955
484.132443	-2.983800	3.793000	-11.316000	23.374852	0.001081	20.915944
485.134086	-3.001300	3.792200	-11.381000	23.383591	0.001082	20.897204
486.134465	-2.998000	3.791200	-11.365000	23.368204	0.001082	20.910229
487.135272	-3.010400	3.792100	-11.415000	23.390662	0.001083	20.900498
488.132010	-3.008600	3.791300	-11.405000	23.363124	0.001084	20.922681
489.146075	-3.002800	3.792700	-11.387000	23.369474	0.001084	20.919088
490.144070	-3.011500	3.790700	-11.415000	23.366909	0.001085	20.920310
491.133141	-2.990300	3.790000	-11.332000	23.339968	0.001084	20.908957
492.140311	-2.995000	3.790900	-11.351000	23.347214	0.001085	20.910055
493.131419	-3.013400	3.789100	-11.417000	23.348758	0.001084	20.922507
494.139555	-3.009700	3.789800	-11.406000	23.389418	0.001084	20.893561
495.129356	-3.024900	3.789000	-11.461000	23.379782	0.001086	20.895757
496.135397	-2.983200	3.789600	-11.304000	23.418897	0.001085	20.930691
497.144146	-3.017500	3.789200	-11.432000	23.411528	0.001086	20.914771
498.145440	-3.012800	3.788500	-11.414000	23.399527	0.001086	20.921708
499.139895	-2.989300	3.789200	-11.326000	23.396414	0.001086	20.914322
500.146346	-3.020500	3.787500	-11.439000	23.416831	0.001086	20.917242
501.149204	-2.975700	3.788900	-11.274000	23.430998	0.001085	20.927647
502.138804	-3.002700	3.785100	-11.365000	23.422010	0.001086	20.917217
503.144761	-3.007500	3.786800	-11.388000	23.444791	0.001086	20.927248
504.131785	-3.001600	3.785400	-11.360000	23.473622	0.001087	20.912526
505.143138	-2.988300	3.787100	-11.316000	23.465854	0.001086	20.939824
506.143275	-3.003000	3.786300	-11.369000	23.477306	0.001087	20.921434
507.147311	-3.005800	3.786200	-11.379000	23.513132	0.001086	20.917517
508.142508	-2.977000	3.786800	-11.271000	23.512958	0.001087	20.910704
509.142751	-3.001200	3.785800	-11.360000	23.495481	0.001088	20.952450
510.140635	-2.994700	3.785200	-11.335000	23.499614	0.001089	20.940473
511.140616	-2.996600	3.784600	-11.340000	23.493340	0.001087	20.923281
512.153992	-2.997000	3.784200	-11.341000	23.512759	0.001089	20.935158
513.138387	-3.003600	3.784600	-11.366000	23.511116	0.001086	20.946786
514.133046	-2.999800	3.784700	-11.352000	23.520377	0.001089	20.928571
515.142012	-2.999600	3.783900	-11.349000	23.533148	0.001087	20.920037
516.153507	-3.003700	3.783300	-11.363000	23.528568	0.001088	20.942469
517.143835	-2.991800	3.783200	-11.317000	23.524983	0.001088	20.959736
518.147392	-3.000800	3.782700	-11.348000	23.529962	0.001089	20.930592
519.148691	-3.030200	3.780900	-11.455000	23.554011	0.001089	20.936206
520.138238	-2.987300	3.781900	-11.296000	23.557670	0.001089	20.918540
521.147633	-3.015500	3.780600	-11.400000	23.571362	0.001090	20.944591
522.149627	-2.984500	3.783000	-11.289000	23.589336	0.001088	20.930842
523.142918	-3.012700	3.781100	-11.389000	23.590855	0.001090	20.946587
524.158444	-3.004000	3.779800	-11.353000	23.605965	0.001087	20.938028
525.155272	-2.992800	3.781800	-11.317000	23.609699	0.001090	20.938927
526.147150	-3.009100	3.779400	-11.372000	23.626552	0.001090	20.938278
527.146954	-3.008600	3.779200	-11.369000	23.626304	0.001088	20.947510
528.150403	-2.997300	3.778600	-11.324000	23.635589	0.001091	20.969144
529.147088	-2.970800	3.780100	-11.228000	23.635489	0.001093	20.945814
530.149615	-3.000000	3.778900	-11.335000	23.660805	0.001090	20.947960
531.144784	-2.997900	3.778800	-11.327000	23.655180	0.001092	20.960336
532.145544	-2.997000	3.777600	-11.320000	23.656872	0.001090	20.940699
533.150682	-2.973900	3.779200	-11.237000	23.650450	0.001091	20.947062
534.149590	-2.995900	3.777900	-11.317000	23.636187	0.001092	20.940350
535.150867	-2.991100	3.777600	-11.298000	23.636934	0.001092	20.945839
536.137639	-2.992200	3.778000	-11.304000	23.655329	0.001091	20.949582
537.162961	-2.990700	3.777700	-11.297000	23.662175	0.001093	20.968296
538.147552	-3.011300	3.777200	-11.373000	23.674795	0.001093	20.952502
539.155058	-2.991800	3.776000	-11.295000	23.687888	0.001091	20.939077
540.152067	-3.019900	3.776200	-11.402000	23.674347	0.001092	20.945889
541.146424	-2.995900	3.775700	-11.311000	23.673650	0.001093	20.951828
542.142024	-3.020000	3.775200	-11.400000	23.696875	0.001091	20.964678
543.150250	-2.995500	3.774700	-11.307000	23.678504	0.001092	20.952427
544.165775	-3.026500	3.774100	-11.420000	23.701131	0.001092	20.966575
545.144136	-2.984900	3.775400	-11.269000	23.709819	0.001091	20.963905
546.153991	-2.991000	3.775100	-11.290000	23.676638	0.001092	20.948660
547.152968	-2.998000	3.774000	-11.313000	23.692519	0.001092	20.945616
548.152029	-3.008000	3.772100	-11.345000	23.691250	0.001092	20.957618
549.159491	-2.985300	3.774000	-11.264000	23.666557	0.001093	20.952777
550.156675	-2.983400	3.772200	-11.253000	23.682289	0.001093	20.971391
551.158881	-2.980100	3.773800	-11.245000	23.678680	0.001093	20.958292
552.148780	-3.002400	3.773500	-11.328000	23.680995	0.001093	20.968672
553.143841	-3.001500	3.773300	-11.324000	23.669918	0.001094	20.964680
554.147337	-2.993100	3.771700	-11.287000	23.689508	0.001092	20.975309
555.145449	-3.000100	3.772500	-11.317000	23.667105	0.001094	20.960438
556.153535	-3.014700	3.770300	-11.365000	23.699838	0.001094	20.956271
557.142670	-3.012900	3.771300	-11.361000	23.724381	0.001092	20.976607
558.148592	-3.032000	3.768500	-11.425000	23.715694	0.001092	20.977380
559.151857	-3.006400	3.769800	-11.332000	23.737324	0.001090	20.991004
560.148612	-3.024300	3.770100	-11.400000	23.754175	0.001093	20.952903
561.149277	-3.004400	3.769100	-11.323000	23.750840	0.001092	20.983219
562.149300	-2.999800	3.768500	-11.304000	23.733491	0.001094	20.966302
563.157419	-3.012800	3.769100	-11.354000	23.718905	0.001091	20.966851
564.157944	-2.988300	3.768400	-11.260000	23.725003	0.001093	20.987660
565.152979	-3.006900	3.769100	-11.333000	23.735084	0.001093	20.962684
566.155084	-2.996000	3.766900	-11.284000	23.753951	0.001091	20.985390
567.156215	-3.006600	3.767700	-11.327000	23.727741	0.001093	20.960538
568.148493	-3.006900	3.768500	-11.331000	23.752657	0.001093	20.980774
569.152730	-3.011500	3.767400	-11.345000	23.750193	0.001093	20.980674
570.160115	-2.997500	3.767800	-11.293000	23.754773	0.001091	20.958717
571.151270	-3.012800	3.767500	-11.350000	23.751089	0.001093	20.958342
572.156872	-3.019000	3.765900	-11.368000	23.795691	0.001094	20.958492
573.156795	-3.013400	3.765700	-11.346000	23.784690	0.001093	20.963582
574.159363	-2.976200	3.766200	-11.207000	23.773017	0.001092	20.984591
575.160428	-2.995700	3.765400	-11.279000	23.803133	0.001093	20.958367
576.154653	-2.983400	3.765400	-11.232000	23.802038	0.001094	20.990455
577.164286	-3.003400	3.764300	-11.304000	23.813935	0.001094	20.945018
578.174621	-3.002500	3.764700	-11.302000	23.816747	0.001093	20.958741
579.158781	-3.007300	3.764600	-11.321000	23.786631	0.001095	20.972639
580.162443	-3.021600	3.763200	-11.369000	23.776650	0.001095	20.954100
581.159087	-3.003600	3.764100	-11.304000	23.784142	0.001093	20.944543
582.162862	-3.034700	3.762400	-11.416000	23.788548	0.001096	20.970294
583.158990	-3.018000	3.762500	-11.354000	23.818788	0.001094	20.975484
584.164485	-2.987800	3.763200	-11.242000	23.808285	0.001097	20.932716
585.170401	-3.021800	3.761800	-11.366000	23.819335	0.001096	20.954224
586.171850	-3.005000	3.762400	-11.305000	23.829366	0.001093	20.954324
587.153960	-2.985300	3.762000	-11.230000	23.819286	0.001095	20.952752
588.169849	-3.017000	3.760600	-11.343000	23.813586	0.001093	20.960787
589.166570	-2.989400	3.761700	-11.244000	23.813088	0.001094	20.942272
590.169645	-2.997000	3.761900	-11.273000	23.834144	0.001095	20.949633
591.161980	-3.012900	3.758900	-11.324000	23.830112	0.001094	20.930420
592.162136	-2.994300	3.761000	-11.259000	23.835588	0.001094	20.944917
593.163028	-3.000100	3.759900	-11.279000	23.843453	0.001092	20.936209
594.170569	-3.012200	3.760500	-11.326000	23.845369	0.001093	20.949508
595.162069	-3.011300	3.759200	-11.319000	23.851740	0.001093	20.946889
596.167071	-2.987200	3.758700	-11.226000	23.863338	0.001093	20.927226
597.160313	-3.011600	3.758400	-11.319000	23.847186	0.001096	20.938055
598.161881	-2.977200	3.759700	-11.193000	23.820182	0.001096	20.941324
599.167123	-3.005700	3.758300	-11.296000	23.809206	0.001095	20.939802
600.167371	-3.004200	3.756700	-11.285000	23.792182	0.001096	20.943595
601.175953	-2.987900	3.757400	-11.226000	23.785113	0.001094	20.933664
602.173223	-3.004900	3.757100	-11.289000	23.772618	0.001093	20.943420
603.172893	-2.972300	3.756800	-11.166000	23.784715	0.001094	20.958392
604.172512	-3.018200	3.756200	-11.336000	23.788896	0.001095	20.937457
605.174656	-3.008900	3.757700	-11.305000	23.812243	0.001095	20.930046
606.162822	-2.991000	3.756300	-11.234000	23.797906	0.001096	20.945542
607.181468	-3.017000	3.756900	-11.334000	23.789519	0.001095	20.929547
608.172510	-2.996000	3.755800	-11.251000	23.769159	0.001093	20.929522
609.163119	-2.998800	3.755000	-11.259000	23.788299	0.001095	20.932591
610.179182	-2.983400	3.756100	-11.204000	23.794223	0.001094	20.929996
611.175548	-2.995800	3.756200	-11.250000	23.796886	0.001093	20.934563
612.187438	-3.007600	3.755400	-11.293000	23.801441	0.001092	20.937707
613.166416	-2.993500	3.754800	-11.239000	23.815006	0.001092	20.925705
614.180218	-3.001900	3.755100	-11.271000	23.848854	0.001094	20.925979
615.171171	-2.992900	3.753000	-11.231000	23.864086	0.001094	20.925605
616.175035	-3.002800	3.752400	-11.266000	23.865056	0.001092	20.931319
617.187905	-3.009900	3.752000	-11.293000	23.869511	0.001093	20.918718
618.179986	-3.000600	3.753100	-11.260000	23.859257	0.001093	20.934039
619.174896	-2.996300	3.753400	-11.246000	23.862717	0.001093	20.931819
620.188181	-3.001900	3.752100	-11.263000	23.862045	0.001093	20.918818
621.170966	-3.002500	3.751600	-11.263000	23.850348	0.001093	20.920839
622.180289	-3.019400	3.751100	-11.325000	23.856794	0.001094	20.922561
623.189377	-3.005000	3.751400	-11.272000	23.895121	0.001093	20.924956
624.194488	-2.999300	3.751500	-11.251000	23.883847	0.001094	20.924557
625.182608	-2.980600	3.750500	-11.178000	23.915926	0.001094	20.908363
626.167409	-3.007000	3.750800	-11.277000	23.914110	0.001095	20.912705
627.173852	-2.986000	3.750000	-11.196000	23.905275	0.001094	20.909062
628.174292	-2.993900	3.750000	-11.225000	23.916648	0.001092	20.929473
629.185228	-3.008200	3.750300	-11.280000	23.911049	0.001092	20.933815
630.175872	-3.016600	3.748400	-11.307000	23.921228	0.001091	20.897559
631.170851	-3.002800	3.749400	-11.258000	23.897560	0.001094	20.911757
632.176538	-3.017200	3.747500	-11.306000	23.900621	0.001092	20.904396
633.177579	-2.984800	3.748500	-11.188000	23.897536	0.001092	20.920740
634.176570	-2.977800	3.748500	-11.161000	23.903807	0.001095	20.903797
635.169623	-2.998200	3.747000	-11.233000	23.901020	0.001091	20.915226
636.179886	-2.989200	3.748000	-11.203000	23.899925	0.001093	20.902275
637.189523	-3.005800	3.748400	-11.266000	23.945940	0.001092	20.926131
638.177499	-2.989100	3.748900	-11.205000	23.943800	0.001091	20.892694
639.180531	-2.969900	3.747300	-11.128000	23.976899	0.001092	20.908340
640.177759	-2.994100	3.746400	-11.216000	23.955223	0.001092	20.920267
641.176239	-2.993300	3.745800	-11.211000	23.977969	0.001094	20.912731
642.179190	-3.016700	3.745000	-11.296000	23.976003	0.001092	20.914553
643.180129	-3.005200	3.744600	-11.253000	23.983469	0.001091	20.908290
644.185123	-3.005400	3.745000	-11.255000	23.952014	0.001092	20.920842
645.182858	-2.997200	3.744800	-11.221000	23.964332	0.001092	20.905695
646.175349	-2.984600	3.744200	-11.174000	23.963237	0.001091	20.897486
647.179507	-3.013700	3.743600	-11.280000	23.962367	0.001091	20.916051
648.193165	-2.995100	3.744300	-11.214000	23.992627	0.001089	20.906569
649.181484	-3.027000	3.742000	-11.326000	23.938626	0.001088	20.903151
650.191658	-2.990000	3.743500	-11.192000	23.952786	0.001090	20.909289
651.192132	-3.014300	3.742300	-11.280000	23.933599	0.001089	20.910437
652.184015	-3.008700	3.743200	-11.262000	23.934918	0.001091	20.916501
653.177524	-2.996100	3.743200	-11.213000	23.938426	0.001091	20.902477
654.178228	-2.987500	3.742300	-11.180000	23.927377	0.001090	20.906569
655.183741	-2.989100	3.741800	-11.184000	23.927526	0.001091	20.919046
656.181158	-2.998000	3.742500	-11.218000	23.908414	0.001090	20.911735
657.178748	-3.002100	3.742100	-11.232000	23.904581	0.001089	20.902203
658.187420	-3.007700	3.742500	-11.254000	23.898807	0.001089	20.907792
659.190719	-3.008500	3.740600	-11.252000	23.914759	0.001088	20.905771
660.190339	-2.982100	3.741500	-11.155000	23.923246	0.001087	20.902427
661.185768	-3.005300	3.740000	-11.239000	23.952139	0.001088	20.890624
662.181997	-2.981100	3.741700	-11.152000	23.970305	0.001089	20.900306
663.184638	-3.007100	3.739100	-11.243000	23.982922	0.001087	20.908216
664.189143	-2.988500	3.738900	-11.173000	23.999495	0.001088	20.892121
665.196169	-2.990000	3.739200	-11.179000	24.015173	0.001090	20.899308
666.187135	-3.001100	3.739400	-11.221000	24.009971	0.001089	20.888877
667.184534	-3.011300	3.738100	-11.256000	23.996285	0.001088	20.905970
668.189544	-3.002300	3.738500	-11.223000	24.000266	0.001087	20.897636
669.187426	-3.007600	3.737900	-11.241000	23.981080	0.001088	20.900680
670.194719	-2.997300	3.738500	-11.204000	23.994767	0.001087	20.894965
671.191854	-2.988200	3.737900	-11.169000	24.000191	0.001086	20.904198
672.200309	-2.991000	3.737300	-11.177000	23.994642	0.001086	20.896737
673.190144	-3.001600	3.736100	-11.214000	23.989789	0.001086	20.874802
674.204022	-2.982100	3.737900	-11.145000	23.956941	0.001088	20.897810
675.194917	-2.993600	3.737800	-11.188000	23.963660	0.001087	20.877048
676.195392	-2.982600	3.736800	-11.145000	23.990411	0.001089	20.874004
677.194860	-3.016000	3.734700	-11.262000	24.009050	0.001085	20.880367
678.191378	-3.001800	3.735700	-11.212000	24.009573	0.001087	20.893692
679.192204	-3.013000	3.733400	-11.248000	24.012733	0.001086	20.894016
680.192301	-2.982600	3.735300	-11.140000	24.009050	0.001087	20.859031
681.200265	-2.989600	3.734000	-11.161000	24.012210	0.001087	20.885432
682.197002	-2.979400	3.734500	-11.126000	24.028136	0.001087	20.887179
683.197872	-3.014200	3.734800	-11.257000	24.028833	0.001086	20.889300
684.196111	-3.011500	3.733500	-11.242000	24.030077	0.001086	20.867316
685.201081	-3.013100	3.731900	-11.244000	24.047795	0.001086	20.860903
686.210093	-3.000700	3.732500	-11.199000	24.075017	0.001085	20.880142
687.192907	-2.969600	3.734700	-11.090000	24.016565	0.001085	20.873679
688.195294	-3.006500	3.731600	-11.218000	23.988246	0.001086	20.885582
689.211041	-3.000100	3.732100	-11.195000	23.956691	0.001087	20.870535
690.194000	-3.005100	3.732100	-11.214000	23.934493	0.001085	20.869138
691.193475	-3.013200	3.731100	-11.242000	23.879692	0.001085	20.867291
692.205244	-2.995400	3.731500	-11.176000	23.857840	0.001087	20.875725
693.207377	-3.000000	3.730500	-11.191000	23.867820	0.001083	20.874827
694.209995	-3.031200	3.729600	-11.304000	23.883101	0.001086	20.871184
695.196728	-3.011700	3.730100	-11.233000	23.898457	0.001082	20.862874
696.197479	-3.003900	3.730400	-11.204000	23.944646	0.001083	20.882163
697.202184	-2.999900	3.730100	-11.189000	23.998299	0.001083	20.889499
698.203752	-3.000400	3.730000	-11.191000	24.004993	0.001082	20.863024
699.205840	-2.996400	3.729600	-11.173000	23.999543	0.001084	20.863248
700.210290	-3.002000	3.729600	-11.194000	24.001709	0.001083	20.863523
701.199925	-2.986100	3.730000	-11.136000	24.031172	0.001082	20.864621
702.208784	-2.998900	3.727300	-11.176000	24.038737	0.001083	20.865095
703.217083	-3.000300	3.728400	-11.184000	24.000987	0.001082	20.863747
704.200980	-2.989500	3.728300	-11.145000	23.953033	0.001081	20.869237
705.214083	-3.026600	3.726600	-11.278000	23.962515	0.001082	20.847927
706.209243	-3.026100	3.726800	-11.276000	23.998972	0.001080	20.855563
707.208476	-3.007800	3.727600	-11.212000	24.043838	0.001080	20.852668
708.208098	-3.005900	3.726500	-11.200000	24.038413	0.001081	20.858607
709.223131	-2.984100	3.726900	-11.120000	24.070936	0.001080	20.872257
710.212430	-3.004000	3.728200	-11.199000	24.080193	0.001082	20.880117
711.211071	-2.995100	3.726700	-11.161000	24.073026	0.001079	20.865819
712.210054	-2.984700	3.726000	-11.119000	24.119482	0.001080	20.848875
713.206177	-3.000600	3.725100	-11.176000	24.121721	0.001079	20.839267
714.205676	-2.990400	3.725700	-11.141000	24.135282	0.001081	20.861402
715.211920	-2.996200	3.725600	-11.162000	24.145732	0.001079	20.864771
716.215454	-2.996000	3.723900	-11.156000	24.158496	0.001080	20.842961
717.207047	-2.991100	3.724700	-11.140000	24.184323	0.001080	20.845631
718.212294	-2.998700	3.723900	-11.166000	24.185019	0.001079	20.856286
719.215335	-3.035300	3.721800	-11.296000	24.128788	0.001080	20.856785
720.209712	-2.995900	3.723000	-11.152000	24.115600	0.001078	20.852568
721.211855	-2.995600	3.724100	-11.154000	24.112863	0.001078	20.849823
722.213612	-2.996600	3.722700	-11.154000	24.098456	0.001079	20.841064
723.211561	-2.986200	3.721900	-11.113000	24.128091	0.001078	20.861776
724.217522	-2.987100	3.724200	-11.124000	24.130928	0.001076	20.848500
725.221451	-2.996000	3.721400	-11.148000	24.141129	0.001078	20.844033
726.206299	-2.991500	3.722600	-11.136000	24.170016	0.001077	20.853091
727.215540	-2.997100	3.722900	-11.157000	24.189199	0.001078	20.860478
728.207364	-2.987900	3.720500	-11.116000	24.196091	0.001077	20.850322
729.216497	-3.012600	3.719800	-11.205000	24.189074	0.001076	20.834750
730.220451	-3.012400	3.721000	-11.208000	24.219876	0.001078	20.857109
731.212865	-2.987000	3.721500	-11.115000	24.227986	0.001077	20.854339
732.219661	-3.015500	3.719800	-11.216000	24.221393	0.001074	20.827338
733.220739	-3.009400	3.720500	-11.196000	24.212038	0.001076	20.835972
734.228411	-3.005200	3.720600	-11.180000	24.186163	0.001074	20.840364
735.212830	-3.001600	3.719000	-11.162000	24.164840	0.001075	20.830357
736.224380	-3.014700	3.718000	-11.208000	24.184620	0.001075	20.841661
737.217735	-2.987100	3.719200	-11.109000	24.177380	0.001075	20.810692
738.210965	-2.988100	3.718800	-11.111000	24.199026	0.001075	20.841412
739.209644	-2.997500	3.717200	-11.142000	24.159515	0.001077	20.851568
740.219748	-3.005600	3.717400	-11.172000	24.129582	0.001076	20.841462
741.226954	-3.010200	3.716800	-11.187000	24.132942	0.001076	20.819701
742.215753	-3.025200	3.716100	-11.241000	24.158893	0.001077	20.854263
743.223178	-2.989700	3.718000	-11.115000	24.157549	0.001075	20.815459
744.214336	-3.003800	3.717100	-11.165000	24.141451	0.001076	20.832503
745.220137	-2.995600	3.716100	-11.131000	24.138067	0.001075	20.828161
746.213974	-2.998500	3.717100	-11.144000	24.139236	0.001075	20.847350
747.214388	-2.995500	3.716600	-11.132000	24.139112	0.001074	20.828734
748.224210	-2.982600	3.715200	-11.079000	24.142670	0.001074	20.836570
749.221859	-2.989800	3.716300	-11.110000	24.147248	0.001074	20.836420
750.220944	-3.008900	3.715600	-11.179000	24.157748	0.001075	20.855960
751.225348	-3.008700	3.715000	-11.177000	24.183475	0.001073	20.827237
752.220644	-3.007600	3.714700	-11.171000	24.178598	0.001074	20.835147
753.224425	-2.985600	3.715300	-11.090000	24.183499	0.001073	20.817305
754.224506	-3.012600	3.714100	-11.188000	24.170686	0.001075	20.832901
755.226242	-3.015700	3.712100	-11.193000	24.147919	0.001075	20.836145
756.226899	-3.022800	3.713100	-11.222000	24.144361	0.001073	20.826887
757.226400	-3.001300	3.713400	-11.144000	24.118832	0.001075	20.831154
758.229053	-3.002500	3.712800	-11.147000	24.126073	0.001072	20.835097
759.223720	-3.010300	3.712000	-11.171000	24.141699	0.001072	20.834174
760.229317	-3.014300	3.712400	-11.189000	24.123286	0.001074	20.829931
761.226651	-2.976100	3.713900	-11.051000	24.135852	0.001073	20.832103
762.231242	-2.997600	3.712800	-11.128000	24.128064	0.001072	20.823818
763.225219	-2.994300	3.711900	-11.114000	24.158344	0.001073	20.829058
764.233719	-3.011700	3.711400	-11.177000	24.178946	0.001071	20.811315
765.222184	-2.971600	3.711700	-11.029000	24.152945	0.001071	20.825539
766.223921	-2.996000	3.711400	-11.119000	24.175239	0.001070	20.834623
767.238604	-3.015600	3.710300	-11.188000	24.171780	0.001070	20.834947
768.225932	-3.008800	3.709600	-11.160000	24.178448	0.001070	20.815083
769.227446	-3.029500	3.709200	-11.236000	24.162997	0.001072	20.826613
770.240822	-2.983400	3.709400	-11.065000	24.174592	0.001069	20.812164
771.228012	-3.008800	3.708400	-11.156000	24.155931	0.001068	20.832802
772.232532	-3.013800	3.708800	-11.177000	24.153543	0.001068	20.822346
773.235791	-3.024700	3.707800	-11.213000	24.139709	0.001070	20.824592
774.232032	-2.987200	3.709700	-11.080000	24.145730	0.001069	20.824941
775.228619	-3.002100	3.708200	-11.132000	24.150855	0.001067	20.822969
776.247562	-2.977900	3.709800	-11.046000	24.174667	0.001068	20.831205
777.225379	-2.983000	3.709300	-11.063000	24.177727	0.001069	20.799187
778.234970	-3.007900	3.707000	-11.149000	24.193128	0.001068	20.817005
779.234828	-3.009900	3.705600	-11.153000	24.224253	0.001067	20.807922
780.241916	-2.998700	3.707700	-11.116000	24.214898	0.001068	20.822720
781.216886	-3.004600	3.706800	-11.137000	24.236220	0.001068	20.821822
782.220034	-3.013100	3.705200	-11.163000	24.232464	0.001068	20.823269
783.219383	-3.006500	3.706100	-11.140000	24.228383	0.001067	20.834349
784.241409	-2.988000	3.706000	-11.073000	24.221467	0.001067	20.827886
785.235419	-2.995000	3.706000	-11.098000	24.210221	0.001068	20.820874
786.243896	-3.013100	3.705800	-11.165000	24.177752	0.001065	20.846627
787.230826	-3.005700	3.704100	-11.132000	24.198453	0.001066	20.822346
788.216570	-3.019200	3.703900	-11.181000	24.184097	0.001067	20.824542
789.221518	-3.009000	3.704800	-11.147000	24.190193	0.001066	20.836346
790.223634	-2.973900	3.706200	-11.021000	24.190989	0.001065	20.826713
791.218247	-2.977900	3.705600	-11.034000	24.217387	0.001065	20.828061
792.238432	-2.986800	3.703600	-11.061000	24.213282	0.001064	20.835323
793.238988	-2.996300	3.702900	-11.094000	24.202882	0.001065	20.825366
794.248699	-2.977200	3.704300	-11.028000	24.215870	0.001064	20.830332
795.241004	-3.004200	3.703500	-11.124000	24.219975	0.001064	20.798415
796.255561	-2.991900	3.703100	-11.078000	24.263140	0.001062	20.810892
797.242869	-2.987800	3.703800	-11.064000	24.238734	0.001062	20.831455
798.238223	-3.013100	3.702000	-11.154000	24.258538	0.001062	20.838991
799.252098	-2.983700	3.701700	-11.043000	24.277222	0.001063	20.838293
800.256182	-3.013500	3.700900	-11.152000	24.255304	0.001065	20.822946
801.249889	-3.013400	3.700500	-11.150000	24.273838	0.001062	20.838218
802.252624	-2.972900	3.702500	-11.006000	24.293368	0.001061	20.821773
803.249811	-3.004200	3.701400	-11.119000	24.299911	0.001060	20.817905
804.247779	-3.005600	3.701300	-11.124000	24.309887	0.001057	20.838817
805.244683	-3.011000	3.700100	-11.140000	24.333670	0.001060	20.817156
806.242620	-3.022200	3.700300	-11.181000	24.337999	0.001059	20.830507
807.223972	-3.011500	3.699900	-11.141000	24.333446	0.001061	20.807448
808.239256	-2.976800	3.700200	-11.013000	24.355288	0.001060	20.818454
809.254231	-3.000300	3.698400	-11.095000	24.361980	0.001059	20.801934
810.244502	-2.986400	3.699700	-11.048000	24.338372	0.001058	20.827562
811.248533	-3.027100	3.699200	-11.196000	24.345263	0.001060	20.839691
812.252768	-2.993800	3.698600	-11.072000	24.338247	0.001060	20.830757
813.241561	-2.987100	3.699800	-11.049000	24.374045	0.001059	20.815459
814.249602	-3.012400	3.697400	-11.136000	24.316455	0.001058	20.822172
815.260275	-2.983000	3.697800	-11.029000	24.302349	0.001059	20.832678
816.246840	-3.001200	3.698000	-11.097000	24.262145	0.001058	20.807523
817.229960	-2.974700	3.697600	-10.998000	24.257966	0.001057	20.835573
818.232572	-2.983200	3.696600	-11.026000	24.260329	0.001057	20.835573
819.239318	-3.010500	3.696800	-11.128000	24.270853	0.001059	20.814835
820.250215	-3.007500	3.696300	-11.116000	24.274187	0.001056	20.822447
821.246420	-3.006500	3.695800	-11.109000	24.258165	0.001055	20.827712
822.259372	-2.990400	3.696000	-11.051000	24.291577	0.001056	20.831830
823.250611	-3.001900	3.696100	-11.095000	24.307474	0.001056	20.846353
824.246200	-2.983900	3.695200	-11.025000	24.331755	0.001059	20.843209
825.262472	-3.003500	3.697000	-11.103000	24.318420	0.001057	20.837420
826.249781	-2.997300	3.694400	-11.072000	24.352303	0.001056	20.843908
827.262822	-3.007200	3.695100	-11.111000	24.338671	0.001056	20.833552
828.231168	-3.026100	3.693800	-11.177000	24.385812	0.001054	20.832479
829.252991	-2.987400	3.695200	-11.037000	24.367851	0.001055	20.860927
830.247269	-3.002500	3.693900	-11.090000	24.387503	0.001054	20.839866
831.247231	-3.009700	3.693700	-11.116000	24.407304	0.001052	20.823695
832.250012	-3.017700	3.693600	-11.145000	24.407031	0.001055	20.838119
833.230680	-2.997800	3.693700	-11.072000	24.399543	0.001052	20.850995
834.246074	-2.994500	3.693500	-11.060000	24.413797	0.001053	20.858182
835.253182	-3.002000	3.693100	-11.086000	24.418325	0.001054	20.830957
836.245820	-3.007900	3.692200	-11.104000	24.439991	0.001054	20.837046
837.248349	-3.003900	3.692200	-11.090000	24.420663	0.001053	20.841363
838.256829	-3.016800	3.691200	-11.135000	24.401708	0.001052	20.842262
839.256699	-2.989800	3.691500	-11.036000	24.370439	0.001051	20.845506
840.257213	-3.008000	3.691600	-11.103000	24.369643	0.001050	20.867465
841.259677	-3.007600	3.691600	-11.102000	24.410414	0.001052	20.853366
842.230704	-3.008100	3.691200	-11.103000	24.416534	0.001051	20.849074
843.248806	-2.996500	3.690700	-11.058000	24.399792	0.001050	20.860728
844.258663	-3.003700	3.690500	-11.083000	24.419792	0.001051	20.838593
845.258263	-2.987200	3.690400	-11.022000	24.437802	0.001049	20.831057
846.260010	-3.005000	3.690100	-11.088000	24.446483	0.001051	20.835973
847.258485	-2.990700	3.690900	-11.037000	24.416683	0.001050	20.854913
848.262991	-3.014700	3.689400	-11.122000	24.423971	0.001051	20.848475
849.246387	-3.021800	3.689200	-11.146000	24.425414	0.001050	20.849448
850.236780	-2.997700	3.688600	-11.056000	24.391309	0.001049	20.847477
851.263940	-3.011100	3.689600	-11.109000	24.408698	0.001048	20.854489
852.261519	-2.990700	3.688300	-11.029000	24.403922	0.001048	20.833577
853.263265	-2.981800	3.689200	-10.999000	24.427255	0.001047	20.843235
854.235627	-2.997000	3.688400	-11.052000	24.447677	0.001047	20.847128
855.253721	-3.008000	3.687500	-11.091000	24.418200	0.001048	20.844582
856.246043	-3.006200	3.687400	-11.084000	24.444369	0.001049	20.826740
857.259243	-3.003500	3.688100	-11.075000	24.479864	0.001045	20.847652
858.259291	-3.015600	3.686200	-11.115000	24.469169	0.001046	20.869162
859.240671	-2.990200	3.687100	-11.024000	24.442279	0.001045	20.840290
860.259918	-2.983300	3.686400	-10.996000	24.423648	0.001047	20.867590
861.263672	-3.006400	3.685500	-11.079000	24.434319	0.001046	20.853166
862.256613	-3.006300	3.686500	-11.082000	24.440812	0.001046	20.849723
863.257849	-3.021600	3.684600	-11.132000	24.436757	0.001045	20.842336
864.275144	-3.000300	3.685800	-11.058000	24.436483	0.001045	20.856286
865.268860	-3.001300	3.684100	-11.057000	24.419543	0.001044	20.846878
866.238390	-2.996400	3.685000	-11.040000	24.442130	0.001045	20.874752
867.258041	-3.005200	3.683700	-11.069000	24.444169	0.001044	20.871108
868.268216	-3.015800	3.683600	-11.108000	24.459766	0.001042	20.863048
869.259060	-2.980600	3.683400	-10.977000	24.453199	0.001042	20.851245
870.269950	-3.003800	3.684100	-11.065000	24.445538	0.001042	20.871058
871.271442	-3.013600	3.683400	-11.099000	24.462054	0.001043	20.848750
872.262552	-2.989900	3.683700	-11.012000	24.463472	0.001042	20.855861
873.259088	-2.983900	3.683200	-10.989000	24.422155	0.001041	20.854239
874.274247	-3.001500	3.681600	-11.049000	24.442254	0.001039	20.863971
875.262603	-2.998900	3.683300	-11.044000	24.437204	0.001041	20.860328
876.259648	-3.001800	3.682900	-11.054000	24.435736	0.001040	20.866441
877.271019	-2.999600	3.681800	-11.043000	24.418672	0.001040	20.882037
878.260832	-2.994900	3.682600	-11.028000	24.431632	0.001039	20.855212
879.264980	-3.010500	3.680900	-11.080000	24.445711	0.001039	20.849422
880.270379	-3.003100	3.681200	-11.055000	24.452701	0.001039	20.876348
881.270315	-3.009200	3.679900	-11.072000	24.455735	0.001038	20.863272
882.246115	-2.980600	3.681400	-10.972000	24.476082	0.001036	20.869460
883.272202	-2.987100	3.680300	-10.991000	24.453397	0.001038	20.870883
884.265575	-3.002700	3.678200	-11.043000	24.421482	0.001037	20.866840
885.252553	-2.987800	3.679700	-10.994000	24.422676	0.001034	20.854288
886.255423	-3.022500	3.679800	-11.121000	24.418945	0.001035	20.871880
887.250947	-3.013600	3.679300	-11.086000	24.443571	0.001037	20.849172
888.251029	-2.987400	3.679300	-10.990000	24.439865	0.001034	20.868687
889.249242	-2.990200	3.679700	-11.001000	24.452451	0.001036	20.870408
890.257794	-2.983200	3.678500	-10.973000	24.474291	0.001034	20.883783
891.254801	-3.003100	3.679300	-11.048000	24.466853	0.001033	20.873951
892.255234	-3.005600	3.677200	-11.052000	24.496155	0.001034	20.857831
893.256860	-3.001800	3.677000	-11.037000	24.514511	0.001033	20.862497
894.256824	-2.990600	3.678200	-10.999000	24.487772	0.001032	20.878343
895.255816	-3.000400	3.678300	-11.035000	24.492896	0.001031	20.848872
896.252432	-2.994600	3.676500	-11.009000	24.478295	0.001031	20.883059
897.253311	-2.986100	3.676900	-10.979000	24.489414	0.001033	20.885205
898.249810	-2.985600	3.675600	-10.973000	24.447650	0.001032	20.861325
899.255538	-3.004300	3.675800	-11.042000	24.463072	0.001031	20.887701
900.251487	-3.000600	3.674800	-11.024000	24.471927	0.001030	20.888524
901.281516	-2.979900	3.675900	-10.952000	24.486876	0.001031	20.860850
902.281291	-2.996900	3.674900	-11.012000	24.489488	0.001030	20.879591
903.286252	-2.986400	3.675700	-10.976000	24.518192	0.001031	20.887526
904.289040	-3.006200	3.674900	-11.047000	24.515182	0.001033	20.875024
905.285425	-3.005800	3.675700	-11.048000	24.528887	0.001031	20.876446
906.283006	-2.996300	3.673700	-11.006000	24.540652	0.001030	20.885405
907.275955	-2.999400	3.674500	-11.019000	24.534036	0.001030	20.881611
908.281776	-2.996000	3.674400	-11.008000	24.526823	0.001030	20.879116
909.285004	-3.003600	3.675200	-11.038000	24.527917	0.001032	20.875947
910.290656	-2.989300	3.674400	-10.983000	24.514311	0.001030	20.860875
911.265115	-2.993900	3.674300	-10.999000	24.526624	0.001032	20.892192
912.268703	-3.022200	3.671800	-11.096000	24.523862	0.001031	20.879939
913.258211	-3.026600	3.671200	-11.110000	24.535006	0.001029	20.878317
914.272981	-3.005400	3.672100	-11.036000	24.544582	0.001030	20.870856
915.293837	-2.987900	3.671600	-10.970000	24.543039	0.001029	20.893489
916.285162	-2.976100	3.673100	-10.931000	24.555202	0.001029	20.878193
917.278713	-2.984500	3.672800	-10.961000	24.554655	0.001029	20.907987
918.282924	-2.993900	3.671400	-10.991000	24.555948	0.001029	20.885105
919.279603	-2.995500	3.671500	-10.998000	24.581317	0.001029	20.876895
920.260336	-3.007100	3.671100	-11.039000	24.595494	0.001026	20.879266
921.260008	-3.003600	3.670900	-11.025000	24.603577	0.001026	20.874574
922.263197	-2.987100	3.671300	-10.965000	24.640112	0.001025	20.892267
923.277949	-2.992400	3.670300	-10.983000	24.652373	0.001026	20.880388
924.275834	-3.015000	3.668100	-11.058000	24.627677	0.001025	20.884057
925.273043	-3.017100	3.668900	-11.069000	24.616237	0.001025	20.903396
926.273983	-2.986900	3.670100	-10.960000	24.594972	0.001025	20.895810
927.279409	-3.006500	3.669500	-11.032000	24.584600	0.001025	20.907687
928.275640	-2.984600	3.671300	-10.956000	24.586416	0.001023	20.885329
929.275293	-2.988400	3.669000	-10.963000	24.572214	0.001022	20.917544
930.280629	-2.988800	3.668700	-10.963000	24.577785	0.001023	20.888523
931.281183	-2.987200	3.668300	-10.957000	24.608054	0.001022	20.895186
932.258999	-2.988800	3.669800	-10.967000	24.615788	0.001022	20.905316
933.270479	-2.985100	3.668600	-10.949000	24.638644	0.001022	20.912129
934.266450	-3.010400	3.668100	-11.041000	24.638644	0.001021	20.901698
935.260248	-3.005000	3.667700	-11.020000	24.630163	0.001022	20.902197
936.263161	-3.009500	3.667000	-11.034000	24.599572	0.001021	20.892365
937.278696	-3.006700	3.667100	-11.025000	24.569527	0.001020	20.899677
938.263608	-2.999200	3.665900	-10.993000	24.545699	0.001017	20.883831
939.269660	-2.982000	3.667000	-10.934000	24.576615	0.001018	20.902047
940.264027	-3.000100	3.666600	-10.999000	24.555150	0.001017	20.916544
941.267490	-2.980800	3.664800	-10.923000	24.585270	0.001018	20.899352
942.272481	-3.025100	3.664500	-11.084000	24.573257	0.001016	20.921435
943.276714	-3.024800	3.664400	-11.083000	24.553807	0.001017	20.937005
944.270584	-3.018100	3.664900	-11.059000	24.533238	0.001015	20.905465
945.266366	-3.005600	3.664600	-11.013000	24.510130	0.001017	20.914522
946.270215	-3.009700	3.663300	-11.024000	24.544480	0.001015	20.914847
947.266090	-2.998900	3.663500	-10.985000	24.531322	0.001013	20.916818
948.275198	-2.999700	3.663700	-10.989000	24.555920	0.001017	20.907360
949.282144	-2.997200	3.663700	-10.979000	24.556045	0.001016	20.905114
950.267411	-2.997200	3.663300	-10.979000	24.582533	0.001015	20.914147
951.290679	-3.014700	3.662500	-11.041000	24.556716	0.001013	20.913848
952.275652	-3.035100	3.661800	-11.111000	24.550846	0.001016	20.901795
953.276326	-3.009000	3.662700	-11.020000	24.543782	0.001015	20.925051
954.278291	-3.018100	3.660300	-11.046000	24.522367	0.001013	20.927746
955.276472	-3.013400	3.660900	-11.031000	24.531122	0.001013	20.904765
956.271651	-3.013200	3.660200	-11.029000	24.516795	0.001013	20.898451
957.275486	-2.988000	3.662300	-10.942000	24.496573	0.001012	20.925101
958.272632	-2.993600	3.659400	-10.953000	24.500553	0.001015	20.928619
959.270064	-2.994900	3.660600	-10.961000	24.490777	0.001013	20.904115
960.278460	-3.014500	3.661700	-11.037000	24.487021	0.001013	20.916941
961.272865	-3.004100	3.660000	-10.995000	24.480703	0.001013	20.906810
962.270369	-2.983000	3.661600	-10.921000	24.495602	0.001011	20.910378
963.272746	-3.015500	3.658700	-11.031000	24.490553	0.001011	20.921907
964.275795	-2.992400	3.660200	-10.951000	24.466898	0.001012	20.927571
965.298948	-2.993400	3.659700	-10.952000	24.502517	0.001011	20.922056
966.300424	-3.010100	3.658400	-11.010000	24.539503	0.001010	20.920758
967.293252	-3.001500	3.659300	-10.982000	24.544353	0.001011	20.927995
968.289166	-3.019400	3.657900	-11.044000	24.585616	0.001011	20.936204
969.280051	-3.005200	3.657300	-10.990000	24.582034	0.001008	20.923603
970.283522	-2.985000	3.658800	-10.921000	24.557411	0.001008	20.922605
971.291724	-3.010600	3.658000	-11.011000	24.554725	0.001010	20.937452
972.286238	-2.980000	3.657500	-10.897000	24.587630	0.001010	20.925424
973.290093	-2.990100	3.658700	-10.939000	24.611805	0.001010	20.926922
974.276074	-2.990900	3.657900	-10.940000	24.610810	0.001006	20.912174
975.276536	-2.994900	3.657000	-10.951000	24.618371	0.001007	20.929242
976.289879	-3.000600	3.656800	-10.972000	24.606209	0.001007	20.928419
977.306729	-3.005000	3.656700	-10.988000	24.577632	0.001006	20.904963
978.312083	-2.998000	3.656100	-10.960000	24.593997	0.001008	20.939872
979.314110	-3.007400	3.655200	-10.992000	24.596037	0.001006	20.931488
980.304923	-3.009700	3.656000	-11.001000	24.624887	0.001007	20.935779
981.304396	-2.991800	3.655800	-10.936000	24.609616	0.001006	20.933259
982.300415	-3.014800	3.654800	-11.018000	24.605786	0.001006	20.933684
983.298949	-3.017100	3.653700	-11.023000	24.639038	0.001006	20.929117
984.296497	-3.012400	3.652800	-11.002000	24.660227	0.001006	20.937576
985.303747	-2.999000	3.655300	-10.961000	24.642818	0.001005	20.935281
986.321004	-3.006500	3.652900	-10.981000	24.648165	0.001003	20.923104
987.315140	-3.009400	3.653500	-10.993000	24.633467	0.001005	20.945336
988.291785	-2.980600	3.654800	-10.893000	24.650006	0.001006	20.934906
989.289164	-3.000200	3.652800	-10.958000	24.647171	0.001004	20.941069
990.294495	-3.010700	3.653300	-10.998000	24.650752	0.001003	20.932336
991.287529	-2.994700	3.652700	-10.937000	24.659083	0.001003	20.938799
992.301215	-2.980800	3.654300	-10.891000	24.655303	0.001004	20.942117
993.288685	-3.014000	3.652700	-11.008000	24.684500	0.001003	20.954818
994.289256	-3.007700	3.651300	-10.981000	24.682262	0.001002	20.941668
995.305052	-2.988700	3.651900	-10.912000	24.726553	0.001002	20.934432
996.292935	-2.991400	3.651500	-10.922000	24.734735	0.001000	20.952123
997.297821	-2.979600	3.651500	-10.879000	24.748909	0.001000	20.959709
998.302278	-3.017100	3.648400	-11.007000	24.742891	0.001001	20.950826
999.306503	-3.010500	3.650600	-10.989000	24.728319	0.001001	20.942367
1000.293222	-3.009700	3.650900	-10.986000	24.720187	0.001003	20.962179
1001.299098	-3.013100	3.648900	-10.993000	24.695641	0.000998	20.938025
1002.293852	-2.983000	3.649700	-10.887000	24.670325	0.000999	20.952922
1003.295015	-3.007100	3.648900	-10.972000	24.650777	0.000999	20.951799
1004.296042	-2.992600	3.648900	-10.918000	24.633368	0.001000	20.941918
1005.302831	-2.976300	3.650000	-10.862000	24.640879	0.000999	20.965099
1006.316070	-2.988500	3.647900	-10.900000	24.610512	0.000997	20.958337
1007.303448	-2.987400	3.647600	-10.896000	24.618694	0.000997	20.951849
1008.294660	-2.995100	3.647500	-10.924000	24.639934	0.000998	20.939498
1009.320858	-2.999400	3.647400	-10.939000	24.668584	0.000995	20.958761
1010.320066	-3.013300	3.647000	-10.989000	24.671966	0.000995	20.956939
1011.330622	-2.997500	3.647300	-10.932000	24.708374	0.000996	20.961705
1012.315201	-2.985000	3.647400	-10.887000	24.716556	0.000994	20.964699
1013.316228	-3.015100	3.645600	-10.991000	24.708772	0.000995	20.977749
1014.319807	-3.003300	3.644600	-10.945000	24.724390	0.000995	20.967344
1015.318907	-2.998100	3.646200	-10.930000	24.741549	0.000995	20.963227
1016.294803	-2.984300	3.646500	-10.879000	24.748562	0.000994	20.956041
1017.300022	-3.004000	3.645200	-10.950000	24.770470	0.000994	20.971861
1018.298246	-2.994800	3.645000	-10.915000	24.781809	0.000992	20.975653
1019.295836	-2.994700	3.646100	-10.917000	24.758235	0.000993	20.963377
1020.296218	-2.986700	3.646100	-10.888000	24.794566	0.000992	20.988928
1021.309675	-3.003000	3.644100	-10.942000	24.771166	0.000992	20.958811
1022.295389	-3.003200	3.643900	-10.943000	24.792104	0.000994	20.974605
1023.296041	-3.016100	3.643800	-10.989000	24.793049	0.000993	20.960857
1024.297008	-3.013700	3.642500	-10.976000	24.798321	0.000991	20.972310
1025.296685	-2.995300	3.642800	-10.910000	24.821124	0.000991	20.980020
1026.324544	-3.000600	3.642200	-10.928000	24.849968	0.000991	20.982890
1027.325254	-3.001100	3.642900	-10.931000	24.865459	0.000990	20.985160
1028.321146	-2.990800	3.642900	-10.894000	24.853971	0.000989	20.994966
1029.293571	-3.006000	3.642300	-10.948000	24.891020	0.000989	20.989951
1030.297589	-2.994100	3.643100	-10.908000	24.874410	0.000987	20.985135
1031.294372	-2.988500	3.641900	-10.883000	24.881224	0.000989	20.959260
1032.325004	-3.003000	3.642200	-10.936000	24.884033	0.000990	20.982940
1033.321444	-2.991100	3.642200	-10.893000	24.899375	0.000989	20.971786
1034.322471	-3.004100	3.642000	-10.940000	24.896664	0.000987	20.985659
1035.321120	-2.991600	3.640600	-10.890000	24.880652	0.000987	20.980020
1036.315409	-2.998000	3.640300	-10.913000	24.858447	0.000990	20.989976
1037.300230	-2.994100	3.641700	-10.903000	24.857005	0.000988	20.993743
1038.322805	-2.991000	3.639800	-10.884000	24.885699	0.000986	20.992197
1039.333982	-2.997600	3.639400	-10.908000	24.900941	0.000987	20.985684
1040.316518	-3.001200	3.639400	-10.922000	24.879781	0.000987	20.999532
1041.340715	-2.998800	3.638800	-10.911000	24.877941	0.000987	20.991523
1042.334379	-2.984800	3.638400	-10.859000	24.859889	0.000984	20.997112
1043.324243	-2.985200	3.638200	-10.859000	24.868443	0.000987	20.981043
1044.321486	-3.000800	3.638700	-10.917000	24.880726	0.000985	21.003325
1045.298232	-2.986500	3.638900	-10.867000	24.859268	0.000986	20.993644
1046.302893	-3.019800	3.635800	-10.978000	24.875380	0.000984	21.016449
1047.304213	-3.006900	3.638000	-10.938000	24.869910	0.000984	20.998160
1048.322213	-3.040600	3.634700	-11.051000	24.912777	0.000985	21.000880
1049.322157	-3.004400	3.637300	-10.927000	24.930380	0.000981	21.008590
1050.315340	-3.010800	3.636200	-10.947000	24.937292	0.000983	21.008415
1051.323910	-3.016900	3.635800	-10.968000	24.915139	0.000983	21.007517
1052.328117	-3.010100	3.635100	-10.941000	24.949426	0.000981	21.004473
1053.324678	-2.991700	3.636800	-10.879000	24.941619	0.000980	20.989527
1054.321447	-2.999800	3.633800	-10.900000	24.948058	0.000981	21.016374
1055.324907	-3.002700	3.634900	-10.914000	24.952285	0.000981	21.019194
1056.308403	-3.020500	3.633900	-10.976000	24.932394	0.000980	21.015351
1057.321930	-3.002700	3.633700	-10.910000	24.906884	0.000980	21.017248
1058.315887	-3.007600	3.634400	-10.929000	24.886619	0.000980	21.002127
1059.309660	-3.002900	3.634100	-10.911000	24.854021	0.000978	21.009238
1060.312967	-3.001000	3.634500	-10.905000	24.854519	0.000978	21.013530
1061.305106	-3.014100	3.634000	-10.951000	24.884805	0.000976	20.995565
1062.318017	-2.982600	3.634400	-10.839000	24.866628	0.000978	20.997711
1063.309544	-3.001300	3.634100	-10.905000	24.848949	0.000979	21.021215
1064.309783	-3.029300	3.632400	-11.002000	24.868966	0.000977	21.026130
1065.312912	-3.007700	3.631300	-10.921000	24.861108	0.000980	21.019668
1066.311547	-3.026800	3.632100	-10.991000	24.881920	0.000977	21.000256
1067.306031	-2.990300	3.632400	-10.861000	24.898057	0.000978	21.005072
1068.325208	-2.995000	3.633000	-10.879000	24.912479	0.000977	21.006744
1069.324872	-2.977400	3.631700	-10.811000	24.896218	0.000977	20.983789
1070.322570	-2.989200	3.631900	-10.855000	24.903776	0.000974	21.000381
1071.330704	-2.995900	3.632800	-10.882000	24.904647	0.000972	21.007418
1072.319742	-3.007900	3.631200	-10.922000	24.904696	0.000974	21.011260
1073.324344	-3.002300	3.630200	-10.898000	24.926478	0.000974	20.993770
1074.327450	-3.014300	3.629700	-10.940000	24.919864	0.000975	20.984288
1075.324463	-3.000900	3.629300	-10.888000	24.911659	0.000974	20.986010
1076.323597	-2.966500	3.630600	-10.768000	24.926726	0.000971	20.997812
1077.337330	-3.011700	3.628900	-10.928000	24.947984	0.000974	20.988804
1078.314929	-3.000800	3.629000	-10.889000	24.935279	0.000970	21.002128
1079.303227	-2.988300	3.629500	-10.844000	24.938561	0.000971	21.002103
1080.306174	-3.008200	3.629000	-10.914000	24.932022	0.000970	20.999808
1081.329457	-3.003600	3.628000	-10.896000	24.948258	0.000968	21.001405
1082.327902	-2.990400	3.628700	-10.849000	24.958029	0.000970	20.997462
1083.307716	-2.979000	3.629200	-10.810000	24.936622	0.000970	20.986883
1084.305274	-3.008200	3.627700	-10.912000	24.951316	0.000969	21.004000
1085.308779	-3.041900	3.625400	-11.026000	24.960565	0.000969	21.000008
1086.310658	-3.012100	3.627400	-10.926000	24.953753	0.000968	20.985586
1087.319274	-3.002800	3.625900	-10.887000	24.914245	0.000969	20.996664
1088.312544	-2.985300	3.627400	-10.827000	24.886944	0.000966	21.007667
1089.312468	-2.971500	3.626600	-10.774000	24.907829	0.000966	20.994493
1090.310942	-2.987600	3.625300	-10.830000	24.911410	0.000968	20.987656
1091.306666	-3.004200	3.624700	-10.888000	24.933290	0.000966	20.996813
1092.313010	-2.991100	3.626000	-10.845000	24.928193	0.000965	20.978424
1093.321822	-3.002200	3.624500	-10.880000	24.942216	0.000965	20.994867
1094.312128	-3.025500	3.624500	-10.965000	24.963151	0.000964	20.974157
1095.313291	-2.999500	3.625900	-10.875000	24.979908	0.000965	20.990975
1096.316767	-3.002000	3.622700	-10.873000	24.987640	0.000962	21.008216
1097.320513	-3.003800	3.623600	-10.883000	24.933414	0.000963	20.985560
1098.336288	-3.018600	3.622900	-10.936000	24.908625	0.000961	20.985810
1099.354208	-2.973700	3.624600	-10.778000	24.862252	0.000962	20.979571
1100.332511	-2.999700	3.622400	-10.866000	24.837163	0.000962	20.975729
1101.327891	-3.012600	3.621600	-10.910000	24.841564	0.000963	20.984412
1102.334784	-2.996600	3.622200	-10.853000	24.808989	0.000960	20.982541
1103.336295	-3.015900	3.621500	-10.920000	24.802474	0.000962	20.967944
1104.343669	-3.016600	3.620700	-10.921000	24.803917	0.000960	20.966073
1105.345834	-2.988500	3.623100	-10.827000	24.807025	0.000960	20.985310
1106.331328	-3.009100	3.620800	-10.894000	24.828161	0.000960	20.999408
1107.336349	-2.998000	3.622400	-10.857000	24.808019	0.000958	21.000056
1108.343446	-2.999800	3.620000	-10.858000	24.847954	0.000959	20.972335
1109.341371	-2.998300	3.621000	-10.856000	24.860710	0.000957	20.972335
1110.342700	-3.008300	3.619900	-10.888000	24.855936	0.000958	20.984611
1111.323740	-2.985600	3.621100	-10.809000	24.820626	0.000958	20.964825
1112.316229	-2.993800	3.618900	-10.834000	24.850366	0.000958	20.966222
1113.325033	-2.996800	3.620200	-10.848000	24.867573	0.000956	20.964525
1114.344432	-3.002200	3.618500	-10.862000	24.885873	0.000956	20.972460
1115.338651	-2.991000	3.618700	-10.823000	24.900021	0.000954	20.982390
1116.345634	-2.995800	3.617700	-10.837000	24.934407	0.000955	20.974705
1117.335932	-3.006100	3.617800	-10.874000	24.942414	0.000956	20.982740
1118.317456	-2.992700	3.618600	-10.829000	24.967451	0.000953	20.973732
1119.322054	-3.020700	3.618300	-10.928000	24.968569	0.000952	20.967269
1120.334104	-2.996000	3.616800	-10.835000	24.962727	0.000954	20.962354
1121.341338	-2.984800	3.618200	-10.799000	24.948555	0.000953	20.968517
1122.354288	-3.016600	3.617700	-10.912000	24.908698	0.000953	20.941793
1123.337723	-2.991000	3.617900	-10.820000	24.922249	0.000952	20.966296
1124.344250	-2.992400	3.614200	-10.813000	24.942910	0.000953	20.981816
1125.321950	-2.998800	3.616300	-10.844000	24.958872	0.000951	20.959908
1126.353815	-2.991800	3.616500	-10.820000	24.983934	0.000951	20.986482
1127.334169	-2.978000	3.615900	-10.766000	24.987738	0.000949	20.985558
1128.335721	-2.990100	3.615800	-10.811000	25.017199	0.000948	20.968666
1129.341010	-2.994300	3.615300	-10.824000	25.021500	0.000948	20.965397
1130.342990	-3.001000	3.614100	-10.845000	25.030326	0.000948	20.965248
1131.324034	-2.999700	3.614500	-10.842000	24.976773	0.000947	20.974080
1132.348130	-2.996600	3.614500	-10.831000	24.986295	0.000946	20.947606
1133.334008	-2.998100	3.614400	-10.835000	24.996961	0.000947	20.944562
1134.337484	-3.002800	3.612900	-10.848000	25.003898	0.000946	20.959583
1135.344031	-3.005400	3.613200	-10.858000	25.021748	0.000945	20.954268
1136.322641	-3.003400	3.613000	-10.851000	25.016900	0.000943	20.952247
1137.332681	-2.990900	3.612700	-10.804000	24.981273	0.000943	20.961055
1138.321466	-2.981600	3.611700	-10.768000	24.930552	0.000942	20.941443
1139.322761	-2.979400	3.611500	-10.759000	24.920258	0.000943	20.940594
1140.322120	-2.976300	3.612900	-10.752000	24.901362	0.000944	20.941542
1141.324468	-3.017300	3.610700	-10.894000	24.922471	0.000941	20.954193
1142.323285	-3.011400	3.610100	-10.870000	24.924013	0.000943	20.952421
1143.321523	-2.990800	3.611900	-10.802000	24.953526	0.000940	20.943638
1144.345959	-3.015900	3.609100	-10.883000	24.965136	0.000941	20.935853
1145.346408	-3.022600	3.610900	-10.912000	24.987488	0.000940	20.929839
1146.350984	-2.991300	3.610000	-10.797000	25.001609	0.000940	20.956339
1147.343062	-2.996200	3.609300	-10.812000	25.027416	0.000939	20.931511
1148.347579	-2.991800	3.609600	-10.798000	25.027093	0.000940	20.946832
1149.354372	-3.009100	3.609900	-10.862000	25.016551	0.000940	20.936252
1150.360223	-3.003600	3.608500	-10.838000	25.017397	0.000940	20.943738
1151.324243	-3.011600	3.606900	-10.860000	25.020057	0.000939	20.951622
1152.346537	-3.006900	3.607200	-10.846000	25.045738	0.000938	20.960805
1153.364206	-3.010800	3.606800	-10.857000	25.041214	0.000939	20.947730
1154.342302	-3.007600	3.606600	-10.846000	25.030051	0.000937	20.921829
1155.350824	-3.003700	3.607100	-10.833000	25.014164	0.000937	20.953294
1156.354478	-2.996300	3.606100	-10.803000	25.036937	0.000935	20.935852
1157.350408	-2.978700	3.606500	-10.741000	25.055459	0.000937	20.933108
1158.344563	-3.014100	3.605900	-10.868000	25.067765	0.000937	20.937874
1159.356475	-3.037600	3.605400	-10.951000	25.059461	0.000937	20.943762
1160.356596	-2.990700	3.605400	-10.782000	25.070723	0.000935	20.955540
1161.361044	-3.000000	3.605700	-10.816000	25.040095	0.000937	20.939970
1162.355538	-2.999500	3.605500	-10.813000	25.048423	0.000935	20.944536
1163.355734	-2.995600	3.604400	-10.796000	25.044371	0.000935	20.935253
1164.351815	-3.010400	3.603200	-10.845000	25.069480	0.000935	20.952396
1165.351541	-2.988200	3.603700	-10.767000	25.036067	0.000931	20.937349
1166.355171	-2.987800	3.603600	-10.765000	25.055807	0.000933	20.926819
1167.360992	-2.997400	3.604000	-10.801000	25.047329	0.000933	20.941541
1168.359614	-3.004500	3.603300	-10.825000	25.049293	0.000931	20.924075
1169.358964	-2.989200	3.603100	-10.769000	25.058840	0.000931	20.927019
1170.369250	-2.997900	3.603300	-10.801000	25.071369	0.000930	20.922527
1171.337194	-3.004000	3.601600	-10.818000	25.065105	0.000931	20.938996
1172.339000	-2.985500	3.603300	-10.757000	25.051928	0.000931	20.917712
1173.341792	-2.973300	3.603000	-10.711000	25.058144	0.000929	20.927269
1174.336923	-3.004600	3.600300	-10.816000	25.093023	0.000930	20.933357
1175.338007	-3.002300	3.601200	-10.810000	25.090835	0.000929	20.945384
1176.353448	-3.011700	3.601200	-10.844000	25.064856	0.000927	20.924524
1177.364989	-3.002200	3.602100	-10.812000	25.032288	0.000928	20.925971
1178.363683	-3.012800	3.599300	-10.843000	25.052351	0.000928	20.925247
1179.362424	-3.015500	3.599500	-10.853000	25.071345	0.000928	20.927718
1180.356266	-2.981900	3.600300	-10.734000	25.074552	0.000927	20.933307
1181.341587	-3.012600	3.599700	-10.842000	25.089468	0.000928	20.917462
1182.347235	-2.989100	3.598400	-10.755000	25.099909	0.000925	20.929839
1183.343251	-2.995300	3.599500	-10.780000	25.118056	0.000926	20.913919
1184.347350	-2.988900	3.598300	-10.754000	25.126583	0.000924	20.906358
1185.335611	-3.009800	3.598400	-10.829000	25.141374	0.000925	20.918360
1186.339816	-2.997000	3.597800	-10.781000	25.137098	0.000921	20.929714
1187.344611	-2.996500	3.597500	-10.779000	25.121189	0.000926	20.935553
1188.348880	-2.967700	3.596300	-10.672000	25.063215	0.000922	20.909602
1189.339303	-3.000200	3.597000	-10.791000	25.055881	0.000923	20.934006
1190.343980	-2.992200	3.596900	-10.762000	25.057423	0.000922	20.923226
1191.341772	-3.000100	3.597400	-10.790000	25.084173	0.000920	20.918785
1192.341599	-3.007200	3.595400	-10.811000	25.085664	0.000921	20.915067
1193.339977	-3.003400	3.594300	-10.793000	25.099735	0.000919	20.942465
1194.340394	-3.005600	3.594800	-10.804000	25.091904	0.000920	20.927493
1195.350842	-2.992000	3.595700	-10.758000	25.096354	0.000917	20.908729
1196.342078	-2.998600	3.595000	-10.778000	25.118479	0.000919	20.905809
1197.341899	-2.968800	3.595100	-10.672000	25.118031	0.000917	20.925746
1198.339847	-2.995300	3.593500	-10.762000	25.083974	0.000918	20.933282
1199.345814	-2.968200	3.595400	-10.671000	25.069132	0.000916	20.915067
1200.341583	-2.999800	3.593000	-10.777000	25.030697	0.000915	20.912996
1201.342776	-3.016000	3.592000	-10.832000	25.056702	0.000916	20.899271
1202.348286	-2.999200	3.593300	-10.776000	25.057572	0.000917	20.934280
1203.340827	-3.013900	3.592600	-10.826000	25.055285	0.000914	20.927718
1204.343971	-2.996300	3.593400	-10.765000	25.071369	0.000912	20.917787
1205.344450	-3.021700	3.591600	-10.851000	25.069928	0.000913	20.889789
1206.342119	-3.011300	3.592000	-10.815000	25.043600	0.000912	20.913619
1207.340929	-3.042200	3.590200	-10.920000	25.056727	0.000910	20.907356
1208.350224	-2.989200	3.591400	-10.735000	25.054439	0.000915	20.890363
1209.344124	-2.973600	3.591700	-10.679000	25.061152	0.000912	20.901367
1210.344855	-2.998000	3.589900	-10.761000	25.033133	0.000912	20.886520
1211.348631	-3.014600	3.589500	-10.819000	25.065279	0.000913	20.909302
1212.346051	-2.973800	3.590200	-10.675000	25.057671	0.000910	20.904511
1213.350624	-2.989200	3.590300	-10.731000	25.111170	0.000911	20.894206
1214.355943	-3.011300	3.588400	-10.804000	25.093619	0.000910	20.899820
1215.355375	-3.028500	3.586600	-10.859000	25.129491	0.000911	20.903114
1216.346903	-2.991500	3.589900	-10.737000	25.136427	0.000909	20.889689
1217.347644	-3.012700	3.587300	-10.806000	25.139385	0.000909	20.908304
1218.356238	-2.975000	3.588400	-10.674000	25.187660	0.000907	20.898922
1219.354636	-2.993400	3.587100	-10.736000	25.184652	0.000906	20.909652
1220.363116	-3.004100	3.589000	-10.780000	25.169315	0.000909	20.908953
1221.354426	-2.992900	3.589500	-10.743000	25.158800	0.000906	20.916414
1222.354097	-3.018800	3.587300	-10.829000	25.174908	0.000907	20.903189
1223.358878	-3.003600	3.587000	-10.773000	25.207347	0.000908	20.894505
1224.354744	-3.015100	3.586300	-10.812000	25.207969	0.000907	20.889440
1225.351773	-3.013300	3.585200	-10.803000	25.215127	0.000906	20.909901
1226.360017	-2.973800	3.587100	-10.666000	25.195192	0.000904	20.914543
1227.364802	-2.987500	3.586500	-10.713000	25.203942	0.000906	20.907206
1228.359842	-2.984100	3.586200	-10.700000	25.174485	0.000905	20.889490
1229.355906	-2.986200	3.584400	-10.703000	25.184677	0.000906	20.904936
1230.360138	-2.992300	3.583600	-10.722000	25.146023	0.000903	20.913070
1231.355313	-2.975600	3.584400	-10.664000	25.123823	0.000903	20.903588
1232.354200	-3.005700	3.584700	-10.774000	25.111220	0.000903	20.883351
1233.355822	-2.987400	3.583900	-10.705000	25.132723	0.000902	20.905410
1234.352195	-3.017300	3.583100	-10.810000	25.121064	0.000903	20.873794
1235.360777	-2.992600	3.583100	-10.722000	25.145550	0.000901	20.904536
1236.357553	-2.998200	3.581800	-10.738000	25.137496	0.000902	20.880806
1237.358341	-2.994200	3.582600	-10.726000	25.133842	0.000901	20.867181
1238.354035	-2.999300	3.582100	-10.743000	25.137297	0.000899	20.897674
1239.363558	-2.999700	3.581500	-10.742000	25.141026	0.000901	20.891461
1240.357486	-2.976600	3.582600	-10.662000	25.136725	0.000898	20.892833
1241.353691	-2.981900	3.581100	-10.677000	25.081264	0.000900	20.886944
1242.360682	-2.973700	3.582700	-10.652000	25.066671	0.000897	20.884149
1243.354124	-2.986600	3.579900	-10.690000	25.062867	0.000896	20.884599
1244.368534	-3.008400	3.580800	-10.772000	25.036017	0.000895	20.856226
1245.367152	-2.988700	3.581700	-10.703000	25.037111	0.000894	20.890039
1246.369252	-3.012200	3.578600	-10.778000	25.021250	0.000895	20.904936
1247.373386	-3.010900	3.578900	-10.776000	25.052575	0.000894	20.866208
1248.364338	-3.040500	3.577300	-10.876000	25.013170	0.000895	20.871698
1249.367562	-3.007600	3.577400	-10.759000	25.021946	0.000894	20.864860
1250.362390	-3.011500	3.577300	-10.772000	25.042755	0.000893	20.883850
1251.368364	-3.014400	3.576700	-10.781000	25.074253	0.000891	20.893657
1252.376651	-2.979600	3.577800	-10.660000	25.088249	0.000891	20.877362
1253.369781	-3.001600	3.576600	-10.735000	25.095136	0.000890	20.880955
1254.367567	-3.002600	3.576000	-10.736000	25.078007	0.000890	20.877038
1255.368623	-3.002600	3.576300	-10.737000	25.048274	0.000891	20.870425
1256.380587	-3.010700	3.576200	-10.765000	25.006358	0.000890	20.863438
1257.370773	-3.015300	3.574900	-10.779000	24.997382	0.000889	20.861067
1258.373051	-3.017100	3.574300	-10.783000	25.017744	0.000889	20.872970
1259.364540	-3.004700	3.575600	-10.743000	25.027216	0.000888	20.872995
1260.374243	-3.012100	3.574800	-10.766000	25.035197	0.000890	20.890014
1261.374815	-3.015500	3.574200	-10.777000	25.074825	0.000888	20.869577
1262.373394	-3.008700	3.575000	-10.755000	25.067392	0.000887	20.863538
1263.381054	-3.012300	3.573900	-10.765000	25.078753	0.000885	20.876838
1264.375655	-3.003800	3.572900	-10.732000	25.109604	0.000888	20.862290
1265.378463	-2.988100	3.573400	-10.676000	25.112985	0.000888	20.861891
1266.372504	-2.999700	3.572900	-10.716000	25.084222	0.000885	20.868578
1267.380014	-3.004600	3.573000	-10.734000	25.078156	0.000885	20.850636
1268.370237	-2.990000	3.573800	-10.685000	25.113731	0.000883	20.863114
1269.381261	-2.986900	3.573700	-10.673000	25.135831	0.000884	20.868229
1270.384734	-3.002500	3.570000	-10.718000	25.161907	0.000884	20.878285
1271.378155	-2.998900	3.571600	-10.710000	25.183012	0.000883	20.872446
1272.376213	-2.981600	3.571900	-10.649000	25.201357	0.000882	20.856251
1273.386756	-3.004600	3.570400	-10.726000	25.199219	0.000880	20.851260
1274.389005	-3.006900	3.571100	-10.737000	25.208739	0.000880	20.856076
1275.384369	-2.996200	3.570300	-10.695000	25.217961	0.000879	20.868653
1276.383010	-3.013900	3.570700	-10.760000	25.208789	0.000880	20.857549
1277.373724	-3.013300	3.571100	-10.757000	25.235933	0.000879	20.865359
1278.381946	-3.016000	3.569400	-10.764000	25.231334	0.000877	20.860743
1279.391988	-2.995600	3.569800	-10.693000	25.220472	0.000878	20.841778
1280.386887	-3.019800	3.568900	-10.776000	25.210355	0.000877	20.854854
1281.383768	-3.016300	3.569000	-10.764000	25.185721	0.000878	20.846244
1282.380396	-3.009100	3.568800	-10.738000	25.199965	0.000875	20.861491
1283.380528	-2.988500	3.568600	-10.664000	25.174162	0.000877	20.848390
1284.384753	-2.982700	3.569100	-10.644000	25.175529	0.000877	20.862090
1285.397755	-2.976800	3.568500	-10.622000	25.186541	0.000876	20.848490
1286.384779	-2.997900	3.566500	-10.691000	25.173118	0.000874	20.851135
1287.384188	-2.984400	3.568400	-10.649000	25.139087	0.000873	20.833093
1288.387335	-3.003600	3.565700	-10.709000	25.166680	0.000874	20.848939
1289.382419	-3.000000	3.565100	-10.694000	25.159844	0.000874	20.848241
1290.387918	-3.004800	3.565600	-10.713000	25.175853	0.000873	20.853406
1291.387299	-3.005600	3.565900	-10.717000	25.172845	0.000873	20.842327
1292.382404	-2.994000	3.565500	-10.674000	25.124395	0.000871	20.860069
1293.389739	-2.994600	3.567000	-10.681000	25.128050	0.000871	20.839082
1294.384395	-3.017500	3.564300	-10.753000	25.167749	0.000871	20.847642
1295.391238	-2.990400	3.564200	-10.657000	25.181098	0.000872	20.860094
1296.400596	-3.004400	3.564000	-10.707000	25.210753	0.000871	20.842451
1297.392866	-2.974900	3.565100	-10.604000	25.229271	0.000871	20.850611
1298.385520	-3.006600	3.563900	-10.715000	25.239239	0.000869	20.834067
1299.392519	-2.996600	3.562000	-10.672000	25.271353	0.000868	20.842601
1300.394504	-3.003000	3.564100	-10.701000	25.261236	0.000869	20.815850
1301.387677	-3.000100	3.562500	-10.686000	25.239388	0.000869	20.839906
1302.390793	-3.011300	3.561900	-10.726000	25.223554	0.000866	20.849139
1303.388628	-3.016300	3.562100	-10.744000	25.198249	0.000866	20.839382
1304.386198	-3.008900	3.561900	-10.716000	25.211125	0.000866	20.825757
1305.391066	-3.001300	3.560800	-10.686000	25.206800	0.000866	20.822363
1306.390473	-2.999000	3.559900	-10.676000	25.226263	0.000868	20.841428
1307.394446	-2.986500	3.562500	-10.639000	25.220944	0.000865	20.840355
1308.388962	-2.991100	3.560200	-10.648000	25.225766	0.000867	20.850412
1309.396722	-2.992800	3.559800	-10.653000	25.251120	0.000866	20.826555
1310.389665	-2.999300	3.560300	-10.678000	25.263772	0.000865	20.844947
1311.389937	-3.018800	3.559400	-10.743000	25.278983	0.000865	20.844098
1312.387805	-3.000500	3.559500	-10.680000	25.286142	0.000864	20.838958
1313.392796	-3.029700	3.557800	-10.778000	25.296879	0.000865	20.848316
1314.392857	-3.000900	3.557900	-10.676000	25.277915	0.000861	20.825008
1315.394047	-2.990000	3.559100	-10.640000	25.239611	0.000862	20.833493
1316.392971	-3.003800	3.558000	-10.687000	25.209659	0.000861	20.823336
1317.398345	-2.988900	3.557600	-10.632000	25.181371	0.000863	20.832869
1318.392118	-2.991000	3.558400	-10.642000	25.206129	0.000861	20.829750
1319.394566	-3.022300	3.556300	-10.747000	25.172198	0.000861	20.832669
1320.393868	-3.009600	3.555200	-10.699000	25.201158	0.000862	20.835664
1321.389721	-2.997900	3.556800	-10.662000	25.211921	0.000859	20.843150
1322.396753	-2.986200	3.556900	-10.621000	25.211722	0.000861	20.818295
1323.395984	-2.998100	3.555300	-10.659000	25.216495	0.000859	20.853906
1324.399031	-2.986400	3.554600	-10.614000	25.207621	0.000859	20.822712
1325.394365	-3.009900	3.554900	-10.698000	25.166680	0.000859	20.830922
1326.400025	-2.980600	3.554900	-10.595000	25.175505	0.000858	20.818919
1327.394200	-2.984200	3.555400	-10.609000	25.205210	0.000856	20.827878
1328.395715	-3.001300	3.554100	-10.666000	25.177941	0.000857	20.820417
1329.401267	-2.981900	3.554700	-10.598000	25.240482	0.000858	20.817771
1330.398710	-3.000300	3.553000	-10.659000	25.237673	0.000855	20.824909
1331.403622	-3.001700	3.554100	-10.667000	25.229818	0.000855	20.820342
1332.397630	-2.992200	3.554400	-10.634000	25.224176	0.000855	20.817522
1333.391803	-3.021500	3.551800	-10.731000	25.237027	0.000854	20.814303
1334.396429	-2.986900	3.552400	-10.609000	25.227010	0.000852	20.822738
1335.399823	-3.016500	3.550800	-10.709000	25.231509	0.000853	20.834841
1336.393910	-2.967600	3.552700	-10.541000	25.246746	0.000853	20.825483
1337.394775	-2.986000	3.553000	-10.608000	25.254352	0.000850	20.810834
1338.402159	-2.998800	3.550600	-10.647000	25.260989	0.000850	20.836463
1339.398097	-2.996400	3.551100	-10.639000	25.288752	0.000849	20.822613
1340.404219	-3.002300	3.549600	-10.656000	25.291934	0.000849	20.816799
1341.397161	-3.026300	3.550400	-10.744000	25.312290	0.000850	20.830599
1342.405706	-2.992100	3.549700	-10.620000	25.289797	0.000847	20.825084
1343.395976	-2.990800	3.549100	-10.613000	25.274113	0.000847	20.820717
1344.408538	-2.994000	3.549400	-10.626000	25.269962	0.000848	20.829351
1345.397631	-3.030400	3.547400	-10.748000	25.268595	0.000847	20.811384
1346.400517	-2.994000	3.546900	-10.617000	25.268297	0.000848	20.824835
1347.410559	-2.997000	3.548200	-10.633000	25.287808	0.000847	20.836838
1348.404675	-2.975100	3.548400	-10.556000	25.283384	0.000845	20.830499
1349.407659	-2.975000	3.548700	-10.556000	25.281669	0.000845	20.823562
1350.399251	-2.990100	3.547500	-10.606000	25.296806	0.000845	20.825484
1351.401033	-2.997700	3.546800	-10.631000	25.293177	0.000843	20.834642
1352.401928	-2.995000	3.548200	-10.625000	25.295713	0.000842	20.820593
1353.405515	-2.995200	3.547300	-10.624000	25.265389	0.000842	20.822389
1354.402266	-3.001400	3.547700	-10.646000	25.231087	0.000842	20.832521
1355.402036	-3.002600	3.547100	-10.649000	25.228875	0.000843	20.830774
1356.409899	-2.992100	3.545700	-10.608000	25.214856	0.000842	20.835666
1357.406011	-3.011500	3.544900	-10.675000	25.231833	0.000839	20.822839
1358.409019	-2.997800	3.545900	-10.629000	25.222586	0.000840	20.823987
1359.403962	-2.998200	3.544400	-10.626000	25.241900	0.000839	20.822515
1360.414405	-2.975400	3.547000	-10.552000	25.240086	0.000837	20.823538
1361.399171	-3.017100	3.543800	-10.691000	25.267005	0.000837	20.832072
1362.402725	-3.006200	3.542700	-10.649000	25.285995	0.000837	20.819845
1363.406240	-3.007000	3.543800	-10.655000	25.267999	0.000837	20.834493
1364.407327	-3.004200	3.543700	-10.645000	25.285150	0.000836	20.843177
1365.401950	-2.993500	3.543500	-10.606000	25.318853	0.000836	20.823912
1366.401799	-3.025700	3.541200	-10.713000	25.347734	0.000836	20.817349
1367.406808	-2.968100	3.543100	-10.515000	25.319897	0.000835	20.830176
1368.412021	-2.999800	3.540400	-10.619000	25.312988	0.000835	20.841256
1369.410291	-2.988700	3.541600	-10.584000	25.335804	0.000835	20.809638
1370.398620	-2.995400	3.541000	-10.606000	25.352556	0.000835	20.849691
1371.403231	-2.999100	3.539800	-10.615000	25.357701	0.000831	20.837313
1372.399584	-3.004600	3.541400	-10.639000	25.336351	0.000831	20.831524
1373.411242	-2.995700	3.539200	-10.601000	25.321488	0.000831	20.840782
1374.411828	-2.987900	3.540700	-10.578000	25.321637	0.000831	20.830501
1375.414341	-2.987900	3.539300	-10.573000	25.334835	0.000831	20.811510
1376.402892	-3.017200	3.539800	-10.679000	25.326708	0.000829	20.837014
1377.408669	-3.016100	3.537800	-10.668000	25.360783	0.000830	20.804373
1378.411248	-3.003000	3.539000	-10.626000	25.387102	0.000828	20.833645
1379.399772	-3.004400	3.538400	-10.630000	25.365480	0.000828	20.831374
1380.406394	-3.004500	3.536900	-10.625000	25.392545	0.000830	20.844325
1381.403297	-2.997700	3.538000	-10.604000	25.355439	0.000830	20.832198
1382.404806	-3.008800	3.536800	-10.641000	25.358670	0.000827	20.839709
1383.410852	-3.002500	3.538500	-10.623000	25.347461	0.000825	20.839834
1384.409272	-2.994000	3.536400	-10.587000	25.346218	0.000828	20.840008
1385.410522	-2.980000	3.537100	-10.539000	25.363492	0.000827	20.851188
1386.414927	-2.990000	3.534600	-10.567000	25.380318	0.000826	20.821617
1387.412332	-3.014000	3.534400	-10.651000	25.396795	0.000824	20.821093
1388.405124	-3.004200	3.535400	-10.619000	25.404400	0.000828	20.838686
1389.426372	-2.993900	3.535800	-10.584000	25.399430	0.000824	20.837014
1390.405375	-3.007600	3.533800	-10.627000	25.360584	0.000823	20.837363
1391.406800	-2.990500	3.533800	-10.566000	25.347088	0.000825	20.824287
1392.410783	-3.024100	3.533800	-10.686000	25.359565	0.000824	20.824486
1393.407794	-3.005100	3.534300	-10.620000	25.363144	0.000824	20.852735
1394.405625	-3.012900	3.531900	-10.640000	25.369457	0.000823	20.832996
1395.410001	-3.021700	3.532300	-10.672000	25.347759	0.000823	20.835392
1396.419190	-3.002200	3.532900	-10.606000	25.332076	0.000821	20.831025
1397.403819	-3.003600	3.532000	-10.608000	25.321563	0.000821	20.828055
1398.407712	-3.053600	3.532400	-10.785000	25.323427	0.000819	20.834668
1399.407830	-3.010900	3.532700	-10.636000	25.342515	0.000818	20.834394
1400.407775	-3.005900	3.530300	-10.612000	25.374900	0.000820	20.833246
1401.410486	-3.008000	3.530700	-10.619000	25.371818	0.000819	20.830626
1402.413354	-2.974400	3.530300	-10.499000	25.314082	0.000818	20.828130
1403.407491	-3.011000	3.529900	-10.628000	25.279384	0.000818	20.846397
1404.411475	-2.986500	3.530600	-10.543000	25.273617	0.000820	20.833969
1405.416125	-2.997200	3.529200	-10.576000	25.280825	0.000818	20.835991
1406.413046	-3.005500	3.530300	-10.609000	25.271803	0.000816	20.837363
1407.414732	-3.010100	3.528300	-10.619000	25.301356	0.000817	20.840008
1408.413399	-3.007300	3.527300	-10.606000	25.359043	0.000814	20.837238
1409.412473	-2.999400	3.530300	-10.587000	25.343683	0.000815	20.819446
1410.415211	-3.000900	3.529600	-10.591000	25.370426	0.000817	20.820693
1411.412872	-2.991600	3.530200	-10.560000	25.386084	0.000813	20.849691
1412.415236	-3.007800	3.528400	-10.611000	25.364287	0.000814	20.851038
1413.415798	-3.033100	3.527300	-10.697000	25.357527	0.000815	20.844251
1414.422219	-3.008100	3.525900	-10.605000	25.374154	0.000813	20.823963
1415.416116	-3.003600	3.526800	-10.592000	25.403431	0.000812	20.852411
1416.423956	-3.021500	3.526000	-10.652000	25.413869	0.000812	20.842030
1417.417802	-2.990100	3.525500	-10.541000	25.422891	0.000811	20.833071
1418.416993	-3.017700	3.524900	-10.636000	25.428582	0.000811	20.844475
1419.416908	-3.025600	3.523900	-10.660000	25.420033	0.000812	20.856753
1420.417743	-2.979700	3.527300	-10.508000	25.428234	0.000811	20.838911
1421.430587	-2.988800	3.525400	-10.535000	25.436957	0.000809	20.847196
1422.422732	-3.001100	3.525900	-10.581000	25.468917	0.000810	20.861744
1423.426412	-3.002000	3.524500	-10.580000	25.445183	0.000808	20.848818
1424.424145	-3.006600	3.523700	-10.593000	25.416380	0.000809	20.856878
1425.423141	-3.026100	3.522600	-10.658000	25.387029	0.000807	20.825985
1426.421746	-2.986200	3.523400	-10.521000	25.386159	0.000808	20.850241
1427.420996	-3.002000	3.522900	-10.575000	25.378628	0.000807	20.852162
1428.435555	-2.990800	3.521700	-10.531000	25.351513	0.000807	20.861445
1429.426374	-2.996200	3.524100	-10.558000	25.357926	0.000806	20.849392
1430.426761	-3.005400	3.521100	-10.581000	25.372614	0.000806	20.839485
1431.426765	-3.003800	3.523300	-10.582000	25.376988	0.000806	20.854308
1432.430413	-2.979000	3.522500	-10.493000	25.384196	0.000803	20.868657
1433.419372	-2.984200	3.520900	-10.506000	25.346145	0.000804	20.843728
1434.434537	-3.013700	3.520900	-10.609000	25.340478	0.000806	20.858900
1435.426419	-2.988600	3.519900	-10.519000	25.344629	0.000804	20.862593
1436.423939	-3.001800	3.520100	-10.566000	25.341448	0.000802	20.842331
1437.428252	-3.013200	3.520200	-10.606000	25.362897	0.000802	20.845849
1438.438838	-2.990800	3.519800	-10.525000	25.330910	0.000801	20.863043
1439.428962	-2.981700	3.519800	-10.494000	25.337844	0.000804	20.855307
1440.425675	-3.005700	3.518800	-10.575000	25.339982	0.000802	20.867410
1441.425956	-2.967700	3.519000	-10.441000	25.326038	0.000802	20.860997
1442.423022	-2.968300	3.520100	-10.448000	25.314059	0.000799	20.850865
1443.429595	-2.997800	3.517800	-10.545000	25.325417	0.000799	20.842356
1444.430268	-3.015300	3.515000	-10.598000	25.341100	0.000798	20.856206
1445.424483	-2.990100	3.518200	-10.519000	25.326014	0.000797	20.844852
1446.427099	-3.011600	3.515800	-10.588000	25.350893	0.000799	20.857503
1447.428098	-2.976900	3.516500	-10.467000	25.342244	0.000796	20.870629
1448.449894	-2.984900	3.516200	-10.495000	25.340852	0.000797	20.862594
1449.425200	-3.008900	3.515200	-10.576000	25.360039	0.000795	20.840609
1450.432580	-3.003100	3.515700	-10.556000	25.342567	0.000796	20.856730
1451.427546	-2.994500	3.515500	-10.526000	25.332302	0.000794	20.867286
1452.429545	-3.006100	3.514300	-10.564000	25.300812	0.000795	20.840410
1453.430566	-3.003800	3.516200	-10.561000	25.300911	0.000795	20.855682
1454.429152	-2.985300	3.514100	-10.490000	25.314482	0.000794	20.866936
1455.427761	-2.987300	3.514300	-10.498000	25.336155	0.000793	20.893911
1456.430677	-3.004300	3.512500	-10.551000	25.311872	0.000792	20.867161
1457.430076	-2.992600	3.512100	-10.508000	25.319627	0.000793	20.855508
1458.426609	-2.997000	3.513200	-10.528000	25.334266	0.000789	20.863094
1459.432020	-3.004300	3.510600	-10.546000	25.335682	0.000790	20.849818
1460.430580	-2.990900	3.512000	-10.503000	25.310381	0.000791	20.876094
1461.439222	-3.012700	3.510500	-10.574000	25.297307	0.000788	20.851590
1462.431884	-2.984300	3.512700	-10.482000	25.263081	0.000789	20.878864
1463.427417	-3.017700	3.510300	-10.591000	25.275409	0.000789	20.863268
1464.428338	-2.982200	3.511100	-10.470000	25.307945	0.000788	20.861322
1465.434587	-2.993200	3.510600	-10.507000	25.308591	0.000787	20.878565
1466.433921	-2.990200	3.510300	-10.496000	25.294722	0.000787	20.858003
1467.428819	-2.986200	3.510400	-10.482000	25.307398	0.000787	20.860299
1468.440572	-2.980800	3.510600	-10.463000	25.289030	0.000785	20.857978
1469.426891	-3.018600	3.507900	-10.586000	25.271109	0.000786	20.863692
1470.430642	-2.995000	3.509200	-10.509000	25.294374	0.000784	20.876619
1471.437434	-3.021500	3.508000	-10.599000	25.282866	0.000783	20.878815
1472.436072	-3.003400	3.508700	-10.537000	25.317415	0.000786	20.890742
1473.434310	-3.000300	3.506700	-10.520000	25.332054	0.000784	20.882208
1474.445268	-3.012500	3.506000	-10.560000	25.330165	0.000783	20.870829
1475.432240	-3.010100	3.505600	-10.551000	25.327331	0.000786	20.876044
1476.438694	-3.001100	3.506100	-10.521000	25.342244	0.000782	20.874897
1477.433301	-2.998100	3.506100	-10.510000	25.301458	0.000782	20.872826
1478.433248	-3.020500	3.504400	-10.583000	25.295243	0.000782	20.882707
1479.433371	-2.987900	3.504900	-10.470000	25.272401	0.000780	20.873050
1480.432906	-3.010200	3.505700	-10.552000	25.279783	0.000782	20.879987
1481.437601	-2.982400	3.503400	-10.448000	25.289676	0.000782	20.876169
1482.433459	-2.995000	3.504300	-10.494000	25.313561	0.000781	20.874547
1483.439913	-2.986400	3.504300	-10.463000	25.312145	0.000781	20.885926
1484.445706	-3.001400	3.502900	-10.512000	25.325815	0.000779	20.880211
1485.441459	-2.977200	3.503800	-10.430000	25.310281	0.000778	20.884528
1486.442263	-2.991300	3.505200	-10.484000	25.321789	0.000778	20.863842
1487.435631	-2.992100	3.504900	-10.485000	25.340156	0.000778	20.873748
1488.443244	-3.016400	3.502100	-10.562000	25.357156	0.000780	20.855257
1489.435105	-2.998700	3.502500	-10.501000	25.332650	0.000778	20.892763
1490.435732	-3.007300	3.502300	-10.532000	25.336775	0.000778	20.886474
1491.438518	-3.013300	3.501800	-10.551000	25.351589	0.000778	20.871477
1492.447772	-3.037400	3.499800	-10.627000	25.340727	0.000776	20.896606
1493.436770	-3.008100	3.502700	-10.536000	25.381836	0.000776	20.891416
1494.439206	-2.984300	3.502200	-10.450000	25.392497	0.000775	20.879363
1495.441996	-2.995900	3.500700	-10.487000	25.428062	0.000775	20.879038
1496.435277	-3.008500	3.500100	-10.530000	25.430323	0.000776	20.892214
1497.438359	-3.005800	3.501200	-10.523000	25.459076	0.000777	20.892638
1498.440795	-3.013300	3.499700	-10.545000	25.480548	0.000773	20.888596
1499.435662	-3.031700	3.497100	-10.602000	25.462009	0.000774	20.887523
1500.436984	-3.016400	3.499400	-10.554000	25.446775	0.000772	20.891190
1501.447968	-3.000600	3.498800	-10.498000	25.467377	0.000773	20.880585
1502.436504	-3.021400	3.496000	-10.561000	25.470061	0.000770	20.896555
1503.446914	-3.001700	3.497300	-10.497000	25.497322	0.000770	20.905439
1504.447246	-2.992100	3.496400	-10.460000	25.515115	0.000768	20.898177
1505.435052	-3.002400	3.497300	-10.499000	25.500155	0.000769	20.892164
1506.438737	-3.007500	3.496300	-10.514000	25.466631	0.000770	20.881733
1507.447021	-3.009100	3.495800	-10.518000	25.442724	0.000769	20.897080
1508.441673	-3.012200	3.495200	-10.527000	25.434548	0.000770	20.887922
1509.439854	-2.997900	3.496300	-10.480000	25.456467	0.000767	20.883854
1510.439478	-2.991300	3.494700	-10.453000	25.421127	0.000767	20.889618
1511.438251	-2.993500	3.494300	-10.459000	25.406117	0.000766	20.892563
1512.451566	-2.994700	3.494000	-10.462000	25.398959	0.000766	20.896755
1513.440589	-3.000600	3.493900	-10.482000	25.419935	0.000767	20.892214
1514.441668	-3.007400	3.493000	-10.504000	25.430273	0.000766	20.896905
1515.451237	-2.999100	3.493100	-10.474000	25.431342	0.000767	20.918839
1516.439811	-3.001200	3.492300	-10.480000	25.454603	0.000765	20.896680
1517.445454	-3.014300	3.492700	-10.526000	25.468445	0.000766	20.902519
1518.440059	-2.999500	3.492000	-10.473000	25.452167	0.000766	20.910829
1519.441788	-3.008700	3.492900	-10.508000	25.472993	0.000764	20.908982
1520.444014	-2.984500	3.491700	-10.419000	25.467277	0.000764	20.898502
1521.446936	-3.005800	3.490700	-10.492000	25.486686	0.000765	20.924153
1522.447968	-3.014500	3.491700	-10.525000	25.490413	0.000765	20.907510
1523.441412	-3.005800	3.491200	-10.493000	25.495085	0.000761	20.916942
1524.451705	-3.004800	3.489900	-10.485000	25.468420	0.000761	20.919562
1525.449681	-3.010500	3.490500	-10.507000	25.463201	0.000761	20.895357
1526.453986	-2.996500	3.490600	-10.459000	25.488152	0.000761	20.914247
1527.448703	-3.011000	3.488800	-10.502000	25.471253	0.000762	20.932837
1528.443419	-3.001500	3.488900	-10.471000	25.441009	0.000761	20.919063
1529.440324	-3.005700	3.488300	-10.484000	25.451422	0.000759	20.907709
1530.448952	-2.990900	3.487500	-10.430000	25.430646	0.000756	20.886374
1531.445226	-3.017600	3.487000	-10.521000	25.412926	0.000758	20.908408
1532.442676	-2.994900	3.488200	-10.446000	25.416629	0.000758	20.930142
1533.448390	-2.984700	3.488000	-10.410000	25.436934	0.000758	20.909756
1534.448328	-2.978700	3.488400	-10.390000	25.462556	0.000757	20.905140
1535.447740	-2.996100	3.487300	-10.447000	25.441880	0.000754	20.900973
1536.446374	-3.005200	3.486500	-10.475000	25.419587	0.000757	20.928845
1537.451413	-3.015400	3.486000	-10.509000	25.429379	0.000754	20.915446
1538.445640	-3.008800	3.485700	-10.487000	25.438227	0.000753	20.937130
1539.445652	-3.006200	3.485600	-10.477000	25.456269	0.000754	20.921584
1540.449252	-3.004700	3.484000	-10.467000	25.446999	0.000755	20.907061
1541.452610	-2.972300	3.485600	-10.360000	25.454082	0.000754	20.938826
1542.449744	-2.998100	3.483600	-10.443000	25.460295	0.000754	20.924678
1543.453715	-2.990000	3.484400	-10.416000	25.459251	0.000753	20.911304
1544.454549	-3.002000	3.482900	-10.454000	25.447496	0.000754	20.938851
1545.454753	-3.010300	3.483400	-10.485000	25.403359	0.000751	20.925826
1546.451233	-3.017700	3.481700	-10.506000	25.394288	0.000752	20.923356
1547.449569	-2.984600	3.482900	-10.394000	25.404453	0.000751	20.924080
1548.448767	-3.021600	3.480700	-10.517000	25.403036	0.000752	20.908434
1549.448238	-3.007100	3.481400	-10.468000	25.368863	0.000749	20.929120
1550.448856	-3.008300	3.482200	-10.475000	25.352484	0.000750	20.915047
1551.450783	-2.985300	3.481800	-10.392000	25.344705	0.000750	20.935683
1552.450785	-3.027400	3.479300	-10.531000	25.335037	0.000750	20.931192
1553.446419	-2.996100	3.479900	-10.425000	25.356760	0.000748	20.917443
1554.451632	-2.981000	3.479500	-10.371000	25.382980	0.000748	20.939026
1555.450800	-2.984500	3.479400	-10.383000	25.410790	0.000748	20.945614
1556.451459	-2.998600	3.477500	-10.427000	25.425155	0.000750	20.933013
1557.452602	-3.009300	3.477700	-10.464000	25.432412	0.000748	20.936506
1558.451820	-3.008100	3.477900	-10.461000	25.416805	0.000747	20.939800
1559.458138	-2.994300	3.479400	-10.418000	25.408330	0.000747	20.934610
1560.453433	-3.006800	3.476400	-10.451000	25.457885	0.000746	20.932215
1561.463732	-3.016100	3.478000	-10.489000	25.472622	0.000746	20.922358
1562.454927	-2.995000	3.478100	-10.416000	25.451697	0.000746	20.939750
1563.451787	-3.020200	3.475200	-10.494000	25.445931	0.000742	20.947236
1564.455528	-2.987900	3.476900	-10.388000	25.427665	0.000744	20.924629
1565.456054	-3.010100	3.475800	-10.462000	25.402465	0.000743	20.950530
1566.455812	-3.000400	3.476500	-10.430000	25.391480	0.000744	20.933338
1567.454184	-2.989700	3.475700	-10.390000	25.399457	0.000740	20.931865
1568.466434	-3.007700	3.475900	-10.453000	25.390411	0.000741	20.933213
1569.465726	-3.002300	3.475300	-10.433000	25.449808	0.000739	20.929320
1570.466417	-3.008100	3.473600	-10.449000	25.424533	0.000741	20.955620
1571.478858	-3.015200	3.473500	-10.473000	25.488725	0.000741	20.928572
1572.471399	-3.005100	3.474400	-10.440000	25.465614	0.000739	20.943768
1573.460670	-3.000200	3.472800	-10.419000	25.449659	0.000737	20.951453
1574.466615	-2.987900	3.472600	-10.374000	25.436562	0.000738	20.944466
1575.458885	-3.017100	3.470400	-10.468000	25.448566	0.000740	20.952725
1576.459625	-2.990000	3.473400	-10.383000	25.465116	0.000739	20.969817
1577.474735	-3.018800	3.470900	-10.477000	25.473566	0.000738	20.947959
1578.457882	-3.005800	3.472200	-10.435000	25.498516	0.000736	20.948833
1579.466305	-3.004800	3.470900	-10.428000	25.493124	0.000738	20.946737
1580.465783	-2.985600	3.472600	-10.366000	25.494366	0.000738	20.962207
1581.459252	-2.997900	3.470100	-10.402000	25.514644	0.000736	20.962182
1582.475505	-3.008000	3.470900	-10.439000	25.506096	0.000739	20.951702
1583.465742	-3.029800	3.468500	-10.507000	25.519316	0.000737	20.946013
1584.462356	-3.016700	3.468000	-10.461000	25.544762	0.000738	20.955919
1585.461973	-3.009100	3.466900	-10.430000	25.575848	0.000737	20.969119
1586.463420	-3.007600	3.467900	-10.430000	25.574059	0.000735	20.957840
1587.460379	-3.000200	3.466700	-10.399000	25.565213	0.000735	20.966973
1588.467214	-2.978900	3.467000	-10.325000	25.560268	0.000734	20.954896
1589.471502	-3.011700	3.467400	-10.442000	25.543892	0.000734	20.971165
1590.462803	-3.008500	3.466700	-10.429000	25.521652	0.000733	20.962581
1591.464247	-3.024700	3.466500	-10.483000	25.476026	0.000731	20.963230
1592.477071	-2.994200	3.466500	-10.376000	25.502666	0.000730	20.946363
1593.465567	-2.994600	3.465900	-10.377000	25.473367	0.000732	20.979050
1594.468091	-2.996700	3.465300	-10.383000	25.451821	0.000730	20.959787
1595.469754	-2.988600	3.465000	-10.354000	25.439619	0.000730	20.966025
1596.462008	-2.979800	3.466200	-10.327000	25.476747	0.000731	20.974858
1597.474294	-3.006100	3.464100	-10.413000	25.456369	0.000730	20.971464
1598.467928	-2.988900	3.464900	-10.354000	25.495957	0.000730	20.962382
1599.463804	-2.988100	3.463400	-10.349000	25.478859	0.000728	20.970341
1600.461956	-2.994800	3.462900	-10.369000	25.533977	0.000727	20.971639
1601.468384	-2.993400	3.463000	-10.365000	25.527690	0.000728	20.972437
1602.466210	-2.975300	3.462400	-10.300000	25.501921	0.000728	20.984963
1603.464427	-3.001700	3.461700	-10.390000	25.514470	0.000727	20.964852
1604.463840	-3.011200	3.462300	-10.425000	25.511911	0.000727	20.988830
1605.463932	-3.020800	3.459300	-10.449000	25.523888	0.000725	20.978575
1606.480694	-3.001700	3.461100	-10.387000	25.541209	0.000727	20.973211
1607.464645	-3.008100	3.460200	-10.407000	25.563399	0.000725	20.967522
1608.474695	-2.978500	3.460500	-10.306000	25.554304	0.000725	20.971190
1609.477120	-3.022000	3.459800	-10.454000	25.571028	0.000724	20.978501
1610.469822	-2.981900	3.459800	-10.316000	25.608276	0.000724	20.983191
1611.466833	-2.993500	3.459000	-10.354000	25.618364	0.000723	20.965351
1612.464429	-3.024100	3.457900	-10.457000	25.619780	0.000723	20.955869
1613.468485	-2.991500	3.458300	-10.344000	25.605815	0.000722	20.972662
1614.470663	-3.020500	3.456900	-10.442000	25.601815	0.000721	20.990926
1615.473953	-3.008300	3.457100	-10.399000	25.588397	0.000722	20.967023
1616.471402	-2.972700	3.458100	-10.278000	25.611257	0.000721	20.961533
1617.468595	-2.988300	3.455600	-10.325000	25.590484	0.000722	20.976230
1618.468070	-3.021400	3.457100	-10.445000	25.548340	0.000721	20.973260
1619.471718	-2.995200	3.456900	-10.353000	25.494614	0.000719	20.962456
1620.470234	-2.972800	3.458800	-10.280000	25.492403	0.000719	20.959762
1621.467928	-3.002700	3.456600	-10.378000	25.421973	0.000718	20.953049
1622.481795	-2.962100	3.455500	-10.235000	25.385738	0.000719	20.972612
1623.472219	-3.008900	3.454600	-10.394000	25.344581	0.000716	20.966374
1624.471240	-2.993400	3.455000	-10.341000	25.337945	0.000717	20.969193
1625.470064	-3.017200	3.453300	-10.417000	25.353901	0.000715	20.939700
1626.468631	-3.000600	3.454300	-10.364000	25.367098	0.000716	20.972861
1627.470980	-3.022200	3.452800	-10.434000	25.421650	0.000715	20.965525
1628.482780	-3.007800	3.453000	-10.385000	25.408702	0.000716	20.979074
1629.473223	-3.015900	3.453000	-10.413000	25.455076	0.000713	20.967322
1630.477636	-3.002400	3.451600	-10.362000	25.485991	0.000714	20.943368
1631.476709	-3.004500	3.452800	-10.373000	25.454678	0.000714	20.966448
1632.473204	-3.022500	3.451000	-10.429000	25.462507	0.000713	20.962456
1633.470201	-3.007500	3.451100	-10.378000	25.472596	0.000711	20.965001
1634.471506	-2.960300	3.452000	-10.218000	25.443296	0.000712	20.952650
1635.477246	-3.011600	3.448600	-10.385000	25.374355	0.000712	20.955020
1636.473355	-3.002500	3.450100	-10.358000	25.377561	0.000711	20.944964
1637.487653	-2.993700	3.449400	-10.326000	25.319079	0.000711	20.962580
1638.474875	-3.007200	3.450800	-10.376000	25.282542	0.000710	20.953872
1639.469184	-2.983300	3.449400	-10.290000	25.290769	0.000710	20.952175
1640.475471	-2.996700	3.448400	-10.332000	25.324124	0.000707	20.949630
1641.478578	-2.985400	3.448900	-10.294000	25.370353	0.000709	20.932038
1642.472939	-2.997300	3.448700	-10.336000	25.388197	0.000708	20.957540
1643.479478	-3.006800	3.446100	-10.360000	25.442674	0.000707	20.946810
1644.485507	-3.005600	3.448100	-10.362000	25.459424	0.000706	20.943716
1645.475384	-2.983000	3.448700	-10.286000	25.452416	0.000706	20.951850
1646.477221	-3.005800	3.447200	-10.360000	25.470905	0.000705	20.943865
1647.474807	-2.985700	3.445900	-10.287000	25.468296	0.000704	20.934608
1648.487653	-2.993200	3.446200	-10.314000	25.456665	0.000704	20.942842
1649.479062	-2.975300	3.446400	-10.252000	25.429999	0.000702	20.935506
1650.492610	-2.995100	3.445800	-10.319000	25.440362	0.000703	20.931214
1651.479754	-2.994900	3.443700	-10.313000	25.457907	0.000703	20.936030
1652.478084	-2.976500	3.446500	-10.258000	25.481541	0.000702	20.932736
1653.482351	-3.005600	3.443500	-10.349000	25.502092	0.000703	20.937252
1654.481683	-3.007600	3.443200	-10.354000	25.524706	0.000702	20.945736
1655.481758	-3.008500	3.442900	-10.356000	25.521326	0.000700	20.929068
1656.482507	-2.976300	3.443100	-10.247000	25.498091	0.000703	20.919960
1657.489796	-2.973100	3.442900	-10.235000	25.468419	0.000702	20.909605
1658.482119	-2.998600	3.442500	-10.321000	25.460318	0.000701	20.926597
1659.488939	-2.997300	3.442100	-10.315000	25.448513	0.000701	20.904315
1660.480702	-3.005100	3.443600	-10.347000	25.456391	0.000701	20.917914
1661.489957	-2.999300	3.441500	-10.321000	25.480571	0.000699	20.914695
1662.481256	-3.005600	3.440800	-10.341000	25.529402	0.000701	20.922006
1663.488824	-2.993600	3.441000	-10.300000	25.525526	0.000699	20.898675
1664.483792	-3.032500	3.439900	-10.430000	25.522867	0.000701	20.917814
1665.487596	-3.018000	3.439100	-10.378000	25.533875	0.000700	20.915593
1666.483546	-2.994000	3.438900	-10.295000	25.569111	0.000699	20.919685
1667.487774	-3.019800	3.438500	-10.382000	25.558973	0.000698	20.943640
1668.489624	-2.977000	3.440800	-10.241000	25.592171	0.000699	20.926722
1669.487175	-3.006800	3.438800	-10.340000	25.596967	0.000700	20.902617
1670.487443	-2.986800	3.439300	-10.271000	25.581983	0.000697	20.917914
1671.483421	-2.989800	3.438300	-10.279000	25.568068	0.000698	20.900147
1672.484254	-3.002000	3.437600	-10.318000	25.584567	0.000699	20.901070
1673.488143	-3.008600	3.436000	-10.336000	25.570652	0.000697	20.921232
1674.490275	-3.002700	3.437100	-10.320000	25.551419	0.000698	20.913297
1675.486798	-2.968900	3.437900	-10.206000	25.510740	0.000696	20.911326
1676.491152	-2.992500	3.436500	-10.283000	25.508031	0.000694	20.916666
1677.487248	-3.008000	3.435300	-10.332000	25.490959	0.000695	20.936503
1678.490418	-2.983700	3.435600	-10.249000	25.526818	0.000696	20.890490
1679.488660	-3.002800	3.434600	-10.313000	25.543865	0.000694	20.910453
1680.486599	-2.992800	3.435800	-10.282000	25.561582	0.000694	20.912599
1681.493918	-2.981100	3.437700	-10.247000	25.592047	0.000693	20.883453
1682.492004	-2.992700	3.435300	-10.280000	25.605664	0.000694	20.913248
1683.494858	-2.978200	3.434300	-10.226000	25.622411	0.000691	20.902568
1684.490555	-3.003100	3.433600	-10.310000	25.614311	0.000691	20.902019
1685.492203	-2.985600	3.432600	-10.247000	25.617864	0.000691	20.913173
1686.493677	-3.009400	3.433300	-10.331000	25.609938	0.000690	20.899524
1687.492984	-3.009200	3.432100	-10.328000	25.615553	0.000691	20.905637
1688.499642	-3.004400	3.433400	-10.314000	25.635954	0.000691	20.913323
1689.488881	-3.012100	3.431500	-10.335000	25.648948	0.000690	20.903616
1690.491811	-3.007400	3.430900	-10.317000	25.630189	0.000689	20.908008
1691.495756	-2.999300	3.431900	-10.291000	25.621517	0.000687	20.890765
1692.491598	-2.981300	3.432700	-10.233000	25.632599	0.000688	20.891938
1693.490423	-2.995300	3.431200	-10.276000	25.608223	0.000688	20.891638
1694.494292	-2.992300	3.430700	-10.265000	25.608820	0.000687	20.919736
1695.497631	-2.993600	3.430300	-10.268000	25.631208	0.000687	20.900023
1696.491099	-3.005600	3.429600	-10.306000	25.624400	0.000687	20.900297
1697.491733	-3.051400	3.428100	-10.459000	25.637618	0.000685	20.894608
1698.491166	-3.005900	3.428400	-10.304000	25.659236	0.000687	20.899250
1699.494309	-2.990200	3.429600	-10.254000	25.610808	0.000685	20.891863
1700.499428	-2.979500	3.428000	-10.213000	25.572964	0.000685	20.888470
1701.500671	-2.981500	3.428600	-10.221000	25.586332	0.000684	20.895731
1702.505465	-2.996300	3.428400	-10.271000	25.571423	0.000686	20.874121
1703.497447	-3.002100	3.427200	-10.288000	25.540188	0.000686	20.903916
1704.499891	-3.002600	3.426100	-10.286000	25.508007	0.000683	20.899100
1705.493562	-2.971400	3.427700	-10.184000	25.545555	0.000682	20.887023
1706.495327	-3.011100	3.426300	-10.316000	25.554998	0.000680	20.896031
1707.493427	-3.003800	3.425100	-10.287000	25.597067	0.000678	20.898451
1708.497151	-3.022900	3.423800	-10.349000	25.598086	0.000680	20.896156
1709.503118	-2.988300	3.425900	-10.237000	25.585065	0.000682	20.892088
1710.497764	-3.008800	3.425200	-10.304000	25.589439	0.000678	20.895057
1711.508680	-2.984700	3.425000	-10.221000	25.588470	0.000680	20.874645
1712.502273	-3.010400	3.423900	-10.306000	25.588842	0.000678	20.900622
1713.494963	-2.996900	3.424400	-10.262000	25.549805	0.000678	20.889867
1714.494780	-2.987200	3.423400	-10.225000	25.547842	0.000680	20.878888
1715.500902	-3.005800	3.422700	-10.287000	25.570852	0.000677	20.914321
1716.504286	-2.989100	3.423300	-10.232000	25.581363	0.000675	20.882206
1717.501588	-2.984000	3.424400	-10.218000	25.591004	0.000676	20.898052
1718.500988	-3.010400	3.421500	-10.299000	25.590308	0.000677	20.877914
1719.497589	-3.009900	3.422400	-10.301000	25.606385	0.000675	20.888844
1720.499360	-2.998300	3.421300	-10.257000	25.607404	0.000675	20.883230
1721.504583	-2.998200	3.422200	-10.259000	25.611305	0.000674	20.880984
1722.500613	-3.007600	3.419200	-10.283000	25.596371	0.000674	20.871676
1723.498626	-2.984900	3.421300	-10.210000	25.600968	0.000672	20.871551
1724.499805	-3.015100	3.419300	-10.309000	25.610858	0.000672	20.874845
1725.498458	-3.033900	3.418800	-10.372000	25.643855	0.000671	20.871950
1726.503544	-3.007500	3.418500	-10.280000	25.607255	0.000672	20.899200
1727.502913	-2.992100	3.418900	-10.229000	25.637594	0.000672	20.886523
1728.497786	-2.999800	3.420000	-10.258000	25.624101	0.000673	20.889093
1729.499384	-3.022400	3.419000	-10.332000	25.620449	0.000670	20.869779
1730.505573	-3.000400	3.416800	-10.251000	25.643259	0.000670	20.874670
1731.502631	-3.016500	3.418200	-10.311000	25.628872	0.000670	20.856903
1732.498275	-3.000600	3.416200	-10.249000	25.649620	0.000668	20.867783
1733.498955	-3.008100	3.415200	-10.272000	25.632475	0.000667	20.889443
1734.498875	-2.995700	3.415600	-10.230000	25.622312	0.000666	20.867383
1735.498479	-2.993000	3.415700	-10.221000	25.610112	0.000666	20.850864
1736.499985	-2.990500	3.415600	-10.213000	25.629170	0.000667	20.854832
1737.501814	-2.991900	3.416800	-10.222000	25.634239	0.000667	20.888369
1738.503866	-2.998000	3.415500	-10.238000	25.625418	0.000665	20.864339
1739.500237	-2.999000	3.414900	-10.240000	25.612422	0.000664	20.894907
1740.501316	-3.030300	3.413100	-10.341000	25.582132	0.000665	20.864488
1741.499402	-2.998600	3.414500	-10.236000	25.551916	0.000662	20.869230
1742.500893	-2.988900	3.414600	-10.205000	25.564291	0.000662	20.874071
1743.500866	-3.028300	3.413000	-10.334000	25.593016	0.000663	20.872573
1744.500414	-2.999900	3.413200	-10.239000	25.590730	0.000662	20.874545
1745.502041	-3.002800	3.414000	-10.251000	25.588369	0.000663	20.875493
1746.501563	-2.991100	3.413800	-10.210000	25.543243	0.000663	20.855305
1747.501794	-3.005600	3.411600	-10.252000	25.545405	0.000662	20.855105
1748.505016	-3.005400	3.412600	-10.255000	25.551220	0.000662	20.853358
1749.502536	-3.011900	3.411600	-10.274000	25.565533	0.000661	20.849241
1750.501358	-2.987000	3.412500	-10.192000	25.592419	0.000661	20.853957
1751.504095	-3.019000	3.411000	-10.297000	25.594456	0.000660	20.852210
1752.502089	-2.992400	3.411900	-10.209000	25.586629	0.000661	20.874694
1753.500825	-2.997700	3.410700	-10.222000	25.605514	0.000659	20.858099
1754.501691	-2.999700	3.411500	-10.231000	25.601389	0.000661	20.851586
1755.509256	-3.016200	3.408700	-10.281000	25.574900	0.000661	20.851062
1756.505041	-3.003400	3.409500	-10.240000	25.591946	0.000658	20.860594
1757.505227	-3.014400	3.410100	-10.278000	25.586778	0.000660	20.852559
1758.506803	-3.022200	3.408600	-10.301000	25.633219	0.000657	20.859372
1759.504106	-2.993600	3.410300	-10.209000	25.643605	0.000659	20.844674
1760.505310	-3.043900	3.406900	-10.369000	25.679583	0.000658	20.854256
1761.513708	-2.986900	3.407900	-10.177000	25.674117	0.000656	20.830749
1762.512305	-3.005900	3.407400	-10.239000	25.692901	0.000655	20.849614
1763.513531	-2.998000	3.407200	-10.213000	25.653718	0.000655	20.851511
1764.510486	-3.003000	3.405900	-10.226000	25.605190	0.000654	20.837861
1765.511081	-2.990900	3.407400	-10.190000	25.545802	0.000655	20.845547
1766.517246	-3.002200	3.405300	-10.221000	25.521374	0.000656	20.848516
1767.511797	-2.991000	3.406500	-10.187000	25.525698	0.000653	20.844324
1768.515060	-3.015000	3.404700	-10.264000	25.548137	0.000652	20.851211
1769.516515	-2.985000	3.405000	-10.163000	25.605116	0.000651	20.855329
1770.515451	-2.997500	3.403800	-10.202000	25.595127	0.000653	20.847194
1771.513140	-3.018500	3.403600	-10.273000	25.569483	0.000653	20.857475
1772.510859	-2.978900	3.404500	-10.140000	25.530668	0.000651	20.843151
1773.512187	-2.975800	3.404400	-10.130000	25.562600	0.000650	20.836813
1774.511282	-3.014600	3.402400	-10.256000	25.559543	0.000651	20.849390
1775.512434	-3.014200	3.402600	-10.255000	25.600941	0.000647	20.846395
1776.513564	-2.992000	3.402500	-10.179000	25.582255	0.000648	20.841853
1777.513638	-2.984600	3.403200	-10.156000	25.596120	0.000650	20.827804
1778.511995	-3.002500	3.402400	-10.214000	25.611998	0.000648	20.840431
1779.519401	-2.983500	3.402800	-10.151000	25.613266	0.000648	20.830799
1780.512216	-2.986900	3.402100	-10.160000	25.634908	0.000649	20.821715
1781.512970	-2.999700	3.401700	-10.203000	25.658885	0.000646	20.832994
1782.521971	-3.010800	3.400400	-10.237000	25.668451	0.000647	20.838809
1783.512435	-3.011900	3.401000	-10.243000	25.675061	0.000648	20.847343
1784.512297	-3.000000	3.401100	-10.202000	25.684005	0.000647	20.838784
1785.513787	-2.989000	3.400800	-10.164000	25.701273	0.000644	20.835265
1786.518726	-2.993600	3.398800	-10.174000	25.702839	0.000645	20.809811
1787.514454	-2.968800	3.400100	-10.093000	25.702342	0.000646	20.814054
1788.518459	-2.956900	3.400900	-10.055000	25.678489	0.000643	20.806218
1789.514003	-2.982300	3.398300	-10.134000	25.647754	0.000644	20.821340
1790.519066	-3.009800	3.398700	-10.229000	25.617937	0.000643	20.827903
1791.516183	-2.985500	3.398000	-10.143000	25.644201	0.000641	20.812082
1792.518287	-2.988300	3.399000	-10.156000	25.638560	0.000641	20.828702
1793.518006	-3.015100	3.397600	-10.242000	25.609116	0.000642	20.825682
1794.525023	-2.992600	3.398000	-10.167000	25.613663	0.000639	20.828827
1795.520289	-2.969300	3.398100	-10.089000	25.600643	0.000640	20.828552
1796.522219	-2.994500	3.396300	-10.169000	25.581783	0.000642	20.825732
1797.516304	-2.991900	3.396800	-10.162000	25.600121	0.000640	20.826606
1798.514564	-2.986000	3.395300	-10.137000	25.645766	0.000640	20.817447
1799.518445	-2.996200	3.395500	-10.173000	25.656053	0.000639	20.814503
1800.515711	-2.981600	3.396000	-10.124000	25.678514	0.000640	20.820467
1801.521897	-3.006000	3.394200	-10.202000	25.719112	0.000639	20.812881
1802.520659	-3.000800	3.395000	-10.187000	25.695534	0.000638	20.822388
1803.520457	-2.986400	3.393900	-10.135000	25.748007	0.000638	20.798282
1804.520006	-2.985300	3.393600	-10.129000	25.738715	0.000636	20.824510
1805.520978	-2.967800	3.394300	-10.073000	25.714292	0.000636	20.833643
1806.521621	-2.994400	3.394500	-10.164000	25.710541	0.000636	20.817547
1807.519516	-2.992200	3.393400	-10.152000	25.722144	0.000635	20.807390
1808.520039	-2.998700	3.392500	-10.173000	25.718143	0.000632	20.801476
1809.521257	-3.002600	3.392000	-10.184000	25.689595	0.000635	20.799829
1810.521260	-2.988800	3.392700	-10.138000	25.718963	0.000635	20.817946
1811.520658	-3.002500	3.392700	-10.185000	25.700453	0.000633	20.819743
1812.523697	-3.003500	3.392100	-10.187000	25.647480	0.000632	20.802574
1813.521398	-2.996100	3.392300	-10.162000	25.676029	0.000631	20.809911
1814.519804	-3.006200	3.390300	-10.192000	25.647456	0.000632	20.790695
1815.523960	-3.001800	3.391300	-10.179000	25.586529	0.000629	20.802998
1816.521360	-3.020300	3.390000	-10.237000	25.606010	0.000630	20.809287
1817.522825	-2.985400	3.390000	-10.120000	25.596046	0.000630	20.802599
1818.523969	-3.003200	3.388300	-10.175000	25.599326	0.000628	20.788824
1819.522217	-2.998100	3.389400	-10.161000	25.614781	0.000629	20.799130
1820.523098	-2.992600	3.389300	-10.141000	25.647654	0.000628	20.789472
1821.526837	-3.022700	3.388000	-10.240000	25.641120	0.000628	20.800453
1822.524287	-3.002900	3.387100	-10.171000	25.647008	0.000627	20.825333
1823.523989	-3.016300	3.386700	-10.214000	25.612893	0.000628	20.818096
1824.528929	-2.992500	3.388400	-10.138000	25.600195	0.000627	20.795861
1825.526522	-2.989900	3.386500	-10.124000	25.590877	0.000626	20.797408
1826.531292	-3.003900	3.387700	-10.175000	25.598406	0.000624	20.793590
1827.523494	-3.019600	3.386100	-10.223000	25.612296	0.000626	20.790945
1828.529156	-2.996200	3.386000	-10.144000	25.638560	0.000625	20.788399
1829.522925	-3.017200	3.385500	-10.214000	25.634933	0.000624	20.796610
1830.525354	-2.999000	3.385400	-10.152000	25.658239	0.000624	20.803897
1831.526090	-3.003900	3.386100	-10.170000	25.707832	0.000623	20.807241
1832.530773	-3.019900	3.384600	-10.220000	25.721075	0.000624	20.810585
1833.528073	-2.988400	3.384100	-10.112000	25.723460	0.000624	20.812980
1834.531955	-2.999700	3.384800	-10.152000	25.737895	0.000622	20.817048
1835.536398	-2.998000	3.383200	-10.142000	25.776032	0.000621	20.805569
1836.527393	-3.000400	3.383300	-10.150000	25.796503	0.000620	20.802898
1837.528381	-2.995900	3.383700	-10.137000	25.772032	0.000620	20.797757
1838.528323	-3.007500	3.383200	-10.173000	25.771411	0.000619	20.803772
1839.531707	-2.978800	3.384400	-10.081000	25.758144	0.000620	20.790920
1840.528774	-3.029000	3.381600	-10.242000	25.734740	0.000619	20.797283
1841.532086	-3.009000	3.381300	-10.173000	25.730243	0.000620	20.809362
1842.531020	-2.991000	3.382000	-10.116000	25.733895	0.000618	20.792167
1843.530409	-2.963300	3.381800	-10.021000	25.713050	0.000618	20.812481
1844.534055	-3.024100	3.380400	-10.222000	25.739858	0.000619	20.790570
1845.530593	-3.012400	3.380700	-10.183000	25.713870	0.000617	20.809511
1846.532158	-3.005700	3.380800	-10.161000	25.719385	0.000619	20.808887
1847.527898	-3.008500	3.380700	-10.170000	25.733870	0.000617	20.789772
1848.530015	-3.017400	3.379400	-10.196000	25.668575	0.000618	20.791518
1849.528736	-3.001000	3.379600	-10.140000	25.658860	0.000616	20.804994
1850.530044	-3.002100	3.380700	-10.148000	25.669470	0.000615	20.805693
1851.529849	-2.990000	3.379700	-10.104000	25.704851	0.000617	20.797133
1852.530757	-2.993300	3.378900	-10.113000	25.714466	0.000618	20.786403
1853.528716	-3.013000	3.378900	-10.178000	25.720503	0.000618	20.804795
1854.530964	-3.023900	3.377600	-10.212000	25.713745	0.000616	20.796110
1855.532519	-3.021000	3.375900	-10.197000	25.710192	0.000616	20.800128
1856.528390	-2.989800	3.378100	-10.099000	25.684278	0.000618	20.797333
1857.529940	-3.007500	3.376400	-10.154000	25.680750	0.000616	20.803273
1858.535465	-3.000200	3.376200	-10.128000	25.679781	0.000616	20.795661
1859.528858	-3.004300	3.376600	-10.143000	25.695061	0.000615	20.792991
1860.531020	-2.998200	3.376500	-10.122000	25.727311	0.000615	20.807839
1861.530692	-3.010500	3.375000	-10.159000	25.719087	0.000613	20.801002
1862.531362	-2.995200	3.375000	-10.107000	25.692701	0.000614	20.816698
1863.528065	-3.004600	3.376100	-10.143000	25.644722	0.000614	20.811183
1864.530406	-2.968100	3.375500	-10.018000	25.631851	0.000612	20.802050
1865.535286	-2.977400	3.374900	-10.048000	25.605637	0.000612	20.806542
1866.531831	-3.002700	3.374800	-10.133000	25.581832	0.000611	20.801126
1867.532508	-3.002400	3.374600	-10.131000	25.576788	0.000611	20.797483
1868.535453	-2.995900	3.373500	-10.106000	25.572787	0.000611	20.816224
1869.536236	-2.992700	3.373300	-10.094000	25.597859	0.000610	20.811059
1870.534249	-3.017700	3.372400	-10.176000	25.617340	0.000611	20.779889
1871.532720	-2.982300	3.373600	-10.060000	25.643207	0.000608	20.813454
1872.534379	-2.993700	3.371700	-10.094000	25.650810	0.000608	20.810185
1873.534042	-2.980300	3.372700	-10.051000	25.663432	0.000609	20.804845
1874.537947	-3.005400	3.371100	-10.130000	25.676849	0.000607	20.788923
1875.532598	-2.983500	3.372100	-10.060000	25.708056	0.000606	20.806517
1876.535818	-3.012200	3.370600	-10.152000	25.692751	0.000604	20.799205
1877.536819	-2.993500	3.371300	-10.090000	25.701944	0.000605	20.801800
1878.536448	-3.027600	3.370300	-10.203000	25.703460	0.000607	20.799530
1879.534410	-3.006700	3.370400	-10.133000	25.710193	0.000604	20.794913
1880.535423	-2.985000	3.371300	-10.062000	25.681893	0.000605	20.833818
1881.536609	-2.981900	3.370900	-10.051000	25.653891	0.000602	20.812332
1882.539792	-2.979100	3.369500	-10.037000	25.626658	0.000602	20.813904
1883.539486	-2.987900	3.369600	-10.066000	25.624795	0.000603	20.818196
1884.537490	-2.991400	3.368700	-10.076000	25.616819	0.000603	20.819668
1885.539329	-2.990400	3.368800	-10.072000	25.632249	0.000601	20.807665
1886.538791	-3.000200	3.369300	-10.106000	25.582951	0.000603	20.823586
1887.541257	-3.005900	3.368600	-10.125000	25.604917	0.000601	20.807241
1888.535696	-2.996000	3.368800	-10.092000	25.583025	0.000599	20.806592
1889.538492	-2.991700	3.367800	-10.074000	25.571471	0.000601	20.817273
1890.539072	-3.010600	3.367500	-10.137000	25.585833	0.000601	20.803722
1891.542113	-3.010800	3.365800	-10.133000	25.573881	0.000600	20.811633
1892.538178	-2.987600	3.368000	-10.062000	25.607476	0.000600	20.809337
1893.540418	-2.964800	3.366800	-9.980900	25.631752	0.000598	20.804795
1894.543168	-2.989500	3.366700	-10.064000	25.641493	0.000597	20.831647
1895.542705	-2.998600	3.366100	-10.093000	25.664252	0.000600	20.811833
1896.542420	-3.000400	3.365900	-10.098000	25.695584	0.000599	20.805843
1897.539972	-3.019500	3.364500	-10.158000	25.722964	0.000597	20.820068
1898.547234	-3.000700	3.364000	-10.094000	25.742144	0.000596	20.828902
1899.548971	-2.991400	3.365500	-10.067000	25.778020	0.000597	20.829850
1900.548275	-3.015000	3.364600	-10.144000	25.805050	0.000595	20.820966
1901.546269	-2.988100	3.362800	-10.047000	25.812702	0.000597	20.821066
1902.546548	-2.979500	3.363300	-10.019000	25.834688	0.000594	20.826082
1903.548591	-2.978600	3.362500	-10.015000	25.846612	0.000594	20.837586
1904.544635	-2.995800	3.363200	-10.074000	25.820701	0.000595	20.819145
1905.549474	-2.973400	3.362700	-9.997300	25.780654	0.000592	20.826806
1906.548681	-2.993700	3.362000	-10.064000	25.757573	0.000593	20.819744
1907.550093	-3.011500	3.363100	-10.127000	25.741424	0.000593	20.824860
1908.551909	-3.005700	3.362000	-10.104000	25.766542	0.000592	20.835391
1909.548574	-3.008300	3.360900	-10.109000	25.779312	0.000590	20.841105
1910.549224	-2.996400	3.361400	-10.070000	25.781250	0.000590	20.825509
1911.546500	-3.005500	3.360700	-10.100000	25.823608	0.000589	20.842453
1912.551235	-2.998100	3.361400	-10.077000	25.832104	0.000589	20.819694
1913.546195	-2.999800	3.360600	-10.080000	25.814888	0.000588	20.817099
1914.552002	-2.996700	3.359700	-10.067000	25.824677	0.000588	20.840207
1915.556211	-2.983600	3.361300	-10.028000	25.874833	0.000589	20.818521
1916.550796	-2.987200	3.359200	-10.033000	25.866437	0.000585	20.832371
1917.549062	-2.998300	3.357600	-10.066000	25.864971	0.000586	20.831847
1918.557841	-3.006700	3.359000	-10.099000	25.867903	0.000584	20.831473
1919.550478	-3.009600	3.357500	-10.104000	25.876647	0.000584	20.837412
1920.555020	-3.016700	3.356800	-10.125000	25.899799	0.000585	20.829377
1921.561194	-2.998500	3.358100	-10.068000	25.886037	0.000586	20.842578
1922.549150	-3.012000	3.356300	-10.108000	25.902085	0.000584	20.828828
1923.555214	-2.992600	3.356700	-10.045000	25.910829	0.000581	20.832870
1924.554070	-3.006200	3.354900	-10.085000	25.924963	0.000582	20.823362
1925.550920	-2.974300	3.356600	-9.982000	25.897638	0.000580	20.827206
1926.552252	-3.004600	3.355800	-10.082000	25.871828	0.000579	20.829252
1927.557448	-2.996600	3.357000	-10.060000	25.894533	0.000581	20.834043
1928.550183	-3.005500	3.354700	-10.081000	25.923771	0.000582	20.840182
1929.555449	-3.025100	3.353800	-10.144000	25.909860	0.000580	20.841854
1930.557005	-2.992600	3.356100	-10.042000	25.910158	0.000582	20.841205
1931.551461	-3.002500	3.355200	-10.072000	25.934899	0.000579	20.818646
1932.552125	-3.016900	3.353400	-10.116000	25.930130	0.000579	20.832820
1933.555620	-3.018400	3.352700	-10.119000	25.905215	0.000577	20.853782
1934.562911	-2.993700	3.354100	-10.041000	25.885242	0.000577	20.846046
1935.550633	-3.001100	3.353200	-10.063000	25.886186	0.000576	20.858373
1936.557119	-3.004600	3.352500	-10.072000	25.891055	0.000576	20.832920
1937.553603	-2.993700	3.352300	-10.035000	25.919473	0.000576	20.857675
1938.552924	-3.007800	3.351900	-10.081000	25.936464	0.000574	20.853882
1939.557830	-3.014300	3.351600	-10.102000	25.943817	0.000574	20.834717
1940.555299	-2.999400	3.352000	-10.052000	25.942476	0.000575	20.854231
1941.559998	-3.014000	3.352400	-10.103000	25.958299	0.000574	20.848317
1942.557840	-3.021100	3.351600	-10.124000	25.965726	0.000571	20.847718
1943.556454	-3.005900	3.351700	-10.074000	25.976283	0.000572	20.836513
1944.559985	-2.994500	3.350100	-10.030000	25.992826	0.000572	20.851236
1945.562756	-3.008900	3.350700	-10.082000	25.990913	0.000571	20.848841
1946.556136	-2.990100	3.349800	-10.015000	25.963540	0.000571	20.850263
1947.554792	-2.972300	3.350200	-9.956000	25.922429	0.000571	20.831722
1948.562027	-3.010400	3.349100	-10.081000	25.919225	0.000571	20.857425
1949.557233	-3.003500	3.348000	-10.055000	25.919125	0.000570	20.858748
1950.556687	-2.998000	3.348600	-10.038000	25.955815	0.000568	20.833968
1951.562106	-3.015700	3.347300	-10.092000	25.952014	0.000569	20.851486
1952.561957	-3.018600	3.347200	-10.103000	25.974817	0.000568	20.863489
1953.560961	-2.996000	3.347200	-10.027000	25.992652	0.000568	20.857225
1954.563551	-2.996600	3.346900	-10.028000	25.996626	0.000568	20.842253
1955.562951	-3.000800	3.345700	-10.039000	26.031972	0.000570	20.863065
1956.556220	-2.996600	3.347000	-10.029000	26.038628	0.000566	20.862641
1957.561786	-2.997800	3.346600	-10.031000	26.063193	0.000567	20.867407
1958.563816	-3.015100	3.345400	-10.086000	26.042652	0.000567	20.858149
1959.559242	-3.008500	3.345600	-10.064000	26.030531	0.000567	20.859247
1960.564362	-3.025400	3.344400	-10.117000	26.031375	0.000567	20.866733
1961.558352	-3.003500	3.343800	-10.042000	26.029339	0.000565	20.868006
1962.562046	-2.990300	3.344700	-10.001000	26.008971	0.000566	20.873620
1963.560651	-2.995100	3.344500	-10.016000	26.009741	0.000567	20.842627
1964.563742	-3.016000	3.343900	-10.083000	26.004823	0.000566	20.856652
1965.563271	-3.004800	3.344000	-10.047000	26.019453	0.000564	20.858074
1966.562862	-3.002500	3.343600	-10.038000	25.976308	0.000564	20.871624
1967.561172	-3.008100	3.343900	-10.057000	26.005991	0.000563	20.862566
1968.561275	-3.008100	3.342300	-10.053000	26.010511	0.000564	20.870426
1969.563343	-3.015700	3.342700	-10.080000	26.017565	0.000561	20.855703
1970.562928	-2.999500	3.343300	-10.027000	26.025141	0.000562	20.852409
1971.566614	-2.997900	3.341800	-10.017000	26.015330	0.000561	20.858199
1972.570391	-2.989900	3.341700	-9.990500	25.989448	0.000560	20.865386
1973.564177	-2.998000	3.342100	-10.019000	25.955939	0.000559	20.865860
1974.566651	-3.000600	3.341500	-10.025000	25.988156	0.000560	20.850812
1975.562257	-3.038000	3.340800	-10.148000	26.006910	0.000559	20.875342
1976.563782	-2.995800	3.342500	-10.013000	26.033686	0.000558	20.857675
1977.563900	-3.027000	3.339000	-10.106000	26.063615	0.000557	20.859771
1978.565346	-3.027500	3.339600	-10.110000	26.063491	0.000557	20.877663
1979.562894	-2.994200	3.340900	-10.003000	26.035449	0.000557	20.881256
1980.571000	-2.985800	3.340000	-9.971600	26.018211	0.000554	20.873895
1981.563682	-3.003500	3.339900	-10.030000	26.011753	0.000557	20.880208
1982.566506	-3.012700	3.339400	-10.059000	26.017665	0.000553	20.878561
1983.572280	-3.024000	3.338300	-10.095000	26.021366	0.000555	20.886072
1984.571292	-3.007400	3.337600	-10.037000	26.042007	0.000554	20.878362
1985.567671	-3.005200	3.339400	-10.034000	26.019652	0.000553	20.867756
1986.569992	-3.025200	3.336000	-10.090000	26.034033	0.000553	20.874145
1987.570047	-3.013600	3.336900	-10.055000	26.055369	0.000553	20.895105
1988.573335	-2.993300	3.337600	-9.989900	26.062672	0.000551	20.897701
1989.569927	-3.009000	3.336700	-10.039000	26.091706	0.000551	20.898898
1990.567984	-3.005200	3.335400	-10.023000	26.071837	0.000550	20.870876
1991.569750	-2.988900	3.337300	-9.972200	26.090166	0.000551	20.882654
1992.577392	-2.994200	3.337500	-9.992400	26.085174	0.000548	20.909878
1993.572833	-3.033300	3.334500	-10.114000	26.081747	0.000548	20.887944
1994.574759	-3.027700	3.335000	-10.096000	26.071613	0.000549	20.876340
1995.573002	-3.011100	3.335400	-10.042000	26.037511	0.000550	20.905137
1996.573792	-3.001100	3.333800	-10.004000	26.055493	0.000548	20.866309
1997.573787	-2.991800	3.333800	-9.973700	26.061603	0.000548	20.894731
1998.573926	-2.985000	3.333800	-9.950800	25.983238	0.000548	20.880483
1999.573944	-2.986100	3.332600	-9.950700	25.972184	0.000547	20.897825
2000.575261	-2.983700	3.334300	-9.946800	25.939247	0.000546	20.889391
2001.575893	-2.990500	3.332600	-9.965500	25.939172	0.000546	20.887420
2002.580094	-3.000300	3.332100	-9.996500	25.935992	0.000545	20.883752
2003.578190	-2.999600	3.332400	-9.994200	25.960733	0.000546	20.896752
2004.580961	-2.995800	3.331400	-9.978800	25.984058	0.000547	20.894107
2005.578737	-2.992400	3.333600	-9.974500	26.008822	0.000544	20.888642
2006.576138	-2.993600	3.331100	-9.971100	26.048787	0.000544	20.887544
2007.576530	-3.009300	3.330900	-10.023000	26.085571	0.000544	20.893683
2008.575309	-2.992100	3.331700	-9.967500	26.081200	0.000542	20.882653
2009.584209	-2.998800	3.329600	-9.984200	26.099852	0.000542	20.900445
2010.580335	-3.007900	3.328700	-10.011000	26.114680	0.000544	20.896378
2011.576431	-3.009600	3.328500	-10.017000	26.139814	0.000544	20.896977
2012.580134	-2.979200	3.330400	-9.920000	26.167853	0.000542	20.891487
2013.579157	-2.976000	3.329400	-9.905800	26.147662	0.000542	20.862665
2014.585111	-2.995300	3.329200	-9.971100	26.119200	0.000540	20.907083
2015.578329	-2.978400	3.329000	-9.914100	26.097344	0.000539	20.882279
2016.579355	-2.981700	3.329800	-9.927200	26.110383	0.000541	20.893957
2017.581063	-3.000400	3.327100	-9.981200	26.067266	0.000542	20.889515
2018.583582	-2.988100	3.328700	-9.944900	26.071563	0.000540	20.881505
2019.583939	-3.000500	3.325900	-9.978400	26.064310	0.000538	20.891287
2020.580523	-3.021900	3.325200	-10.047000	26.072854	0.000540	20.890863
2021.581390	-3.010000	3.326300	-10.012000	26.072035	0.000540	20.882453
2022.582328	-3.005100	3.325000	-9.990700	26.105937	0.000539	20.910351
2023.580661	-3.001300	3.326200	-9.980800	26.153374	0.000538	20.907282
2024.583422	-3.006900	3.324400	-9.993600	26.158862	0.000540	20.907581
2025.583230	-3.003600	3.324700	-9.985400	26.172025	0.000536	20.892834
2026.583056	-2.973000	3.325200	-9.885400	26.178408	0.000535	20.895928
2027.585797	-3.005700	3.324400	-9.991300	26.171007	0.000536	20.894182
2028.582018	-2.999100	3.323500	-9.966200	26.180568	0.000536	20.920382
2029.583413	-2.991500	3.324400	-9.943200	26.149748	0.000535	20.893682
2030.585435	-2.981700	3.325000	-9.913300	26.131990	0.000534	20.890538
2031.583003	-3.022200	3.321900	-10.038000	26.143638	0.000535	20.907931
2032.585339	-3.005600	3.325000	-9.992300	26.144681	0.000535	20.898074
2033.584623	-3.021800	3.321500	-10.036000	26.164823	0.000533	20.914993
2034.590332	-3.014100	3.321200	-10.008000	26.185958	0.000535	20.921530
2035.595146	-2.993600	3.322500	-9.944500	26.221198	0.000531	20.896727
2036.589470	-2.991800	3.322000	-9.937800	26.210295	0.000531	20.913271
2037.583755	-3.008600	3.320800	-9.990000	26.240369	0.000531	20.888492
2038.584748	-2.995800	3.320800	-9.947000	26.226115	0.000530	20.910202
2039.590027	-2.999300	3.320300	-9.957200	26.201082	0.000529	20.916815
2040.584207	-3.000700	3.321100	-9.963400	26.181835	0.000529	20.926396
2041.588200	-3.004200	3.319700	-9.971600	26.175279	0.000527	20.910801
2042.590143	-2.993500	3.321000	-9.939800	26.172175	0.000526	20.940869
2043.588636	-3.006800	3.318600	-9.977400	26.175652	0.000531	20.922080
2044.588987	-2.976600	3.320600	-9.882600	26.184170	0.000527	20.922579
2045.587997	-3.022300	3.318200	-10.028000	26.180917	0.000526	20.909828
2046.587028	-2.984600	3.318700	-9.903100	26.156479	0.000524	20.908505
2047.590660	-2.986000	3.317900	-9.905300	26.162092	0.000523	20.944961
2048.590935	-2.989100	3.317600	-9.915900	26.108570	0.000524	20.931487
2049.587385	-2.981800	3.318000	-9.892000	26.067217	0.000528	20.916016
2050.590085	-2.982300	3.317300	-9.892600	26.025415	0.000524	20.927594
2051.603986	-3.007500	3.317600	-9.977000	25.989075	0.000523	20.923802
2052.593087	-3.031100	3.315800	-10.050000	25.996353	0.000521	20.933009
2053.589977	-3.026200	3.315700	-10.034000	26.031624	0.000522	20.921506
2054.589056	-3.019000	3.316400	-10.011000	26.040044	0.000520	20.926172
2055.596656	-3.018100	3.316000	-10.007000	26.085622	0.000520	20.921232
2056.593112	-2.989400	3.315000	-9.908200	26.126006	0.000521	20.912498
2057.594728	-2.997100	3.315300	-9.935200	26.143937	0.000521	20.921506
2058.586559	-2.973200	3.314700	-9.853900	26.186753	0.000519	20.945560
2059.594240	-2.982100	3.314400	-9.881100	26.194278	0.000520	20.928468
2060.589238	-2.969900	3.315400	-9.845700	26.188467	0.000518	20.944438
2061.597793	-2.980700	3.313700	-9.875700	26.168947	0.000517	20.948530
2062.589810	-3.006600	3.313200	-9.960400	26.170288	0.000518	20.956515
2063.592035	-2.994000	3.313200	-9.919200	26.181985	0.000516	20.933658
2064.597307	-3.018900	3.312600	-9.999000	26.155933	0.000516	20.937825
2065.593878	-2.985300	3.313000	-9.888800	26.144087	0.000514	20.936353
2066.590919	-3.016700	3.311900	-9.990600	26.157299	0.000513	20.929242
2067.593632	-2.995500	3.313200	-9.923400	26.156256	0.000515	20.964225
2068.593618	-3.006600	3.310000	-9.950600	26.193310	0.000514	20.927969
2069.592514	-3.013500	3.311600	-9.979200	26.231554	0.000513	20.938424
2070.597252	-2.984400	3.311800	-9.882400	26.228028	0.000514	20.939622
2071.591392	-3.001500	3.309200	-9.930000	26.234882	0.000509	20.938923
2072.593782	-2.984800	3.310800	-9.881200	26.248118	0.000512	20.935155
2073.592132	-3.013400	3.309200	-9.971800	26.251967	0.000510	20.943290
2074.596760	-3.009100	3.308200	-9.953400	26.258052	0.000511	20.951774
2075.597490	-3.003900	3.309700	-9.941100	26.273523	0.000510	20.945985
2076.591752	-3.014100	3.307300	-9.968000	26.282288	0.000508	20.957638
2077.594875	-3.003800	3.308300	-9.936000	26.301508	0.000509	20.942816
2078.593639	-2.996400	3.307200	-9.907900	26.323162	0.000509	20.959834
2079.594878	-2.972200	3.308800	-9.833600	26.312733	0.000508	20.967369
2080.598287	-2.994500	3.307500	-9.903400	26.337365	0.000507	20.957039
2081.597171	-3.030800	3.306100	-10.020000	26.305084	0.000506	20.939772
2082.595034	-3.002500	3.307200	-9.927500	26.301211	0.000506	20.958162
2083.593996	-3.000000	3.306100	-9.917000	26.356113	0.000506	20.949803
2084.597363	-2.996000	3.307100	-9.907400	26.338508	0.000506	20.965298
2085.595614	-2.986300	3.306500	-9.873300	26.360682	0.000506	20.972409
2086.596518	-3.004500	3.305400	-9.930600	26.333541	0.000503	20.976901
2087.603091	-2.972100	3.306800	-9.827800	26.362966	0.000503	20.966645
2088.598099	-2.990800	3.304900	-9.882700	26.381192	0.000502	20.950352
2089.598881	-2.973600	3.305100	-9.826400	26.357404	0.000502	20.963901
2090.598423	-2.978300	3.306200	-9.845900	26.336273	0.000501	20.950252
2091.606619	-2.998600	3.304500	-9.907900	26.338036	0.000502	20.964350
2092.595887	-2.987800	3.305600	-9.874900	26.336745	0.000503	20.945985
2093.600279	-3.007100	3.304000	-9.933200	26.357255	0.000501	20.954269
2094.601006	-2.979400	3.303200	-9.841100	26.359714	0.000501	20.950577
2095.603046	-3.000600	3.304500	-9.913700	26.336273	0.000501	20.960682
2096.600635	-3.015100	3.301600	-9.953900	26.354201	0.000500	20.964475
2097.600646	-2.998000	3.302600	-9.900600	26.341612	0.000499	20.970314
2098.600184	-3.020300	3.302300	-9.971700	26.341165	0.000500	20.937152
2099.599000	-3.010400	3.300900	-9.935800	26.315564	0.000499	20.961680
2100.598971	-3.009300	3.301300	-9.933000	26.302304	0.000498	20.941245
2101.600909	-3.017200	3.300400	-9.957100	26.287628	0.000499	20.961581
2102.607849	-2.985000	3.300400	-9.850800	26.331431	0.000498	20.933534
2103.607410	-3.004000	3.299000	-9.908800	26.344667	0.000498	20.944938
2104.600682	-2.989600	3.300300	-9.864900	26.356114	0.000496	20.955492
2105.602452	-2.971100	3.300300	-9.804200	26.351768	0.000496	20.937851
2106.605109	-2.958500	3.299800	-9.760900	26.325820	0.000496	20.925051
2107.604708	-2.992000	3.298000	-9.867100	26.344369	0.000495	20.956965
2108.601554	-2.991300	3.299200	-9.867900	26.358994	0.000493	20.940372
2109.610192	-3.010400	3.298500	-9.928800	26.356114	0.000493	20.947907
2110.604446	-3.013100	3.298300	-9.937300	26.350974	0.000493	20.931838
2111.604678	-3.004900	3.298600	-9.911600	26.352613	0.000493	20.920684
2112.610662	-2.994100	3.296900	-9.870200	26.365699	0.000490	20.945213
2113.603456	-3.009300	3.297300	-9.919800	26.361577	0.000492	20.952923
2114.602803	-3.033500	3.295600	-9.996600	26.354153	0.000488	20.942618
2115.606873	-3.011000	3.295600	-9.922400	26.384024	0.000492	20.927123
2116.607201	-2.976600	3.294900	-9.805400	26.402199	0.000489	20.936380
2117.604307	-2.986600	3.295400	-9.840700	26.379182	0.000488	20.928420
2118.614618	-2.989700	3.296200	-9.853200	26.422883	0.000489	20.919238
2119.607264	-2.985900	3.295600	-9.839800	26.387054	0.000491	20.923530
2120.612422	-3.010100	3.293700	-9.912400	26.399344	0.000488	20.940148
2121.615542	-2.962600	3.294400	-9.759100	26.366271	0.000485	20.935832
2122.613713	-2.977400	3.294100	-9.806900	26.353558	0.000487	20.920211
2123.610201	-3.001600	3.292800	-9.882400	26.342285	0.000484	20.925477
2124.614660	-3.005500	3.293900	-9.897900	26.326020	0.000486	20.942794
2125.607273	-3.013800	3.292800	-9.921000	26.294111	0.000485	20.930642
2126.607906	-2.995000	3.293700	-9.863000	26.287878	0.000484	20.927698
2127.614144	-2.997500	3.292600	-9.868600	26.265356	0.000482	20.951053
2128.612203	-3.042800	3.292000	-10.015000	26.265405	0.000483	20.932139
2129.609542	-3.018000	3.291000	-9.931100	26.322569	0.000482	20.924155
2130.613544	-2.984200	3.292900	-9.824700	26.314101	0.000479	20.925128
2131.612452	-3.001600	3.290600	-9.876400	26.346805	0.000482	20.931915
2132.614075	-3.002900	3.292000	-9.884000	26.313009	0.000477	20.910281
2133.614389	-3.017500	3.289200	-9.923800	26.334786	0.000479	20.925528
2134.613266	-2.996200	3.290800	-9.858800	26.358500	0.000479	20.926126
2135.609873	-2.992300	3.289800	-9.842600	26.393089	0.000478	20.916320
2136.614204	-2.994400	3.288800	-9.847200	26.419582	0.000476	20.917343
2137.612066	-3.004600	3.288300	-9.878400	26.453746	0.000474	20.909483
2138.613466	-3.014600	3.288500	-9.911800	26.459432	0.000474	20.919938
2139.616671	-3.011200	3.288600	-9.901200	26.484410	0.000474	20.915647
2140.611992	-3.021800	3.287600	-9.933100	26.526368	0.000474	20.924630
2141.613718	-3.015500	3.286000	-9.908200	26.517579	0.000474	20.921486
2142.615870	-3.012900	3.286200	-9.900100	26.466757	0.000471	20.917818
2143.622914	-2.995500	3.287100	-9.845300	26.445082	0.000472	20.889870
2144.618821	-3.007100	3.285500	-9.877900	26.451140	0.000471	20.918716
2145.614450	-3.014400	3.285800	-9.902600	26.411662	0.000468	20.910332
2146.613815	-3.018200	3.284200	-9.910900	26.427528	0.000468	20.913950
2147.615294	-2.998600	3.284700	-9.848000	26.457348	0.000471	20.914524
2148.618741	-2.970900	3.285900	-9.761200	26.488035	0.000466	20.901274
2149.625717	-3.012300	3.283400	-9.890000	26.526567	0.000468	20.915822
2150.614654	-3.000700	3.283400	-9.851600	26.534263	0.000468	20.906490
2151.617114	-2.980600	3.284800	-9.789600	26.548414	0.000468	20.915497
2152.615187	-2.997200	3.284200	-9.842100	26.530018	0.000466	20.918342
2153.614515	-2.987000	3.284500	-9.809400	26.540818	0.000467	20.896009
2154.615131	-2.995700	3.283100	-9.834300	26.566264	0.000466	20.922534
2155.618225	-3.005400	3.282300	-9.863500	26.564179	0.000465	20.898155
2156.617551	-3.001700	3.281900	-9.850800	26.565222	0.000463	20.908686
2157.625832	-2.996000	3.282700	-9.834200	26.499977	0.000464	20.895261
2158.617545	-2.999600	3.280700	-9.839800	26.471525	0.000463	20.913602
2159.617099	-2.990600	3.279800	-9.807700	26.487936	0.000463	20.903545
2160.620063	-3.019900	3.278800	-9.900300	26.506383	0.000465	20.907388
2161.618152	-2.988400	3.280100	-9.801500	26.521056	0.000462	20.910757
2162.620178	-3.010800	3.280000	-9.874300	26.552362	0.000460	20.908561
2163.627935	-2.986400	3.279500	-9.792600	26.539080	0.000462	20.892840
2164.625546	-3.005600	3.280200	-9.857600	26.551965	0.000461	20.884930
2165.619559	-3.001300	3.278300	-9.838300	26.546056	0.000460	20.891792
2166.631325	-3.017800	3.277900	-9.890500	26.565892	0.000462	20.900825
2167.623003	-3.010200	3.278600	-9.867800	26.578479	0.000458	20.890245
2168.623043	-2.992900	3.277500	-9.807900	26.559562	0.000460	20.897781
2169.622118	-3.000200	3.276600	-9.829800	26.577039	0.000457	20.904444
2170.626578	-3.017100	3.278500	-9.889300	26.540123	0.000457	20.897207
2171.626547	-2.998200	3.277000	-9.823700	26.495186	0.000457	20.900401
2172.630178	-3.000200	3.276800	-9.830300	26.484783	0.000455	20.905592
2173.624039	-2.988900	3.276500	-9.792600	26.474753	0.000459	20.911630
2174.623568	-3.017800	3.275300	-9.883500	26.473785	0.000455	20.887900
2175.633837	-2.959900	3.275400	-9.694200	26.465492	0.000456	20.881462
2176.623344	-3.001100	3.275300	-9.827500	26.495633	0.000456	20.885205
2177.624104	-2.995900	3.275300	-9.811300	26.503802	0.000454	20.888200
2178.626976	-3.023700	3.272700	-9.894000	26.469043	0.000453	20.902099
2179.624210	-3.001600	3.274200	-9.826600	26.450646	0.000452	20.875549
2180.623703	-2.996100	3.274100	-9.809200	26.459758	0.000453	20.871906
2181.626949	-2.987800	3.274500	-9.782400	26.473736	0.000452	20.882162
2182.626245	-3.009600	3.272600	-9.848400	26.503902	0.000454	20.898257
2183.623791	-3.000900	3.272000	-9.817500	26.528084	0.000450	20.905020
2184.632572	-2.989500	3.272600	-9.783000	26.558993	0.000450	20.890572
2185.624453	-3.008100	3.271400	-9.839700	26.551520	0.000448	20.866467
2186.630752	-2.983300	3.271700	-9.759200	26.527612	0.000449	20.881788
2187.631285	-3.018300	3.270200	-9.869900	26.511872	0.000450	20.891096
2188.634072	-2.967100	3.272100	-9.707600	26.522349	0.000448	20.897359
2189.639535	-3.000500	3.270200	-9.811000	26.520885	0.000447	20.909636
2190.632540	-2.986100	3.270800	-9.765100	26.546159	0.000448	20.895214
2191.626791	-2.992800	3.270700	-9.787400	26.570215	0.000447	20.888102
2192.627542	-2.975100	3.268600	-9.723500	26.546432	0.000446	20.881739
2193.636420	-2.981100	3.270100	-9.747900	26.521109	0.000445	20.887104
2194.627378	-2.988000	3.268600	-9.765100	26.546954	0.000443	20.896961
2195.631484	-2.976800	3.268700	-9.729400	26.548989	0.000444	20.884784
2196.642067	-3.004700	3.269400	-9.822900	26.565648	0.000444	20.887305
2197.632678	-2.985100	3.269300	-9.757700	26.575380	0.000443	20.891397
2198.633559	-2.984100	3.267600	-9.750000	26.549611	0.000442	20.877349
2199.634369	-2.995400	3.266700	-9.782400	26.559591	0.000441	20.878846
2200.641468	-3.015700	3.266000	-9.848200	26.582828	0.000443	20.872808
2201.633456	-3.007600	3.267400	-9.825400	26.615250	0.000441	20.873631
2202.634676	-2.999700	3.266800	-9.798200	26.630642	0.000439	20.875828
2203.630650	-2.985000	3.265800	-9.748200	26.633348	0.000440	20.895142
2204.630002	-2.998400	3.265400	-9.790100	26.615673	0.000439	20.881642
2205.641456	-3.005000	3.263100	-9.804600	26.645264	0.000439	20.876776
2206.632519	-3.003000	3.265700	-9.805400	26.647374	0.000438	20.851873
2207.635362	-3.012400	3.264200	-9.831800	26.636750	0.000438	20.877226
2208.638189	-3.007300	3.262400	-9.809100	26.657726	0.000437	20.877925
2209.644071	-2.998200	3.263800	-9.784000	26.674532	0.000438	20.875854
2210.631176	-3.022500	3.263800	-9.864100	26.672795	0.000433	20.902555
2211.632519	-3.011400	3.264000	-9.827700	26.689278	0.000435	20.880247
2212.640010	-3.004200	3.262600	-9.800900	26.677214	0.000435	20.886136
2213.640454	-2.997000	3.261300	-9.773300	26.660185	0.000432	20.879449
2214.631432	-2.995600	3.262000	-9.770800	26.634542	0.000431	20.888757
2215.631294	-3.029900	3.260800	-9.879000	26.606491	0.000433	20.874783
2216.636942	-2.988700	3.261100	-9.746100	26.608030	0.000431	20.876330
2217.635790	-2.999500	3.260800	-9.779600	26.575335	0.000429	20.876181
2218.634323	-2.997800	3.259900	-9.771900	26.588245	0.000430	20.878726
2219.635830	-2.975400	3.259300	-9.697000	26.573350	0.000429	20.860435
2220.634771	-2.981500	3.260300	-9.719000	26.585167	0.000429	20.873262
2221.635404	-2.971800	3.259100	-9.684000	26.540605	0.000425	20.859288
2222.639311	-2.984000	3.257700	-9.719800	26.525883	0.000428	20.867723
2223.638976	-3.047800	3.256800	-9.923800	26.493533	0.000426	20.853699
2224.635382	-2.981500	3.257000	-9.709800	26.550462	0.000427	20.876307
2225.638344	-2.972100	3.257000	-9.679300	26.590183	0.000425	20.865977
2226.637185	-3.014200	3.256400	-9.813700	26.633130	0.000424	20.870269
2227.637479	-2.996500	3.257100	-9.758500	26.649589	0.000421	20.881599
2228.636554	-3.008500	3.254800	-9.790900	26.647579	0.000425	20.853027
2229.640057	-3.008000	3.255800	-9.792800	26.703307	0.000425	20.853576
2230.640125	-3.019300	3.255600	-9.828800	26.719591	0.000422	20.870420
2231.638165	-3.010000	3.254300	-9.794500	26.735503	0.000422	20.857020
2232.639082	-2.973200	3.255300	-9.677100	26.771842	0.000421	20.863209
2233.639361	-2.983900	3.255600	-9.713200	26.774795	0.000421	20.881824
2234.638916	-3.026200	3.251700	-9.838900	26.804854	0.000420	20.872692
2235.637887	-2.993900	3.254600	-9.742800	26.785172	0.000421	20.870447
2236.639526	-2.985400	3.252400	-9.707400	26.778941	0.000419	20.857071
2237.637282	-2.987800	3.251800	-9.715100	26.759805	0.000419	20.856323
2238.637375	-3.020500	3.250800	-9.818000	26.783559	0.000419	20.867877
2239.641574	-2.988100	3.252600	-9.718200	26.761915	0.000416	20.850859
2240.643351	-2.990900	3.250700	-9.720300	26.761890	0.000415	20.854152
2241.638531	-3.001600	3.251400	-9.758300	26.736398	0.000414	20.850809
2242.639219	-3.007100	3.251700	-9.777100	26.755785	0.000413	20.858919
2243.642807	-3.001200	3.250100	-9.753000	26.767947	0.000413	20.865458
2244.639176	-2.992300	3.250200	-9.724700	26.749655	0.000412	20.859868
2245.640196	-2.989600	3.250700	-9.717600	26.697081	0.000412	20.868178
2246.640949	-3.019700	3.246900	-9.804000	26.711429	0.000410	20.858895
2247.638756	-3.016800	3.248000	-9.797500	26.722226	0.000409	20.856000
2248.639832	-3.005500	3.247300	-9.758600	26.749506	0.000409	20.871098
2249.642029	-3.001800	3.248000	-9.749000	26.714879	0.000408	20.856200
2250.643644	-2.982700	3.247400	-9.685100	26.685167	0.000406	20.858571
2251.640675	-3.040000	3.245300	-9.865700	26.694128	0.000406	20.861416
2252.641655	-2.966300	3.247400	-9.631900	26.694153	0.000405	20.847217
2253.640685	-2.980500	3.245300	-9.671800	26.682685	0.000405	20.844697
2254.644076	-2.979400	3.245700	-9.668900	26.663621	0.000404	20.853507
2255.641301	-2.997600	3.245400	-9.727500	26.673352	0.000403	20.861392
2256.643048	-3.006800	3.244400	-9.754300	26.666674	0.000403	20.842826
2257.645076	-3.020000	3.244300	-9.796300	26.647287	0.000401	20.879284
2258.643674	-3.012200	3.244300	-9.770800	26.643663	0.000403	20.859047
2259.642572	-2.992400	3.244500	-9.707800	26.663000	0.000400	20.848616
2260.643977	-3.008700	3.242600	-9.754700	26.656744	0.000402	20.849439
2261.643042	-3.003300	3.243900	-9.741500	26.589793	0.000399	20.841878
2262.641527	-2.981800	3.243300	-9.668100	26.596868	0.000398	20.864162
2263.644241	-2.969800	3.242000	-9.626600	26.616678	0.000398	20.852782
2264.645226	-2.971500	3.241700	-9.631300	26.617721	0.000397	20.868054
2265.641265	-2.987800	3.240300	-9.680000	26.590636	0.000397	20.846045
2266.642622	-2.992500	3.241900	-9.699900	26.633658	0.000398	20.854205
2267.642672	-2.999700	3.241600	-9.722800	26.659524	0.000398	20.842751
2268.641311	-2.984200	3.241100	-9.671500	26.687451	0.000398	20.834790
2269.646113	-2.993900	3.240800	-9.700800	26.716667	0.000396	20.836662
2270.643498	-2.984700	3.238700	-9.665800	26.698497	0.000395	20.841154
2271.641798	-2.987600	3.238000	-9.672500	26.688295	0.000394	20.849389
2272.645642	-2.995000	3.238100	-9.697200	26.664266	0.000392	20.851310
2273.649526	-2.986200	3.238300	-9.668500	26.678614	0.000394	20.847243
2274.655043	-2.993500	3.238300	-9.692200	26.622114	0.000392	20.830747
2275.644742	-2.982100	3.236900	-9.651300	26.620029	0.000390	20.839083
2276.642829	-2.999900	3.237400	-9.710900	26.607170	0.000389	20.851760
2277.644428	-3.002400	3.235900	-9.714400	26.610497	0.000389	20.864112
2278.646919	-2.993100	3.237100	-9.687900	26.648329	0.000388	20.845247
2279.645204	-3.003900	3.235700	-9.718000	26.682040	0.000388	20.824609
2280.647707	-3.008900	3.234800	-9.732600	26.707483	0.000387	20.825058
2281.648083	-2.994100	3.235100	-9.685200	26.733596	0.000388	20.841828
2282.644092	-2.982800	3.234800	-9.646800	26.760702	0.000386	20.846320
2283.646868	-2.985600	3.233500	-9.653000	26.775346	0.000386	20.849664
2284.650811	-3.010500	3.233300	-9.732600	26.816027	0.000384	20.848366
2285.645973	-3.028200	3.232000	-9.787000	26.817517	0.000386	20.853183
2286.642068	-2.983700	3.232800	-9.644300	26.842187	0.000383	20.832470
2287.643238	-2.979400	3.231500	-9.627000	26.872393	0.000384	20.822539
2288.649862	-3.000700	3.232600	-9.699000	26.903292	0.000383	20.838909
2289.652218	-2.999700	3.231500	-9.693300	26.931832	0.000383	20.842003
2290.650146	-2.990500	3.230100	-9.657700	26.910290	0.000381	20.824136
2291.645916	-2.981000	3.229100	-9.625400	26.905972	0.000380	20.820742
2292.648432	-3.004300	3.228800	-9.698800	26.915130	0.000381	20.838484
2293.650541	-3.000100	3.229100	-9.686800	26.886539	0.000379	20.830124
2294.644596	-3.005900	3.229700	-9.707900	26.898626	0.000380	20.849864
2295.644907	-3.004800	3.228600	-9.700500	26.914360	0.000382	20.815426
2296.648987	-2.989500	3.228100	-9.648800	26.901281	0.000377	20.829775
2297.647398	-2.991600	3.228800	-9.657900	26.939872	0.000378	20.828278
2298.650306	-3.004400	3.228500	-9.698800	26.964118	0.000379	20.818994
2299.656993	-2.981600	3.226600	-9.619800	26.994270	0.000378	20.843625
2300.648645	-3.015800	3.224500	-9.723100	26.992285	0.000375	20.823611
2301.647751	-2.987300	3.226000	-9.635900	26.963522	0.000378	20.821714
2302.651443	-3.001100	3.225200	-9.678600	26.926917	0.000375	20.831372
2303.651851	-2.982800	3.227300	-9.625500	26.931385	0.000375	20.863364
2304.654141	-2.989000	3.224000	-9.635900	26.885224	0.000375	20.825483
2305.655351	-3.000300	3.222900	-9.668500	26.902596	0.000375	20.861442
2306.651654	-3.016000	3.222800	-9.718800	26.861597	0.000374	20.828278
2307.653522	-3.001300	3.222800	-9.672200	26.863954	0.000372	20.838235
2308.658082	-2.985900	3.223000	-9.621700	26.872790	0.000376	20.812981
2309.654741	-3.002700	3.221600	-9.672600	26.864103	0.000372	20.822738
2310.654286	-2.980500	3.222200	-9.602400	26.862440	0.000370	20.830549
2311.656170	-2.979000	3.223000	-9.600400	26.859611	0.000372	20.822014
2312.662255	-3.001300	3.220300	-9.664200	26.843008	0.000371	20.818122
2313.653583	-2.982000	3.220100	-9.600900	26.808855	0.000370	20.820293
2314.654584	-3.005800	3.219800	-9.677400	26.843156	0.000371	20.837237
2315.665534	-2.990700	3.219200	-9.626500	26.831044	0.000369	20.828852
2316.659504	-3.005700	3.219400	-9.674100	26.868497	0.000366	20.831898
2317.661241	-2.993700	3.219400	-9.637100	26.897386	0.000369	20.830126
2318.654543	-2.984400	3.218900	-9.605500	26.893465	0.000366	20.827606
2319.655332	-3.005600	3.218800	-9.673800	26.919548	0.000367	20.817798
2320.655220	-3.006700	3.217600	-9.673100	26.963674	0.000367	20.840832
2321.655401	-3.006500	3.215500	-9.666800	26.967446	0.000366	20.832297
2322.656500	-3.010200	3.217000	-9.682400	26.994124	0.000365	20.829728
2323.657054	-2.998300	3.216200	-9.641700	27.006830	0.000363	20.839660
2324.657759	-3.015900	3.214100	-9.692900	27.047105	0.000362	20.832747
2325.659960	-2.969200	3.215400	-9.546400	27.047973	0.000362	20.817500
2326.659360	-2.990600	3.217600	-9.622200	27.062093	0.000362	20.851139
2327.658195	-3.004000	3.215400	-9.657800	27.066634	0.000361	20.827257
2328.658371	-2.987200	3.215000	-9.602700	27.081895	0.000362	20.825536
2329.660892	-3.019900	3.211900	-9.699000	27.094947	0.000362	20.838662
2330.658112	-3.040700	3.211200	-9.761300	27.110579	0.000362	20.833047
2331.658460	-2.976600	3.213100	-9.562100	27.095716	0.000360	20.837539
2332.659989	-3.008600	3.210100	-9.657700	27.039512	0.000360	20.841707
2333.661426	-2.979500	3.211600	-9.567900	27.015491	0.000356	20.829878
2334.660572	-2.973400	3.211400	-9.547800	27.010479	0.000357	20.853286
2335.659071	-2.989300	3.210800	-9.597700	27.058992	0.000357	20.841383
2336.662798	-2.982600	3.209900	-9.572900	27.057156	0.000356	20.828631
2337.665410	-2.997500	3.209600	-9.619900	27.008841	0.000357	20.843105
2338.664598	-3.011300	3.209900	-9.663200	27.028768	0.000358	20.845126
2339.660757	-2.986700	3.211000	-9.588800	27.029165	0.000354	20.841732
2340.665101	-3.008300	3.208100	-9.649100	27.055022	0.000355	20.833597
2341.659992	-2.995700	3.207100	-9.605800	27.043086	0.000355	20.850516
2342.662871	-2.998800	3.206500	-9.615200	26.970426	0.000355	20.841458
2343.664062	-3.012500	3.206700	-9.659300	26.913991	0.000352	20.846823
2344.660736	-2.993400	3.207700	-9.601100	26.906546	0.000354	20.827009
2345.664656	-3.017700	3.206900	-9.676700	26.920815	0.000351	20.824288
2346.668061	-2.997800	3.204500	-9.604300	26.927342	0.000353	20.826109
2347.659341	-3.003600	3.206300	-9.628900	26.887038	0.000351	20.820669
2348.666131	-3.007900	3.205200	-9.639400	26.865396	0.000352	20.838736
2349.662814	-2.996600	3.205200	-9.603800	26.916944	0.000349	20.828455
2350.661006	-2.976600	3.204900	-9.537500	26.940173	0.000352	20.831424
2351.662547	-2.977300	3.204700	-9.539900	26.939502	0.000350	20.836914
2352.664383	-2.996500	3.202000	-9.593800	26.892076	0.000349	20.850864
2353.660468	-3.000400	3.200400	-9.601100	26.885920	0.000347	20.838511
2354.662040	-3.007700	3.201100	-9.626800	26.902002	0.000348	20.838561
2355.662719	-3.020000	3.201900	-9.667400	26.921931	0.000347	20.842005
2356.661724	-2.994900	3.202400	-9.589200	26.948981	0.000346	20.833170
2357.670203	-2.988800	3.201400	-9.567300	26.965063	0.000348	20.837961
2358.662733	-3.000600	3.201000	-9.603900	27.008094	0.000343	20.834293
2359.669831	-3.011200	3.198300	-9.630200	27.015042	0.000344	20.829901
2360.662244	-2.999800	3.198200	-9.592400	26.999011	0.000344	20.837961
2361.664347	-2.981900	3.198600	-9.536500	27.055639	0.000343	20.853183
2362.665751	-3.022100	3.198100	-9.663300	27.069088	0.000343	20.850114
2363.664839	-3.005700	3.196500	-9.606900	27.062463	0.000342	20.850089
2364.662398	-3.015700	3.196100	-9.637600	27.054894	0.000344	20.832995
2365.661767	-3.002700	3.196800	-9.598000	27.017647	0.000342	20.851485
2366.661542	-3.005100	3.196100	-9.603300	26.964019	0.000342	20.834542
2367.671911	-3.008000	3.194700	-9.609500	26.900883	0.000342	20.821315
2368.670058	-3.037100	3.192900	-9.695400	26.869613	0.000342	20.850089
2369.670242	-3.006500	3.194700	-9.604100	26.813024	0.000341	20.840131
2370.672698	-3.001000	3.193200	-9.581200	26.802053	0.000340	20.840955
2371.668744	-2.991000	3.194900	-9.554600	26.832185	0.000338	20.825258
2372.679428	-3.014800	3.192300	-9.622600	26.847375	0.000338	20.833418
2373.669037	-2.971700	3.193800	-9.489500	26.844173	0.000337	20.839208
2374.665932	-3.008900	3.192100	-9.603500	26.849583	0.000339	20.842751
2375.671102	-3.035700	3.191000	-9.686500	26.879242	0.000337	20.846969
2376.667412	-2.998100	3.193300	-9.572700	26.936919	0.000337	20.839058
2377.675704	-3.013500	3.192000	-9.618000	26.951090	0.000335	20.823436
2378.671860	-3.001100	3.189000	-9.570000	26.970621	0.000336	20.854929
2379.666986	-2.975000	3.191200	-9.493000	27.000648	0.000335	20.827754
2380.668103	-2.953400	3.190300	-9.421300	27.034769	0.000337	20.849264
2381.673480	-3.012100	3.188500	-9.603200	27.028417	0.000335	20.852833
2382.669334	-3.027600	3.188600	-9.652200	27.061247	0.000333	20.849340
2383.674145	-3.013200	3.187200	-9.602300	27.060006	0.000333	20.843350
2384.672059	-2.995100	3.188000	-9.547100	27.061495	0.000333	20.849115
2385.670878	-2.999000	3.187900	-9.559400	27.052214	0.000331	20.845946
2386.670365	-2.998100	3.186700	-9.552200	27.044373	0.000331	20.843276
2387.670352	-3.001700	3.186000	-9.562600	27.036110	0.000330	20.861043
2388.674536	-3.010900	3.183100	-9.583000	27.053852	0.000330	20.877937
2389.671879	-3.002600	3.184000	-9.559400	27.036333	0.000329	20.846570
2390.678942	-2.982500	3.183100	-9.491400	27.039509	0.000328	20.857825
2391.674982	-2.994000	3.182400	-9.527200	27.042785	0.000331	20.875816
2392.675597	-2.995000	3.182400	-9.530200	27.054795	0.000329	20.854705
2393.677471	-3.000200	3.182000	-9.545800	27.095937	0.000328	20.868580
2394.682170	-2.990100	3.181900	-9.513300	27.124125	0.000328	20.850937
2395.680870	-3.014400	3.180900	-9.587600	27.140154	0.000326	20.851412
2396.678372	-3.010800	3.181200	-9.576700	27.163378	0.000328	20.869079
2397.685411	-3.020000	3.181300	-9.606400	27.149855	0.000327	20.854056
2398.679984	-2.997400	3.179700	-9.529300	27.106210	0.000327	20.849514
2399.688634	-2.984400	3.179400	-9.487500	27.060899	0.000325	20.871274
2400.680768	-2.990800	3.178600	-9.505000	27.037325	0.000325	20.847568
2401.679976	-2.983000	3.177400	-9.477100	27.071396	0.000324	20.858598
2402.681011	-2.987400	3.177500	-9.491900	27.077302	0.000325	20.860270
2403.690495	-3.005900	3.176200	-9.546100	27.120030	0.000325	20.866258
2404.681984	-3.016800	3.176500	-9.581600	27.166926	0.000325	20.853208
2405.683945	-3.007800	3.178100	-9.558300	27.216673	0.000326	20.867207
2406.683657	-3.006600	3.175700	-9.547000	27.255278	0.000324	20.860519
2407.683464	-3.014400	3.175000	-9.569500	27.264134	0.000323	20.854729
2408.680381	-2.984100	3.175100	-9.474200	27.278822	0.000322	20.844374
2409.682990	-2.989800	3.174200	-9.489200	27.243642	0.000322	20.843126
2410.685109	-2.995100	3.174400	-9.505700	27.229178	0.000322	20.873621
2411.680956	-2.987600	3.172900	-9.477200	27.223248	0.000321	20.866709
2412.686120	-2.982300	3.172000	-9.459000	27.199480	0.000321	20.849441
2413.686770	-3.019500	3.171600	-9.575500	27.248009	0.000321	20.866958
2414.687811	-3.015000	3.170900	-9.558900	27.207791	0.000321	20.864912
2415.687213	-2.998500	3.172700	-9.512200	27.167300	0.000320	20.855006
2416.694443	-3.004700	3.169300	-9.522600	27.143803	0.000318	20.856978
2417.697248	-2.974000	3.171100	-9.430400	27.134696	0.000322	20.880534
2418.690196	-3.003500	3.168900	-9.517300	27.092514	0.000319	20.880783
2419.684352	-2.997200	3.170000	-9.500400	27.111398	0.000318	20.877964
2420.681898	-2.977800	3.168700	-9.434600	27.133878	0.000318	20.872125
2421.685116	-3.003700	3.166400	-9.509700	27.175066	0.000320	20.872300
2422.685655	-2.995300	3.164900	-9.478400	27.221736	0.000318	20.889368
2423.681920	-3.006800	3.165500	-9.517500	27.227294	0.000316	20.875044
2424.687605	-3.003600	3.164000	-9.501700	27.233125	0.000318	20.875220
2425.686029	-3.013200	3.164600	-9.533500	27.212185	0.000321	20.868383
2426.685500	-2.987100	3.163300	-9.447700	27.218884	0.000319	20.872275
2427.688884	-2.996100	3.164900	-9.481300	27.215212	0.000319	20.877116
2428.684231	-3.010500	3.162200	-9.518600	27.190525	0.000315	20.870304
2429.682210	-2.994600	3.162600	-9.469700	27.197497	0.000317	20.881583
2430.683413	-3.020600	3.160900	-9.546300	27.213574	0.000316	20.885900
2431.691814	-3.015100	3.160000	-9.526300	27.250393	0.000315	20.870778
2432.684991	-2.995200	3.160500	-9.466000	27.305867	0.000316	20.863043
2433.688642	-2.994700	3.160000	-9.461500	27.342385	0.000314	20.861371
2434.689071	-2.996700	3.159400	-9.466900	27.360793	0.000312	20.880835
2435.684968	-3.014900	3.158700	-9.522300	27.343254	0.000314	20.883581
2436.690307	-2.993700	3.158900	-9.456100	27.352333	0.000312	20.884653
2437.685408	-2.995100	3.158300	-9.457500	27.364812	0.000314	20.888672
2438.690382	-3.008500	3.157800	-9.497700	27.386618	0.000311	20.897331
2439.686770	-2.991900	3.154800	-9.438000	27.414054	0.000312	20.876095
2440.691546	-2.988300	3.157500	-9.434500	27.414203	0.000312	20.889046
2441.691999	-2.996300	3.153700	-9.447600	27.440249	0.000310	20.861198
2442.691537	-2.972800	3.155500	-9.379000	27.447740	0.000311	20.885803
2443.691533	-3.024000	3.152800	-9.532300	27.412095	0.000311	20.887400
2444.691577	-2.995900	3.151700	-9.440900	27.398476	0.000309	20.890294
2445.690351	-2.980000	3.153600	-9.396500	27.389422	0.000308	20.887350
2446.691195	-3.013900	3.152200	-9.499200	27.340973	0.000307	20.895984
2447.696383	-2.999400	3.150800	-9.450100	27.328346	0.000307	20.879490
2448.692782	-3.007200	3.150600	-9.473900	27.317306	0.000308	20.890669
2449.691335	-3.000100	3.150300	-9.450500	27.295773	0.000308	20.881811
2450.692899	-2.984400	3.153200	-9.409400	27.304779	0.000306	20.890870
2451.693927	-3.001300	3.149400	-9.451400	27.272428	0.000307	20.897682
2452.692611	-3.007900	3.147200	-9.465700	27.243996	0.000303	20.894213
2453.693585	-3.018200	3.145900	-9.493400	27.224347	0.000304	20.905743
2454.698603	-2.999600	3.147500	-9.439000	27.218466	0.000303	20.899828
2455.698596	-2.993300	3.145300	-9.413800	27.227795	0.000305	20.896884
2456.696648	-2.996900	3.144600	-9.423400	27.237074	0.000305	20.917595
2457.694187	-3.005500	3.145900	-9.454100	27.270121	0.000303	20.891569
2458.699008	-2.999400	3.144000	-9.429700	27.285553	0.000303	20.891445
2459.699327	-2.993600	3.142200	-9.405300	27.334625	0.000301	20.916623
2460.699923	-2.973900	3.142700	-9.345100	27.350154	0.000302	20.896211
2461.701355	-2.995400	3.141100	-9.407800	27.325669	0.000300	20.891021
2462.701259	-3.007500	3.138700	-9.437800	27.290540	0.000301	20.905943
2463.703687	-3.013300	3.138200	-9.455600	27.298330	0.000302	20.916623
2464.706763	-3.003800	3.139800	-9.429900	27.322493	0.000299	20.920066
2465.703052	-3.000500	3.139600	-9.418500	27.351692	0.000303	20.929049
2466.697258	-2.961800	3.139000	-9.295500	27.374591	0.000301	20.911783
2467.701557	-2.991600	3.137200	-9.383700	27.377269	0.000298	20.912580
2468.699711	-2.993700	3.135700	-9.386500	27.372903	0.000297	20.902025
2469.698949	-2.997400	3.135700	-9.398000	27.392128	0.000299	20.908089
2470.702412	-2.991000	3.134900	-9.375900	27.395452	0.000298	20.916173
2471.701087	-2.987800	3.135000	-9.365600	27.430354	0.000300	20.909561
2472.704263	-3.007600	3.133300	-9.422500	27.449827	0.000297	20.911133
2473.700484	-2.995900	3.133200	-9.385500	27.481280	0.000298	20.907215
2474.708103	-2.995000	3.131000	-9.376300	27.503058	0.000298	20.903522
2475.702593	-2.990500	3.131800	-9.365200	27.514840	0.000297	20.907789
2476.705814	-2.990800	3.131000	-9.362600	27.485595	0.000297	20.893066
2477.712316	-2.994200	3.130400	-9.371900	27.518783	0.000298	20.915075
2478.712644	-2.989200	3.129300	-9.353600	27.533888	0.000298	20.919367
2479.715723	-2.979800	3.129600	-9.323800	27.563627	0.000297	20.910883
2480.706166	-3.003700	3.127000	-9.392200	27.582477	0.000297	20.926054
2481.705076	-2.985700	3.127700	-9.337400	27.549687	0.000298	20.926253
2482.705264	-2.985300	3.126600	-9.332800	27.556583	0.000298	20.918019
2483.707664	-2.986300	3.125700	-9.333800	27.582923	0.000296	20.932192
2484.702918	-2.977100	3.124000	-9.299200	27.575854	0.000298	20.944992
2485.708010	-2.995000	3.124200	-9.355900	27.580467	0.000299	20.918343
2486.707138	-2.990600	3.122600	-9.336300	27.557847	0.000297	20.932092
2487.707589	-2.983400	3.121500	-9.312100	27.574490	0.000296	20.919915
2488.707070	-3.019200	3.121500	-9.422900	27.576723	0.000297	20.926902
2489.712410	-2.980800	3.119700	-9.296600	27.597928	0.000298	20.922161
2490.706644	-3.012900	3.117900	-9.391900	27.620869	0.000297	20.941923
2491.707614	-3.006100	3.118100	-9.373200	27.639272	0.000297	20.910183
2492.715072	-3.028300	3.115800	-9.434100	27.677688	0.000296	20.937931
2493.715380	-3.002000	3.118000	-9.358900	27.702488	0.000296	20.927326
2494.712232	-2.991100	3.117300	-9.322800	27.720045	0.000297	20.917969
2495.710686	-2.988100	3.115600	-9.308700	27.710175	0.000293	20.914201
2496.707463	-2.966700	3.116400	-9.244300	27.665089	0.000297	20.920514
2497.707902	-2.999200	3.114400	-9.339400	27.625135	0.000296	20.907813
2498.708920	-3.001600	3.113000	-9.343200	27.628880	0.000297	20.924382
2499.708677	-2.986400	3.112100	-9.292700	27.652317	0.000295	20.928998
2500.719856	-2.981000	3.111000	-9.272000	27.671885	0.000294	20.925929
2501.718447	-3.014600	3.107900	-9.368600	27.675506	0.000294	20.929572
2502.713193	-2.998400	3.108700	-9.318900	27.701174	0.000292	20.941649
2503.715932	-3.008700	3.107800	-9.349900	27.706902	0.000295	20.923234
2504.715431	-2.994900	3.107400	-9.305200	27.711069	0.000293	20.948761
2505.712242	-3.003800	3.106000	-9.327300	27.705439	0.000292	20.945941
2506.715121	-2.997700	3.105700	-9.308800	27.653186	0.000293	20.937932
2507.708395	-2.992200	3.105800	-9.292000	27.642422	0.000292	20.946066
2508.714044	-2.993000	3.103000	-9.286800	27.652219	0.000293	20.931270
2509.715326	-2.984000	3.103000	-9.257400	27.672481	0.000291	20.945967
2510.714838	-2.970300	3.102700	-9.215000	27.687237	0.000291	20.939479
2511.722400	-3.024600	3.100300	-9.376300	27.670770	0.000293	20.934764
2512.716563	-3.000600	3.100100	-9.301600	27.657105	0.000292	20.953728
2513.715806	-3.018500	3.099500	-9.354800	27.690884	0.000292	20.953104
2514.716866	-2.988400	3.099100	-9.259600	27.679004	0.000290	20.943997
2515.719582	-3.013300	3.096700	-9.330900	27.715584	0.000290	20.965156
2516.714328	-3.043000	3.095900	-9.418000	27.732423	0.000291	20.946068
2517.714754	-2.992100	3.096500	-9.264000	27.703929	0.000291	20.944895
2518.717383	-3.001400	3.094600	-9.287000	27.689644	0.000289	20.927679
2519.718656	-3.008600	3.094700	-9.310200	27.708591	0.000290	20.967128
2520.723422	-2.994400	3.094100	-9.263800	27.711765	0.000289	20.974114
2521.721062	-2.990200	3.092700	-9.246900	27.701623	0.000287	20.943050
2522.720099	-2.989600	3.090500	-9.238000	27.682205	0.000288	20.953380
2523.719151	-2.989600	3.091500	-9.240800	27.688281	0.000287	20.972768
2524.722441	-2.995800	3.088400	-9.251400	27.635208	0.000288	20.946868
2525.722120	-3.013000	3.088900	-9.305700	27.627496	0.000288	20.973242
2526.720929	-3.002500	3.086700	-9.267400	27.654727	0.000289	20.934741
2527.720609	-2.998600	3.085900	-9.252400	27.679775	0.000289	20.945246
2528.722070	-2.984900	3.085600	-9.209400	27.700929	0.000286	20.951360
2529.719326	-3.007500	3.083500	-9.272800	27.723670	0.000289	20.970922
2530.724552	-2.985100	3.084100	-9.205200	27.707180	0.000286	20.962863
2531.722970	-2.999400	3.082100	-9.243300	27.726993	0.000288	20.942976
2532.719099	-3.022300	3.080600	-9.308800	27.705840	0.000288	20.953456
2533.721114	-2.980400	3.081300	-9.182200	27.644683	0.000286	20.975838
2534.730034	-3.015300	3.078600	-9.281900	27.608350	0.000289	20.959195
2535.723174	-3.004500	3.079100	-9.250100	27.627720	0.000288	20.940282
2536.720888	-3.021000	3.077300	-9.295800	27.602943	0.000289	20.940955
2537.725057	-3.022200	3.075700	-9.294300	27.612045	0.000286	20.968602
2538.719428	-3.000100	3.075700	-9.226100	27.609912	0.000287	20.918572
2539.718863	-2.990000	3.075100	-9.194300	27.637664	0.000287	20.965932
2540.725014	-2.996500	3.073500	-9.208800	27.664350	0.000288	20.933519
2541.721031	-3.007900	3.073900	-9.245000	27.692474	0.000287	20.961816
2542.728580	-3.005100	3.071900	-9.230900	27.715884	0.000285	20.942228
2543.726216	-3.010600	3.071500	-9.246100	27.766647	0.000286	20.943526
2544.724908	-2.999600	3.070200	-9.208500	27.777136	0.000287	20.947917
2545.722723	-2.996500	3.069200	-9.194400	27.783981	0.000286	20.946745
2546.727680	-3.000500	3.068300	-9.205900	27.793627	0.000286	20.939384
2547.728434	-3.001900	3.067900	-9.208600	27.814383	0.000286	20.928979
2548.723210	-3.023400	3.065300	-9.266300	27.778426	0.000284	20.942578
2549.730567	-2.981800	3.063200	-9.133300	27.742717	0.000286	20.939359
2550.724027	-3.015500	3.062100	-9.232900	27.679009	0.000283	20.925985
2551.725809	-2.997800	3.062000	-9.178200	27.631962	0.000285	20.938861
2552.729818	-2.964900	3.062200	-9.078200	27.594016	0.000286	20.929129
2553.727196	-3.007900	3.059100	-9.200300	27.616313	0.000285	20.944925
2554.726799	-2.993800	3.060200	-9.160900	27.657111	0.000284	20.943303
2555.728068	-2.981800	3.059800	-9.122600	27.695079	0.000283	20.926035
2556.726871	-3.001300	3.057200	-9.175000	27.762483	0.000284	20.915156
2557.724665	-2.984000	3.057100	-9.121100	27.763351	0.000284	20.932623
2558.727486	-2.982900	3.055800	-9.113500	27.769202	0.000286	20.938037
2559.726063	-2.984000	3.054600	-9.113500	27.750877	0.000284	20.923864
2560.725934	-3.011100	3.053000	-9.191900	27.692748	0.000285	20.929853
2561.730556	-3.033200	3.051100	-9.254000	27.683424	0.000284	20.922368
2562.727928	-3.001600	3.051800	-9.159300	27.703065	0.000283	20.932174
2563.727991	-2.981700	3.050800	-9.094900	27.730616	0.000285	20.939984
2564.735170	-2.994600	3.048100	-9.127100	27.731410	0.000285	20.915181
2565.728602	-2.991400	3.048400	-9.117600	27.705495	0.000284	20.911862
2566.726232	-3.007000	3.046700	-9.160200	27.689474	0.000283	20.917551
2567.735546	-3.029500	3.043600	-9.219300	27.640692	0.000283	20.926783
2568.728335	-2.990600	3.044100	-9.102600	27.576902	0.000283	20.921868
2569.726444	-2.999700	3.043200	-9.127500	27.569263	0.000284	20.916553
2570.733540	-2.978700	3.043100	-9.063400	27.583077	0.000285	20.914806
2571.726811	-2.980300	3.040700	-9.061000	27.642403	0.000284	20.936565
2572.739159	-2.995900	3.040400	-9.107700	27.682604	0.000284	20.910639
2573.732558	-3.004500	3.038500	-9.128700	27.715810	0.000285	20.913234
2574.736490	-3.005800	3.037200	-9.128400	27.753108	0.000286	20.930850
2575.726722	-3.007400	3.036200	-9.130400	27.771831	0.000283	20.916503
2576.730775	-2.990900	3.034800	-9.075800	27.779394	0.000284	20.923640
2577.736778	-2.983100	3.033700	-9.049100	27.780758	0.000284	20.917426
2578.727602	-2.990200	3.032900	-9.067800	27.770467	0.000283	20.922242
2579.735682	-3.022900	3.031600	-9.163000	27.761490	0.000283	20.920795
2580.736968	-3.023700	3.030000	-9.160600	27.754051	0.000282	20.908569
2581.732598	-2.997800	3.029600	-9.081000	27.736766	0.000284	20.907770
2582.742420	-3.010100	3.026200	-9.108600	27.726153	0.000283	20.913684
2583.732997	-3.003700	3.026500	-9.089000	27.739544	0.000283	20.902031
2584.732366	-3.021800	3.024700	-9.139300	27.759160	0.000283	20.914657
2585.738096	-2.984500	3.024700	-9.026600	27.797175	0.000284	20.911189
2586.736259	-2.987000	3.024500	-9.033200	27.841090	0.000284	20.905600
2587.733404	-3.002000	3.022700	-9.073200	27.826882	0.000284	20.907896
2588.734851	-3.012000	3.020400	-9.096400	27.827229	0.000283	20.889281
2589.742054	-3.012300	3.019000	-9.093600	27.825891	0.000284	20.912114
2590.744901	-3.027800	3.019200	-9.141200	27.807144	0.000284	20.924540
2591.739525	-3.025100	3.016800	-9.125600	27.811707	0.000283	20.905900
2592.736421	-2.994700	3.016900	-9.033400	27.780786	0.000283	20.913662
2593.736462	-2.986600	3.015000	-9.003100	27.782051	0.000283	20.903556
2594.737899	-3.011500	3.014700	-9.077700	27.809328	0.000284	20.903506
2595.736747	-3.011000	3.012700	-9.070000	27.838340	0.000284	20.901884
2596.738661	-3.011000	3.010800	-9.064900	27.863459	0.000283	20.911042
2597.739682	-2.998900	3.011300	-9.029800	27.896139	0.000282	20.888933
2598.736694	-2.985900	3.010400	-8.987400	27.883072	0.000284	20.917506
2599.739587	-2.997000	3.009100	-9.017500	27.915554	0.000284	20.898042
2600.738745	-2.988800	3.007900	-8.988900	27.926985	0.000284	20.909546
2601.740415	-3.008200	3.004800	-9.038100	27.937943	0.000283	20.894025
2602.744596	-2.979400	3.006200	-8.955000	27.950737	0.000283	20.926339
2603.741019	-2.973700	3.003700	-8.931600	27.939531	0.000281	20.905105
2604.746129	-2.999800	3.001400	-9.003500	27.936953	0.000283	20.903933
2605.742359	-2.984300	3.000000	-8.952000	27.915134	0.000284	20.889085
2606.742189	-2.987700	3.000700	-8.964200	27.951333	0.000283	20.881899
2607.741518	-2.995800	2.998900	-8.982900	27.936706	0.000283	20.886616
2608.741934	-3.004600	2.996900	-9.003300	27.933507	0.000283	20.890983
2609.744821	-2.988800	2.995600	-8.951900	27.944516	0.000282	20.906330
2610.746455	-2.991200	2.993500	-8.953100	27.929194	0.000280	20.914140
2611.743767	-3.032400	2.992000	-9.072200	27.918879	0.000281	20.893329
2612.745388	-3.020300	2.991600	-9.033700	27.893440	0.000281	20.892855
2613.748989	-3.038600	2.990500	-9.086400	27.849181	0.000281	20.889562
2614.748942	-3.020700	2.988100	-9.024400	27.844147	0.000281	20.893030
2615.747044	-3.001200	2.987300	-8.964900	27.847867	0.000281	20.918583
2616.757839	-3.001500	2.987000	-8.964100	27.841941	0.000282	20.899344
2617.749304	-3.009500	2.983100	-8.976500	27.844272	0.000279	20.885570
2618.749733	-2.985500	2.982900	-8.904800	27.862794	0.000280	20.876712
2619.752749	-2.949400	2.984200	-8.800600	27.904103	0.000280	20.868028
2620.746760	-3.014100	2.979600	-8.980500	27.918980	0.000280	20.899120
2621.747375	-3.021600	2.978900	-8.999800	27.950022	0.000280	20.900018
2622.750820	-2.989800	2.978900	-8.904800	27.974270	0.000281	20.893606
2623.747045	-2.980500	2.977900	-8.874400	28.001617	0.000279	20.881304
2624.752035	-3.004200	2.974500	-8.935200	28.051498	0.000279	20.886469
2625.752660	-3.001800	2.974300	-8.926800	28.047557	0.000280	20.894355
2626.751574	-2.996800	2.972200	-8.905800	28.076860	0.000278	20.883550
2627.752062	-3.011900	2.970100	-8.943900	28.103262	0.000279	20.885471
2628.757031	-3.019300	2.968600	-8.962200	28.123688	0.000280	20.886594
2629.750794	-2.989400	2.968200	-8.872400	28.163995	0.000280	20.891136
2630.750787	-3.013000	2.966800	-8.937300	28.140967	0.000279	20.902090
2631.757825	-2.999100	2.966000	-8.894000	28.134993	0.000281	20.886595
2632.752758	-3.005500	2.964400	-8.908900	28.098626	0.000280	20.912571
2633.749731	-2.997000	2.962800	-8.877700	28.058167	0.000278	20.874691
2634.757074	-2.994500	2.960600	-8.864600	28.039946	0.000280	20.876263
2635.751307	-2.982100	2.960200	-8.827000	28.012775	0.000281	20.890163
2636.750289	-2.997900	2.957700	-8.865300	28.023880	0.000280	20.890437
2637.755598	-3.017100	2.957000	-8.919900	28.031392	0.000281	20.866706
2638.750807	-3.008300	2.954200	-8.886300	28.071034	0.000281	20.890962
2639.752667	-2.982200	2.953900	-8.808300	28.105195	0.000280	20.848539
2640.757767	-3.012900	2.952000	-8.892400	28.103559	0.000279	20.878185
2641.757610	-2.994100	2.951200	-8.835100	28.052961	0.000279	20.870400
2642.755179	-3.008400	2.948200	-8.867400	28.026013	0.000281	20.879782
2643.760415	-3.001000	2.948700	-8.847800	27.989345	0.000278	20.875590
2644.757550	-2.999300	2.946400	-8.836500	27.955180	0.000280	20.881029
2645.753071	-2.975400	2.945300	-8.762200	28.009899	0.000279	20.866407
2646.758085	-2.968100	2.945100	-8.739600	28.052788	0.000280	20.885396
2647.755944	-2.999400	2.941900	-8.822800	28.093892	0.000279	20.885522
2648.757695	-2.981700	2.942600	-8.772900	28.132240	0.000278	20.878135
2649.763988	-3.006200	2.938800	-8.834100	28.146619	0.000279	20.864161
2650.756650	-2.989600	2.937200	-8.780400	28.130283	0.000277	20.875690
2651.757829	-2.971600	2.935900	-8.723600	28.080108	0.000279	20.889190
2652.755439	-3.020600	2.934200	-8.861700	28.049739	0.000276	20.875216
2653.758051	-3.005400	2.933200	-8.814600	28.084396	0.000278	20.865533
2654.753830	-3.017500	2.931200	-8.843700	28.084867	0.000278	20.856999
2655.757432	-3.031900	2.928200	-8.877000	28.070811	0.000279	20.857074
2656.757715	-3.018500	2.927400	-8.833800	28.072074	0.000280	20.870199
2657.753718	-2.994400	2.925800	-8.759800	28.109061	0.000279	20.863810
2658.757298	-2.993300	2.926500	-8.758800	28.095873	0.000280	20.881827
2659.754358	-3.002900	2.923500	-8.778600	28.052018	0.000279	20.866605
2660.757189	-3.001400	2.921600	-8.767900	28.034788	0.000278	20.871546
2661.765972	-2.981900	2.921600	-8.711200	28.012301	0.000281	20.855076
2662.760952	-3.016200	2.919400	-8.804500	28.035481	0.000279	20.868451
2663.754554	-2.999900	2.917600	-8.750500	28.077353	0.000280	20.853702
2664.760999	-3.037300	2.915600	-8.854400	28.058834	0.000280	20.875836
2665.763918	-3.013000	2.914100	-8.779300	28.024770	0.000279	20.883272
2666.756486	-3.021500	2.910900	-8.794300	28.026754	0.000279	20.838330
2667.755154	-2.989800	2.911700	-8.703400	28.002854	0.000278	20.857420
2668.754709	-3.028000	2.908300	-8.804600	27.995788	0.000281	20.840351
2669.757690	-3.016400	2.906600	-8.766500	27.987953	0.000276	20.856646
2670.763225	-3.022300	2.903500	-8.774100	27.992961	0.000280	20.852678
2671.768539	-2.978900	2.904700	-8.651500	28.029232	0.000279	20.835609
2672.757492	-2.993500	2.902800	-8.689300	28.040066	0.000280	20.850308
2673.760499	-3.014900	2.899700	-8.741500	28.043809	0.000279	20.822782
2674.763884	-2.987000	2.899900	-8.660800	28.096366	0.000277	20.840126
2675.762165	-2.991200	2.896600	-8.663400	28.115231	0.000280	20.839676
2676.763109	-3.000900	2.896100	-8.688100	28.163917	0.000279	20.865454
2677.763705	-2.954500	2.894800	-8.551200	28.198967	0.000281	20.851430
2678.771020	-2.995500	2.891600	-8.660700	28.200430	0.000279	20.864281
2679.762835	-3.000100	2.890400	-8.669600	28.231215	0.000279	20.816568
2680.761836	-3.018300	2.887900	-8.715600	28.257439	0.000279	20.846289
2681.762797	-3.003700	2.887300	-8.672100	28.172270	0.000278	20.832614
2682.763931	-2.979400	2.885300	-8.595100	28.159157	0.000277	20.856395
2683.764629	-2.975100	2.882200	-8.573300	28.187812	0.000277	20.851105
2684.762121	-3.013500	2.879700	-8.676500	28.220111	0.000278	20.852328
2685.763310	-3.000400	2.878000	-8.633400	28.232380	0.000278	20.864206
2686.765167	-2.974300	2.878100	-8.560000	28.274145	0.000277	20.852202
2687.770597	-2.991000	2.875800	-8.599300	28.295858	0.000279	20.823804
2688.769164	-3.002000	2.871900	-8.620100	28.298509	0.000279	20.837379
2689.765723	-3.026400	2.870700	-8.686900	28.242542	0.000279	20.831290
2690.765167	-3.003800	2.867800	-8.613600	28.244698	0.000281	20.847685
2691.768393	-3.010600	2.866800	-8.630100	28.226529	0.000278	20.851203
2692.768780	-3.003200	2.865400	-8.604000	28.245442	0.000279	20.843219
2693.767287	-2.986400	2.862900	-8.548800	28.220234	0.000279	20.834909
2694.770628	-3.002000	2.861600	-8.588900	28.213987	0.000279	20.830516
2695.771360	-2.977100	2.861200	-8.516300	28.182407	0.000279	20.842819
2696.767973	-3.009400	2.856700	-8.596100	28.168179	0.000280	20.819013
2697.768502	-3.019400	2.855400	-8.620700	28.178119	0.000278	20.822381
2698.774998	-3.008300	2.853500	-8.583500	28.188878	0.000280	20.839851
2699.769538	-2.990600	2.852900	-8.530400	28.215524	0.000280	20.849607
2700.769036	-3.002500	2.849800	-8.555500	28.239270	0.000278	20.837479
2701.772363	-2.993800	2.846000	-8.519600	28.244203	0.000280	20.818264
2702.765336	-3.014000	2.845600	-8.575300	28.242022	0.000279	20.838827
2703.770755	-2.980000	2.843000	-8.471300	28.224523	0.000277	20.813149
2704.771716	-3.011300	2.840300	-8.551700	28.215054	0.000279	20.836806
2705.767572	-3.016000	2.839300	-8.562000	28.180302	0.000277	20.828846
2706.771041	-2.997700	2.838000	-8.506400	28.154794	0.000276	20.814547
2707.771186	-2.974200	2.835800	-8.433600	28.196563	0.000278	20.825302
2708.770139	-3.010600	2.832600	-8.527200	28.235925	0.000275	20.821310
2709.771618	-2.955500	2.831700	-8.367500	28.266190	0.000277	20.827124
2710.774827	-3.008300	2.827900	-8.506900	28.276005	0.000276	20.844593
2711.768756	-2.982500	2.826700	-8.429400	28.268519	0.000275	20.810504
2712.769526	-2.995500	2.824400	-8.459500	28.291695	0.000276	20.815820
2713.773004	-2.985000	2.821500	-8.421600	28.264901	0.000275	20.826775
2714.774567	-2.995100	2.820000	-8.445800	28.276253	0.000276	20.814971
2715.772231	-2.970800	2.817600	-8.368600	28.283515	0.000276	20.831766
2716.780919	-2.989900	2.814100	-8.413300	28.274097	0.000276	20.818964
2717.773167	-2.935300	2.815200	-8.262100	28.271990	0.000276	20.819688
2718.770919	-3.005500	2.809400	-8.442600	28.285250	0.000278	20.833513
2719.774359	-2.984000	2.808800	-8.380300	28.321957	0.000277	20.828746
2720.774942	-2.996100	2.805100	-8.403800	28.341933	0.000276	20.814247
2721.776499	-2.976900	2.803400	-8.343800	28.335142	0.000276	20.813573
2722.787053	-2.974400	2.802700	-8.335200	28.349617	0.000276	20.829095
2723.777217	-2.984100	2.798300	-8.349400	28.312092	0.000274	20.833038
2724.782041	-3.009500	2.795100	-8.410500	28.267329	0.000275	20.812150
2725.779874	-3.005400	2.791200	-8.388100	28.220407	0.000274	20.820859
2726.779699	-2.986900	2.791000	-8.334800	28.182929	0.000275	20.808257
2727.790151	-2.993000	2.787700	-8.342200	28.187192	0.000276	20.807807
2728.780741	-2.977700	2.786400	-8.296000	28.195024	0.000276	20.837504
2729.784362	-3.002300	2.781400	-8.349100	28.208311	0.000277	20.813896
2730.777656	-2.983100	2.780200	-8.292100	28.241947	0.000278	20.811725
2731.785223	-3.004500	2.778200	-8.346600	28.271640	0.000278	20.815542
2732.781980	-3.007400	2.774900	-8.343700	28.264253	0.000276	20.822330
2733.784682	-2.987500	2.771500	-8.278900	28.227420	0.000276	20.813221
2734.787214	-3.030100	2.768700	-8.387900	28.196312	0.000276	20.795178
2735.779566	-3.001500	2.764700	-8.297200	28.215274	0.000275	20.822329
2736.778481	-2.976900	2.763000	-8.224000	28.234186	0.000276	20.787316
2737.787206	-3.013600	2.758400	-8.311400	28.261873	0.000278	20.825623
2738.782139	-2.990800	2.757800	-8.246900	28.291145	0.000279	20.809102
2739.780935	-3.004900	2.753700	-8.273600	28.344036	0.000277	20.798820
2740.783212	-3.019100	2.750600	-8.301700	28.336303	0.000278	20.794353
2741.781794	-2.995400	2.748300	-8.230200	28.340417	0.000279	20.811298
2742.779918	-2.998400	2.743300	-8.223900	28.351521	0.000279	20.814891
2743.784508	-2.991700	2.742900	-8.205000	28.379749	0.000280	20.800641
2744.780284	-2.994000	2.737900	-8.196800	28.414149	0.000280	20.801615
2745.782222	-2.988200	2.734600	-8.170800	28.445151	0.000279	20.807704
2746.782335	-3.005700	2.731900	-8.210000	28.434024	0.000278	20.801241
2747.783558	-2.989800	2.729300	-8.159000	28.448993	0.000278	20.802089
2748.792499	-2.997000	2.724400	-8.163800	28.463044	0.000277	20.804385
2749.782823	-3.020500	2.720800	-8.216300	28.438187	0.000277	20.805433
2750.784299	-3.015200	2.717400	-8.192000	28.405822	0.000279	20.797024
2751.783002	-2.994700	2.713300	-8.124400	28.394570	0.000280	20.802764
2752.781211	-2.993000	2.710800	-8.112400	28.392092	0.000280	20.790785
2753.786711	-3.030400	2.706400	-8.200200	28.376106	0.000279	20.805508
2754.786745	-3.007400	2.703800	-8.129800	28.374223	0.000280	20.805983
2755.787571	-3.004600	2.701200	-8.115100	28.357718	0.000283	20.813071
2756.786083	-3.008000	2.694800	-8.104800	28.378709	0.000281	20.819983
2757.785035	-2.991400	2.693100	-8.054200	28.423443	0.000280	20.810500
2758.781831	-3.022600	2.687400	-8.121500	28.442302	0.000280	20.814318
2759.786417	-2.995200	2.686100	-8.044700	28.418040	0.000280	20.815965
2760.788001	-3.007200	2.680200	-8.059300	28.435538	0.000279	20.794230
2761.784695	-2.994000	2.676700	-8.012800	28.436504	0.000279	20.794255
2762.783979	-2.993600	2.675100	-8.006100	28.438611	0.000282	20.815817
2763.793850	-2.995700	2.670600	-7.999000	28.454175	0.000281	20.805885
2764.787955	-3.015900	2.666300	-8.040100	28.434448	0.000279	20.810202
2765.792654	-3.012300	2.662400	-8.018400	28.390781	0.000280	20.816966
2766.785998	-3.025700	2.656800	-8.037500	28.337495	0.000282	20.819261
2767.791559	-3.029100	2.653700	-8.036900	28.324162	0.000281	20.812475
2768.787848	-2.997800	2.649100	-7.939700	28.323691	0.000282	20.821009
2769.787878	-3.031500	2.644600	-8.015700	28.345850	0.000283	20.821509
2770.790167	-2.994200	2.639900	-7.903600	28.331499	0.000281	20.838827
2771.790752	-3.002300	2.637200	-7.916500	28.353484	0.000279	20.840101
2772.794938	-3.000500	2.631700	-7.894400	28.371353	0.000279	20.809256
2773.790808	-3.020500	2.626200	-7.932000	28.413634	0.000280	20.793985
2774.790811	-3.034700	2.621800	-7.955200	28.461935	0.000279	20.823183
2775.791512	-3.007800	2.617400	-7.871200	28.493879	0.000280	20.824531
2776.793674	-2.970200	2.612300	-7.758000	28.551195	0.000279	20.828673
2777.795098	-3.015200	2.607600	-7.861200	28.558952	0.000279	20.812778
2778.796427	-2.963600	2.604500	-7.718100	28.553228	0.000280	20.825979
2779.787098	-2.974700	2.598800	-7.730000	28.560489	0.000279	20.810532
2780.790033	-2.988000	2.593900	-7.749000	28.569261	0.000280	20.794237
2781.795846	-3.009600	2.587000	-7.784200	28.590248	0.000277	20.820589
2782.791190	-2.971500	2.584100	-7.678500	28.632447	0.000279	20.805717
2783.792502	-2.981500	2.576700	-7.681400	28.641144	0.000277	20.818744
2784.794787	-2.967600	2.571600	-7.630400	28.650411	0.000278	20.807215
2785.791586	-2.987500	2.566900	-7.667900	28.614880	0.000279	20.810310
2786.794295	-2.974500	2.561000	-7.616400	28.608189	0.000275	20.826804
2787.793848	-2.997500	2.555000	-7.657500	28.631183	0.000276	20.827678
2788.790862	-2.991900	2.549000	-7.625600	28.644861	0.000277	20.820117
2789.794039	-3.010500	2.541300	-7.649400	28.707397	0.000276	20.817671
2790.802494	-3.003700	2.536100	-7.616700	28.755214	0.000277	20.809885
2791.793430	-2.993800	2.531400	-7.577300	28.784696	0.000277	20.818245
2792.800349	-2.974500	2.525900	-7.512300	28.837760	0.000278	20.824759
2793.802367	-2.991100	2.518600	-7.531900	28.842987	0.000279	20.833817
2794.796958	-2.978500	2.513700	-7.485700	28.764876	0.000276	20.826730
2795.796972	-2.967000	2.506600	-7.436100	28.713270	0.000278	20.824534
2796.801374	-2.990600	2.501300	-7.479600	28.713690	0.000278	20.826854
2797.795512	-3.021700	2.493400	-7.533400	28.753926	0.000278	20.854105
