LabVIEW Measurement	
Writer_Version	2
Reader_Version	2
Separator	Tab
Decimal_Separator	.
Multi_Headings	No
X_Columns	One
Time_Pref	Absolute
Operator	admin
Description	Clolumns are: time, Current, Voltage, Power, Battery Temp, and Chamber Temp
Date	2024/08/16
Time	13:06:06.104549407958984375
***End_of_Header***	
	
Channels	6						
Samples	1	1	1	1	1	1	
Date	2024/08/25	2024/08/25	2024/08/25	2024/08/25	2024/08/25	2024/08/25	
Time	16:44:16.0474615097045898438	16:44:16.0535125732421875	16:44:16.0603928565979003906	16:44:16.0314970016479492188	16:44:16.0314970016479492188	16:44:16.0314970016479492188	
X_Dimension	Time	Time	Time	Time	Time	Time	
X0	0.0000000000000000E+0	0.0000000000000000E+0	0.0000000000000000E+0	0.0000000000000000E+0	0.0000000000000000E+0	0.0000000000000000E+0	
Delta_X	1.000000	1.000000	1.000000	1.000000	1.000000	1.000000	
***End_of_Header***							
X_Value	Untitled	Untitled 1	Untitled 2	Untitled 3	Untitled 4	Untitled 5	Comment
0.000000	-0.005574	4.110000	-0.022921	21.020942	0.000966	20.776774
1.001343	-3.006000	3.953200	-11.882000	21.014877	0.000965	20.792994
2.002223	-3.004400	3.945900	-11.854000	21.024636	0.000965	20.799910
3.004409	-3.005000	3.941000	-11.841000	21.043068	0.000965	20.769982
4.004187	-2.960400	3.936700	-11.653000	21.031414	0.000962	20.791041
5.005419	-2.991500	3.932800	-11.763000	21.046232	0.000961	20.794009
6.006287	-2.973800	3.930500	-11.687000	21.023182	0.000961	20.780912
7.007061	-3.015400	3.925900	-11.838000	21.035655	0.000961	20.817569
8.006217	-3.003600	3.925200	-11.789000	21.041843	0.000962	20.801947
9.004439	-3.016000	3.921800	-11.828000	21.018059	0.000959	20.794754
10.002578	-3.006500	3.920500	-11.786000	21.042717	0.000957	20.799028
11.005599	-2.994300	3.919800	-11.736000	21.027516	0.000958	20.775289
12.005966	-2.989600	3.917900	-11.711000	21.049322	0.000956	20.787617
13.008675	-3.019100	3.915500	-11.821000	21.063944	0.000956	20.771896
14.009148	-3.005200	3.914300	-11.762000	21.057357	0.000956	20.794231
15.008339	-2.996300	3.913300	-11.725000	21.059105	0.000954	20.789341
16.008591	-2.994800	3.912200	-11.715000	21.049298	0.000955	20.779532
17.008871	-2.994800	3.911300	-11.713000	21.070760	0.000954	20.794360
18.006288	-2.991800	3.911700	-11.701000	21.053842	0.000952	20.779809
19.008701	-3.008600	3.908600	-11.759000	21.074594	0.000951	20.789187
20.010885	-3.020600	3.906500	-11.799000	21.076996	0.000951	20.796805
21.012609	-2.994000	3.908400	-11.701000	21.082407	0.000949	20.778984
22.013250	-3.013100	3.905700	-11.767000	21.079219	0.000949	20.779114
23.009138	-2.994800	3.906200	-11.698000	21.085627	0.000950	20.766083
24.010769	-2.980800	3.904900	-11.639000	21.111583	0.000948	20.768812
25.011738	-3.007300	3.904300	-11.740000	21.117141	0.000946	20.772949
26.011909	-3.000600	3.902700	-11.710000	21.083959	0.000946	20.772949
27.011604	-2.986800	3.903200	-11.657000	21.111225	0.000947	20.778411
28.011986	-2.996600	3.901400	-11.689000	21.114322	0.000945	20.775819
29.013890	-2.999300	3.902100	-11.701000	21.108005	0.000947	20.789415
30.012604	-3.038400	3.897500	-11.841000	21.125224	0.000946	20.783406
31.013168	-3.021100	3.898100	-11.776000	21.128739	0.000945	20.790715
32.013750	-2.992500	3.899500	-11.668000	21.125779	0.000945	20.772581
33.014036	-3.003200	3.897300	-11.703000	21.159255	0.000944	20.790420
34.011534	-2.994400	3.898700	-11.673000	21.127422	0.000944	20.770905
35.015149	-2.977600	3.898300	-11.607000	21.146857	0.000946	20.787027
36.018969	-2.983800	3.898000	-11.630000	21.174380	0.000944	20.784213
37.015399	-2.989400	3.896900	-11.648000	21.172885	0.000942	20.761854
38.016662	-3.001400	3.896700	-11.695000	21.158721	0.000943	20.762384
39.015318	-2.992300	3.895300	-11.655000	21.177274	0.000941	20.774779
40.012884	-2.990300	3.895300	-11.647000	21.189622	0.000942	20.759156
41.016576	-2.978800	3.895000	-11.601000	21.208705	0.000941	20.766392
42.011505	-2.981900	3.893600	-11.610000	21.193396	0.000941	20.781899
43.015710	-2.986500	3.895100	-11.631000	21.201633	0.000940	20.776388
44.021241	-2.962500	3.895300	-11.539000	21.207370	0.000940	20.771221
45.012465	-3.004200	3.893000	-11.694000	21.213785	0.000941	20.786173
46.020791	-2.992700	3.893200	-11.650000	21.216351	0.000941	20.762662
47.018398	-2.985200	3.893700	-11.622000	21.223517	0.000937	20.770304
48.015259	-3.022900	3.891300	-11.762000	21.229247	0.000940	20.770821
49.014569	-3.011900	3.891000	-11.717000	21.252264	0.000940	20.777252
50.018141	-3.021000	3.890200	-11.751000	21.246422	0.000939	20.766666
51.016013	-3.023100	3.889800	-11.759000	21.242336	0.000937	20.770164
52.019131	-3.016300	3.890200	-11.732000	21.246608	0.000936	20.746936
53.019158	-2.984000	3.890800	-11.609000	21.257534	0.000939	20.760712
54.015862	-2.994800	3.891300	-11.653000	21.266859	0.000939	20.771463
55.022459	-3.022100	3.888500	-11.749000	21.262551	0.000935	20.755299
56.017960	-3.014100	3.887400	-11.715000	21.269962	0.000938	20.764136
57.014974	-2.997200	3.887600	-11.651000	21.249410	0.000936	20.762542
58.014826	-2.988900	3.889700	-11.625000	21.275927	0.000938	20.762043
59.018718	-3.009100	3.888100	-11.699000	21.277707	0.000937	20.754815
60.017401	-3.001100	3.887700	-11.666000	21.299509	0.000936	20.755289
61.016119	-2.999800	3.887200	-11.659000	21.288134	0.000936	20.724941
62.017078	-2.998400	3.887100	-11.654000	21.302834	0.000934	20.758141
63.018744	-2.984300	3.888100	-11.602000	21.320763	0.000935	20.740516
64.017671	-3.014900	3.885500	-11.713000	21.299246	0.000934	20.747438
65.026428	-3.005400	3.884700	-11.673000	21.315114	0.000934	20.757624
66.016515	-3.003400	3.886100	-11.670000	21.319674	0.000934	20.761239
67.018255	-3.004800	3.885500	-11.674000	21.330361	0.000934	20.749170
68.018834	-3.010000	3.884400	-11.691000	21.333875	0.000934	20.749841
69.019010	-3.002800	3.884100	-11.662000	21.328065	0.000933	20.753985
70.017340	-2.995100	3.883400	-11.631000	21.351670	0.000931	20.757687
71.022758	-2.997600	3.884200	-11.643000	21.342886	0.000934	20.731355
72.019391	-3.006200	3.883700	-11.674000	21.359351	0.000932	20.751622
73.019547	-2.989200	3.885100	-11.612000	21.360927	0.000934	20.746560
74.024990	-2.991200	3.882900	-11.614000	21.380203	0.000932	20.727439
75.021265	-3.001200	3.883900	-11.654000	21.367717	0.000932	20.732489
76.021342	-3.005800	3.881800	-11.667000	21.380316	0.000930	20.733715
77.027046	-3.006700	3.881300	-11.669000	21.387277	0.000932	20.745422
78.022593	-2.984800	3.883000	-11.589000	21.372038	0.000932	20.739658
79.022805	-2.995400	3.880800	-11.624000	21.412931	0.000931	20.744537
80.025783	-2.998700	3.881200	-11.637000	21.395741	0.000931	20.740139
81.033101	-3.007200	3.880700	-11.669000	21.419394	0.000931	20.749581
82.025194	-2.984800	3.881700	-11.585000	21.423708	0.000930	20.751527
83.025016	-2.991600	3.880900	-11.609000	21.425031	0.000930	20.738151
84.025266	-3.008000	3.880300	-11.671000	21.427401	0.000931	20.729142
85.024637	-3.006200	3.879700	-11.661000	21.443594	0.000932	20.719265
86.024186	-3.010800	3.880000	-11.681000	21.433298	0.000931	20.738836
87.028481	-2.988600	3.880500	-11.596000	21.457589	0.000932	20.731847
88.024673	-2.999700	3.878900	-11.634000	21.442572	0.000931	20.730097
89.024862	-3.036500	3.877300	-11.772000	21.453226	0.000931	20.728429
90.027977	-3.019300	3.877800	-11.708000	21.462777	0.000933	20.729451
91.027086	-3.021900	3.877900	-11.718000	21.468938	0.000931	20.723287
92.026148	-2.988000	3.879100	-11.590000	21.459141	0.000932	20.732451
93.024611	-2.998700	3.879200	-11.631000	21.482182	0.000930	20.725633
94.025492	-3.008700	3.878500	-11.668000	21.485309	0.000931	20.715485
95.027269	-2.964400	3.879000	-11.499000	21.488089	0.000933	20.741502
96.030198	-2.986900	3.879100	-11.585000	21.479511	0.000931	20.738134
97.025223	-2.992300	3.878300	-11.604000	21.492256	0.000931	20.720066
98.026147	-2.989000	3.877000	-11.588000	21.475467	0.000931	20.729820
99.029250	-2.992000	3.876900	-11.598000	21.480500	0.000930	20.723951
100.028698	-3.004400	3.877800	-11.649000	21.514071	0.000932	20.718187
101.029459	-2.981600	3.878600	-11.563000	21.510526	0.000931	20.714639
102.031975	-2.982800	3.876500	-11.562000	21.510723	0.000931	20.735700
103.031248	-3.002600	3.874400	-11.632000	21.530519	0.000933	20.716627
104.039266	-3.001400	3.877100	-11.636000	21.523836	0.000931	20.723216
105.030188	-3.006400	3.874900	-11.648000	21.542692	0.000930	20.735921
106.029763	-2.989100	3.876600	-11.586000	21.529368	0.000931	20.706465
107.033722	-2.993100	3.875600	-11.600000	21.536002	0.000931	20.722114
108.033158	-2.997600	3.875500	-11.616000	21.543085	0.000930	20.719244
109.031416	-3.012600	3.874600	-11.671000	21.565756	0.000932	20.722489
110.030109	-3.023000	3.872800	-11.706000	21.563650	0.000930	20.713269
111.034119	-2.994500	3.874500	-11.601000	21.573028	0.000932	20.717439
112.029350	-3.005500	3.873500	-11.640000	21.555651	0.000930	20.728973
113.029349	-3.004300	3.874000	-11.638000	21.578504	0.000931	20.727660
114.030070	-3.014700	3.872900	-11.675000	21.601058	0.000931	20.706606
115.029476	-3.018100	3.872500	-11.686000	21.572807	0.000934	20.711053
116.034914	-2.981600	3.874000	-11.549000	21.613672	0.000930	20.713066
117.036115	-2.992300	3.871900	-11.584000	21.607765	0.000930	20.727544
118.033583	-2.982700	3.872500	-11.548000	21.604768	0.000929	20.699412
119.036372	-3.005200	3.873500	-11.640000	21.605519	0.000932	20.720554
120.037378	-2.985600	3.873000	-11.562000	21.612349	0.000931	20.690877
121.033739	-3.001100	3.872200	-11.620000	21.644568	0.000930	20.719328
122.034026	-2.998000	3.873100	-11.609000	21.666412	0.000932	20.706574
123.036497	-3.005100	3.871700	-11.634000	21.649103	0.000931	20.718176
124.035694	-3.018500	3.870900	-11.682000	21.653890	0.000931	20.715380
125.030433	-3.022600	3.870700	-11.699000	21.654666	0.000932	20.715208
126.036739	-3.024100	3.870800	-11.704000	21.639430	0.000932	20.716083
127.035854	-3.014300	3.869900	-11.663000	21.644962	0.000930	20.704074
128.035134	-3.028100	3.870600	-11.720000	21.669329	0.000930	20.711390
129.034044	-2.996800	3.871100	-11.600000	21.675260	0.000931	20.708791
130.033916	-3.012400	3.870400	-11.658000	21.687775	0.000931	20.701875
131.031081	-3.020400	3.870200	-11.689000	21.686557	0.000932	20.691646
132.041573	-3.005700	3.871000	-11.634000	21.680374	0.000933	20.718176
133.042900	-3.006400	3.870000	-11.634000	21.692896	0.000932	20.697041
134.037850	-3.013300	3.869000	-11.658000	21.676281	0.000932	20.704597
135.046164	-2.995900	3.872200	-11.600000	21.712763	0.000931	20.697484
136.041848	-3.001700	3.869200	-11.612000	21.733012	0.000932	20.704474
137.038911	-3.001500	3.868200	-11.608000	21.731166	0.000934	20.708791
138.039691	-2.993800	3.869400	-11.584000	21.743035	0.000933	20.680364
139.034356	-2.992300	3.869300	-11.577000	21.735023	0.000933	20.695580
140.042415	-2.994700	3.867900	-11.582000	21.744671	0.000934	20.688639
141.039249	-2.976200	3.869500	-11.515000	21.759259	0.000933	20.702767
142.037096	-2.993000	3.868000	-11.576000	21.749057	0.000936	20.683072
143.036088	-3.017400	3.868600	-11.672000	21.755795	0.000936	20.691239
144.037319	-3.013000	3.865800	-11.646000	21.792636	0.000936	20.673581
145.037954	-2.997000	3.868800	-11.594000	21.772843	0.000935	20.689335
146.037504	-3.007300	3.867300	-11.628000	21.802184	0.000936	20.695468
147.049559	-3.030400	3.866900	-11.716000	21.791965	0.000935	20.700414
148.036559	-3.011700	3.867500	-11.647000	21.764063	0.000935	20.701411
149.037307	-3.002900	3.867300	-11.612000	21.807199	0.000936	20.684839
150.040458	-3.003400	3.866600	-11.612000	21.809968	0.000935	20.730762
151.039690	-3.011800	3.865200	-11.640000	21.792211	0.000936	20.688805
152.037193	-2.978500	3.867500	-11.518000	21.766751	0.000937	20.711689
153.040817	-2.980900	3.866900	-11.526000	21.796763	0.000935	20.711380
154.041563	-2.999100	3.865900	-11.594000	21.783080	0.000937	20.696262
155.036493	-2.990900	3.866700	-11.564000	21.792948	0.000938	20.689068
156.038326	-3.006800	3.864900	-11.619000	21.801679	0.000938	20.693065
157.037068	-2.995400	3.866700	-11.581000	21.833739	0.000938	20.710456
158.035007	-3.000200	3.865000	-11.594000	21.808729	0.000938	20.696329
159.035854	-3.006300	3.864500	-11.616000	21.834532	0.000939	20.692756
160.052286	-3.029200	3.862800	-11.700000	21.862513	0.000941	20.702746
161.038456	-3.003000	3.864400	-11.604000	21.843206	0.000941	20.710923
162.040675	-2.994800	3.865000	-11.574000	21.837921	0.000941	20.689511
163.038236	-2.986500	3.865400	-11.542000	21.860506	0.000941	20.682243
164.037021	-2.989000	3.864400	-11.548000	21.883275	0.000941	20.701717
165.039257	-2.992100	3.863900	-11.560000	21.848564	0.000941	20.694000
166.041101	-2.992200	3.865200	-11.564000	21.870022	0.000940	20.700305
167.041355	-3.020300	3.863900	-11.669000	21.883188	0.000942	20.677445
168.043372	-2.999800	3.863800	-11.590000	21.901532	0.000941	20.680635
169.039275	-2.986400	3.864800	-11.540000	21.912052	0.000942	20.696382
170.040852	-2.997600	3.863300	-11.579000	21.921143	0.000943	20.693154
171.041977	-2.991000	3.863800	-11.556000	21.922712	0.000943	20.679549
172.043433	-3.003700	3.862700	-11.600000	21.931435	0.000943	20.686859
173.045155	-3.002600	3.862600	-11.597000	21.948259	0.000944	20.686157
174.043088	-3.009400	3.862700	-11.623000	21.941751	0.000946	20.700980
175.046039	-2.994200	3.863300	-11.566000	21.978340	0.000945	20.695405
176.044134	-3.015500	3.861200	-11.642000	21.966842	0.000946	20.722304
177.044306	-3.001900	3.861500	-11.590000	21.973277	0.000947	20.705037
178.045595	-3.001600	3.861000	-11.588000	21.974112	0.000945	20.710615
179.045834	-2.999900	3.861500	-11.582000	21.977470	0.000945	20.674144
180.051609	-3.022800	3.860600	-11.668000	21.995382	0.000948	20.698241
181.045388	-3.000700	3.862000	-11.588000	21.976410	0.000946	20.688258
182.044326	-3.023700	3.859300	-11.667000	22.019026	0.000948	20.700099
183.047091	-3.003000	3.861500	-11.596000	22.013335	0.000948	20.689660
184.048809	-2.997500	3.861300	-11.574000	22.047056	0.000948	20.693545
185.047119	-2.988000	3.860000	-11.532000	22.054651	0.000949	20.695459
186.057801	-2.988000	3.860000	-11.533000	22.052996	0.000950	20.708028
187.046062	-3.000200	3.859600	-11.579000	22.056476	0.000947	20.690174
188.045586	-3.006200	3.859400	-11.601000	22.057922	0.000948	20.710588
189.044818	-2.965100	3.859000	-11.441000	22.065388	0.000949	20.698622
190.047970	-2.989000	3.859300	-11.533000	22.062680	0.000951	20.703497
191.049485	-2.970600	3.860700	-11.468000	22.077184	0.000950	20.716121
192.049212	-2.975800	3.859400	-11.483000	22.023761	0.000948	20.726178
193.050303	-2.993100	3.859500	-11.551000	22.042195	0.000950	20.708120
194.051310	-2.991300	3.859500	-11.542000	22.052257	0.000949	20.730997
195.051907	-2.997400	3.859300	-11.567000	22.051752	0.000948	20.693505
196.051784	-2.975600	3.859100	-11.483000	22.048394	0.000951	20.718595
197.048650	-2.982900	3.858100	-11.507000	22.066607	0.000951	20.694152
198.049790	-3.005900	3.856900	-11.592000	22.048023	0.000949	20.721543
199.053103	-2.982000	3.858400	-11.505000	22.052932	0.000952	20.699902
200.054222	-2.990400	3.857500	-11.534000	22.100238	0.000953	20.709330
201.049201	-3.005200	3.856500	-11.587000	22.114194	0.000952	20.699119
202.059064	-2.993400	3.857700	-11.547000	22.097674	0.000953	20.705340
203.051335	-2.994400	3.856100	-11.545000	22.100533	0.000954	20.708202
204.052534	-2.988400	3.857300	-11.527000	22.108037	0.000954	20.702438
205.052151	-2.977400	3.857200	-11.481000	22.139516	0.000954	20.702186
206.052302	-3.011600	3.854900	-11.608000	22.122042	0.000953	20.684690
207.054519	-2.974000	3.856100	-11.467000	22.122165	0.000953	20.707100
208.049855	-3.035300	3.854100	-11.697000	22.136447	0.000954	20.694370
209.056847	-3.005200	3.854300	-11.582000	22.141478	0.000956	20.727384
210.048372	-3.022800	3.853600	-11.647000	22.158952	0.000956	20.710739
211.056931	-2.986800	3.854600	-11.511000	22.161688	0.000958	20.715376
212.050201	-3.008600	3.855300	-11.598000	22.167224	0.000957	20.705744
213.050355	-3.010400	3.851900	-11.594000	22.158306	0.000956	20.722895
214.056085	-2.988400	3.854800	-11.518000	22.199901	0.000957	20.707641
215.056481	-3.012600	3.853700	-11.608000	22.170213	0.000958	20.716324
216.057875	-2.978100	3.855000	-11.479000	22.187563	0.000959	20.709513
217.056750	-2.997700	3.853000	-11.549000	22.205289	0.000959	20.717304
218.054618	-2.999800	3.854900	-11.562000	22.207029	0.000960	20.718572
219.054972	-2.996700	3.853300	-11.546000	22.193990	0.000960	20.721638
220.058674	-3.005800	3.852400	-11.579000	22.173952	0.000962	20.714852
221.054934	-3.016200	3.852500	-11.619000	22.183227	0.000962	20.692843
222.056343	-3.009000	3.851500	-11.587000	22.208664	0.000962	20.702190
223.064765	-3.004200	3.852800	-11.573000	22.200823	0.000959	20.725161
224.062036	-2.987600	3.852400	-11.508000	22.205307	0.000961	20.718744
225.060585	-3.006400	3.851400	-11.577000	22.196776	0.000963	20.723953
226.061841	-2.978400	3.853200	-11.475000	22.206924	0.000962	20.725105
227.061313	-2.983500	3.852100	-11.492000	22.215031	0.000964	20.721368
228.067582	-2.996100	3.851600	-11.539000	22.241975	0.000963	20.732699
229.061681	-2.996400	3.852300	-11.541000	22.247534	0.000964	20.714083
230.062351	-2.983600	3.851000	-11.489000	22.258696	0.000964	20.725260
231.063065	-2.998100	3.851200	-11.546000	22.267964	0.000963	20.712727
232.069122	-3.003200	3.851000	-11.564000	22.256704	0.000965	20.741757
233.067410	-2.987500	3.852100	-11.507000	22.263832	0.000966	20.711434
234.061134	-2.999800	3.851300	-11.550000	22.277891	0.000965	20.720771
235.066395	-2.999900	3.850300	-11.549000	22.281402	0.000965	20.712906
236.070234	-2.993300	3.850000	-11.523000	22.267048	0.000965	20.733623
237.064113	-2.984900	3.849500	-11.489000	22.291045	0.000966	20.726830
238.070634	-3.006800	3.850100	-11.575000	22.306205	0.000965	20.732053
239.068879	-2.996700	3.849400	-11.533000	22.268623	0.000968	20.740890
240.063639	-3.019600	3.848700	-11.621000	22.291101	0.000968	20.710763
241.070150	-3.010900	3.849300	-11.589000	22.284871	0.000968	20.727286
242.064880	-3.000900	3.847600	-11.545000	22.281065	0.000970	20.713517
243.066459	-3.019200	3.848100	-11.615000	22.299852	0.000971	20.739443
244.065445	-3.005400	3.848800	-11.566000	22.298684	0.000969	20.728315
245.065854	-3.009000	3.847600	-11.577000	22.301501	0.000969	20.713591
246.067186	-3.008100	3.847400	-11.572000	22.331782	0.000970	20.711195
247.068728	-3.019800	3.847700	-11.618000	22.322115	0.000971	20.710524
248.067774	-3.000300	3.847500	-11.543000	22.338891	0.000971	20.721160
249.069326	-3.031600	3.846700	-11.661000	22.351946	0.000970	20.716689
250.072657	-3.008900	3.848100	-11.577000	22.369417	0.000972	20.755048
251.072107	-2.998400	3.847000	-11.533000	22.339414	0.000973	20.711251
252.069326	-3.013200	3.846300	-11.588000	22.359431	0.000971	20.714226
253.069058	-2.976300	3.847700	-11.451000	22.372591	0.000974	20.732621
254.069564	-3.027100	3.845200	-11.639000	22.368680	0.000973	20.723488
255.069023	-3.023100	3.845500	-11.624000	22.391506	0.000975	20.728329
256.074361	-3.001200	3.845000	-11.538000	22.383383	0.000976	20.729203
257.071910	-2.993100	3.845700	-11.509000	22.400331	0.000978	20.729105
258.072614	-2.979000	3.846500	-11.458000	22.412070	0.000977	20.722368
259.075680	-3.002600	3.846200	-11.548000	22.403694	0.000978	20.741483
260.076312	-3.005000	3.845100	-11.554000	22.397662	0.000978	20.713629
261.085667	-3.018000	3.845800	-11.604000	22.418372	0.000980	20.731525
262.075846	-3.011200	3.843700	-11.573000	22.406307	0.000979	20.751686
263.079366	-3.017600	3.842700	-11.595000	22.419221	0.000981	20.732375
264.081309	-2.990200	3.844300	-11.494000	22.398233	0.000979	20.730324
265.080939	-3.000100	3.845300	-11.535000	22.405133	0.000981	20.724430
266.075880	-3.003800	3.844800	-11.549000	22.405476	0.000980	20.730939
267.083570	-2.992500	3.844500	-11.505000	22.441110	0.000980	20.734381
268.076597	-3.012300	3.844200	-11.579000	22.445666	0.000982	20.737995
269.079482	-2.992300	3.844800	-11.505000	22.457805	0.000982	20.746833
270.077684	-2.998200	3.843900	-11.523000	22.478329	0.000984	20.714754
271.082969	-3.024800	3.843900	-11.626000	22.484698	0.000983	20.739152
272.102398	-3.001000	3.844300	-11.536000	22.486708	0.000985	20.731207
273.079774	-2.994200	3.843900	-11.508000	22.506543	0.000988	20.741115
274.080009	-3.019200	3.840900	-11.596000	22.498807	0.000988	20.743799
275.093039	-3.021500	3.842200	-11.608000	22.501438	0.000987	20.744063
276.080156	-2.992000	3.842800	-11.496000	22.531185	0.000988	20.738292
277.082318	-2.965400	3.842900	-11.394000	22.513033	0.000988	20.755676
278.084178	-2.980300	3.842500	-11.451000	22.548306	0.000987	20.740267
279.082294	-3.006900	3.841400	-11.549000	22.533297	0.000987	20.726657
280.084074	-3.000300	3.841300	-11.523000	22.529429	0.000988	20.731318
281.083051	-2.995000	3.839900	-11.499000	22.530117	0.000988	20.725843
282.082082	-2.992100	3.841900	-11.495000	22.550559	0.000988	20.745369
283.082304	-3.001600	3.840700	-11.528000	22.533060	0.000990	20.766725
284.083928	-2.999600	3.840200	-11.518000	22.542319	0.000990	20.749444
285.082212	-2.994400	3.840800	-11.500000	22.556743	0.000989	20.745398
286.085769	-2.995200	3.841000	-11.503000	22.581403	0.000989	20.737380
287.092429	-2.999700	3.840600	-11.519000	22.587975	0.000990	20.743014
288.082591	-2.999200	3.838900	-11.513000	22.580124	0.000991	20.750323
289.084099	-2.971500	3.840200	-11.411000	22.612929	0.000992	20.751887
290.088139	-3.005000	3.839300	-11.536000	22.615535	0.000991	20.751652
291.089014	-3.007100	3.838500	-11.541000	22.614010	0.000992	20.770988
292.091467	-2.986800	3.838400	-11.464000	22.596389	0.000994	20.767563
293.091224	-3.008300	3.838100	-11.545000	22.611931	0.000993	20.764164
294.083613	-2.999400	3.837700	-11.509000	22.617329	0.000992	20.751077
295.091013	-3.008000	3.837900	-11.544000	22.649095	0.000995	20.766300
296.088081	-3.003500	3.837500	-11.525000	22.634764	0.000996	20.757635
297.082469	-2.995600	3.837600	-11.495000	22.643482	0.000993	20.745504
298.087571	-2.993500	3.838300	-11.488000	22.609538	0.000994	20.768405
299.097301	-2.977400	3.838600	-11.428000	22.635820	0.000994	20.759642
300.084270	-3.005800	3.838000	-11.536000	22.629137	0.000996	20.765750
301.084630	-3.000800	3.835800	-11.510000	22.654146	0.000998	20.791274
302.088193	-2.998300	3.837800	-11.506000	22.624772	0.000995	20.760903
303.085654	-2.996800	3.836200	-11.495000	22.634215	0.000997	20.768465
304.086968	-3.014700	3.836100	-11.564000	22.620455	0.000996	20.752312
305.091554	-2.999900	3.836100	-11.506000	22.617566	0.000999	20.771704
306.086742	-3.019400	3.835000	-11.578000	22.628994	0.000998	20.773668
307.087321	-3.015900	3.834500	-11.563000	22.648256	0.001000	20.768304
308.090588	-3.000800	3.835600	-11.509000	22.662395	0.000997	20.768716
309.092590	-3.002500	3.835600	-11.515000	22.659014	0.001000	20.781451
310.088957	-2.991700	3.836300	-11.476000	22.670621	0.001000	20.784068
311.091488	-3.011300	3.833900	-11.542000	22.648968	0.001001	20.764276
312.092220	-3.012100	3.834000	-11.548000	22.672834	0.001001	20.765421
313.088330	-3.010900	3.834200	-11.542000	22.672133	0.001002	20.747175
314.092463	-3.001000	3.833800	-11.504000	22.683844	0.001003	20.771709
315.096481	-3.009000	3.834900	-11.538000	22.699914	0.001002	20.779271
316.087152	-2.995900	3.833700	-11.483000	22.703775	0.001003	20.762274
317.085372	-2.989600	3.835200	-11.465000	22.722457	0.001004	20.764393
318.090150	-2.986000	3.834200	-11.448000	22.730823	0.001003	20.791740
319.089207	-3.006800	3.833500	-11.527000	22.736251	0.001005	20.795754
320.095043	-3.005300	3.833400	-11.519000	22.735754	0.001005	20.779608
321.092739	-2.998300	3.832400	-11.489000	22.745533	0.001008	20.783715
322.088384	-2.992500	3.832600	-11.468000	22.758289	0.001005	20.775156
323.090135	-3.015300	3.832200	-11.554000	22.790353	0.001006	20.774558
324.091819	-2.991400	3.832000	-11.462000	22.766157	0.001008	20.791572
325.090541	-2.991000	3.832800	-11.463000	22.786111	0.001009	20.787853
326.095214	-2.997800	3.831200	-11.484000	22.766950	0.001008	20.780038
327.091527	-2.982800	3.832100	-11.429000	22.774425	0.001009	20.789423
328.088879	-3.004500	3.830100	-11.506000	22.805984	0.001008	20.787846
329.097195	-3.023000	3.829200	-11.575000	22.794495	0.001009	20.782027
330.096736	-2.985800	3.830200	-11.435000	22.759794	0.001010	20.788991
331.092113	-3.016200	3.829300	-11.548000	22.774092	0.001008	20.796676
332.092897	-3.019600	3.829200	-11.562000	22.768566	0.001011	20.795408
333.096835	-3.032000	3.827500	-11.604000	22.777178	0.001012	20.803086
334.092320	-2.985500	3.829400	-11.430000	22.775580	0.001012	20.770665
335.097428	-2.992800	3.828800	-11.458000	22.747677	0.001013	20.784914
336.095966	-2.990100	3.829000	-11.447000	22.748298	0.001015	20.808295
337.093132	-2.992700	3.828900	-11.457000	22.762197	0.001011	20.803726
338.098967	-3.005200	3.828400	-11.503000	22.773182	0.001014	20.797661
339.108070	-3.011700	3.828500	-11.529000	22.791021	0.001013	20.796091
340.097286	-2.996800	3.829300	-11.473000	22.790701	0.001014	20.799090
341.096539	-2.997900	3.827400	-11.474000	22.800659	0.001015	20.803849
342.097092	-3.005700	3.826800	-11.501000	22.828739	0.001015	20.802581
343.098170	-2.989500	3.828500	-11.444000	22.828063	0.001015	20.800955
344.097826	-2.998400	3.827300	-11.475000	22.851507	0.001016	20.807846
345.098008	-2.997500	3.826800	-11.470000	22.853940	0.001015	20.778990
346.095254	-3.007100	3.826100	-11.504000	22.873051	0.001017	20.792445
347.104462	-3.010400	3.826000	-11.517000	22.858508	0.001020	20.814860
348.097798	-2.989800	3.827100	-11.440000	22.872781	0.001018	20.809718
349.097439	-3.008500	3.826000	-11.509000	22.859178	0.001018	20.807470
350.099061	-2.998600	3.825800	-11.471000	22.870684	0.001017	20.801454
351.100126	-3.003900	3.825000	-11.489000	22.894373	0.001019	20.818074
352.105117	-2.977800	3.826100	-11.392000	22.879954	0.001019	20.793196
353.095617	-3.004400	3.823800	-11.487000	22.900157	0.001021	20.800161
354.103489	-2.994200	3.826900	-11.457000	22.899456	0.001021	20.798511
355.098843	-3.006100	3.824200	-11.495000	22.898639	0.001019	20.819029
356.102971	-3.008400	3.823900	-11.503000	22.899162	0.001020	20.813388
357.103641	-3.017200	3.824300	-11.538000	22.913458	0.001021	20.799736
358.103487	-2.985700	3.823200	-11.414000	22.926661	0.001022	20.799213
359.102251	-3.011500	3.824200	-11.515000	22.929476	0.001023	20.790653
360.103788	-3.018600	3.823300	-11.540000	22.909076	0.001024	20.811467
361.101367	-2.988900	3.823200	-11.426000	22.929378	0.001023	20.811418
362.101562	-3.003800	3.822600	-11.481000	22.939593	0.001023	20.796996
363.101330	-3.012300	3.821400	-11.509000	22.931025	0.001024	20.813068
364.099439	-3.024900	3.823300	-11.564000	22.922826	0.001024	20.816707
365.103610	-3.012700	3.823100	-11.517000	22.908830	0.001023	20.788936
366.106574	-3.016600	3.822000	-11.527000	22.908277	0.001024	20.807821
367.098732	-3.008800	3.821500	-11.497000	22.913932	0.001027	20.792624
368.103078	-3.013200	3.820900	-11.512000	22.910373	0.001025	20.828413
369.101749	-2.988600	3.820800	-11.418000	22.909949	0.001027	20.811393
370.102114	-3.006800	3.820800	-11.487000	22.938394	0.001028	20.820925
371.098642	-3.013500	3.820100	-11.511000	22.944276	0.001027	20.823025
372.105960	-2.986800	3.820900	-11.411000	22.947190	0.001029	20.804133
373.098521	-2.997700	3.819500	-11.448000	22.968837	0.001028	20.826295
374.100102	-3.023900	3.820300	-11.551000	22.986267	0.001029	20.799662
375.103333	-3.007500	3.819200	-11.485000	22.970705	0.001032	20.812520
376.099593	-3.034700	3.818000	-11.585000	22.972076	0.001029	20.828118
377.101074	-3.002600	3.819900	-11.468000	22.963256	0.001028	20.812643
378.102475	-2.996400	3.819400	-11.443000	22.965991	0.001031	20.828185
379.105450	-2.993400	3.818800	-11.430000	22.990876	0.001030	20.811393
380.100676	-3.009400	3.818400	-11.489000	23.016431	0.001032	20.823721
381.107675	-2.995600	3.819200	-11.440000	23.033393	0.001031	20.825544
382.101604	-2.997100	3.818700	-11.443000	23.024753	0.001031	20.831110
383.102200	-3.016700	3.817500	-11.516000	23.033099	0.001034	20.806282
384.101854	-3.007700	3.816500	-11.477000	23.032454	0.001036	20.821283
385.100670	-3.008800	3.816600	-11.482000	23.065978	0.001035	20.828321
386.107814	-2.980200	3.818200	-11.378000	23.067847	0.001035	20.826874
387.103199	-2.984900	3.816500	-11.391000	23.057362	0.001034	20.823955
388.106495	-3.001300	3.816500	-11.452000	23.072253	0.001036	20.831763
389.101870	-2.996400	3.815500	-11.431000	23.051708	0.001034	20.835359
390.105576	-2.985400	3.816700	-11.392000	23.080771	0.001034	20.830815
391.107148	-2.980700	3.817300	-11.377000	23.071983	0.001037	20.827225
392.110418	-2.991300	3.815500	-11.412000	23.085257	0.001035	20.830569
393.108855	-2.977400	3.817100	-11.364000	23.073052	0.001037	20.838728
394.109502	-2.987300	3.815900	-11.398000	23.064983	0.001038	20.839177
395.109028	-2.974500	3.815400	-11.347000	23.087574	0.001038	20.834313
396.109221	-2.986200	3.815100	-11.391000	23.094605	0.001040	20.835668
397.107997	-3.002200	3.814300	-11.450000	23.104886	0.001040	20.828426
398.107626	-2.999600	3.814600	-11.441000	23.075726	0.001038	20.821493
399.110514	-2.997200	3.814400	-11.430000	23.085116	0.001040	20.837066
400.110403	-3.009200	3.813500	-11.474000	23.101254	0.001037	20.818149
401.107166	-3.020400	3.813600	-11.518000	23.099600	0.001038	20.817440
402.111413	-3.013900	3.812500	-11.489000	23.128170	0.001038	20.839904
403.113023	-3.001300	3.814100	-11.446000	23.128742	0.001039	20.827201
404.107414	-3.015700	3.812800	-11.497000	23.145033	0.001042	20.837361
405.110045	-3.008200	3.812700	-11.468000	23.145457	0.001042	20.831148
406.110983	-2.986100	3.812200	-11.383000	23.157704	0.001041	20.843420
407.108464	-2.985400	3.812800	-11.381000	23.167665	0.001040	20.847712
408.113689	-2.986300	3.812000	-11.382000	23.165330	0.001044	20.843476
409.112838	-3.006400	3.811400	-11.458000	23.195963	0.001042	20.820120
410.114284	-3.004700	3.811200	-11.450000	23.200074	0.001043	20.849843
411.116684	-3.006900	3.810400	-11.456000	23.178855	0.001042	20.845649
412.111040	-3.004200	3.810400	-11.447000	23.221937	0.001043	20.839036
413.111457	-2.991500	3.810900	-11.399000	23.176871	0.001045	20.866419
414.112680	-3.003300	3.811100	-11.445000	23.201223	0.001043	20.830607
415.114252	-2.990200	3.811400	-11.396000	23.219830	0.001044	20.836925
416.116737	-3.001800	3.810600	-11.438000	23.200277	0.001047	20.817805
417.115671	-2.996500	3.811400	-11.420000	23.200824	0.001046	20.850594
418.116507	-3.037100	3.807900	-11.563000	23.242418	0.001046	20.836802
419.114069	-2.985900	3.810200	-11.376000	23.208204	0.001046	20.846137
420.129230	-2.992000	3.809500	-11.397000	23.203546	0.001045	20.846210
421.118748	-3.003100	3.808100	-11.436000	23.199534	0.001048	20.849775
422.115807	-2.997300	3.806900	-11.409000	23.209550	0.001046	20.828994
423.115936	-3.009200	3.808700	-11.459000	23.239943	0.001048	20.840959
424.116284	-3.017800	3.807200	-11.489000	23.245049	0.001047	20.833274
425.114950	-3.002200	3.807300	-11.428000	23.246535	0.001046	20.843298
426.121271	-2.999200	3.808500	-11.422000	23.260963	0.001047	20.835473
427.120126	-2.989400	3.807200	-11.380000	23.247740	0.001048	20.832653
428.118779	-3.004900	3.806600	-11.438000	23.248466	0.001049	20.840492
429.118296	-3.006100	3.806500	-11.441000	23.256754	0.001048	20.841686
430.117001	-3.014200	3.806000	-11.470000	23.293486	0.001049	20.845307
431.121591	-3.011800	3.805500	-11.460000	23.303852	0.001049	20.830566
432.115479	-2.989800	3.807200	-11.381000	23.295213	0.001049	20.835184
433.121922	-2.958100	3.806100	-11.258000	23.331765	0.001051	20.813971
434.118997	-3.018300	3.805200	-11.484000	23.314764	0.001050	20.828701
435.115344	-3.014500	3.803700	-11.466000	23.317831	0.001051	20.800954
436.124864	-2.979900	3.805400	-11.338000	23.297315	0.001051	20.804575
437.122338	-2.995900	3.803400	-11.394000	23.315815	0.001051	20.826909
438.119819	-2.989200	3.802900	-11.367000	23.314157	0.001052	20.811497
439.121693	-3.000000	3.802800	-11.407000	23.314102	0.001053	20.822346
440.124286	-2.983300	3.803600	-11.345000	23.288284	0.001051	20.797894
441.118262	-2.989500	3.802900	-11.368000	23.338169	0.001051	20.798579
442.122374	-3.000400	3.802500	-11.408000	23.328080	0.001051	20.811226
443.121922	-2.986300	3.802200	-11.354000	23.336080	0.001053	20.806916
444.120903	-2.995300	3.802900	-11.389000	23.348405	0.001053	20.815002
445.120620	-2.998500	3.802000	-11.398000	23.358673	0.001053	20.816757
446.123984	-2.997200	3.801800	-11.394000	23.378265	0.001053	20.807945
447.124498	-3.010500	3.801500	-11.443000	23.336118	0.001052	20.824024
448.126046	-3.015400	3.800800	-11.459000	23.310325	0.001053	20.817140
449.123430	-2.977000	3.802400	-11.317000	23.328580	0.001056	20.818365
450.132752	-3.004300	3.800200	-11.417000	23.332168	0.001056	20.786874
451.122962	-3.005100	3.799700	-11.416000	23.332396	0.001053	20.808439
452.130919	-3.000000	3.801200	-11.402000	23.303414	0.001057	20.807368
453.124525	-3.000200	3.799200	-11.396000	23.351099	0.001055	20.798735
454.125863	-2.989400	3.800300	-11.360000	23.334344	0.001056	20.814659
455.127978	-3.003300	3.799700	-11.410000	23.346700	0.001058	20.799068
456.124523	-3.019900	3.798600	-11.471000	23.328102	0.001058	20.797498
457.130188	-2.987700	3.799900	-11.352000	23.338861	0.001059	20.808280
458.125172	-3.035900	3.797000	-11.526000	23.357238	0.001057	20.793982
459.133121	-3.011200	3.798200	-11.434000	23.359382	0.001058	20.798028
460.128424	-2.985100	3.797800	-11.336000	23.388713	0.001058	20.795657
461.131811	-2.980300	3.798500	-11.319000	23.361495	0.001058	20.805836
462.126571	-3.005300	3.797200	-11.411000	23.345694	0.001059	20.784783
463.127618	-3.007400	3.796900	-11.416000	23.361373	0.001060	20.790540
464.126229	-2.991700	3.798000	-11.362000	23.360900	0.001060	20.780109
465.126773	-3.018900	3.796200	-11.460000	23.380905	0.001060	20.801582
466.124763	-3.024800	3.794400	-11.476000	23.383663	0.001061	20.789173
467.129897	-2.996400	3.795500	-11.371000	23.379805	0.001060	20.776297
468.125931	-3.001500	3.797000	-11.396000	23.364673	0.001061	20.779149
469.136290	-3.009800	3.796200	-11.425000	23.342407	0.001060	20.795713
470.126564	-2.991800	3.795700	-11.355000	23.324804	0.001062	20.766217
471.131071	-2.991100	3.795800	-11.352000	23.339329	0.001060	20.774611
472.130175	-3.002800	3.793500	-11.390000	23.313954	0.001060	20.782844
473.129488	-3.010000	3.794800	-11.422000	23.320528	0.001063	20.786588
474.128151	-3.012100	3.793400	-11.424000	23.316074	0.001063	20.764580
475.131158	-3.000300	3.794800	-11.385000	23.338457	0.001062	20.775159
476.127825	-2.985600	3.793800	-11.325000	23.360748	0.001063	20.765731
477.137380	-2.987000	3.794800	-11.333000	23.344288	0.001064	20.762511
478.129987	-3.006400	3.791900	-11.399000	23.383382	0.001065	20.778460
479.130797	-3.009200	3.793800	-11.414000	23.374148	0.001064	20.772998
480.127529	-2.975800	3.793000	-11.287000	23.396186	0.001064	20.773276
481.128156	-2.988900	3.793300	-11.337000	23.410175	0.001064	20.771175
482.131615	-2.995200	3.793200	-11.361000	23.401243	0.001064	20.768386
483.135358	-3.008800	3.792300	-11.409000	23.397507	0.001065	20.756581
484.135084	-2.999200	3.791000	-11.369000	23.417719	0.001065	20.772573
485.133074	-3.001200	3.791500	-11.378000	23.416233	0.001066	20.773455
486.128478	-2.996800	3.791700	-11.362000	23.417032	0.001067	20.772833
487.134058	-3.005500	3.790100	-11.389000	23.437097	0.001064	20.777297
488.131832	-3.006500	3.790100	-11.394000	23.452185	0.001066	20.757807
489.135386	-2.998000	3.790200	-11.362000	23.466801	0.001067	20.746852
490.135451	-2.990800	3.791300	-11.339000	23.485501	0.001067	20.766546
491.134064	-3.015100	3.788800	-11.422000	23.463416	0.001068	20.765271
492.136389	-2.994700	3.791800	-11.354000	23.458685	0.001068	20.756262
493.134724	-3.000600	3.790000	-11.370000	23.457273	0.001066	20.768122
494.135579	-2.990500	3.788600	-11.327000	23.447069	0.001066	20.771171
495.132329	-3.013000	3.787800	-11.412000	23.464940	0.001068	20.758737
496.139446	-2.981200	3.789600	-11.296000	23.460984	0.001067	20.740547
497.136798	-3.012800	3.787000	-11.409000	23.472238	0.001067	20.759889
498.136567	-2.991800	3.786900	-11.328000	23.468349	0.001066	20.776854
499.134383	-2.974900	3.788300	-11.267000	23.507292	0.001065	20.758516
500.131835	-2.983300	3.788100	-11.300000	23.511678	0.001066	20.755327
501.134027	-2.995300	3.786300	-11.340000	23.504012	0.001067	20.765186
502.139346	-2.984600	3.787200	-11.302000	23.522004	0.001067	20.751453
503.139275	-3.011300	3.785400	-11.398000	23.496173	0.001069	20.754009
504.136097	-3.003700	3.785700	-11.371000	23.492235	0.001070	20.769502
505.141076	-2.989800	3.785300	-11.317000	23.489053	0.001068	20.760149
506.149403	-3.003100	3.784400	-11.364000	23.472841	0.001070	20.762390
507.137439	-3.003900	3.785000	-11.369000	23.463387	0.001068	20.755758
508.139513	-3.009100	3.784800	-11.387000	23.483979	0.001069	20.763124
509.138020	-2.994900	3.784300	-11.333000	23.484452	0.001070	20.752218
510.137942	-2.991000	3.783900	-11.315000	23.463762	0.001070	20.751867
511.139493	-2.997700	3.784000	-11.343000	23.496825	0.001070	20.740911
512.138038	-2.994100	3.783000	-11.325000	23.491898	0.001071	20.753043
513.139342	-2.987100	3.783400	-11.300000	23.478832	0.001070	20.753222
514.144743	-3.003000	3.782300	-11.357000	23.499627	0.001071	20.758420
515.142096	-2.981400	3.782200	-11.275000	23.508117	0.001073	20.737532
516.143502	-3.011500	3.781400	-11.387000	23.500051	0.001071	20.750784
517.147814	-2.996100	3.781000	-11.327000	23.515188	0.001070	20.748413
518.149234	-3.004000	3.781700	-11.359000	23.540086	0.001070	20.752508
519.140018	-2.980300	3.781700	-11.270000	23.517609	0.001072	20.746572
520.144135	-3.002100	3.780600	-11.349000	23.553656	0.001070	20.755206
521.148283	-3.003700	3.780900	-11.355000	23.552734	0.001072	20.753334
522.142976	-3.027200	3.779300	-11.439000	23.565954	0.001071	20.746671
523.149249	-2.996700	3.780000	-11.327000	23.593941	0.001073	20.738216
524.146362	-3.011000	3.781300	-11.383000	23.608351	0.001071	20.742231
525.142188	-2.991300	3.779700	-11.304000	23.620053	0.001072	20.721244
526.141622	-3.021000	3.777400	-11.411000	23.622516	0.001071	20.749793
527.142302	-3.013200	3.778600	-11.385000	23.629887	0.001074	20.738690
528.143916	-3.005500	3.777700	-11.352000	23.639690	0.001072	20.735241
529.139939	-2.992900	3.777800	-11.306000	23.652386	0.001074	20.740858
530.146042	-3.009700	3.778000	-11.370000	23.654376	0.001073	20.732421
531.144485	-3.016800	3.777600	-11.394000	23.673866	0.001072	20.717820
532.146123	-3.004600	3.777400	-11.347000	23.670604	0.001073	20.747268
533.146648	-2.982700	3.777800	-11.267000	23.677723	0.001073	20.743499
534.146713	-2.974500	3.776800	-11.233000	23.682354	0.001073	20.741504
535.143585	-2.995600	3.776000	-11.310000	23.653056	0.001073	20.734416
536.147010	-2.984800	3.777500	-11.273000	23.600801	0.001073	20.738455
537.146060	-2.992200	3.776600	-11.297000	23.611133	0.001072	20.724156
538.146078	-2.991800	3.776100	-11.297000	23.597914	0.001071	20.749786
539.145904	-2.983000	3.777300	-11.266000	23.578792	0.001072	20.729667
540.147807	-2.977200	3.776300	-11.243000	23.590819	0.001073	20.733664
541.148146	-2.997500	3.774800	-11.314000	23.579216	0.001074	20.725825
542.147216	-3.011800	3.773500	-11.365000	23.583675	0.001072	20.715596
543.146159	-3.003300	3.774400	-11.333000	23.555222	0.001073	20.707936
544.145970	-2.976800	3.773500	-11.232000	23.540135	0.001073	20.735962
545.144654	-3.010100	3.773900	-11.358000	23.516982	0.001071	20.726028
546.149232	-2.982600	3.775500	-11.260000	23.534508	0.001075	20.728424
547.148018	-2.975300	3.774800	-11.229000	23.578178	0.001074	20.719569
548.146146	-2.990300	3.773100	-11.281000	23.569314	0.001074	20.727753
549.151367	-3.002900	3.772700	-11.328000	23.593651	0.001072	20.711845
550.149683	-2.985600	3.772400	-11.262000	23.631201	0.001073	20.736689
551.157265	-2.985800	3.772100	-11.262000	23.647503	0.001074	20.715572
552.148458	-3.001200	3.771700	-11.319000	23.670628	0.001075	20.714100
553.152200	-2.987600	3.771200	-11.266000	23.666403	0.001073	20.707967
554.148204	-2.981800	3.772500	-11.248000	23.681359	0.001075	20.684552
555.154742	-2.981300	3.771900	-11.244000	23.675733	0.001074	20.729650
556.150210	-2.994500	3.770700	-11.289000	23.683405	0.001074	20.724065
557.149903	-2.993600	3.770400	-11.285000	23.684302	0.001073	20.722119
558.157171	-3.016700	3.768900	-11.369000	23.716707	0.001073	20.721890
559.150974	-2.994300	3.769600	-11.286000	23.701720	0.001073	20.714925
560.151778	-3.009200	3.768500	-11.340000	23.730226	0.001075	20.721694
561.155481	-2.999800	3.768700	-11.304000	23.711210	0.001074	20.715431
562.157623	-3.020700	3.768000	-11.382000	23.698024	0.001073	20.722600
563.149865	-2.996200	3.768300	-11.289000	23.703496	0.001073	20.695841
564.154540	-2.984300	3.769000	-11.245000	23.701432	0.001073	20.707998
565.153675	-2.985000	3.767700	-11.245000	23.726922	0.001073	20.734029
566.150445	-3.003800	3.767800	-11.317000	23.699744	0.001074	20.711521
567.147102	-2.981800	3.769000	-11.236000	23.732555	0.001075	20.704113
568.150305	-2.991300	3.766600	-11.265000	23.725934	0.001075	20.707907
569.155455	-2.988200	3.766900	-11.255000	23.701943	0.001073	20.707562
570.152183	-3.024000	3.764800	-11.383000	23.719922	0.001076	20.713259
571.154075	-3.004700	3.764500	-11.310000	23.720444	0.001074	20.712360
572.149510	-3.002600	3.767400	-11.311000	23.681988	0.001074	20.719325
573.155522	-2.989400	3.764800	-11.254000	23.671541	0.001074	20.716438
574.161127	-2.977600	3.765500	-11.211000	23.678089	0.001076	20.724425
575.159935	-2.981100	3.764800	-11.223000	23.673310	0.001073	20.710150
576.156611	-2.999800	3.763500	-11.287000	23.701515	0.001072	20.705236
577.157078	-2.989200	3.764900	-11.252000	23.686357	0.001073	20.695253
578.159155	-2.988300	3.763600	-11.245000	23.650142	0.001073	20.718218
579.157308	-2.979800	3.764000	-11.213000	23.698156	0.001074	20.724154
580.153821	-2.983300	3.764800	-11.230000	23.716190	0.001075	20.703827
581.154939	-2.975500	3.763500	-11.197000	23.706479	0.001076	20.695513
582.158807	-2.984700	3.763200	-11.231000	23.735832	0.001075	20.681318
583.163406	-3.000700	3.762900	-11.290000	23.746366	0.001076	20.698993
584.156549	-3.021100	3.762100	-11.364000	23.750916	0.001076	20.689331
585.162627	-3.013400	3.760900	-11.331000	23.764908	0.001076	20.731337
586.161267	-3.000200	3.761500	-11.284000	23.749431	0.001075	20.680728
587.157215	-3.016600	3.761700	-11.346000	23.762648	0.001075	20.695404
588.155984	-2.999600	3.761100	-11.281000	23.785477	0.001075	20.703120
589.161475	-2.991800	3.759400	-11.246000	23.777444	0.001075	20.703127
590.164293	-2.992000	3.761000	-11.252000	23.768655	0.001076	20.685779
591.160054	-2.996600	3.760300	-11.267000	23.792927	0.001075	20.693520
592.163102	-3.038300	3.758300	-11.418000	23.792339	0.001075	20.686291
593.159741	-3.003700	3.758600	-11.289000	23.777223	0.001076	20.714286
594.163493	-3.005500	3.759400	-11.298000	23.775658	0.001073	20.711294
595.164411	-2.996700	3.758800	-11.263000	23.735964	0.001075	20.688564
596.169605	-2.999400	3.758800	-11.272000	23.776407	0.001075	20.654667
597.162497	-3.008300	3.758900	-11.307000	23.794322	0.001075	20.691125
598.167399	-2.995800	3.757400	-11.255000	23.821511	0.001074	20.718389
599.162871	-2.987300	3.756700	-11.221000	23.821511	0.001075	20.678556
600.165205	-2.976900	3.758800	-11.189000	23.816653	0.001076	20.693601
601.172668	-3.017300	3.755300	-11.329000	23.766280	0.001075	20.687190
602.162792	-3.006500	3.755600	-11.290000	23.741215	0.001072	20.685768
603.164705	-2.989600	3.755900	-11.227000	23.722200	0.001076	20.688515
604.164717	-3.006600	3.755200	-11.289000	23.735810	0.001073	20.698367
605.162981	-3.014100	3.755900	-11.320000	23.773300	0.001074	20.707033
606.161350	-2.995200	3.756500	-11.251000	23.780922	0.001074	20.695234
607.165697	-2.997700	3.754800	-11.255000	23.794882	0.001075	20.675564
608.167546	-2.999200	3.754400	-11.259000	23.798991	0.001076	20.683952
609.165642	-3.003100	3.755000	-11.275000	23.781266	0.001075	20.703640
610.173509	-2.988900	3.754300	-11.219000	23.768546	0.001074	20.679505
611.166893	-3.000400	3.752400	-11.257000	23.738654	0.001074	20.710703
612.166065	-3.015000	3.753200	-11.314000	23.751042	0.001073	20.693724
613.166667	-2.991000	3.753200	-11.225000	23.775615	0.001073	20.681851
614.164210	-2.986700	3.754600	-11.211000	23.768792	0.001076	20.691606
615.164745	-3.011500	3.751100	-11.296000	23.759771	0.001073	20.665489
616.164164	-3.004100	3.751300	-11.268000	23.767821	0.001073	20.707229
617.164420	-2.992400	3.751900	-11.225000	23.757921	0.001072	20.677861
618.165829	-2.987800	3.751100	-11.207000	23.793487	0.001074	20.688392
619.165543	-2.987900	3.751600	-11.209000	23.792296	0.001074	20.690517
620.166467	-3.010500	3.750700	-11.291000	23.808946	0.001073	20.674018
621.166296	-2.985700	3.751100	-11.198000	23.801835	0.001072	20.697710
622.165303	-2.983800	3.750900	-11.191000	23.802707	0.001075	20.690998
623.170930	-2.991100	3.750700	-11.217000	23.788324	0.001073	20.668988
624.165667	-3.001200	3.748500	-11.249000	23.808136	0.001074	20.671784
625.164684	-2.993400	3.748700	-11.221000	23.835883	0.001074	20.690597
626.168037	-2.995900	3.748300	-11.227000	23.808651	0.001073	20.678939
627.165807	-2.977400	3.749700	-11.163000	23.818509	0.001073	20.688823
628.167497	-2.986100	3.749000	-11.192000	23.849277	0.001074	20.698813
629.171054	-3.022700	3.747200	-11.326000	23.853484	0.001073	20.685012
630.166555	-2.990600	3.748800	-11.210000	23.868721	0.001074	20.676582
631.169390	-2.998200	3.747500	-11.235000	23.876189	0.001072	20.691658
632.174002	-2.988000	3.747900	-11.199000	23.881138	0.001075	20.688560
633.171676	-3.002700	3.746400	-11.248000	23.875145	0.001073	20.680178
634.171623	-3.005800	3.746800	-11.261000	23.893562	0.001074	20.699596
635.175162	-2.973700	3.748100	-11.145000	23.885050	0.001074	20.662134
636.167327	-2.982400	3.747200	-11.173000	23.904861	0.001075	20.681527
637.179468	-3.000300	3.745300	-11.237000	23.908220	0.001073	20.688215
638.174358	-2.992100	3.746900	-11.211000	23.938962	0.001072	20.680635
639.171177	-3.017700	3.745400	-11.302000	23.943039	0.001073	20.684249
640.170142	-3.014400	3.744200	-11.286000	23.948559	0.001074	20.693105
641.178968	-2.995900	3.745100	-11.219000	23.953270	0.001074	20.685500
642.171340	-2.993100	3.745400	-11.209000	23.989327	0.001072	20.700797
643.173971	-2.994400	3.744700	-11.212000	23.975216	0.001072	20.677161
644.176785	-3.006800	3.743600	-11.255000	23.972225	0.001071	20.668471
645.172668	-2.982200	3.743900	-11.164000	23.937838	0.001074	20.700372
646.177390	-2.994200	3.743500	-11.208000	23.913527	0.001072	20.680733
647.178797	-3.004000	3.743200	-11.243000	23.913422	0.001072	20.700544
648.174240	-3.011200	3.742000	-11.266000	23.911008	0.001073	20.682950
649.175719	-3.026500	3.741600	-11.323000	23.896756	0.001072	20.677192
650.181652	-3.005800	3.742400	-11.248000	23.862629	0.001072	20.690389
651.176898	-3.007300	3.741800	-11.252000	23.856016	0.001071	20.695612
652.176091	-3.004700	3.741100	-11.239000	23.846233	0.001072	20.684379
653.186544	-3.012300	3.741300	-11.268000	23.859197	0.001071	20.683628
654.176942	-2.981100	3.741200	-11.151000	23.881674	0.001073	20.698106
655.179750	-2.982100	3.741200	-11.156000	23.889134	0.001073	20.703217
656.185552	-2.982400	3.740000	-11.153000	23.923505	0.001072	20.700224
657.177772	-2.985500	3.740300	-11.165000	23.934878	0.001069	20.672271
658.178713	-2.990700	3.740300	-11.184000	23.973104	0.001072	20.691640
659.180553	-2.998500	3.738800	-11.210000	23.985999	0.001073	20.696512
660.176486	-3.024200	3.738200	-11.302000	23.989652	0.001072	20.698279
661.176849	-3.005600	3.738200	-11.234000	23.976291	0.001072	20.709536
662.188203	-2.995500	3.738700	-11.197000	23.956733	0.001072	20.705570
663.181015	-2.995600	3.740200	-11.203000	23.976690	0.001072	20.701401
664.180428	-3.004800	3.737400	-11.228000	23.970869	0.001072	20.675647
665.182414	-2.997000	3.737700	-11.200000	23.921670	0.001070	20.682735
666.182861	-2.997000	3.737700	-11.201000	23.949616	0.001072	20.694165
667.181302	-3.020600	3.735700	-11.283000	23.919379	0.001069	20.690396
668.186181	-3.005800	3.736100	-11.229000	23.918808	0.001069	20.710214
669.184739	-2.980600	3.736200	-11.136000	23.921670	0.001071	20.687477
670.180991	-2.987300	3.737100	-11.162000	23.953227	0.001070	20.654160
671.183241	-2.992900	3.735700	-11.179000	23.957101	0.001069	20.694559
672.181537	-2.997600	3.736100	-11.199000	23.991102	0.001070	20.681713
673.186257	-2.989300	3.736600	-11.168000	23.995928	0.001070	20.695563
674.189365	-3.008500	3.736000	-11.238000	24.020735	0.001071	20.707639
675.184794	-3.025600	3.734400	-11.296000	24.025439	0.001069	20.696234
676.182470	-2.981400	3.736800	-11.140000	24.020735	0.001070	20.707165
677.187076	-2.987100	3.735700	-11.158000	24.018291	0.001069	20.692859
678.184873	-2.992900	3.735500	-11.179000	24.008957	0.001071	20.713372
679.184252	-2.994700	3.735800	-11.186000	24.014165	0.001070	20.701524
680.188994	-2.999900	3.733400	-11.197000	24.028637	0.001070	20.733109
681.184633	-3.012200	3.734000	-11.246000	24.057673	0.001069	20.699164
682.184642	-2.995600	3.733700	-11.183000	24.059564	0.001068	20.711967
683.189273	-3.015200	3.732600	-11.254000	24.038614	0.001069	20.698068
684.185241	-3.004500	3.732600	-11.213000	24.105448	0.001071	20.697766
685.188454	-3.003800	3.731300	-11.207000	24.083498	0.001069	20.717004
686.189488	-3.004900	3.731200	-11.210000	24.060006	0.001068	20.708142
687.190166	-2.988400	3.731500	-11.149000	24.053558	0.001069	20.706892
688.185468	-3.009600	3.731400	-11.228000	24.056272	0.001068	20.716253
689.190942	-3.009600	3.731500	-11.230000	24.107332	0.001067	20.713882
690.191126	-2.977600	3.730600	-11.107000	24.091546	0.001066	20.693306
691.186385	-2.998500	3.729800	-11.183000	24.120262	0.001067	20.699347
692.198140	-3.014300	3.729700	-11.241000	24.105606	0.001066	20.695554
693.195973	-3.016700	3.730600	-11.253000	24.061116	0.001065	20.698824
694.189585	-3.013200	3.729100	-11.235000	24.067329	0.001068	20.703159
695.190415	-3.028100	3.727700	-11.285000	24.061901	0.001066	20.709569
696.190962	-2.993000	3.728800	-11.159000	24.052060	0.001066	20.707285
697.192961	-2.982600	3.729600	-11.123000	24.039410	0.001067	20.716885
698.194208	-2.985700	3.728600	-11.131000	23.990238	0.001067	20.709773
699.192242	-2.981400	3.729800	-11.118000	23.981746	0.001067	20.719748
700.195038	-2.992600	3.726800	-11.151000	24.020688	0.001064	20.693840
701.194709	-2.999400	3.729000	-11.184000	24.013049	0.001065	20.719373
702.197721	-3.011000	3.727700	-11.223000	24.014965	0.001063	20.727458
703.196058	-3.003800	3.727500	-11.196000	24.041932	0.001064	20.734115
704.195057	-3.010800	3.727400	-11.221000	24.040121	0.001066	20.710960
705.192384	-3.011200	3.724900	-11.216000	24.020362	0.001064	20.731449
706.195812	-2.974300	3.727900	-11.087000	24.021658	0.001066	20.737016
707.194335	-2.998200	3.726100	-11.170000	24.060795	0.001065	20.715098
708.199698	-2.993200	3.725400	-11.150000	24.080252	0.001065	20.722759
709.202274	-2.991100	3.726700	-11.146000	24.084360	0.001063	20.728776
710.198302	-3.022300	3.724200	-11.254000	24.108576	0.001063	20.716552
711.200086	-3.018500	3.724600	-11.243000	24.131969	0.001064	20.730057
712.198647	-3.000800	3.724100	-11.174000	24.093343	0.001063	20.720240
713.201094	-2.991600	3.724400	-11.141000	24.079485	0.001066	20.730999
714.197300	-2.998000	3.723900	-11.162000	24.077121	0.001062	20.712506
715.197091	-3.014900	3.722400	-11.222000	24.092177	0.001063	20.719545
716.201054	-2.990200	3.724900	-11.136000	24.103652	0.001061	20.725365
717.200709	-2.985300	3.723600	-11.115000	24.110075	0.001062	20.737022
718.199628	-2.998300	3.723600	-11.164000	24.093356	0.001062	20.738273
719.207183	-3.005000	3.722900	-11.186000	24.107890	0.001062	20.732934
720.198045	-3.006300	3.722500	-11.190000	24.127518	0.001062	20.731283
721.200184	-2.992700	3.722200	-11.139000	24.117124	0.001063	20.737928
722.200640	-3.002600	3.721600	-11.173000	24.135089	0.001060	20.717064
723.198228	-2.985300	3.721500	-11.108000	24.118168	0.001062	20.724276
724.201339	-2.998900	3.720400	-11.156000	24.105109	0.001060	20.760966
725.200007	-3.005700	3.720100	-11.181000	24.089833	0.001060	20.729523
726.197957	-2.982100	3.720300	-11.094000	24.089416	0.001061	20.732898
727.202247	-2.992200	3.720900	-11.133000	24.071671	0.001060	20.725533
728.200362	-2.975600	3.722000	-11.074000	24.087924	0.001060	20.729979
729.198709	-3.003200	3.720200	-11.171000	24.096084	0.001061	20.732473
730.198261	-2.983100	3.720300	-11.097000	24.125924	0.001060	20.730158
731.201706	-2.994400	3.720800	-11.139000	24.121245	0.001061	20.746804
732.204126	-3.002000	3.719000	-11.164000	24.130756	0.001062	20.760137
733.200708	-3.012300	3.718100	-11.199000	24.137350	0.001060	20.732610
734.207579	-2.990700	3.717200	-11.116000	24.139297	0.001061	20.736459
735.202713	-3.001600	3.718900	-11.162000	24.126078	0.001060	20.737900
736.206164	-3.010700	3.716300	-11.187000	24.138867	0.001058	20.733657
737.202519	-2.995000	3.717300	-11.131000	24.167312	0.001058	20.750808
738.202369	-2.994000	3.716300	-11.126000	24.159398	0.001057	20.743344
739.205110	-2.996000	3.716800	-11.135000	24.154548	0.001057	20.748437
740.203710	-2.988900	3.717000	-11.108000	24.184061	0.001059	20.736312
741.204366	-3.005500	3.717200	-11.172000	24.194485	0.001055	20.744397
742.204622	-3.025900	3.715400	-11.241000	24.165102	0.001058	20.759497
743.205564	-3.008300	3.716300	-11.177000	24.200214	0.001058	20.752988
744.207145	-3.009100	3.715300	-11.178000	24.190458	0.001056	20.739884
745.209758	-3.003100	3.714700	-11.154000	24.181175	0.001059	20.761394
746.209756	-2.991700	3.715700	-11.115000	24.199219	0.001056	20.752465
747.206374	-3.007800	3.713700	-11.170000	24.199650	0.001057	20.754794
748.208439	-3.021800	3.713900	-11.222000	24.204044	0.001055	20.759676
749.210709	-2.999200	3.715300	-11.142000	24.219945	0.001056	20.742434
750.206573	-2.982000	3.714600	-11.076000	24.230989	0.001055	20.746873
751.207628	-2.978600	3.715300	-11.065000	24.234925	0.001056	20.757460
752.213341	-2.986200	3.714500	-11.091000	24.217263	0.001054	20.750175
753.213796	-2.990300	3.713900	-11.105000	24.202437	0.001052	20.771340
754.209575	-3.006200	3.712000	-11.158000	24.169517	0.001053	20.759658
755.207404	-3.003300	3.712400	-11.148000	24.131305	0.001054	20.739824
756.208687	-2.997000	3.712500	-11.125000	24.121444	0.001055	20.754116
757.209755	-3.019800	3.712100	-11.209000	24.144868	0.001055	20.751530
758.213194	-3.000700	3.712500	-11.138000	24.156165	0.001055	20.771396
759.217381	-2.995300	3.711400	-11.115000	24.134369	0.001053	20.754277
760.214639	-3.018400	3.711000	-11.200000	24.136243	0.001051	20.761846
761.209712	-3.001500	3.712500	-11.142000	24.127236	0.001053	20.747596
762.218675	-2.973700	3.712900	-11.040000	24.105636	0.001052	20.764340
763.214758	-3.009800	3.709600	-11.163000	24.068392	0.001053	20.757333
764.221570	-2.994500	3.710600	-11.111000	24.091712	0.001052	20.767919
765.214449	-2.993000	3.710400	-11.104000	24.113435	0.001051	20.758411
766.219821	-2.997600	3.708800	-11.117000	24.149168	0.001051	20.751576
767.213971	-3.002600	3.709500	-11.137000	24.163578	0.001051	20.747062
768.214246	-2.992100	3.709700	-11.098000	24.184231	0.001051	20.787219
769.217863	-3.000200	3.708300	-11.125000	24.217101	0.001053	20.782730
770.219702	-3.001500	3.708600	-11.130000	24.207401	0.001052	20.751663
771.211992	-2.999200	3.708600	-11.122000	24.242456	0.001050	20.772126
772.214460	-2.988900	3.709700	-11.087000	24.257785	0.001050	20.764743
773.224650	-3.012700	3.706700	-11.166000	24.260726	0.001048	20.790453
774.213351	-3.011700	3.706400	-11.161000	24.266963	0.001051	20.756879
775.226366	-2.988800	3.708300	-11.083000	24.266104	0.001052	20.751276
776.217858	-3.018400	3.706500	-11.187000	24.271532	0.001050	20.767626
777.217740	-2.978000	3.706700	-11.038000	24.276927	0.001049	20.774461
778.222025	-3.018300	3.706500	-11.186000	24.264994	0.001048	20.756327
779.218902	-2.999300	3.706000	-11.115000	24.289648	0.001049	20.775842
780.221301	-3.002400	3.705800	-11.125000	24.260936	0.001048	20.766007
781.220743	-3.008000	3.705200	-11.144000	24.278727	0.001051	20.773422
782.221168	-2.993200	3.706200	-11.092000	24.304577	0.001050	20.779438
783.219539	-2.984200	3.706000	-11.058000	24.322774	0.001050	20.763077
784.223177	-2.994200	3.706100	-11.096000	24.332920	0.001051	20.764247
785.224232	-3.001100	3.704900	-11.118000	24.329692	0.001049	20.767647
786.218903	-2.989000	3.704600	-11.071000	24.353196	0.001046	20.772259
787.223725	-2.989100	3.704900	-11.073000	24.382931	0.001046	20.765578
788.220708	-3.004800	3.703600	-11.128000	24.363699	0.001046	20.772364
789.222046	-2.984200	3.704800	-11.055000	24.366528	0.001048	20.788953
790.223024	-2.981700	3.704300	-11.044000	24.325242	0.001048	20.800167
791.220748	-3.012100	3.702600	-11.152000	24.336936	0.001044	20.776811
792.222229	-3.006600	3.703400	-11.133000	24.336323	0.001044	20.773351
793.221731	-2.991100	3.702900	-11.074000	24.325046	0.001044	20.786694
794.220610	-3.003700	3.703100	-11.122000	24.338865	0.001045	20.787755
795.222214	-3.015600	3.701900	-11.163000	24.352663	0.001045	20.782156
796.223096	-3.001400	3.701300	-11.108000	24.359109	0.001047	20.764914
797.224074	-3.004000	3.701000	-11.116000	24.376026	0.001044	20.788998
798.224844	-2.997300	3.700300	-11.090000	24.378764	0.001044	20.778942
799.223466	-3.002100	3.700500	-11.108000	24.384142	0.001045	20.784337
800.227002	-2.990400	3.700300	-11.064000	24.389365	0.001044	20.783888
801.224531	-3.018100	3.698400	-11.161000	24.367728	0.001044	20.800588
802.227063	-3.003700	3.700200	-11.112000	24.392429	0.001043	20.766572
803.224652	-2.993700	3.699700	-11.075000	24.396234	0.001043	20.806900
804.223939	-3.008700	3.698900	-11.126000	24.412605	0.001045	20.801986
805.230255	-2.995800	3.698600	-11.079000	24.400894	0.001042	20.804462
806.229692	-3.013800	3.697400	-11.142000	24.405774	0.001044	20.797978
807.224597	-3.020900	3.698400	-11.171000	24.396444	0.001041	20.791937
808.226135	-3.015600	3.697200	-11.148000	24.400876	0.001042	20.798280
809.225858	-2.983700	3.699000	-11.036000	24.390405	0.001041	20.798207
810.226145	-3.002300	3.697400	-11.100000	24.375980	0.001041	20.792745
811.226282	-2.997000	3.697600	-11.080000	24.353545	0.001041	20.803903
812.227959	-2.983900	3.699300	-11.037000	24.369941	0.001042	20.804230
813.233147	-3.013700	3.696900	-11.140000	24.376680	0.001039	20.789180
814.232696	-3.016400	3.696400	-11.149000	24.388276	0.001042	20.787062
815.227757	-3.003500	3.697200	-11.103000	24.412902	0.001041	20.811767
816.229134	-2.994600	3.696900	-11.070000	24.434601	0.001041	20.791811
817.229073	-2.997900	3.695400	-11.077000	24.440076	0.001041	20.788769
818.235108	-2.981400	3.695800	-11.017000	24.433624	0.001041	20.800314
819.230259	-2.999500	3.695200	-11.083000	24.414425	0.001040	20.813295
820.228959	-2.993600	3.696100	-11.064000	24.437013	0.001040	20.781902
821.235651	-3.013800	3.695200	-11.135000	24.453033	0.001039	20.801294
822.231734	-3.009000	3.694300	-11.114000	24.446434	0.001041	20.783768
823.231471	-3.010400	3.695200	-11.123000	24.434895	0.001038	20.789261
824.238231	-2.987600	3.694000	-11.035000	24.462055	0.001038	20.812241
825.236364	-2.984000	3.694600	-11.023000	24.456366	0.001037	20.796577
826.234748	-2.986600	3.694000	-11.032000	24.485335	0.001037	20.789605
827.237175	-3.007600	3.691700	-11.103000	24.493229	0.001037	20.814594
828.234487	-3.013100	3.693900	-11.129000	24.520738	0.001037	20.824176
829.238878	-3.003100	3.692900	-11.089000	24.498820	0.001036	20.815462
830.237224	-2.999300	3.693700	-11.077000	24.520461	0.001037	20.800665
831.235775	-2.979600	3.693000	-11.002000	24.542175	0.001038	20.829563
832.232486	-3.027300	3.690500	-11.171000	24.501582	0.001037	20.821078
833.237030	-3.005200	3.691500	-11.093000	24.491559	0.001034	20.808652
834.234761	-2.992300	3.689500	-11.038000	24.458967	0.001037	20.831428
835.235730	-3.002700	3.692100	-11.086000	24.409937	0.001035	20.806896
836.237531	-2.994400	3.690500	-11.049000	24.426062	0.001033	20.824495
837.234338	-3.001300	3.691200	-11.077000	24.413154	0.001035	20.835253
838.240288	-2.987400	3.691400	-11.027000	24.423790	0.001035	20.836440
839.240276	-3.002600	3.690800	-11.081000	24.407955	0.001033	20.810598
840.243793	-3.007700	3.690300	-11.097000	24.402221	0.001033	20.829500
841.236809	-2.984700	3.690300	-11.012000	24.387723	0.001034	20.817327
842.251534	-3.020200	3.687300	-11.134000	24.406996	0.001033	20.841403
843.242710	-2.998700	3.687700	-11.056000	24.391903	0.001033	20.827684
844.251145	-3.004800	3.689200	-11.084000	24.414093	0.001035	20.812013
845.240196	-3.001800	3.689300	-11.073000	24.386459	0.001034	20.826490
846.242420	-2.971200	3.690800	-10.965000	24.405585	0.001033	20.829556
847.240249	-2.995800	3.687900	-11.047000	24.407094	0.001031	20.829648
848.240986	-2.994500	3.688800	-11.045000	24.430782	0.001033	20.840135
849.241061	-2.981700	3.687800	-10.995000	24.452270	0.001031	20.819968
850.248278	-3.022200	3.686300	-11.139000	24.455032	0.001031	20.835541
851.243566	-2.988800	3.687300	-11.019000	24.472029	0.001030	20.833153
852.242222	-2.988400	3.686900	-11.017000	24.483641	0.001030	20.836742
853.246000	-3.006100	3.686500	-11.081000	24.497567	0.001029	20.861144
854.243235	-3.008400	3.685300	-11.085000	24.513684	0.001030	20.848866
855.244871	-3.008300	3.685300	-11.085000	24.517293	0.001030	20.830677
856.249125	-2.994500	3.685700	-11.035000	24.534250	0.001030	20.838207
857.245870	-2.992100	3.686400	-11.029000	24.540075	0.001028	20.852111
858.244712	-2.991200	3.686400	-11.025000	24.546887	0.001028	20.863213
859.244033	-3.018900	3.683900	-11.121000	24.537208	0.001030	20.852554
860.242936	-3.020400	3.684000	-11.127000	24.553300	0.001028	20.847837
861.244287	-3.004100	3.684100	-11.065000	24.540467	0.001028	20.849186
862.251284	-2.997500	3.684000	-11.042000	24.546261	0.001028	20.826550
863.244940	-3.025600	3.683900	-11.144000	24.550752	0.001027	20.839117
864.252667	-3.000100	3.683400	-11.050000	24.526756	0.001027	20.847757
865.246769	-2.994300	3.684800	-11.032000	24.521109	0.001026	20.854893
866.249947	-3.021300	3.682300	-11.124000	24.530039	0.001025	20.852473
867.249697	-2.979600	3.683700	-10.976000	24.529406	0.001026	20.851838
868.251956	-2.996500	3.682600	-11.034000	24.571318	0.001026	20.845527
869.248463	-3.009800	3.680800	-11.078000	24.595191	0.001027	20.860945
870.246548	-2.992800	3.682400	-11.020000	24.578375	0.001026	20.858297
871.262610	-2.997400	3.682700	-11.038000	24.558552	0.001026	20.859269
872.250385	-2.990700	3.682700	-11.013000	24.556084	0.001025	20.830242
873.247335	-3.011900	3.680900	-11.084000	24.559840	0.001024	20.845390
874.251760	-2.989800	3.682400	-11.009000	24.571206	0.001026	20.834983
875.250667	-2.993600	3.680400	-11.017000	24.575330	0.001026	20.835328
876.250652	-2.989300	3.680100	-11.001000	24.584743	0.001025	20.831496
877.250959	-3.008300	3.680600	-11.071000	24.579299	0.001024	20.840733
878.250942	-2.994000	3.680800	-11.020000	24.602252	0.001023	20.840529
879.252017	-3.017700	3.680600	-11.106000	24.603466	0.001023	20.838903
880.253760	-2.973600	3.679700	-10.941000	24.614360	0.001022	20.828971
881.253284	-2.984600	3.678600	-10.978000	24.639170	0.001023	20.841538
882.254463	-2.993600	3.679300	-11.013000	24.644970	0.001021	20.825073
883.258099	-3.001600	3.678900	-11.042000	24.647528	0.001022	20.838071
884.254025	-2.988000	3.679500	-10.994000	24.651634	0.001021	20.807579
885.254458	-3.008700	3.679700	-11.070000	24.669128	0.001019	20.795736
886.254080	-3.005700	3.678100	-11.054000	24.641820	0.001020	20.823809
887.254787	-3.012600	3.676900	-11.076000	24.604618	0.001019	20.812085
888.254433	-3.003700	3.676800	-11.042000	24.588993	0.001020	20.807312
889.258113	-2.984400	3.676700	-10.971000	24.581089	0.001020	20.820244
890.258722	-2.988500	3.678300	-10.991000	24.575940	0.001023	20.819345
891.262181	-2.992100	3.676500	-10.998000	24.591625	0.001019	20.811850
892.259183	-3.006200	3.675800	-11.050000	24.583119	0.001019	20.813746
893.256938	-2.997500	3.675700	-11.017000	24.601346	0.001018	20.837724
894.255870	-3.013900	3.674400	-11.073000	24.579209	0.001018	20.811246
895.254153	-2.980300	3.675900	-10.953000	24.593183	0.001019	20.828586
896.253630	-2.999000	3.674100	-11.017000	24.621512	0.001019	20.811018
897.256032	-3.005300	3.674900	-11.044000	24.601468	0.001018	20.813192
898.259377	-2.995100	3.675400	-11.007000	24.610342	0.001018	20.818302
899.254411	-2.972300	3.675500	-10.924000	24.604629	0.001017	20.824898
900.257442	-3.033300	3.672700	-11.139000	24.602284	0.001016	20.822071
901.258798	-3.008200	3.673200	-11.047000	24.609306	0.001016	20.822952
902.262247	-3.027200	3.674900	-11.122000	24.628054	0.001017	20.777279
903.256203	-3.000500	3.673400	-11.021000	24.631134	0.001015	20.808819
904.256598	-2.994300	3.672700	-10.996000	24.610447	0.001015	20.814614
905.258284	-2.989600	3.672900	-10.978000	24.588458	0.001015	20.812465
906.258542	-3.012100	3.672600	-11.061000	24.578688	0.001014	20.805033
907.258879	-3.010000	3.672800	-11.053000	24.574834	0.001014	20.800692
908.262239	-3.002100	3.672800	-11.025000	24.564413	0.001013	20.818685
909.259949	-3.002900	3.672700	-11.028000	24.565358	0.001013	20.806357
910.262733	-3.007900	3.672000	-11.043000	24.570108	0.001011	20.807330
911.259806	-2.988000	3.671300	-10.969000	24.607170	0.001014	20.814646
912.259235	-2.984800	3.671800	-10.958000	24.598689	0.001012	20.781479
913.260098	-2.985300	3.672300	-10.962000	24.609981	0.001013	20.805138
914.258333	-3.014300	3.670300	-11.061000	24.625901	0.001013	20.796930
915.258196	-2.983700	3.671500	-10.954000	24.636076	0.001013	20.827054
916.264291	-3.003600	3.669900	-11.022000	24.628515	0.001011	20.813304
917.264640	-2.968000	3.671400	-10.897000	24.646356	0.001012	20.800386
918.259959	-2.979500	3.670700	-10.935000	24.666717	0.001012	20.815601
919.263768	-2.988000	3.670600	-10.967000	24.673265	0.001011	20.801783
920.264174	-3.009500	3.668800	-11.040000	24.685887	0.001009	20.801647
921.264956	-2.993400	3.668200	-10.979000	24.647675	0.001010	20.810719
922.261155	-3.017100	3.668400	-11.066000	24.632033	0.001010	20.798341
923.261806	-2.987200	3.669800	-10.961000	24.646265	0.001010	20.803613
924.265268	-2.987900	3.669500	-10.963000	24.663895	0.001009	20.799493
925.264099	-3.026100	3.667700	-11.098000	24.668491	0.001008	20.783242
926.264509	-3.028200	3.667200	-11.103000	24.665817	0.001010	20.806637
927.265255	-3.003600	3.666200	-11.011000	24.680685	0.001010	20.793582
928.268938	-2.991200	3.668100	-10.970000	24.688424	0.001007	20.799925
929.267869	-2.989900	3.668000	-10.966000	24.662436	0.001009	20.778114
930.264868	-2.996400	3.667000	-10.987000	24.651168	0.001010	20.807111
931.264441	-2.999600	3.666300	-10.996000	24.651795	0.001010	20.795886
932.266950	-3.006600	3.666500	-11.022000	24.653409	0.001006	20.794186
933.267324	-3.007300	3.665500	-11.022000	24.624486	0.001006	20.798355
934.268919	-2.982500	3.666000	-10.932000	24.597355	0.001006	20.784882
935.268348	-2.984200	3.666900	-10.942000	24.561643	0.001005	20.786508
936.268309	-2.991400	3.666000	-10.964000	24.560022	0.001005	20.772554
937.267567	-3.012000	3.664000	-11.035000	24.570338	0.001005	20.774844
938.268792	-3.013600	3.663400	-11.039000	24.610352	0.001003	20.796975
939.267368	-2.986700	3.666200	-10.948000	24.609739	0.001005	20.792567
940.268954	-2.988100	3.664800	-10.949000	24.601349	0.001004	20.782252
941.271848	-2.984700	3.664600	-10.936000	24.609333	0.001005	20.800220
942.269317	-3.000900	3.663700	-10.993000	24.605976	0.001003	20.821034
943.276386	-2.995800	3.663600	-10.975000	24.616274	0.001004	20.780632
944.268694	-2.988800	3.663100	-10.946000	24.590781	0.001005	20.790614
945.270289	-3.018500	3.662500	-11.054000	24.603859	0.001003	20.784296
946.274985	-3.012800	3.663400	-11.037000	24.643447	0.001003	20.791303
947.271116	-2.991600	3.662900	-10.957000	24.654298	0.001001	20.787492
948.272198	-2.987500	3.662300	-10.940000	24.658292	0.001002	20.790077
949.272956	-2.980600	3.661500	-10.912000	24.708980	0.001002	20.788785
950.272476	-2.992500	3.661900	-10.956000	24.667546	0.001000	20.782768
951.272913	-2.992200	3.661800	-10.955000	24.678439	0.001000	20.765249
952.271872	-3.019600	3.660300	-11.052000	24.642023	0.001001	20.769011
953.278996	-3.010400	3.660200	-11.017000	24.612204	0.001000	20.763746
954.272240	-3.012000	3.661300	-11.025000	24.585219	0.000999	20.779818
955.274262	-3.000000	3.660000	-10.979000	24.599911	0.000999	20.766584
956.275287	-2.980800	3.659400	-10.907000	24.622323	0.000998	20.773426
957.277155	-3.012500	3.659100	-11.020000	24.628386	0.000996	20.785673
958.274697	-3.012700	3.659500	-11.025000	24.640077	0.000997	20.775593
959.282483	-3.022900	3.657500	-11.055000	24.695509	0.000999	20.767680
960.276478	-3.004100	3.658200	-10.988000	24.664176	0.000997	20.755678
961.276276	-3.012200	3.657900	-11.017000	24.669822	0.000998	20.781258
962.287937	-2.982400	3.659900	-10.915000	24.651393	0.000995	20.774620
963.275066	-2.973100	3.658200	-10.875000	24.645919	0.000995	20.778136
964.279983	-2.981400	3.658900	-10.907000	24.620395	0.000995	20.770542
965.275713	-3.010700	3.656800	-11.009000	24.621868	0.000997	20.801893
966.278493	-2.991200	3.659600	-10.944000	24.618438	0.000995	20.781855
967.280097	-3.000900	3.657400	-10.975000	24.616418	0.000994	20.771294
968.277609	-3.011600	3.657400	-11.013000	24.656713	0.000994	20.755302
969.277559	-3.006900	3.656700	-10.994000	24.633829	0.000992	20.757469
970.284359	-3.012400	3.655500	-11.011000	24.641543	0.000994	20.768529
971.281843	-2.992100	3.656500	-10.939000	24.657658	0.000992	20.768579
972.276780	-3.008700	3.656300	-11.000000	24.655492	0.000994	20.769724
973.283680	-3.007800	3.654800	-10.990000	24.638757	0.000995	20.765734
974.291894	-3.001500	3.654500	-10.967000	24.607846	0.000993	20.766485
975.278046	-3.017100	3.654100	-11.024000	24.620556	0.000991	20.755056
976.287416	-2.994000	3.655300	-10.943000	24.645324	0.000991	20.777539
977.279736	-2.980000	3.655000	-10.891000	24.644956	0.000991	20.770057
978.278685	-3.012600	3.652800	-11.003000	24.656972	0.000990	20.758407
979.278915	-2.982100	3.653300	-10.894000	24.642992	0.000989	20.776622
980.278271	-2.993500	3.653800	-10.937000	24.646251	0.000989	20.762822
981.279211	-2.979500	3.654800	-10.888000	24.681169	0.000989	20.770833
982.305400	-3.010900	3.652900	-10.997000	24.693178	0.000989	20.764392
983.277619	-3.015300	3.651200	-11.009000	24.707525	0.000990	20.762193
984.279287	-2.983000	3.653300	-10.897000	24.728794	0.000991	20.774528
985.285968	-3.007100	3.652100	-10.981000	24.777981	0.000989	20.747550
986.281679	-2.979500	3.653300	-10.882000	24.772515	0.000989	20.785213
987.283191	-3.011500	3.651800	-10.997000	24.777208	0.000987	20.757206
988.281219	-3.031200	3.650500	-11.063000	24.779122	0.000987	20.751540
989.282014	-3.006800	3.650700	-10.976000	24.819135	0.000985	20.770833
990.283230	-2.994900	3.651000	-10.934000	24.816521	0.000987	20.771529
991.286497	-2.995700	3.650500	-10.935000	24.771188	0.000987	20.760648
992.282860	-2.999700	3.651500	-10.951000	24.758204	0.000987	20.777964
993.284969	-3.006200	3.650100	-10.972000	24.755915	0.000984	20.764287
994.284061	-3.003200	3.650400	-10.962000	24.753952	0.000986	20.759945
995.285167	-2.998000	3.649200	-10.939000	24.739998	0.000984	20.761115
996.286720	-2.993500	3.650100	-10.926000	24.713188	0.000985	20.753177
997.284873	-2.966000	3.650100	-10.825000	24.748926	0.000984	20.758695
998.289662	-3.026100	3.647400	-11.036000	24.744299	0.000984	20.751207
999.286092	-3.004500	3.648300	-10.959000	24.724202	0.000984	20.749531
1000.286444	-3.003100	3.648500	-10.955000	24.719281	0.000984	20.746964
1001.290421	-3.004500	3.649000	-10.963000	24.725196	0.000984	20.753848
1002.287933	-3.004700	3.648200	-10.959000	24.752741	0.000984	20.739764
1003.291789	-2.994800	3.646700	-10.920000	24.763038	0.000985	20.745355
1004.289474	-2.997900	3.646700	-10.931000	24.770689	0.000983	20.758249
1005.288254	-2.978700	3.647500	-10.864000	24.778850	0.000981	20.749844
1006.294454	-2.983800	3.647800	-10.883000	24.791453	0.000982	20.760122
1007.295483	-2.987900	3.645100	-10.891000	24.793017	0.000981	20.745570
1008.289345	-2.978900	3.647800	-10.865000	24.792594	0.000982	20.748464
1009.291066	-2.999700	3.645900	-10.935000	24.843441	0.000981	20.749233
1010.286096	-2.996000	3.647700	-10.928000	24.820088	0.000979	20.745711
1011.287194	-3.000600	3.644900	-10.936000	24.876431	0.000982	20.762904
1012.289866	-3.003600	3.646200	-10.951000	24.816854	0.000981	20.739146
1013.288867	-3.002900	3.644800	-10.944000	24.819567	0.000978	20.744713
1014.285829	-2.991200	3.644700	-10.902000	24.824438	0.000980	20.759560
1015.291416	-3.009100	3.644400	-10.965000	24.838433	0.000976	20.748949
1016.288324	-2.994000	3.642700	-10.905000	24.845324	0.000976	20.739269
1017.289469	-3.004300	3.644500	-10.949000	24.826776	0.000976	20.727766
1018.295493	-3.027100	3.642000	-11.023000	24.814510	0.000977	20.745328
1019.296522	-3.032300	3.644100	-11.049000	24.824610	0.000978	20.739343
1020.288822	-2.988300	3.643100	-10.885000	24.820959	0.000974	20.747533
1021.293228	-2.992800	3.642300	-10.899000	24.824868	0.000976	20.732964
1022.290865	-2.990900	3.642600	-10.893000	24.805442	0.000974	20.756617
1023.288409	-2.997500	3.641700	-10.915000	24.794894	0.000974	20.736547
1024.292581	-2.999100	3.642000	-10.921000	24.808749	0.000975	20.745711
1025.289831	-2.977500	3.641900	-10.843000	24.823150	0.000972	20.733136
1026.288354	-2.983100	3.641700	-10.862000	24.830685	0.000973	20.730266
1027.294168	-3.000800	3.641400	-10.926000	24.844410	0.000972	20.738352
1028.288934	-2.984500	3.641800	-10.868000	24.812480	0.000973	20.724323
1029.292535	-2.990500	3.640500	-10.885000	24.816910	0.000974	20.724028
1030.292517	-2.997800	3.640500	-10.913000	24.790599	0.000970	20.737453
1031.292071	-2.992800	3.641600	-10.898000	24.758999	0.000972	20.746992
1032.295832	-2.995000	3.639900	-10.900000	24.731024	0.000969	20.744523
1033.297512	-2.983500	3.639400	-10.857000	24.741475	0.000971	20.711861
1034.299611	-3.011900	3.639100	-10.959000	24.720279	0.000969	20.725679
1035.291003	-2.993600	3.641000	-10.898000	24.714763	0.000969	20.718721
1036.297395	-2.985600	3.640100	-10.867000	24.698747	0.000969	20.735366
1037.302665	-3.001600	3.639500	-10.923000	24.684474	0.000968	20.727681
1038.291901	-3.001300	3.638600	-10.920000	24.689671	0.000969	20.707291
1039.292645	-2.996500	3.638800	-10.902000	24.690795	0.000968	20.721221
1040.297575	-2.996800	3.637500	-10.900000	24.710038	0.000967	20.718721
1041.294999	-2.968700	3.638000	-10.799000	24.695870	0.000969	20.715882
1042.296054	-2.995400	3.637600	-10.894000	24.672465	0.000967	20.719897
1043.295284	-3.018400	3.635200	-10.971000	24.629765	0.000966	20.730631
1044.294340	-3.020900	3.634700	-10.979000	24.635614	0.000967	20.717533
1045.300446	-3.007200	3.634800	-10.929000	24.635075	0.000967	20.709879
1046.295667	-3.006000	3.635400	-10.927000	24.667330	0.000963	20.710002
1047.305661	-2.997600	3.636300	-10.899000	24.663451	0.000964	20.706110
1048.300607	-3.003400	3.634200	-10.914000	24.706279	0.000965	20.726802
1049.295041	-2.985000	3.634800	-10.849000	24.726099	0.000966	20.727252
1050.298340	-3.016400	3.633600	-10.958000	24.750840	0.000963	20.724579
1051.293920	-2.992700	3.634800	-10.877000	24.758971	0.000963	20.722781
1052.295295	-3.019900	3.633500	-10.972000	24.748730	0.000965	20.721987
1053.296913	-2.999900	3.634300	-10.901000	24.774317	0.000961	20.717793
1054.297651	-2.999000	3.632500	-10.892000	24.798211	0.000964	20.719486
1055.301353	-3.004100	3.633300	-10.914000	24.786357	0.000961	20.712805
1056.297964	-3.000400	3.633900	-10.902000	24.784761	0.000962	20.710255
1057.298777	-3.014000	3.632100	-10.946000	24.795236	0.000963	20.694687
1058.298820	-2.987400	3.632600	-10.852000	24.802267	0.000960	20.713125
1059.297816	-3.010500	3.633200	-10.935000	24.833750	0.000961	20.699201
1060.304089	-3.012500	3.632700	-10.942000	24.826110	0.000959	20.711923
1061.298526	-2.988200	3.633000	-10.855000	24.854457	0.000960	20.705759
1062.299046	-3.006900	3.631200	-10.917000	24.822999	0.000962	20.688885
1063.303783	-3.012000	3.630200	-10.933000	24.844259	0.000957	20.698843
1064.299305	-2.996900	3.630500	-10.879000	24.842044	0.000958	20.725545
1065.300238	-3.024400	3.629600	-10.976000	24.790896	0.000958	20.717361
1066.303185	-3.005300	3.629200	-10.906000	24.773383	0.000958	20.702155
1067.301457	-3.000200	3.629400	-10.888000	24.782507	0.000958	20.713684
1068.301248	-3.013100	3.628600	-10.933000	24.772781	0.000957	20.685903
1069.303017	-2.991300	3.629500	-10.855000	24.749906	0.000957	20.709890
1070.315958	-3.008500	3.628000	-10.914000	24.743285	0.000956	20.686648
1071.304164	-3.004400	3.629800	-10.905000	24.739560	0.000957	20.707568
1072.307485	-2.991300	3.628600	-10.853000	24.679742	0.000959	20.699697
1073.304934	-3.029100	3.627300	-10.985000	24.672556	0.000956	20.706711
1074.306571	-3.009200	3.626700	-10.912000	24.672776	0.000955	20.708355
1075.308035	-3.012400	3.627400	-10.926000	24.691677	0.000955	20.679904
1076.307731	-2.997100	3.627000	-10.869000	24.719457	0.000955	20.700196
1077.306254	-2.996600	3.628400	-10.871000	24.744174	0.000952	20.704137
1078.307090	-2.991900	3.627900	-10.853000	24.764207	0.000954	20.693895
1079.308977	-3.009600	3.626100	-10.912000	24.817719	0.000955	20.703501
1080.312066	-2.995800	3.626900	-10.865000	24.786984	0.000952	20.707270
1081.314407	-3.017600	3.625400	-10.939000	24.781364	0.000953	20.692620
1082.313619	-2.992900	3.627800	-10.856000	24.785567	0.000953	20.688777
1083.308976	-2.973500	3.625700	-10.779000	24.813964	0.000954	20.696887
1084.314552	-2.990300	3.626000	-10.841000	24.835070	0.000953	20.702423
1085.313678	-3.014200	3.624500	-10.924000	24.844169	0.000949	20.685949
1086.308022	-3.002700	3.625100	-10.883000	24.844421	0.000951	20.700902
1087.308462	-3.003400	3.624500	-10.884000	24.842041	0.000951	20.691875
1088.314682	-2.996100	3.623400	-10.855000	24.845685	0.000949	20.693635
1089.307394	-3.024500	3.623200	-10.955000	24.883235	0.000949	20.688647
1090.312922	-2.991300	3.624100	-10.839000	24.898555	0.000948	20.687902
1091.312658	-2.997000	3.623400	-10.858000	24.907279	0.000950	20.673423
1092.310094	-3.011000	3.622600	-10.906000	24.935894	0.000950	20.677013
1093.308344	-3.000300	3.622000	-10.865000	24.945048	0.000949	20.677667
1094.313407	-3.005400	3.623100	-10.888000	24.937188	0.000946	20.704394
1095.309747	-2.999300	3.620900	-10.859000	24.948232	0.000947	20.707418
1096.312724	-3.004700	3.622000	-10.882000	24.960612	0.000949	20.692816
1097.319231	-2.975100	3.623000	-10.778000	24.986863	0.000946	20.691190
1098.310664	-3.007000	3.621500	-10.889000	24.978784	0.000946	20.686399
1099.315254	-3.009400	3.620300	-10.893000	25.002378	0.000944	20.701074
1100.314775	-3.000400	3.621000	-10.863000	25.006574	0.000945	20.682999
1101.314087	-3.004700	3.621900	-10.881000	24.994464	0.000944	20.667523
1102.317873	-2.993800	3.621000	-10.840000	24.997623	0.000943	20.692033
1103.319874	-2.993600	3.620300	-10.837000	24.985341	0.000942	20.674962
1104.315860	-3.021900	3.619700	-10.936000	24.985635	0.000943	20.686164
1105.320337	-3.022200	3.618900	-10.936000	25.004733	0.000944	20.691110
1106.317849	-2.984600	3.619300	-10.801000	24.981979	0.000942	20.682493
1107.313797	-3.023600	3.617500	-10.936000	24.950311	0.000942	20.682476
1108.319857	-3.008000	3.618400	-10.882000	24.947770	0.000940	20.693203
1109.317976	-3.014700	3.617000	-10.903000	24.961722	0.000940	20.676859
1110.322038	-2.972100	3.620100	-10.758000	24.920689	0.000940	20.683091
1111.315838	-3.008300	3.618000	-10.883000	24.893492	0.000940	20.691830
1112.323609	-2.974200	3.617900	-10.759000	24.890633	0.000939	20.707928
1113.321817	-3.008700	3.616500	-10.881000	24.884516	0.000938	20.679975
1114.322950	-2.983400	3.616800	-10.790000	24.907665	0.000938	20.676655
1115.323596	-3.017700	3.614900	-10.907000	24.932556	0.000936	20.676508
1116.329733	-2.993000	3.617100	-10.825000	24.958268	0.000939	20.682402
1117.319708	-3.017700	3.614900	-10.907000	24.964360	0.000938	20.688043
1118.319868	-3.004400	3.614300	-10.858000	24.962635	0.000937	20.700063
1119.321148	-2.989300	3.616100	-10.808000	24.969955	0.000938	20.684650
1120.320994	-2.991300	3.615700	-10.815000	24.950132	0.000937	20.680400
1121.319694	-2.991500	3.615400	-10.814000	24.960508	0.000936	20.689392
1122.317590	-3.010600	3.614100	-10.880000	24.969759	0.000935	20.681608
1123.322129	-3.014600	3.614100	-10.895000	24.972433	0.000936	20.701363
1124.323824	-2.997300	3.613800	-10.831000	24.984421	0.000933	20.684945
1125.318670	-2.995400	3.613700	-10.824000	24.976919	0.000933	20.684527
1126.321397	-2.988800	3.614000	-10.801000	25.002274	0.000932	20.688640
1127.320006	-2.995100	3.612600	-10.819000	25.014107	0.000934	20.691036
1128.318789	-3.005500	3.613000	-10.857000	24.988771	0.000932	20.687889
1129.325495	-3.001500	3.612600	-10.842000	24.971348	0.000934	20.682728
1130.323852	-2.978300	3.612800	-10.759000	24.991126	0.000932	20.674604
1131.320367	-2.968600	3.612800	-10.724000	24.978249	0.000932	20.693923
1132.327366	-3.003400	3.611200	-10.845000	24.991458	0.000931	20.692957
1133.329677	-2.992100	3.610800	-10.803000	25.013359	0.000931	20.676058
1134.319707	-3.003000	3.611300	-10.844000	25.040952	0.000932	20.676729
1135.328847	-3.016900	3.609900	-10.890000	25.039731	0.000931	20.666968
1136.325015	-3.018900	3.610200	-10.898000	25.052436	0.000929	20.696793
1137.323411	-2.982100	3.610000	-10.764000	25.034136	0.000930	20.669413
1138.324927	-3.011300	3.609800	-10.868000	25.071298	0.000928	20.688700
1139.328802	-3.011100	3.608600	-10.865000	25.068832	0.000929	20.675792
1140.322198	-3.001500	3.609800	-10.834000	25.086627	0.000927	20.675637
1141.327949	-3.003400	3.609100	-10.839000	25.069493	0.000931	20.690208
1142.328283	-2.975600	3.607600	-10.733000	25.026282	0.000930	20.680496
1143.321758	-3.015400	3.608900	-10.882000	25.019595	0.000928	20.691328
1144.325245	-2.983800	3.609500	-10.768000	24.962528	0.000929	20.707542
1145.325028	-3.011300	3.607900	-10.863000	24.932435	0.000927	20.699622
1146.322538	-2.991900	3.606400	-10.789000	24.913857	0.000924	20.699942
1147.322937	-2.996000	3.606700	-10.805000	24.881487	0.000926	20.709180
1148.328311	-2.996900	3.607100	-10.809000	24.864074	0.000925	20.691702
1149.325010	-2.988400	3.607200	-10.778000	24.843083	0.000924	20.675849
1150.323255	-2.995700	3.605900	-10.801000	24.872907	0.000924	20.702939
1151.329210	-3.013000	3.606300	-10.865000	24.864036	0.000924	20.700673
1152.323547	-2.993200	3.605600	-10.792000	24.905277	0.000924	20.691330
1153.326969	-2.984100	3.605500	-10.758000	24.892441	0.000922	20.690301
1154.328463	-2.980300	3.605300	-10.742000	24.907780	0.000921	20.684358
1155.324006	-2.996700	3.605500	-10.804000	24.916374	0.000921	20.670224
1156.323793	-2.989300	3.604300	-10.773000	24.919503	0.000923	20.691384
1157.329305	-3.009500	3.602800	-10.841000	24.931601	0.000921	20.692620
1158.326430	-2.997400	3.603300	-10.800000	24.952460	0.000920	20.686056
1159.325529	-3.009200	3.603100	-10.842000	24.923409	0.000919	20.710953
1160.333416	-3.006700	3.603800	-10.834000	24.930244	0.000921	20.695526
1161.328096	-2.994400	3.602900	-10.787000	24.951569	0.000919	20.711716
1162.324008	-3.007000	3.602400	-10.831000	24.967606	0.000920	20.703156
1163.327152	-3.009100	3.601300	-10.835000	24.975175	0.000918	20.712176
1164.325881	-3.004000	3.601800	-10.818000	24.974279	0.000918	20.707958
1165.326842	-3.005600	3.601800	-10.824000	24.990708	0.000918	20.697895
1166.329502	-2.999500	3.601000	-10.799000	24.981635	0.000917	20.715341
1167.332346	-3.002100	3.601500	-10.811000	24.979738	0.000917	20.703480
1168.324190	-3.013500	3.600300	-10.849000	24.980627	0.000915	20.704847
1169.330543	-3.009300	3.599900	-10.833000	24.983014	0.000913	20.722416
1170.327124	-3.009800	3.600200	-10.835000	25.026833	0.000913	20.718985
1171.324881	-2.991500	3.600900	-10.771000	25.026319	0.000914	20.720839
1172.334692	-3.008000	3.600500	-10.830000	25.051641	0.000912	20.710221
1173.329930	-2.996200	3.599000	-10.783000	25.095122	0.000910	20.710246
1174.326363	-3.010200	3.599100	-10.831000	25.114984	0.000913	20.707425
1175.330695	-3.003800	3.597200	-10.804000	25.072988	0.000910	20.708416
1176.333585	-3.001000	3.598200	-10.798000	25.085269	0.000911	20.720271
1177.325778	-3.021300	3.596700	-10.866000	25.100213	0.000910	20.713460
1178.332552	-3.006600	3.596600	-10.812000	25.121216	0.000908	20.712733
1179.328173	-2.969500	3.599100	-10.686000	25.111266	0.000909	20.722186
1180.327661	-3.000700	3.596400	-10.791000	25.126062	0.000909	20.730875
1181.334349	-2.984800	3.597500	-10.736000	25.111137	0.000909	20.722056
1182.328724	-2.996800	3.597400	-10.780000	25.073570	0.000908	20.722277
1183.327354	-3.013700	3.595700	-10.835000	25.056394	0.000907	20.729218
1184.330007	-2.976800	3.597900	-10.709000	25.070792	0.000907	20.719962
1185.325417	-3.021300	3.596300	-10.864000	25.046769	0.000907	20.717184
1186.326378	-2.998800	3.594400	-10.777000	25.040971	0.000905	20.725590
1187.329545	-3.019200	3.593800	-10.850000	24.992624	0.000905	20.713096
1188.328931	-2.998200	3.594300	-10.776000	25.010414	0.000905	20.712461
1189.328353	-2.986700	3.596400	-10.740000	25.030659	0.000904	20.737525
1190.332467	-3.001200	3.594600	-10.788000	25.007636	0.000901	20.714413
1191.335402	-2.985700	3.594700	-10.732000	25.010267	0.000904	20.727961
1192.327731	-2.985800	3.594000	-10.730000	25.024445	0.000902	20.727019
1193.328826	-2.994200	3.594100	-10.759000	25.041891	0.000901	20.736946
1194.330858	-2.998000	3.593500	-10.772000	25.054344	0.000901	20.724789
1195.331835	-3.000000	3.592200	-10.775000	25.090169	0.000901	20.737044
1196.331366	-2.988100	3.591700	-10.732000	25.083238	0.000902	20.723921
1197.331335	-3.003800	3.592400	-10.789000	25.104388	0.000900	20.721445
1198.334249	-3.001400	3.591900	-10.780000	25.060240	0.000902	20.740665
1199.333778	-2.984000	3.591400	-10.715000	25.069061	0.000900	20.722018
1200.337688	-3.010600	3.591700	-10.813000	25.069005	0.000900	20.735239
1201.342105	-2.993400	3.590300	-10.746000	25.034253	0.000900	20.728804
1202.332271	-3.010600	3.590100	-10.806000	25.025499	0.000897	20.738983
1203.338307	-3.015900	3.589700	-10.825000	25.019113	0.000897	20.734470
1204.336967	-3.003800	3.589000	-10.780000	25.023137	0.000898	20.752735
1205.341605	-3.017300	3.588900	-10.826000	25.010978	0.000894	20.725829
1206.338408	-2.992300	3.589400	-10.739000	25.014530	0.000897	20.736033
1207.338132	-2.997400	3.588500	-10.755000	25.020775	0.000896	20.732819
1208.337760	-3.004700	3.588400	-10.781000	25.017217	0.000897	20.732092
1209.336306	-3.011100	3.587200	-10.800000	25.040265	0.000895	20.727252
1210.338398	-3.006500	3.587900	-10.786000	25.060282	0.000894	20.723163
1211.332649	-3.015900	3.587500	-10.817000	25.070600	0.000895	20.724038
1212.336838	-2.990200	3.588500	-10.729000	25.066195	0.000895	20.731470
1213.336606	-3.007300	3.587000	-10.785000	25.089518	0.000893	20.730227
1214.335919	-2.999300	3.587600	-10.759000	25.088280	0.000894	20.732777
1215.337561	-2.979200	3.587800	-10.688000	25.098689	0.000894	20.726156
1216.338842	-3.005400	3.586300	-10.778000	25.075729	0.000894	20.732506
1217.337090	-3.012900	3.585600	-10.803000	25.062423	0.000894	20.735745
1218.338323	-2.990900	3.584000	-10.719000	25.065086	0.000893	20.732253
1219.338734	-3.019200	3.585500	-10.824000	25.059190	0.000890	20.741983
1220.337515	-2.982800	3.587100	-10.698000	25.021401	0.000890	20.752889
1221.337367	-2.995400	3.585800	-10.738000	25.008997	0.000890	20.739015
1222.343999	-3.003700	3.583800	-10.764000	25.021751	0.000891	20.744231
1223.334991	-3.019200	3.583600	-10.819000	25.035254	0.000891	20.735499
1224.339736	-3.004600	3.583500	-10.767000	25.042332	0.000891	20.741656
1225.340089	-2.985600	3.584200	-10.699000	25.065821	0.000887	20.711179
1226.341795	-3.000900	3.582900	-10.751000	25.067017	0.000888	20.746521
1227.338328	-2.983600	3.582500	-10.688000	25.092419	0.000888	20.736932
1228.341002	-3.018800	3.581800	-10.811000	25.125906	0.000886	20.741151
1229.342398	-3.012500	3.581600	-10.789000	25.178308	0.000885	20.737807
1230.342210	-2.985300	3.581800	-10.691000	25.182908	0.000885	20.733416
1231.342175	-2.987300	3.581700	-10.698000	25.183675	0.000886	20.729444
1232.338101	-2.983400	3.580200	-10.681000	25.209571	0.000886	20.728415
1233.340335	-3.013500	3.580500	-10.788000	25.229235	0.000885	20.740572
1234.351019	-3.008800	3.580100	-10.771000	25.224880	0.000885	20.746157
1235.339474	-3.002200	3.581900	-10.751000	25.209466	0.000884	20.754390
1236.342098	-2.978900	3.581100	-10.666000	25.228553	0.000885	20.752690
1237.343854	-3.007100	3.580700	-10.766000	25.236932	0.000884	20.762524
1238.342100	-3.001400	3.580000	-10.744000	25.238496	0.000884	20.759827
1239.344759	-3.019100	3.577300	-10.800000	25.259521	0.000881	20.729252
1240.344131	-2.983800	3.579600	-10.679000	25.283036	0.000882	20.751914
1241.343599	-2.996500	3.578200	-10.721000	25.274087	0.000880	20.752413
1242.344218	-2.973800	3.579800	-10.645000	25.272265	0.000881	20.761489
1243.343663	-3.011000	3.576400	-10.768000	25.234330	0.000880	20.786939
1244.340447	-2.989400	3.577900	-10.694000	25.240372	0.000880	20.750330
1245.343242	-3.004500	3.576700	-10.745000	25.201939	0.000880	20.758687
1246.349289	-3.001900	3.576900	-10.736000	25.187144	0.000881	20.758058
1247.345671	-3.014100	3.577100	-10.780000	25.179759	0.000879	20.774826
1248.347881	-3.010500	3.576300	-10.765000	25.208716	0.000877	20.756481
1249.348647	-2.996900	3.577100	-10.719000	25.216290	0.000878	20.763138
1250.347289	-3.003500	3.575200	-10.738000	25.240432	0.000878	20.770306
1251.354218	-3.014100	3.573400	-10.769000	25.242136	0.000879	20.781975
1252.348222	-3.014400	3.574300	-10.773000	25.247184	0.000877	20.752429
1253.350560	-2.982000	3.574500	-10.658000	25.290877	0.000876	20.767374
1254.346964	-3.006900	3.573800	-10.745000	25.283168	0.000876	20.770539
1255.346314	-3.011100	3.574300	-10.762000	25.296311	0.000876	20.755285
1256.352955	-3.023600	3.573800	-10.804000	25.269515	0.000873	20.764891
1257.353909	-2.999200	3.572400	-10.713000	25.249183	0.000875	20.762022
1258.352849	-3.007400	3.571900	-10.741000	25.237841	0.000875	20.788094
1259.345028	-2.976400	3.574100	-10.637000	25.238461	0.000873	20.766904
1260.354011	-3.010400	3.571900	-10.752000	25.234161	0.000870	20.782028
1261.354334	-2.996400	3.573500	-10.706000	25.245440	0.000873	20.779128
1262.349600	-3.001700	3.571500	-10.719000	25.246244	0.000871	20.766184
1263.348916	-2.995800	3.571100	-10.697000	25.242711	0.000871	20.783500
1264.356997	-2.983200	3.571200	-10.653000	25.235676	0.000870	20.779756
1265.350140	-2.996800	3.571000	-10.700000	25.235197	0.000868	20.760309
1266.355735	-3.033600	3.568600	-10.825000	25.251482	0.000868	20.765753
1267.352462	-2.995200	3.571300	-10.695000	25.273605	0.000868	20.784645
1268.352966	-3.022000	3.569200	-10.783000	25.262761	0.000866	20.771861
1269.352238	-2.978000	3.570700	-10.632000	25.298057	0.000866	20.791653
1270.354706	-3.021800	3.569100	-10.783000	25.292292	0.000868	20.780649
1271.356124	-3.003900	3.569000	-10.721000	25.315904	0.000868	20.781123
1272.351391	-3.008400	3.568400	-10.734000	25.323754	0.000865	20.774780
1273.353080	-3.012600	3.567300	-10.746000	25.307723	0.000864	20.779546
1274.346199	-2.976300	3.569000	-10.621000	25.316346	0.000864	20.786781
1275.350542	-3.007900	3.566500	-10.727000	25.290053	0.000864	20.759434
1276.350020	-3.009600	3.568100	-10.736000	25.258682	0.000862	20.786732
1277.349902	-3.015200	3.566800	-10.753000	25.251255	0.000863	20.804406
1278.354187	-2.994400	3.566300	-10.677000	25.223482	0.000863	20.776996
1279.352239	-2.999500	3.566300	-10.696000	25.205167	0.000864	20.788955
1280.352782	-3.033200	3.564200	-10.810000	25.218360	0.000861	20.785131
1281.353882	-2.997500	3.566700	-10.689000	25.194298	0.000862	20.778043
1282.355117	-3.016200	3.565300	-10.752000	25.215631	0.000861	20.782865
1283.358859	-3.011800	3.566000	-10.739000	25.213239	0.000861	20.786153
1284.354123	-2.988700	3.565800	-10.656000	25.234393	0.000861	20.809288
1285.353743	-3.008500	3.563200	-10.719000	25.267501	0.000859	20.788949
1286.354714	-2.992200	3.564600	-10.665000	25.273788	0.000860	20.801899
1287.359722	-2.989300	3.566200	-10.658000	25.273623	0.000860	20.784663
1288.356087	-2.995400	3.564700	-10.677000	25.283939	0.000859	20.779374
1289.354053	-3.018700	3.563800	-10.757000	25.302031	0.000859	20.776202
1290.353580	-2.998300	3.563500	-10.682000	25.310102	0.000856	20.787151
1291.359294	-3.008200	3.562200	-10.714000	25.282295	0.000856	20.781516
1292.359080	-2.992600	3.563500	-10.661000	25.309587	0.000856	20.779996
1293.360130	-2.989800	3.563800	-10.654000	25.309041	0.000854	20.780870
1294.361391	-3.002700	3.562900	-10.698000	25.321963	0.000858	20.794319
1295.362192	-2.981100	3.561500	-10.616000	25.315352	0.000854	20.789577
1296.358328	-3.007400	3.560500	-10.707000	25.287392	0.000852	20.805600
1297.360442	-2.987600	3.562000	-10.640000	25.299418	0.000852	20.794442
1298.360937	-3.012500	3.560300	-10.725000	25.296966	0.000852	20.798143
1299.358656	-2.962100	3.563100	-10.552000	25.298806	0.000851	20.809474
1300.360654	-2.982100	3.560000	-10.615000	25.273304	0.000853	20.813267
1301.357687	-3.013500	3.558300	-10.722000	25.284270	0.000851	20.801992
1302.358062	-2.998300	3.560100	-10.673000	25.243478	0.000853	20.806081
1303.361098	-3.018700	3.558500	-10.740000	25.242687	0.000848	20.790114
1304.359278	-3.038000	3.556700	-10.803000	25.273531	0.000849	20.820133
1305.360914	-3.003400	3.557900	-10.685000	25.286110	0.000849	20.807159
1306.360343	-3.006400	3.558800	-10.699000	25.307159	0.000846	20.802688
1307.365363	-2.999600	3.557900	-10.671000	25.343472	0.000846	20.818760
1308.362792	-2.992800	3.559000	-10.651000	25.342020	0.000847	20.810663
1309.369479	-3.005800	3.555900	-10.687000	25.329410	0.000848	20.806537
1310.361872	-3.008600	3.555900	-10.697000	25.323964	0.000847	20.820034
1311.364143	-3.031000	3.556000	-10.777000	25.315047	0.000847	20.798754
1312.363451	-2.997500	3.556800	-10.660000	25.319941	0.000847	20.795133
1313.367579	-2.995200	3.557200	-10.653000	25.311968	0.000843	20.818422
1314.364275	-2.984100	3.555700	-10.610000	25.310404	0.000845	20.801679
1315.364484	-3.000700	3.556000	-10.670000	25.302205	0.000843	20.803877
1316.364913	-3.010400	3.555300	-10.701000	25.293606	0.000845	20.799986
1317.365211	-3.004800	3.554600	-10.679000	25.276311	0.000843	20.814863
1318.364741	-2.986000	3.555200	-10.615000	25.262315	0.000843	20.818355
1319.365703	-2.996500	3.554800	-10.651000	25.272330	0.000844	20.817505
1320.368323	-2.981200	3.554200	-10.595000	25.276010	0.000843	20.825941
1321.364748	-2.997100	3.551900	-10.645000	25.263315	0.000842	20.812721
1322.367221	-3.005500	3.552400	-10.675000	25.266792	0.000842	20.816686
1323.367895	-2.991500	3.552200	-10.626000	25.238830	0.000840	20.824174
1324.366143	-2.996100	3.553200	-10.645000	25.253177	0.000840	20.811077
1325.371651	-3.002000	3.552800	-10.665000	25.250644	0.000840	20.823706
1326.372790	-3.005000	3.551100	-10.670000	25.264696	0.000840	20.821693
1327.372785	-3.004100	3.551900	-10.669000	25.257906	0.000837	20.804919
1328.368071	-3.017600	3.552300	-10.718000	25.267823	0.000838	20.839532
1329.373331	-2.991500	3.550400	-10.620000	25.297061	0.000838	20.817205
1330.369310	-2.985000	3.551300	-10.599000	25.316098	0.000837	20.811663
1331.375449	-3.009100	3.550900	-10.684000	25.333521	0.000838	20.831053
1332.376027	-3.011300	3.548900	-10.685000	25.317465	0.000835	20.828208
1333.370517	-2.998200	3.549400	-10.642000	25.366479	0.000836	20.826213
1334.377169	-3.034100	3.549300	-10.768000	25.360242	0.000835	20.827063
1335.376105	-2.994900	3.550200	-10.631000	25.387159	0.000835	20.843184
1336.378222	-2.986100	3.550100	-10.599000	25.369166	0.000834	20.833178
1337.378949	-3.018300	3.548400	-10.709000	25.388753	0.000833	20.820130
1338.377090	-3.002200	3.549900	-10.656000	25.429461	0.000834	20.817858
1339.382108	-2.981000	3.549300	-10.579000	25.427093	0.000833	20.828282
1340.376973	-3.023700	3.548100	-10.727000	25.378365	0.000833	20.819182
1341.377380	-3.014000	3.547800	-10.692000	25.381517	0.000831	20.841786
1342.375930	-3.006300	3.547200	-10.661000	25.381891	0.000832	20.830783
1343.374347	-2.991200	3.546200	-10.606000	25.379033	0.000831	20.809422
1344.379488	-3.016400	3.546100	-10.695000	25.359795	0.000830	20.828036
1345.382112	-2.998300	3.545800	-10.630000	25.351368	0.000831	20.812937
1346.376623	-3.011000	3.544600	-10.671000	25.373311	0.000828	20.834495
1347.383653	-3.002900	3.546300	-10.648000	25.368994	0.000830	20.835376
1348.381744	-3.030700	3.545600	-10.745000	25.376028	0.000831	20.832482
1349.382690	-3.007000	3.544600	-10.657000	25.350301	0.000828	20.849797
1350.384652	-3.004500	3.545800	-10.652000	25.397431	0.000829	20.862507
1351.381937	-2.973000	3.544300	-10.536000	25.404606	0.000828	20.837944
1352.377591	-2.980000	3.544000	-10.559000	25.416288	0.000827	20.841140
1353.378052	-2.964100	3.544500	-10.504000	25.415872	0.000825	20.829342
1354.389575	-2.997200	3.541400	-10.612000	25.428222	0.000827	20.838899
1355.378606	-2.982600	3.543500	-10.567000	25.435238	0.000826	20.854004
1356.382898	-2.998300	3.542800	-10.621000	25.476961	0.000825	20.844219
1357.385908	-3.000700	3.544100	-10.633000	25.440677	0.000825	20.844293
1358.379463	-2.994800	3.542200	-10.607000	25.454874	0.000822	20.846221
1359.381967	-3.002200	3.542100	-10.632000	25.450778	0.000822	20.835470
1360.381555	-2.985000	3.542600	-10.574000	25.438893	0.000823	20.861941
1361.378406	-2.997400	3.541500	-10.615000	25.457032	0.000822	20.853604
1362.385669	-3.021000	3.540200	-10.693000	25.460914	0.000821	20.835692
1363.387944	-3.001300	3.539400	-10.622000	25.471456	0.000821	20.855285
1364.380224	-3.001400	3.540500	-10.625000	25.459455	0.000820	20.846080
1365.384477	-2.997900	3.540500	-10.613000	25.442628	0.000822	20.875174
1366.387394	-3.002400	3.539200	-10.625000	25.406595	0.000819	20.857958
1367.379989	-2.982600	3.538700	-10.553000	25.415125	0.000820	20.853248
1368.385574	-2.996800	3.539600	-10.607000	25.415794	0.000821	20.839695
1369.384777	-2.993100	3.538200	-10.589000	25.388909	0.000817	20.852528
1370.381250	-2.997000	3.538700	-10.603000	25.366740	0.000819	20.840225
1371.384609	-3.021900	3.538400	-10.691000	25.359135	0.000818	20.857719
1372.385013	-2.970700	3.539200	-10.513000	25.337591	0.000819	20.878759
1373.380771	-2.985100	3.537300	-10.559000	25.340725	0.000818	20.854406
1374.383198	-2.991600	3.537700	-10.582000	25.374333	0.000815	20.832202
1375.383135	-2.978900	3.539000	-10.540000	25.398416	0.000815	20.846427
1376.380989	-2.993800	3.535500	-10.583000	25.423663	0.000815	20.839536
1377.386873	-3.002400	3.535800	-10.614000	25.427073	0.000813	20.840589
1378.392615	-2.989400	3.535400	-10.568000	25.434400	0.000815	20.838939
1379.391873	-2.996500	3.534900	-10.592000	25.433781	0.000814	20.843058
1380.384679	-3.016500	3.534700	-10.661000	25.452553	0.000814	20.866174
1381.388694	-2.989700	3.536800	-10.572000	25.441042	0.000813	20.846082
1382.383993	-3.020500	3.534300	-10.675000	25.441938	0.000812	20.824697
1383.388124	-2.977800	3.536100	-10.529000	25.407835	0.000811	20.846876
1384.386508	-2.972100	3.535600	-10.507000	25.370194	0.000812	20.846538
1385.385100	-2.999200	3.532700	-10.595000	25.348766	0.000811	20.842092
1386.392083	-2.993400	3.534000	-10.577000	25.340077	0.000809	20.857074
1387.390099	-3.001100	3.533400	-10.603000	25.358462	0.000808	20.837129
1388.390063	-2.989600	3.534000	-10.564000	25.361106	0.000809	20.861594
1389.392412	-2.989700	3.533200	-10.562000	25.329761	0.000808	20.832019
1390.391208	-2.992000	3.532800	-10.569000	25.385459	0.000808	20.815399
1391.389081	-3.010900	3.532800	-10.636000	25.387232	0.000806	20.820024
1392.396326	-3.017000	3.532000	-10.654000	25.380369	0.000808	20.826410
1393.393515	-3.014500	3.530900	-10.643000	25.377046	0.000807	20.822125
1394.387374	-2.994600	3.531300	-10.575000	25.420856	0.000806	20.821071
1395.392207	-2.992900	3.531100	-10.567000	25.431765	0.000807	20.829181
1396.392232	-3.010600	3.531500	-10.631000	25.452622	0.000805	20.836373
1397.388181	-3.001100	3.530500	-10.594000	25.475520	0.000805	20.816694
1398.391321	-2.997300	3.529400	-10.578000	25.498202	0.000803	20.836626
1399.396486	-3.002100	3.529000	-10.594000	25.511355	0.000805	20.830395
1400.390518	-2.988900	3.529600	-10.549000	25.520130	0.000804	20.824983
1401.390617	-2.990100	3.529800	-10.553000	25.530769	0.000802	20.811011
1402.393602	-2.993800	3.527700	-10.560000	25.532382	0.000800	20.819743
1403.393287	-2.980800	3.529000	-10.518000	25.518493	0.000800	20.806270
1404.395094	-2.994000	3.528500	-10.564000	25.549005	0.000801	20.819367
1405.393247	-2.996600	3.527200	-10.568000	25.538299	0.000801	20.823314
1406.395022	-3.003600	3.526700	-10.592000	25.511730	0.000800	20.806115
1407.394954	-2.993500	3.527600	-10.559000	25.510897	0.000799	20.796744
1408.395237	-2.991100	3.526200	-10.546000	25.472124	0.000797	20.791473
1409.402277	-2.974600	3.526600	-10.489000	25.485767	0.000798	20.828881
1410.394389	-3.004800	3.525200	-10.591000	25.488061	0.000798	20.811745
1411.399971	-3.013800	3.524700	-10.622000	25.502146	0.000798	20.833949
1412.391819	-3.014800	3.525500	-10.628000	25.476282	0.000799	20.820778
1413.398784	-3.019400	3.523500	-10.638000	25.436441	0.000796	20.835772
1414.396390	-3.004500	3.525600	-10.592000	25.454488	0.000795	20.814066
1415.393117	-2.999000	3.523800	-10.567000	25.444989	0.000796	20.796941
1416.394472	-2.987800	3.524900	-10.531000	25.420362	0.000794	20.837644
1417.397118	-3.027400	3.522800	-10.664000	25.427297	0.000792	20.799090
1418.397231	-2.995500	3.523700	-10.554000	25.423195	0.000794	20.812040
1419.402758	-2.986100	3.523300	-10.519000	25.423275	0.000795	20.795051
1420.396314	-3.005500	3.523000	-10.587000	25.395961	0.000791	20.807453
1421.400932	-3.000900	3.522400	-10.570000	25.373417	0.000793	20.797619
1422.399536	-3.001200	3.522400	-10.571000	25.342894	0.000792	20.803955
1423.403405	-3.021800	3.520700	-10.636000	25.310310	0.000790	20.797317
1424.401066	-3.031400	3.519600	-10.668000	25.292788	0.000789	20.792526
1425.401083	-3.008300	3.519200	-10.586000	25.273586	0.000790	20.814498
1426.401753	-3.012500	3.519700	-10.602000	25.232044	0.000789	20.784170
1427.397191	-3.016300	3.519900	-10.616000	25.215409	0.000790	20.807299
1428.397606	-3.023900	3.519000	-10.640000	25.221409	0.000790	20.781079
1429.405210	-2.977300	3.520200	-10.480000	25.202843	0.000787	20.814122
1430.400001	-2.985700	3.519100	-10.506000	25.237148	0.000790	20.786449
1431.401099	-2.981400	3.519600	-10.492000	25.281915	0.000788	20.782558
1432.400880	-2.977400	3.520100	-10.479000	25.296628	0.000788	20.789270
1433.399763	-2.988000	3.519400	-10.515000	25.341368	0.000787	20.794836
1434.403320	-2.989700	3.518700	-10.519000	25.313954	0.000786	20.784380
1435.404399	-2.985700	3.519000	-10.505000	25.290464	0.000786	20.792564
1436.399817	-2.991700	3.517300	-10.522000	25.321835	0.000785	20.790871
1437.401731	-2.982500	3.518100	-10.492000	25.372658	0.000784	20.777890
1438.406378	-2.984600	3.517000	-10.497000	25.359834	0.000783	20.795834
1439.405045	-2.976600	3.517600	-10.470000	25.356952	0.000785	20.787250
1440.407912	-2.988300	3.516100	-10.504000	25.396072	0.000784	20.795711
1441.405910	-2.999100	3.516300	-10.545000	25.405583	0.000784	20.779657
1442.403492	-3.000200	3.516300	-10.549000	25.433180	0.000783	20.784134
1443.406119	-2.992500	3.516500	-10.522000	25.448958	0.000780	20.789547
1444.407295	-2.992700	3.514500	-10.516000	25.477068	0.000783	20.789800
1445.404959	-2.996800	3.514900	-10.533000	25.460689	0.000782	20.799904
1446.407406	-3.002800	3.513300	-10.548000	25.480300	0.000781	20.788778
1447.407207	-2.996800	3.512500	-10.526000	25.467152	0.000780	20.770359
1448.407025	-3.009500	3.512200	-10.567000	25.459052	0.000780	20.809640
1449.411355	-3.012300	3.512000	-10.578000	25.472444	0.000780	20.789424
1450.410251	-3.013900	3.511600	-10.582000	25.483206	0.000776	20.767514
1451.403494	-3.012300	3.512000	-10.578000	25.505716	0.000778	20.789171
1452.410134	-3.008400	3.510700	-10.561000	25.517828	0.000778	20.791851
1453.405932	-3.025500	3.511400	-10.621000	25.530649	0.000776	20.773432
1454.409508	-2.979100	3.513400	-10.464000	25.571750	0.000774	20.774879
1455.407454	-3.015700	3.510900	-10.587000	25.549210	0.000776	20.802978
1456.408385	-2.988700	3.510600	-10.491000	25.548461	0.000774	20.777096
1457.405492	-3.028400	3.508800	-10.625000	25.538399	0.000776	20.784061
1458.412505	-3.005700	3.509600	-10.548000	25.544960	0.000773	20.759355
1459.405451	-2.995900	3.510100	-10.514000	25.525952	0.000771	20.763025
1460.405046	-3.013100	3.509600	-10.574000	25.479502	0.000773	20.787503
1461.411005	-3.008500	3.507900	-10.552000	25.478467	0.000774	20.771764
1462.408847	-2.995400	3.509600	-10.511000	25.463829	0.000772	20.770815
1463.410077	-3.000400	3.507100	-10.522000	25.475211	0.000772	20.761855
1464.409281	-3.008900	3.505200	-10.545000	25.475959	0.000772	20.776358
1465.415236	-3.007400	3.507200	-10.546000	25.465295	0.000770	20.768494
1466.409516	-3.023900	3.505800	-10.600000	25.473021	0.000770	20.759183
1467.409044	-3.008200	3.507000	-10.548000	25.484556	0.000770	20.740893
1468.411859	-3.005800	3.506600	-10.539000	25.494478	0.000769	20.768876
1469.407059	-2.986500	3.507300	-10.474000	25.485997	0.000768	20.755143
1470.412482	-3.004800	3.504300	-10.529000	25.445439	0.000771	20.768943
1471.407825	-3.025600	3.504200	-10.602000	25.434824	0.000770	20.773931
1472.406919	-2.995700	3.504600	-10.498000	25.437240	0.000769	20.770668
1473.415943	-3.002200	3.505000	-10.521000	25.448793	0.000767	20.775157
1474.412745	-2.994900	3.505300	-10.497000	25.481244	0.000768	20.763173
1475.412487	-3.026000	3.503300	-10.599000	25.454257	0.000767	20.761676
1476.410447	-3.008700	3.504400	-10.543000	25.458807	0.000767	20.777152
1477.412894	-3.016300	3.501800	-10.561000	25.454606	0.000767	20.766295
1478.411199	-3.005500	3.503300	-10.528000	25.448566	0.000764	20.751220
1479.412188	-3.006300	3.502000	-10.527000	25.455771	0.000763	20.764620
1480.410110	-2.997500	3.502300	-10.498000	25.459444	0.000764	20.764041
1481.418314	-2.979600	3.503100	-10.437000	25.467950	0.000764	20.764996
1482.409585	-2.988800	3.501800	-10.464000	25.461014	0.000764	20.758031
1483.417312	-2.979400	3.502400	-10.434000	25.427164	0.000762	20.772403
1484.408278	-2.998500	3.501700	-10.498000	25.395673	0.000763	20.771128
1485.417787	-2.974500	3.501200	-10.414000	25.334831	0.000762	20.763141
1486.413197	-2.997200	3.499800	-10.488000	25.315696	0.000761	20.748670
1487.410161	-3.028500	3.499800	-10.599000	25.354217	0.000760	20.746570
1488.413178	-3.011600	3.498700	-10.537000	25.348053	0.000761	20.745597
1489.412752	-3.001400	3.499400	-10.501000	25.359418	0.000758	20.768863
1490.411099	-3.002700	3.499600	-10.506000	25.402806	0.000760	20.749366
1491.412127	-3.039100	3.496300	-10.623000	25.412851	0.000761	20.752341
1492.415254	-3.014000	3.497600	-10.541000	25.446027	0.000758	20.767637
1493.419469	-2.987400	3.498600	-10.451000	25.448559	0.000758	20.746946
1494.419287	-2.981400	3.498200	-10.429000	25.448786	0.000759	20.768512
1495.411497	-2.985800	3.497000	-10.440000	25.487609	0.000756	20.756763
1496.412097	-3.006100	3.496100	-10.508000	25.467079	0.000755	20.742309
1497.419612	-3.000900	3.495800	-10.489000	25.462112	0.000757	20.752495
1498.414222	-2.988200	3.496100	-10.445000	25.454183	0.000755	20.755438
1499.417948	-3.015000	3.494500	-10.535000	25.437755	0.000755	20.760279
1500.420165	-3.004800	3.495700	-10.503000	25.423963	0.000756	20.743584
1501.417963	-3.004300	3.495200	-10.499000	25.451522	0.000755	20.755137
1502.416751	-3.011400	3.493600	-10.519000	25.438080	0.000753	20.771985
1503.424039	-3.021300	3.494100	-10.554000	25.452693	0.000754	20.740665
1504.417357	-3.011400	3.493000	-10.517000	25.488033	0.000752	20.739643
1505.416335	-3.008600	3.492700	-10.507000	25.495661	0.000752	20.750623
1506.426207	-2.996600	3.493200	-10.467000	25.510917	0.000752	20.733700
1507.417150	-3.017000	3.492700	-10.536000	25.554005	0.000751	20.730030
1508.421271	-2.956900	3.492200	-10.323000	25.556844	0.000752	20.756590
1509.422151	-3.005800	3.492900	-10.497000	25.562674	0.000751	20.747747
1510.421251	-2.980100	3.493500	-10.409000	25.579849	0.000750	20.741287
1511.420875	-3.001400	3.491500	-10.478000	25.587875	0.000749	20.750296
1512.428024	-2.976300	3.492200	-10.393000	25.601322	0.000750	20.719703
1513.422658	-3.009200	3.491100	-10.504000	25.585049	0.000751	20.740820
1514.419394	-2.997300	3.491200	-10.463000	25.521335	0.000748	20.745112
1515.425668	-3.008600	3.490000	-10.498000	25.487861	0.000748	20.724771
1516.423086	-3.004000	3.490100	-10.484000	25.468509	0.000747	20.763186
1517.427264	-3.029200	3.488900	-10.568000	25.502327	0.000746	20.741670
1518.424172	-3.008300	3.489400	-10.496000	25.499420	0.000745	20.734483
1519.422466	-2.981300	3.489800	-10.403000	25.540823	0.000745	20.739551
1520.423362	-2.996000	3.489500	-10.453000	25.557096	0.000747	20.730289
1521.428261	-3.010900	3.489100	-10.503000	25.553895	0.000745	20.740352
1522.428060	-2.982300	3.488300	-10.402000	25.568857	0.000743	20.755378
1523.422656	-3.005700	3.486600	-10.479000	25.595792	0.000743	20.741178
1524.426123	-2.984100	3.487900	-10.408000	25.531509	0.000746	20.748691
1525.425155	-2.987400	3.488200	-10.419000	25.482313	0.000742	20.749073
1526.429070	-3.002100	3.486000	-10.464000	25.443503	0.000745	20.707253
1527.429519	-3.003100	3.486900	-10.470000	25.402815	0.000741	20.720450
1528.432418	-3.004300	3.484800	-10.468000	25.387777	0.000743	20.730482
1529.435797	-3.005000	3.485000	-10.470000	25.378886	0.000742	20.731511
1530.432537	-3.011500	3.484100	-10.491000	25.408684	0.000743	20.736776
1531.435024	-2.979300	3.484600	-10.381000	25.426228	0.000742	20.729263
1532.426987	-3.001000	3.484400	-10.455000	25.432447	0.000741	20.728869
1533.433258	-2.994100	3.484000	-10.430000	25.442811	0.000740	20.734060
1534.428058	-3.001100	3.483500	-10.453000	25.479917	0.000741	20.718216
1535.429981	-3.011600	3.483700	-10.490000	25.494547	0.000739	20.722951
1536.431847	-2.988300	3.483300	-10.408000	25.450568	0.000740	20.735687
1537.432225	-2.977300	3.482200	-10.367000	25.444853	0.000740	20.712402
1538.430121	-3.008600	3.481200	-10.473000	25.419306	0.000739	20.717569
1539.431057	-2.992300	3.483000	-10.421000	25.429908	0.000737	20.733432
1540.430233	-2.982100	3.481400	-10.381000	25.460533	0.000739	20.722459
1541.431095	-2.995500	3.481700	-10.429000	25.493414	0.000736	20.703793
1542.432353	-3.005500	3.480500	-10.460000	25.502973	0.000735	20.711971
1543.433912	-2.971900	3.480700	-10.343000	25.540273	0.000735	20.733309
1544.430753	-2.992800	3.479800	-10.414000	25.547453	0.000735	20.736727
1545.431905	-3.011300	3.479000	-10.476000	25.553394	0.000734	20.738426
1546.432991	-2.989800	3.480200	-10.404000	25.527469	0.000734	20.713337
1547.433393	-3.004500	3.478700	-10.451000	25.521681	0.000733	20.734078
1548.435483	-2.998000	3.478900	-10.429000	25.519670	0.000735	20.717833
1549.436815	-2.992600	3.479200	-10.410000	25.517578	0.000734	20.702930
1550.431065	-2.983500	3.477500	-10.372000	25.503536	0.000733	20.722494
1551.442061	-2.987900	3.477200	-10.389000	25.489242	0.000730	20.701500
1552.437471	-2.998900	3.476200	-10.424000	25.483747	0.000730	20.726330
1553.431860	-2.991500	3.476100	-10.398000	25.462769	0.000732	20.709530
1554.440906	-2.991600	3.477000	-10.401000	25.476095	0.000730	20.712006
1555.434433	-2.986700	3.476400	-10.382000	25.437450	0.000730	20.701174
1556.431904	-3.009700	3.475900	-10.461000	25.444771	0.000729	20.719432
1557.434039	-3.008200	3.473900	-10.448000	25.469030	0.000728	20.733363
1558.433918	-2.990700	3.475500	-10.393000	25.496710	0.000729	20.707578
1559.432469	-2.983700	3.474400	-10.366000	25.518006	0.000728	20.714740
1560.440025	-3.002200	3.473900	-10.429000	25.518747	0.000727	20.721175
1561.436650	-2.996700	3.472600	-10.406000	25.528540	0.000726	20.705403
1562.433833	-3.003800	3.472600	-10.430000	25.552263	0.000727	20.694613
1563.441027	-2.986900	3.471900	-10.370000	25.578734	0.000726	20.711241
1564.437954	-3.012500	3.473300	-10.463000	25.586459	0.000725	20.692920
1565.432240	-2.985800	3.471500	-10.365000	25.620574	0.000725	20.689724
1566.438575	-2.982300	3.472800	-10.356000	25.601021	0.000725	20.711340
1567.438929	-2.995800	3.472400	-10.402000	25.592842	0.000722	20.712134
1568.433379	-2.979800	3.472800	-10.347000	25.540085	0.000723	20.713679
1569.442297	-3.012500	3.470200	-10.453000	25.523186	0.000724	20.705242
1570.441080	-2.989300	3.471600	-10.376000	25.504269	0.000722	20.716592
1571.438036	-3.018900	3.471800	-10.480000	25.526159	0.000725	20.707754
1572.443618	-3.015200	3.469500	-10.460000	25.510462	0.000721	20.704319
1573.438556	-2.989800	3.468700	-10.369000	25.545989	0.000720	20.712970
1574.439537	-3.018400	3.467300	-10.464000	25.529881	0.000720	20.714337
1575.438167	-3.019200	3.467200	-10.467000	25.509113	0.000720	20.689212
1576.444539	-2.991500	3.468800	-10.376000	25.523235	0.000719	20.692963
1577.439333	-2.984200	3.469600	-10.353000	25.537264	0.000719	20.695197
1578.452341	-2.982100	3.468800	-10.344000	25.575538	0.000720	20.717041
1579.442218	-2.984900	3.468300	-10.351000	25.576224	0.000718	20.707298
1580.440421	-2.989800	3.467100	-10.365000	25.593576	0.000717	20.699595
1581.444808	-3.018500	3.465100	-10.459000	25.593699	0.000717	20.685966
1582.442149	-2.992500	3.465900	-10.370000	25.601032	0.000717	20.699022
1583.440507	-3.010100	3.464800	-10.429000	25.623939	0.000717	20.703062
1584.443971	-2.977600	3.465400	-10.318000	25.580437	0.000717	20.707736
1585.445759	-3.007900	3.465000	-10.420000	25.577573	0.000715	20.689212
1586.445015	-3.016200	3.464200	-10.447000	25.582791	0.000716	20.702514
1587.449726	-3.007400	3.464200	-10.418000	25.566665	0.000717	20.693904
1588.446268	-3.000200	3.464000	-10.392000	25.548098	0.000716	20.679050
1589.443371	-2.995900	3.464000	-10.377000	25.494525	0.000715	20.716290
1590.450699	-2.999500	3.463000	-10.386000	25.462809	0.000714	20.698664
1591.446016	-3.013900	3.462700	-10.435000	25.446356	0.000716	20.685935
1592.446715	-2.987000	3.463700	-10.345000	25.441764	0.000712	20.681322
1593.447748	-3.000800	3.461900	-10.387000	25.431743	0.000713	20.696392
1594.447825	-3.023700	3.460500	-10.463000	25.410145	0.000713	20.687505
1595.444726	-3.038100	3.459500	-10.508000	25.419466	0.000714	20.694495
1596.447855	-3.038600	3.458800	-10.509000	25.440015	0.000712	20.701380
1597.446553	-3.001100	3.461000	-10.385000	25.477611	0.000710	20.677491
1598.446633	-2.983900	3.461800	-10.329000	25.510981	0.000710	20.697727
1599.453627	-2.971100	3.461100	-10.282000	25.529573	0.000712	20.711657
1600.448691	-2.999800	3.459900	-10.378000	25.541377	0.000710	20.706915
1601.448517	-2.996400	3.459000	-10.364000	25.574297	0.000711	20.675015
1602.452584	-2.987800	3.459600	-10.335000	25.587143	0.000709	20.707833
1603.454596	-3.002300	3.458500	-10.382000	25.581355	0.000708	20.701545
1604.448187	-2.997200	3.459500	-10.366000	25.587045	0.000708	20.703941
1605.454169	-3.009900	3.456900	-10.404000	25.614924	0.000708	20.694956
1606.452574	-2.975800	3.460400	-10.295000	25.594071	0.000707	20.681598
1607.448899	-3.005700	3.457000	-10.388000	25.595340	0.000706	20.669121
1608.452572	-3.015300	3.456400	-10.421000	25.622600	0.000706	20.697450
1609.452262	-3.015600	3.456300	-10.422000	25.601177	0.000705	20.684467
1610.456118	-2.999300	3.456200	-10.365000	25.601545	0.000705	20.691949
1611.457185	-3.014800	3.455400	-10.416000	25.606241	0.000705	20.674854
1612.452702	-2.987000	3.456100	-10.323000	25.605402	0.000706	20.696298
1613.461711	-3.005500	3.455500	-10.384000	25.605475	0.000704	20.672662
1614.454203	-3.007100	3.455700	-10.390000	25.544479	0.000704	20.686796
1615.462402	-2.991600	3.453500	-10.331000	25.528518	0.000704	20.697794
1616.464911	-3.010000	3.454200	-10.396000	25.531529	0.000702	20.697499
1617.452085	-3.010300	3.453800	-10.396000	25.548550	0.000701	20.700369
1618.451364	-2.979500	3.453500	-10.290000	25.547061	0.000701	20.681801
1619.454269	-2.984200	3.453300	-10.304000	25.554842	0.000701	20.679184
1620.456264	-3.015600	3.451200	-10.407000	25.557430	0.000700	20.678464
1621.456365	-2.991100	3.452100	-10.324000	25.573052	0.000700	20.707906
1622.464351	-3.015600	3.449900	-10.401000	25.568215	0.000700	20.680287
1623.455565	-3.001000	3.450900	-10.355000	25.583998	0.000698	20.655357
1624.454879	-2.996700	3.451700	-10.343000	25.566075	0.000698	20.669602
1625.456508	-3.001500	3.450800	-10.356000	25.530727	0.000700	20.685787
1626.458412	-3.016200	3.449100	-10.403000	25.546553	0.000700	20.672281
1627.455144	-3.008700	3.450100	-10.379000	25.565089	0.000697	20.686630
1628.456992	-2.985500	3.450100	-10.299000	25.584729	0.000698	20.679327
1629.464442	-2.982200	3.450100	-10.288000	25.600456	0.000697	20.670939
1630.460195	-3.009200	3.447700	-10.373000	25.618476	0.000698	20.675762
1631.458636	-3.005700	3.448900	-10.365000	25.637066	0.000696	20.672621
1632.477058	-2.989300	3.449100	-10.309000	25.607568	0.000696	20.671445
1633.456513	-3.005000	3.447900	-10.360000	25.569505	0.000695	20.696282
1634.456063	-3.001800	3.446600	-10.345000	25.550080	0.000694	20.689576
1635.463167	-3.011200	3.447600	-10.381000	25.527110	0.000697	20.692587
1636.462162	-3.002200	3.445100	-10.342000	25.545905	0.000694	20.685856
1637.467223	-2.985600	3.446700	-10.290000	25.555323	0.000695	20.696264
1638.462103	-3.028100	3.445300	-10.431000	25.555323	0.000694	20.682512
1639.459036	-3.000600	3.446400	-10.340000	25.541312	0.000692	20.701160
1640.460935	-3.008300	3.445600	-10.364000	25.539725	0.000692	20.703359
1641.459826	-3.005100	3.444400	-10.350000	25.524389	0.000695	20.697441
1642.470098	-2.992400	3.444500	-10.306000	25.533139	0.000692	20.696745
1643.461340	-2.973100	3.445300	-10.243000	25.522531	0.000691	20.680875
1644.469787	-2.988300	3.443100	-10.288000	25.516841	0.000689	20.693180
1645.461079	-2.995700	3.443300	-10.313000	25.529393	0.000692	20.681128
1646.464949	-3.009200	3.444100	-10.363000	25.529645	0.000691	20.690865
1647.469398	-2.983600	3.444800	-10.277000	25.551492	0.000689	20.679139
1648.469785	-3.008700	3.442100	-10.355000	25.537475	0.000689	20.690668
1649.463326	-2.994400	3.442300	-10.306000	25.574970	0.000689	20.678061
1650.461890	-3.005700	3.441800	-10.344000	25.565086	0.000686	20.690896
1651.462269	-3.015500	3.441400	-10.377000	25.508926	0.000686	20.682859
1652.464156	-2.995400	3.442500	-10.311000	25.508901	0.000687	20.700380
1653.463216	-2.996300	3.441500	-10.311000	25.461838	0.000688	20.695318
1654.463330	-2.998800	3.440300	-10.316000	25.455050	0.000687	20.686129
1655.463885	-3.014400	3.439700	-10.368000	25.458981	0.000685	20.681542
1656.468354	-3.001800	3.441000	-10.328000	25.460201	0.000687	20.696993
1657.466738	-2.998900	3.438400	-10.311000	25.444791	0.000687	20.689578
1658.467978	-2.984500	3.438800	-10.262000	25.414896	0.000685	20.690379
1659.469499	-2.994700	3.438700	-10.296000	25.448985	0.000684	20.687152
1660.465934	-2.977500	3.440500	-10.243000	25.468197	0.000684	20.682736
1661.465187	-2.993600	3.438100	-10.291000	25.514549	0.000685	20.692775
1662.465882	-3.015400	3.436600	-10.362000	25.529511	0.000682	20.682195
1663.464675	-3.015500	3.435800	-10.359000	25.552916	0.000683	20.695743
1664.464651	-2.990000	3.437800	-10.278000	25.578760	0.000683	20.693249
1665.468071	-3.013100	3.435600	-10.350000	25.584947	0.000681	20.697092
1666.474263	-2.982200	3.436800	-10.248000	25.588675	0.000681	20.688033
1667.476812	-2.990300	3.435600	-10.272000	25.614145	0.000681	20.719305
1668.475217	-2.998800	3.435300	-10.300000	25.601275	0.000682	20.704482
1669.478652	-3.003000	3.435500	-10.316000	25.609228	0.000682	20.718634
1670.472458	-3.022500	3.434900	-10.380000	25.624409	0.000679	20.699266
1671.484519	-3.005100	3.433200	-10.316000	25.621275	0.000680	20.700861
1672.465888	-3.010000	3.433400	-10.334000	25.625384	0.000681	20.690762
1673.472425	-3.013100	3.433700	-10.345000	25.636064	0.000680	20.691057
1674.476612	-2.990900	3.433300	-10.267000	25.648916	0.000680	20.707759
1675.482154	-3.001700	3.433100	-10.304000	25.676370	0.000678	20.707359
1676.481380	-3.001000	3.433200	-10.302000	25.692844	0.000680	20.710154
1677.479415	-2.999400	3.432500	-10.295000	25.656340	0.000678	20.702413
1678.474615	-3.005900	3.432000	-10.315000	25.620614	0.000679	20.688342
1679.472146	-2.978900	3.433000	-10.224000	25.585132	0.000677	20.689690
1680.483819	-3.012800	3.431000	-10.336000	25.602999	0.000678	20.692936
1681.477134	-2.996900	3.430400	-10.280000	25.614305	0.000678	20.694334
1682.475825	-3.024100	3.429700	-10.370000	25.554492	0.000677	20.700172
1683.492904	-3.013400	3.430300	-10.337000	25.552530	0.000677	20.708159
1684.475868	-3.004300	3.430600	-10.305000	25.500815	0.000676	20.704587
1685.480261	-3.008200	3.430500	-10.318000	25.493578	0.000676	20.703959
1686.480806	-3.000000	3.429100	-10.286000	25.489035	0.000676	20.688015
1687.480244	-2.988400	3.429300	-10.247000	25.442909	0.000675	20.713769
1688.476581	-2.995100	3.428500	-10.268000	25.425162	0.000677	20.695947
1689.490788	-2.990000	3.427600	-10.247000	25.411216	0.000674	20.699962
1690.485137	-3.002900	3.428300	-10.294000	25.445508	0.000672	20.724440
1691.481462	-3.016100	3.427100	-10.335000	25.492823	0.000673	20.704149
1692.478006	-3.005300	3.427300	-10.299000	25.502984	0.000673	20.700127
1693.480091	-3.005700	3.425900	-10.295000	25.515302	0.000672	20.712498
1694.482090	-2.954700	3.429100	-10.131000	25.508514	0.000672	20.706155
1695.482284	-2.995100	3.426300	-10.261000	25.519073	0.000672	20.723872
1696.489902	-3.001000	3.427000	-10.284000	25.559614	0.000673	20.720016
1697.487497	-3.002100	3.424900	-10.281000	25.606649	0.000671	20.710828
1698.495996	-3.020200	3.425000	-10.343000	25.627967	0.000672	20.702366
1699.484496	-2.996600	3.425600	-10.264000	25.633545	0.000672	20.712711
1700.484571	-3.004500	3.424000	-10.287000	25.605678	0.000672	20.701791
1701.485486	-2.958600	3.425500	-10.134000	25.586143	0.000669	20.702561
1702.485094	-2.967600	3.423700	-10.158000	25.595897	0.000670	20.725635
1703.486116	-2.995200	3.423200	-10.252000	25.583364	0.000668	20.717788
1704.502438	-2.994600	3.423500	-10.251000	25.589512	0.000669	20.723964
1705.487883	-2.993500	3.423900	-10.248000	25.606373	0.000669	20.712921
1706.491580	-3.009300	3.422300	-10.297000	25.591650	0.000667	20.726586
1707.496954	-3.005100	3.423200	-10.286000	25.591889	0.000669	20.743895
1708.498071	-3.004400	3.422300	-10.281000	25.553860	0.000669	20.721350
1709.490033	-3.008000	3.420000	-10.287000	25.572481	0.000666	20.732938
1710.489475	-3.010200	3.420300	-10.295000	25.577164	0.000668	20.730055
1711.489310	-2.997800	3.421000	-10.254000	25.613713	0.000668	20.747323
1712.490695	-3.003500	3.419500	-10.270000	25.659893	0.000667	20.718311
1713.486655	-2.998500	3.421400	-10.258000	25.671639	0.000665	20.730583
1714.487786	-3.008300	3.418700	-10.283000	25.685537	0.000665	20.712299
1715.492661	-3.011200	3.417800	-10.291000	25.664808	0.000664	20.749801
1716.492764	-3.019700	3.418000	-10.320000	25.631209	0.000663	20.738815
1717.489711	-2.992300	3.418700	-10.229000	25.620558	0.000662	20.743291
1718.493408	-2.996300	3.418000	-10.240000	25.626860	0.000662	20.742982
1719.503339	-3.004000	3.418500	-10.268000	25.602734	0.000662	20.754788
1720.489629	-2.999400	3.417300	-10.248000	25.587221	0.000661	20.744897
1721.492307	-3.016700	3.416500	-10.306000	25.549413	0.000658	20.733479
1722.491040	-3.017900	3.416600	-10.310000	25.584970	0.000659	20.736946
1723.490831	-2.988300	3.416900	-10.210000	25.553030	0.000660	20.749440
1724.492562	-2.991300	3.417300	-10.221000	25.563361	0.000655	20.739427
1725.492359	-3.016800	3.415800	-10.304000	25.589119	0.000659	20.743485
1726.488223	-3.000600	3.416000	-10.249000	25.598709	0.000656	20.763547
1727.496078	-3.008300	3.415900	-10.273000	25.604220	0.000657	20.747746
1728.493498	-2.964900	3.416600	-10.128000	25.567615	0.000656	20.740855
1729.499830	-3.026800	3.412700	-10.329000	25.541512	0.000655	20.761582
1730.495975	-2.972700	3.416000	-10.154000	25.540267	0.000655	20.759383
1731.493221	-2.983100	3.416100	-10.189000	25.545786	0.000654	20.752597
1732.491390	-3.006100	3.414400	-10.263000	25.553652	0.000655	20.739160
1733.488092	-3.017800	3.413600	-10.301000	25.540304	0.000653	20.756100
1734.497446	-3.013500	3.412200	-10.282000	25.526458	0.000652	20.736031
1735.493393	-2.984500	3.413400	-10.187000	25.561991	0.000653	20.775510
1736.492319	-3.000400	3.411000	-10.234000	25.582691	0.000655	20.752676
1737.488600	-3.002400	3.412100	-10.244000	25.587706	0.000651	20.759136
1738.500272	-3.001900	3.412000	-10.242000	25.600870	0.000651	20.761451
1739.496344	-2.988200	3.412200	-10.196000	25.558925	0.000650	20.775276
1740.489278	-2.990800	3.410100	-10.197000	25.534300	0.000649	20.756709
1741.503204	-3.019000	3.410600	-10.295000	25.555123	0.000645	20.768613
1742.502067	-2.999200	3.409300	-10.225000	25.548930	0.000650	20.737736
1743.500055	-3.000000	3.408900	-10.226000	25.602476	0.000649	20.754529
1744.504774	-3.029500	3.409500	-10.328000	25.608142	0.000651	20.768754
1745.491595	-2.994100	3.409600	-10.207000	25.646879	0.000650	20.743647
1746.492282	-3.006700	3.409100	-10.248000	25.671550	0.000649	20.762737
1747.494119	-3.004400	3.409800	-10.244000	25.678324	0.000647	20.768593
1748.510391	-3.009600	3.408000	-10.255000	25.710456	0.000647	20.749658
1749.492366	-2.992800	3.408000	-10.198000	25.719597	0.000646	20.761210
1750.495929	-2.998300	3.408600	-10.219000	25.718230	0.000647	20.769794
1751.504566	-3.008700	3.407800	-10.251000	25.726108	0.000645	20.755421
1752.495631	-3.009400	3.407100	-10.252000	25.745064	0.000646	20.773514
1753.497489	-2.992100	3.406400	-10.191000	25.748938	0.000646	20.776931
1754.502349	-3.020600	3.405100	-10.284000	25.744267	0.000645	20.776032
1755.499862	-3.022800	3.405300	-10.292000	25.751997	0.000644	20.759141
1756.496686	-2.996200	3.405500	-10.203000	25.729804	0.000643	20.787110
1757.494596	-2.984800	3.405400	-10.163000	25.722129	0.000642	20.783668
1758.496088	-2.974300	3.406400	-10.130000	25.707715	0.000641	20.791002
1759.494693	-3.002600	3.404700	-10.222000	25.681034	0.000641	20.780798
1760.505387	-2.997900	3.404400	-10.205000	25.669526	0.000641	20.791999
1761.503370	-2.992900	3.403500	-10.185000	25.646841	0.000641	20.759732
1762.499284	-3.004400	3.403800	-10.225000	25.679544	0.000640	20.777405
1763.503934	-3.032600	3.401800	-10.314000	25.682898	0.000638	20.781248
1764.499120	-2.998100	3.402900	-10.201000	25.705925	0.000640	20.775453
1765.505916	-3.000400	3.402400	-10.208000	25.742942	0.000640	20.775176
1766.504795	-2.996700	3.402700	-10.196000	25.742476	0.000641	20.770441
1767.507020	-3.002700	3.402400	-10.215000	25.746148	0.000640	20.784561
1768.503397	-3.009900	3.401400	-10.237000	25.757557	0.000638	20.784641
1769.504363	-2.988200	3.401500	-10.163000	25.777653	0.000638	20.779222
1770.517620	-2.980000	3.401800	-10.137000	25.781300	0.000636	20.801378
1771.511865	-3.016100	3.401400	-10.258000	25.790674	0.000638	20.761481
1772.509618	-2.998700	3.400700	-10.196000	25.805993	0.000634	20.793939
1773.506915	-3.034600	3.399400	-10.315000	25.824475	0.000636	20.802547
1774.507583	-2.984600	3.401100	-10.150000	25.831157	0.000633	20.781284
1775.508301	-3.001000	3.401000	-10.205000	25.865963	0.000633	20.785903
1776.506289	-2.989200	3.400400	-10.163000	25.859502	0.000634	20.779886
1777.511347	-3.011000	3.399500	-10.234000	25.841682	0.000633	20.776684
1778.509693	-3.017300	3.398700	-10.254000	25.811626	0.000631	20.788218
1779.517396	-2.985100	3.399200	-10.145000	25.786480	0.000634	20.795675
1780.514508	-3.003400	3.397700	-10.203000	25.729957	0.000631	20.813341
1781.514505	-2.998500	3.397600	-10.187000	25.701461	0.000631	20.785194
1782.519603	-3.005300	3.397400	-10.209000	25.698426	0.000633	20.798267
1783.517229	-3.002700	3.396400	-10.197000	25.674455	0.000632	20.793630
1784.517546	-2.988700	3.396000	-10.149000	25.668520	0.000631	20.797153
1785.520424	-3.009500	3.394800	-10.216000	25.732544	0.000632	20.795552
1786.517964	-3.003600	3.395200	-10.197000	25.726873	0.000631	20.797916
1787.520039	-3.011400	3.394400	-10.221000	25.741034	0.000628	20.805977
1788.520862	-3.019500	3.394400	-10.249000	25.740587	0.000629	20.777078
1789.517712	-2.992900	3.396100	-10.163000	25.770522	0.000629	20.791973
1790.525146	-3.010900	3.394100	-10.218000	25.786725	0.000630	20.801137
1791.517313	-3.008800	3.393100	-10.208000	25.783322	0.000626	20.805305
1792.519742	-2.985000	3.394600	-10.132000	25.818553	0.000628	20.792331
1793.518127	-3.010900	3.392500	-10.213000	25.839640	0.000629	20.795970
1794.521034	-3.011300	3.392800	-10.216000	25.874066	0.000627	20.807319
1795.518036	-2.996400	3.394000	-10.169000	25.890812	0.000624	20.799012
1796.520194	-2.986300	3.393200	-10.132000	25.868377	0.000623	20.799234
1797.528596	-2.995400	3.392800	-10.162000	25.896452	0.000626	20.805625
1798.521627	-3.011200	3.391500	-10.211000	25.889323	0.000624	20.804154
1799.520718	-3.006900	3.391500	-10.197000	25.882813	0.000623	20.806149
1800.527378	-3.006100	3.391900	-10.194000	25.863437	0.000624	20.787158
1801.523174	-3.007400	3.391000	-10.196000	25.842074	0.000624	20.805053
1802.522683	-3.015200	3.390800	-10.223000	25.777229	0.000621	20.808667
1803.526423	-3.024300	3.389800	-10.250000	25.778547	0.000624	20.801931
1804.523804	-2.995200	3.391000	-10.156000	25.807586	0.000621	20.809289
1805.526180	-3.010000	3.389900	-10.203000	25.833829	0.000620	20.799142
1806.521461	-2.989200	3.390700	-10.134000	25.862205	0.000622	20.813422
1807.526633	-3.013000	3.390000	-10.212000	25.888109	0.000620	20.791555
1808.522998	-2.986700	3.388800	-10.120000	25.928368	0.000622	20.815878
1809.523580	-2.995900	3.389300	-10.153000	25.920376	0.000621	20.806426
1810.526913	-3.012500	3.387700	-10.203000	25.941143	0.000619	20.816383
1811.526004	-3.019700	3.387800	-10.229000	25.914167	0.000619	20.808249
1812.526803	-3.033400	3.387200	-10.273000	25.879313	0.000618	20.828711
1813.523793	-3.000200	3.386700	-10.160000	25.841357	0.000618	20.820928
1814.527894	-2.994900	3.387500	-10.144000	25.816187	0.000617	20.809868
1815.529141	-3.001900	3.386700	-10.166000	25.807592	0.000617	20.806451
1816.525838	-3.013200	3.386500	-10.203000	25.815292	0.000616	20.813711
1817.533027	-2.977800	3.387200	-10.086000	25.831089	0.000617	20.834794
1818.534537	-3.001300	3.385200	-10.159000	25.829722	0.000616	20.833421
1819.528444	-3.002000	3.385800	-10.163000	25.829403	0.000616	20.825989
1820.533228	-3.020900	3.384100	-10.222000	25.852801	0.000614	20.811561
1821.530358	-2.987400	3.385500	-10.113000	25.849050	0.000614	20.832922
1822.533207	-3.005500	3.385500	-10.173000	25.890494	0.000613	20.815761
1823.537774	-3.000500	3.383000	-10.150000	25.888403	0.000613	20.826463
1824.535817	-3.019600	3.383200	-10.215000	25.908429	0.000613	20.842313
1825.534454	-3.011800	3.382100	-10.185000	25.887588	0.000613	20.828015
1826.533957	-3.005000	3.383400	-10.166000	25.885694	0.000612	20.828483
1827.538048	-2.985700	3.383500	-10.101000	25.874121	0.000612	20.822073
1828.537660	-2.980100	3.383200	-10.082000	25.873104	0.000610	20.829585
1829.537677	-3.000300	3.382600	-10.148000	25.862597	0.000609	20.826617
1830.541127	-3.012400	3.381900	-10.187000	25.812417	0.000611	20.835004
1831.540140	-2.992000	3.381200	-10.115000	25.774035	0.000609	20.832960
1832.541738	-3.011000	3.381600	-10.181000	25.779969	0.000607	20.839395
1833.542809	-2.994300	3.382000	-10.124000	25.751107	0.000609	20.838853
1834.538535	-3.005600	3.380500	-10.160000	25.757024	0.000607	20.823459
1835.537528	-3.003000	3.379100	-10.147000	25.762363	0.000607	20.831667
1836.538071	-3.009900	3.379900	-10.171000	25.788828	0.000607	20.813681
1837.539975	-3.030600	3.378500	-10.238000	25.816077	0.000606	20.839155
1838.538222	-3.005700	3.378900	-10.154000	25.811461	0.000606	20.844001
1839.545475	-3.010200	3.379600	-10.173000	25.785555	0.000608	20.834574
1840.539214	-3.016700	3.377300	-10.187000	25.748938	0.000605	20.839045
1841.539021	-3.011400	3.377600	-10.171000	25.771173	0.000603	20.843361
1842.540275	-3.010100	3.377900	-10.167000	25.735972	0.000606	20.821754
1843.540047	-3.006900	3.376800	-10.153000	25.727193	0.000604	20.823841
1844.540093	-2.969700	3.379400	-10.035000	25.685877	0.000604	20.848724
1845.543594	-2.985100	3.378300	-10.084000	25.693088	0.000603	20.828466
1846.539464	-2.983500	3.376500	-10.072000	25.693811	0.000604	20.854796
1847.543395	-2.997300	3.376400	-10.119000	25.733636	0.000603	20.840744
1848.542032	-2.986300	3.376900	-10.084000	25.765595	0.000601	20.846293
1849.541287	-2.998100	3.375300	-10.118000	25.802984	0.000602	20.845443
1850.547941	-2.994000	3.375700	-10.105000	25.828400	0.000600	20.842998
1851.542964	-2.991900	3.375400	-10.098000	25.863978	0.000600	20.835591
1852.542670	-3.015600	3.373800	-10.173000	25.892923	0.000600	20.848547
1853.541357	-2.962400	3.375800	-9.999700	25.881442	0.000599	20.832746
1854.546354	-2.985300	3.374200	-10.071000	25.863887	0.000600	20.836447
1855.542770	-3.011500	3.374200	-10.160000	25.856243	0.000598	20.862907
1856.541821	-3.018100	3.373400	-10.180000	25.854300	0.000597	20.830136
1857.548401	-3.003900	3.372600	-10.130000	25.877109	0.000599	20.840247
1858.543921	-3.012300	3.374000	-10.162000	25.917382	0.000598	20.847039
1859.546613	-3.005400	3.373300	-10.137000	25.934569	0.000597	20.842495
1860.546040	-2.988800	3.373300	-10.079000	25.947839	0.000598	20.837335
1861.545235	-2.980100	3.372100	-10.048000	25.977793	0.000597	20.831393
1862.545065	-3.007200	3.371000	-10.136000	25.935397	0.000594	20.845697
1863.546883	-2.998900	3.371600	-10.110000	25.936365	0.000595	20.857575
1864.549128	-3.018100	3.371200	-10.173000	25.910805	0.000596	20.843751
1865.547868	-3.018300	3.371500	-10.176000	25.915850	0.000596	20.854035
1866.548395	-3.005500	3.369500	-10.125000	25.936071	0.000597	20.840685
1867.553052	-2.984900	3.373100	-10.067000	25.923052	0.000594	20.830451
1868.549361	-3.001900	3.369500	-10.113000	25.922016	0.000594	20.827988
1869.549035	-3.002100	3.368700	-10.112000	25.924572	0.000594	20.828185
1870.549365	-2.993000	3.370400	-10.086000	25.867934	0.000592	20.836720
1871.549777	-3.009800	3.369300	-10.140000	25.858144	0.000592	20.833524
1872.549925	-2.993800	3.370200	-10.089000	25.859812	0.000592	20.819078
1873.550587	-2.991200	3.368100	-10.074000	25.861951	0.000591	20.816012
1874.551963	-3.005800	3.368500	-10.124000	25.864262	0.000593	20.818807
1875.551467	-2.998200	3.366900	-10.094000	25.847571	0.000590	20.834756
1876.551373	-3.019100	3.366600	-10.163000	25.904511	0.000590	20.812773
1877.550967	-3.015800	3.366800	-10.152000	25.894844	0.000591	20.829140
1878.551425	-3.021200	3.366100	-10.168000	25.936329	0.000587	20.818660
1879.551475	-3.000800	3.365400	-10.098000	25.945370	0.000586	20.821104
1880.552014	-2.998100	3.364300	-10.086000	25.965070	0.000588	20.811024
1881.552977	-2.979600	3.366700	-10.031000	25.999595	0.000587	20.841917
1882.557066	-2.994300	3.365700	-10.077000	26.007643	0.000587	20.811597
1883.552330	-2.983400	3.364900	-10.038000	26.034200	0.000586	20.829269
1884.553506	-3.005700	3.364300	-10.111000	26.037902	0.000584	20.832515
1885.554755	-2.983500	3.364700	-10.038000	26.077788	0.000585	20.818062
1886.552700	-2.993100	3.364600	-10.069000	26.070244	0.000584	20.800525
1887.557003	-3.016000	3.362500	-10.140000	26.096223	0.000585	20.824257
1888.555985	-3.001700	3.363400	-10.094000	26.049326	0.000584	20.813647
1889.555469	-2.997700	3.363800	-10.081000	26.015158	0.000583	20.809190
1890.553337	-2.990500	3.363300	-10.056000	25.961723	0.000585	20.793912
1891.553611	-3.023000	3.362800	-10.165000	25.945732	0.000581	20.802028
1892.554266	-2.983800	3.363100	-10.034000	25.951616	0.000583	20.810784
1893.553716	-2.999100	3.362800	-10.084000	25.942037	0.000582	20.815859
1894.554946	-2.992100	3.363800	-10.064000	25.957213	0.000580	20.807872
1895.554010	-3.010700	3.361300	-10.118000	25.966456	0.000578	20.784442
1896.554460	-2.998100	3.362400	-10.080000	25.965009	0.000581	20.818550
1897.556057	-3.005500	3.362200	-10.104000	25.995545	0.000580	20.792804
1898.556568	-3.033100	3.359300	-10.189000	26.007687	0.000579	20.781769
1899.556215	-2.998700	3.361800	-10.080000	26.017856	0.000578	20.808107
1900.563005	-3.006000	3.360700	-10.102000	26.026123	0.000581	20.818310
1901.559288	-2.992300	3.360300	-10.054000	26.020191	0.000577	20.816617
1902.562786	-3.003900	3.359200	-10.090000	25.997691	0.000577	20.799702
1903.557897	-3.007300	3.358200	-10.098000	25.984550	0.000576	20.803095
1904.559696	-2.997200	3.358500	-10.065000	26.004225	0.000577	20.801050
1905.557564	-3.010000	3.359200	-10.111000	25.992769	0.000578	20.789067
1906.559868	-3.024300	3.357200	-10.152000	26.017488	0.000575	20.788771
1907.557870	-3.017100	3.358400	-10.131000	26.039319	0.000577	20.805490
1908.562759	-3.006700	3.357900	-10.095000	26.015478	0.000578	20.800502
1909.559300	-2.982000	3.357800	-10.011000	26.026479	0.000575	20.787374
1910.564572	-2.979700	3.358600	-10.006000	26.027129	0.000576	20.797984
1911.560709	-2.972200	3.358000	-9.980100	26.013492	0.000572	20.797559
1912.567007	-2.983800	3.357200	-10.017000	26.010231	0.000573	20.792860
1913.561214	-2.983600	3.356700	-10.014000	26.011916	0.000570	20.793605
1914.565624	-2.991100	3.357200	-10.041000	25.971906	0.000572	20.793710
1915.562259	-2.991300	3.354500	-10.034000	25.954321	0.000571	20.796432
1916.562338	-2.981900	3.355000	-10.003000	25.951482	0.000571	20.786942
1917.561694	-2.987000	3.355400	-10.022000	25.926702	0.000571	20.796660
1918.564475	-2.984900	3.355100	-10.014000	25.951188	0.000571	20.784750
1919.563470	-2.987900	3.353800	-10.019000	25.957642	0.000569	20.768474
1920.562266	-2.974200	3.355100	-9.978000	25.994406	0.000568	20.790711
1921.562720	-2.979000	3.354100	-9.990600	26.026816	0.000569	20.785341
1922.562646	-2.983600	3.353600	-10.005000	26.012333	0.000568	20.778376
1923.564244	-2.980500	3.352600	-9.990400	26.014619	0.000568	20.786837
1924.566598	-3.004700	3.352900	-10.073000	26.039680	0.000567	20.788783
1925.563979	-3.003000	3.352700	-10.066000	26.071795	0.000566	20.786911
1926.563158	-2.967000	3.353900	-9.949600	26.090598	0.000567	20.783518
1927.566705	-2.992000	3.352100	-10.029000	26.111061	0.000566	20.753818
1928.565371	-3.002200	3.351800	-10.061000	26.115933	0.000566	20.776732
1929.564933	-3.002000	3.352200	-10.062000	26.138332	0.000564	20.766048
1930.563430	-3.002300	3.350700	-10.058000	26.140489	0.000564	20.803303
1931.563258	-2.981600	3.351800	-9.993300	26.098694	0.000565	20.766048
1932.562838	-2.998500	3.352100	-10.050000	26.043505	0.000563	20.780772
1933.563660	-2.971400	3.351900	-9.959400	26.058581	0.000564	20.776954
1934.567794	-2.985600	3.350100	-10.001000	26.039827	0.000562	20.773283
1935.563847	-3.013800	3.350400	-10.097000	26.057491	0.000563	20.783918
1936.567655	-3.010000	3.350400	-10.084000	26.114364	0.000562	20.775630
1937.566954	-2.998900	3.349900	-10.045000	26.110662	0.000560	20.774755
1938.564462	-3.002300	3.349500	-10.055000	26.120922	0.000560	20.767520
1939.568344	-3.009400	3.348500	-10.076000	26.092737	0.000560	20.761485
1940.565406	-3.033800	3.347500	-10.155000	26.052894	0.000560	20.802059
1941.567761	-3.020500	3.348000	-10.112000	25.986425	0.000560	20.785064
1942.563587	-3.032300	3.347900	-10.150000	25.931206	0.000559	20.779848
1943.565359	-3.000800	3.346700	-10.041000	25.942907	0.000561	20.760309
1944.565878	-3.002900	3.346400	-10.047000	25.961583	0.000558	20.784762
1945.567243	-3.029600	3.345800	-10.134000	25.984604	0.000560	20.764268
1946.568048	-2.996400	3.345900	-10.024000	25.969152	0.000559	20.761072
1947.567917	-2.993500	3.346900	-10.018000	26.004849	0.000559	20.776547
1948.567456	-3.000900	3.345600	-10.039000	26.031945	0.000557	20.785279
1949.568854	-2.998100	3.345500	-10.028000	26.017119	0.000556	20.753787
1950.570742	-2.993400	3.345000	-10.012000	25.978168	0.000555	20.783881
1951.569046	-3.021700	3.344400	-10.104000	25.905032	0.000555	20.744069
1952.570332	-3.023000	3.342200	-10.101000	25.864520	0.000553	20.761693
1953.577214	-3.012700	3.344400	-10.074000	25.840147	0.000553	20.787945
1954.571645	-3.012700	3.342500	-10.069000	25.835501	0.000554	20.769526
1955.572268	-2.983200	3.343900	-9.974000	25.864912	0.000555	20.772993
1956.572567	-3.011700	3.342600	-10.066000	25.894599	0.000553	20.762038
1957.571931	-3.001800	3.344300	-10.037000	25.877184	0.000552	20.766829
1958.575349	-3.014800	3.341900	-10.074000	25.901329	0.000553	20.758368
1959.573792	-2.994400	3.342300	-10.007000	25.903046	0.000552	20.768153
1960.573457	-2.996600	3.342400	-10.015000	25.913227	0.000552	20.780278
1961.574751	-3.007700	3.340600	-10.046000	25.933994	0.000550	20.752776
1962.576149	-2.985500	3.340400	-9.971700	25.905179	0.000552	20.745165
1963.573251	-3.019700	3.339300	-10.083000	25.881579	0.000550	20.748010
1964.572175	-3.005700	3.339300	-10.036000	25.886747	0.000550	20.752727
1965.572342	-2.994400	3.339700	-9.999600	25.857930	0.000549	20.763134
1966.580170	-2.994100	3.339400	-9.997500	25.888015	0.000548	20.779607
1967.570385	-3.000100	3.339100	-10.016000	25.885184	0.000546	20.774391
1968.573565	-2.992700	3.339900	-9.992900	25.914625	0.000545	20.757974
1969.571709	-2.996700	3.339000	-10.005000	25.887023	0.000546	20.752056
1970.573370	-2.979000	3.341200	-9.951200	25.932829	0.000546	20.763935
1971.576539	-3.011800	3.336800	-10.049000	25.921533	0.000545	20.781036
1972.575354	-3.009900	3.338600	-10.048000	25.928109	0.000543	20.757771
1973.575032	-2.990700	3.337700	-9.980600	25.945002	0.000543	20.751982
1974.578307	-3.002300	3.337100	-10.018000	25.976054	0.000543	20.759470
1975.576557	-3.009500	3.337000	-10.042000	25.989789	0.000543	20.753829
1976.577411	-3.000900	3.334700	-10.006000	26.036493	0.000542	20.745750
1977.579831	-2.975800	3.337400	-9.930300	26.020423	0.000539	20.735294
1978.587070	-2.972800	3.337100	-9.918900	26.032172	0.000541	20.755634
1979.593050	-3.002200	3.334300	-10.009000	26.050497	0.000538	20.754131
1980.586158	-3.014800	3.335300	-10.054000	26.075263	0.000539	20.731599
1981.581501	-2.989700	3.334600	-9.968400	26.091266	0.000539	20.753368
1982.579585	-3.019200	3.334300	-10.066000	26.106115	0.000539	20.731778
1983.578950	-2.998100	3.334500	-9.994600	26.120205	0.000538	20.765851
1984.579724	-2.999100	3.334000	-9.998200	26.054929	0.000538	20.756213
1985.580496	-2.989700	3.334300	-9.967000	26.050038	0.000539	20.743238
1986.582119	-2.995000	3.332800	-9.980300	26.069785	0.000536	20.748855
1987.581420	-3.008100	3.331900	-10.022000	26.092013	0.000536	20.747481
1988.579230	-2.971100	3.332800	-9.900700	26.099172	0.000536	20.759890
1989.582882	-3.008600	3.332700	-10.024000	26.112857	0.000537	20.744717
1990.581422	-2.988900	3.332200	-9.958400	26.154872	0.000533	20.745683
1991.581512	-3.013900	3.331400	-10.039000	26.166326	0.000535	20.745813
1992.582353	-3.001500	3.332300	-9.999100	26.161314	0.000535	20.727499
1993.582914	-3.014200	3.331600	-10.042000	26.157815	0.000532	20.742001
1994.585629	-3.011000	3.331700	-10.030000	26.175875	0.000532	20.757779
1995.584017	-3.027100	3.329800	-10.079000	26.199045	0.000533	20.740758
1996.583694	-3.009200	3.329700	-10.018000	26.148923	0.000532	20.761042
1997.584795	-3.021700	3.329000	-10.058000	26.138842	0.000534	20.725307
1998.583217	-3.018100	3.329500	-10.047000	26.091604	0.000534	20.758450
1999.583122	-3.022200	3.328300	-10.058000	26.080854	0.000533	20.740062
2000.583426	-2.991600	3.329500	-9.959400	26.112472	0.000532	20.737217
2001.584044	-2.995500	3.328400	-9.968500	26.120218	0.000531	20.740733
2002.583378	-3.011500	3.326800	-10.017000	26.082203	0.000530	20.746159
2003.587396	-2.999800	3.329300	-9.986600	26.069689	0.000528	20.728368
2004.586519	-3.006200	3.327800	-10.003000	26.040203	0.000529	20.742366
2005.587049	-2.981900	3.327600	-9.921100	26.043715	0.000528	20.755378
2006.594577	-2.984900	3.328600	-9.933000	26.059943	0.000528	20.738018
2007.585524	-3.007900	3.326300	-10.003000	26.040387	0.000526	20.739232
2008.586102	-3.016700	3.326200	-10.032000	26.053723	0.000526	20.738881
2009.589769	-3.004200	3.324600	-9.986100	26.097684	0.000523	20.733738
2010.586537	-3.006000	3.326200	-9.997100	26.114550	0.000525	20.746892
2011.586508	-3.006900	3.325900	-9.999800	26.139021	0.000525	20.719797
2012.587562	-3.018700	3.323800	-10.032000	26.145554	0.000522	20.742009
2013.587279	-2.983400	3.324800	-9.918800	26.164545	0.000525	20.745919
2014.586488	-3.006900	3.323800	-9.992900	26.190724	0.000525	20.739035
2015.588942	-3.015000	3.323100	-10.018000	26.213827	0.000523	20.739491
2016.588583	-3.010500	3.324600	-10.006000	26.241991	0.000522	20.732231
2017.587422	-2.989900	3.324700	-9.938300	26.262825	0.000521	20.753168
2018.586515	-2.971900	3.323200	-9.875200	26.280680	0.000522	20.716108
2019.586954	-2.978500	3.323300	-9.898000	26.292273	0.000522	20.724440
2020.586117	-3.005200	3.322400	-9.983600	26.329706	0.000519	20.734085
2021.587487	-3.001900	3.321000	-9.968100	26.323444	0.000520	20.715462
2022.588394	-2.998700	3.322000	-9.960600	26.318058	0.000520	20.736603
2023.589468	-2.995300	3.320800	-9.945800	26.342892	0.000519	20.718886
2024.588164	-3.009600	3.322200	-9.996200	26.296827	0.000517	20.710523
2025.592223	-3.004200	3.320500	-9.973300	26.278922	0.000516	20.746111
2026.589396	-3.008600	3.319500	-9.985700	26.252947	0.000519	20.738026
2027.588260	-3.009700	3.320100	-9.991300	26.270111	0.000516	20.714495
2028.587302	-2.998100	3.319300	-9.949500	26.283990	0.000516	20.719434
2029.589919	-2.994900	3.320100	-9.941600	26.296833	0.000516	20.729971
2030.591420	-2.986800	3.319500	-9.913200	26.287746	0.000516	20.708036
2031.588700	-2.992600	3.318600	-9.930300	26.297930	0.000517	20.727755
2032.590886	-3.017500	3.316900	-10.008000	26.293188	0.000514	20.712082
2033.590919	-3.030600	3.317300	-10.052000	26.310246	0.000514	20.707888
2034.591259	-3.011900	3.318600	-9.994300	26.315890	0.000515	20.705973
2035.591740	-3.010200	3.317000	-9.985300	26.322317	0.000514	20.727133
2036.590455	-3.012000	3.317100	-9.990200	26.297685	0.000512	20.712335
2037.589921	-3.002800	3.315600	-9.954400	26.281619	0.000511	20.699507
2038.595045	-3.000000	3.317500	-9.951500	26.281895	0.000513	20.711639
2039.596844	-2.990500	3.316700	-9.917900	26.306104	0.000511	20.707519
2040.591152	-3.035100	3.314000	-10.057000	26.290982	0.000509	20.697536
2041.594161	-3.025700	3.316000	-10.032000	26.324952	0.000511	20.701330
2042.603659	-2.980800	3.315700	-9.882400	26.352812	0.000508	20.703725
2043.592347	-2.954800	3.316000	-9.796900	26.359742	0.000508	20.705474
2044.596837	-3.023400	3.313900	-10.018000	26.327758	0.000509	20.699408
2045.595892	-2.983400	3.314600	-9.888200	26.308561	0.000506	20.699082
2046.593403	-2.979300	3.314200	-9.873100	26.262599	0.000509	20.700308
2047.592615	-2.989500	3.314000	-9.905700	26.279431	0.000509	20.726234
2048.601427	-2.993000	3.313200	-9.915400	26.298059	0.000507	20.702278
2049.598168	-2.999300	3.314000	-9.939100	26.281791	0.000506	20.706792
2050.592786	-2.981400	3.313300	-9.877400	26.247672	0.000505	20.706644
2051.595837	-2.971500	3.313600	-9.844400	26.249014	0.000506	20.717951
2052.595233	-2.997300	3.311900	-9.925700	26.266913	0.000505	20.687097
2053.595285	-2.982100	3.311900	-9.876200	26.268181	0.000505	20.696434
2054.599047	-2.986800	3.312200	-9.892500	26.228327	0.000503	20.713757
2055.597749	-3.008900	3.311400	-9.963200	26.208185	0.000501	20.702998
2056.597405	-3.003200	3.311000	-9.942400	26.197608	0.000503	20.713708
2057.598069	-3.012300	3.309800	-9.969200	26.202774	0.000502	20.716054
2058.599465	-3.008300	3.310900	-9.960000	26.198681	0.000501	20.688231
2059.596492	-3.008600	3.310400	-9.957600	26.190977	0.000500	20.701354
2060.595579	-3.006000	3.309000	-9.945700	26.182313	0.000499	20.704976
2061.598134	-2.998800	3.309200	-9.922100	26.190530	0.000500	20.707543
2062.597715	-3.012800	3.308100	-9.964800	26.176461	0.000500	20.720908
2063.595982	-3.019600	3.308200	-9.988400	26.202836	0.000499	20.679130
2064.597515	-3.048300	3.306200	-10.076000	26.245179	0.000500	20.684697
2065.596304	-2.997200	3.309600	-9.918000	26.259107	0.000499	20.682572
2066.597246	-2.993900	3.308500	-9.903000	26.275002	0.000496	20.708031
2067.597208	-3.006300	3.306800	-9.939900	26.265964	0.000496	20.713173
2068.596684	-2.985200	3.307800	-9.873700	26.299194	0.000496	20.701996
2069.600074	-2.992700	3.306100	-9.893300	26.339548	0.000495	20.702723
2070.597647	-3.004400	3.306800	-9.934200	26.349156	0.000496	20.690092
2071.603193	-2.995600	3.305200	-9.900100	26.348114	0.000494	20.681458
2072.605026	-2.981500	3.306100	-9.855900	26.325639	0.000494	20.685898
2073.601246	-3.004600	3.305200	-9.929000	26.364773	0.000494	20.704367
2074.602410	-2.980900	3.306500	-9.855100	26.403986	0.000493	20.708691
2075.604359	-3.001000	3.305700	-9.919100	26.401756	0.000491	20.677523
2076.602248	-3.009200	3.304800	-9.943600	26.433437	0.000492	20.688978
2077.604718	-3.005600	3.303500	-9.928100	26.412331	0.000491	20.694317
2078.603808	-3.002400	3.303800	-9.917900	26.417576	0.000490	20.702434
2079.601859	-2.984000	3.303900	-9.857400	26.406278	0.000491	20.697717
2080.608475	-3.002400	3.302100	-9.913600	26.385783	0.000491	20.712207
2081.600785	-2.969500	3.304200	-9.811400	26.387750	0.000489	20.701855
2082.601927	-3.004900	3.302500	-9.922600	26.408092	0.000489	20.692901
2083.601364	-3.017900	3.301100	-9.960000	26.433947	0.000487	20.689964
2084.604870	-3.018600	3.300300	-9.960400	26.457608	0.000487	20.684348
2085.604539	-2.989800	3.301800	-9.871300	26.469254	0.000487	20.725929
2086.602279	-3.016600	3.301200	-9.957400	26.462178	0.000485	20.689890
2087.606777	-2.985500	3.300800	-9.853300	26.486984	0.000485	20.697755
2088.603470	-3.018400	3.299400	-9.957600	26.505437	0.000483	20.702078
2089.604193	-3.002300	3.300700	-9.908500	26.497644	0.000485	20.708471
2090.605073	-2.997000	3.299100	-9.886000	26.455562	0.000483	20.717856
2091.606201	-2.999800	3.300100	-9.898400	26.430983	0.000483	20.694097
2092.602136	-2.993300	3.299100	-9.874400	26.423606	0.000482	20.691899
2093.605262	-3.029200	3.298100	-9.989000	26.446452	0.000481	20.685938
2094.608429	-3.013200	3.298500	-9.938200	26.478286	0.000482	20.701340
2095.601768	-3.003900	3.298600	-9.907800	26.480840	0.000480	20.693950
2096.602894	-3.019600	3.298300	-9.958500	26.483003	0.000482	20.698021
2097.609515	-3.005300	3.297000	-9.907000	26.498356	0.000480	20.700651
2098.603583	-3.018700	3.296600	-9.950900	26.541031	0.000478	20.688069
2099.607319	-3.011700	3.295400	-9.924100	26.518487	0.000477	20.704290
2100.609575	-2.990500	3.297500	-9.859700	26.483568	0.000479	20.714711
2101.604774	-2.995800	3.297300	-9.877600	26.496427	0.000478	20.685434
2102.604095	-2.998600	3.295000	-9.879400	26.500850	0.000478	20.684665
2103.608888	-2.996300	3.294600	-9.871000	26.466040	0.000478	20.717957
2104.609661	-3.012700	3.294000	-9.921600	26.436817	0.000476	20.708023
2105.606347	-2.999800	3.294000	-9.879900	26.437865	0.000477	20.699119
2106.614654	-2.993500	3.292700	-9.855700	26.425005	0.000476	20.698047
2107.606518	-3.012700	3.292600	-9.918800	26.408151	0.000474	20.706238
2108.607351	-3.004900	3.293500	-9.895000	26.406491	0.000475	20.684653
2109.611843	-2.986300	3.293400	-9.834500	26.406760	0.000472	20.697727
2110.606370	-2.994500	3.294300	-9.861800	26.405076	0.000472	20.705992
2111.619370	-3.016100	3.292100	-9.928500	26.409891	0.000471	20.695658
2112.606123	-2.982100	3.292500	-9.817100	26.417813	0.000472	20.688921
2113.607213	-3.000800	3.292300	-9.878700	26.418187	0.000472	20.714429
2114.611102	-3.014600	3.290900	-9.919900	26.392614	0.000469	20.693466
2115.610414	-2.960000	3.292300	-9.743000	26.412630	0.000471	20.699360
2116.609385	-3.041600	3.289500	-10.004000	26.380673	0.000469	20.705648
2117.607284	-2.974700	3.291300	-9.788900	26.360533	0.000470	20.711960
2118.607722	-3.023800	3.290000	-9.946400	26.360453	0.000470	20.692912
2119.610530	-2.994100	3.290000	-9.849600	26.354124	0.000468	20.693663
2120.617049	-3.019400	3.289700	-9.931300	26.343678	0.000468	20.690277
2121.608638	-3.001500	3.289900	-9.873200	26.311662	0.000468	20.710734
2122.612255	-3.007400	3.287500	-9.885400	26.321662	0.000468	20.703239
2123.611843	-2.964600	3.289100	-9.749900	26.304187	0.000467	20.711282
2124.614981	-3.001000	3.288900	-9.867900	26.300584	0.000465	20.699125
2125.608494	-2.982800	3.288000	-9.807100	26.279775	0.000467	20.698602
2126.612107	-2.990000	3.287700	-9.829100	26.283200	0.000466	20.698725
2127.608666	-3.004800	3.286300	-9.874400	26.297495	0.000465	20.687959
2128.607817	-2.987300	3.287300	-9.817800	26.306533	0.000463	20.708424
2129.610101	-2.989000	3.286900	-9.823200	26.341372	0.000462	20.719730
2130.612666	-2.986600	3.286100	-9.812900	26.333922	0.000464	20.683316
2131.610076	-3.015700	3.285100	-9.905900	26.388550	0.000462	20.714514
2132.610022	-2.997100	3.284900	-9.843100	26.411465	0.000462	20.705301
2133.609640	-3.021600	3.284400	-9.922800	26.447244	0.000459	20.722772
2134.610460	-3.019200	3.283300	-9.911100	26.476094	0.000460	20.716682
2135.612741	-2.993900	3.284000	-9.831300	26.503527	0.000456	20.716281
2136.611291	-2.965900	3.284600	-9.741300	26.510002	0.000457	20.720893
2137.610313	-2.969700	3.284900	-9.753900	26.515981	0.000458	20.737335
2138.610139	-2.989200	3.283900	-9.816100	26.515387	0.000456	20.711607
2139.611155	-2.997500	3.282200	-9.836800	26.537980	0.000456	20.721041
2140.612040	-3.011900	3.282000	-9.883800	26.521219	0.000454	20.724108
2141.609063	-3.010300	3.282100	-9.878400	26.561363	0.000454	20.703767
2142.616803	-3.015600	3.282000	-9.896500	26.569350	0.000455	20.721755
2143.611078	-2.982800	3.282000	-9.788000	26.565902	0.000456	20.722555
2144.611938	-2.994500	3.281600	-9.825900	26.564682	0.000454	20.717062
2145.618794	-2.981200	3.281000	-9.780900	26.589927	0.000455	20.713515
2146.615256	-2.982800	3.280600	-9.784500	26.621602	0.000452	20.715959
2147.615865	-2.963300	3.280100	-9.718700	26.634313	0.000452	20.751498
2148.614318	-2.985700	3.280400	-9.792800	26.614674	0.000451	20.748351
2149.618421	-2.988100	3.279400	-9.797500	26.576835	0.000451	20.723589
2150.616654	-2.994300	3.278500	-9.815600	26.592523	0.000451	20.725135
2151.622916	-2.994800	3.279600	-9.820800	26.590294	0.000451	20.729532
2152.615706	-3.020600	3.277000	-9.898000	26.601705	0.000447	20.718243
2153.617153	-3.014000	3.279000	-9.881500	26.585889	0.000448	20.741700
2154.616018	-3.003400	3.275900	-9.837100	26.585466	0.000448	20.728946
2155.617190	-2.992700	3.276300	-9.803800	26.609497	0.000448	20.729870
2156.613662	-3.006500	3.275400	-9.846900	26.630048	0.000445	20.726347
2157.613751	-2.981900	3.277900	-9.773100	26.612125	0.000445	20.734408
2158.616374	-2.994400	3.276400	-9.809600	26.600707	0.000443	20.735258
2159.617584	-2.976900	3.276500	-9.752900	26.586954	0.000446	20.732339
2160.613223	-3.014200	3.275100	-9.870800	26.599114	0.000443	20.718957
2161.616148	-2.987800	3.276600	-9.788800	26.624486	0.000443	20.736877
2162.616200	-3.000500	3.274800	-9.825700	26.653233	0.000441	20.732111
2163.622054	-2.988800	3.275100	-9.787400	26.606863	0.000441	20.739550
2164.625218	-2.993100	3.274000	-9.798700	26.637350	0.000441	20.749336
2165.616734	-2.996300	3.274800	-9.811400	26.665949	0.000441	20.739680
2166.616037	-3.009200	3.273700	-9.849700	26.687369	0.000441	20.746515
2167.617565	-2.989600	3.272500	-9.782100	26.713854	0.000440	20.730467
2168.615636	-3.009200	3.273200	-9.848400	26.712722	0.000438	20.752563
2169.615649	-3.005000	3.274000	-9.837600	26.718326	0.000439	20.731169
2170.618747	-3.000800	3.272300	-9.818700	26.711031	0.000438	20.728103
2171.625690	-3.000100	3.271500	-9.813000	26.724016	0.000437	20.748745
2172.619563	-3.016600	3.269900	-9.863200	26.725131	0.000438	20.749391
2173.620700	-2.997700	3.270900	-9.804400	26.686953	0.000437	20.728552
2174.621870	-3.026900	3.269400	-9.894900	26.695191	0.000435	20.729722
2175.618464	-2.992900	3.272300	-9.792900	26.689612	0.000435	20.754934
2176.619327	-3.016600	3.268900	-9.859900	26.704606	0.000434	20.734446
2177.623161	-2.990900	3.270200	-9.779900	26.715502	0.000434	20.750617
2178.620258	-2.997500	3.269900	-9.800800	26.744142	0.000432	20.731995
2179.632017	-3.021400	3.269400	-9.877500	26.747475	0.000433	20.750045
2180.620492	-2.989200	3.269400	-9.771600	26.729822	0.000432	20.764066
2181.622536	-3.025900	3.268400	-9.888600	26.745784	0.000431	20.742655
2182.619987	-3.019400	3.266600	-9.861400	26.756055	0.000431	20.743972
2183.631285	-3.006600	3.267200	-9.822400	26.718822	0.000429	20.747316
2184.626316	-2.978100	3.269100	-9.734100	26.696281	0.000428	20.761639
2185.627868	-2.988500	3.267800	-9.764800	26.689182	0.000429	20.741225
2186.627001	-2.981300	3.267600	-9.741200	26.717407	0.000428	20.759644
2187.627316	-2.999500	3.266100	-9.795900	26.694499	0.000428	20.761270
2188.628004	-2.997700	3.266200	-9.790100	26.612149	0.000427	20.761461
2189.629386	-3.001300	3.265100	-9.798800	26.613393	0.000427	20.748486
2190.628484	-3.016300	3.265200	-9.848300	26.626648	0.000425	20.740000
2191.630719	-3.011800	3.265400	-9.833700	26.650532	0.000424	20.764484
2192.628983	-2.987400	3.265700	-9.755000	26.649582	0.000425	20.759736
2193.631756	-2.992700	3.263700	-9.765500	26.659584	0.000423	20.743713
2194.627670	-3.009100	3.262800	-9.815800	26.646133	0.000423	20.754847
2195.629854	-3.016700	3.262100	-9.840000	26.642948	0.000421	20.733625
2196.630594	-3.005700	3.263000	-9.806600	26.625447	0.000422	20.744482
2197.628318	-3.005700	3.262700	-9.805800	26.584558	0.000420	20.753639
2198.628422	-3.010800	3.260800	-9.816600	26.547326	0.000419	20.738971
2199.631642	-2.981400	3.262700	-9.726400	26.517479	0.000418	20.772033
2200.632937	-3.000000	3.260900	-9.781800	26.544961	0.000418	20.747500
2201.630147	-2.985200	3.261400	-9.735000	26.576075	0.000417	20.766448
2202.630587	-3.019800	3.259900	-9.843000	26.611119	0.000419	20.772279
2203.628602	-3.001400	3.259500	-9.781200	26.660050	0.000417	20.752241
2204.632106	-2.994800	3.259300	-9.759500	26.628026	0.000416	20.757032
2205.635368	-3.004900	3.261500	-9.799600	26.643915	0.000415	20.757833
2206.632425	-3.006500	3.259000	-9.796200	26.640988	0.000413	20.767218
2207.630301	-3.013900	3.257800	-9.817700	26.661238	0.000414	20.774299
2208.636614	-2.993200	3.258500	-9.752200	26.699220	0.000413	20.775974
2209.632394	-2.991200	3.258000	-9.745100	26.738047	0.000414	20.760481
2210.638669	-3.028200	3.256400	-9.858500	26.762473	0.000411	20.759434
2211.635005	-2.994800	3.256300	-9.750200	26.761009	0.000411	20.761756
2212.636258	-2.981600	3.258300	-9.714700	26.771783	0.000412	20.777804
2213.638950	-2.980600	3.257500	-9.709000	26.793574	0.000410	20.782644
2214.640214	-2.956600	3.256000	-9.626300	26.846366	0.000410	20.773610
2215.640334	-2.991900	3.254800	-9.736100	26.853513	0.000411	20.785538
2216.644218	-3.001400	3.254700	-9.767500	26.855626	0.000409	20.778179
2217.640131	-3.002500	3.255000	-9.772000	26.909488	0.000410	20.761214
2218.642026	-2.985700	3.254800	-9.716900	26.907375	0.000407	20.762409
2219.645555	-3.013100	3.253800	-9.802800	26.867747	0.000407	20.782306
2220.645371	-2.989800	3.253400	-9.726100	26.863821	0.000405	20.781203
2221.642102	-2.993600	3.252500	-9.735700	26.849754	0.000405	20.764214
2222.646569	-2.998800	3.253600	-9.755600	26.854696	0.000403	20.774399
2223.642786	-2.990800	3.251800	-9.724900	26.863632	0.000406	20.787177
2224.647069	-2.976700	3.254000	-9.684900	26.887136	0.000404	20.781413
2225.645559	-2.979800	3.252400	-9.689600	26.857802	0.000403	20.789376
2226.647028	-2.982300	3.250800	-9.694800	26.859216	0.000404	20.777996
2227.644735	-2.975700	3.251000	-9.673200	26.882567	0.000402	20.785828
2228.647923	-3.014300	3.250300	-9.795300	26.843961	0.000401	20.767399
2229.643577	-3.012800	3.249500	-9.788600	26.886751	0.000401	20.762060
2230.646942	-2.989200	3.250500	-9.715700	26.900897	0.000399	20.784345
2231.642624	-2.992000	3.248900	-9.719700	26.946545	0.000400	20.780460
2232.656530	-2.988400	3.249000	-9.708200	26.945449	0.000401	20.774142
2233.644475	-2.994400	3.248700	-9.726800	26.936496	0.000401	20.791218
2234.644462	-2.962900	3.249000	-9.625900	26.974022	0.000398	20.799082
2235.645209	-2.991800	3.249900	-9.721500	26.981713	0.000396	20.800652
2236.645110	-2.996500	3.247800	-9.731300	26.987322	0.000394	20.774050
2237.649177	-2.986700	3.247000	-9.696400	26.983183	0.000397	20.790751
2238.647655	-2.986600	3.246400	-9.695100	26.967078	0.000394	20.795893
2239.645943	-2.982200	3.246100	-9.679300	26.996459	0.000393	20.790825
2240.649338	-2.992700	3.245900	-9.713100	26.993409	0.000394	20.787284
2241.647378	-2.965800	3.245800	-9.625400	27.005791	0.000393	20.806373
2242.647520	-2.997600	3.244400	-9.723800	27.026323	0.000390	20.779131
2243.648683	-3.010700	3.244400	-9.766800	27.055101	0.000392	20.805702
2244.653620	-3.003400	3.244500	-9.743800	27.059914	0.000390	20.797266
2245.650510	-2.993000	3.245400	-9.712400	27.047631	0.000391	20.796293
2246.651116	-2.978400	3.245000	-9.663300	27.005546	0.000392	20.787161
2247.653583	-2.979000	3.245700	-9.668200	26.987011	0.000389	20.793651
2248.667650	-3.020400	3.242600	-9.792400	26.995669	0.000389	20.798091
2249.652315	-3.000200	3.241800	-9.725300	27.006587	0.000388	20.812389
2250.656746	-3.029000	3.242100	-9.818900	27.037265	0.000386	20.799144
2251.656823	-2.994100	3.242000	-9.706200	27.032225	0.000388	20.784593
2252.654591	-3.011900	3.240100	-9.757100	27.043370	0.000387	20.799594
2253.655585	-3.007800	3.240700	-9.746400	27.058384	0.000387	20.795253
2254.656642	-2.998400	3.241200	-9.717900	27.071560	0.000384	20.801866
2255.656290	-3.023900	3.238300	-9.791000	27.053019	0.000384	20.806928
2256.656599	-2.994900	3.239400	-9.700700	27.071738	0.000384	20.803468
2257.657054	-3.011700	3.238600	-9.752700	27.036671	0.000384	20.803289
2258.656681	-3.022200	3.236800	-9.781600	27.042507	0.000385	20.787346
2259.658406	-3.004700	3.238000	-9.727900	26.993925	0.000384	20.811510
2260.658787	-2.991000	3.238700	-9.685200	26.940784	0.000380	20.806910
2261.659858	-3.012200	3.236400	-9.747000	26.941580	0.000381	20.799650
2262.660848	-3.008200	3.237900	-9.739000	26.938004	0.000380	20.801269
2263.660649	-2.993700	3.236300	-9.688300	26.965904	0.000381	20.789970
2264.658815	-3.012900	3.235300	-9.746300	26.998138	0.000378	20.816221
2265.659903	-3.017200	3.234300	-9.756000	27.040296	0.000379	20.833012
2266.660892	-2.978100	3.235200	-9.633900	27.049457	0.000379	20.823733
2267.661537	-3.011600	3.235400	-9.743200	27.022208	0.000378	20.812452
2268.661232	-3.001900	3.233500	-9.705600	27.019184	0.000376	20.806565
2269.661417	-2.999600	3.232100	-9.694300	27.014113	0.000375	20.816639
2270.664977	-3.026000	3.233100	-9.782400	27.014689	0.000376	20.811054
2271.660563	-3.034500	3.232800	-9.809100	26.979651	0.000374	20.818493
2272.661549	-2.993100	3.232200	-9.673900	26.976179	0.000375	20.789397
2273.663851	-2.993100	3.232700	-9.674600	26.964036	0.000372	20.824127
2274.662118	-2.997200	3.232200	-9.686700	26.981261	0.000374	20.832914
2275.660999	-3.014500	3.231600	-9.739800	27.025687	0.000372	20.825433
2276.664452	-3.010200	3.230400	-9.723000	27.003575	0.000371	20.842077
2277.661908	-3.003300	3.230700	-9.702200	26.983772	0.000371	20.847766
2278.661698	-3.010200	3.229400	-9.720000	26.947594	0.000372	20.829405
2279.662019	-3.012300	3.228500	-9.724200	26.945628	0.000370	20.830273
2280.662772	-2.999200	3.229000	-9.683300	26.919051	0.000370	20.830574
2281.662103	-2.996300	3.229500	-9.675500	26.905108	0.000369	20.834571
2282.660874	-2.978600	3.227700	-9.613200	26.885701	0.000368	20.820747
2283.664739	-2.992200	3.228000	-9.656900	26.867855	0.000367	20.833623
2284.662158	-3.000000	3.227400	-9.680000	26.882749	0.000367	20.825840
2285.662704	-2.986500	3.227300	-9.637600	26.891733	0.000366	20.836295
2286.666091	-2.993200	3.226500	-9.656300	26.927968	0.000367	20.821523
2287.665307	-3.003400	3.224900	-9.683900	26.966633	0.000366	20.824842
2288.661572	-3.020300	3.224400	-9.736900	27.007661	0.000365	20.841918
2289.666690	-3.010000	3.224900	-9.706000	27.014880	0.000364	20.843962
2290.665017	-3.010900	3.224400	-9.707000	27.024586	0.000363	20.844239
2291.663762	-2.994000	3.224000	-9.651700	27.011286	0.000364	20.857417
2292.664028	-3.021900	3.223400	-9.739900	27.004367	0.000362	20.843347
2293.664109	-2.998400	3.223900	-9.665900	26.982611	0.000363	20.843754
2294.663579	-3.008800	3.222800	-9.695900	26.994050	0.000360	20.849092
2295.664566	-3.011900	3.223800	-9.709200	26.993627	0.000362	20.839185
2296.664698	-2.988200	3.221700	-9.626100	26.998373	0.000361	20.832578
2297.674212	-3.000800	3.221700	-9.666200	27.003615	0.000359	20.848755
2298.664983	-2.999900	3.220000	-9.658800	27.017833	0.000361	20.844561
2299.665784	-2.994900	3.220100	-9.643400	27.048951	0.000359	20.836501
2300.666615	-2.985600	3.221300	-9.616900	27.061283	0.000359	20.848428
2301.667137	-2.999700	3.218700	-9.654200	27.038334	0.000358	20.856169
2302.669569	-2.993900	3.221000	-9.642600	27.020069	0.000357	20.852973
2303.667031	-3.008700	3.218300	-9.682200	26.986941	0.000356	20.825824
2304.666893	-2.974700	3.220100	-9.578200	26.977713	0.000357	20.845467
2305.671283	-2.988800	3.218600	-9.618900	26.976868	0.000355	20.842721
2306.666512	-3.014800	3.216400	-9.695300	27.014246	0.000355	20.841902
2307.668539	-3.016600	3.218700	-9.708800	27.043031	0.000353	20.858047
2308.668468	-3.007900	3.217600	-9.676900	27.047868	0.000353	20.857696
2309.669158	-3.023100	3.214900	-9.718300	27.090852	0.000351	20.844975
2310.669705	-2.988500	3.214500	-9.605500	27.139827	0.000351	20.843497
2311.668697	-2.998900	3.215800	-9.643000	27.162218	0.000350	20.844680
2312.669285	-2.972500	3.215400	-9.555700	27.168983	0.000351	20.842949
2313.668614	-2.991900	3.215100	-9.618800	27.195805	0.000349	20.843374
2314.677287	-3.008800	3.213800	-9.668600	27.164544	0.000351	20.856028
2315.670671	-2.991300	3.213500	-9.611800	27.105810	0.000349	20.834888
2316.684673	-2.996400	3.213000	-9.626300	27.095162	0.000348	20.835559
2317.671309	-3.009300	3.211900	-9.665300	27.060623	0.000346	20.830221
2318.672089	-2.990800	3.213000	-9.608500	27.035072	0.000348	20.846724
2319.673505	-2.982300	3.211800	-9.576300	27.076880	0.000347	20.818121
2320.670945	-2.980200	3.211300	-9.568300	27.109613	0.000347	20.828282
2321.674619	-3.005500	3.209900	-9.646900	27.137128	0.000346	20.816126
2322.676396	-2.996400	3.209800	-9.617000	27.159579	0.000345	20.849611
2323.672581	-3.000200	3.210000	-9.629700	27.205502	0.000345	20.835110
2324.678284	-2.988100	3.210400	-9.592100	27.230120	0.000345	20.827155
2325.678768	-3.007600	3.207800	-9.646700	27.230965	0.000342	20.834168
2326.672414	-2.973300	3.209700	-9.541700	27.252820	0.000342	20.841927
2327.674608	-2.982600	3.207900	-9.566700	27.212622	0.000342	20.817142
2328.674586	-2.994800	3.207800	-9.605900	27.198976	0.000343	20.844666
2329.672821	-2.999600	3.208800	-9.622600	27.162481	0.000340	20.827875
2330.674155	-2.987900	3.207200	-9.581400	27.102901	0.000339	20.827222
2331.672510	-3.010600	3.206000	-9.650600	27.104542	0.000340	20.819863
2332.682212	-2.982300	3.207000	-9.562700	27.123327	0.000339	20.840178
2333.674215	-2.996700	3.206300	-9.605500	27.140176	0.000339	20.817770
2334.685626	-3.000300	3.207100	-9.621000	27.183370	0.000338	20.828496
2335.685211	-3.006700	3.206800	-9.639800	27.176795	0.000337	20.819038
2336.675956	-2.994600	3.203900	-9.593700	27.154540	0.000336	20.817992
2337.675029	-2.999300	3.203100	-9.606100	27.128960	0.000338	20.823084
2338.676272	-3.006900	3.204200	-9.634000	27.130877	0.000335	20.807469
2339.675535	-3.005200	3.202200	-9.622400	27.132836	0.000335	20.814655
2340.681564	-2.997700	3.203100	-9.600800	27.141971	0.000335	20.817678
2341.676096	-2.971600	3.202200	-9.514100	27.158992	0.000335	20.829581
2342.676528	-2.998600	3.201400	-9.598400	27.182318	0.000335	20.812266
2343.681254	-3.013600	3.199700	-9.641700	27.153935	0.000335	20.791779
2344.678357	-2.972300	3.202000	-9.515900	27.120861	0.000333	20.815887
2345.677267	-2.996700	3.199700	-9.587700	27.060018	0.000333	20.797370
2346.681307	-2.995900	3.199500	-9.584500	27.059197	0.000334	20.802709
2347.681579	-2.997700	3.198700	-9.587400	27.048751	0.000332	20.809748
2348.679169	-3.004800	3.198400	-9.609700	27.090834	0.000333	20.807026
2349.679735	-3.005600	3.197300	-9.609000	27.109773	0.000329	20.802839
2350.683434	-3.000100	3.197400	-9.591100	27.142358	0.000329	20.816171
2351.681479	-2.986300	3.196800	-9.545300	27.174066	0.000330	20.784052
2352.679229	-2.981700	3.196600	-9.530400	27.198862	0.000329	20.827009
2353.678812	-2.989400	3.195600	-9.550600	27.258576	0.000326	20.794139
2354.677164	-3.010200	3.196000	-9.619100	27.223798	0.000329	20.779071
2355.677775	-3.009200	3.193700	-9.609400	27.205168	0.000326	20.812015
2356.678935	-3.009900	3.195300	-9.615400	27.207972	0.000326	20.813413
2357.680146	-3.009300	3.192900	-9.606900	27.204030	0.000326	20.817982
2358.679904	-3.017500	3.194400	-9.639200	27.219740	0.000327	20.785895
2359.681718	-3.011000	3.191900	-9.609700	27.257556	0.000326	20.794534
2360.680954	-2.997100	3.192900	-9.567400	27.289016	0.000325	20.786351
2361.681813	-3.009700	3.192000	-9.606300	27.285619	0.000323	20.788149
2362.683612	-3.013700	3.191700	-9.617000	27.255255	0.000324	20.813556
2363.684818	-2.988400	3.191800	-9.536400	27.231220	0.000322	20.795545
2364.684168	-2.971200	3.192500	-9.484700	27.205764	0.000323	20.816408
2365.684398	-3.004200	3.189500	-9.581800	27.207063	0.000323	20.805386
2366.686631	-3.031000	3.188100	-9.661700	27.225148	0.000322	20.792282
2367.683585	-2.997200	3.189300	-9.558200	27.241244	0.000322	20.775282
2368.687356	-2.972900	3.188500	-9.478300	27.220220	0.000322	20.794913
2369.687681	-3.009800	3.189600	-9.599000	27.163926	0.000319	20.789974
2370.685069	-2.985800	3.189600	-9.522100	27.136412	0.000320	20.797863
2371.685416	-3.007700	3.186600	-9.583300	27.181100	0.000319	20.800135
2372.687880	-3.010100	3.189700	-9.599000	27.202565	0.000320	20.781421
2373.685633	-2.979000	3.186000	-9.490800	27.253947	0.000322	20.782370
2374.686076	-2.980800	3.187600	-9.500800	27.269478	0.000318	20.794199
2375.690890	-2.988000	3.185500	-9.517100	27.302230	0.000319	20.790160
2376.685650	-2.990800	3.185100	-9.524500	27.300645	0.000318	20.786669
2377.686462	-3.006500	3.184000	-9.571100	27.318312	0.000317	20.797802
2378.686035	-2.976800	3.184400	-9.478700	27.346918	0.000319	20.787223
2379.690505	-3.001500	3.181800	-9.548600	27.375841	0.000315	20.789766
2380.686370	-2.994500	3.181700	-9.526500	27.389387	0.000316	20.780634
2381.686849	-2.990400	3.182300	-9.516000	27.385819	0.000313	20.788424
2382.686491	-2.997200	3.181500	-9.535000	27.340246	0.000313	20.788572
2383.686287	-2.972900	3.182100	-9.458500	27.353475	0.000314	20.767266
2384.689070	-3.018000	3.180300	-9.596400	27.297236	0.000314	20.771860
2385.687753	-2.971800	3.180900	-9.451000	27.246376	0.000314	20.785660
2386.685394	-3.003700	3.178800	-9.547000	27.216905	0.000312	20.777353
2387.689908	-3.015700	3.178700	-9.585200	27.221846	0.000313	20.787065
2388.690631	-2.989600	3.176700	-9.495400	27.239263	0.000310	20.792256
2389.686154	-2.987500	3.180600	-9.501100	27.250356	0.000309	20.788241
2390.691697	-3.004400	3.177300	-9.544200	27.207532	0.000310	20.799220
2391.697078	-3.009400	3.175900	-9.556900	27.188554	0.000310	20.778709
2392.699210	-2.964400	3.178000	-9.419800	27.204313	0.000309	20.793611
2393.690626	-3.006400	3.177800	-9.551500	27.246990	0.000310	20.787700
2394.687414	-3.017400	3.173500	-9.574300	27.291244	0.000307	20.772945
2395.694654	-3.002800	3.175500	-9.533400	27.330318	0.000307	20.788069
2396.689514	-2.967300	3.174200	-9.418100	27.329554	0.000309	20.784455
2397.689377	-2.993600	3.173700	-9.499900	27.308367	0.000307	20.783057
2398.692774	-3.008600	3.173500	-9.547300	27.321345	0.000306	20.773826
2399.690152	-2.981000	3.173600	-9.459100	27.330650	0.000306	20.788876
2400.693538	-2.990600	3.171600	-9.484200	27.282815	0.000305	20.793390
2401.693750	-3.001000	3.169600	-9.510600	27.280312	0.000307	20.762422
2402.693547	-3.014900	3.169900	-9.555600	27.298150	0.000305	20.768512
2403.695233	-3.005800	3.171200	-9.531400	27.276283	0.000305	20.776387
2404.691713	-3.013600	3.168100	-9.546000	27.250908	0.000302	20.763665
2405.692460	-3.024600	3.167900	-9.579500	27.203517	0.000302	20.786646
2406.697789	-2.996600	3.167200	-9.489900	27.176793	0.000303	20.767353
2407.699318	-2.995300	3.167700	-9.487300	27.201362	0.000303	20.781160
2408.695638	-3.030200	3.165300	-9.590600	27.216171	0.000301	20.760494
2409.694590	-2.998600	3.167300	-9.497100	27.205249	0.000305	20.755671
2410.694635	-3.012300	3.164300	-9.529600	27.211677	0.000301	20.768776
2411.695041	-3.000200	3.165100	-9.494100	27.143412	0.000302	20.757487
2412.695674	-2.981900	3.165000	-9.436800	27.137137	0.000299	20.767297
2413.696571	-2.994200	3.165600	-9.476800	27.196708	0.000302	20.763676
2414.694890	-3.009900	3.162000	-9.515000	27.223927	0.000300	20.774933
2415.692990	-2.965200	3.163300	-9.379000	27.270288	0.000299	20.754710
2416.695271	-2.995600	3.161500	-9.469300	27.314897	0.000300	20.769237
2417.698435	-2.982900	3.162000	-9.431200	27.323595	0.000298	20.748114
2418.696294	-3.001100	3.162000	-9.487800	27.355873	0.000300	20.748342
2419.696513	-3.014900	3.160200	-9.526200	27.308829	0.000297	20.753175
2420.698743	-3.012600	3.159800	-9.518200	27.280523	0.000297	20.764531
2421.694577	-2.985200	3.160200	-9.431400	27.292185	0.000298	20.757769
2422.699819	-3.014600	3.159200	-9.522200	27.312625	0.000297	20.788288
2423.698920	-3.021800	3.157100	-9.539300	27.292349	0.000296	20.761728
2424.702623	-3.007700	3.154800	-9.486500	27.284213	0.000297	20.768717
2425.698997	-3.004900	3.156900	-9.485900	27.302524	0.000295	20.771963
2426.697351	-2.995500	3.155800	-9.452000	27.344045	0.000294	20.766315
2427.699565	-3.001500	3.157200	-9.475300	27.382266	0.000295	20.769677
2428.710287	-2.985700	3.154400	-9.416100	27.413674	0.000297	20.774721
2429.702140	-3.001700	3.154700	-9.468000	27.415192	0.000297	20.762023
2430.705091	-2.999900	3.152800	-9.456300	27.407491	0.000293	20.758069
2431.699836	-2.998500	3.152100	-9.450100	27.423222	0.000293	20.759196
2432.704187	-3.022100	3.150600	-9.519600	27.432844	0.000291	20.767454
2433.702156	-3.016200	3.150700	-9.502100	27.450031	0.000294	20.764356
2434.700884	-3.013500	3.150500	-9.492800	27.476773	0.000293	20.752853
2435.716559	-2.990000	3.151000	-9.420500	27.456556	0.000291	20.761911
2436.702218	-2.987900	3.149700	-9.410100	27.487777	0.000292	20.767718
2437.706008	-2.995000	3.149200	-9.430300	27.437526	0.000290	20.770742
2438.705113	-2.979800	3.148100	-9.380100	27.410832	0.000291	20.769017
2439.715323	-3.026800	3.146600	-9.522500	27.414554	0.000289	20.751898
2440.709472	-2.977300	3.147200	-9.369100	27.447068	0.000291	20.746201
2441.706725	-2.969100	3.146700	-9.341900	27.466887	0.000288	20.740061
2442.709325	-3.002800	3.145100	-9.442800	27.458930	0.000291	20.742488
2443.708239	-2.979600	3.144400	-9.368700	27.467162	0.000288	20.739865
2444.705913	-3.002700	3.144400	-9.441000	27.498983	0.000289	20.763345
2445.707666	-3.006000	3.142900	-9.446500	27.498163	0.000288	20.751140
2446.710662	-3.006500	3.141900	-9.444200	27.491987	0.000288	20.758203
2447.707818	-2.991200	3.142300	-9.398700	27.499943	0.000288	20.771424
2448.710521	-2.995600	3.141200	-9.409800	27.462265	0.000285	20.767655
2449.709558	-2.993700	3.140100	-9.399000	27.466562	0.000286	20.749692
2450.711740	-3.001800	3.139800	-9.423700	27.474972	0.000288	20.740135
2451.710548	-2.998100	3.137600	-9.405900	27.488559	0.000286	20.752857
2452.709798	-2.984300	3.139300	-9.365600	27.454951	0.000286	20.759822
2453.710362	-2.989300	3.137400	-9.376900	27.441779	0.000283	20.747518
2454.708839	-3.002900	3.136600	-9.417400	27.451034	0.000284	20.756355
2455.709157	-3.024500	3.134900	-9.480700	27.432457	0.000283	20.746201
2456.710227	-3.005000	3.134700	-9.419400	27.461531	0.000284	20.752218
2457.709944	-3.007000	3.133500	-9.421900	27.460239	0.000284	20.735745
2458.710724	-2.990700	3.134600	-9.373500	27.485102	0.000283	20.751276
2459.712370	-2.991800	3.132400	-9.370400	27.478033	0.000283	20.754121
2460.716181	-3.001700	3.131800	-9.399000	27.491156	0.000282	20.756418
2461.711319	-3.007300	3.131000	-9.414800	27.486963	0.000281	20.715214
2462.716566	-2.986900	3.131000	-9.350500	27.474618	0.000280	20.731719
2463.710446	-2.977500	3.131000	-9.321900	27.433469	0.000282	20.745796
2464.710599	-3.001900	3.130800	-9.397800	27.404572	0.000279	20.726682
2465.716398	-3.016500	3.127800	-9.433400	27.376917	0.000281	20.719723
2466.714632	-2.982600	3.129400	-9.332500	27.362923	0.000279	20.744528
2467.713985	-3.005300	3.126200	-9.394400	27.331179	0.000279	20.721128
2468.717987	-2.989900	3.126500	-9.347100	27.336413	0.000278	20.746309
2469.713583	-3.011800	3.126000	-9.414100	27.404665	0.000278	20.735311
2470.715771	-3.007200	3.124900	-9.396500	27.452794	0.000278	20.742954
2471.711946	-3.004100	3.123700	-9.381100	27.485069	0.000278	20.730853
2472.711523	-3.017000	3.122000	-9.418500	27.513444	0.000280	20.741383
2473.714848	-2.982500	3.123500	-9.314500	27.532839	0.000278	20.741931
2474.714191	-2.992200	3.121500	-9.338700	27.572058	0.000276	20.715957
2475.713458	-2.997900	3.121000	-9.355600	27.546928	0.000277	20.721967
2476.713928	-3.017700	3.119600	-9.412600	27.548146	0.000277	20.737418
2477.713902	-2.980900	3.119900	-9.298800	27.553208	0.000277	20.718328
2478.721799	-2.992500	3.117600	-9.327500	27.555271	0.000276	20.742216
2479.715256	-3.009900	3.117200	-9.381300	27.577242	0.000278	20.744882
2480.718965	-2.989200	3.118200	-9.319900	27.596789	0.000277	20.718556
2481.717746	-3.007500	3.116200	-9.371000	27.547706	0.000275	20.719430
2482.718587	-2.997700	3.115000	-9.337400	27.505763	0.000276	20.741717
2483.719807	-3.000900	3.113000	-9.341400	27.497874	0.000275	20.743262
2484.721289	-2.988500	3.113500	-9.303000	27.438638	0.000276	20.735349
2485.718975	-3.018500	3.111400	-9.390600	27.421939	0.000274	20.715230
2486.724597	-2.980000	3.112700	-9.275200	27.372401	0.000274	20.754063
2487.721758	-3.021400	3.109300	-9.393700	27.400583	0.000275	20.725514
2488.726420	-3.016300	3.108800	-9.376500	27.393912	0.000274	20.732226
2489.721784	-3.016200	3.108300	-9.374400	27.450420	0.000275	20.722072
2490.723177	-3.010700	3.107400	-9.353600	27.427320	0.000275	20.728229
2491.720550	-3.026200	3.106100	-9.397200	27.439329	0.000274	20.709964
2492.722694	-3.012300	3.106700	-9.357100	27.405517	0.000273	20.707716
2493.725879	-3.011900	3.104700	-9.349900	27.377115	0.000273	20.734622
2494.721337	-3.018800	3.104500	-9.370800	27.374287	0.000274	20.717077
2495.721702	-2.982600	3.105100	-9.260000	27.387697	0.000274	20.733888
2496.726348	-3.019400	3.101800	-9.364700	27.400552	0.000273	20.729276
2497.723851	-2.985600	3.101400	-9.258600	27.452568	0.000273	20.735613
2498.723362	-2.974600	3.101300	-9.224800	27.460604	0.000274	20.702919
2499.726421	-2.997500	3.099900	-9.290700	27.527600	0.000271	20.715321
2500.726991	-3.008600	3.098700	-9.321600	27.555153	0.000271	20.721707
2501.726686	-2.997100	3.099300	-9.288400	27.546628	0.000272	20.733045
2502.726001	-2.993100	3.098000	-9.271700	27.560734	0.000272	20.703140
2503.725767	-2.997400	3.097200	-9.281700	27.592706	0.000273	20.725353
2504.725351	-2.996100	3.096900	-9.277600	27.615594	0.000271	20.721830
2505.726293	-2.982100	3.095000	-9.228700	27.638286	0.000273	20.705782
2506.728595	-2.989900	3.094700	-9.252100	27.664600	0.000273	20.712821
2507.724672	-3.020900	3.092200	-9.339500	27.678192	0.000272	20.703737
2508.723446	-3.004000	3.092200	-9.287800	27.691972	0.000271	20.728511
2509.723510	-3.015200	3.090200	-9.315400	27.706953	0.000270	20.717032
2510.734009	-2.992400	3.089600	-9.244400	27.717172	0.000272	20.722575
2511.724824	-3.000900	3.089000	-9.269600	27.686374	0.000270	20.713867
2512.738631	-2.975400	3.087300	-9.184700	27.676367	0.000272	20.728929
2513.728960	-2.988100	3.088100	-9.226000	27.688576	0.000270	20.718929
2514.726514	-3.008100	3.087700	-9.286900	27.685700	0.000271	20.708922
2515.727462	-3.027100	3.085400	-9.337700	27.723242	0.000270	20.704026
2516.729646	-3.021000	3.084100	-9.315500	27.749261	0.000272	20.716934
2517.726242	-3.020100	3.081900	-9.306300	27.758402	0.000269	20.732772
2518.728171	-3.007400	3.083800	-9.273400	27.759522	0.000269	20.715880
2519.725268	-3.024000	3.080900	-9.315800	27.766136	0.000267	20.717795
2520.732927	-3.016400	3.080100	-9.289300	27.816378	0.000271	20.732797
2521.727627	-2.976900	3.080500	-9.169000	27.840099	0.000268	20.725849
2522.725838	-2.991000	3.079500	-9.209900	27.810198	0.000269	20.726576
2523.724914	-2.978700	3.079500	-9.171900	27.801148	0.000269	20.718891
2524.733140	-3.020500	3.077000	-9.291600	27.800475	0.000268	20.705410
2525.728124	-3.013700	3.074700	-9.265900	27.810809	0.000269	20.708698
2526.729309	-2.999600	3.075200	-9.223800	27.831019	0.000268	20.718133
2527.731284	-2.980400	3.075900	-9.165900	27.828265	0.000267	20.717258
2528.734726	-2.995500	3.073000	-9.203500	27.805350	0.000267	20.707947
2529.732635	-3.022500	3.071100	-9.280400	27.778017	0.000267	20.709837
2530.735874	-3.009100	3.069800	-9.236400	27.813255	0.000267	20.724438
2531.732186	-3.013100	3.070300	-9.250200	27.815862	0.000266	20.708094
2532.733035	-3.013800	3.069400	-9.249100	27.817391	0.000267	20.707736
2533.732945	-2.998100	3.067300	-9.195300	27.831396	0.000268	20.708081
2534.733577	-2.989800	3.067200	-9.168600	27.821160	0.000264	20.723385
2535.738479	-3.017100	3.066300	-9.249800	27.833679	0.000269	20.705636
2536.740955	-3.008100	3.065000	-9.218500	27.834517	0.000268	20.707428
2537.734909	-3.006400	3.063100	-9.208200	27.887080	0.000267	20.715760
2538.738526	-2.998200	3.062400	-9.180300	27.896857	0.000266	20.723230
2539.735132	-2.977900	3.061400	-9.115100	27.912299	0.000270	20.726919
2540.737611	-3.002700	3.060500	-9.188900	27.941622	0.000268	20.700006
2541.736373	-2.977500	3.059500	-9.108800	27.893871	0.000267	20.726863
2542.736488	-2.980900	3.059400	-9.118200	27.863768	0.000266	20.703677
2543.738176	-3.035500	3.055600	-9.273700	27.803359	0.000266	20.724436
2544.739460	-2.969900	3.056400	-9.076800	27.759995	0.000267	20.715408
2545.737506	-2.975100	3.057100	-9.094400	27.777519	0.000266	20.715500
2546.743594	-2.999500	3.054900	-9.162100	27.767032	0.000265	20.717274
2547.742607	-2.994800	3.052900	-9.142100	27.729087	0.000267	20.726979
2548.739768	-3.009900	3.051800	-9.184300	27.686502	0.000266	20.724903
2549.741855	-2.996700	3.051400	-9.142700	27.672586	0.000265	20.740298
2550.744758	-2.988800	3.050800	-9.116800	27.656670	0.000264	20.716695
2551.742583	-3.002700	3.048100	-9.151300	27.691930	0.000264	20.719933
2552.742927	-3.007100	3.046500	-9.160200	27.704579	0.000265	20.724601
2553.752681	-3.005900	3.047200	-9.158600	27.717570	0.000265	20.709224
2554.748347	-2.994900	3.045000	-9.118500	27.717527	0.000266	20.726726
2555.745367	-2.993100	3.044000	-9.109100	27.756750	0.000265	20.714988
2556.747164	-2.994400	3.043300	-9.111800	27.749861	0.000263	20.714218
2557.746572	-3.018900	3.041200	-9.180700	27.778424	0.000267	20.711194
2558.747716	-3.012600	3.040200	-9.158000	27.793525	0.000265	20.724496
2559.744807	-2.991800	3.039100	-9.091500	27.795012	0.000264	20.716035
2560.744030	-3.006700	3.037700	-9.132200	27.853133	0.000263	20.688704
2561.744340	-3.010100	3.037200	-9.139900	27.853237	0.000264	20.731486
2562.745144	-3.021500	3.035600	-9.171500	27.860175	0.000263	20.732305
2563.745081	-2.995200	3.035100	-9.089600	27.864520	0.000262	20.723874
2564.745691	-3.005600	3.032800	-9.114400	27.850477	0.000261	20.722069
2565.746139	-2.993700	3.033100	-9.078800	27.821763	0.000262	20.724465
2566.745852	-3.006900	3.031000	-9.113500	27.821243	0.000263	20.722519
2567.750997	-3.006800	3.029500	-9.107900	27.807457	0.000264	20.736147
2568.746637	-3.006600	3.028300	-9.104500	27.749652	0.000264	20.730605
2569.746806	-3.001200	3.027800	-9.086200	27.739317	0.000262	20.721152
2570.747363	-3.013300	3.027700	-9.122000	27.719797	0.000265	20.732803
2571.748075	-2.991700	3.025200	-9.049700	27.677463	0.000262	20.714858
2572.745926	-2.986400	3.024800	-9.032900	27.663376	0.000263	20.737668
2573.751303	-2.988200	3.023800	-9.033700	27.689714	0.000263	20.757534
2574.748413	-2.979400	3.021500	-9.001200	27.714932	0.000264	20.730752
2575.749113	-3.005600	3.020200	-9.077000	27.696311	0.000264	20.713436
2576.746009	-2.981200	3.021100	-9.005400	27.677187	0.000263	20.730229
2577.748143	-3.011500	3.017500	-9.086500	27.654667	0.000264	20.744078
2578.748788	-2.977800	3.017500	-8.984100	27.625158	0.000264	20.735248
2579.757226	-2.989200	3.016800	-9.017000	27.645041	0.000264	20.731072
2580.748296	-2.985300	3.014900	-8.999000	27.699602	0.000263	20.736190
2581.749935	-2.983500	3.012900	-8.988100	27.713365	0.000263	20.748143
2582.755202	-2.987800	3.013100	-9.001000	27.727493	0.000264	20.736756
2583.750751	-3.019400	3.010500	-9.089400	27.759233	0.000262	20.744989
2584.751236	-3.002100	3.010000	-9.035700	27.789069	0.000263	20.747514
2585.751503	-2.990300	3.009700	-8.999400	27.836752	0.000264	20.754251
2586.751074	-2.973000	3.007600	-8.941100	27.874013	0.000263	20.745758
2587.752094	-3.034500	3.004500	-9.116200	27.888000	0.000264	20.736127
2588.751245	-3.005200	3.003800	-9.026600	27.860993	0.000262	20.738818
2589.755478	-3.015100	3.002800	-9.053400	27.889511	0.000263	20.722000
2590.752151	-2.993000	3.002500	-8.985700	27.912197	0.000262	20.748154
2591.754166	-3.011700	3.000000	-9.034600	27.922903	0.000260	20.753714
2592.766041	-3.009400	2.999700	-9.026800	27.889131	0.000263	20.745327
2593.757287	-2.993400	2.999400	-8.977500	27.865324	0.000263	20.746496
2594.756763	-2.999200	2.997600	-8.989300	27.814485	0.000264	20.747962
2595.758214	-2.981200	2.996700	-8.932300	27.759960	0.000261	20.737659
2596.763642	-2.988700	2.994900	-8.950200	27.711704	0.000263	20.752636
2597.757086	-2.967100	2.993900	-8.882600	27.764169	0.000262	20.735257
2598.761023	-2.974600	2.992700	-8.901000	27.768287	0.000262	20.748411
2599.757614	-3.021700	2.990200	-9.034400	27.814429	0.000265	20.746957
2600.758317	-3.003000	2.988000	-8.971800	27.865440	0.000263	20.762260
2601.754320	-2.979000	2.988800	-8.903000	27.870298	0.000263	20.752925
2602.755587	-3.004800	2.987000	-8.974000	27.897720	0.000261	20.761558
2603.762504	-3.017000	2.984000	-9.000700	27.930128	0.000261	20.751502
2604.758320	-2.993000	2.984700	-8.932400	27.957590	0.000260	20.766342
2605.758635	-3.012300	2.982400	-8.982700	27.971423	0.000261	20.753712
2606.757288	-3.033500	2.979700	-9.037900	27.997307	0.000261	20.757481
2607.761443	-2.984200	2.979700	-8.891300	28.024474	0.000260	20.762542
2608.761713	-2.994300	2.978200	-8.917000	28.031302	0.000261	20.755665
2609.758227	-2.965100	2.978200	-8.829200	28.035137	0.000261	20.759999
2610.766323	-3.004700	2.975400	-8.939400	28.063473	0.000263	20.751064
2611.763150	-2.995400	2.974800	-8.909200	28.038588	0.000262	20.739290
2612.761002	-3.000600	2.973300	-8.919800	28.023337	0.000261	20.760923
2613.763308	-3.003100	2.973200	-8.927600	28.016198	0.000262	20.756582
2614.764203	-3.016300	2.970400	-8.957700	28.043292	0.000260	20.758250
2615.762267	-2.979000	2.968600	-8.842600	28.050168	0.000260	20.723919
2616.765888	-3.033000	2.966900	-8.997600	28.013940	0.000260	20.757154
2617.768279	-3.001200	2.964900	-8.896100	27.966492	0.000260	20.753965
2618.764977	-3.028400	2.964000	-8.973700	27.932574	0.000261	20.757758
2619.764410	-3.012400	2.963000	-8.924900	27.964112	0.000261	20.757734
2620.767681	-3.014900	2.962200	-8.929900	27.979731	0.000261	20.767291
2621.770160	-2.996200	2.961100	-8.871600	27.995136	0.000259	20.753873
2622.768150	-2.991500	2.958700	-8.849600	27.947931	0.000261	20.765155
2623.769725	-3.004200	2.956200	-8.879900	27.919610	0.000260	20.774108
2624.766891	-2.990300	2.956200	-8.838700	27.885893	0.000261	20.740171
2625.770497	-2.996200	2.955100	-8.853300	27.883513	0.000258	20.759114
2626.768859	-2.981400	2.954200	-8.806600	27.899415	0.000262	20.758997
2627.766587	-3.004200	2.951300	-8.865600	27.912233	0.000261	20.766208
2628.774350	-2.981000	2.949200	-8.790000	27.898742	0.000262	20.757845
2629.772125	-2.988000	2.948500	-8.808900	27.894949	0.000260	20.768252
2630.771151	-3.016700	2.946600	-8.887900	27.914166	0.000259	20.761990
2631.782237	-3.071100	2.943900	-9.039900	27.923992	0.000261	20.768561
2632.770489	-2.977400	2.944200	-8.765400	27.932472	0.000260	20.747223
2633.767876	-2.997200	2.940800	-8.813000	27.970158	0.000262	20.748172
2634.769013	-2.991400	2.939600	-8.791600	27.971969	0.000261	20.756159
2635.780204	-2.983600	2.939700	-8.769400	27.976784	0.000259	20.751996
2636.769769	-2.991900	2.939300	-8.793300	27.984859	0.000260	20.767711
2637.770855	-2.994700	2.934900	-8.788100	28.006859	0.000258	20.755242
2638.777097	-2.981500	2.934200	-8.747500	28.026392	0.000260	20.780594
2639.769906	-2.995000	2.932700	-8.782700	28.027909	0.000259	20.763629
2640.771528	-3.001200	2.931900	-8.798300	28.114707	0.000261	20.769923
2641.774930	-2.979300	2.930700	-8.730100	28.116584	0.000259	20.765649
2642.775558	-3.008000	2.928100	-8.806500	28.144104	0.000259	20.790035
2643.776345	-2.990800	2.927400	-8.754400	28.123129	0.000259	20.767022
2644.777349	-2.989700	2.926000	-8.746800	28.043178	0.000261	20.768568
2645.777503	-3.001100	2.922300	-8.768500	27.967192	0.000258	20.759411
2646.776997	-3.024500	2.920000	-8.830200	27.934761	0.000259	20.775132
2647.793728	-2.983900	2.921000	-8.714100	27.926508	0.000260	20.756868
2648.777718	-2.992000	2.918300	-8.730800	27.971627	0.000261	20.791377
2649.778702	-3.028300	2.917800	-8.834000	27.978968	0.000260	20.791654
2650.778177	-3.012700	2.915900	-8.782900	28.012438	0.000258	20.765125
2651.781338	-3.033600	2.913100	-8.836300	28.063579	0.000260	20.775828
2652.777960	-3.011200	2.912000	-8.768000	28.112565	0.000259	20.774879
2653.778806	-3.014200	2.910600	-8.771800	28.135075	0.000258	20.757711
2654.778801	-3.018600	2.908400	-8.776700	28.165910	0.000259	20.776425
2655.781143	-3.000300	2.908100	-8.724400	28.208873	0.000259	20.791229
2656.781734	-2.953600	2.906700	-8.584300	28.227118	0.000258	20.776407
2657.780648	-3.003200	2.903100	-8.717500	28.233736	0.000260	20.794450
2658.779618	-2.990800	2.901600	-8.677300	28.202133	0.000259	20.788711
2659.782483	-3.007400	2.900000	-8.720200	28.177318	0.000259	20.781746
2660.782165	-2.997600	2.899000	-8.689500	28.117826	0.000258	20.784917
2661.781789	-2.994300	2.896600	-8.672000	28.133516	0.000256	20.781746
2662.787340	-3.001000	2.894500	-8.684700	28.180590	0.000259	20.779825
2663.781887	-2.998400	2.893400	-8.673000	28.141352	0.000258	20.785841
2664.783668	-2.991700	2.892900	-8.653100	28.152802	0.000259	20.792153
2665.781817	-2.965900	2.890100	-8.570200	28.151218	0.000260	20.791506
2666.783330	-3.013900	2.887200	-8.701100	28.169342	0.000260	20.776561
2667.788238	-2.982800	2.886800	-8.610200	28.153409	0.000259	20.780435
2668.785304	-2.979800	2.884500	-8.593600	28.128122	0.000260	20.791962
2669.784040	-2.994400	2.881500	-8.627300	28.150778	0.000260	20.783003
2670.788717	-3.002800	2.879000	-8.643300	28.150258	0.000260	20.788169
2671.786733	-2.984000	2.878400	-8.587000	28.193711	0.000261	20.799672
2672.782636	-3.021900	2.877200	-8.692900	28.184169	0.000260	20.805239
2673.789635	-2.998500	2.876000	-8.623600	28.200360	0.000260	20.796409
2674.783313	-3.001700	2.872800	-8.622400	28.250428	0.000262	20.778538
2675.784588	-2.978300	2.871900	-8.551500	28.286446	0.000256	20.812906
2676.791116	-2.975500	2.869600	-8.537700	28.288800	0.000261	20.795836
2677.785119	-2.993500	2.866600	-8.580000	28.260569	0.000260	20.793016
2678.785744	-2.998000	2.864400	-8.586800	28.223333	0.000261	20.796778
2679.795492	-2.986800	2.864000	-8.553200	28.244434	0.000260	20.795264
2680.788561	-3.017700	2.860400	-8.630900	28.274959	0.000261	20.810823
2681.787504	-3.012400	2.859000	-8.611800	28.315734	0.000263	20.783126
2682.787917	-3.015500	2.856000	-8.611400	28.331439	0.000261	20.804154
2683.789702	-3.006000	2.855200	-8.582000	28.323189	0.000260	20.790158
2684.791844	-2.998300	2.852000	-8.549800	28.305936	0.000261	20.790804
2685.788108	-3.002400	2.851000	-8.559200	28.298077	0.000258	20.805650
2686.792869	-2.987800	2.848700	-8.510000	28.318693	0.000258	20.799855
2687.788782	-2.978200	2.847600	-8.479700	28.307782	0.000259	20.812577
2688.787076	-3.001900	2.846700	-8.544900	28.329151	0.000260	20.812756
2689.793450	-3.013700	2.841400	-8.561800	28.341192	0.000257	20.804492
2690.791950	-3.014500	2.840400	-8.561400	28.368198	0.000260	20.810347
2691.790493	-2.991900	2.839600	-8.494600	28.380863	0.000261	20.813143
2692.794662	-2.991700	2.836700	-8.485900	28.421976	0.000260	20.810446
2693.790333	-3.011700	2.833300	-8.532200	28.408186	0.000259	20.820741
2694.799615	-2.996500	2.832400	-8.485800	28.357929	0.000259	20.818025
2695.794699	-2.980100	2.830600	-8.433900	28.294081	0.000258	20.813481
2696.792671	-2.988900	2.829000	-8.454900	28.243244	0.000259	20.830574
2697.801682	-3.007400	2.824300	-8.492300	28.205714	0.000258	20.819817
2698.792308	-2.993900	2.822400	-8.448700	28.149019	0.000260	20.819638
2699.799962	-3.012800	2.820600	-8.496900	28.085304	0.000260	20.809077
2700.792633	-2.988200	2.820300	-8.427100	28.103039	0.000260	20.817920
2701.795115	-2.970000	2.818300	-8.368600	28.152438	0.000259	20.809804
2702.797298	-3.003900	2.813100	-8.449300	28.195444	0.000259	20.815167
2703.794905	-2.990200	2.812800	-8.410000	28.184043	0.000259	20.823603
2704.793501	-2.994800	2.809800	-8.414100	28.201064	0.000258	20.806601
2705.797101	-3.012800	2.807300	-8.455900	28.175650	0.000260	20.836964
2706.794751	-3.009600	2.802900	-8.434500	28.250442	0.000259	20.846355
2707.795993	-3.025200	2.801000	-8.472300	28.303106	0.000259	20.813559
2708.800449	-2.990600	2.798500	-8.368800	28.364918	0.000259	20.822217
2709.796315	-3.026300	2.795800	-8.459700	28.431831	0.000258	20.821792
2710.796008	-2.981200	2.796100	-8.335000	28.489196	0.000259	20.836884
2711.801520	-3.039600	2.790400	-8.480800	28.520528	0.000259	20.823393
2712.796415	-3.025700	2.787300	-8.433200	28.570728	0.000258	20.829852
2713.795717	-3.005000	2.786500	-8.372800	28.592726	0.000260	20.833042
2714.803295	-2.976700	2.784200	-8.286000	28.595056	0.000258	20.836810
2715.801855	-3.000900	2.781800	-8.346600	28.613026	0.000260	20.823141
2716.803479	-3.003400	2.778200	-8.342700	28.616064	0.000261	20.820510
2717.804194	-2.994800	2.776500	-8.313900	28.532212	0.000258	20.853651
2718.808413	-3.006900	2.771200	-8.331600	28.461642	0.000258	20.832371
2719.798325	-3.004600	2.770700	-8.324300	28.406887	0.000259	20.833657
2720.800016	-2.997700	2.765600	-8.289500	28.388247	0.000259	20.823897
2721.804979	-2.996400	2.764400	-8.280700	28.358465	0.000260	20.847487
2722.802673	-2.967500	2.762600	-8.197400	28.395983	0.000261	20.833109
2723.802512	-3.006600	2.757300	-8.288100	28.421728	0.000259	20.839592
2724.803551	-2.997200	2.755700	-8.257800	28.481527	0.000260	20.859506
2725.804389	-3.028800	2.751000	-8.330300	28.529974	0.000260	20.833379
2726.802590	-2.998300	2.748700	-8.239200	28.580068	0.000258	20.870552
2727.805743	-2.993700	2.745600	-8.218100	28.649727	0.000259	20.851095
2728.804620	-2.983400	2.742300	-8.180500	28.681592	0.000260	20.839094
2729.806673	-3.016900	2.739200	-8.261500	28.739835	0.000258	20.856033
2730.805146	-2.984000	2.736100	-8.163800	28.752838	0.000259	20.853957
2731.808670	-3.046300	2.729900	-8.314700	28.748626	0.000261	20.832646
2732.809726	-3.001500	2.729600	-8.191600	28.694014	0.000260	20.858717
2733.806758	-2.983500	2.728500	-8.138600	28.645330	0.000259	20.858046
2734.831111	-2.987400	2.724000	-8.135600	28.631800	0.000260	20.853902
2735.809479	-3.034100	2.719500	-8.249600	28.674817	0.000258	20.863563
2736.806925	-3.004900	2.717400	-8.164700	28.681750	0.000258	20.859166
2737.809824	-2.991300	2.713400	-8.115600	28.656451	0.000256	20.852177
2738.808456	-3.020800	2.708800	-8.181700	28.633554	0.000260	20.847608
2739.812149	-3.004500	2.705500	-8.126500	28.578179	0.000258	20.845891
2740.811263	-2.997500	2.702800	-8.100400	28.547998	0.000258	20.863858
2741.808925	-3.025400	2.698200	-8.161900	28.503581	0.000259	20.869387
2742.809542	-3.002200	2.694000	-8.085700	28.489731	0.000258	20.875354
2743.812251	-3.006900	2.690700	-8.089600	28.494562	0.000260	20.858882
2744.809297	-3.001900	2.686900	-8.064200	28.535946	0.000259	20.860730
2745.809474	-3.011500	2.684100	-8.081300	28.601357	0.000257	20.863543
2746.810263	-3.015400	2.679000	-8.077100	28.607508	0.000259	20.861678
2747.813087	-2.996800	2.676200	-8.018900	28.633914	0.000260	20.859350
2748.809339	-2.990400	2.672300	-7.989800	28.636383	0.000261	20.861837
2749.810216	-2.997300	2.667800	-7.995200	28.619882	0.000258	20.877933
2750.813590	-2.987000	2.664700	-7.958800	28.596116	0.000259	20.870593
2751.814830	-2.975600	2.660700	-7.916300	28.583851	0.000258	20.870568
2752.814178	-2.974100	2.656800	-7.900600	28.596709	0.000262	20.894422
2753.812940	-3.008700	2.650400	-7.973400	28.655525	0.000261	20.875426
2754.821540	-2.994900	2.647400	-7.926500	28.675939	0.000260	20.865167
2755.814065	-2.968700	2.643400	-7.846100	28.735692	0.000262	20.887420
2756.814200	-2.954900	2.639900	-7.799900	28.779543	0.000261	20.882278
2757.812306	-3.014100	2.634000	-7.938400	28.778113	0.000261	20.885105
2758.814433	-2.997300	2.629800	-7.881500	28.744814	0.000258	20.897081
2759.818238	-3.003900	2.624900	-7.883100	28.676954	0.000261	20.875198
2760.815442	-2.973200	2.620600	-7.790300	28.676250	0.000258	20.894876
2761.815130	-2.997800	2.614100	-7.835600	28.652144	0.000259	20.875813
2762.818902	-3.020900	2.609100	-7.881100	28.618907	0.000260	20.869840
2763.818211	-2.992400	2.603900	-7.790100	28.593565	0.000261	20.901686
2764.816656	-2.992100	2.599800	-7.778500	28.641058	0.000261	20.885984
2765.820632	-3.006600	2.594500	-7.799300	28.654980	0.000260	20.903797
2766.817701	-2.979300	2.590400	-7.716100	28.681055	0.000261	20.897819
2767.817657	-2.989600	2.584600	-7.726500	28.711103	0.000260	20.868818
2768.824312	-3.005600	2.579800	-7.752400	28.741004	0.000260	20.875227
2769.821575	-3.030000	2.572800	-7.793400	28.771448	0.000260	20.868909
2770.817911	-3.041200	2.566600	-7.804400	28.803205	0.000262	20.875769
2771.820140	-2.981200	2.563800	-7.642500	28.836349	0.000262	20.877862
2772.825313	-2.992500	2.557800	-7.652800	28.841973	0.000262	20.885423
2773.820304	-3.008600	2.551600	-7.675900	28.890128	0.000262	20.879881
2774.820788	-3.015500	2.545000	-7.673400	28.915439	0.000262	20.869346
2775.822537	-3.021600	2.539200	-7.671000	28.947540	0.000262	20.885564
2776.821702	-2.998500	2.534800	-7.599500	28.964972	0.000262	20.871359
2777.822666	-3.023000	2.526300	-7.636200	28.999602	0.000263	20.865947
2778.822824	-2.991300	2.521400	-7.541200	28.979213	0.000261	20.880964
2779.826509	-3.034300	2.513700	-7.626400	28.939160	0.000261	20.863847
2780.822962	-3.032500	2.509000	-7.607300	28.900212	0.000262	20.875816
2781.823713	-2.997100	2.504100	-7.503900	28.884265	0.000261	20.866864
2782.825313	-3.010800	2.497300	-7.518200	28.854435	0.000262	20.863840
