LabVIEW Measurement	
Writer_Version	2
Reader_Version	2
Separator	Tab
Decimal_Separator	.
Multi_Headings	No
X_Columns	One
Time_Pref	Absolute
Operator	admin
Description	Clolumns are: time, Current, Voltage, Power, Battery Temp, and Chamber Temp
Date	2024/08/16
Time	13:06:06.104549407958984375
***End_of_Header***	
	
Channels	6						
Samples	1	1	1	1	1	1	
Date	2024/09/05	2024/09/05	2024/09/05	2024/09/05	2024/09/05	2024/09/05	
Time	23:38:15.4551935195922851563	23:38:15.4622874259948730469	23:38:15.4682369232177734375	23:38:15.4229645729064941407	23:38:15.4229645729064941407	23:38:15.4229645729064941407	
X_Dimension	Time	Time	Time	Time	Time	Time	
X0	0.0000000000000000E+0	0.0000000000000000E+0	0.0000000000000000E+0	0.0000000000000000E+0	0.0000000000000000E+0	0.0000000000000000E+0	
Delta_X	1.000000	1.000000	1.000000	1.000000	1.000000	1.000000	
***End_of_Header***							
X_Value	Untitled	Untitled 1	Untitled 2	Untitled 3	Untitled 4	Untitled 5	Comment
0.000000	0.025422	4.099900	0.104220	21.014261	0.000923	20.814188
0.983568	-3.005700	3.929500	-11.810000	21.041980	0.000924	20.816309
1.986694	-2.996900	3.921400	-11.751000	21.046921	0.000924	20.806078
2.984698	-3.005900	3.916900	-11.773000	21.031128	0.000922	20.798816
3.997293	-2.990300	3.912500	-11.699000	21.021348	0.000922	20.799940
4.998768	-2.984700	3.910000	-11.669000	21.040909	0.000922	20.806228
5.996867	-3.003500	3.906200	-11.731000	21.031053	0.000920	20.803009
6.998881	-2.988600	3.904700	-11.668000	21.044401	0.000917	20.803084
7.991373	-3.018600	3.901300	-11.776000	21.034122	0.000920	20.785689
8.986258	-3.016100	3.900700	-11.763000	21.060719	0.000919	20.803758
9.988128	-3.014800	3.899000	-11.754000	21.052909	0.000918	20.800688
11.002284	-2.982400	3.897100	-11.620000	21.051187	0.000918	20.807500
11.987302	-2.980600	3.896000	-11.611000	21.051536	0.000916	20.806426
12.999870	-2.995900	3.895100	-11.668000	21.055155	0.000914	20.794874
13.989278	-2.986300	3.893100	-11.625000	21.064610	0.000914	20.796270
14.989470	-3.001800	3.890800	-11.678000	21.072496	0.000914	20.801787
15.991287	-2.993400	3.891100	-11.646000	21.071772	0.000912	20.797743
16.992997	-3.007800	3.887800	-11.693000	21.074441	0.000913	20.803258
17.990153	-3.016200	3.888500	-11.727000	21.072022	0.000910	20.816011
18.991961	-3.008500	3.886500	-11.691000	21.081153	0.000910	20.817558
19.996704	-2.995200	3.886800	-11.641000	21.089187	0.000910	20.803309
20.995919	-3.002300	3.884000	-11.660000	21.090784	0.000909	20.806329
21.992888	-2.999200	3.882900	-11.645000	21.103632	0.000910	20.812067
22.999190	-3.007400	3.883400	-11.678000	21.093003	0.000910	20.795746
23.993897	-3.004000	3.882400	-11.662000	21.083299	0.000909	20.809748
24.992476	-2.982100	3.882100	-11.575000	21.124813	0.000909	20.808599
25.995801	-2.983400	3.882100	-11.580000	21.118326	0.000909	20.802584
26.992784	-3.006300	3.879900	-11.663000	21.139533	0.000907	20.799141
27.993871	-2.987300	3.881000	-11.592000	21.140779	0.000908	20.817932
29.003774	-3.012600	3.879000	-11.684000	21.151931	0.000906	20.805853
29.998765	-2.975700	3.880000	-11.545000	21.138684	0.000906	20.796396
30.992276	-2.971100	3.878200	-11.522000	21.165228	0.000905	20.793550
31.997522	-2.985500	3.876700	-11.572000	21.153926	0.000905	20.786986
33.005150	-2.996800	3.876100	-11.615000	21.169943	0.000907	20.795896
34.005423	-3.006000	3.876600	-11.651000	21.163082	0.000904	20.810843
34.998621	-3.017300	3.876300	-11.695000	21.169020	0.000905	20.786437
35.997350	-3.017200	3.873800	-11.687000	21.181718	0.000902	20.787286
37.000242	-2.999600	3.876200	-11.625000	21.189226	0.000904	20.794323
37.994641	-3.004000	3.875600	-11.641000	21.188328	0.000904	20.786312
38.999935	-2.990400	3.873500	-11.581000	21.203745	0.000903	20.790354
39.995158	-2.995000	3.873700	-11.601000	21.203995	0.000903	20.804355
40.999897	-3.006100	3.873100	-11.642000	21.217963	0.000901	20.779447
41.998981	-2.985000	3.872000	-11.557000	21.216193	0.000903	20.784789
43.005816	-3.009700	3.871700	-11.651000	21.209905	0.000903	20.770912
43.999949	-2.993300	3.871800	-11.589000	21.247873	0.000902	20.778075
45.002680	-3.007300	3.872100	-11.643000	21.260471	0.000902	20.779772
46.000761	-3.012700	3.868100	-11.652000	21.242635	0.000900	20.792749
47.001891	-2.998700	3.869800	-11.602000	21.248671	0.000901	20.782666
47.998002	-2.998900	3.868400	-11.600000	21.275637	0.000901	20.779297
49.003593	-3.020200	3.867900	-11.680000	21.269151	0.000901	20.779920
50.016557	-3.015500	3.868800	-11.665000	21.277283	0.000899	20.770512
51.006399	-2.991000	3.868600	-11.569000	21.282722	0.000900	20.795868
52.000071	-2.977200	3.870200	-11.521000	21.277282	0.000899	20.766243
53.011743	-3.001900	3.866700	-11.607000	21.290154	0.000900	20.768690
54.002107	-3.022600	3.866200	-11.685000	21.274937	0.000899	20.792347
55.003870	-3.003600	3.867800	-11.616000	21.288357	0.000901	20.779694
56.013767	-2.997700	3.868100	-11.594000	21.308238	0.000899	20.794842
57.008255	-3.006400	3.866300	-11.623000	21.292747	0.000900	20.778396
58.009787	-2.992100	3.867500	-11.570000	21.309011	0.000899	20.764321
59.000785	-2.991800	3.865600	-11.563000	21.316818	0.000899	20.775451
60.007244	-2.990400	3.865700	-11.558000	21.318265	0.000899	20.784959
61.000009	-3.004900	3.865600	-11.615000	21.315171	0.000900	20.771432
62.008025	-2.995400	3.864900	-11.575000	21.338295	0.000898	20.790300
63.016624	-2.998300	3.864200	-11.584000	21.346277	0.000898	20.770784
64.013852	-2.987200	3.864900	-11.544000	21.328714	0.000898	20.774550
65.002474	-3.009600	3.863000	-11.625000	21.341511	0.000900	20.761749
66.015979	-3.003900	3.862100	-11.600000	21.352461	0.000900	20.769384
67.004541	-2.986400	3.863800	-11.538000	21.373237	0.000897	20.777844
68.025869	-3.007000	3.862400	-11.613000	21.371791	0.000900	20.770232
69.008303	-3.042700	3.861500	-11.746000	21.386531	0.000899	20.774074
70.012691	-2.985600	3.862600	-11.531000	21.364581	0.000897	20.789572
71.006844	-2.995800	3.862700	-11.571000	21.348816	0.000898	20.786602
72.008564	-3.003200	3.860900	-11.594000	21.391468	0.000898	20.793713
73.010177	-3.006200	3.862400	-11.609000	21.405860	0.000899	20.783456
74.010207	-2.971800	3.863200	-11.479000	21.427608	0.000896	20.763490
75.013206	-2.972400	3.861600	-11.477000	21.418979	0.000896	20.778564
76.016887	-2.991700	3.861500	-11.551000	21.453697	0.000898	20.774421
77.014712	-2.958200	3.863300	-11.428000	21.443720	0.000899	20.757799
78.012598	-3.012700	3.860100	-11.628000	21.463872	0.000896	20.758997
79.008672	-2.991700	3.860000	-11.547000	21.451825	0.000899	20.787720
80.009510	-2.996000	3.859100	-11.560000	21.476367	0.000899	20.773870
81.023366	-2.999800	3.860000	-11.577000	21.480981	0.000898	20.767581
82.012042	-2.974600	3.859700	-11.479000	21.485693	0.000898	20.764235
83.018415	-2.992000	3.858700	-11.543000	21.486741	0.000900	20.775242
84.013411	-3.013300	3.858600	-11.626000	21.491229	0.000898	20.774517
85.006950	-3.016800	3.858600	-11.639000	21.524474	0.000897	20.754676
86.024349	-2.989100	3.859300	-11.536000	21.503824	0.000899	20.778585
87.014725	-3.002500	3.858700	-11.584000	21.519186	0.000898	20.767877
88.026656	-3.008600	3.856100	-11.600000	21.545298	0.000900	20.762711
89.016486	-3.000600	3.857400	-11.573000	21.533452	0.000898	20.763660
90.013307	-2.980900	3.859100	-11.502000	21.531207	0.000898	20.768526
91.017356	-2.997600	3.858000	-11.563000	21.548564	0.000899	20.773566
92.017282	-3.020300	3.856100	-11.645000	21.535470	0.000898	20.761412
93.012443	-2.994300	3.857800	-11.550000	21.550433	0.000899	20.756944
94.016821	-3.004400	3.857200	-11.588000	21.551854	0.000898	20.780652
95.018905	-3.008000	3.856100	-11.598000	21.540457	0.000900	20.769247
96.020050	-3.020000	3.854900	-11.641000	21.564647	0.000900	20.752201
97.017941	-2.998600	3.856000	-11.562000	21.574772	0.000899	20.765652
98.018978	-3.008700	3.855300	-11.598000	21.575321	0.000899	20.773315
99.021510	-3.012000	3.854600	-11.608000	21.592577	0.000900	20.755495
100.020511	-2.997400	3.857400	-11.561000	21.596942	0.000899	20.748957
101.021453	-2.999200	3.854700	-11.558000	21.616218	0.000899	20.763505
102.019085	-3.012200	3.854800	-11.609000	21.603225	0.000900	20.744813
103.015779	-3.006800	3.853600	-11.586000	21.607066	0.000900	20.770468
104.019772	-2.990600	3.854500	-11.526000	21.628112	0.000900	20.768769
105.023199	-3.003700	3.854100	-11.575000	21.647462	0.000899	20.781022
106.019245	-3.010400	3.852900	-11.598000	21.642425	0.000900	20.756540
107.024941	-3.007700	3.854000	-11.591000	21.638833	0.000901	20.770015
108.017087	-3.001800	3.854200	-11.569000	21.647311	0.000902	20.761904
109.018986	-2.996500	3.853600	-11.545000	21.654119	0.000900	20.782468
110.025802	-2.980600	3.853300	-11.484000	21.677483	0.000899	20.767917
111.015926	-2.994500	3.853800	-11.538000	21.692495	0.000902	20.770138
112.015464	-3.021900	3.850400	-11.634000	21.672047	0.000899	20.760579
113.025200	-2.988900	3.853000	-11.516000	21.690898	0.000902	20.760953
114.022994	-3.005100	3.852100	-11.575000	21.709301	0.000901	20.771784
115.026096	-3.009400	3.852600	-11.593000	21.710946	0.000903	20.761577
116.028604	-2.983800	3.851800	-11.492000	21.671421	0.000901	20.763272
117.023509	-2.994400	3.850500	-11.529000	21.721143	0.000902	20.767041
118.027056	-3.004800	3.850800	-11.570000	21.720569	0.000902	20.766466
119.027133	-2.984300	3.851300	-11.492000	21.712415	0.000903	20.765891
120.029627	-3.006400	3.851100	-11.577000	21.720743	0.000903	20.781340
121.030613	-2.996600	3.849900	-11.535000	21.737075	0.000903	20.769235
122.024374	-2.992400	3.850500	-11.520000	21.742810	0.000902	20.766914
123.024784	-2.987300	3.851800	-11.504000	21.754204	0.000905	20.767412
124.026170	-3.021100	3.848400	-11.625000	21.766921	0.000904	20.767811
125.027021	-2.993700	3.850000	-11.525000	21.788737	0.000905	20.792491
126.030638	-2.998300	3.849400	-11.540000	21.785770	0.000903	20.761072
127.028376	-2.987400	3.849300	-11.498000	21.788911	0.000905	20.753310
128.034429	-2.997800	3.847700	-11.533000	21.806912	0.000904	20.786026
129.027005	-2.988400	3.848000	-11.498000	21.799083	0.000904	20.756853
130.027349	-2.999000	3.848200	-11.540000	21.829651	0.000907	20.774645
131.037292	-2.986400	3.848700	-11.493000	21.817134	0.000905	20.761169
132.032465	-3.018700	3.847500	-11.613000	21.850494	0.000906	20.767059
133.033627	-2.987400	3.848800	-11.496000	21.831444	0.000905	20.761742
134.029887	-2.993400	3.848500	-11.519000	21.852189	0.000907	20.755478
135.029300	-2.974400	3.848000	-11.444000	21.847650	0.000907	20.756626
136.030666	-2.995400	3.846900	-11.521000	21.838649	0.000907	20.779385
137.036605	-3.015000	3.847100	-11.598000	21.856425	0.000906	20.764935
138.029835	-3.001900	3.845900	-11.544000	21.844657	0.000908	20.784924
139.031523	-3.021800	3.845000	-11.618000	21.835208	0.000906	20.756973
140.034712	-2.987900	3.846800	-11.491000	21.844955	0.000907	20.774791
141.030450	-2.992800	3.846000	-11.510000	21.868392	0.000908	20.763636
142.037625	-2.987500	3.845500	-11.488000	21.878588	0.000906	20.778109
143.037522	-2.994600	3.847300	-11.520000	21.871234	0.000908	20.791611
144.032694	-3.003800	3.845800	-11.550000	21.891154	0.000907	20.784049
145.037573	-3.004100	3.844500	-11.548000	21.905889	0.000909	20.774141
146.039837	-2.992200	3.844700	-11.503000	21.907683	0.000909	20.764084
147.035205	-3.007600	3.844100	-11.560000	21.942909	0.000911	20.766628
148.048262	-2.981200	3.846500	-11.465000	21.937001	0.000909	20.762610
149.046272	-2.989900	3.844300	-11.492000	21.964524	0.000913	20.780204
150.040607	-2.990800	3.845000	-11.498000	21.954875	0.000912	20.764381
151.034459	-2.982700	3.845600	-11.469000	21.960010	0.000911	20.760986
152.049994	-2.978700	3.844200	-11.450000	21.958663	0.000912	20.766276
153.039174	-3.001000	3.843300	-11.532000	21.960507	0.000911	20.781399
154.050058	-3.010300	3.842500	-11.565000	21.971701	0.000911	20.771267
155.045451	-3.007600	3.843200	-11.558000	21.954697	0.000913	20.784592
156.038523	-2.999400	3.844000	-11.528000	21.969305	0.000914	20.787835
157.045053	-3.001800	3.842400	-11.534000	21.978728	0.000914	20.788259
158.038950	-3.001200	3.842500	-11.531000	22.005901	0.000914	20.788907
159.043609	-2.990500	3.842200	-11.489000	21.998720	0.000914	20.786934
160.043070	-3.011000	3.843000	-11.570000	22.022328	0.000916	20.778799
161.044123	-3.004600	3.842500	-11.544000	22.013976	0.000915	20.795094
162.042527	-3.002500	3.841600	-11.533000	22.056828	0.000913	20.761179
163.039157	-3.022000	3.840800	-11.606000	22.031824	0.000915	20.792572
164.043493	-3.009800	3.841100	-11.559000	22.039850	0.000916	20.793969
165.050280	-3.009100	3.840700	-11.556000	22.013151	0.000916	20.802329
166.038437	-3.007800	3.840100	-11.549000	22.045633	0.000918	20.771783
167.040521	-2.983800	3.841800	-11.462000	22.030974	0.000917	20.799782
168.042822	-3.005600	3.840900	-11.543000	22.065624	0.000915	20.811711
169.036379	-2.998400	3.840000	-11.512000	22.087885	0.000916	20.784684
170.042226	-3.000800	3.840200	-11.523000	22.085117	0.000918	20.798035
171.049525	-2.984300	3.840000	-11.458000	22.081976	0.000917	20.790148
172.044459	-2.994500	3.840900	-11.501000	22.109145	0.000918	20.800753
173.039368	-2.999300	3.839900	-11.516000	22.115152	0.000920	20.797284
174.053607	-2.987700	3.838900	-11.469000	22.130806	0.000920	20.788300
175.045946	-2.992600	3.839500	-11.487000	22.131703	0.000919	20.784930
176.056810	-3.007400	3.837800	-11.541000	22.139555	0.000920	20.797059
177.056860	-2.995200	3.838700	-11.497000	22.148129	0.000921	20.786202
178.046966	-3.003000	3.838900	-11.526000	22.177690	0.000923	20.802522
179.045150	-3.002600	3.838400	-11.524000	22.180307	0.000920	20.803246
180.042365	-2.984600	3.837200	-11.451000	22.183024	0.000923	20.784629
181.051457	-2.988900	3.838000	-11.469000	22.176020	0.000920	20.801798
182.049770	-3.009100	3.837300	-11.545000	22.197903	0.000923	20.804268
183.042779	-3.008800	3.835800	-11.540000	22.167345	0.000923	20.811131
184.050783	-3.014900	3.836700	-11.566000	22.203088	0.000922	20.816571
185.052633	-3.003900	3.835700	-11.521000	22.222205	0.000923	20.784977
186.046334	-3.020700	3.836900	-11.589000	22.214029	0.000924	20.804292
187.044058	-2.993000	3.836500	-11.481000	22.230703	0.000922	20.812927
188.054402	-3.013800	3.835800	-11.559000	22.227562	0.000926	20.824481
189.043120	-2.982600	3.835300	-11.438000	22.249047	0.000925	20.802844
190.044159	-2.996300	3.835100	-11.490000	22.274618	0.000925	20.803318
191.049296	-2.986600	3.836200	-11.457000	22.237257	0.000926	20.797204
192.050289	-2.990200	3.836100	-11.469000	22.257296	0.000926	20.797353
193.043571	-2.990200	3.835600	-11.467000	22.259588	0.000926	20.822882
194.055100	-2.999700	3.835100	-11.503000	22.274218	0.000927	20.806237
195.046431	-3.000800	3.835100	-11.507000	22.274368	0.000925	20.801171
196.044373	-2.983300	3.836500	-11.444000	22.273645	0.000929	20.805663
197.047774	-2.996900	3.834300	-11.489000	22.281496	0.000928	20.806885
198.049102	-2.998200	3.833200	-11.491000	22.290742	0.000930	20.802868
199.047582	-2.966100	3.836200	-11.377000	22.306867	0.000928	20.818540
200.045728	-2.996000	3.833600	-11.484000	22.294530	0.000930	20.811876
201.057210	-2.996400	3.833200	-11.485000	22.316063	0.000930	20.827273
202.046230	-2.986100	3.834100	-11.447000	22.309683	0.000931	20.830842
203.060290	-3.006900	3.832700	-11.524000	22.333608	0.000932	20.820660
204.053067	-2.997700	3.831600	-11.483000	22.309558	0.000931	20.821234
205.053865	-2.987000	3.832400	-11.447000	22.313171	0.000930	20.807308
206.053421	-3.013800	3.831600	-11.547000	22.321994	0.000933	20.800496
207.051365	-2.996500	3.832000	-11.481000	22.309433	0.000934	20.832014
208.050601	-3.006100	3.831200	-11.515000	22.322218	0.000931	20.813048
209.050685	-3.015100	3.830900	-11.549000	22.343302	0.000935	20.822307
210.066768	-3.003400	3.831200	-11.505000	22.309607	0.000934	20.821757
211.050923	-2.983500	3.832400	-11.432000	22.336473	0.000934	20.809779
212.050427	-3.013700	3.830200	-11.541000	22.335975	0.000936	20.805961
213.056888	-2.997500	3.829700	-11.479000	22.332361	0.000936	20.807558
214.063034	-3.021400	3.830600	-11.573000	22.352049	0.000937	20.828694
215.063902	-3.009500	3.829900	-11.525000	22.363015	0.000938	20.830192
216.056955	-2.999300	3.831300	-11.490000	22.351900	0.000939	20.829967
217.047826	-2.990100	3.829500	-11.448000	22.368123	0.000939	20.804014
218.053054	-2.982700	3.831600	-11.428000	22.364908	0.000939	20.812648
219.058722	-3.022600	3.828600	-11.571000	22.371313	0.000940	20.832811
220.051741	-2.996700	3.830100	-11.475000	22.380009	0.000940	20.828244
221.067328	-2.979800	3.829900	-11.410000	22.407248	0.000939	20.824700
222.055201	-2.995300	3.829000	-11.468000	22.379038	0.000941	20.804037
223.056679	-2.984700	3.828400	-11.425000	22.404333	0.000941	20.821307
224.051145	-2.991700	3.828900	-11.453000	22.415994	0.000940	20.825398
225.065506	-2.992400	3.828000	-11.454000	22.414424	0.000942	20.812921
226.060396	-3.010300	3.826800	-11.519000	22.425414	0.000943	20.828193
227.063540	-2.994900	3.827900	-11.463000	22.432142	0.000941	20.860060
228.059374	-3.004900	3.826900	-11.498000	22.460525	0.000943	20.829690
229.051715	-2.990100	3.828800	-11.447000	22.475078	0.000944	20.835255
230.056782	-2.994600	3.828000	-11.463000	22.488982	0.000944	20.838748
231.055792	-2.965300	3.828000	-11.350000	22.492646	0.000943	20.822029
232.052989	-2.996400	3.827700	-11.469000	22.495860	0.000945	20.858437
233.051534	-2.993900	3.825400	-11.451000	22.507048	0.000946	20.840719
234.060399	-3.001700	3.826600	-11.486000	22.527830	0.000945	20.827868
235.061960	-2.994600	3.826000	-11.455000	22.545795	0.000948	20.815989
236.054907	-3.012400	3.826100	-11.524000	22.551052	0.000945	20.836427
237.053866	-2.988700	3.826300	-11.435000	22.554341	0.000947	20.847307
238.053678	-3.005200	3.824100	-11.490000	22.567647	0.000948	20.848779
239.057526	-2.996700	3.824800	-11.461000	22.567597	0.000948	20.856315
240.064651	-2.993000	3.826000	-11.450000	22.579458	0.000950	20.834530
241.055532	-3.002700	3.824700	-11.484000	22.562564	0.000948	20.848430
242.062416	-2.989000	3.825000	-11.432000	22.556284	0.000950	20.830287
243.056515	-2.981500	3.825200	-11.404000	22.544548	0.000950	20.849826
244.069117	-3.004400	3.823600	-11.486000	22.559898	0.000948	20.831062
245.064711	-3.000200	3.822900	-11.468000	22.557007	0.000951	20.833856
246.060290	-3.006800	3.823300	-11.495000	22.574449	0.000952	20.841841
247.062793	-2.998500	3.823000	-11.463000	22.604647	0.000952	20.846008
248.060296	-3.005900	3.821900	-11.487000	22.584540	0.000953	20.837723
249.063540	-2.994900	3.821400	-11.444000	22.576118	0.000952	20.858211
250.060750	-2.991000	3.822500	-11.432000	22.603352	0.000951	20.842340
251.062000	-2.980300	3.822600	-11.391000	22.602928	0.000953	20.846183
252.063127	-2.975000	3.822700	-11.371000	22.611698	0.000953	20.837898
253.063407	-2.993400	3.822700	-11.442000	22.614264	0.000955	20.879820
254.069198	-2.985200	3.822400	-11.409000	22.624181	0.000955	20.855141
255.062006	-3.007700	3.823100	-11.497000	22.612370	0.000957	20.867967
256.058635	-2.989800	3.821100	-11.423000	22.627195	0.000956	20.853892
257.063809	-3.010000	3.821300	-11.499000	22.646156	0.000957	20.860556
258.060886	-2.982300	3.820300	-11.393000	22.645906	0.000958	20.858883
259.061003	-2.989200	3.821100	-11.421000	22.668903	0.000957	20.857262
260.057743	-3.004000	3.819800	-11.474000	22.631604	0.000958	20.863999
261.065860	-2.989900	3.820000	-11.419000	22.661802	0.000957	20.855839
262.062778	-3.018500	3.819900	-11.529000	22.640898	0.000960	20.873781
263.059987	-3.004000	3.818600	-11.470000	22.653505	0.000960	20.859383
264.067789	-2.974500	3.819700	-11.359000	22.650316	0.000960	20.860930
265.060266	-3.003700	3.819400	-11.469000	22.651661	0.000961	20.868440
266.064140	-3.012000	3.819300	-11.503000	22.655424	0.000960	20.846132
267.066197	-3.020400	3.817500	-11.529000	22.650315	0.000962	20.867093
268.068213	-2.990400	3.819700	-11.422000	22.662375	0.000961	20.862102
269.063779	-3.001700	3.818800	-11.462000	22.703632	0.000963	20.874029
270.067989	-3.003400	3.818000	-11.466000	22.707643	0.000961	20.856712
271.066338	-2.991500	3.817800	-11.420000	22.711555	0.000965	20.860155
272.069462	-3.003100	3.817900	-11.465000	22.718705	0.000965	20.860205
273.071358	-3.018400	3.816000	-11.517000	22.748377	0.000962	20.873805
274.066202	-3.019900	3.816100	-11.523000	22.759163	0.000964	20.867541
275.067710	-3.000100	3.816700	-11.449000	22.781635	0.000965	20.845482
276.065592	-3.005200	3.817500	-11.470000	22.752960	0.000965	20.867491
277.070278	-3.009900	3.816900	-11.488000	22.760285	0.000966	20.872457
278.080337	-2.999200	3.817100	-11.447000	22.772715	0.000967	20.875900
279.067485	-3.002600	3.816400	-11.458000	22.790453	0.000968	20.878021
280.083422	-3.014800	3.815400	-11.502000	22.787563	0.000969	20.864696
281.072978	-2.991400	3.815500	-11.413000	22.796581	0.000968	20.877996
282.069207	-2.992600	3.815000	-11.416000	22.803805	0.000969	20.881440
283.070414	-2.999000	3.814700	-11.440000	22.811129	0.000970	20.872656
284.072699	-3.010200	3.814200	-11.480000	22.846553	0.000971	20.887279
285.066252	-2.991800	3.814800	-11.412000	22.808090	0.000969	20.859655
286.073224	-3.011500	3.812400	-11.479000	22.811353	0.000970	20.870036
287.069890	-2.999300	3.813900	-11.438000	22.822164	0.000971	20.875176
288.070922	-2.994700	3.814600	-11.423000	22.821890	0.000973	20.862100
289.077513	-2.987400	3.814400	-11.394000	22.851858	0.000970	20.878369
290.078835	-2.989100	3.813000	-11.396000	22.845406	0.000972	20.916948
291.067614	-3.016600	3.811800	-11.497000	22.839502	0.000974	20.882587
292.076285	-3.015600	3.811400	-11.493000	22.826274	0.000973	20.879293
293.072514	-3.008400	3.811300	-11.465000	22.853377	0.000973	20.888900
294.068080	-3.007600	3.812200	-11.464000	22.824854	0.000975	20.873603
295.075163	-2.998600	3.812300	-11.431000	22.831606	0.000975	20.887478
296.075029	-2.997700	3.810700	-11.422000	22.837136	0.000976	20.907715
297.066720	-3.000700	3.812300	-11.439000	22.833548	0.000976	20.882786
298.070506	-2.989000	3.811100	-11.390000	22.854298	0.000977	20.899305
299.072944	-2.987100	3.811700	-11.385000	22.866853	0.000977	20.872529
300.072742	-2.991000	3.810600	-11.396000	22.875497	0.000977	20.884507
301.066846	-3.009600	3.811800	-11.471000	22.879781	0.000977	20.895437
302.074998	-2.994300	3.810500	-11.409000	22.882422	0.000978	20.875798
303.074848	-2.981000	3.810300	-11.357000	22.881076	0.000979	20.894364
304.067084	-2.994700	3.809000	-11.406000	22.909274	0.000978	20.900327
305.083241	-3.013400	3.809500	-11.477000	22.908302	0.000980	20.895561
306.078794	-3.006300	3.808800	-11.449000	22.921728	0.000979	20.892891
307.078254	-3.025800	3.809100	-11.524000	22.902598	0.000979	20.890795
308.080241	-2.999100	3.808700	-11.421000	22.944022	0.000980	20.893415
309.076503	-2.986300	3.808900	-11.373000	22.960735	0.000980	20.896883
310.076743	-3.018100	3.808700	-11.494000	22.969204	0.000980	20.893989
311.078775	-2.991700	3.806700	-11.388000	22.968058	0.000982	20.908487
312.079612	-3.005600	3.808800	-11.446000	22.955928	0.000981	20.910084
313.074990	-2.983100	3.808100	-11.358000	22.969528	0.000983	20.907589
314.079001	-2.980500	3.808800	-11.351000	22.976377	0.000984	20.893589
315.075374	-3.000100	3.807800	-11.421000	22.972243	0.000984	20.899878
316.075296	-2.990400	3.807400	-11.384000	23.000139	0.000984	20.897483
317.077160	-2.982400	3.808200	-11.356000	22.972915	0.000983	20.903396
318.098997	-3.013200	3.806300	-11.467000	22.989977	0.000985	20.902473
319.076430	-2.993900	3.807300	-11.398000	22.982330	0.000984	20.926577
320.077208	-2.982300	3.806500	-11.351000	22.993240	0.000985	20.921862
321.081919	-2.963000	3.806800	-11.278000	22.999591	0.000986	20.923958
322.082133	-2.996500	3.805500	-11.402000	23.013116	0.000986	20.913328
323.078897	-2.976000	3.807000	-11.328000	23.046639	0.000988	20.892391
324.079918	-2.965700	3.807300	-11.290000	23.020887	0.000988	20.909261
325.089261	-3.013500	3.805300	-11.465000	23.020040	0.000987	20.910783
326.083628	-2.993800	3.805100	-11.391000	23.033216	0.000989	20.921612
327.082079	-3.011600	3.805000	-11.457000	23.068134	0.000988	20.930520
328.088911	-3.000500	3.804400	-11.414000	23.060039	0.000990	20.914351
329.084927	-3.019000	3.803500	-11.482000	23.069130	0.000990	20.905442
330.086240	-3.023100	3.803400	-11.497000	23.052817	0.000990	20.909485
331.082576	-2.996500	3.803100	-11.395000	23.080761	0.000988	20.914725
332.097477	-2.998600	3.803200	-11.403000	23.070300	0.000990	20.938854
333.080159	-3.011100	3.802800	-11.449000	23.089502	0.000993	20.921113
334.091502	-3.004400	3.803300	-11.425000	23.097372	0.000993	20.934686
335.082695	-2.989900	3.802200	-11.368000	23.112564	0.000993	20.911979
336.074807	-3.010300	3.801100	-11.440000	23.111368	0.000993	20.914574
337.081341	-2.988800	3.803000	-11.365000	23.126485	0.000993	20.916920
338.090634	-3.001100	3.802900	-11.412000	23.121654	0.000993	20.923458
339.076612	-3.007200	3.801000	-11.428000	23.085716	0.000993	20.919690
340.085634	-2.993200	3.802500	-11.380000	23.085666	0.000994	20.916795
341.078569	-3.000500	3.800400	-11.402000	23.070275	0.000997	20.917020
342.078908	-2.979200	3.801700	-11.324000	23.093362	0.000993	20.920713
343.081608	-3.001900	3.801000	-11.410000	23.109799	0.000995	20.903520
344.083920	-2.984700	3.801700	-11.346000	23.124916	0.000994	20.925304
345.080488	-2.977900	3.799800	-11.314000	23.105017	0.000996	20.917219
346.082733	-2.999200	3.800200	-11.396000	23.139460	0.000997	20.914749
347.079943	-2.995400	3.799400	-11.380000	23.137543	0.000996	20.915198
348.084577	-2.993900	3.799800	-11.375000	23.132611	0.000998	20.895085
349.082663	-3.017200	3.798500	-11.460000	23.166058	0.000997	20.906314
350.087029	-3.014700	3.797700	-11.447000	23.156071	0.000998	20.901524
351.083370	-2.981000	3.798500	-11.322000	23.180900	0.000999	20.931616
352.084107	-3.016000	3.797200	-11.451000	23.181373	0.000997	20.889895
353.087412	-2.993500	3.798300	-11.368000	23.187425	0.000999	20.895485
354.085481	-2.987600	3.798400	-11.347000	23.194173	0.001000	20.897979
355.085845	-2.994400	3.797300	-11.369000	23.183564	0.001001	20.907736
356.086167	-2.982700	3.797400	-11.326000	23.178633	0.001000	20.881461
357.088611	-2.996700	3.795500	-11.373000	23.202615	0.000998	20.910231
358.084450	-2.987200	3.797600	-11.342000	23.205503	0.001000	20.894636
359.087538	-2.988800	3.795500	-11.342000	23.218228	0.001000	20.912127
360.086224	-2.995000	3.796200	-11.369000	23.271792	0.001003	20.902745
361.089151	-3.013700	3.795300	-11.437000	23.261558	0.001001	20.888696
362.087756	-3.028600	3.795300	-11.493000	23.274730	0.001002	20.894311
363.089095	-2.985700	3.795700	-11.332000	23.255307	0.001003	20.888596
364.089433	-3.021800	3.792900	-11.460000	23.285487	0.001003	20.887548
365.093325	-3.030800	3.794100	-11.498000	23.270272	0.001003	20.883206
366.089790	-3.010300	3.794600	-11.422000	23.246517	0.001005	20.865090
367.091582	-3.006200	3.793400	-11.402000	23.253862	0.001005	20.889993
368.088627	-3.004900	3.793000	-11.396000	23.220195	0.001004	20.886125
369.088052	-3.011300	3.794000	-11.424000	23.217430	0.001004	20.887623
370.092896	-3.025100	3.792700	-11.473000	23.223556	0.001006	20.877641
371.088541	-2.995100	3.793600	-11.361000	23.229782	0.001006	20.859699
372.089145	-3.011700	3.791600	-11.418000	23.218028	0.001006	20.886325
373.090913	-3.014100	3.791100	-11.426000	23.213994	0.001008	20.883705
374.093444	-3.030400	3.792000	-11.491000	23.224602	0.001006	20.863043
375.092548	-2.985500	3.793900	-11.325000	23.236680	0.001008	20.889369
376.093597	-2.995600	3.791700	-11.357000	23.253862	0.001008	20.886674
377.092138	-2.997400	3.791500	-11.362000	23.267408	0.001009	20.871327
378.092214	-2.998100	3.791900	-11.368000	23.281328	0.001007	20.869631
379.095965	-3.002400	3.791800	-11.383000	23.278713	0.001010	20.888820
380.091882	-2.979900	3.790900	-11.296000	23.271293	0.001007	20.878539
381.093206	-3.023900	3.788000	-11.453000	23.290118	0.001009	20.865164
382.096148	-2.993200	3.792100	-11.349000	23.285461	0.001008	20.867609
383.096275	-2.983200	3.789500	-11.304000	23.281601	0.001007	20.876068
384.096449	-3.010100	3.789200	-11.405000	23.268130	0.001011	20.879163
385.096426	-3.000000	3.789300	-11.367000	23.280879	0.001012	20.860173
386.094838	-3.006400	3.788800	-11.389000	23.247387	0.001012	20.867384
387.094407	-2.991300	3.789200	-11.333000	23.240190	0.001012	20.863491
388.098330	-2.994700	3.789300	-11.347000	23.253363	0.001011	20.847770
389.095445	-3.024400	3.786900	-11.452000	23.255480	0.001012	20.872650
390.093614	-2.988300	3.789000	-11.321000	23.290540	0.001013	20.861320
391.094634	-2.995300	3.786800	-11.341000	23.318703	0.001013	20.863466
392.096183	-2.985700	3.787100	-11.306000	23.340615	0.001012	20.870728
393.096891	-3.006400	3.787100	-11.385000	23.351396	0.001014	20.868257
394.104632	-2.989000	3.787400	-11.317000	23.362053	0.001014	20.859972
395.098846	-3.003500	3.785900	-11.370000	23.364294	0.001013	20.874071
396.098394	-3.007800	3.786100	-11.386000	23.370045	0.001014	20.842854
397.103579	-2.966700	3.787100	-11.234000	23.353562	0.001015	20.866635
398.105505	-2.999000	3.785300	-11.351000	23.365463	0.001013	20.867183
399.099744	-2.979200	3.787500	-11.281000	23.358094	0.001015	20.864064
400.102155	-2.977900	3.785600	-11.272000	23.382345	0.001015	20.849965
401.099613	-3.012900	3.784500	-11.401000	23.377341	0.001016	20.844001
402.103299	-3.002000	3.785300	-11.362000	23.401840	0.001016	20.870927
403.100036	-2.996400	3.786300	-11.344000	23.416157	0.001016	20.857301
404.100151	-3.004500	3.784000	-11.368000	23.433610	0.001017	20.857251
405.097927	-2.992700	3.784200	-11.324000	23.417228	0.001017	20.852685
406.103279	-2.991300	3.782900	-11.315000	23.426514	0.001016	20.863889
407.100906	-2.993400	3.783400	-11.324000	23.448648	0.001017	20.858574
408.097942	-3.000600	3.782500	-11.348000	23.420090	0.001016	20.870252
409.102961	-2.998900	3.782800	-11.342000	23.459329	0.001018	20.865486
410.102779	-3.005000	3.782700	-11.367000	23.475387	0.001018	20.871624
411.102235	-2.978700	3.783400	-11.269000	23.458358	0.001017	20.853608
412.102859	-2.993600	3.780900	-11.317000	23.474964	0.001019	20.848443
413.101663	-3.014400	3.781800	-11.399000	23.481636	0.001020	20.869354
414.103356	-3.014700	3.781100	-11.397000	23.478698	0.001021	20.847918
415.105909	-3.008600	3.780500	-11.374000	23.462640	0.001021	20.850788
416.101605	-3.002900	3.779900	-11.350000	23.466100	0.001020	20.848093
417.104104	-3.014400	3.779700	-11.392000	23.463809	0.001020	20.866184
418.105209	-3.025300	3.778700	-11.430000	23.461892	0.001021	20.846246
419.106216	-3.015500	3.779800	-11.396000	23.458755	0.001021	20.887195
420.104327	-2.991200	3.778900	-11.302000	23.460424	0.001021	20.848567
421.103967	-3.012900	3.777900	-11.381000	23.466224	0.001022	20.834941
422.105570	-2.991400	3.779100	-11.304000	23.461643	0.001024	20.851212
423.104290	-2.999800	3.779100	-11.336000	23.509544	0.001021	20.843276
424.107553	-3.000200	3.778000	-11.334000	23.482756	0.001023	20.863839
425.104226	-2.972800	3.779300	-11.233000	23.520075	0.001024	20.850513
426.120429	-3.013400	3.775600	-11.376000	23.523336	0.001024	20.837187
427.107043	-3.002300	3.776800	-11.339000	23.518780	0.001024	20.842103
428.108107	-2.998600	3.777000	-11.324000	23.537526	0.001025	20.846670
429.108407	-2.994800	3.778100	-11.314000	23.538896	0.001023	20.853258
430.108695	-2.999800	3.777700	-11.330000	23.532447	0.001024	20.831148
431.108070	-3.014000	3.776800	-11.383000	23.510639	0.001023	20.856701
432.111074	-3.030200	3.775600	-11.439000	23.515394	0.001023	20.836338
433.110013	-2.971500	3.776600	-11.221000	23.529286	0.001023	20.861168
434.108795	-2.990400	3.775000	-11.288000	23.510638	0.001025	20.837261
435.108467	-2.988200	3.774800	-11.279000	23.527020	0.001024	20.848940
436.112711	-3.014400	3.776100	-11.382000	23.531899	0.001026	20.828228
437.110575	-2.998800	3.774000	-11.317000	23.557317	0.001025	20.830948
438.111220	-2.995600	3.775000	-11.308000	23.571482	0.001025	20.856052
439.111834	-3.024900	3.772500	-11.410000	23.575415	0.001024	20.850986
440.110239	-3.016600	3.773400	-11.382000	23.572154	0.001027	20.847243
441.108920	-3.004500	3.773400	-11.336000	23.569466	0.001027	20.849763
442.111516	-3.005000	3.774900	-11.342000	23.570138	0.001027	20.849963
443.110741	-3.006000	3.772100	-11.338000	23.561947	0.001028	20.842227
444.108621	-3.022900	3.773000	-11.403000	23.573225	0.001028	20.823187
445.114339	-2.976900	3.773500	-11.233000	23.571282	0.001027	20.831671
446.113118	-3.003800	3.771600	-11.327000	23.591422	0.001028	20.806816
447.114290	-3.001800	3.771700	-11.321000	23.564934	0.001030	20.825781
448.117242	-3.018700	3.771100	-11.382000	23.565607	0.001028	20.827878
449.112933	-2.996500	3.770200	-11.297000	23.575689	0.001028	20.849838
450.116562	-3.022200	3.769800	-11.393000	23.590401	0.001029	20.856051
451.113993	-2.994900	3.770400	-11.291000	23.569266	0.001028	20.832020
452.114212	-2.998100	3.769700	-11.301000	23.554777	0.001028	20.819867
453.114472	-3.003800	3.768700	-11.319000	23.557665	0.001029	20.845046
454.116534	-3.017200	3.769000	-11.370000	23.552885	0.001030	20.814177
455.119150	-3.007500	3.770100	-11.337000	23.557416	0.001028	20.842426
456.115552	-3.005300	3.768400	-11.324000	23.550794	0.001028	20.830572
457.116507	-2.994700	3.768000	-11.283000	23.582459	0.001028	20.839082
458.116204	-3.010200	3.768100	-11.340000	23.588783	0.001032	20.843998
459.117737	-2.999300	3.768000	-11.298000	23.613328	0.001030	20.837310
460.120264	-2.987400	3.766800	-11.251000	23.611286	0.001030	20.838108
461.116373	-3.000300	3.767800	-11.303000	23.604839	0.001030	20.820740
462.116327	-2.982200	3.767300	-11.234000	23.609718	0.001031	20.847916
463.120737	-3.029900	3.765100	-11.407000	23.635134	0.001032	20.836885
464.116535	-3.012800	3.765800	-11.345000	23.665852	0.001033	20.843024
465.120718	-2.994800	3.767200	-11.281000	23.646883	0.001030	20.841552
466.121098	-3.022800	3.766000	-11.382000	23.669112	0.001030	20.813577
467.119674	-2.999200	3.767100	-11.296000	23.673966	0.001030	20.825556
468.116870	-3.002500	3.766300	-11.307000	23.686811	0.001030	20.830372
469.121934	-3.013100	3.764600	-11.343000	23.683151	0.001033	20.835712
470.115530	-3.015900	3.766000	-11.357000	23.678521	0.001030	20.807363
471.116685	-2.994600	3.764300	-11.271000	23.689573	0.001031	20.814650
472.118430	-3.009900	3.762700	-11.325000	23.678222	0.001031	20.810383
473.120292	-3.002000	3.762400	-11.294000	23.689947	0.001030	20.808386
474.118709	-3.029100	3.763100	-11.398000	23.714987	0.001032	20.823534
475.120881	-2.993300	3.763200	-11.263000	23.704035	0.001028	20.816821
476.122132	-3.024300	3.761800	-11.376000	23.715858	0.001035	20.816821
477.123135	-2.994700	3.763400	-11.269000	23.697762	0.001032	20.832343
478.120960	-3.016600	3.761700	-11.346000	23.687656	0.001033	20.808935
479.119407	-2.978500	3.762800	-11.207000	23.667195	0.001033	20.826354
480.118578	-3.001900	3.761400	-11.289000	23.686810	0.001035	20.820415
481.122116	-2.992900	3.761100	-11.254000	23.676579	0.001035	20.822486
482.120667	-3.008600	3.760900	-11.313000	23.696966	0.001032	20.808785
483.119207	-2.988400	3.762200	-11.242000	23.716978	0.001033	20.824582
484.122167	-3.007100	3.760300	-11.307000	23.711851	0.001034	20.809958
485.117229	-2.983800	3.760400	-11.218000	23.750954	0.001034	20.802222
486.121376	-3.021700	3.759100	-11.357000	23.748664	0.001033	20.816047
487.132265	-2.986600	3.761200	-11.232000	23.740177	0.001035	20.814175
488.123547	-3.021200	3.759100	-11.356000	23.745976	0.001034	20.824731
489.126590	-3.005100	3.757900	-11.292000	23.744706	0.001033	20.827726
490.121890	-2.995100	3.759500	-11.259000	23.739803	0.001032	20.802421
491.146218	-3.018700	3.759700	-11.347000	23.732385	0.001033	20.812528
492.122915	-3.006000	3.757900	-11.295000	23.711402	0.001032	20.801921
493.122721	-3.002200	3.757100	-11.279000	23.709410	0.001035	20.804192
494.125519	-3.016100	3.757200	-11.330000	23.701146	0.001033	20.812502
495.125824	-3.025400	3.755200	-11.360000	23.686908	0.001036	20.805340
496.125503	-2.981400	3.757800	-11.202000	23.717524	0.001034	20.817543
497.126139	-2.982500	3.757300	-11.205000	23.739827	0.001036	20.811454
498.127875	-2.988400	3.755900	-11.223000	23.734350	0.001035	20.797903
499.131142	-2.980100	3.757600	-11.197000	23.731089	0.001036	20.796530
500.128665	-2.984500	3.755600	-11.207000	23.745003	0.001035	20.809057
501.128656	-2.989400	3.754200	-11.222000	23.756950	0.001034	20.799699
502.130250	-2.976700	3.754600	-11.175000	23.763297	0.001035	20.810329
503.129945	-3.013600	3.754100	-11.312000	23.761778	0.001035	20.800746
504.129877	-3.023200	3.754000	-11.347000	23.743882	0.001035	20.795606
505.134756	-3.021100	3.752200	-11.335000	23.767079	0.001035	20.782828
506.130699	-3.000200	3.752600	-11.258000	23.768448	0.001035	20.797951
507.133975	-3.025300	3.751700	-11.349000	23.774222	0.001036	20.789516
508.137237	-2.993600	3.753900	-11.237000	23.794831	0.001035	20.811127
509.136882	-2.987000	3.753200	-11.211000	23.846126	0.001036	20.815618
510.135365	-2.985600	3.752900	-11.204000	23.834976	0.001035	20.799697
511.142338	-2.971000	3.752800	-11.149000	23.824921	0.001037	20.800520
512.134120	-3.010000	3.750600	-11.288000	23.824398	0.001037	20.806160
513.135700	-3.020600	3.750200	-11.327000	23.840551	0.001037	20.788691
514.140429	-2.993600	3.752200	-11.231000	23.840700	0.001037	20.795953
515.134380	-3.006200	3.751800	-11.277000	23.828654	0.001035	20.802840
516.139349	-2.989400	3.749900	-11.209000	23.799981	0.001036	20.796851
517.141969	-2.954500	3.753200	-11.087000	23.796323	0.001038	20.787018
518.135921	-2.982300	3.750000	-11.182000	23.782956	0.001038	20.781677
519.136446	-2.985000	3.750600	-11.195000	23.783778	0.001037	20.788191
520.141353	-2.993900	3.750100	-11.226000	23.775763	0.001037	20.808604
521.139119	-3.000900	3.748900	-11.249000	23.775390	0.001037	20.788315
522.137705	-3.003200	3.747800	-11.254000	23.743505	0.001037	20.788589
523.144535	-3.011900	3.747900	-11.287000	23.764164	0.001037	20.795077
524.144523	-2.994700	3.747300	-11.221000	23.787809	0.001038	20.788439
525.140395	-2.991000	3.747700	-11.209000	23.813096	0.001038	20.788189
526.144731	-2.980800	3.749300	-11.175000	23.832783	0.001036	20.796075
527.144500	-2.993800	3.746200	-11.215000	23.818895	0.001037	20.778356
528.140507	-2.999300	3.747700	-11.239000	23.866556	0.001035	20.787265
529.147238	-3.028800	3.745300	-11.342000	23.853838	0.001035	20.790160
530.142339	-2.984100	3.745900	-11.177000	23.847964	0.001039	20.793754
531.141156	-2.996300	3.745300	-11.221000	23.827780	0.001038	20.780153
532.148386	-3.015700	3.746000	-11.296000	23.836391	0.001038	20.780727
533.145154	-2.998900	3.745400	-11.229000	23.865062	0.001037	20.795250
534.141932	-3.001600	3.744000	-11.237000	23.856476	0.001038	20.774787
535.147128	-2.992400	3.746900	-11.212000	23.852468	0.001037	20.790209
536.145658	-3.005800	3.744400	-11.254000	23.890372	0.001038	20.792180
537.142279	-3.011000	3.744500	-11.274000	23.886639	0.001035	20.791756
538.145979	-3.015800	3.745500	-11.295000	23.901347	0.001037	20.755295
539.145627	-2.999200	3.744100	-11.228000	23.946416	0.001039	20.787688
540.143982	-2.988500	3.744600	-11.189000	23.941762	0.001037	20.795349
541.145135	-3.018700	3.742600	-11.296000	23.951269	0.001036	20.780700
542.146437	-3.010600	3.742300	-11.265000	23.918120	0.001038	20.781124
543.142494	-3.002100	3.742500	-11.234000	23.917971	0.001038	20.787138
544.149383	-2.993000	3.741900	-11.198000	23.926407	0.001039	20.790383
545.144366	-2.991600	3.741900	-11.193000	23.916826	0.001038	20.804008
546.143601	-2.981600	3.742400	-11.157000	23.932455	0.001036	20.772265
547.145346	-2.985500	3.740600	-11.166000	23.951517	0.001037	20.794226
548.145033	-3.009100	3.739600	-11.252000	23.973018	0.001037	20.783070
549.145596	-2.984700	3.742000	-11.168000	23.982300	0.001038	20.784318
550.145743	-3.020100	3.739700	-11.293000	23.993648	0.001037	20.772938
551.145772	-2.991000	3.740400	-11.186000	24.008006	0.001036	20.762207
552.147447	-2.996800	3.739100	-11.205000	23.992503	0.001036	20.759936
553.145386	-3.035000	3.738200	-11.344000	23.975108	0.001038	20.781847
554.147789	-3.013700	3.738900	-11.267000	23.964706	0.001037	20.776157
555.150687	-3.000000	3.738300	-11.213000	23.963636	0.001037	20.780300
556.146966	-2.992900	3.738100	-11.186000	23.933748	0.001036	20.774510
557.147646	-2.992400	3.740200	-11.191000	23.932105	0.001039	20.782820
558.147694	-2.991100	3.738400	-11.181000	23.934569	0.001038	20.773437
559.146793	-3.004800	3.737100	-11.229000	23.965626	0.001039	20.781347
560.150066	-2.990400	3.737800	-11.176000	23.978318	0.001037	20.771315
561.149311	-2.973500	3.738000	-11.114000	23.984191	0.001038	20.759186
562.151563	-2.988300	3.738300	-11.169000	24.019353	0.001039	20.782121
563.149732	-2.994900	3.736600	-11.190000	23.991781	0.001037	20.771540
564.150040	-3.005100	3.735300	-11.224000	24.020298	0.001035	20.762206
565.150259	-2.994600	3.736500	-11.188000	24.019577	0.001037	20.770017
566.150263	-3.017700	3.735300	-11.271000	24.006537	0.001040	20.756940
567.149859	-2.995700	3.735100	-11.188000	23.975755	0.001039	20.760210
568.150027	-3.011300	3.734500	-11.244000	23.987102	0.001038	20.779176
569.151387	-2.990400	3.733900	-11.164000	24.003800	0.001038	20.770791
570.151721	-2.996200	3.734200	-11.188000	24.004471	0.001038	20.769093
571.163764	-2.989900	3.734800	-11.166000	24.020671	0.001037	20.770166
572.153482	-2.980300	3.734100	-11.127000	24.038314	0.001037	20.773161
573.155336	-2.971400	3.733000	-11.090000	24.052373	0.001040	20.745060
574.155660	-2.995700	3.734300	-11.185000	24.072703	0.001036	20.769243
575.154106	-2.993500	3.733000	-11.174000	24.066283	0.001038	20.750002
576.155781	-2.998100	3.732300	-11.189000	24.094774	0.001035	20.764351
577.154438	-3.002600	3.731000	-11.201000	24.100198	0.001037	20.771215
578.158207	-3.002600	3.731700	-11.204000	24.119731	0.001040	20.765674
579.155487	-3.011000	3.731900	-11.236000	24.119855	0.001039	20.773860
580.154967	-3.015000	3.730100	-11.245000	24.121696	0.001036	20.739669
581.156253	-3.004900	3.730200	-11.207000	24.124110	0.001037	20.770540
582.159963	-2.987300	3.730000	-11.141000	24.126399	0.001036	20.754818
583.154881	-2.986300	3.728900	-11.135000	24.137521	0.001037	20.790630
584.155015	-2.990800	3.730000	-11.155000	24.137820	0.001038	20.750151
585.155999	-3.005700	3.728300	-11.204000	24.131375	0.001036	20.780198
586.155698	-2.991500	3.729000	-11.155000	24.171583	0.001036	20.762205
587.156915	-2.990300	3.728800	-11.150000	24.164293	0.001035	20.750625
588.154589	-2.998100	3.728100	-11.176000	24.185815	0.001036	20.748029
589.156523	-3.000500	3.728600	-11.186000	24.176982	0.001036	20.753869
590.155457	-2.996300	3.728500	-11.171000	24.169045	0.001037	20.779099
591.153197	-3.014100	3.728300	-11.237000	24.188576	0.001037	20.751273
592.155954	-3.011800	3.726500	-11.223000	24.183053	0.001037	20.760432
593.155193	-3.000700	3.726700	-11.182000	24.207660	0.001038	20.755716
594.155499	-3.005700	3.725100	-11.194000	24.205321	0.001036	20.773285
595.153709	-2.985300	3.726300	-11.123000	24.180888	0.001036	20.756364
596.155670	-2.992100	3.726300	-11.148000	24.164766	0.001036	20.752521
597.156681	-2.995500	3.727200	-11.164000	24.151454	0.001035	20.758136
598.157057	-3.010600	3.725700	-11.216000	24.156679	0.001037	20.747729
599.156301	-3.000900	3.724700	-11.177000	24.159615	0.001035	20.756838
600.159239	-3.014600	3.725000	-11.228000	24.158495	0.001036	20.754767
601.158123	-3.017600	3.723500	-11.234000	24.168323	0.001036	20.770789
602.157840	-3.008200	3.726100	-11.208000	24.155783	0.001037	20.767694
603.156475	-3.002200	3.724800	-11.180000	24.147075	0.001034	20.766072
604.157765	-3.016800	3.724100	-11.233000	24.134808	0.001033	20.761829
605.157574	-3.001300	3.723400	-11.173000	24.128164	0.001036	20.753743
606.157873	-3.041900	3.722100	-11.320000	24.118933	0.001036	20.744959
607.160152	-3.006900	3.722700	-11.192000	24.145681	0.001036	20.743336
608.159103	-3.001100	3.723900	-11.174000	24.122590	0.001035	20.769490
609.158035	-2.984200	3.724200	-11.112000	24.129109	0.001034	20.757062
610.158763	-2.979100	3.722900	-11.090000	24.120052	0.001034	20.776902
611.167478	-2.994000	3.722500	-11.145000	24.138913	0.001034	20.757411
612.161018	-2.987900	3.722800	-11.122000	24.151502	0.001036	20.776203
613.158710	-2.996700	3.721300	-11.151000	24.133936	0.001035	20.777076
614.161517	-3.030800	3.719600	-11.272000	24.099797	0.001034	20.768916
615.159871	-2.984900	3.722000	-11.109000	24.106093	0.001034	20.741089
616.160404	-2.996500	3.720300	-11.147000	24.078746	0.001036	20.770088
617.162729	-3.007100	3.720200	-11.187000	24.062274	0.001033	20.775379
618.163038	-2.986700	3.720300	-11.110000	24.039182	0.001034	20.756961
619.174181	-3.000400	3.720500	-11.162000	24.026043	0.001032	20.761803
620.164335	-2.981000	3.719300	-11.087000	24.034876	0.001033	20.764024
621.163599	-2.993500	3.719000	-11.133000	24.039779	0.001035	20.778423
622.163615	-2.999800	3.719500	-11.156000	24.055306	0.001034	20.777874
623.162699	-2.999800	3.717200	-11.150000	24.092456	0.001034	20.775303
624.163963	-2.989200	3.718200	-11.113000	24.092008	0.001032	20.765371
625.163563	-2.990900	3.717300	-11.117000	24.090515	0.001034	20.770986
626.168691	-3.012900	3.717200	-11.198000	24.119528	0.001032	20.752668
627.165720	-2.988200	3.717700	-11.108000	24.141025	0.001035	20.779445
628.164188	-3.001100	3.717600	-11.156000	24.138462	0.001033	20.774030
629.164510	-2.998800	3.717100	-11.144000	24.150231	0.001034	20.780618
630.166949	-3.010600	3.716700	-11.187000	24.175237	0.001033	20.770137
631.164974	-3.012900	3.717300	-11.199000	24.174018	0.001032	20.768440
632.167422	-2.997700	3.715100	-11.136000	24.194171	0.001031	20.773481
633.170178	-3.011300	3.715400	-11.187000	24.170385	0.001034	20.776176
634.166635	-3.016700	3.715100	-11.206000	24.178770	0.001033	20.778422
635.165832	-2.968100	3.715600	-11.027000	24.140328	0.001033	20.753615
636.168991	-2.977700	3.715500	-11.062000	24.130450	0.001033	20.790650
637.167951	-2.973400	3.716400	-11.049000	24.133560	0.001033	20.776226
638.169357	-3.024500	3.712700	-11.228000	24.142070	0.001031	20.784286
639.169203	-2.997400	3.714000	-11.131000	24.165831	0.001030	20.777298
640.167644	-2.996200	3.713400	-11.125000	24.169489	0.001031	20.776700
641.169628	-3.001000	3.712700	-11.140000	24.197728	0.001032	20.771833
642.169823	-3.015900	3.712200	-11.195000	24.224773	0.001033	20.770510
643.169456	-3.027000	3.711600	-11.233000	24.233207	0.001031	20.762375
644.170061	-2.991700	3.711400	-11.102000	24.228330	0.001029	20.785459
645.171236	-2.972900	3.714100	-11.040000	24.217806	0.001029	20.779170
646.180794	-2.997400	3.712900	-11.127000	24.238854	0.001029	20.787480
647.169768	-3.023700	3.711500	-11.222000	24.233455	0.001031	20.797238
648.169372	-2.998500	3.710700	-11.126000	24.280725	0.001030	20.787754
649.170006	-2.991700	3.711600	-11.103000	24.294209	0.001029	20.770934
650.171309	-2.971900	3.711200	-11.029000	24.268385	0.001029	20.792446
651.170686	-3.007500	3.709400	-11.156000	24.247388	0.001030	20.792246
652.169367	-3.002800	3.709100	-11.135000	24.285527	0.001029	20.800631
653.172957	-2.990200	3.709300	-11.090000	24.283412	0.001030	20.773380
654.170732	-2.997300	3.709100	-11.116000	24.344760	0.001029	20.775176
655.172473	-2.982200	3.708000	-11.057000	24.333342	0.001030	20.774153
656.173978	-3.002200	3.708200	-11.130000	24.374388	0.001030	20.766492
657.172687	-2.993200	3.708900	-11.100000	24.358990	0.001030	20.796563
658.171545	-3.004100	3.707000	-11.135000	24.377348	0.001029	20.800756
659.172708	-2.982400	3.708100	-11.057000	24.396155	0.001029	20.788328
660.172178	-3.001800	3.706100	-11.124000	24.380284	0.001028	20.783786
661.178833	-2.998900	3.707200	-11.116000	24.382522	0.001029	20.798360
662.174045	-2.998200	3.706000	-11.109000	24.349909	0.001027	20.781290
663.172701	-2.984700	3.707600	-11.064000	24.366452	0.001029	20.780816
664.172212	-2.984700	3.705900	-11.059000	24.351054	0.001028	20.778645
665.174949	-2.997400	3.704800	-11.103000	24.346451	0.001027	20.803900
666.171243	-2.992300	3.705600	-11.087000	24.353243	0.001028	20.789376
667.174651	-2.985900	3.706100	-11.065000	24.361477	0.001028	20.773454
668.177968	-3.034600	3.704900	-11.241000	24.349312	0.001026	20.788277
669.174477	-2.981700	3.705300	-11.047000	24.351153	0.001026	20.794392
670.175181	-3.008200	3.703700	-11.140000	24.375731	0.001025	20.790124
671.179036	-3.016500	3.703600	-11.171000	24.400458	0.001027	20.788377
672.174428	-2.995400	3.703900	-11.094000	24.401179	0.001026	20.798584
673.178218	-2.997600	3.703400	-11.101000	24.412099	0.001026	20.775874
674.179847	-3.000700	3.703400	-11.112000	24.427248	0.001026	20.793917
675.178866	-3.019900	3.702300	-11.179000	24.474758	0.001026	20.810288
676.177906	-2.998200	3.703400	-11.103000	24.467844	0.001026	20.806195
677.182011	-3.007400	3.702600	-11.135000	24.478440	0.001025	20.797860
678.178788	-3.000100	3.704200	-11.112000	24.471152	0.001025	20.782487
679.177724	-2.999100	3.701100	-11.098000	24.504955	0.001026	20.794117
680.181062	-2.994200	3.702400	-11.085000	24.489882	0.001027	20.797486
681.180348	-3.009000	3.702000	-11.139000	24.503761	0.001026	20.812359
682.178712	-3.005400	3.700100	-11.119000	24.472644	0.001025	20.813856
683.180630	-2.989000	3.701200	-11.060000	24.453217	0.001026	20.788676
684.181451	-3.001600	3.699800	-11.104000	24.435830	0.001025	20.790673
685.178930	-3.008500	3.699500	-11.128000	24.469634	0.001025	20.817000
686.180877	-2.999400	3.699200	-11.093000	24.448466	0.001025	20.811885
687.183037	-2.990000	3.699300	-11.060000	24.469634	0.001023	20.800879
688.182626	-2.987100	3.699400	-11.050000	24.469087	0.001023	20.802701
689.182029	-2.995500	3.699000	-11.080000	24.461152	0.001024	20.798533
690.178878	-2.992300	3.698600	-11.067000	24.499657	0.001024	20.799706
691.181205	-2.971900	3.699500	-10.993000	24.522689	0.001024	20.804323
692.181186	-3.008500	3.697800	-11.123000	24.543085	0.001024	20.803923
693.181686	-3.002100	3.697600	-11.100000	24.528733	0.001023	20.814654
694.180139	-3.014000	3.697000	-11.141000	24.523112	0.001025	20.810911
695.182269	-3.000600	3.697300	-11.093000	24.500626	0.001023	20.803524
696.182634	-2.991900	3.698300	-11.064000	24.500999	0.001023	20.803424
697.180161	-3.009800	3.696200	-11.124000	24.493736	0.001023	20.816052
698.181973	-3.002000	3.695500	-11.092000	24.496846	0.001021	20.829128
699.180144	-3.018800	3.695100	-11.154000	24.512317	0.001023	20.829003
700.186672	-2.980300	3.696600	-11.015000	24.538582	0.001022	20.805570
701.182982	-2.988200	3.695600	-11.041000	24.524753	0.001023	20.813032
702.183754	-3.002300	3.695400	-11.093000	24.533608	0.001022	20.823338
703.185570	-3.007500	3.695500	-11.113000	24.560992	0.001020	20.825210
704.183771	-3.011000	3.694900	-11.124000	24.561316	0.001021	20.820319
705.184786	-2.998500	3.694600	-11.076000	24.561714	0.001021	20.802700
706.185363	-3.011600	3.694600	-11.125000	24.568777	0.001022	20.807891
707.184601	-3.005500	3.693300	-11.099000	24.558555	0.001020	20.823238
708.185542	-3.017600	3.693100	-11.143000	24.568081	0.001020	20.811459
709.185490	-2.998500	3.692400	-11.071000	24.564847	0.001021	20.821017
710.186288	-2.981200	3.693100	-11.009000	24.559748	0.001019	20.836289
711.187383	-2.996800	3.693400	-11.067000	24.556938	0.001019	20.830151
712.188332	-2.967700	3.691700	-10.955000	24.530374	0.001018	20.804921
713.186516	-2.994300	3.692000	-11.054000	24.534876	0.001019	20.826981
714.188447	-2.999600	3.691700	-11.072000	24.506844	0.001020	20.842004
715.187758	-2.991200	3.691200	-11.041000	24.491398	0.001018	20.833145
716.189479	-2.986300	3.691800	-11.024000	24.474583	0.001018	20.831922
717.191681	-3.008400	3.691600	-11.105000	24.450281	0.001018	20.827455
718.187845	-3.007200	3.690900	-11.098000	24.471499	0.001020	20.833095
719.189406	-2.996700	3.690100	-11.057000	24.505053	0.001019	20.818871
720.189493	-2.988900	3.691900	-11.034000	24.508138	0.001015	20.815801
721.189468	-3.003600	3.690600	-11.084000	24.514082	0.001018	20.812283
722.192446	-3.011600	3.689400	-11.109000	24.504058	0.001015	20.825933
723.189126	-3.006800	3.689100	-11.091000	24.514331	0.001017	20.827231
724.189621	-3.011800	3.689800	-11.112000	24.516420	0.001018	20.836913
725.194186	-3.002900	3.688000	-11.074000	24.531369	0.001016	20.822514
726.195526	-2.991600	3.688600	-11.034000	24.568503	0.001015	20.818521
727.191759	-2.985500	3.688500	-11.011000	24.562409	0.001016	20.834692
728.196676	-3.015600	3.688400	-11.121000	24.565270	0.001013	20.828079
729.192385	-2.995400	3.686900	-11.044000	24.564747	0.001015	20.825184
730.192184	-2.973600	3.687800	-10.964000	24.586062	0.001015	20.845622
731.197536	-3.000100	3.687000	-11.061000	24.610859	0.001014	20.846321
732.191663	-2.998700	3.687000	-11.055000	24.622125	0.001014	20.849565
733.192953	-2.967200	3.687800	-10.941000	24.615709	0.001016	20.822264
734.196180	-3.000900	3.684700	-11.056000	24.580541	0.001014	20.830125
735.192181	-2.983000	3.686600	-10.995000	24.591484	0.001013	20.838260
736.192690	-3.011400	3.684000	-11.093000	24.573975	0.001013	20.827330
737.196735	-2.986300	3.685700	-11.006000	24.592230	0.001014	20.853233
738.194322	-3.004100	3.684500	-11.068000	24.575890	0.001011	20.847743
739.195716	-2.997400	3.684600	-11.042000	24.585291	0.001013	20.849590
740.198635	-2.995700	3.683900	-11.034000	24.595613	0.001013	20.840032
741.198102	-2.991200	3.683700	-11.018000	24.600338	0.001013	20.838135
742.196624	-3.002800	3.683000	-11.057000	24.587032	0.001012	20.829052
743.198984	-3.007100	3.682200	-11.071000	24.603099	0.001012	20.845647
744.198395	-2.999500	3.683200	-11.046000	24.592827	0.001012	20.840082
745.199943	-2.984800	3.684400	-10.996000	24.598174	0.001010	20.831697
746.203590	-3.020100	3.681700	-11.118000	24.605859	0.001010	20.854580
747.201285	-2.983700	3.683900	-10.991000	24.607700	0.001010	20.836039
748.200141	-3.010500	3.681600	-11.082000	24.617574	0.001009	20.840730
749.205393	-2.992000	3.682700	-11.018000	24.628890	0.001012	20.835016
750.201568	-2.987700	3.681600	-10.999000	24.612177	0.001011	20.850014
751.204267	-2.980400	3.682600	-10.973000	24.603546	0.001011	20.842777
752.206889	-2.990300	3.680900	-11.006000	24.607650	0.001011	20.834092
753.204327	-2.998400	3.681700	-11.039000	24.609391	0.001009	20.844848
754.204121	-2.992500	3.681000	-11.015000	24.613296	0.001008	20.861093
755.207428	-2.992400	3.681900	-11.017000	24.614241	0.001008	20.860619
756.204466	-3.002100	3.680600	-11.049000	24.640504	0.001008	20.847618
757.204198	-3.013700	3.678600	-11.084000	24.635928	0.001008	20.861991
758.207855	-2.991500	3.680300	-11.007000	24.627298	0.001011	20.847168
759.207986	-3.006000	3.677500	-11.052000	24.623890	0.001008	20.856077
760.205776	-2.998400	3.679300	-11.031000	24.622299	0.001009	20.870126
761.211452	-2.991100	3.678800	-11.002000	24.639335	0.001008	20.883426
762.210304	-3.012300	3.677500	-11.077000	24.637171	0.001010	20.864187
763.208520	-3.006200	3.677600	-11.054000	24.663434	0.001008	20.860668
764.210776	-3.008500	3.678400	-11.066000	24.698674	0.001008	20.862839
765.222762	-3.000400	3.678700	-11.037000	24.705687	0.001008	20.872247
766.207789	-3.011400	3.677200	-11.071000	24.726253	0.001008	20.873919
767.211173	-2.982400	3.676900	-10.965000	24.720483	0.001006	20.864811
768.209895	-2.988900	3.676000	-10.985000	24.727745	0.001005	20.860718
769.211163	-2.990100	3.677000	-10.991000	24.731127	0.001006	20.871698
770.214023	-2.979000	3.676000	-10.950000	24.722523	0.001003	20.875865
771.213102	-2.986900	3.677700	-10.983000	24.739259	0.001007	20.873694
772.212669	-2.995400	3.676900	-11.013000	24.727795	0.001003	20.864087
773.216222	-2.999400	3.676700	-11.028000	24.732520	0.001006	20.861716
774.216351	-2.980200	3.675500	-10.953000	24.749604	0.001006	20.886446
775.214596	-3.017500	3.673800	-11.085000	24.764624	0.001004	20.864536
776.216556	-2.977000	3.674800	-10.938000	24.781459	0.001003	20.879059
777.215095	-2.995800	3.674800	-11.008000	24.733887	0.001003	20.860244
778.212850	-3.006100	3.673700	-11.042000	24.730853	0.001005	20.863837
779.218909	-3.012600	3.673100	-11.064000	24.737916	0.001003	20.875191
780.214358	-3.009100	3.673000	-11.052000	24.721453	0.001004	20.889490
781.212317	-2.993700	3.672700	-10.994000	24.762784	0.001004	20.882603
782.219121	-2.990000	3.673600	-10.983000	24.761018	0.001003	20.891736
783.216677	-2.995400	3.670900	-10.996000	24.776510	0.001002	20.881205
784.213432	-3.006300	3.671900	-11.037000	24.757661	0.001003	20.876514
785.213290	-2.994400	3.671000	-10.991000	24.757338	0.001002	20.874293
786.213156	-2.994100	3.671600	-10.992000	24.771437	0.001001	20.887968
787.219228	-3.010800	3.669500	-11.046000	24.797573	0.001000	20.881006
788.214594	-2.993100	3.669700	-10.982000	24.771984	0.001000	20.882827
789.216152	-3.001600	3.671100	-11.018000	24.778748	0.001001	20.875391
790.219033	-3.012000	3.671500	-11.057000	24.775167	0.001000	20.894081
791.216275	-3.010500	3.669100	-11.045000	24.763778	0.001000	20.897824
792.221296	-2.976300	3.669400	-10.920000	24.755423	0.001001	20.894655
793.218520	-2.998500	3.669200	-11.000000	24.721776	0.001000	20.886021
794.218003	-2.991200	3.668800	-10.973000	24.713246	0.000999	20.890263
795.217731	-2.974500	3.669200	-10.913000	24.696410	0.001001	20.881430
796.217271	-2.997900	3.668300	-10.997000	24.688527	0.000998	20.894855
797.218237	-2.990100	3.668600	-10.968000	24.647691	0.001000	20.896552
798.221773	-3.006900	3.669800	-11.032000	24.640180	0.000999	20.892809
799.221645	-3.011600	3.667800	-11.046000	24.636276	0.000999	20.874193
800.222722	-2.969200	3.668500	-10.892000	24.645005	0.000998	20.900494
801.220897	-2.984600	3.668200	-10.947000	24.667537	0.000996	20.883750
802.220208	-2.961500	3.670100	-10.868000	24.675520	0.000999	20.903139
803.223115	-3.004800	3.666700	-11.016000	24.689571	0.000997	20.865085
804.220010	-2.986400	3.666300	-10.948000	24.706233	0.000997	20.906458
805.220243	-3.001500	3.666900	-11.006000	24.715087	0.000997	20.891636
806.220575	-3.005300	3.666500	-11.018000	24.746247	0.000997	20.887344
807.222661	-2.997600	3.666600	-10.990000	24.698474	0.000995	20.881130
808.224021	-2.998600	3.666200	-10.992000	24.716604	0.000994	20.895529
809.222598	-2.995900	3.665800	-10.981000	24.755373	0.000996	20.925896
810.222799	-2.997400	3.665800	-10.988000	24.735230	0.000995	20.907107
811.221125	-3.003500	3.664100	-11.004000	24.725531	0.000993	20.893108
812.221320	-2.965800	3.667200	-10.874000	24.747042	0.000994	20.915641
813.222551	-3.030000	3.663900	-11.100000	24.754105	0.000994	20.903763
814.229481	-3.000600	3.663500	-10.991000	24.766190	0.000994	20.897874
815.225950	-3.021800	3.663300	-11.067000	24.786084	0.000995	20.894605
816.223792	-2.989900	3.663900	-10.953000	24.785810	0.000994	20.910925
817.225502	-3.006000	3.661700	-11.006000	24.776336	0.000994	20.918011
818.224586	-3.013700	3.662200	-11.035000	24.765022	0.000993	20.896227
819.227030	-2.982100	3.663100	-10.921000	24.800557	0.000994	20.910550
820.228885	-3.007000	3.662600	-11.013000	24.801899	0.000995	20.897200
821.227211	-3.020400	3.661100	-11.057000	24.818684	0.000992	20.902191
822.226913	-2.983900	3.662700	-10.928000	24.843326	0.000993	20.911748
823.229689	-3.014900	3.661300	-11.037000	24.838751	0.000993	20.918061
824.226241	-2.984400	3.661300	-10.926000	24.852327	0.000991	20.909877
825.229861	-2.995700	3.661500	-10.968000	24.833057	0.000991	20.895753
826.231586	-3.015000	3.659200	-11.030000	24.803516	0.000990	20.912097
827.229621	-2.997200	3.659500	-10.966000	24.753259	0.000991	20.914767
828.229814	-2.998500	3.661600	-10.977000	24.745749	0.000989	20.920506
829.232807	-2.983000	3.659700	-10.915000	24.760023	0.000991	20.904487
830.229484	-3.019600	3.659300	-11.049000	24.779544	0.000990	20.891361
831.231514	-3.018500	3.658400	-11.042000	24.794340	0.000989	20.903838
832.236753	-3.001600	3.658800	-10.981000	24.788645	0.000989	20.912821
833.228842	-3.004800	3.657900	-10.990000	24.760620	0.000988	20.877587
834.233368	-2.988800	3.659000	-10.935000	24.743188	0.000988	20.915566
835.230570	-2.974800	3.658800	-10.883000	24.739482	0.000989	20.882453
836.235522	-3.015000	3.658000	-11.027000	24.727844	0.000987	20.879783
837.234133	-2.993800	3.657900	-10.949000	24.718021	0.000988	20.899795
838.232243	-2.998900	3.659100	-10.972000	24.728665	0.000989	20.909527
839.232651	-2.995700	3.656500	-10.953000	24.744008	0.000986	20.902166
840.235598	-3.017800	3.655000	-11.029000	24.776112	0.000986	20.896926
841.234199	-3.007100	3.655900	-10.993000	24.796180	0.000986	20.891935
842.236241	-3.007300	3.656800	-10.996000	24.817565	0.000987	20.900594
843.236153	-3.002400	3.654800	-10.971000	24.820673	0.000987	20.871473
844.234123	-2.998800	3.656600	-10.965000	24.779022	0.000984	20.877562
845.234762	-3.005200	3.654900	-10.982000	24.836637	0.000983	20.896501
846.236701	-2.967100	3.655600	-10.844000	24.874333	0.000984	20.891661
847.238059	-2.996200	3.654100	-10.947000	24.879778	0.000984	20.878635
848.240366	-3.023500	3.653300	-11.045000	24.880698	0.000985	20.876713
849.238379	-3.013600	3.655000	-11.014000	24.866774	0.000984	20.880756
850.235493	-3.015400	3.651600	-11.010000	24.872592	0.000984	20.872371
851.236778	-2.996000	3.654700	-10.948000	24.846708	0.000985	20.887643
852.239538	-2.997100	3.653300	-10.949000	24.870106	0.000984	20.868454
853.236444	-2.994500	3.653500	-10.940000	24.873189	0.000981	20.864910
854.241522	-2.990200	3.655000	-10.928000	24.897929	0.000986	20.870774
855.237836	-3.005700	3.651600	-10.975000	24.909044	0.000985	20.876239
856.236563	-3.007300	3.652500	-10.982000	24.901361	0.000981	20.852408
857.237247	-3.003300	3.651900	-10.966000	24.895592	0.000982	20.877911
858.237759	-2.992900	3.652100	-10.929000	24.906756	0.000982	20.878685
859.237898	-2.999900	3.651500	-10.953000	24.896164	0.000982	20.863313
860.237846	-3.023600	3.649900	-11.035000	24.866973	0.000981	20.880955
861.237761	-2.995500	3.650600	-10.935000	24.887014	0.000982	20.874991
862.240534	-3.003700	3.650700	-10.963000	24.886144	0.000980	20.868429
863.237369	-2.972300	3.651800	-10.852000	24.898352	0.000980	20.882103
864.237545	-3.009600	3.651100	-10.987000	24.934106	0.000981	20.856825
865.240622	-3.008100	3.650200	-10.979000	24.938507	0.000979	20.862664
866.238591	-2.999600	3.649400	-10.946000	24.950839	0.000978	20.866507
867.237839	-3.007300	3.649700	-10.975000	24.948303	0.000978	20.861117
868.243368	-2.982700	3.649600	-10.884000	24.958472	0.000977	20.862315
869.239175	-2.967000	3.649800	-10.827000	24.975205	0.000978	20.863463
870.238759	-2.990100	3.647100	-10.904000	25.005189	0.000976	20.844722
871.242843	-3.023200	3.646000	-11.022000	25.001733	0.000977	20.857374
872.240974	-3.011500	3.648100	-10.985000	24.995443	0.000976	20.863388
873.239996	-2.991000	3.647400	-10.909000	24.984926	0.000977	20.849513
874.242739	-3.000800	3.647800	-10.945000	24.961506	0.000977	20.866782
875.243914	-2.986200	3.647900	-10.892000	24.959716	0.000975	20.836063
876.240146	-2.998900	3.648700	-10.942000	24.933385	0.000978	20.868429
877.244421	-2.990900	3.648700	-10.912000	24.936419	0.000973	20.854404
878.242666	-2.968700	3.647900	-10.829000	24.919387	0.000976	20.837311
879.246974	-2.998800	3.645500	-10.931000	24.924857	0.000975	20.848490
880.245384	-3.002000	3.646000	-10.944000	24.944997	0.000976	20.849264
881.242899	-2.981700	3.646300	-10.870000	24.956533	0.000976	20.846619
882.242810	-3.005300	3.644600	-10.952000	24.986791	0.000974	20.823411
883.245157	-2.991000	3.646700	-10.906000	24.982788	0.000974	20.857798
884.244103	-2.998800	3.646100	-10.933000	24.979084	0.000973	20.833218
885.241516	-2.983500	3.645400	-10.876000	25.021100	0.000974	20.836986
886.244065	-2.997700	3.643900	-10.923000	24.985697	0.000974	20.839382
887.241821	-3.004000	3.643200	-10.943000	24.964514	0.000973	20.849414
888.242258	-3.024200	3.643400	-11.017000	24.944226	0.000972	20.837585
889.244936	-3.029300	3.642100	-11.032000	24.938134	0.000972	20.829101
890.243256	-3.010000	3.643400	-10.966000	24.932565	0.000972	20.844373
891.248014	-2.990900	3.643000	-10.893000	24.951511	0.000972	20.837311
892.245319	-2.987700	3.643000	-10.883000	24.942336	0.000969	20.834266
893.245190	-2.993600	3.644000	-10.908000	24.944872	0.000969	20.835389
894.246949	-3.021800	3.641300	-11.002000	24.970282	0.000969	20.826755
895.246760	-2.995400	3.642200	-10.909000	24.947756	0.000968	20.830223
896.246350	-2.994000	3.641100	-10.900000	24.947085	0.000968	20.840929
897.248550	-2.986100	3.640900	-10.870000	24.933709	0.000970	20.811857
898.250313	-3.017700	3.641600	-10.989000	24.921302	0.000968	20.847767
899.254237	-3.004500	3.640800	-10.936000	24.905811	0.000969	20.830323
900.249719	-2.993600	3.641000	-10.898000	24.890445	0.000969	20.834815
901.253665	-3.017800	3.639000	-10.981000	24.874731	0.000969	20.805293
902.254018	-3.001800	3.639000	-10.921000	24.907129	0.000967	20.832594
903.249517	-3.020300	3.638300	-10.987000	24.877143	0.000969	20.815300
904.250109	-3.003700	3.640100	-10.932000	24.866401	0.000967	20.826331
905.252688	-2.983100	3.640500	-10.860000	24.892907	0.000965	20.802199
906.251449	-2.982600	3.639500	-10.854000	24.897159	0.000966	20.826380
907.261222	-2.989600	3.639700	-10.880000	24.901634	0.000965	20.821389
908.255851	-2.987500	3.639900	-10.873000	24.884453	0.000966	20.834017
909.250074	-2.984800	3.639400	-10.862000	24.918567	0.000965	20.838384
910.253440	-3.008800	3.636200	-10.939000	24.943331	0.000966	20.818669
911.253654	-3.010300	3.636000	-10.944000	24.966826	0.000964	20.824234
912.253974	-3.006800	3.635700	-10.929000	24.983484	0.000965	20.835738
913.256198	-3.001200	3.637500	-10.915000	24.998924	0.000966	20.817097
914.255908	-2.999100	3.636900	-10.906000	24.961978	0.000965	20.813678
915.252005	-3.005900	3.637100	-10.932000	24.988904	0.000962	20.818420
916.254418	-3.007900	3.634900	-10.932000	24.974335	0.000962	20.786252
917.255569	-3.011400	3.635100	-10.945000	24.981172	0.000961	20.817771
918.254830	-2.973500	3.634600	-10.807000	24.980252	0.000963	20.805942
919.255789	-2.995600	3.635300	-10.889000	24.977418	0.000961	20.815425
920.258943	-2.986000	3.634500	-10.851000	24.961928	0.000961	20.792292
921.252670	-2.991600	3.635700	-10.876000	24.960834	0.000960	20.817272
922.257607	-2.980100	3.633900	-10.828000	24.989849	0.000960	20.806566
923.258956	-3.014200	3.633900	-10.953000	24.992236	0.000960	20.805169
924.252939	-2.998400	3.634100	-10.896000	25.027316	0.000959	20.815251
925.261333	-2.995100	3.634500	-10.884000	25.031219	0.000959	20.806841
926.254006	-3.005000	3.635200	-10.923000	25.063041	0.000961	20.814602
927.252823	-3.000700	3.632500	-10.899000	25.051133	0.000958	20.824933
928.258842	-2.998700	3.633800	-10.894000	25.061699	0.000957	20.822263
929.260438	-3.002100	3.633300	-10.906000	25.069405	0.000960	20.793015
930.253904	-3.000600	3.631800	-10.896000	25.071717	0.000956	20.797233
931.267510	-2.996300	3.632900	-10.884000	25.060058	0.000955	20.795012
932.257263	-2.986800	3.630700	-10.843000	25.068461	0.000955	20.794438
933.253845	-3.014400	3.630000	-10.940000	25.035793	0.000957	20.808113
934.260971	-3.023400	3.629800	-10.972000	25.036539	0.000956	20.808862
935.263183	-2.981000	3.631900	-10.826000	25.001584	0.000958	20.809336
936.256546	-2.992900	3.629700	-10.863000	25.030274	0.000956	20.805892
937.259322	-3.016500	3.629400	-10.947000	24.963171	0.000956	20.803971
938.257491	-3.000300	3.630600	-10.892000	24.942137	0.000955	20.797557
939.257246	-3.022700	3.629400	-10.969000	24.930451	0.000953	20.802424
940.258126	-3.022300	3.627900	-10.964000	24.945817	0.000953	20.807415
941.258384	-2.991800	3.628500	-10.854000	24.964390	0.000953	20.793814
942.261173	-2.982800	3.629000	-10.824000	24.982788	0.000952	20.781935
943.260705	-2.984500	3.629400	-10.831000	24.977343	0.000953	20.800652
944.260443	-3.004900	3.628000	-10.900000	24.973738	0.000951	20.809361
945.260977	-3.003600	3.627400	-10.892000	24.959169	0.000951	20.781935
946.263328	-3.011500	3.627700	-10.922000	24.944599	0.000953	20.796709
947.263625	-2.998500	3.628100	-10.878000	24.898476	0.000951	20.805418
948.260878	-2.994100	3.628000	-10.861000	24.884701	0.000952	20.804395
949.265179	-2.998900	3.625400	-10.871000	24.909392	0.000947	20.789347
950.261490	-3.007800	3.625800	-10.904000	24.920208	0.000949	20.803522
951.261680	-3.009700	3.626200	-10.914000	24.971724	0.000951	20.794538
952.266129	-3.004200	3.625800	-10.891000	24.966851	0.000948	20.811457
953.263195	-2.983900	3.626000	-10.818000	24.982539	0.000948	20.792117
954.262753	-3.015300	3.624600	-10.928000	24.999844	0.000946	20.784356
955.267127	-3.007900	3.624600	-10.902000	24.972023	0.000947	20.810010
956.262463	-3.011000	3.624600	-10.913000	24.965832	0.000947	20.789097
957.262528	-2.992300	3.624400	-10.844000	24.979705	0.000945	20.791643
958.263439	-2.993600	3.625400	-10.851000	25.024929	0.000946	20.791044
959.271245	-2.996700	3.624600	-10.861000	25.049865	0.000946	20.794737
960.263206	-2.980800	3.624200	-10.802000	25.083029	0.000946	20.789621
961.270056	-2.996300	3.623100	-10.855000	25.103389	0.000947	20.803422
962.262593	-3.005300	3.623900	-10.889000	25.112512	0.000944	20.770855
963.266115	-2.999500	3.624000	-10.869000	25.110201	0.000944	20.820691
964.267358	-3.021400	3.621300	-10.940000	25.117410	0.000945	20.786203
965.264685	-3.031100	3.620700	-10.973000	25.129516	0.000945	20.780338
966.264558	-2.998900	3.621300	-10.859000	25.156811	0.000945	20.792092
967.265710	-3.009500	3.622100	-10.900000	25.179084	0.000944	20.773675
968.266156	-2.998900	3.621000	-10.857000	25.180948	0.000944	20.771753
969.265139	-3.005900	3.619900	-10.880000	25.139584	0.000944	20.782858
970.270029	-3.023200	3.620500	-10.944000	25.144233	0.000943	20.779939
971.265640	-2.985400	3.621400	-10.810000	25.131207	0.000943	20.774448
972.266041	-3.001300	3.621900	-10.870000	25.083824	0.000942	20.789472
973.269866	-3.000400	3.619200	-10.859000	25.074676	0.000943	20.779340
974.265464	-3.011200	3.619400	-10.898000	25.069728	0.000941	20.773899
975.266442	-3.018500	3.618000	-10.920000	25.012846	0.000939	20.788399
976.268249	-2.994200	3.618100	-10.833000	25.010112	0.000939	20.781386
977.267000	-3.010700	3.618100	-10.891000	25.012996	0.000938	20.798031
978.269265	-2.977600	3.618900	-10.774000	25.030921	0.000939	20.769557
979.270802	-2.994500	3.620000	-10.838000	25.036614	0.000939	20.758202
980.270433	-3.013400	3.616300	-10.896000	25.034923	0.000940	20.770256
981.267969	-2.997400	3.617600	-10.841000	25.030374	0.000938	20.786078
982.268091	-2.986000	3.617200	-10.801000	25.064682	0.000936	20.779739
983.269915	-2.995300	3.616400	-10.830000	25.088647	0.000937	20.777243
984.270800	-3.003300	3.616300	-10.859000	25.109281	0.000936	20.769033
985.269607	-3.018400	3.615900	-10.912000	25.125365	0.000935	20.779015
986.271125	-3.002100	3.615800	-10.854000	25.136825	0.000937	20.790994
987.269818	-3.005300	3.616700	-10.868000	25.146818	0.000936	20.760248
988.270638	-2.978900	3.616900	-10.772000	25.151641	0.000935	20.775996
989.273879	-2.976900	3.616200	-10.762000	25.146147	0.000935	20.779489
990.271447	-3.000500	3.615100	-10.846000	25.148036	0.000936	20.747720
991.273320	-3.012400	3.614500	-10.888000	25.113035	0.000933	20.778017
992.274912	-3.009200	3.614100	-10.873000	25.141772	0.000932	20.771304
993.274845	-3.005200	3.615200	-10.863000	25.133320	0.000934	20.762345
994.271663	-3.006500	3.612700	-10.860000	25.096553	0.000933	20.763842
995.275249	-3.001400	3.612700	-10.842000	25.139733	0.000933	20.768783
996.273538	-2.986000	3.613000	-10.788000	25.134911	0.000931	20.768209
997.272444	-2.972400	3.614000	-10.741000	25.142741	0.000929	20.756630
998.277201	-2.975300	3.613600	-10.750000	25.170483	0.000931	20.777842
999.273165	-3.015900	3.610500	-10.888000	25.188157	0.000932	20.754808
1000.273378	-2.995300	3.612400	-10.819000	25.153853	0.000930	20.754508
1001.277184	-2.985800	3.611900	-10.783000	25.154773	0.000930	20.758277
1002.273002	-3.007200	3.611700	-10.861000	25.158352	0.000929	20.755706
1003.273008	-3.006500	3.609900	-10.853000	25.151019	0.000929	20.772527
1004.276814	-3.021200	3.609400	-10.903000	25.144829	0.000929	20.767261
1005.273584	-3.003000	3.609100	-10.837000	25.123401	0.000929	20.738162
1006.275891	-2.987300	3.611700	-10.787000	25.128348	0.000928	20.770156
1007.276259	-2.995600	3.609600	-10.811000	25.143736	0.000928	20.749093
1008.274853	-3.003600	3.608700	-10.838000	25.164691	0.000925	20.758751
1009.275130	-2.975100	3.610800	-10.742000	25.168072	0.000928	20.770206
1010.278414	-2.996900	3.607600	-10.810000	25.187511	0.000926	20.770755
1011.276162	-3.001600	3.607700	-10.828000	25.161957	0.000926	20.746048
1012.274796	-2.994100	3.608600	-10.804000	25.157458	0.000925	20.746273
1013.282292	-3.003600	3.609300	-10.839000	25.184006	0.000926	20.761546
1014.274778	-3.000300	3.608800	-10.826000	25.178562	0.000924	20.763193
1015.276283	-2.996000	3.607900	-10.807000	25.175828	0.000924	20.781311
1016.283927	-2.971800	3.608400	-10.722000	25.166705	0.000926	20.749393
1017.275790	-2.983800	3.607600	-10.763000	25.158228	0.000926	20.770755
1018.276419	-2.988800	3.607500	-10.781000	25.188132	0.000923	20.772802
1019.280590	-2.989200	3.607400	-10.782000	25.197255	0.000924	20.762994
1020.276500	-2.997800	3.607800	-10.814000	25.203967	0.000923	20.733221
1021.275982	-2.994400	3.605800	-10.796000	25.229992	0.000923	20.747970
1022.280750	-3.003200	3.605400	-10.827000	25.256961	0.000920	20.745649
1023.278890	-3.001200	3.603900	-10.815000	25.196733	0.000921	20.752986
1024.281418	-2.982800	3.605700	-10.755000	25.200810	0.000920	20.759924
1025.279134	-3.011000	3.602700	-10.846000	25.227556	0.000920	20.755482
1026.279049	-3.019200	3.604500	-10.881000	25.229023	0.000918	20.757429
1027.278451	-3.004100	3.604300	-10.827000	25.239835	0.000919	20.748370
1028.280934	-3.010000	3.601300	-10.837000	25.239661	0.000918	20.753411
1029.279783	-3.002900	3.602200	-10.816000	25.225021	0.000918	20.759575
1030.283381	-3.014900	3.602400	-10.859000	25.269563	0.000917	20.738387
1031.283007	-2.973000	3.603100	-10.711000	25.290020	0.000916	20.749443
1032.281240	-2.982600	3.603500	-10.747000	25.267003	0.000917	20.743403
1033.280285	-3.002800	3.602700	-10.817000	25.290392	0.000917	20.755981
1034.282081	-2.981000	3.603200	-10.741000	25.281892	0.000917	20.746498
1035.284193	-3.017100	3.601100	-10.864000	25.221392	0.000916	20.727007
1036.284256	-2.990800	3.602800	-10.774000	25.218334	0.000915	20.749068
1037.284161	-2.994300	3.601000	-10.782000	25.221069	0.000916	20.753710
1038.282887	-2.998800	3.600300	-10.794000	25.210679	0.000915	20.748020
1039.282734	-2.979800	3.600900	-10.729000	25.259447	0.000913	20.735342
1040.286142	-2.990200	3.600900	-10.765000	25.245727	0.000914	20.738163
1041.281765	-3.003000	3.599000	-10.806000	25.202003	0.000915	20.736465
1042.281789	-3.005600	3.600900	-10.821000	25.194049	0.000912	20.743179
1043.286644	-2.991500	3.598400	-10.764000	25.179582	0.000914	20.764217
1044.283015	-2.996100	3.599900	-10.784000	25.206180	0.000913	20.745874
1045.280971	-3.031500	3.598500	-10.908000	25.219901	0.000911	20.748744
1046.285299	-2.995200	3.597700	-10.775000	25.217962	0.000913	20.734943
1047.282505	-2.994300	3.598600	-10.775000	25.216421	0.000911	20.753311
1048.286350	-2.982900	3.598500	-10.731000	25.268669	0.000911	20.731799
1049.287222	-2.983100	3.597200	-10.730000	25.274386	0.000911	20.739436
1050.283610	-3.005800	3.597100	-10.811000	25.289250	0.000911	20.757679
1051.282296	-2.984700	3.597000	-10.735000	25.293276	0.000909	20.747022
1052.285886	-3.019800	3.595300	-10.856000	25.316292	0.000909	20.747846
1053.286714	-2.997600	3.596700	-10.780000	25.323674	0.000910	20.724911
1054.282300	-3.017300	3.594100	-10.844000	25.282290	0.000908	20.739311
1055.285937	-3.001800	3.594100	-10.788000	25.279134	0.000909	20.751315
1056.282044	-3.032800	3.593500	-10.896000	25.269564	0.000908	20.738388
1057.284716	-2.983800	3.595100	-10.726000	25.266880	0.000906	20.729054
1058.287805	-3.014300	3.593700	-10.831000	25.236282	0.000906	20.735792
1059.283120	-2.975600	3.595500	-10.698000	25.201904	0.000905	20.741582
1060.284525	-3.022400	3.593700	-10.859000	25.167675	0.000908	20.748470
1061.287857	-3.017300	3.593500	-10.841000	25.136055	0.000905	20.748495
1062.286828	-2.996700	3.593500	-10.768000	25.110997	0.000904	20.738513
1063.284328	-3.013800	3.592000	-10.824000	25.070799	0.000904	20.734669
1064.295923	-2.997500	3.594300	-10.773000	25.086734	0.000904	20.739760
1065.285301	-2.998500	3.593300	-10.774000	25.076989	0.000905	20.765066
1066.285402	-3.003900	3.592600	-10.791000	25.076915	0.000902	20.768311
1067.287758	-3.002300	3.591600	-10.782000	25.073235	0.000902	20.757030
1068.286673	-2.963300	3.593000	-10.646000	25.069009	0.000901	20.733347
1069.285390	-2.988700	3.591600	-10.733000	25.074304	0.000901	20.743878
1070.289739	-3.014100	3.589400	-10.818000	25.122110	0.000901	20.753462
1071.288058	-3.011500	3.591600	-10.815000	25.135434	0.000900	20.758777
1072.286242	-2.994800	3.590200	-10.751000	25.154203	0.000899	20.746324
1073.291371	-3.008400	3.588800	-10.796000	25.178887	0.000900	20.763045
1074.287599	-2.979400	3.589900	-10.694000	25.211326	0.000897	20.755309
1075.294029	-2.994400	3.588200	-10.744000	25.187811	0.000898	20.750667
1076.291801	-3.027900	3.586100	-10.856000	25.221194	0.000897	20.743404
1077.290017	-3.022300	3.587400	-10.841000	25.223779	0.000897	20.733197
1078.291994	-2.990900	3.588400	-10.731000	25.234169	0.000898	20.750267
1079.292072	-3.002000	3.588200	-10.770000	25.234716	0.000897	20.737066
1080.293813	-3.006700	3.588100	-10.787000	25.245280	0.000896	20.752888
1081.291396	-2.966000	3.589300	-10.645000	25.266508	0.000897	20.745276
1082.293383	-3.000200	3.587800	-10.763000	25.317113	0.000895	20.737290
1083.291809	-3.021300	3.586400	-10.835000	25.305705	0.000896	20.734370
1084.290518	-2.996500	3.587000	-10.746000	25.314851	0.000894	20.766315
1085.294976	-3.016600	3.586500	-10.818000	25.325365	0.000895	20.753637
1086.295201	-2.987500	3.585300	-10.710000	25.308140	0.000894	20.736342
1087.297578	-3.005300	3.585300	-10.774000	25.323551	0.000893	20.776472
1088.294087	-2.991200	3.586300	-10.725000	25.322407	0.000894	20.755409
1089.295286	-3.002300	3.584600	-10.761000	25.338538	0.000892	20.766864
1090.294389	-2.990400	3.585700	-10.721000	25.326310	0.000893	20.734196
1091.297230	-2.990800	3.584300	-10.718000	25.319897	0.000891	20.756208
1092.294423	-2.998900	3.584700	-10.749000	25.340203	0.000889	20.758105
1093.293196	-2.993700	3.582900	-10.726000	25.348977	0.000890	20.770707
1094.299224	-3.002900	3.583800	-10.760000	25.334736	0.000891	20.756408
1095.296025	-2.994000	3.583500	-10.728000	25.319947	0.000891	20.750094
1096.293966	-2.986900	3.583700	-10.703000	25.338240	0.000891	20.757556
1097.296628	-3.002600	3.583000	-10.758000	25.349375	0.000889	20.750718
1098.297498	-3.015800	3.580100	-10.796000	25.364610	0.000887	20.761274
1099.295625	-3.026500	3.582000	-10.840000	25.385761	0.000888	20.745527
1100.299273	-3.015800	3.581300	-10.799000	25.412304	0.000888	20.754636
1101.297733	-3.025600	3.579500	-10.829000	25.405245	0.000888	20.779318
1102.298755	-2.998000	3.580500	-10.732000	25.400623	0.000886	20.779892
1103.306685	-3.005300	3.580100	-10.759000	25.421151	0.000887	20.765417
1104.301733	-2.987600	3.582000	-10.701000	25.343460	0.000884	20.768013
1105.300591	-3.000100	3.581800	-10.743000	25.318606	0.000885	20.768662
1106.303406	-2.988700	3.580600	-10.700000	25.310603	0.000883	20.748772
1107.302478	-2.996700	3.579700	-10.727000	25.317711	0.000884	20.784833
1108.302698	-3.012500	3.577000	-10.774000	25.297156	0.000884	20.784109
1109.306448	-2.965000	3.581000	-10.616000	25.304836	0.000882	20.768113
1110.304580	-2.997400	3.578600	-10.726000	25.313859	0.000883	20.766740
1111.303648	-2.994500	3.578600	-10.715000	25.322682	0.000882	20.745253
1112.304197	-3.015400	3.577800	-10.788000	25.333543	0.000880	20.781290
1113.303091	-3.021300	3.578200	-10.809000	25.333345	0.000882	20.764969
1114.304370	-3.013300	3.576300	-10.775000	25.300512	0.000880	20.756184
1115.305317	-2.979900	3.578000	-10.662000	25.293726	0.000880	20.788252
1116.304140	-3.004700	3.575300	-10.742000	25.319078	0.000879	20.764395
1117.305790	-3.007200	3.575300	-10.751000	25.324298	0.000879	20.805197
1118.304416	-2.987200	3.575600	-10.680000	25.314629	0.000879	20.775101
1119.303835	-3.011700	3.574700	-10.764000	25.279360	0.000877	20.758655
1120.316723	-3.008400	3.574500	-10.753000	25.260494	0.000878	20.761999
1121.303477	-3.028300	3.575100	-10.823000	25.258431	0.000876	20.789800
1122.307063	-3.032800	3.574000	-10.837000	25.227137	0.000880	20.768338
1123.304760	-2.999000	3.574500	-10.719000	25.230791	0.000878	20.778170
1124.307588	-3.013400	3.574300	-10.769000	25.207450	0.000877	20.768487
1125.304189	-3.011600	3.574000	-10.763000	25.174837	0.000875	20.777472
1126.306322	-2.976600	3.573500	-10.636000	25.154826	0.000876	20.768288
1127.306699	-3.001200	3.573500	-10.724000	25.122559	0.000876	20.771932
1128.311875	-3.021600	3.571700	-10.791000	25.119129	0.000874	20.772281
1129.307922	-2.987800	3.573500	-10.676000	25.118184	0.000875	20.763272
1130.306962	-2.994900	3.572400	-10.698000	25.169766	0.000874	20.770484
1131.307683	-2.995800	3.572000	-10.700000	25.218413	0.000873	20.797037
1132.309469	-2.979500	3.571800	-10.641000	25.269468	0.000873	20.759154
1133.310825	-3.001000	3.572100	-10.719000	25.297505	0.000870	20.774502
1134.310987	-3.020700	3.571500	-10.788000	25.315699	0.000871	20.779493
1135.310141	-2.995700	3.570000	-10.694000	25.352483	0.000871	20.782763
1136.307261	-2.979400	3.572000	-10.642000	25.352906	0.000870	20.788877
1137.309975	-2.996900	3.571000	-10.700000	25.386060	0.000871	20.777597
1138.308254	-3.000700	3.569400	-10.709000	25.398338	0.000869	20.778545
1139.309707	-2.973000	3.570600	-10.614000	25.438400	0.000867	20.788902
1140.312800	-3.011000	3.567200	-10.740000	25.415611	0.000867	20.775975
1141.311949	-2.998200	3.569800	-10.701000	25.379077	0.000868	20.790025
1142.311510	-2.996600	3.568500	-10.692000	25.378083	0.000868	20.790924
1143.311522	-2.980200	3.569400	-10.635000	25.396872	0.000866	20.780392
1144.311449	-2.999900	3.567400	-10.701000	25.421302	0.000867	20.783113
1145.311905	-3.001700	3.567300	-10.706000	25.457213	0.000866	20.794992
1146.313968	-3.000100	3.567600	-10.702000	25.406092	0.000866	20.801979
1147.310959	-3.005400	3.566900	-10.718000	25.394412	0.000865	20.790725
1148.311146	-2.998000	3.566600	-10.693000	25.366501	0.000865	20.802054
1149.313120	-3.012700	3.565400	-10.740000	25.371199	0.000864	20.806297
1150.310337	-3.001100	3.565900	-10.700000	25.388795	0.000863	20.796938
1151.312591	-3.005600	3.565500	-10.716000	25.385465	0.000862	20.782689
1152.315452	-3.004500	3.564300	-10.708000	25.399432	0.000861	20.811413
1153.312416	-3.028300	3.564500	-10.793000	25.395232	0.000861	20.793445
1154.312717	-3.024400	3.563300	-10.776000	25.395978	0.000861	20.776176
1155.313524	-2.981800	3.565900	-10.632000	25.426373	0.000860	20.801481
1156.314508	-3.011000	3.563300	-10.728000	25.422521	0.000861	20.781017
1157.314170	-2.990600	3.564100	-10.657000	25.424956	0.000861	20.788679
1158.313459	-3.007900	3.562700	-10.715000	25.408057	0.000859	20.791149
1159.314709	-3.003300	3.563100	-10.701000	25.423565	0.000859	20.796765
1160.314345	-3.009600	3.563300	-10.721000	25.462731	0.000858	20.800059
1161.313982	-3.023700	3.562400	-10.771000	25.484675	0.000859	20.800758
1162.315969	-3.009000	3.562800	-10.719000	25.498218	0.000857	20.796340
1163.320662	-3.007300	3.560100	-10.706000	25.495882	0.000856	20.793994
1164.316090	-2.978400	3.561200	-10.605000	25.525479	0.000855	20.794319
1165.318308	-2.989700	3.561200	-10.646000	25.499610	0.000855	20.808169
1166.318556	-2.989500	3.561800	-10.647000	25.472175	0.000855	20.794843
1167.317394	-3.002700	3.560500	-10.689000	25.462135	0.000856	20.789977
1168.316822	-3.001700	3.562200	-10.692000	25.450679	0.000853	20.805973
1169.317245	-2.989400	3.559300	-10.640000	25.444043	0.000854	20.806423
1170.321356	-2.978500	3.562000	-10.607000	25.446031	0.000852	20.788979
1171.318629	-3.014000	3.559100	-10.726000	25.433481	0.000854	20.806248
1172.321977	-2.998200	3.558500	-10.667000	25.455475	0.000851	20.810316
1173.319651	-3.000000	3.559100	-10.677000	25.464944	0.000853	20.812238
1174.319789	-2.994100	3.558800	-10.655000	25.508632	0.000851	20.808694
1175.322481	-2.997800	3.558300	-10.666000	25.504556	0.000850	20.816929
1176.323742	-2.990700	3.558400	-10.641000	25.504183	0.000848	20.799012
1177.321385	-2.999900	3.557000	-10.670000	25.510819	0.000850	20.823692
1178.322620	-2.990700	3.558500	-10.641000	25.503289	0.000849	20.820398
1179.323298	-3.027100	3.555900	-10.763000	25.515640	0.000848	20.819999
1180.322724	-3.006200	3.556100	-10.689000	25.550256	0.000847	20.825839
1181.325770	-2.992400	3.555600	-10.638000	25.558605	0.000850	20.802930
1182.321613	-3.010300	3.556200	-10.704000	25.567551	0.000848	20.812388
1183.326900	-2.993500	3.556300	-10.645000	25.577217	0.000847	20.817828
1184.325277	-2.994900	3.554700	-10.645000	25.579354	0.000845	20.812862
1185.323195	-3.000900	3.553500	-10.663000	25.561761	0.000844	20.811789
1186.321897	-3.007200	3.553500	-10.684000	25.557959	0.000843	20.823144
1187.326149	-3.001300	3.553700	-10.665000	25.546181	0.000842	20.826962
1188.323586	-3.000600	3.553700	-10.662000	25.535868	0.000843	20.807597
1189.323020	-3.022500	3.552300	-10.736000	25.517355	0.000843	20.823618
1190.326572	-2.996200	3.553300	-10.646000	25.545933	0.000844	20.813437
1191.327206	-3.002800	3.551400	-10.661000	25.514746	0.000843	20.831429
1192.326030	-3.004100	3.552000	-10.669000	25.508807	0.000842	20.823569
1193.324907	-2.983300	3.553800	-10.601000	25.492803	0.000842	20.826463
1194.330256	-2.999900	3.551700	-10.654000	25.492455	0.000843	20.830381
1195.327078	-3.014800	3.551100	-10.704000	25.495612	0.000842	20.816008
1196.326638	-3.011000	3.551400	-10.692000	25.546008	0.000841	20.829633
1197.329811	-3.006100	3.551400	-10.674000	25.548493	0.000840	20.812214
1198.329615	-2.985800	3.552300	-10.606000	25.529830	0.000841	20.832827
1199.326917	-2.990600	3.551500	-10.619000	25.508982	0.000838	20.836546
1200.328763	-3.008000	3.549700	-10.677000	25.520487	0.000837	20.839565
1201.329910	-2.975300	3.551600	-10.567000	25.540094	0.000839	20.817056
1202.328163	-3.007100	3.549600	-10.673000	25.557116	0.000837	20.820875
1203.331924	-3.000400	3.548400	-10.646000	25.584127	0.000836	20.836621
1204.335438	-2.995200	3.548500	-10.627000	25.616454	0.000836	20.844906
1205.327528	-3.008700	3.547000	-10.671000	25.613100	0.000835	20.862399
1206.330238	-3.004900	3.548600	-10.662000	25.627164	0.000836	20.824368
1207.328494	-2.998500	3.548600	-10.639000	25.600378	0.000833	20.842510
1208.327738	-2.989000	3.546600	-10.600000	25.609348	0.000833	20.827812
1209.330676	-3.011400	3.546600	-10.678000	25.598838	0.000833	20.849024
1210.329694	-2.992900	3.546000	-10.611000	25.609125	0.000834	20.830907
1211.330842	-3.010300	3.546700	-10.676000	25.594067	0.000833	20.843759
1212.332181	-3.003400	3.547100	-10.652000	25.639414	0.000834	20.861327
1213.329153	-3.031700	3.544200	-10.744000	25.652360	0.000830	20.847777
1214.333085	-3.000100	3.545400	-10.635000	25.686474	0.000829	20.842212
1215.336527	-2.990300	3.546100	-10.603000	25.697134	0.000830	20.843435
1216.332078	-3.021200	3.545500	-10.711000	25.713979	0.000830	20.829535
1217.331045	-3.014100	3.542400	-10.676000	25.722924	0.000831	20.846579
1218.331509	-3.000900	3.544300	-10.636000	25.706153	0.000828	20.827365
1219.332358	-3.000300	3.544500	-10.633000	25.711669	0.000828	20.832905
1220.331531	-2.997900	3.543000	-10.620000	25.708687	0.000827	20.864048
1221.336141	-3.005600	3.544000	-10.651000	25.690873	0.000827	20.854690
1222.332562	-3.008100	3.543100	-10.657000	25.711644	0.000826	20.841415
1223.335011	-3.017900	3.541100	-10.685000	25.680463	0.000826	20.847079
1224.336589	-2.995300	3.541400	-10.605000	25.659641	0.000828	20.867891
1225.334863	-2.994800	3.542700	-10.608000	25.652113	0.000826	20.865071
1226.333699	-3.000100	3.542400	-10.627000	25.631714	0.000823	20.840317
1227.334491	-2.998900	3.541300	-10.618000	25.578514	0.000825	20.854217
1228.333063	-3.005500	3.540100	-10.639000	25.589646	0.000823	20.855439
1229.335891	-2.991200	3.541300	-10.591000	25.594119	0.000824	20.858509
1230.338664	-2.994900	3.540800	-10.604000	25.611736	0.000824	20.863874
1231.334299	-2.998400	3.539800	-10.612000	25.643839	0.000820	20.843487
1232.334582	-2.980500	3.539800	-10.549000	25.639169	0.000821	20.849701
1233.333552	-2.991300	3.539700	-10.587000	25.653953	0.000823	20.861704
1234.335662	-2.987900	3.540600	-10.578000	25.640734	0.000822	20.846532
1235.334029	-2.994700	3.539600	-10.600000	25.673582	0.000821	20.880469
1236.336923	-2.994900	3.538300	-10.596000	25.655046	0.000821	20.862802
1237.335468	-2.988100	3.539100	-10.573000	25.661954	0.000821	20.874007
1238.333493	-2.987900	3.536600	-10.564000	25.698901	0.000820	20.863227
1239.340326	-3.003500	3.538300	-10.626000	25.724914	0.000817	20.853794
1240.334700	-2.994100	3.536100	-10.585000	25.737163	0.000818	20.869416
1241.336482	-2.993800	3.536100	-10.583000	25.709113	0.000818	20.865423
1242.336416	-3.013300	3.534200	-10.649000	25.732319	0.000815	20.862179
1243.339209	-2.997600	3.536500	-10.599000	25.750456	0.000816	20.869965
1244.337856	-2.995300	3.536100	-10.591000	25.790729	0.000817	20.875805
1245.342947	-3.008200	3.534200	-10.629000	25.776692	0.000816	20.897739
1246.352036	-3.019800	3.534300	-10.672000	25.774009	0.000815	20.874657
1247.337724	-3.030000	3.534900	-10.708000	25.743400	0.000814	20.878525
1248.338715	-3.014100	3.535000	-10.654000	25.775575	0.000815	20.867695
1249.341767	-3.020300	3.534200	-10.673000	25.755798	0.000814	20.881495
1250.337664	-3.000400	3.532900	-10.599000	25.752991	0.000814	20.877727
1251.339445	-2.995900	3.534400	-10.588000	25.757116	0.000813	20.876180
1252.338125	-3.006900	3.533200	-10.623000	25.767277	0.000810	20.881645
1253.340122	-3.013700	3.532800	-10.646000	25.737215	0.000814	20.879899
1254.338136	-3.010500	3.531700	-10.631000	25.703227	0.000812	20.875158
1255.339257	-3.018900	3.532400	-10.663000	25.680244	0.000811	20.879574
1256.339836	-3.018500	3.531400	-10.659000	25.673685	0.000810	20.881521
1257.342866	-3.022500	3.530000	-10.669000	25.641657	0.000809	20.906724
1258.340498	-3.002700	3.532400	-10.605000	25.650354	0.000808	20.891753
1259.341390	-3.018900	3.530000	-10.656000	25.680767	0.000810	20.902857
1260.345583	-2.983400	3.531800	-10.535000	25.665089	0.000808	20.893275
1261.338271	-2.998000	3.531600	-10.586000	25.708396	0.000809	20.884142
1262.342261	-2.999100	3.530500	-10.588000	25.677984	0.000808	20.893425
1263.342786	-3.015800	3.529700	-10.643000	25.684096	0.000810	20.904304
1264.341997	-2.998800	3.530800	-10.586000	25.665214	0.000806	20.881073
1265.349235	-3.004000	3.528800	-10.600000	25.663027	0.000806	20.890730
1266.347215	-2.977700	3.530000	-10.511000	25.681065	0.000805	20.880873
1267.345237	-2.990600	3.527800	-10.549000	25.704570	0.000803	20.872714
1268.348875	-2.988700	3.529500	-10.548000	25.701141	0.000805	20.904355
1269.346579	-2.983500	3.527300	-10.523000	25.680991	0.000804	20.883644
1270.346723	-2.995300	3.527100	-10.564000	25.710658	0.000803	20.896844
1271.346674	-2.990000	3.526200	-10.541000	25.687129	0.000803	20.890282
1272.349478	-2.998500	3.526500	-10.573000	25.694980	0.000801	20.898167
1273.351922	-2.969600	3.527300	-10.474000	25.693912	0.000801	20.906576
1274.346959	-3.005100	3.526500	-10.595000	25.733168	0.000799	20.899540
1275.350206	-3.010800	3.525200	-10.613000	25.732050	0.000802	20.906003
1276.350584	-3.002500	3.525600	-10.585000	25.777491	0.000797	20.906128
1277.349225	-2.997700	3.524800	-10.566000	25.752622	0.000801	20.890632
1278.348919	-2.994400	3.524000	-10.550000	25.734710	0.000799	20.895873
1279.347406	-3.015700	3.522900	-10.623000	25.747952	0.000799	20.918655
1280.347626	-3.011800	3.523700	-10.611000	25.721244	0.000800	20.925018
1281.349990	-3.021400	3.523300	-10.643000	25.698485	0.000799	20.919229
1282.349513	-3.009800	3.522800	-10.602000	25.717368	0.000799	20.911170
1283.349919	-3.003200	3.523000	-10.579000	25.741046	0.000798	20.923097
1284.349498	-3.010500	3.524000	-10.607000	25.722089	0.000797	20.921600
1285.346877	-3.016500	3.522100	-10.623000	25.791456	0.000795	20.928687
1286.350764	-3.017600	3.521200	-10.624000	25.747034	0.000796	20.909199
1287.350611	-3.013200	3.521600	-10.610000	25.733494	0.000794	20.913616
1288.348647	-3.005800	3.521600	-10.584000	25.715059	0.000797	20.922125
1289.349123	-3.022500	3.520200	-10.639000	25.705916	0.000791	20.913417
1290.349702	-2.998400	3.521500	-10.558000	25.706935	0.000792	20.911596
1291.350547	-3.041100	3.520300	-10.703000	25.700700	0.000794	20.900592
1292.353182	-3.001200	3.521200	-10.566000	25.700947	0.000794	20.911746
1293.349802	-2.991300	3.519800	-10.528000	25.689146	0.000793	20.924547
1294.354672	-3.001600	3.520100	-10.565000	25.690488	0.000791	20.899345
1295.355174	-3.025500	3.517400	-10.640000	25.712303	0.000791	20.920780
1296.357283	-3.016200	3.516600	-10.605000	25.730341	0.000789	20.891959
1297.352806	-3.023300	3.517500	-10.632000	25.754938	0.000790	20.903863
1298.349140	-2.989700	3.518600	-10.518000	25.793944	0.000789	20.916015
1299.350552	-3.001700	3.516400	-10.554000	25.807931	0.000790	20.914418
1300.351256	-3.008200	3.516900	-10.577000	25.806093	0.000789	20.902142
1301.350536	-3.001800	3.515600	-10.551000	25.821123	0.000787	20.912972
1302.351847	-2.990200	3.517700	-10.517000	25.796554	0.000788	20.909628
1303.351774	-2.991600	3.515800	-10.517000	25.771984	0.000786	20.914345
1304.360237	-3.006700	3.517500	-10.575000	25.770071	0.000786	20.902941
1305.354320	-3.003800	3.514700	-10.556000	25.791909	0.000786	20.894059
1306.354333	-2.997300	3.515100	-10.535000	25.766966	0.000786	20.904090
1307.355091	-3.012200	3.512900	-10.581000	25.777823	0.000786	20.893185
1308.355330	-2.999600	3.514800	-10.542000	25.772233	0.000784	20.891838
1309.353903	-2.996200	3.515900	-10.533000	25.769302	0.000783	20.889843
1310.359518	-3.002000	3.514800	-10.550000	25.720581	0.000782	20.904440
1311.359547	-2.999300	3.513600	-10.537000	25.709948	0.000784	20.887123
1312.358227	-3.019000	3.511600	-10.599000	25.717923	0.000781	20.877591
1313.357303	-2.991100	3.512000	-10.504000	25.728632	0.000781	20.892139
1314.357135	-3.017300	3.513200	-10.600000	25.730520	0.000783	20.886923
1315.358462	-3.004900	3.512100	-10.552000	25.738223	0.000783	20.899401
1316.357771	-3.012700	3.510100	-10.574000	25.738347	0.000780	20.878191
1317.358300	-2.987600	3.511700	-10.491000	25.788980	0.000779	20.902021
1318.358480	-3.015400	3.510900	-10.585000	25.818867	0.000778	20.878465
1319.362678	-2.998000	3.509700	-10.521000	25.809079	0.000780	20.868634
1320.359898	-2.997000	3.511700	-10.523000	25.792185	0.000777	20.882957
1321.361141	-2.996700	3.509700	-10.517000	25.765876	0.000777	20.876445
1322.356382	-2.989500	3.509000	-10.488000	25.767465	0.000777	20.885153
1323.361568	-2.992100	3.510300	-10.502000	25.782770	0.000776	20.884879
1324.362151	-2.991000	3.509500	-10.496000	25.763391	0.000776	20.884854
1325.362296	-2.991600	3.509000	-10.495000	25.792559	0.000776	20.887600
1326.365199	-3.011400	3.507700	-10.562000	25.796658	0.000772	20.876544
1327.364044	-3.001000	3.508200	-10.527000	25.836532	0.000775	20.881037
1328.363346	-2.989000	3.507500	-10.482000	25.800285	0.000775	20.875447
1329.361459	-2.992900	3.506900	-10.495000	25.801353	0.000774	20.870831
1330.367221	-2.993400	3.506500	-10.495000	25.811490	0.000772	20.891917
1331.363137	-3.012800	3.506200	-10.563000	25.802720	0.000771	20.869833
1332.364921	-3.008500	3.505600	-10.544000	25.776658	0.000771	20.872103
1333.367623	-3.007900	3.506200	-10.545000	25.728883	0.000772	20.890969
1334.369102	-3.008700	3.504900	-10.543000	25.667588	0.000771	20.873027
1335.366178	-3.022200	3.504700	-10.590000	25.661202	0.000771	20.866614
1336.366554	-3.000800	3.505500	-10.518000	25.654916	0.000772	20.884481
1337.366066	-3.013000	3.503400	-10.555000	25.671240	0.000771	20.878592
1338.366717	-3.006900	3.502800	-10.532000	25.716113	0.000767	20.879565
1339.366162	-2.976500	3.503200	-10.426000	25.719989	0.000770	20.867812
1340.371193	-2.998900	3.503200	-10.505000	25.763840	0.000767	20.858280
1341.367302	-3.000600	3.502200	-10.508000	25.792088	0.000768	20.891868
1342.370159	-3.001700	3.502300	-10.511000	25.782647	0.000767	20.878592
1343.369400	-2.991300	3.502900	-10.477000	25.792560	0.000767	20.856783
1344.372104	-2.990400	3.502300	-10.473000	25.817479	0.000766	20.835347
1345.371788	-3.004700	3.502500	-10.523000	25.818944	0.000767	20.854837
1346.373994	-2.993200	3.501600	-10.480000	25.842520	0.000765	20.858131
1347.371670	-3.002100	3.499600	-10.505000	25.810771	0.000766	20.849946
1348.371603	-2.992500	3.499700	-10.472000	25.807591	0.000764	20.872355
1349.374262	-3.014600	3.499600	-10.548000	25.773008	0.000763	20.859902
1350.372535	-2.986900	3.499100	-10.449000	25.740561	0.000764	20.852441
1351.374962	-2.997700	3.498800	-10.488000	25.737009	0.000765	20.838916
1352.379191	-2.990500	3.499800	-10.465000	25.722449	0.000763	20.866491
1353.373104	-3.005900	3.498700	-10.516000	25.699194	0.000761	20.872055
1354.376683	-2.997700	3.497300	-10.482000	25.684535	0.000762	20.863970
1355.373299	-3.017300	3.497400	-10.552000	25.700560	0.000761	20.851618
1356.373060	-2.982300	3.497800	-10.430000	25.690771	0.000758	20.867863
1357.375943	-2.995500	3.496200	-10.472000	25.686622	0.000761	20.861799
1358.373417	-2.992800	3.496700	-10.463000	25.693007	0.000757	20.831230
1359.373852	-2.995300	3.495700	-10.469000	25.695591	0.000759	20.848998
1360.374515	-3.029800	3.494600	-10.587000	25.694870	0.000758	20.840688
1361.376401	-3.000000	3.494700	-10.483000	25.711915	0.000758	20.837893
1362.374495	-3.000700	3.494700	-10.485000	25.756562	0.000759	20.855711
1363.378790	-3.002700	3.493900	-10.490000	25.721033	0.000755	20.866965
1364.376302	-3.024500	3.493800	-10.566000	25.734053	0.000757	20.842585
1365.374587	-2.997600	3.495600	-10.477000	25.729555	0.000756	20.855611
1366.376995	-2.994300	3.494200	-10.462000	25.718176	0.000754	20.859828
1367.377545	-3.025300	3.493400	-10.568000	25.725779	0.000753	20.836646
1368.375649	-3.025000	3.492400	-10.563000	25.683567	0.000755	20.878644
1369.376831	-2.996900	3.492500	-10.465000	25.699244	0.000753	20.845555
1370.379706	-3.006400	3.492300	-10.498000	25.732636	0.000753	20.853964
1371.375720	-3.018400	3.491400	-10.538000	25.745258	0.000755	20.841512
1372.381778	-2.988500	3.492700	-10.436000	25.774649	0.000753	20.842111
1373.379163	-3.016600	3.489200	-10.524000	25.762550	0.000753	20.862674
1374.378220	-3.002500	3.490800	-10.480000	25.760413	0.000751	20.836347
1375.380626	-3.017400	3.491400	-10.534000	25.750178	0.000750	20.845031
1376.378569	-3.028000	3.489200	-10.563000	25.757309	0.000752	20.850771
1377.378073	-2.998500	3.491000	-10.467000	25.763420	0.000750	20.841264
1378.382658	-3.006100	3.489800	-10.490000	25.745681	0.000751	20.849049
1379.384436	-3.029700	3.488300	-10.566000	25.768190	0.000747	20.834675
1380.379725	-3.003600	3.487600	-10.474000	25.765582	0.000748	20.845805
1381.386527	-2.994900	3.488500	-10.446000	25.820959	0.000747	20.844533
1382.382664	-2.993400	3.488200	-10.441000	25.813083	0.000748	20.827613
1383.378541	-2.980700	3.488000	-10.396000	25.820214	0.000747	20.839043
1384.382194	-2.996900	3.486500	-10.448000	25.855738	0.000749	20.840115
1385.381734	-2.988500	3.487900	-10.422000	25.866520	0.000746	20.859955
1386.379871	-2.994100	3.487600	-10.441000	25.874619	0.000746	20.833952
1387.386844	-2.997100	3.486100	-10.447000	25.870072	0.000747	20.825118
1388.380417	-2.991800	3.486200	-10.429000	25.859465	0.000744	20.839117
1389.383168	-2.994500	3.484800	-10.435000	25.815344	0.000744	20.827988
1390.383099	-2.989000	3.485900	-10.418000	25.797183	0.000745	20.852418
1391.380810	-2.992300	3.486400	-10.432000	25.812288	0.000744	20.845780
1392.381976	-3.004600	3.483100	-10.463000	25.782526	0.000743	20.819204
1393.386834	-3.014500	3.485100	-10.505000	25.734923	0.000742	20.833028
1394.384055	-2.980600	3.485800	-10.389000	25.679145	0.000743	20.828213
1395.380156	-2.997000	3.482800	-10.436000	25.675840	0.000742	20.837221
1396.381619	-2.991300	3.484100	-10.421000	25.683244	0.000740	20.835175
1397.381954	-3.000000	3.482400	-10.446000	25.690649	0.000741	20.828862
1398.381379	-2.980900	3.483300	-10.382000	25.719147	0.000740	20.827139
1399.383932	-2.985400	3.480900	-10.390000	25.756340	0.000740	20.830359
1400.383574	-3.002200	3.481300	-10.451000	25.773160	0.000739	20.832555
1401.382368	-3.006800	3.481300	-10.467000	25.742005	0.000740	20.821175
1402.390357	-2.997900	3.480000	-10.431000	25.757110	0.000737	20.817856
1403.381786	-2.983200	3.481500	-10.385000	25.743321	0.000736	20.822024
1404.389456	-2.992600	3.480400	-10.414000	25.752440	0.000737	20.831657
1405.384064	-2.966900	3.480500	-10.326000	25.752315	0.000737	20.817781
1406.385781	-2.994700	3.478900	-10.417000	25.782154	0.000738	20.833055
1407.382599	-3.009100	3.477500	-10.463000	25.777358	0.000734	20.827289
1408.389810	-3.013400	3.478200	-10.480000	25.722600	0.000736	20.814962
1409.390941	-2.999000	3.477800	-10.428000	25.727570	0.000734	20.825643
1410.386495	-2.986200	3.477500	-10.383000	25.726302	0.000734	20.812990
1411.386154	-2.985500	3.477800	-10.382000	25.739868	0.000736	20.803383
1412.386249	-2.991500	3.478000	-10.403000	25.738700	0.000734	20.818805
1413.386014	-2.999000	3.476900	-10.426000	25.742129	0.000733	20.813240
1414.389094	-2.978900	3.476300	-10.354000	25.729582	0.000732	20.821026
1415.391989	-3.013900	3.476000	-10.475000	25.715818	0.000732	20.820951
1416.389205	-2.997200	3.474600	-10.413000	25.739769	0.000732	20.808973
1417.392791	-3.019700	3.475600	-10.494000	25.744042	0.000730	20.829386
1418.390049	-3.005600	3.475000	-10.443000	25.705308	0.000731	20.818930
1419.389590	-3.001200	3.475900	-10.430000	25.659268	0.000728	20.813464
1420.393922	-2.993100	3.475500	-10.402000	25.648534	0.000730	20.813116
1421.392385	-3.040100	3.472100	-10.554000	25.627761	0.000731	20.813115
1422.394337	-3.005900	3.472900	-10.438000	25.637228	0.000728	20.811717
1423.395278	-2.988300	3.474300	-10.379000	25.644980	0.000728	20.819503
1424.392743	-3.031100	3.471200	-10.521000	25.677181	0.000727	20.821025
1425.391381	-3.000900	3.472700	-10.420000	25.738551	0.000726	20.820551
1426.396159	-3.020500	3.470300	-10.481000	25.767743	0.000728	20.803881
1427.393126	-3.024400	3.471900	-10.499000	25.801854	0.000725	20.818231
1428.393613	-3.008600	3.470600	-10.440000	25.804612	0.000725	20.811518
1429.399487	-2.997000	3.471200	-10.403000	25.834449	0.000723	20.815411
1430.394446	-3.029100	3.471200	-10.513000	25.803991	0.000726	20.829859
1431.394631	-3.012000	3.468900	-10.446000	25.811767	0.000725	20.805903
1432.396695	-3.012900	3.468300	-10.448000	25.820138	0.000723	20.816209
1433.395516	-3.010800	3.469200	-10.444000	25.844633	0.000724	20.802882
1434.397499	-2.975900	3.470700	-10.328000	25.846398	0.000723	20.810344
1435.397103	-3.001200	3.468400	-10.408000	25.881425	0.000722	20.802857
1436.395875	-2.989300	3.467300	-10.362000	25.881251	0.000721	20.813114
1437.398666	-2.990200	3.467200	-10.367000	25.848112	0.000722	20.810644
1438.400688	-3.006500	3.466100	-10.419000	25.788861	0.000719	20.799015
1439.397697	-3.011700	3.467600	-10.443000	25.785755	0.000719	20.813913
1440.396098	-3.014600	3.465900	-10.447000	25.792587	0.000723	20.798016
1441.401001	-3.006000	3.465800	-10.417000	25.808959	0.000720	20.813988
1442.398673	-2.990500	3.466200	-10.365000	25.861303	0.000720	20.800662
1443.399331	-3.011000	3.463700	-10.429000	25.812015	0.000720	20.803781
1444.396787	-2.992200	3.464500	-10.365000	25.838821	0.000718	20.811268
1445.397854	-2.992400	3.465700	-10.370000	25.798848	0.000719	20.808573
1446.398524	-3.003900	3.463000	-10.401000	25.824014	0.000718	20.807300
1447.399346	-3.020100	3.463400	-10.458000	25.816412	0.000718	20.802034
1448.400743	-3.002800	3.462600	-10.395000	25.802152	0.000716	20.804779
1449.398572	-3.005700	3.463800	-10.410000	25.779643	0.000715	20.798291
1450.399105	-2.994500	3.463000	-10.369000	25.763892	0.000715	20.784840
1451.398339	-2.994600	3.462700	-10.368000	25.783718	0.000715	20.809970
1452.398373	-3.011500	3.461200	-10.421000	25.794773	0.000716	20.776030
1453.400546	-3.009700	3.460900	-10.414000	25.802947	0.000713	20.800362
1454.400890	-2.996900	3.461500	-10.371000	25.829753	0.000714	20.799788
1455.399908	-2.997600	3.462100	-10.377000	25.853825	0.000713	20.804056
1456.398715	-2.995200	3.462100	-10.368000	25.878866	0.000713	20.791753
1457.398427	-3.022400	3.459600	-10.455000	25.890045	0.000712	20.797293
1458.397696	-3.005300	3.459000	-10.394000	25.846597	0.000712	20.797742
1459.401245	-3.020300	3.458000	-10.443000	25.779594	0.000711	20.792077
1460.398293	-2.986800	3.459500	-10.331000	25.766551	0.000712	20.789881
1461.399022	-3.013100	3.457600	-10.418000	25.739868	0.000712	20.788209
1462.398510	-3.010700	3.457500	-10.408000	25.730650	0.000712	20.785114
1463.397684	-2.994500	3.458900	-10.357000	25.732763	0.000708	20.790081
1464.397814	-3.003700	3.458400	-10.386000	25.737558	0.000710	20.784941
1465.402267	-2.993000	3.457500	-10.347000	25.719048	0.000707	20.790531
1466.401887	-3.011000	3.457600	-10.410000	25.696587	0.000707	20.781721
1467.400352	-2.992100	3.457600	-10.345000	25.644956	0.000708	20.770167
1468.403887	-3.008200	3.456300	-10.396000	25.691370	0.000707	20.791654
1469.399895	-3.014700	3.455300	-10.414000	25.682550	0.000706	20.775208
1470.401698	-3.015300	3.454400	-10.416000	25.717930	0.000706	20.771863
1471.403843	-3.010500	3.454800	-10.399000	25.778477	0.000705	20.789058
1472.403414	-3.002600	3.454200	-10.371000	25.747570	0.000705	20.789308
1473.401508	-2.985300	3.454900	-10.313000	25.783669	0.000705	20.790481
1474.406922	-2.988200	3.455000	-10.323000	25.782253	0.000704	20.782420
1475.403079	-3.015400	3.451300	-10.406000	25.780961	0.000707	20.788235
1476.400359	-2.981600	3.453900	-10.296000	25.777532	0.000703	20.759660
1477.404966	-2.983600	3.452200	-10.299000	25.770775	0.000704	20.781796
1478.403149	-2.977300	3.453800	-10.281000	25.739222	0.000704	20.780448
1479.404226	-2.996400	3.450200	-10.337000	25.722327	0.000704	20.761108
1480.405871	-2.992100	3.451700	-10.327000	25.704166	0.000702	20.781746
1481.404904	-3.021200	3.450100	-10.422000	25.699767	0.000703	20.773535
1482.406967	-2.997100	3.451400	-10.344000	25.707172	0.000700	20.778128
1483.409184	-3.002600	3.451000	-10.361000	25.685581	0.000701	20.779201
1484.408412	-3.005100	3.450100	-10.367000	25.683071	0.000700	20.767672
1485.405182	-2.980800	3.449700	-10.282000	25.724837	0.000700	20.758412
1486.406586	-3.026200	3.448300	-10.434000	25.714278	0.000697	20.763928
1487.405128	-2.994600	3.448600	-10.325000	25.715098	0.000698	20.790830
1488.407787	-2.993500	3.448400	-10.321000	25.690003	0.000698	20.788385
1489.406393	-3.009400	3.446800	-10.371000	25.651144	0.000697	20.783968
1490.407387	-2.988600	3.448100	-10.304000	25.658772	0.000696	20.771715
1491.409102	-2.990800	3.447800	-10.310000	25.678128	0.000697	20.787363
1492.409493	-2.980400	3.446900	-10.272000	25.691098	0.000695	20.773837
1493.409818	-2.969900	3.447700	-10.238000	25.702701	0.000697	20.790233
1494.407951	-3.008900	3.445100	-10.365000	25.725534	0.000695	20.770967
1495.406370	-2.993200	3.446800	-10.316000	25.730006	0.000695	20.760285
1496.408278	-2.995100	3.445400	-10.318000	25.759099	0.000696	20.763904
1497.406279	-2.976600	3.445400	-10.255000	25.780491	0.000693	20.774960
1498.410891	-2.975300	3.446200	-10.251000	25.791323	0.000692	20.781573
1499.410511	-3.007800	3.442200	-10.352000	25.785112	0.000692	20.786714
1500.408288	-3.020800	3.442700	-10.399000	25.816613	0.000693	20.760510
1501.413228	-3.016800	3.443600	-10.388000	25.801806	0.000694	20.765551
1502.411788	-3.009100	3.442000	-10.356000	25.818676	0.000692	20.770643
1503.412884	-3.014500	3.441600	-10.373000	25.855691	0.000691	20.789809
1504.410025	-3.002300	3.441100	-10.330000	25.881552	0.000691	20.763630
1505.407154	-2.991800	3.443300	-10.301000	25.884633	0.000690	20.770044
1506.409928	-3.009200	3.441400	-10.354000	25.889452	0.000690	20.772041
1507.410946	-3.028000	3.441300	-10.419000	25.885552	0.000691	20.776657
1508.412207	-3.003300	3.440400	-10.332000	25.902270	0.000691	20.744613
1509.416386	-3.021100	3.439000	-10.389000	25.912653	0.000689	20.780176
1510.416430	-2.998600	3.439700	-10.313000	25.897302	0.000690	20.748157
1511.412742	-2.991500	3.439400	-10.288000	25.892831	0.000687	20.759787
1512.414717	-3.015700	3.438400	-10.368000	25.915312	0.000687	20.784269
1513.414485	-3.011300	3.437700	-10.351000	25.929794	0.000687	20.772740
1514.417667	-3.009300	3.438400	-10.346000	25.928900	0.000688	20.783221
1515.412827	-3.007000	3.436500	-10.332000	25.877752	0.000684	20.783995
1516.417888	-2.985500	3.437600	-10.261000	25.869827	0.000688	20.767499
1517.414743	-3.023900	3.436500	-10.391000	25.873554	0.000685	20.767924
1518.413829	-3.016400	3.436700	-10.366000	25.875466	0.000685	20.762732
1519.414366	-2.995300	3.435400	-10.289000	25.874994	0.000686	20.772216
1520.415429	-3.014100	3.435500	-10.355000	25.897154	0.000684	20.782149
1521.417222	-3.013000	3.436000	-10.353000	25.896905	0.000684	20.774312
1522.414563	-3.029100	3.434000	-10.401000	25.891540	0.000682	20.768449
1523.416740	-3.027500	3.434200	-10.396000	25.907836	0.000680	20.768698
1524.412160	-2.982200	3.436500	-10.247000	25.933148	0.000683	20.765678
1525.416767	-2.996400	3.435200	-10.293000	25.928752	0.000682	20.757468
1526.414436	-3.018000	3.433000	-10.359000	25.897055	0.000682	20.777782
1527.416428	-3.017100	3.434200	-10.361000	25.846626	0.000682	20.758890
1528.420653	-2.991400	3.433200	-10.269000	25.849358	0.000681	20.774912
1529.420935	-2.977100	3.432300	-10.217000	25.903564	0.000680	20.785269
1530.416047	-3.003600	3.432200	-10.308000	25.876263	0.000679	20.762584
1531.420634	-2.985800	3.432400	-10.246000	25.898099	0.000679	20.788314
1532.419008	-3.001600	3.431800	-10.300000	25.923685	0.000679	20.773241
1533.417265	-3.017500	3.430700	-10.350000	25.931485	0.000678	20.776809
1534.423037	-2.974500	3.431400	-10.206000	25.951556	0.000678	20.772318
1535.418559	-3.000000	3.430300	-10.290000	25.978111	0.000677	20.760115
1536.421165	-3.004700	3.430700	-10.307000	25.999075	0.000677	20.759840
1537.418976	-2.996900	3.429900	-10.278000	25.985737	0.000675	20.783424
1538.420930	-3.001500	3.429800	-10.293000	26.036333	0.000676	20.773092
1539.423470	-3.034100	3.429100	-10.402000	26.012588	0.000677	20.766778
1540.426222	-2.986300	3.429600	-10.241000	25.963307	0.000676	20.767054
1541.424409	-2.998100	3.427300	-10.274000	25.916905	0.000674	20.792034
1542.425315	-3.013800	3.429200	-10.333000	25.896189	0.000674	20.761264
1543.426322	-3.007700	3.428300	-10.311000	25.893878	0.000675	20.776962
1544.423077	-3.022600	3.425600	-10.352000	25.891320	0.000671	20.766805
1545.423139	-2.994200	3.428500	-10.265000	25.884364	0.000672	20.775464
1546.425416	-3.012300	3.426200	-10.320000	25.855325	0.000672	20.797975
1547.425749	-3.003600	3.425600	-10.288000	25.841065	0.000669	20.784599
1548.422585	-2.992800	3.426000	-10.253000	25.831873	0.000672	20.777736
1549.426516	-3.000400	3.425600	-10.277000	25.815700	0.000672	20.771922
1550.428645	-2.987600	3.424900	-10.231000	25.804098	0.000671	20.777337
1551.423713	-2.982700	3.424700	-10.215000	25.852865	0.000671	20.753304
1552.424891	-2.994500	3.424700	-10.254000	25.868690	0.000669	20.795754
1553.425959	-3.022500	3.423900	-10.348000	25.892786	0.000668	20.769226
1554.425037	-3.014300	3.423500	-10.318000	25.896463	0.000667	20.780506
1555.426225	-3.006600	3.422400	-10.289000	25.908809	0.000668	20.783426
1556.428308	-2.977000	3.423800	-10.192000	25.919291	0.000667	20.783526
1557.426322	-3.028700	3.419600	-10.355000	25.945325	0.000668	20.787869
1558.426096	-3.008200	3.422700	-10.295000	25.964304	0.000667	20.796030
1559.429876	-2.992400	3.421100	-10.236000	25.981915	0.000669	20.774842
1560.425948	-2.998600	3.421300	-10.258000	26.009685	0.000665	20.794208
1561.428175	-3.000100	3.421700	-10.264000	26.017783	0.000664	20.753505
1562.426696	-3.017000	3.418800	-10.314000	26.036312	0.000665	20.767381
1563.427190	-3.018700	3.419900	-10.322000	26.036685	0.000665	20.798576
1564.426537	-3.011400	3.418700	-10.294000	26.026079	0.000665	20.793609
1565.426386	-2.988500	3.419700	-10.219000	25.967583	0.000664	20.808807
1566.426814	-2.989100	3.419100	-10.219000	25.937154	0.000663	20.781082
1567.425332	-3.013000	3.418000	-10.297000	25.923740	0.000664	20.782304
1568.426675	-2.986200	3.419100	-10.209000	25.905383	0.000662	20.794683
1569.427898	-3.014800	3.417900	-10.303000	25.919691	0.000661	20.790566
1570.426031	-3.019000	3.418300	-10.319000	25.952158	0.000660	20.794259
1571.429814	-2.996700	3.417100	-10.239000	25.968752	0.000661	20.798128
1572.426819	-3.000500	3.418500	-10.256000	25.972900	0.000659	20.783803
1573.425115	-3.010100	3.417100	-10.285000	25.999925	0.000660	20.783928
1574.430579	-2.988200	3.416500	-10.208000	26.017114	0.000659	20.797404
1575.425817	-2.988100	3.416700	-10.208000	26.033880	0.000658	20.791490
1576.428848	-3.023600	3.416400	-10.329000	26.035693	0.000658	20.802795
1577.430950	-3.009000	3.415800	-10.277000	26.038798	0.000658	20.795009
1578.428615	-3.015900	3.414600	-10.297000	25.995803	0.000657	20.792114
1579.429573	-3.026800	3.413100	-10.330000	26.015202	0.000656	20.791690
1580.428084	-2.997300	3.415300	-10.236000	26.032962	0.000656	20.800999
1581.429615	-3.006800	3.412400	-10.259000	26.014009	0.000658	20.809458
1582.436726	-3.019400	3.412400	-10.302000	25.995604	0.000657	20.793812
1583.429254	-2.997400	3.412600	-10.227000	26.015351	0.000655	20.781882
1584.430349	-2.998200	3.411600	-10.227000	26.001516	0.000654	20.816821
1585.429953	-2.992600	3.412600	-10.212000	26.016196	0.000653	20.807862
1586.428756	-3.012900	3.410700	-10.274000	25.976205	0.000653	20.804194
1587.432292	-2.984300	3.412200	-10.181000	25.951092	0.000652	20.798404
1588.431493	-3.006400	3.411800	-10.256000	25.960258	0.000654	20.812828
1589.434295	-2.992800	3.410800	-10.206000	25.973175	0.000653	20.797831
1590.432715	-3.030000	3.408100	-10.326000	25.954670	0.000652	20.802472
1591.429467	-2.985800	3.410700	-10.182000	25.982863	0.000651	20.806141
1592.431704	-2.989400	3.408800	-10.189000	25.963613	0.000650	20.806715
1593.432773	-2.981300	3.410300	-10.166000	25.968655	0.000651	20.833117
1594.433182	-2.996400	3.409600	-10.215000	25.966122	0.000654	20.801175
1595.430527	-3.000600	3.408200	-10.225000	25.948137	0.000651	20.789746
1596.431245	-3.038800	3.406400	-10.349000	25.896792	0.000651	20.800751
1597.432261	-3.008900	3.406600	-10.248000	25.899302	0.000649	20.808014
1598.433075	-2.995500	3.407500	-10.206000	25.911002	0.000649	20.815975
1599.433406	-3.004400	3.406300	-10.233000	25.930576	0.000647	20.837535
1600.433021	-2.996800	3.407000	-10.209000	25.944885	0.000648	20.818246
1601.430303	-3.005100	3.406100	-10.234000	25.942079	0.000647	20.818746
1602.435858	-2.988500	3.406400	-10.179000	25.933359	0.000646	20.804771
1603.431118	-2.994700	3.405700	-10.198000	25.914928	0.000645	20.817549
1604.437371	-3.017100	3.405100	-10.273000	25.885913	0.000646	20.823962
1605.434129	-2.984400	3.405900	-10.164000	25.919450	0.000646	20.800280
1606.433823	-3.009300	3.404100	-10.243000	25.954773	0.000645	20.805895
1607.436702	-2.999400	3.405700	-10.214000	25.960163	0.000645	20.824112
1608.434602	-2.987900	3.404900	-10.173000	25.988555	0.000645	20.803799
1609.432704	-3.024500	3.402500	-10.290000	26.014512	0.000645	20.817549
1610.434063	-3.010600	3.403100	-10.244000	26.031054	0.000645	20.812833
1611.436075	-3.008100	3.402600	-10.234000	26.071466	0.000642	20.808391
1612.435554	-2.997200	3.402000	-10.195000	26.053608	0.000641	20.807993
1613.434538	-3.003800	3.401200	-10.215000	26.066176	0.000643	20.819671
1614.435205	-2.975800	3.401400	-10.120000	26.077775	0.000641	20.823265
1615.433653	-3.004800	3.400100	-10.216000	26.086642	0.000640	20.815105
1616.439151	-2.995200	3.402100	-10.187000	26.004528	0.000639	20.813683
1617.434904	-3.006500	3.401600	-10.226000	25.994866	0.000639	20.822467
1618.433504	-2.994100	3.399700	-10.178000	25.974448	0.000638	20.824239
1619.435320	-3.016300	3.398200	-10.249000	26.004379	0.000638	20.832973
1620.436460	-3.014000	3.398900	-10.243000	25.961308	0.000638	20.823366
1621.434883	-3.007800	3.398600	-10.221000	25.951721	0.000637	20.823217
1622.435805	-3.003600	3.398200	-10.206000	25.934803	0.000637	20.817127
1623.435513	-3.018600	3.398300	-10.257000	25.900176	0.000635	20.838764
1624.438619	-3.018100	3.398300	-10.255000	25.905641	0.000639	20.819599
1625.440166	-3.006500	3.397000	-10.212000	25.868801	0.000636	20.813410
1626.437191	-2.990500	3.397400	-10.158000	25.870938	0.000636	20.825987
1627.433818	-3.009300	3.397300	-10.222000	25.903281	0.000637	20.838564
1628.440411	-3.000900	3.395700	-10.189000	25.916026	0.000636	20.822918
1629.434688	-2.995400	3.396000	-10.172000	25.958229	0.000633	20.834971
1630.438346	-2.990800	3.396800	-10.158000	25.965906	0.000634	20.826088
1631.436011	-2.987500	3.396800	-10.147000	26.003090	0.000635	20.844480
1632.440269	-3.012300	3.394900	-10.226000	26.042186	0.000635	20.818801
1633.436931	-3.006900	3.393300	-10.202000	25.995764	0.000632	20.843283
1634.436204	-2.973700	3.394700	-10.093000	25.992808	0.000631	20.835098
1635.438684	-2.986600	3.395500	-10.140000	25.988336	0.000632	20.832976
1636.433973	-2.978200	3.394500	-10.109000	26.034189	0.000632	20.843483
1637.435988	-2.997000	3.393900	-10.170000	25.990225	0.000630	20.833925
1638.433469	-2.970200	3.394600	-10.080000	25.991864	0.000629	20.831305
1639.441688	-2.988500	3.392900	-10.139000	25.941440	0.000630	20.835173
1640.437142	-2.969900	3.393400	-10.077000	25.908999	0.000630	20.854264
1641.445253	-2.996700	3.393000	-10.166000	25.888554	0.000628	20.855063
1642.438407	-2.982300	3.393500	-10.119000	25.889573	0.000627	20.839965
1643.436502	-2.986900	3.392300	-10.132000	25.881251	0.000628	20.848201
1644.447739	-3.011300	3.391600	-10.210000	25.935604	0.000628	20.871982
1645.440670	-3.014400	3.390800	-10.220000	25.979843	0.000628	20.841987
1646.437820	-3.010700	3.390800	-10.208000	25.981234	0.000627	20.842436
1647.436435	-2.992000	3.389900	-10.141000	25.992487	0.000626	20.853741
1648.436707	-3.009300	3.391400	-10.204000	25.992860	0.000625	20.846055
1649.438498	-2.988100	3.389500	-10.127000	25.949042	0.000623	20.846129
1650.446216	-2.995400	3.389800	-10.153000	25.959625	0.000622	20.846804
1651.441205	-3.004600	3.390000	-10.184000	25.951329	0.000625	20.856013
1652.440012	-3.015100	3.388800	-10.216000	25.965686	0.000624	20.837721
1653.441983	-3.017900	3.386800	-10.221000	26.006471	0.000624	20.854040
1654.443191	-3.007800	3.387900	-10.189000	26.042264	0.000621	20.857285
1655.439377	-2.998400	3.388200	-10.158000	26.042389	0.000623	20.859781
1656.442506	-2.993800	3.387100	-10.139000	26.068170	0.000622	20.843485
1657.443996	-2.979200	3.387600	-10.092000	26.098099	0.000620	20.856013
1658.444499	-3.006300	3.385800	-10.178000	26.110269	0.000621	20.855913
1659.446458	-3.004700	3.386100	-10.173000	26.143053	0.000621	20.863249
1660.441355	-2.991700	3.386900	-10.132000	26.178666	0.000619	20.870111
1661.441967	-3.007200	3.384700	-10.178000	26.128747	0.000618	20.848401
1662.443746	-2.996700	3.385400	-10.144000	26.101701	0.000618	20.828813
1663.446616	-3.010300	3.384200	-10.186000	26.085507	0.000620	20.864223
1664.441819	-3.005600	3.384200	-10.171000	26.118441	0.000619	20.870761
1665.447035	-3.000300	3.383700	-10.151000	26.138880	0.000618	20.860954
1666.443820	-3.006200	3.383200	-10.170000	26.170570	0.000615	20.861503
1667.449273	-3.005900	3.383500	-10.169000	26.153260	0.000616	20.861178
1668.443943	-2.977400	3.383000	-10.072000	26.120154	0.000616	20.879595
1669.449773	-2.996900	3.382700	-10.137000	26.105451	0.000615	20.866718
1670.445702	-2.999600	3.382400	-10.145000	26.084365	0.000615	20.878721
1671.445507	-2.982200	3.383500	-10.089000	26.094175	0.000617	20.857760
1672.445611	-3.011300	3.380600	-10.178000	26.113076	0.000616	20.863949
1673.444383	-2.996300	3.380600	-10.127000	26.140942	0.000615	20.871085
1674.444705	-3.000300	3.381000	-10.143000	26.121645	0.000613	20.881092
1675.447697	-2.973700	3.380900	-10.052000	26.123308	0.000615	20.866643
1676.445211	-3.024600	3.379000	-10.219000	26.098770	0.000612	20.889875
1677.446571	-3.017900	3.380000	-10.200000	26.112654	0.000614	20.878222
1678.449769	-3.021400	3.378600	-10.207000	26.113970	0.000612	20.880967
1679.446900	-3.007600	3.378400	-10.160000	26.127283	0.000613	20.888179
1680.448106	-2.989100	3.379400	-10.100000	26.101875	0.000610	20.875927
1681.451609	-2.995600	3.378900	-10.121000	26.131282	0.000610	20.882715
1682.451035	-2.994000	3.378100	-10.113000	26.158303	0.000608	20.874305
1683.449938	-2.985500	3.378300	-10.085000	26.151200	0.000608	20.873807
1684.450751	-2.998600	3.378700	-10.130000	26.116628	0.000609	20.894542
1685.453546	-2.997200	3.376700	-10.120000	26.157210	0.000609	20.882689
1686.451741	-2.989400	3.377800	-10.096000	26.164934	0.000607	20.868641
1687.450547	-3.026900	3.375800	-10.217000	26.197020	0.000608	20.863899
1688.451645	-2.997200	3.375900	-10.116000	26.193693	0.000608	20.871461
1689.453072	-2.992700	3.374800	-10.099000	26.220986	0.000608	20.894144
1690.455368	-3.020200	3.374400	-10.190000	26.236829	0.000606	20.892996
1691.455903	-3.010500	3.374400	-10.158000	26.277333	0.000606	20.906197
1692.453746	-3.022800	3.373700	-10.197000	26.289178	0.000607	20.886808
1693.454454	-3.020700	3.375100	-10.193000	26.291040	0.000603	20.894843
1694.458529	-3.015000	3.372900	-10.169000	26.293946	0.000606	20.903452
1695.454241	-2.999000	3.374000	-10.118000	26.298540	0.000604	20.893371
1696.456064	-2.998300	3.374900	-10.116000	26.309292	0.000603	20.899434
1697.463560	-2.993300	3.374500	-10.098000	26.314656	0.000603	20.901031
1698.456283	-3.006800	3.372100	-10.139000	26.308200	0.000602	20.902604
1699.456271	-3.004900	3.373700	-10.135000	26.321509	0.000603	20.893221
1700.456050	-3.017200	3.371700	-10.172000	26.334645	0.000602	20.890302
1701.460113	-3.008600	3.371200	-10.142000	26.352450	0.000600	20.892548
1702.456450	-3.010800	3.371000	-10.147000	26.363623	0.000599	20.885286
1703.456906	-3.013500	3.370600	-10.156000	26.346243	0.000600	20.905275
1704.455474	-2.991800	3.371600	-10.086000	26.338495	0.000601	20.881843
1705.457267	-3.055900	3.369000	-10.294000	26.324217	0.000598	20.901157
1706.462310	-3.028000	3.369000	-10.199000	26.312497	0.000598	20.905026
1707.458721	-3.000200	3.369300	-10.108000	26.338619	0.000598	20.917527
1708.458763	-2.973800	3.370300	-10.021000	26.283294	0.000598	20.903178
1709.459925	-3.027400	3.368300	-10.196000	26.293749	0.000597	20.906573
1710.461191	-3.021100	3.368500	-10.174000	26.282649	0.000598	20.915805
1711.459653	-3.009300	3.367600	-10.134000	26.280836	0.000596	20.906872
1712.462588	-2.984500	3.368200	-10.052000	26.262535	0.000596	20.916454
1713.460876	-3.001500	3.367300	-10.106000	26.248827	0.000595	20.895094
1714.461646	-3.008700	3.368200	-10.133000	26.267502	0.000596	20.895844
1715.462738	-2.995800	3.367100	-10.086000	26.250193	0.000596	20.911639
1716.460142	-2.997600	3.366200	-10.090000	26.254191	0.000595	20.913760
1717.460655	-2.977900	3.368400	-10.031000	26.259977	0.000593	20.909618
1718.459896	-2.979300	3.366900	-10.031000	26.292657	0.000594	20.932025
1719.462603	-2.978700	3.366400	-10.025000	26.301622	0.000591	20.886985
1720.461049	-2.992700	3.364700	-10.069000	26.286325	0.000593	20.890105
1721.459501	-2.993600	3.365400	-10.074000	26.259655	0.000593	20.892226
1722.463138	-2.985100	3.365500	-10.044000	26.266956	0.000590	20.892450
1723.460630	-2.993200	3.363400	-10.067000	26.273164	0.000591	20.886362
1724.463600	-2.994400	3.364100	-10.072000	26.233382	0.000588	20.883842
1725.464344	-2.990400	3.364500	-10.060000	26.191462	0.000589	20.882021
1726.459743	-2.992100	3.364500	-10.066000	26.171172	0.000590	20.891977
1727.462427	-3.002900	3.362500	-10.096000	26.192356	0.000587	20.890031
1728.466699	-2.979300	3.363500	-10.019000	26.181975	0.000588	20.872488
1729.466259	-2.992400	3.363100	-10.063000	26.167868	0.000585	20.872537
1730.463605	-2.990300	3.362400	-10.054000	26.139333	0.000586	20.885589
1731.465693	-2.985700	3.360700	-10.033000	26.111890	0.000585	20.891678
1732.464369	-2.991500	3.362800	-10.059000	26.094454	0.000587	20.886014
1733.463330	-2.960400	3.362700	-9.953800	26.069020	0.000584	20.881796
1734.463563	-3.002100	3.359700	-10.085000	26.055509	0.000584	20.858739
1735.466038	-2.981700	3.360900	-10.020000	26.085165	0.000583	20.884266
1736.470519	-2.983600	3.359400	-10.022000	26.104190	0.000582	20.889632
1737.462630	-2.983700	3.358600	-10.019000	26.119017	0.000583	20.862332
1738.462903	-3.029900	3.357700	-10.173000	26.132330	0.000582	20.869544
1739.463796	-3.031800	3.357000	-10.177000	26.159152	0.000584	20.869944
1740.463931	-2.989600	3.359700	-10.043000	26.182994	0.000582	20.870667
1741.464234	-2.990900	3.358700	-10.043000	26.224741	0.000582	20.865202
1742.463548	-2.982000	3.359400	-10.016000	26.261619	0.000581	20.866226
1743.464266	-3.012300	3.357800	-10.113000	26.294199	0.000579	20.863406
1744.466203	-2.988700	3.356600	-10.030000	26.329188	0.000579	20.878654
1745.464042	-3.010400	3.357200	-10.105000	26.295689	0.000579	20.870119
1746.466368	-3.005700	3.355900	-10.086000	26.275401	0.000578	20.854473
1747.465310	-2.996000	3.355600	-10.052000	26.286328	0.000579	20.865927
1748.465583	-3.014000	3.356100	-10.114000	26.261173	0.000579	20.860563
1749.465616	-3.011800	3.355200	-10.104000	26.282455	0.000580	20.869621
1750.466113	-3.020600	3.354400	-10.132000	26.283274	0.000577	20.887513
1751.468292	-2.967200	3.356400	-9.958500	26.268573	0.000577	20.848085
1752.465718	-3.009600	3.354400	-10.095000	26.218906	0.000576	20.843693
1753.465997	-3.013200	3.352500	-10.100000	26.250470	0.000575	20.865454
1754.465533	-3.021000	3.354800	-10.133000	26.262242	0.000577	20.858792
1755.466082	-2.990600	3.353500	-10.028000	26.274112	0.000576	20.861712
1756.468454	-3.001300	3.352700	-10.061000	26.300088	0.000574	20.869798
1757.468632	-3.005500	3.351900	-10.073000	26.303937	0.000573	20.840002
1758.468659	-2.990300	3.353100	-10.026000	26.342972	0.000572	20.859318
1759.468381	-3.000000	3.352700	-10.057000	26.313223	0.000573	20.853128
1760.471310	-2.994100	3.351200	-10.034000	26.318464	0.000573	20.863610
1761.471711	-2.994100	3.352100	-10.036000	26.298252	0.000572	20.858470
1762.466878	-2.976700	3.351900	-9.976700	26.305751	0.000574	20.858420
1763.473873	-2.989400	3.351200	-10.017000	26.328944	0.000569	20.858021
1764.469386	-2.989500	3.351000	-10.017000	26.351491	0.000570	20.848439
1765.470811	-3.003100	3.349900	-10.059000	26.373565	0.000570	20.844546
1766.469724	-3.001000	3.349600	-10.052000	26.351839	0.000568	20.850686
1767.473437	-2.998000	3.350100	-10.043000	26.331702	0.000569	20.842302
1768.470802	-3.018200	3.349400	-10.109000	26.318665	0.000567	20.845321
1769.476774	-3.005100	3.349300	-10.063000	26.300216	0.000568	20.844324
1770.474064	-3.002100	3.349200	-10.053000	26.299272	0.000566	20.859021
1771.476643	-2.987600	3.348200	-10.002000	26.301110	0.000563	20.852808
1772.476120	-3.014400	3.348800	-10.093000	26.314370	0.000564	20.841953
1773.478879	-3.005800	3.347600	-10.061000	26.353182	0.000567	20.831173
1774.477207	-3.008100	3.347000	-10.067000	26.329270	0.000569	20.846021
1775.477469	-3.011300	3.346500	-10.075000	26.324850	0.000564	20.861968
1776.479486	-3.015800	3.347200	-10.093000	26.297212	0.000562	20.842253
1777.476850	-3.017600	3.346300	-10.096000	26.262447	0.000565	20.839084
1778.477819	-3.024400	3.346200	-10.119000	26.232871	0.000562	20.825958
1779.479313	-3.003600	3.345500	-10.047000	26.239253	0.000562	20.844700
1780.483908	-2.987800	3.345700	-9.994900	26.246255	0.000563	20.845572
1781.479335	-3.017600	3.345000	-10.093000	26.249211	0.000562	20.847595
1782.479820	-3.003700	3.344000	-10.042000	26.259319	0.000562	20.847795
1783.481186	-3.023900	3.343700	-10.110000	26.286436	0.000560	20.831898
1784.481762	-3.014200	3.344200	-10.079000	26.335156	0.000562	20.841032
1785.479410	-2.985100	3.345000	-9.984600	26.345833	0.000560	20.838960
1786.481347	-3.023800	3.341600	-10.103000	26.360930	0.000560	20.851288
1787.481086	-2.996500	3.342900	-10.016000	26.384396	0.000559	20.837414
1788.481281	-3.016900	3.341800	-10.081000	26.393682	0.000557	20.837264
1789.483395	-3.004100	3.342300	-10.040000	26.368728	0.000557	20.823089
1790.481418	-3.011500	3.341200	-10.061000	26.358647	0.000558	20.829553
1791.479053	-2.982500	3.340500	-9.960800	26.308413	0.000558	20.820794
1792.481475	-3.003300	3.340500	-10.031000	26.330215	0.000557	20.830851
1793.481670	-3.015200	3.341200	-10.073000	26.371261	0.000555	20.837489
1794.482179	-3.000600	3.339700	-10.020000	26.332376	0.000555	20.831600
1795.483525	-3.008800	3.340700	-10.050000	26.310846	0.000555	20.835093
1796.482584	-2.990000	3.339700	-9.984500	26.289391	0.000555	20.841506
1797.484462	-3.005900	3.339500	-10.037000	26.244667	0.000553	20.834968
1798.484982	-2.999700	3.339200	-10.015000	26.246556	0.000555	20.838762
1799.488702	-2.985100	3.339300	-9.966400	26.209156	0.000554	20.833421
1800.485159	-2.984400	3.339300	-9.965000	26.240719	0.000552	20.831949
1801.485590	-2.983000	3.338800	-9.958000	26.246729	0.000553	20.814281
1802.486493	-2.986100	3.338100	-9.966600	26.251000	0.000546	20.834220
1803.494229	-2.979200	3.338300	-9.944200	26.225670	0.000552	20.825835
1804.487823	-2.990900	3.338500	-9.984500	26.233146	0.000548	20.809166
1805.492620	-3.006500	3.335400	-10.027000	26.169893	0.000549	20.843753
1806.488680	-2.993600	3.337600	-9.989800	26.135719	0.000549	20.823165
1807.489863	-3.011900	3.336700	-10.049000	26.118036	0.000549	20.838588
1808.491281	-3.014600	3.335600	-10.054000	26.123748	0.000546	20.840533
1809.488026	-2.995900	3.334900	-9.989900	26.143145	0.000547	20.819247
1810.490035	-3.001800	3.334600	-10.009000	26.139246	0.000548	20.808692
1811.491139	-2.994800	3.335300	-9.987400	26.171408	0.000545	20.827258
1812.491422	-2.978200	3.334300	-9.929600	26.210175	0.000546	20.826385
1813.489915	-2.993100	3.333600	-9.976800	26.214273	0.000546	20.826236
1814.490921	-3.001000	3.334300	-10.005000	26.213081	0.000545	20.825038
1815.491709	-3.004100	3.332900	-10.011000	26.196119	0.000543	20.815106
1816.490496	-3.001200	3.333200	-10.003000	26.198751	0.000543	20.812061
1817.491289	-2.994000	3.331800	-9.974700	26.227981	0.000544	20.826734
1818.492023	-2.992700	3.333500	-9.976000	26.279038	0.000540	20.827783
1819.492812	-2.989400	3.331900	-9.959500	26.295055	0.000541	20.795041
1820.493639	-2.997300	3.332300	-9.986700	26.309284	0.000540	20.817877
1821.495793	-2.996900	3.331500	-9.983000	26.304118	0.000540	20.804624
1822.493392	-2.991800	3.330100	-9.961700	26.325275	0.000539	20.818300
1823.494313	-2.993100	3.330300	-9.966500	26.343874	0.000539	20.810913
1824.492606	-3.014900	3.329600	-10.038000	26.394130	0.000541	20.812111
1825.495852	-3.016000	3.329800	-10.042000	26.398351	0.000540	20.825836
1826.495016	-3.013300	3.328900	-10.030000	26.420102	0.000539	20.819248
1827.499289	-2.986500	3.330700	-9.945900	26.423057	0.000537	20.832175
1828.494783	-3.004800	3.328600	-9.999500	26.456775	0.000537	20.796365
1829.495156	-2.998700	3.327900	-9.978700	26.424869	0.000534	20.824514
1830.495698	-2.998900	3.328600	-9.981900	26.428072	0.000536	20.816353
1831.498311	-2.991900	3.326600	-9.951700	26.453348	0.000535	20.818998
1832.497149	-3.006700	3.328300	-10.006000	26.473012	0.000535	20.821220
1833.497733	-2.997400	3.327400	-9.972500	26.463403	0.000535	20.814407
1834.498857	-2.993500	3.327100	-9.958400	26.458115	0.000533	20.829953
1835.499136	-2.989300	3.327700	-9.946700	26.455732	0.000533	20.812860
1836.499468	-2.996200	3.326400	-9.965500	26.453547	0.000532	20.794542
1837.500603	-2.975600	3.327500	-9.900100	26.456103	0.000532	20.795216
1838.499007	-3.003700	3.325100	-9.986400	26.449698	0.000532	20.812959
1839.499699	-2.980600	3.326600	-9.912400	26.442374	0.000532	20.801330
1840.501548	-3.028700	3.323600	-10.065000	26.420574	0.000530	20.804075
1841.502383	-2.996900	3.323200	-9.957900	26.398823	0.000529	20.799284
1842.501036	-2.998000	3.325100	-9.967800	26.424596	0.000530	20.803376
1843.504210	-2.997400	3.323000	-9.958600	26.409549	0.000529	20.804849
1844.503578	-3.014400	3.321800	-10.012000	26.436439	0.000529	20.809116
1845.501119	-2.995900	3.324400	-9.958800	26.441207	0.000528	20.815804
1846.512663	-2.982600	3.323800	-9.913000	26.458859	0.000529	20.804149
1847.504507	-2.994000	3.322500	-9.945900	26.461764	0.000528	20.829828
1848.502398	-3.016900	3.321000	-10.018000	26.496126	0.000527	20.790399
1849.504120	-2.991600	3.321800	-9.937200	26.528352	0.000526	20.808093
1850.502819	-2.997700	3.321400	-9.956000	26.510700	0.000524	20.810738
1851.508888	-3.019800	3.320900	-10.028000	26.486716	0.000525	20.806545
1852.502163	-3.014400	3.321200	-10.010000	26.410965	0.000524	20.807219
1853.504496	-3.007400	3.319800	-9.982900	26.386905	0.000524	20.804374
1854.504362	-2.992600	3.319900	-9.933100	26.362123	0.000524	20.784683
1855.504277	-3.000500	3.321100	-9.963800	26.397953	0.000522	20.787978
1856.509530	-2.994600	3.321900	-9.946800	26.447091	0.000523	20.777622
1857.504613	-3.000800	3.318600	-9.956700	26.472440	0.000520	20.796937
1858.505343	-2.972300	3.320500	-9.867700	26.452404	0.000521	20.794342
1859.507362	-2.977500	3.319200	-9.881700	26.453124	0.000519	20.777996
1860.506987	-2.988800	3.319100	-9.919400	26.401728	0.000519	20.787978
1861.506458	-2.994500	3.317700	-9.932900	26.398673	0.000519	20.809090
1862.510211	-2.993300	3.318100	-9.931500	26.388294	0.000521	20.799607
1863.510102	-2.996000	3.317100	-9.936600	26.371633	0.000519	20.805147
1864.507367	-3.001100	3.317700	-9.955400	26.386507	0.000520	20.792596
1865.509870	-3.027500	3.315300	-10.036000	26.345835	0.000518	20.782538
1866.512079	-2.996000	3.316700	-9.935900	26.364283	0.000519	20.793019
1867.509043	-3.030600	3.314400	-10.043000	26.365824	0.000518	20.780817
1868.513538	-3.006700	3.315300	-9.967200	26.415136	0.000516	20.788178
1869.515143	-3.016900	3.313800	-9.996800	26.468766	0.000518	20.798460
1870.507828	-2.992500	3.315000	-9.919800	26.477257	0.000514	20.793244
1871.512197	-3.009700	3.314000	-9.973500	26.526565	0.000515	20.784485
1872.511751	-3.022800	3.312800	-10.013000	26.531828	0.000514	20.794043
1873.511132	-2.981300	3.314100	-9.878500	26.560949	0.000512	20.778745
1874.514076	-3.000700	3.312000	-9.937000	26.543770	0.000512	20.752467
1875.516911	-3.007800	3.314400	-9.968700	26.535254	0.000513	20.775676
1876.511734	-3.010400	3.313200	-9.972600	26.515988	0.000512	20.785233
1877.512634	-3.012600	3.311600	-9.975000	26.508664	0.000514	20.791148
1878.515529	-2.994300	3.313200	-9.918600	26.541262	0.000511	20.781241
1879.513264	-3.047100	3.308800	-10.080000	26.528476	0.000510	20.764121
1880.511369	-2.985400	3.311500	-9.885100	26.558740	0.000510	20.763722
1881.516009	-3.009300	3.310400	-9.961400	26.555388	0.000509	20.795441
1882.512400	-3.002200	3.311200	-9.939000	26.581605	0.000509	20.766318
1883.514799	-3.009400	3.310300	-9.961000	26.583591	0.000508	20.780643
1884.517309	-2.993700	3.310300	-9.908200	26.572369	0.000508	20.794018
1885.513503	-2.996700	3.310100	-9.917600	26.543447	0.000507	20.771109
1886.513777	-3.006600	3.310000	-9.950300	26.500273	0.000506	20.771333
1887.514559	-3.002100	3.309000	-9.932600	26.429265	0.000507	20.778671
1888.516095	-3.017500	3.308000	-9.981200	26.424349	0.000507	20.783213
1889.515258	-3.013500	3.309100	-9.968900	26.432245	0.000505	20.766968
1890.517721	-3.017500	3.307800	-9.979700	26.471052	0.000506	20.746228
1891.517327	-3.008700	3.306800	-9.948200	26.488853	0.000505	20.775028
1892.515950	-2.982600	3.308900	-9.868500	26.518175	0.000504	20.780793
1893.515349	-2.998700	3.307300	-9.915900	26.570608	0.000505	20.780393
1894.519337	-3.028900	3.305600	-10.012000	26.552336	0.000504	20.740214
1895.524413	-3.010000	3.305500	-9.948900	26.567282	0.000499	20.759506
1896.517075	-3.021900	3.305900	-9.989300	26.584884	0.000502	20.766294
1897.523887	-2.999200	3.306000	-9.913600	26.583121	0.000502	20.778748
1898.518281	-3.010600	3.305700	-9.950900	26.592728	0.000500	20.788405
1899.518234	-3.019700	3.304600	-9.977300	26.646051	0.000502	20.760929
1900.520730	-3.019200	3.304200	-9.975000	26.643148	0.000502	20.763700
1901.518915	-3.004200	3.302700	-9.921400	26.653673	0.000498	20.763375
1902.518755	-3.020500	3.303500	-9.975700	26.611274	0.000499	20.762003
1903.521546	-3.008400	3.303100	-9.935300	26.607922	0.000497	20.771910
1904.519041	-3.003900	3.303300	-9.921900	26.602038	0.000498	20.762676
1905.520794	-3.006200	3.303400	-9.929900	26.604174	0.000498	20.762452
1906.525681	-2.979800	3.303000	-9.841400	26.615742	0.000496	20.749425
1907.520615	-2.997200	3.302900	-9.898400	26.597422	0.000496	20.753768
1908.523655	-2.993400	3.301900	-9.882100	26.560580	0.000497	20.785961
1909.527944	-2.992400	3.301900	-9.880200	26.513213	0.000494	20.760632
1910.523596	-3.007200	3.301300	-9.926300	26.513684	0.000493	20.762055
1911.524377	-2.993900	3.301600	-9.883700	26.467554	0.000494	20.774482
1912.523170	-2.956500	3.302300	-9.761800	26.458020	0.000493	20.742613
1913.524806	-3.000100	3.301100	-9.902100	26.483644	0.000492	20.757463
1914.526229	-3.007300	3.299600	-9.921300	26.434110	0.000492	20.778325
1915.527596	-2.991100	3.298600	-9.864800	26.438332	0.000492	20.745110
1916.529603	-2.996100	3.298700	-9.882400	26.478528	0.000491	20.761330
1917.528929	-3.009600	3.298200	-9.925600	26.476592	0.000490	20.768867
1918.528866	-2.973300	3.298600	-9.806300	26.479546	0.000490	20.764250
1919.529727	-2.980000	3.299300	-9.829500	26.516664	0.000490	20.764101
1920.528996	-2.994800	3.297400	-9.874400	26.539455	0.000489	20.749552
1921.530455	-2.991500	3.297000	-9.861700	26.563636	0.000489	20.738771
1922.529944	-2.994200	3.297300	-9.870300	26.577662	0.000487	20.756190
1923.529162	-3.028200	3.296000	-9.980300	26.568949	0.000487	20.756441
1924.529599	-2.982400	3.296600	-9.830000	26.565300	0.000486	20.765101
1925.530440	-2.965300	3.297000	-9.775600	26.602240	0.000484	20.766198
1926.532643	-2.973300	3.296500	-9.800600	26.577465	0.000484	20.755043
1927.532064	-2.988500	3.297200	-9.852600	26.530841	0.000486	20.746583
1928.531384	-3.001300	3.295700	-9.890200	26.505220	0.000485	20.753546
1929.531830	-3.000800	3.294200	-9.884200	26.483843	0.000484	20.757190
1930.533288	-2.983500	3.294100	-9.826800	26.497548	0.000482	20.770017
1931.533199	-2.990400	3.294200	-9.849700	26.530122	0.000483	20.757714
1932.533895	-3.024100	3.293400	-9.958500	26.546010	0.000482	20.745235
1933.533696	-2.993400	3.293800	-9.859500	26.491267	0.000482	20.752323
1934.534435	-3.014800	3.292500	-9.925300	26.464875	0.000482	20.744287
1935.538347	-2.989000	3.292500	-9.840700	26.461001	0.000480	20.753671
1936.536212	-3.004300	3.291100	-9.886300	26.462516	0.000481	20.747132
1937.533229	-3.001700	3.291900	-9.880900	26.494644	0.000477	20.738648
1938.534973	-3.006300	3.291300	-9.892700	26.511278	0.000478	20.761532
1939.535923	-2.999300	3.291900	-9.872000	26.500031	0.000477	20.741218
1940.532782	-2.998800	3.290600	-9.866000	26.496530	0.000478	20.734379
1941.536029	-2.997000	3.290500	-9.860000	26.525331	0.000477	20.762382
1942.534437	-2.974200	3.291100	-9.787300	26.527392	0.000476	20.759712
1943.537187	-3.001100	3.289800	-9.872200	26.499039	0.000478	20.750178
1944.536219	-2.990900	3.289900	-9.837500	26.508027	0.000477	20.745936
1945.536614	-3.004400	3.289600	-9.882100	26.500702	0.000473	20.744263
1946.535320	-3.023700	3.287700	-9.938800	26.538986	0.000473	20.741020
1947.536547	-3.010800	3.287700	-9.897800	26.521757	0.000474	20.743142
1948.539682	-2.984200	3.289600	-9.815800	26.540699	0.000472	20.740845
1949.535816	-2.999400	3.288300	-9.862400	26.553982	0.000473	20.769371
1950.536548	-3.004700	3.289000	-9.881300	26.524388	0.000473	20.750054
1951.538148	-3.012000	3.286700	-9.898600	26.507507	0.000472	20.750629
1952.536330	-3.012000	3.286800	-9.899400	26.487720	0.000469	20.753499
1953.535571	-2.986100	3.288300	-9.817600	26.502044	0.000472	20.754622
1954.536835	-2.988900	3.287400	-9.825200	26.467063	0.000470	20.746487
1955.535434	-2.999400	3.285700	-9.853000	26.486602	0.000471	20.753324
1956.540279	-3.001800	3.284700	-9.858900	26.505397	0.000470	20.754198
1957.538143	-2.997200	3.285500	-9.845500	26.558502	0.000466	20.767276
1958.541760	-3.023300	3.285600	-9.932600	26.585637	0.000468	20.753301
1959.551971	-2.991600	3.285800	-9.828700	26.628013	0.000466	20.766029
1960.539814	-3.024900	3.282200	-9.927000	26.660136	0.000465	20.754699
1961.542886	-3.014400	3.283400	-9.895900	26.668625	0.000464	20.759914
1962.545314	-3.002700	3.283700	-9.859100	26.659441	0.000463	20.770122
1963.541611	-3.013600	3.282600	-9.890900	26.655519	0.000465	20.763808
1964.543836	-3.011400	3.281100	-9.879000	26.678406	0.000464	20.757419
1965.541964	-2.989200	3.283700	-9.814700	26.695064	0.000463	20.763261
1966.551565	-3.007500	3.282200	-9.869000	26.728897	0.000464	20.761239
1967.550025	-2.994500	3.282100	-9.827700	26.750194	0.000464	20.747089
1968.543763	-3.009700	3.280500	-9.871900	26.772037	0.000461	20.749610
1969.544321	-3.010300	3.280300	-9.873600	26.766154	0.000461	20.748910
1970.545177	-3.003000	3.280900	-9.851500	26.753769	0.000461	20.744519
1971.552850	-3.006600	3.279900	-9.860600	26.766303	0.000460	20.759492
1972.544652	-2.991000	3.280400	-9.810100	26.777002	0.000459	20.758869
1973.543722	-3.011500	3.278800	-9.872000	26.801624	0.000458	20.754227
1974.546629	-3.007900	3.278900	-9.861700	26.823714	0.000457	20.754152
1975.544679	-3.000300	3.279500	-9.838100	26.825849	0.000458	20.744445
1976.548978	-2.993100	3.277900	-9.810300	26.830988	0.000456	20.764785
1977.547532	-2.989400	3.279600	-9.802900	26.839971	0.000454	20.789465
1978.547675	-2.996400	3.277000	-9.818000	26.858512	0.000455	20.773020
1979.550064	-2.990200	3.278100	-9.800900	26.834958	0.000456	20.758820
1980.545434	-3.011300	3.277900	-9.870100	26.816890	0.000454	20.768154
1981.545473	-2.988200	3.276800	-9.790700	26.788024	0.000454	20.760942
1982.551922	-3.001500	3.275400	-9.829700	26.801055	0.000453	20.757448
1983.551411	-2.985700	3.276600	-9.780900	26.830292	0.000454	20.776888
1984.545170	-3.006600	3.276300	-9.849400	26.835132	0.000452	20.764211
1985.553327	-2.998000	3.275300	-9.818400	26.864246	0.000450	20.777837
1986.553985	-3.015100	3.273900	-9.870300	26.895989	0.000451	20.754753
1987.555787	-2.990700	3.275600	-9.795600	26.877499	0.000450	20.771249
1988.550907	-2.997600	3.272800	-9.809700	26.866605	0.000451	20.757449
1989.548733	-3.007500	3.273000	-9.842400	26.830294	0.000449	20.774993
1990.551849	-3.005500	3.274400	-9.840400	26.803339	0.000449	20.762116
1991.551242	-2.995200	3.273400	-9.803200	26.745184	0.000448	20.764812
1992.553286	-3.002000	3.271800	-9.821000	26.705543	0.000447	20.802245
1993.552677	-2.994600	3.272900	-9.798500	26.726741	0.000446	20.775668
1994.552722	-3.009400	3.271900	-9.845100	26.768616	0.000446	20.785052
1995.550802	-3.023100	3.269900	-9.884400	26.800859	0.000445	20.773373
1996.555993	-3.007100	3.270600	-9.834100	26.814361	0.000443	20.761818
1997.557194	-2.994000	3.270700	-9.791600	26.788449	0.000445	20.761370
1998.551372	-2.986800	3.270200	-9.765800	26.823347	0.000442	20.779388
1999.555624	-2.987600	3.270700	-9.769700	26.830270	0.000441	20.770228
2000.557174	-3.016700	3.269500	-9.862300	26.865838	0.000440	20.775645
2001.556149	-2.993500	3.269400	-9.785200	26.861569	0.000441	20.780835
2002.553330	-2.997800	3.270100	-9.801800	26.879911	0.000441	20.764665
2003.556150	-3.000700	3.268800	-9.807300	26.904679	0.000441	20.771552
2004.553275	-3.024100	3.267300	-9.879800	26.910562	0.000438	20.791219
2005.560085	-3.011600	3.266800	-9.837100	26.934883	0.000439	20.789122
2006.555545	-3.001700	3.266900	-9.804900	26.933246	0.000439	20.788424
2007.556208	-3.010200	3.266400	-9.831200	26.951959	0.000436	20.771205
2008.556031	-3.004100	3.265900	-9.809700	26.919522	0.000435	20.771304
2009.559325	-3.010200	3.264900	-9.826800	26.935183	0.000436	20.760025
2010.556845	-2.981400	3.268100	-9.742200	26.968438	0.000434	20.780190
2011.556378	-2.959600	3.265500	-9.664000	26.991269	0.000434	20.770907
2012.558753	-2.999800	3.265600	-9.795100	27.022091	0.000433	20.786255
2013.556998	-2.971100	3.266000	-9.701900	27.049809	0.000432	20.800854
2014.557649	-2.988400	3.264200	-9.754500	27.052639	0.000434	20.789949
2015.556200	-2.994800	3.263500	-9.772600	27.055071	0.000434	20.790499
2016.557586	-2.986800	3.264800	-9.750600	27.045591	0.000431	20.798983
2017.557125	-3.004700	3.262900	-9.803500	27.023011	0.000433	20.799983
2018.558360	-3.000700	3.261700	-9.787100	27.041895	0.000431	20.812336
2019.557258	-3.021700	3.261000	-9.851100	27.004201	0.000430	20.774428
2020.559868	-2.997500	3.261500	-9.775500	27.005888	0.000430	20.792720
2021.561110	-3.004600	3.261200	-9.797500	26.961145	0.000429	20.789926
2022.558737	-2.993800	3.261600	-9.763200	26.963800	0.000425	20.803028
2023.563612	-3.021000	3.260300	-9.848700	26.983530	0.000426	20.784462
2024.564428	-2.987400	3.259400	-9.736400	27.015294	0.000428	20.790800
2025.559638	-2.997700	3.260400	-9.773000	27.036140	0.000427	20.803229
2026.562360	-3.004700	3.259400	-9.792900	27.034973	0.000427	20.796365
2027.559821	-2.993900	3.259900	-9.758500	27.055818	0.000424	20.789353
2028.560128	-3.011100	3.258300	-9.810700	27.095942	0.000424	20.799835
2029.561328	-3.008400	3.258200	-9.801200	27.104925	0.000423	20.806972
2030.562405	-3.025400	3.257400	-9.853100	27.110979	0.000422	20.786034
2031.564120	-2.997100	3.258900	-9.766200	27.137753	0.000422	20.788306
2032.561680	-3.012500	3.257200	-9.811800	27.134825	0.000420	20.797215
2033.562455	-3.011300	3.257600	-9.809100	27.119863	0.000421	20.789279
2034.564686	-3.014800	3.256100	-9.814600	27.127605	0.000420	20.823144
2035.565140	-2.992400	3.256400	-9.742300	27.143038	0.000419	20.811165
2036.564220	-2.996500	3.255400	-9.753300	27.115447	0.000419	20.791476
2037.563716	-3.003400	3.254700	-9.774600	27.096167	0.000416	20.798638
2038.564213	-2.986700	3.255600	-9.722800	27.073660	0.000418	20.830056
2039.566618	-2.999400	3.254100	-9.759200	27.093138	0.000415	20.809343
2040.565017	-3.004900	3.254300	-9.777200	27.097085	0.000416	20.789604
2041.568305	-2.987300	3.254500	-9.721400	27.086067	0.000414	20.813611
2042.565187	-2.962100	3.255800	-9.643300	27.041601	0.000415	20.812040
2043.568771	-3.010000	3.252000	-9.787700	27.059392	0.000414	20.809544
2044.566715	-3.016700	3.251700	-9.807300	27.031724	0.000413	20.825815
2045.567215	-3.002800	3.253600	-9.768700	27.038201	0.000413	20.813836
2046.567225	-3.004100	3.252700	-9.770900	27.046513	0.000411	20.805126
2047.569213	-2.995700	3.253000	-9.744200	27.057358	0.000410	20.816033
2048.567941	-3.002900	3.251100	-9.761200	27.099219	0.000412	20.796018
2049.567809	-2.997300	3.251000	-9.742200	27.048599	0.000409	20.805327
2050.568701	-3.020600	3.249500	-9.814500	26.992145	0.000407	20.811142
2051.569128	-3.007000	3.249500	-9.770300	26.934669	0.000407	20.790804
2052.568470	-3.033400	3.248800	-9.853400	26.914742	0.000405	20.839991
2053.568079	-3.011800	3.248300	-9.781600	26.912260	0.000408	20.811892
2054.571330	-2.985300	3.248900	-9.697700	26.936208	0.000405	20.822697
2055.570823	-2.984400	3.249000	-9.695600	26.943083	0.000407	20.830084
2056.574097	-3.020900	3.248300	-9.810400	26.881734	0.000405	20.817233
2057.570977	-3.014400	3.247700	-9.787500	26.901589	0.000403	20.820128
2058.571716	-2.993700	3.246900	-9.719000	26.911963	0.000404	20.844783
2059.576993	-2.998500	3.247400	-9.736700	26.916753	0.000404	20.817832
2060.572505	-3.000700	3.245100	-9.736300	26.964279	0.000403	20.828639
2061.574764	-3.005400	3.245700	-9.753700	26.985298	0.000400	20.809947
2062.577251	-3.006800	3.245200	-9.756900	26.999171	0.000403	20.827216
2063.576619	-2.990600	3.246800	-9.708500	26.988748	0.000400	20.833804
2064.574531	-2.989200	3.244800	-9.698100	26.997731	0.000401	20.828614
2065.580435	-3.002600	3.244500	-9.740800	26.994108	0.000400	20.812643
2066.576482	-2.997000	3.244200	-9.721400	27.004853	0.000399	20.823448
2067.577471	-2.996700	3.245000	-9.723700	27.000834	0.000397	20.817984
2068.577632	-3.028000	3.242000	-9.815900	27.025054	0.000396	20.840443
2069.578463	-3.004500	3.241800	-9.738800	27.050266	0.000397	20.837822
2070.581551	-3.019800	3.242100	-9.789500	27.035129	0.000393	20.814066
2071.579062	-2.973800	3.243500	-9.644100	26.982372	0.000395	20.826918
2072.578801	-3.023700	3.240700	-9.798100	26.985821	0.000393	20.846034
2073.579811	-2.991100	3.242300	-9.697600	26.976044	0.000394	20.824823
2074.580224	-2.972300	3.243000	-9.638300	27.026246	0.000393	20.826469
2075.579834	-3.023500	3.240300	-9.796000	27.065379	0.000392	20.846857
2076.578542	-2.985900	3.240800	-9.676400	27.063022	0.000392	20.836427
2077.579091	-2.992000	3.239400	-9.691200	27.103865	0.000391	20.831035
2078.579231	-3.000700	3.240500	-9.722000	27.109325	0.000391	20.830837
2079.581730	-3.018500	3.238300	-9.773800	27.057637	0.000388	20.850925
2080.580585	-3.012700	3.238200	-9.754300	27.048035	0.000391	20.822303
2081.581905	-2.990300	3.237500	-9.680100	27.057837	0.000387	20.819359
2082.579087	-3.019400	3.237700	-9.775400	27.076968	0.000387	20.833857
2083.580927	-3.002000	3.237200	-9.717100	27.115752	0.000387	20.852000
2084.580594	-2.995600	3.238700	-9.699300	27.135230	0.000386	20.852149
2085.581133	-3.013900	3.237100	-9.755700	27.124437	0.000385	20.828967
2086.580119	-3.002900	3.235300	-9.713500	27.113868	0.000387	20.825923
2087.583200	-2.994100	3.235900	-9.687800	27.124017	0.000385	20.837553
2088.581525	-2.984800	3.237000	-9.660400	27.115381	0.000384	20.842618
2089.585167	-3.013300	3.236700	-9.752400	27.087690	0.000381	20.842269
2090.582839	-3.007600	3.234400	-9.726900	27.102578	0.000383	20.848707
2091.581611	-2.987600	3.235100	-9.664000	27.114166	0.000381	20.866999
2092.585920	-3.012100	3.235100	-9.742500	27.115108	0.000381	20.855619
2093.584116	-3.013100	3.233500	-9.740900	27.160070	0.000382	20.857217
2094.585147	-3.010800	3.231400	-9.728400	27.178927	0.000380	20.854846
2095.588181	-3.002500	3.232600	-9.705300	27.195724	0.000380	20.854671
2096.585822	-3.027700	3.231600	-9.782500	27.175328	0.000378	20.853124
2097.585774	-3.010000	3.231800	-9.726800	27.141783	0.000376	20.853050
2098.587250	-3.004700	3.231200	-9.707800	27.129179	0.000376	20.852227
2099.585059	-3.014100	3.231000	-9.737200	27.154959	0.000377	20.852077
2100.587555	-2.986300	3.231200	-9.647700	27.198678	0.000376	20.888460
2101.587934	-3.022200	3.229400	-9.758900	27.239318	0.000375	20.863906
2102.587395	-2.994500	3.231200	-9.674100	27.259289	0.000374	20.850804
2103.590942	-3.004100	3.229000	-9.698200	27.274127	0.000374	20.858143
2104.587084	-3.004100	3.227900	-9.696200	27.296405	0.000372	20.856370
2105.587611	-3.004400	3.229300	-9.701700	27.292511	0.000372	20.850556
2106.591054	-3.003900	3.227600	-9.694100	27.275242	0.000372	20.860212
2107.596282	-3.020100	3.228800	-9.750500	27.233190	0.000374	20.876707
2108.591065	-2.997300	3.227200	-9.671700	27.223117	0.000372	20.869422
2109.589650	-3.007700	3.227000	-9.704300	27.199051	0.000368	20.882198
2110.592451	-2.974500	3.228500	-9.601700	27.170543	0.000368	20.877707
2111.590312	-3.001800	3.227600	-9.687100	27.131364	0.000368	20.869122
2112.590304	-3.005600	3.226300	-9.695700	27.096228	0.000367	20.850856
2113.591257	-2.969700	3.226400	-9.580600	27.087841	0.000364	20.868498
2114.588495	-3.011300	3.224600	-9.707500	27.115285	0.000364	20.876658
2115.590666	-2.976200	3.226000	-9.600500	27.118586	0.000363	20.888038
2116.590999	-2.991400	3.224000	-9.643300	27.124889	0.000367	20.859292
2117.589628	-2.982200	3.225000	-9.617300	27.146822	0.000364	20.864281
2118.589423	-2.990200	3.222800	-9.635800	27.139156	0.000363	20.871743
2119.591017	-2.975600	3.222300	-9.587400	27.181262	0.000363	20.886591
2120.591016	-2.982900	3.222600	-9.611300	27.211259	0.000361	20.861287
2121.591434	-2.999000	3.220500	-9.657200	27.208802	0.000361	20.885842
2122.593144	-2.994500	3.222400	-9.648700	27.244305	0.000360	20.883146
2123.593526	-3.023800	3.219700	-9.734500	27.243264	0.000359	20.889211
2124.593381	-3.005400	3.219700	-9.674600	27.213219	0.000360	20.896447
2125.596232	-2.994300	3.220500	-9.641000	27.201507	0.000356	20.880401
2126.592810	-2.983900	3.220200	-9.607400	27.220413	0.000358	20.873814
2127.592837	-2.997200	3.220800	-9.651900	27.188333	0.000357	20.868099
2128.610116	-3.000500	3.219700	-9.659300	27.187861	0.000356	20.875211
2129.592943	-2.991100	3.218600	-9.625400	27.221604	0.000355	20.880226
2130.595723	-3.013500	3.216600	-9.692300	27.254528	0.000354	20.901013
2131.600653	-2.987100	3.219100	-9.614900	27.274028	0.000354	20.882697
2132.596222	-2.996700	3.216900	-9.639200	27.330121	0.000353	20.881276
2133.596498	-3.013800	3.216200	-9.691700	27.329549	0.000351	20.874537
2134.604307	-3.009200	3.215400	-9.674800	27.320519	0.000352	20.891056
2135.597004	-2.979300	3.217100	-9.583500	27.293254	0.000350	20.895872
2136.596999	-3.009800	3.215200	-9.676300	27.301714	0.000351	20.890158
2137.601042	-3.005200	3.216500	-9.665400	27.289906	0.000350	20.884444
2138.596897	-2.987200	3.214300	-9.600900	27.346197	0.000348	20.900290
2139.597192	-3.013400	3.213500	-9.681800	27.347337	0.000348	20.889111
2140.597299	-3.009900	3.215400	-9.675900	27.369267	0.000348	20.891730
2141.599907	-2.989700	3.212800	-9.603500	27.371202	0.000348	20.900314
2142.599936	-3.006800	3.212600	-9.659400	27.299507	0.000349	20.903583
2143.598023	-3.014000	3.212100	-9.680500	27.285911	0.000346	20.908399
2144.614036	-3.009900	3.210800	-9.663100	27.210812	0.000346	20.904931
2145.597378	-3.009200	3.211200	-9.661900	27.137294	0.000345	20.885042
2146.597834	-3.026500	3.212500	-9.719200	27.105633	0.000343	20.899666
2147.601447	-2.971300	3.211500	-9.540500	27.104641	0.000342	20.899616
2148.600266	-2.997600	3.211500	-9.626300	27.158832	0.000341	20.907651
2149.599061	-3.009200	3.210100	-9.658300	27.214608	0.000341	20.884569
2150.598424	-3.025100	3.207700	-9.703500	27.244480	0.000341	20.895175
2151.600526	-3.023400	3.208200	-9.698200	27.287972	0.000341	20.906205
2152.598366	-2.986800	3.210800	-9.588500	27.356915	0.000339	20.892106
2153.599686	-3.019800	3.207500	-9.684800	27.362397	0.000339	20.904732
2154.600104	-2.995800	3.208500	-9.611700	27.396953	0.000338	20.924795
2155.602002	-3.009400	3.205800	-9.646600	27.379341	0.000336	20.886692
2156.602656	-2.996200	3.206400	-9.605500	27.364332	0.000335	20.892930
2157.604440	-2.992800	3.207200	-9.596800	27.388495	0.000335	20.898745
2158.603210	-3.000300	3.205000	-9.614900	27.395391	0.000336	20.918008
2159.604546	-3.012100	3.205900	-9.655600	27.417394	0.000336	20.910273
2160.605140	-2.996400	3.203500	-9.597700	27.403007	0.000333	20.911446
2161.604115	-3.022500	3.203200	-9.680000	27.361307	0.000334	20.913593
2162.602350	-2.990900	3.205400	-9.586100	27.361133	0.000334	20.920529
2163.604150	-2.997700	3.204000	-9.603100	27.321117	0.000332	20.912518
2164.602431	-3.003700	3.205600	-9.627100	27.289710	0.000332	20.898471
2165.601919	-3.010500	3.201200	-9.636800	27.267035	0.000329	20.914067
2166.604090	-3.003400	3.201600	-9.614800	27.272096	0.000330	20.912993
2167.603478	-3.025400	3.200400	-9.681100	27.246418	0.000330	20.924148
2168.603444	-2.984200	3.203100	-9.557900	27.266490	0.000328	20.906881
2169.603359	-2.992900	3.200100	-9.577200	27.240562	0.000328	20.913043
2170.607725	-3.006200	3.199600	-9.617800	27.248205	0.000327	20.922627
2171.606094	-2.975900	3.200500	-9.523100	27.235873	0.000326	20.909750
2172.602586	-2.996900	3.199200	-9.586700	27.222972	0.000326	20.923799
2173.607051	-2.988800	3.199300	-9.561000	27.205308	0.000325	20.913145
2174.603657	-3.014000	3.198000	-9.637900	27.250388	0.000326	20.896850
2175.601939	-3.034500	3.198500	-9.703800	27.323252	0.000324	20.914192
2176.606558	-2.996200	3.197500	-9.579200	27.365575	0.000323	20.913145
2177.604540	-3.004700	3.195700	-9.601200	27.400751	0.000319	20.923400
2178.603967	-2.998400	3.196600	-9.583500	27.392094	0.000321	20.896202
2179.604242	-3.001100	3.196000	-9.588700	27.429552	0.000322	20.884574
2180.604731	-2.997000	3.197300	-9.581800	27.458921	0.000320	20.900843
2181.602968	-2.986800	3.196200	-9.545000	27.459739	0.000320	20.885072
2182.605628	-3.008200	3.193400	-9.605300	27.475416	0.000319	20.898472
2183.607432	-2.978900	3.196400	-9.519700	27.469166	0.000319	20.890762
2184.604508	-2.993800	3.194000	-9.560800	27.496202	0.000319	20.891885
2185.604327	-2.988300	3.193300	-9.541600	27.517161	0.000317	20.889264
2186.609777	-2.968000	3.194200	-9.478900	27.553548	0.000316	20.914966
2187.605354	-2.995600	3.193100	-9.564600	27.565329	0.000316	20.896002
2188.605404	-3.002300	3.191200	-9.579900	27.551192	0.000317	20.887467
2189.608410	-2.996000	3.191200	-9.560000	27.546182	0.000316	20.871997
2190.607842	-2.964400	3.189800	-9.453500	27.486453	0.000312	20.893930
2191.605314	-3.005600	3.190400	-9.587900	27.455199	0.000311	20.884298
2192.609446	-2.998100	3.189300	-9.560600	27.439523	0.000314	20.874691
2193.607499	-2.991400	3.188900	-9.537800	27.440738	0.000311	20.888715
2194.608097	-3.000400	3.189100	-9.567800	27.388894	0.000311	20.903887
2195.610752	-3.014500	3.187800	-9.608600	27.393507	0.000310	20.888615
2196.609007	-3.000700	3.188500	-9.566500	27.407945	0.000310	20.869476
2197.608939	-2.998200	3.188300	-9.557800	27.458004	0.000309	20.880482
2198.608229	-2.997000	3.187600	-9.552100	27.466511	0.000305	20.882402
2199.611386	-2.995100	3.187000	-9.544000	27.418662	0.000306	20.874567
2200.611766	-2.997000	3.186400	-9.547500	27.414098	0.000309	20.868080
2201.613297	-3.007200	3.185400	-9.578500	27.417447	0.000307	20.879509
2202.614668	-2.989900	3.184700	-9.521300	27.392319	0.000307	20.889316
2203.614782	-3.003000	3.187200	-9.570900	27.369421	0.000306	20.866757
2204.624309	-3.002700	3.184500	-9.560700	27.338313	0.000303	20.892360
2205.616974	-3.004400	3.183400	-9.562200	27.347839	0.000304	20.886296
2206.616112	-2.992000	3.182500	-9.520900	27.417422	0.000303	20.858622
2207.613734	-3.017000	3.183000	-9.602400	27.462470	0.000304	20.883552
2208.617416	-3.005600	3.182800	-9.564300	27.525424	0.000301	20.879560
2209.615317	-3.007200	3.182200	-9.569400	27.536412	0.000302	20.876865
2210.617452	-3.013500	3.182200	-9.587800	27.558982	0.000298	20.871126
2211.615857	-3.037000	3.179000	-9.653800	27.582893	0.000299	20.885225
2212.620054	-2.969400	3.181100	-9.444500	27.626098	0.000301	20.881283
2213.615904	-3.006300	3.179900	-9.558200	27.661786	0.000298	20.871202
2214.614674	-3.049400	3.178100	-9.690100	27.709329	0.000299	20.891540
2215.615848	-2.978300	3.178900	-9.466600	27.717661	0.000298	20.860098
2216.613146	-2.983400	3.178700	-9.482000	27.726787	0.000297	20.872600
2217.615230	-2.989300	3.178800	-9.501800	27.708211	0.000296	20.880933
2218.615924	-2.998700	3.177100	-9.526400	27.689613	0.000297	20.858901
2219.615977	-3.010400	3.176000	-9.560000	27.687629	0.000296	20.841732
2220.614183	-3.021300	3.175400	-9.593200	27.705957	0.000295	20.873450
2221.615672	-3.003500	3.176100	-9.538100	27.740576	0.000295	20.859924
2222.617215	-3.003400	3.173800	-9.531200	27.765573	0.000295	20.863743
2223.617200	-2.978800	3.178200	-9.466500	27.812886	0.000294	20.848296
2224.618227	-2.992300	3.174200	-9.496600	27.834014	0.000292	20.873825
2225.619310	-2.992000	3.173000	-9.492100	27.808646	0.000292	20.856830
2226.618250	-2.985300	3.174500	-9.476000	27.787099	0.000291	20.884930
2227.620246	-3.020000	3.172100	-9.578800	27.741494	0.000290	20.856581
2228.621989	-3.001700	3.171300	-9.518300	27.737379	0.000292	20.851492
2229.618016	-2.985900	3.170500	-9.466500	27.770162	0.000290	20.876420
2230.622125	-2.997900	3.170500	-9.503600	27.705488	0.000289	20.854961
2231.619430	-3.006600	3.171900	-9.535500	27.704420	0.000287	20.872852
2232.619394	-2.980900	3.172500	-9.455200	27.682051	0.000287	20.877843
2233.621061	-3.015300	3.169700	-9.554900	27.687979	0.000288	20.880014
2234.621371	-3.022100	3.167300	-9.570500	27.636742	0.000286	20.869235
2235.620765	-2.994800	3.166900	-9.483100	27.603111	0.000286	20.859103
2236.618347	-3.016200	3.167000	-9.551600	27.588751	0.000285	20.866465
2237.620283	-2.971400	3.167500	-9.410700	27.615635	0.000286	20.866489
2238.620481	-2.988200	3.166500	-9.459900	27.661593	0.000283	20.862473
2239.620242	-3.002200	3.166400	-9.505100	27.690609	0.000282	20.855161
2240.620852	-3.007100	3.164800	-9.515000	27.724187	0.000283	20.847226
2241.620806	-2.993600	3.168100	-9.483600	27.761186	0.000280	20.857432
2242.621939	-2.999700	3.163700	-9.488100	27.747349	0.000281	20.850620
2243.620901	-2.989400	3.164500	-9.459200	27.705290	0.000280	20.847650
2244.623178	-2.983200	3.166500	-9.445400	27.715311	0.000279	20.845406
2245.621472	-3.012900	3.162400	-9.526500	27.708218	0.000279	20.857708
2246.623864	-3.022300	3.161600	-9.554200	27.703233	0.000280	20.846528
2247.621487	-3.019700	3.162600	-9.548400	27.744597	0.000279	20.853066
2248.622848	-2.987800	3.160800	-9.442800	27.785439	0.000280	20.850071
2249.624965	-3.018200	3.160100	-9.536300	27.810633	0.000278	20.847451
2250.623065	-2.989900	3.160400	-9.448700	27.811651	0.000278	20.852743
2251.621206	-3.021400	3.160700	-9.548800	27.784894	0.000275	20.847626
2252.622684	-3.036100	3.158400	-9.587400	27.765230	0.000275	20.846329
2253.629626	-2.984700	3.159700	-9.429600	27.750028	0.000274	20.846204
2254.620827	-3.008400	3.159200	-9.503300	27.772941	0.000273	20.861675
2255.622824	-2.989700	3.156100	-9.435100	27.790523	0.000274	20.846179
2256.623845	-2.981400	3.157300	-9.411400	27.798806	0.000275	20.832230
2257.624846	-2.977600	3.155400	-9.395000	27.798186	0.000272	20.841088
2258.624069	-2.983300	3.155200	-9.411900	27.831117	0.000270	20.841988
2259.624218	-2.996600	3.154800	-9.453100	27.832778	0.000271	20.862624
2260.624225	-3.012300	3.154200	-9.499900	27.840613	0.000270	20.811717
2261.623391	-2.988400	3.151700	-9.416100	27.838383	0.000269	20.825119
2262.624543	-2.993800	3.153600	-9.440500	27.871931	0.000269	20.819528
2263.627657	-2.997100	3.150800	-9.440300	27.890380	0.000270	20.847578
2264.624744	-2.998000	3.150600	-9.445000	27.932208	0.000269	20.849849
2265.626293	-3.021700	3.150100	-9.517600	27.929877	0.000267	20.849874
2266.631230	-3.013500	3.149400	-9.490200	27.957845	0.000267	20.841989
2267.626752	-3.007200	3.150100	-9.471500	27.957374	0.000268	20.833454
2268.626566	-3.011500	3.149500	-9.482400	27.948820	0.000264	20.851396
2269.629954	-3.009000	3.150000	-9.477000	27.931440	0.000266	20.835800
2270.629142	-2.993800	3.149200	-9.426700	27.847856	0.000263	20.840342
2271.627832	-2.989000	3.147300	-9.406200	27.790674	0.000264	20.834951
2272.626774	-3.030000	3.145800	-9.530200	27.689200	0.000265	20.849476
2273.625960	-2.987500	3.145400	-9.396100	27.660679	0.000263	20.836898
2274.626144	-2.992600	3.146800	-9.416300	27.672361	0.000262	20.834903
2275.631077	-2.987200	3.144300	-9.391800	27.666459	0.000262	20.821378
2276.626404	-3.020100	3.142600	-9.490200	27.705271	0.000259	20.828191
2277.630424	-2.997800	3.142500	-9.420000	27.753133	0.000260	20.837949
2278.630407	-2.987000	3.142400	-9.385700	27.773195	0.000262	20.830637
2279.629499	-2.994700	3.141300	-9.406100	27.757969	0.000258	20.828591
2280.631982	-3.025500	3.140100	-9.498900	27.806523	0.000260	20.830039
2281.630108	-2.984400	3.140900	-9.372100	27.824254	0.000258	20.838399
2282.631626	-3.009000	3.140400	-9.447700	27.850612	0.000260	20.842167
2283.631267	-3.000400	3.137900	-9.414400	27.849819	0.000256	20.829042
2284.633244	-2.999800	3.138500	-9.413400	27.896733	0.000258	20.833584
2285.632348	-3.007600	3.139900	-9.442600	27.880492	0.000257	20.852800
2286.633107	-2.995400	3.136300	-9.393700	27.820164	0.000257	20.814844
2287.633340	-3.014200	3.136000	-9.449900	27.760850	0.000256	20.833386
2288.634869	-3.008100	3.136200	-9.433300	27.718320	0.000254	20.831839
2289.636311	-3.006400	3.136100	-9.425600	27.732431	0.000255	20.823280
2290.637150	-3.019200	3.133100	-9.458700	27.738928	0.000253	20.833612
2291.639363	-3.004500	3.133200	-9.412500	27.745302	0.000253	20.822482
2292.639061	-2.995400	3.132800	-9.382800	27.770448	0.000255	20.825976
2293.637140	-3.009800	3.132900	-9.428600	27.801395	0.000251	20.837680
2294.637984	-3.019500	3.130800	-9.452100	27.816398	0.000254	20.812951
2295.640151	-2.993200	3.132100	-9.373400	27.846253	0.000256	20.831617
2296.637425	-3.015000	3.129900	-9.436000	27.837773	0.000251	20.830195
2297.640754	-2.976000	3.129600	-9.312600	27.819004	0.000252	20.838806
2298.637659	-2.987600	3.128600	-9.346100	27.786593	0.000251	20.832267
2299.637890	-3.010700	3.127900	-9.415700	27.801077	0.000251	20.831196
2300.639359	-3.003100	3.128300	-9.392900	27.788553	0.000249	20.808636
2301.637769	-3.010900	3.125400	-9.408800	27.756664	0.000250	20.831070
2302.639625	-3.005800	3.126400	-9.395100	27.785552	0.000250	20.807038
2303.642574	-3.000300	3.124100	-9.372400	27.817591	0.000248	20.838807
2304.638693	-2.999400	3.124900	-9.371500	27.852456	0.000249	20.828851
2305.638733	-3.016700	3.124900	-9.425700	27.900856	0.000247	20.805967
2306.638587	-3.001500	3.123600	-9.373900	27.929345	0.000245	20.827528
2307.640975	-3.030900	3.120200	-9.455500	27.968792	0.000247	20.826930
2308.641338	-2.979500	3.122900	-9.303800	28.023584	0.000246	20.803372
2309.639977	-2.995700	3.121500	-9.350300	28.010420	0.000244	20.805768
2310.644231	-3.010700	3.120800	-9.394500	27.941521	0.000243	20.822713
2311.642636	-3.023100	3.118200	-9.425600	27.887567	0.000244	20.818196
2312.639191	-3.000600	3.118500	-9.356000	27.829397	0.000244	20.805644
2313.640254	-3.033000	3.117000	-9.452800	27.830190	0.000244	20.830624
2314.639623	-2.980900	3.118900	-9.295800	27.826818	0.000245	20.821540
2315.640549	-2.989900	3.117500	-9.320000	27.869220	0.000241	20.829128
2316.639585	-2.988100	3.117200	-9.313100	27.842638	0.000243	20.801427
2317.642904	-3.003100	3.115800	-9.356100	27.862450	0.000240	20.821840
2318.641082	-3.009900	3.114500	-9.371900	27.839465	0.000242	20.821466
2319.640950	-2.976800	3.114200	-9.269700	27.859649	0.000241	20.813805
2320.646031	-3.016500	3.112900	-9.388200	27.866717	0.000242	20.821392
2321.641330	-3.028500	3.111800	-9.422900	27.892628	0.000241	20.809539
2322.643063	-3.018600	3.111000	-9.389900	27.883403	0.000242	20.816376
2323.643775	-3.020900	3.109000	-9.389900	27.905942	0.000241	20.805395
2324.642977	-3.008600	3.109400	-9.353800	27.908372	0.000238	20.810686
2325.642830	-3.003700	3.109200	-9.338500	27.910405	0.000239	20.818422
2326.646064	-2.989000	3.108200	-9.288600	27.907677	0.000239	20.827056
2327.646634	-2.998200	3.107900	-9.317600	27.928133	0.000239	20.819196
2328.643672	-2.970300	3.107300	-9.228200	27.920149	0.000241	20.788401
2329.647074	-3.013200	3.105000	-9.355200	27.888015	0.000236	20.832396
2330.646196	-3.037100	3.104100	-9.426300	27.874849	0.000238	20.796861
2331.644760	-3.026900	3.102800	-9.390800	27.860320	0.000238	20.815429
2332.645920	-2.996300	3.103700	-9.297700	27.837754	0.000237	20.799356
2333.646846	-3.023600	3.103300	-9.380100	27.764529	0.000236	20.795838
2334.645694	-2.992700	3.103500	-9.286300	27.767628	0.000237	20.809389
2335.646900	-2.992000	3.100700	-9.276900	27.747964	0.000236	20.801453
2336.648350	-3.009700	3.100100	-9.328400	27.758751	0.000236	20.801877
2337.648926	-3.008100	3.098300	-9.319000	27.797931	0.000235	20.789624
2338.645890	-3.000100	3.098200	-9.294300	27.832101	0.000237	20.791770
2339.647868	-3.013700	3.096700	-9.331400	27.869097	0.000234	20.811460
2340.647000	-3.008100	3.095700	-9.311700	27.910629	0.000234	20.800630
2341.647799	-2.984500	3.095900	-9.238400	27.975340	0.000236	20.800804
2342.649535	-3.002100	3.094700	-9.290100	28.021256	0.000234	20.801503
2343.648067	-3.014900	3.094200	-9.325600	28.057699	0.000233	20.792668
2344.650846	-3.004700	3.093100	-9.293500	28.073021	0.000235	20.806669
2345.646314	-2.998900	3.092900	-9.274100	28.078252	0.000232	20.788701
2346.647051	-3.012500	3.092100	-9.314500	27.979853	0.000233	20.804398
2347.650362	-3.000200	3.089700	-9.268800	27.947646	0.000233	20.804697
2348.648402	-2.996100	3.088000	-9.251300	27.954019	0.000235	20.800680
2349.649601	-3.001000	3.089600	-9.271000	27.947548	0.000231	20.794167
2350.650386	-2.985500	3.089100	-9.221100	27.991953	0.000232	20.791447
2351.648887	-2.999800	3.086200	-9.257400	28.017415	0.000233	20.780566
2352.651556	-3.010400	3.086700	-9.290700	28.037571	0.000231	20.804650
2353.651387	-2.978800	3.086300	-9.192600	28.070147	0.000232	20.792397
2354.648691	-2.990400	3.083600	-9.220300	28.099052	0.000229	20.799683
2355.650682	-3.013600	3.081700	-9.286900	28.103739	0.000231	20.785909
2356.647799	-3.005700	3.083400	-9.266200	28.139362	0.000233	20.765346
2357.648646	-2.990700	3.081400	-9.214500	28.162862	0.000230	20.804651
2358.646108	-2.987300	3.081000	-9.203000	28.181528	0.000230	20.792149
2359.648844	-2.998400	3.081400	-9.238300	28.135818	0.000230	20.789753
2360.647715	-3.015200	3.078500	-9.281700	28.125282	0.000230	20.784362
2361.649415	-3.004600	3.078300	-9.248100	28.086140	0.000230	20.771511
2362.649518	-3.013500	3.077300	-9.272900	28.027682	0.000230	20.798488
2363.649835	-3.042300	3.073600	-9.348800	28.002072	0.000231	20.802107
2364.650785	-2.985800	3.076700	-9.185200	27.954742	0.000228	20.776278
2365.648752	-2.997400	3.075100	-9.216300	27.886657	0.000228	20.797366
2366.651104	-3.005600	3.072500	-9.233700	27.874285	0.000229	20.784440
2367.651183	-2.985800	3.072500	-9.173000	27.917428	0.000228	20.786136
2368.653647	-2.999700	3.071500	-9.212300	27.942767	0.000229	20.779398
2369.654809	-3.031600	3.068400	-9.300700	27.965554	0.000229	20.788109
2370.656546	-2.994000	3.070300	-9.192100	27.997612	0.000226	20.789557
2371.656973	-2.979100	3.068800	-9.142400	28.048138	0.000227	20.788733
2372.655587	-2.989700	3.067200	-9.167700	28.091621	0.000231	20.786987
2373.657143	-2.995100	3.066600	-9.184000	28.088993	0.000227	20.782444
2374.657933	-3.000500	3.064300	-9.193200	28.077194	0.000227	20.783369
2375.654658	-2.986800	3.065800	-9.156000	28.019727	0.000226	20.764877
2376.654462	-2.974900	3.065800	-9.119200	28.013084	0.000226	20.779053
2377.656006	-2.996700	3.062400	-9.175800	28.044595	0.000227	20.774261
2378.656407	-3.004700	3.060800	-9.194900	28.090135	0.000225	20.796870
2379.655468	-3.010800	3.059400	-9.210700	28.028728	0.000225	20.769669
2380.655528	-2.987800	3.059600	-9.140400	28.021638	0.000227	20.784343
2381.655984	-3.005000	3.059500	-9.192400	28.003514	0.000225	20.784118
2382.655077	-3.002800	3.057800	-9.180100	27.951872	0.000225	20.777656
2383.655343	-3.000700	3.056000	-9.168700	27.909772	0.000224	20.778905
2384.657142	-3.008400	3.054400	-9.186900	27.892911	0.000225	20.785642
2385.658278	-3.004300	3.053500	-9.172600	27.856586	0.000226	20.769471
2386.656002	-2.993500	3.053100	-9.138700	27.879970	0.000224	20.764556
2387.660154	-2.997000	3.053300	-9.148900	27.863951	0.000224	20.781151
2388.658508	-3.011400	3.050300	-9.185200	27.856067	0.000224	20.789338
2389.657391	-2.988200	3.050800	-9.114800	27.874688	0.000224	20.778207
2390.658027	-2.975700	3.049500	-9.073900	27.839205	0.000223	20.779953
2391.657195	-3.012700	3.047300	-9.179600	27.853712	0.000224	20.782700
2392.659986	-2.996700	3.047200	-9.130400	27.899385	0.000223	20.781726
2393.660402	-2.957400	3.047700	-9.011800	27.928468	0.000221	20.765005
2394.658415	-2.995200	3.045200	-9.120200	27.893930	0.000223	20.753002
2395.657751	-2.993300	3.044800	-9.112800	27.884533	0.000223	20.764882
2396.659918	-2.985600	3.042700	-9.084200	27.943916	0.000221	20.779132
2397.664578	-2.980700	3.041100	-9.061900	27.985173	0.000222	20.779407
2398.659899	-3.016900	3.040500	-9.172000	28.049433	0.000223	20.786718
2399.663361	-3.009700	3.039600	-9.146900	28.058210	0.000222	20.770423
2400.666851	-2.989500	3.038500	-9.082300	28.109848	0.000220	20.766928
2401.662784	-3.000700	3.038400	-9.115600	28.155016	0.000222	20.775415
2402.662129	-2.977400	3.036500	-9.040300	28.141480	0.000221	20.764633
2403.663511	-2.992100	3.035000	-9.079000	28.129358	0.000221	20.779457
2404.666687	-2.994500	3.034000	-9.083400	28.113964	0.000221	20.761115
2405.664392	-3.002000	3.031200	-9.097900	28.109305	0.000221	20.772546
2406.663901	-3.025300	3.030400	-9.166800	28.089919	0.000219	20.774842
2407.669331	-3.009800	3.029700	-9.118500	28.073582	0.000221	20.767405
2408.666619	-2.990300	3.029400	-9.058000	28.040065	0.000220	20.765908
2409.666664	-3.002700	3.029000	-9.094000	28.051940	0.000220	20.754628
2410.668408	-3.007400	3.027300	-9.102600	28.092994	0.000223	20.766557
2411.674219	-3.010700	3.025300	-9.107700	28.148200	0.000218	20.769028
2412.666355	-3.035800	3.023500	-9.178100	28.173287	0.000220	20.778636
2413.669321	-3.004800	3.021900	-9.078600	28.207519	0.000221	20.768529
2414.670914	-2.987500	3.021400	-9.025600	28.235754	0.000220	20.774670
2415.667033	-3.000100	3.021400	-9.063700	28.249881	0.000220	20.769453
2416.670346	-3.001000	3.018800	-9.058700	28.307435	0.000218	20.765760
2417.673246	-2.996600	3.018600	-9.043900	28.292935	0.000219	20.772498
2418.667900	-2.982600	3.017400	-8.999000	28.331277	0.000219	20.761317
2419.670355	-2.996800	3.014500	-9.033400	28.399807	0.000218	20.769156
2420.668548	-2.993600	3.014200	-9.021900	28.416783	0.000218	20.766336
2421.672683	-3.005100	3.012000	-9.050200	28.431157	0.000218	20.783180
2422.668306	-2.989200	3.013000	-9.005600	28.454006	0.000218	20.774421
2423.671352	-3.005800	3.010200	-9.047200	28.485777	0.000220	20.763267
2424.676322	-3.010300	3.009300	-9.056300	28.481316	0.000218	20.763516
2425.671115	-3.009700	3.006600	-9.047800	28.428159	0.000220	20.769256
2426.670947	-2.996700	3.007400	-9.010900	28.376239	0.000218	20.773399
2427.672137	-2.996700	3.004400	-9.002300	28.264559	0.000215	20.772851
2428.672471	-2.980500	3.004600	-8.953500	28.205367	0.000217	20.761146
2429.675274	-2.974600	3.002900	-8.931000	28.163846	0.000217	20.755855
2430.672791	-2.989100	3.003800	-8.978400	28.139331	0.000217	20.762470
2431.671562	-3.005800	3.001100	-9.019500	28.161915	0.000218	20.778568
2432.674362	-2.976800	3.001300	-8.933500	28.193148	0.000215	20.758802
2433.672113	-3.015600	2.998200	-9.040200	28.202791	0.000219	20.760449
2434.671843	-3.008800	2.997400	-9.018300	28.204327	0.000218	20.773850
2435.672758	-2.998100	2.996100	-8.981600	28.236725	0.000218	20.786079
2436.672023	-3.011200	2.993100	-9.011500	28.199544	0.000217	20.782785
2437.674155	-3.023200	2.993000	-9.047700	28.229214	0.000215	20.774724
2438.674683	-2.991300	2.992700	-8.950700	28.280003	0.000215	20.772280
2439.673968	-3.009600	2.990300	-8.998100	28.286596	0.000218	20.778444
2440.672546	-3.010100	2.989700	-8.998600	28.273260	0.000216	20.788724
2441.672526	-3.030300	2.987700	-9.051900	28.254224	0.000214	20.770507
2442.673223	-3.000600	2.985400	-8.956700	28.202617	0.000217	20.802474
2443.674109	-2.964100	2.985400	-8.847700	28.191711	0.000217	20.773951
2444.673227	-2.995800	2.984400	-8.939200	28.195925	0.000215	20.788151
2445.677919	-3.004600	2.981900	-8.958800	28.222200	0.000214	20.771929
2446.674461	-2.991600	2.981000	-8.917300	28.200808	0.000214	20.783583
2447.677025	-2.991400	2.978900	-8.909800	28.220094	0.000215	20.786404
2448.677805	-3.021700	2.977900	-8.996900	28.169723	0.000214	20.771729
2449.675240	-2.982100	2.977500	-8.878400	28.164544	0.000216	20.775050
2450.673470	-2.966800	2.975600	-8.826700	28.182516	0.000214	20.771806
2451.678016	-2.995900	2.975100	-8.912100	28.188441	0.000217	20.774926
2452.679259	-3.011200	2.971600	-8.946800	28.271700	0.000217	20.771981
2453.674484	-3.009500	2.971400	-8.940400	28.303178	0.000217	20.792769
2454.676140	-3.013700	2.969600	-8.948300	28.339190	0.000215	20.770707
2455.675490	-2.998200	2.966500	-8.893100	28.319536	0.000214	20.765616
2456.676618	-2.989300	2.966400	-8.866500	28.263273	0.000214	20.782936
2457.675178	-2.997800	2.965100	-8.887800	28.278590	0.000215	20.766116
2458.677776	-2.970300	2.966100	-8.808300	28.287143	0.000213	20.784684
2459.676779	-2.984200	2.961800	-8.837500	28.233554	0.000214	20.790947
2460.677484	-2.983000	2.960300	-8.829700	28.209734	0.000215	20.781664
2461.678888	-3.009100	2.958000	-8.898400	28.203759	0.000216	20.776123
2462.679150	-3.010600	2.958700	-8.906100	28.201404	0.000215	20.798408
2463.677235	-3.001400	2.955400	-8.868900	28.226862	0.000214	20.793219
2464.679120	-3.012000	2.955000	-8.899200	28.267042	0.000214	20.787205
2465.680019	-3.013300	2.953200	-8.898400	28.326229	0.000214	20.798909
2466.677330	-2.980900	2.953000	-8.801400	28.342661	0.000216	20.761400
2467.678295	-2.986100	2.949900	-8.807400	28.331583	0.000215	20.797662
2468.679157	-2.984000	2.950200	-8.802700	28.294950	0.000215	20.772156
2469.678370	-2.989400	2.947500	-8.809300	28.254104	0.000217	20.806896
2470.689562	-2.994500	2.946900	-8.823300	28.270141	0.000215	20.802653
2471.681135	-2.973300	2.944700	-8.754900	28.275098	0.000214	20.792471
2472.684835	-3.015000	2.942000	-8.868600	28.310641	0.000213	20.797438
2473.680663	-3.002700	2.940700	-8.828700	28.322190	0.000213	20.782040
2474.682528	-3.002700	2.940000	-8.827100	28.335972	0.000215	20.794494
2475.688662	-3.020700	2.936600	-8.868800	28.367919	0.000214	20.809592
2476.681879	-3.012000	2.935500	-8.841000	28.391389	0.000213	20.792921
2477.683939	-2.993000	2.935700	-8.785400	28.387001	0.000214	20.815531
2478.682887	-2.981500	2.933500	-8.746000	28.409033	0.000214	20.792671
2479.683443	-2.981800	2.932800	-8.744300	28.409332	0.000213	20.804351
2480.680090	-3.018900	2.929500	-8.842700	28.400658	0.000214	20.778548
2481.685115	-2.986600	2.927100	-8.741000	28.404871	0.000216	20.809343
2482.690845	-2.980800	2.927300	-8.725200	28.422393	0.000213	20.784787
2483.684306	-3.001800	2.926200	-8.782800	28.441723	0.000214	20.799037
2484.686825	-2.992200	2.924000	-8.748200	28.418898	0.000211	20.812562
2485.686130	-2.998500	2.922100	-8.760900	28.453099	0.000215	20.802431
2486.687103	-2.985200	2.920000	-8.716300	28.490914	0.000213	20.776975
2487.684728	-2.997700	2.918000	-8.746200	28.523477	0.000215	20.806449
2488.686299	-2.994200	2.917200	-8.732900	28.567883	0.000213	20.804703
2489.682714	-3.007400	2.915800	-8.768200	28.602029	0.000215	20.788358
2490.685642	-2.997700	2.914600	-8.736500	28.640433	0.000215	20.812338
2491.684253	-3.009700	2.912200	-8.763900	28.654632	0.000214	20.809095
2492.683972	-2.964200	2.911800	-8.630200	28.676534	0.000214	20.817879
2493.685458	-3.002300	2.910200	-8.736000	28.664816	0.000216	20.804180
2494.684743	-2.971000	2.907500	-8.637600	28.601832	0.000215	20.814711
2495.684656	-2.989000	2.906000	-8.684700	28.595686	0.000215	20.814686
2496.684722	-3.011400	2.903900	-8.742900	28.617318	0.000214	20.797592
2497.685257	-3.001400	2.901100	-8.706700	28.646580	0.000214	20.805728
2498.683442	-3.025800	2.898700	-8.769600	28.672673	0.000213	20.813041
2499.684751	-3.000900	2.898600	-8.696900	28.687117	0.000213	20.831383
2500.686064	-2.995200	2.896200	-8.673700	28.720813	0.000212	20.809847
2501.684322	-3.002300	2.894500	-8.689200	28.753815	0.000215	20.809425
2502.684517	-3.019200	2.893200	-8.734300	28.750372	0.000214	20.824449
2503.688635	-3.020000	2.889900	-8.726800	28.745838	0.000213	20.808501
2504.685363	-2.992800	2.890800	-8.650700	28.744029	0.000213	20.827068
2505.692070	-3.008100	2.887000	-8.682500	28.767419	0.000213	20.815541
2506.691278	-2.976300	2.887600	-8.592400	28.725697	0.000215	20.818560
2507.689437	-3.018200	2.883300	-8.701300	28.660190	0.000216	20.816590
2508.687033	-3.025000	2.882200	-8.717600	28.612890	0.000214	20.819211
2509.692657	-3.014000	2.879400	-8.677700	28.611231	0.000214	20.800944
2510.689874	-2.986200	2.877600	-8.592000	28.620301	0.000214	20.818614
2511.686689	-3.028600	2.875700	-8.708600	28.650355	0.000212	20.825176
2512.687224	-2.994100	2.873300	-8.601500	28.663711	0.000213	20.822982
2513.687014	-3.013700	2.871400	-8.652300	28.655510	0.000213	20.835583
2514.688523	-2.976400	2.870800	-8.543700	28.662176	0.000214	20.828548
2515.693287	-2.980600	2.868700	-8.549300	28.695724	0.000214	20.836259
2516.691971	-2.997700	2.866900	-8.593200	28.699119	0.000215	20.816445
2517.689688	-2.972800	2.865400	-8.517200	28.683957	0.000214	20.826303
2518.689966	-3.009800	2.862500	-8.614900	28.628629	0.000214	20.811355
2519.694778	-2.995900	2.861100	-8.569600	28.636287	0.000214	20.833766
2520.690911	-2.989500	2.859000	-8.545900	28.649395	0.000214	20.822313
2521.692432	-3.005300	2.857100	-8.586000	28.641465	0.000213	20.820964
2522.698596	-3.018800	2.854900	-8.616500	28.630538	0.000213	20.821812
2523.697361	-2.970400	2.853800	-8.475600	28.656505	0.000215	20.816672
2524.693099	-3.020500	2.850800	-8.609600	28.673255	0.000213	20.826904
2525.696920	-3.041300	2.846000	-8.655000	28.678484	0.000215	20.850662
2526.693350	-3.007700	2.845900	-8.558800	28.715574	0.000214	20.839183
2527.696276	-2.998400	2.844000	-8.526800	28.747015	0.000212	20.845248
2528.695398	-2.981700	2.842300	-8.472800	28.794557	0.000213	20.835765
2529.696771	-3.014300	2.839100	-8.557400	28.801223	0.000212	20.840583
2530.693794	-2.996900	2.836900	-8.501400	28.853544	0.000214	20.837813
2531.695213	-2.991700	2.836700	-8.485900	28.883492	0.000215	20.824361
2532.700205	-3.015900	2.834700	-8.547100	28.831323	0.000214	20.833446
2533.697642	-3.000300	2.832000	-8.496000	28.817673	0.000214	20.836291
2534.696260	-2.987000	2.828500	-8.448100	28.763691	0.000213	20.823639
2535.700120	-3.016500	2.826800	-8.526400	28.700488	0.000212	20.832049
2536.701137	-3.000000	2.826500	-8.479200	28.642215	0.000213	20.852064
2537.696971	-3.003200	2.822300	-8.475400	28.676952	0.000214	20.830154
2538.695150	-3.011400	2.819700	-8.489400	28.677746	0.000212	20.835694
2539.699257	-2.961200	2.819300	-8.347400	28.688524	0.000213	20.849394
2540.698278	-2.993600	2.817600	-8.433100	28.738596	0.000212	20.839139
2541.697843	-3.003900	2.813200	-8.448700	28.777864	0.000213	20.837916
2542.698801	-3.007900	2.810200	-8.451600	28.778286	0.000215	20.855883
2543.700022	-3.003900	2.809600	-8.437500	28.734212	0.000213	20.829033
2544.699275	-2.975800	2.807900	-8.354200	28.720907	0.000211	20.871105
2545.699282	-3.012700	2.804300	-8.446100	28.726012	0.000213	20.841636
2546.700806	-2.996800	2.801100	-8.393600	28.755469	0.000214	20.839065
2547.699422	-3.003100	2.800000	-8.407000	28.810222	0.000212	20.833527
2548.702239	-2.990400	2.796700	-8.362100	28.769814	0.000213	20.843557
2549.702121	-2.963600	2.795300	-8.283200	28.725467	0.000213	20.857207
2550.700154	-2.994800	2.791800	-8.360100	28.666103	0.000213	20.846726
2551.702627	-3.020700	2.788400	-8.421400	28.626707	0.000215	20.853514
2552.702744	-3.006700	2.786400	-8.376600	28.618928	0.000215	20.847102
2553.702072	-2.980800	2.783300	-8.295500	28.609537	0.000215	20.873204
2554.705030	-3.001200	2.782100	-8.348800	28.651908	0.000214	20.861826
2555.701284	-2.977400	2.780100	-8.275600	28.701932	0.000212	20.858632
2556.701780	-3.011400	2.774500	-8.354100	28.743828	0.000212	20.853417
2557.704912	-2.992900	2.773200	-8.299500	28.739469	0.000212	20.848078
2558.703110	-3.000600	2.770500	-8.311900	28.701684	0.000213	20.851270
2559.702380	-3.009600	2.766700	-8.325600	28.637884	0.000214	20.869038
2560.703002	-3.003300	2.763400	-8.298200	28.630426	0.000214	20.843036
2561.703568	-2.994800	2.760900	-8.267800	28.644450	0.000215	20.865220
2562.705804	-2.999400	2.759000	-8.274200	28.688307	0.000211	20.833056
2563.706707	-3.004300	2.756400	-8.279500	28.722075	0.000212	20.858058
2564.708105	-2.989000	2.753200	-8.228000	28.807375	0.000213	20.873332
2565.716107	-3.007000	2.749700	-8.267200	28.837400	0.000212	20.876076
2566.705886	-3.002800	2.746900	-8.247300	28.840745	0.000211	20.859058
2567.713738	-2.990400	2.743300	-8.202600	28.821471	0.000215	20.864772
2568.705747	-3.004900	2.741300	-8.236200	28.797789	0.000214	20.853245
2569.706928	-3.002400	2.737100	-8.217100	28.736225	0.000211	20.867569
2570.709301	-2.964700	2.734200	-8.104000	28.693288	0.000213	20.857986
2571.706664	-3.008300	2.731600	-8.216100	28.714347	0.000213	20.868766
2572.707623	-2.976300	2.730000	-8.124300	28.714892	0.000214	20.857936
2573.710771	-2.998900	2.724700	-8.169900	28.769546	0.000212	20.884063
2574.707430	-2.992300	2.720500	-8.139900	28.809755	0.000213	20.877151
2575.706952	-2.989600	2.717600	-8.123800	28.840276	0.000214	20.870438
2576.710208	-2.994000	2.715700	-8.130300	28.885163	0.000215	20.863028
2577.709418	-3.017000	2.709800	-8.174600	28.861927	0.000213	20.860008
2578.709803	-3.009600	2.707000	-8.145800	28.894948	0.000212	20.867669
2579.709263	-2.977800	2.704200	-8.050900	28.946794	0.000211	20.878649
2580.710693	-3.014100	2.700400	-8.138700	28.961508	0.000212	20.868817
2581.709293	-2.988600	2.696700	-8.058600	28.973892	0.000212	20.888405
2582.710194	-2.989100	2.693900	-8.050800	28.976246	0.000212	20.877027
2583.712416	-2.986300	2.689500	-8.030300	28.988285	0.000214	20.881570
2584.713782	-3.010200	2.686200	-8.084900	28.981176	0.000211	20.873934
2585.711907	-2.987100	2.681200	-8.007800	29.004955	0.000213	20.890778
2586.712903	-3.020100	2.678800	-8.089200	29.013030	0.000214	20.869044
2587.714210	-3.028400	2.673600	-8.096100	29.020335	0.000215	20.861705
2588.715547	-3.030100	2.669100	-8.086300	29.005277	0.000214	20.877353
2589.714619	-2.984100	2.667400	-7.959000	29.018503	0.000213	20.880722
2590.712363	-3.004300	2.662900	-7.999600	29.035248	0.000214	20.875782
2591.713809	-2.988200	2.658800	-7.944900	29.030368	0.000214	20.885563
2592.712795	-3.016600	2.653500	-8.004400	29.040103	0.000213	20.895845
2593.716347	-2.957100	2.650400	-7.836400	29.003098	0.000213	20.880847
2594.713840	-3.024100	2.646300	-8.002000	29.042777	0.000212	20.885264
2595.716915	-2.977500	2.641500	-7.863900	29.038714	0.000213	20.882119
2596.719201	-2.993700	2.639000	-7.900000	29.037899	0.000213	20.890306
2597.715037	-2.987500	2.632800	-7.864200	28.972285	0.000214	20.896743
2598.714824	-2.972900	2.629400	-7.815700	28.955442	0.000214	20.892576
2599.720518	-2.999700	2.624100	-7.870400	28.973028	0.000215	20.903654
2600.716107	-3.021900	2.619100	-7.913700	29.003941	0.000215	20.900661
2601.721586	-3.034900	2.614300	-7.933000	29.020808	0.000214	20.913861
2602.720958	-3.007300	2.609400	-7.846900	28.991284	0.000216	20.892177
2603.717629	-3.041100	2.603500	-7.917000	28.917988	0.000215	20.888508
2604.720012	-3.018000	2.600200	-7.845800	28.874886	0.000214	20.895346
2605.723270	-3.010800	2.593400	-7.807200	28.852766	0.000214	20.907200
2606.722524	-2.998100	2.590100	-7.764100	28.873302	0.000213	20.891853
2607.719154	-3.012100	2.582200	-7.776900	28.861436	0.000214	20.904554
2608.724170	-3.003900	2.578000	-7.743700	28.846548	0.000213	20.896195
2609.721372	-3.008200	2.571700	-7.734800	28.844370	0.000214	20.912018
2610.719926	-3.011700	2.565700	-7.726000	28.832205	0.000215	20.901661
2611.719913	-2.990600	2.563300	-7.663100	28.816598	0.000215	20.909171
2612.722222	-3.010200	2.554700	-7.688700	28.852396	0.000215	20.909198
2613.724598	-2.983600	2.550900	-7.610000	28.895648	0.000215	20.899192
2614.720885	-3.011300	2.542700	-7.655500	28.975410	0.000212	20.917433
2615.721131	-2.996200	2.538800	-7.605800	29.015611	0.000215	20.908625
2616.724416	-3.007100	2.532400	-7.614100	29.009122	0.000216	20.912992
2617.721814	-3.035100	2.524700	-7.661800	29.038100	0.000214	20.922274
2618.720900	-3.007100	2.520100	-7.577500	29.047637	0.000215	20.919081
2619.725318	-3.031600	2.513900	-7.620600	29.078274	0.000214	20.901115
2620.724962	-3.021400	2.508600	-7.578600	29.169388	0.000214	20.895250
2621.722962	-3.006700	2.502500	-7.523400	29.194477	0.000214	20.919581
2622.724143	-2.986900	2.496400	-7.455800	29.249305	0.000213	20.909875
