LabVIEW Measurement	
Writer_Version	2
Reader_Version	2
Separator	Tab
Decimal_Separator	.
Multi_Headings	No
X_Columns	One
Time_Pref	Absolute
Operator	admin
Description	Clolumns are: time, Current, Voltage, Power, Battery Temp, and Chamber Temp
Date	2024/08/16
Time	13:06:06.104549407958984375
***End_of_Header***	
	
Channels	6						
Samples	1	1	1	1	1	1	
Date	2024/08/31	2024/08/31	2024/08/31	2024/08/31	2024/08/31	2024/08/31	
Time	04:53:26.9105296134948730469	04:53:26.9145298004150390625	04:53:26.9195294380187988281	04:53:26.8955297470092773437	04:53:26.8955297470092773437	04:53:26.8955297470092773437	
X_Dimension	Time	Time	Time	Time	Time	Time	
X0	0.0000000000000000E+0	0.0000000000000000E+0	0.0000000000000000E+0	0.0000000000000000E+0	0.0000000000000000E+0	0.0000000000000000E+0	
Delta_X	1.000000	1.000000	1.000000	1.000000	1.000000	1.000000	
***End_of_Header***							
X_Value	Untitled	Untitled 1	Untitled 2	Untitled 3	Untitled 4	Untitled 5	Comment
0.000000	0.017840	4.106200	0.073210	21.027189	0.000964	20.778281
1.001001	-3.006500	3.941400	-11.849000	21.019897	0.000964	20.788531
2.003999	-3.014800	3.932700	-11.856000	21.041721	0.000963	20.786652
3.000000	-2.991100	3.927900	-11.748000	21.023103	0.000961	20.761866
4.004000	-2.991300	3.924800	-11.740000	21.020181	0.000960	20.776488
4.999999	-2.984500	3.921800	-11.703000	21.012277	0.000958	20.760521
6.000517	-2.981300	3.918200	-11.680000	21.027973	0.000958	20.770056
6.999517	-2.994300	3.916200	-11.725000	21.020629	0.000959	20.795902
8.000517	-2.983600	3.913400	-11.675000	21.030680	0.000955	20.774660
9.000518	-3.004000	3.910700	-11.747000	21.035765	0.000955	20.780695
10.003519	-2.971700	3.910200	-11.618000	21.036877	0.000956	20.771375
11.003036	-3.000300	3.907000	-11.720000	21.031766	0.000955	20.788549
12.001039	-3.000400	3.905500	-11.717000	21.050961	0.000955	20.790204
13.003037	-3.013700	3.903500	-11.763000	21.040040	0.000954	20.774065
14.003038	-3.003900	3.901100	-11.717000	21.044065	0.000954	20.803696
15.006038	-3.024000	3.900600	-11.793000	21.031369	0.000952	20.782936
16.003556	-2.990400	3.900900	-11.664000	21.078352	0.000951	20.780617
17.003070	-2.995600	3.900400	-11.683000	21.074145	0.000952	20.789686
18.005071	-2.990700	3.898400	-11.658000	21.063449	0.000949	20.794635
19.003102	-2.992200	3.898700	-11.664000	21.078274	0.000949	20.785281
20.005102	-2.993100	3.896400	-11.661000	21.077722	0.000950	20.793738
21.003101	-3.000800	3.895100	-11.688000	21.097184	0.000948	20.798980
22.003101	-3.003400	3.894200	-11.695000	21.099743	0.000948	20.793006
23.008101	-2.988200	3.893900	-11.635000	21.081170	0.000946	20.794342
24.008102	-2.996500	3.893200	-11.664000	21.096425	0.000948	20.795376
25.004775	-3.001000	3.893500	-11.683000	21.114068	0.000948	20.775565
26.005779	-2.995200	3.892300	-11.657000	21.135562	0.000945	20.791376
27.006771	-2.977500	3.891300	-11.585000	21.119023	0.000945	20.795221
28.005799	-3.021300	3.888600	-11.747000	21.128530	0.000945	20.770591
29.011769	-2.987400	3.890000	-11.620000	21.125763	0.000944	20.771142
30.008229	-3.007700	3.887600	-11.692000	21.134537	0.000944	20.787505
31.013645	-3.011500	3.888500	-11.710000	21.179593	0.000943	20.806971
32.008838	-2.991600	3.888100	-11.629000	21.164796	0.000942	20.792169
33.007839	-2.999400	3.886400	-11.655000	21.173319	0.000942	20.793109
34.010837	-3.025000	3.885200	-11.751000	21.152738	0.000943	20.788169
35.007960	-2.977900	3.885100	-11.567000	21.169036	0.000941	20.817273
36.007367	-3.012600	3.884900	-11.702000	21.163063	0.000942	20.792333
37.008255	-2.991700	3.883500	-11.616000	21.196269	0.000941	20.805635
38.008176	-2.981600	3.884800	-11.582000	21.201698	0.000940	20.800635
39.008424	-3.024400	3.883200	-11.744000	21.212186	0.000942	20.785522
40.010694	-2.989400	3.883700	-11.608000	21.197932	0.000940	20.784539
41.008337	-3.008900	3.882200	-11.680000	21.218761	0.000938	20.791151
42.009713	-3.021900	3.882400	-11.732000	21.222932	0.000939	20.795798
43.014880	-2.993000	3.882000	-11.618000	21.208876	0.000938	20.789323
44.011878	-2.982500	3.882100	-11.577000	21.233885	0.000938	20.808652
45.014276	-2.996800	3.881400	-11.631000	21.223699	0.000938	20.796091
46.011397	-3.004300	3.878900	-11.652000	21.231446	0.000937	20.800048
47.012400	-3.015100	3.878400	-11.692000	21.241322	0.000938	20.795703
48.013778	-3.018900	3.878800	-11.709000	21.233169	0.000937	20.792763
49.012930	-3.012700	3.878500	-11.683000	21.261470	0.000937	20.809694
50.014135	-3.004100	3.879300	-11.652000	21.246699	0.000935	20.809143
51.016375	-3.008500	3.877000	-11.663000	21.255627	0.000935	20.810487
52.013376	-2.994400	3.877800	-11.611000	21.261134	0.000935	20.820263
53.013604	-3.002200	3.877200	-11.638000	21.268321	0.000936	20.808487
54.014754	-2.993900	3.878000	-11.608000	21.288097	0.000935	20.804565
55.013248	-2.997500	3.877200	-11.620000	21.298619	0.000935	20.798969
56.016568	-3.017300	3.875600	-11.693000	21.287296	0.000936	20.805185
57.015863	-3.025900	3.874100	-11.722000	21.310830	0.000934	20.812134
58.016690	-3.012300	3.874200	-11.669000	21.314914	0.000936	20.801047
59.016688	-3.030700	3.875200	-11.743000	21.324703	0.000935	20.801832
60.017038	-3.011400	3.874300	-11.667000	21.324979	0.000934	20.821073
61.020037	-3.000800	3.873700	-11.623000	21.325246	0.000934	20.806642
62.016302	-3.012100	3.874400	-11.669000	21.340670	0.000935	20.798840
63.020481	-2.995000	3.874500	-11.603000	21.360291	0.000934	20.809935
64.021214	-2.989500	3.875800	-11.585000	21.375060	0.000935	20.820918
65.018331	-3.008500	3.872500	-11.650000	21.361764	0.000934	20.811409
66.017387	-2.981900	3.873900	-11.551000	21.393413	0.000934	20.831220
67.019421	-3.009200	3.871300	-11.647000	21.384245	0.000934	20.809245
68.017992	-3.001500	3.872400	-11.622000	21.414627	0.000932	20.823996
69.018554	-3.021500	3.871700	-11.697000	21.394886	0.000934	20.788124
70.018208	-2.974600	3.872500	-11.518000	21.390966	0.000935	20.825926
71.018431	-3.005700	3.870300	-11.631000	21.423613	0.000932	20.824926
72.022433	-3.005600	3.870800	-11.633000	21.427681	0.000933	20.817616
73.020534	-3.007300	3.870100	-11.636000	21.432764	0.000933	20.815590
74.023533	-3.001000	3.870800	-11.615000	21.435418	0.000932	20.828203
75.021110	-3.014800	3.869700	-11.666000	21.424708	0.000934	20.802314
76.024058	-2.988400	3.869600	-11.561000	21.452237	0.000933	20.829384
77.023688	-3.008500	3.870200	-11.641000	21.470727	0.000930	20.828444
78.024907	-3.011600	3.870200	-11.653000	21.474733	0.000931	20.825340
79.024992	-3.020400	3.869200	-11.686000	21.478335	0.000932	20.837953
80.025152	-3.002800	3.868400	-11.615000	21.467772	0.000932	20.814108
81.023382	-3.010800	3.869900	-11.651000	21.486416	0.000933	20.826599
82.025110	-2.991500	3.868500	-11.571000	21.489329	0.000931	20.819556
83.027337	-2.977700	3.870100	-11.523000	21.498332	0.000931	20.828565
84.025527	-2.992000	3.869200	-11.575000	21.508490	0.000932	20.839677
85.030526	-2.998400	3.868600	-11.598000	21.510015	0.000934	20.821763
86.025529	-3.007000	3.867900	-11.630000	21.512436	0.000931	20.828453
87.025587	-3.018000	3.866900	-11.670000	21.533837	0.000932	20.829953
88.028572	-3.010500	3.865700	-11.637000	21.536448	0.000931	20.841100
89.027126	-3.025900	3.866800	-11.700000	21.558288	0.000932	20.845410
90.025209	-3.018900	3.865100	-11.667000	21.549268	0.000932	20.824056
91.025227	-3.015400	3.865100	-11.653000	21.544710	0.000932	20.840832
92.025440	-3.007400	3.864800	-11.622000	21.530727	0.000933	20.836798
93.028023	-3.024700	3.865000	-11.689000	21.566162	0.000933	20.844281
94.032068	-2.987000	3.866400	-11.548000	21.568316	0.000933	20.850229
95.028144	-2.995700	3.866600	-11.582000	21.582988	0.000931	20.828401
96.027202	-3.009100	3.864700	-11.628000	21.578534	0.000931	20.840539
97.027704	-2.997200	3.864000	-11.580000	21.595221	0.000931	20.849652
98.028350	-2.999100	3.866700	-11.595000	21.601459	0.000931	20.835031
99.030526	-3.006500	3.865600	-11.620000	21.606800	0.000932	20.847488
100.028559	-3.012300	3.864100	-11.639000	21.626579	0.000932	20.836936
101.029526	-2.989500	3.864000	-11.551000	21.620420	0.000932	20.868229
102.030546	-3.003900	3.863400	-11.604000	21.626424	0.000933	20.857168
103.034002	-3.000300	3.863500	-11.590000	21.618628	0.000932	20.858375
104.032028	-2.988900	3.864000	-11.548000	21.665276	0.000933	20.833462
105.032027	-2.990600	3.862700	-11.551000	21.657032	0.000934	20.845126
106.030191	-2.992000	3.862600	-11.555000	21.667327	0.000932	20.848789
107.032012	-3.018800	3.862600	-11.659000	21.685994	0.000932	20.860358
108.030579	-2.966500	3.864200	-11.462000	21.688199	0.000933	20.858772
109.031576	-3.014500	3.862700	-11.642000	21.699389	0.000932	20.859065
110.032870	-2.992400	3.862500	-11.558000	21.683617	0.000933	20.852763
111.030957	-2.988200	3.861800	-11.539000	21.701698	0.000934	20.865168
112.034994	-2.997400	3.861400	-11.573000	21.712862	0.000933	20.846470
113.033007	-2.992200	3.862000	-11.554000	21.718676	0.000932	20.852289
114.032552	-2.989200	3.860300	-11.538000	21.733234	0.000932	20.854531
115.034517	-2.978900	3.862200	-11.504000	21.732235	0.000932	20.850686
116.034517	-2.982600	3.861600	-11.517000	21.732442	0.000930	20.858479
117.036681	-2.995600	3.861300	-11.565000	21.734018	0.000933	20.863375
118.033681	-2.994000	3.860700	-11.557000	21.726257	0.000933	20.865565
119.033954	-2.981700	3.860200	-11.510000	21.745595	0.000933	20.850781
120.034989	-2.985600	3.859900	-11.522000	21.744182	0.000933	20.850315
121.038267	-3.003400	3.858900	-11.589000	21.745992	0.000934	20.871091
122.034266	-2.990700	3.858500	-11.539000	21.756182	0.000933	20.859479
123.034894	-3.014200	3.858300	-11.629000	21.775054	0.000934	20.889745
124.034896	-2.977100	3.860500	-11.492000	21.776234	0.000933	20.877177
125.035060	-3.027200	3.859000	-11.681000	21.800662	0.000936	20.868436
126.038078	-3.002400	3.858700	-11.584000	21.799904	0.000934	20.871944
127.035324	-3.008400	3.857300	-11.603000	21.805107	0.000933	20.861505
128.037547	-2.993000	3.858500	-11.547000	21.810189	0.000934	20.878444
129.035689	-2.980800	3.857800	-11.497000	21.814427	0.000933	20.875573
130.036683	-2.982400	3.857900	-11.504000	21.813247	0.000936	20.883875
131.037685	-3.011600	3.857600	-11.616000	21.836253	0.000934	20.875607
132.036686	-2.993800	3.857800	-11.547000	21.844986	0.000936	20.889564
133.037685	-3.003300	3.858200	-11.586000	21.851016	0.000935	20.882323
134.036732	-3.005400	3.856800	-11.590000	21.837992	0.000935	20.880668
135.036742	-2.978400	3.857500	-11.488000	21.884468	0.000937	20.875978
136.036531	-2.983100	3.857400	-11.505000	21.834831	0.000937	20.863280
137.038738	-2.989400	3.856900	-11.529000	21.865787	0.000935	20.876245
138.039971	-2.980200	3.857600	-11.495000	21.877544	0.000935	20.902710
139.038333	-3.002000	3.855600	-11.574000	21.901866	0.000937	20.882012
140.038540	-3.009800	3.854900	-11.602000	21.901470	0.000937	20.869763
141.039055	-2.998500	3.856700	-11.563000	21.898662	0.000937	20.868849
142.043055	-2.994000	3.854200	-11.537000	21.933345	0.000938	20.899770
143.041053	-3.003200	3.855600	-11.577000	21.940054	0.000936	20.868556
144.045053	-2.967600	3.856200	-11.443000	21.912184	0.000938	20.897555
145.041597	-2.980700	3.855200	-11.491000	21.942982	0.000939	20.887132
146.046597	-2.985000	3.856300	-11.510000	21.932027	0.000938	20.868108
147.043597	-2.994800	3.855600	-11.545000	21.947590	0.000936	20.895537
148.045027	-2.992600	3.855500	-11.537000	21.963479	0.000940	20.898641
149.043602	-2.987200	3.857500	-11.521000	21.970533	0.000939	20.881521
150.044601	-2.994600	3.854800	-11.542000	21.966347	0.000939	20.891555
151.043817	-2.999300	3.853600	-11.557000	21.969568	0.000941	20.907579
152.045116	-3.000000	3.853900	-11.561000	21.969241	0.000940	20.879279
153.047817	-3.005500	3.853300	-11.579000	21.964616	0.000938	20.883184
154.046131	-3.010900	3.852700	-11.598000	22.008977	0.000941	20.914786
155.054131	-3.001600	3.852900	-11.563000	21.981039	0.000938	20.893460
156.047766	-2.996600	3.853400	-11.546000	21.998531	0.000940	20.908123
157.046767	-2.997100	3.852200	-11.544000	22.015375	0.000941	20.906493
158.046839	-2.999700	3.851600	-11.552000	22.033486	0.000939	20.881477
159.047831	-2.993200	3.851200	-11.526000	22.028646	0.000941	20.899390
160.047734	-2.994800	3.851700	-11.534000	22.017700	0.000943	20.928259
161.048926	-2.976200	3.852600	-11.466000	22.043372	0.000941	20.897537
162.047742	-2.991100	3.852500	-11.522000	22.067192	0.000941	20.904312
163.051405	-3.026200	3.850200	-11.650000	22.072066	0.000941	20.911562
164.049498	-3.003000	3.853000	-11.570000	22.048040	0.000943	20.905528
165.050016	-2.993700	3.852700	-11.533000	22.050468	0.000941	20.914596
166.053186	-2.999100	3.850100	-11.546000	22.055824	0.000942	20.920432
167.050563	-2.983400	3.850600	-11.487000	22.050244	0.000943	20.899201
168.049975	-2.992300	3.850600	-11.521000	22.070567	0.000946	20.910536
169.050930	-2.991400	3.850400	-11.517000	22.075614	0.000944	20.919854
170.051990	-3.000600	3.849100	-11.549000	22.087428	0.000945	20.910346
171.050424	-3.016700	3.849200	-11.611000	22.107949	0.000946	20.921406
172.055567	-3.012300	3.848700	-11.590000	22.113417	0.000946	20.913131
173.058148	-3.026600	3.847000	-11.641000	22.120315	0.000945	20.925251
174.056242	-3.016500	3.847800	-11.604000	22.115467	0.000946	20.910916
175.055295	-3.017400	3.847900	-11.610000	22.135091	0.000946	20.902589
176.055681	-3.004800	3.848800	-11.563000	22.140258	0.000946	20.924354
177.055902	-2.994800	3.849700	-11.528000	22.161062	0.000948	20.910571
178.060173	-3.010400	3.847900	-11.583000	22.160321	0.000947	20.917890
179.057378	-3.012900	3.847300	-11.590000	22.142979	0.000949	20.906218
180.056375	-3.014000	3.847000	-11.593000	22.176811	0.000950	20.915907
181.060047	-3.010700	3.846800	-11.579000	22.162147	0.000947	20.938681
182.059215	-3.005000	3.846900	-11.559000	22.178809	0.000949	20.929760
183.055206	-3.017300	3.847300	-11.607000	22.188168	0.000949	20.923484
184.056535	-3.027500	3.846100	-11.643000	22.177250	0.000949	20.943371
185.058964	-2.979000	3.846900	-11.459000	22.176854	0.000947	20.957197
186.056663	-3.010800	3.846700	-11.581000	22.195746	0.000950	20.933440
187.057699	-3.001300	3.847000	-11.543000	22.216153	0.000951	20.933484
188.060663	-3.005200	3.846500	-11.559000	22.234011	0.000951	20.947095
189.056813	-2.994100	3.846800	-11.517000	22.222042	0.000948	20.927053
190.057027	-2.983000	3.846800	-11.474000	22.229542	0.000953	20.944517
191.060040	-3.016000	3.845500	-11.595000	22.224643	0.000950	20.945776
192.060098	-2.979000	3.846800	-11.458000	22.240640	0.000951	20.948517
193.056231	-3.018000	3.844000	-11.601000	22.234648	0.000951	20.944888
194.060233	-3.005000	3.845400	-11.554000	22.219933	0.000955	20.942483
195.059835	-3.005400	3.844700	-11.553000	22.228664	0.000954	20.954069
196.057903	-2.989800	3.845800	-11.497000	22.220725	0.000953	20.948491
197.057869	-2.980500	3.844500	-11.458000	22.261976	0.000956	20.934320
198.057765	-3.002200	3.843700	-11.537000	22.258601	0.000956	20.943742
199.061133	-3.005700	3.843600	-11.552000	22.251420	0.000954	20.948879
200.058442	-2.993700	3.844700	-11.508000	22.286962	0.000955	20.930416
201.062785	-3.003700	3.842900	-11.541000	22.305585	0.000957	20.942423
202.059150	-2.988200	3.844900	-11.488000	22.286678	0.000957	20.952887
203.059519	-3.008600	3.842300	-11.559000	22.328469	0.000957	20.935941
204.061541	-2.991300	3.843800	-11.497000	22.342072	0.000960	20.955724
205.059920	-3.017600	3.844500	-11.600000	22.351224	0.000959	20.956827
206.060036	-3.011200	3.844200	-11.575000	22.355064	0.000959	20.954034
207.059578	-3.012800	3.842700	-11.576000	22.345353	0.000958	20.937674
208.059577	-3.013400	3.844400	-11.583000	22.334918	0.000959	20.971791
209.059564	-2.974300	3.842400	-11.427000	22.366032	0.000959	20.963594
210.065562	-3.001000	3.842100	-11.529000	22.352980	0.000960	20.969016
211.061364	-2.982500	3.843700	-11.462000	22.396646	0.000959	20.981445
212.060329	-3.007600	3.841400	-11.552000	22.397275	0.000960	20.971645
213.061329	-2.993600	3.842900	-11.504000	22.404110	0.000961	20.959526
214.064462	-3.020800	3.841800	-11.604000	22.408931	0.000959	20.958189
215.064159	-3.011700	3.840500	-11.566000	22.409034	0.000960	20.978678
216.061484	-3.001700	3.841700	-11.531000	22.423394	0.000961	20.962715
217.064474	-2.990900	3.842200	-11.490000	22.410954	0.000962	20.971119
218.061876	-2.993600	3.840500	-11.496000	22.420708	0.000963	20.969981
219.061928	-2.986800	3.840400	-11.470000	22.439277	0.000965	20.964396
220.065929	-2.990900	3.840000	-11.484000	22.467134	0.000964	20.969059
221.064929	-2.994700	3.839700	-11.498000	22.447197	0.000964	20.979437
222.064761	-2.996000	3.840500	-11.505000	22.461668	0.000965	20.964059
223.065762	-2.968000	3.841000	-11.399000	22.480167	0.000965	20.982109
224.062227	-3.001700	3.838600	-11.521000	22.470612	0.000966	20.982971
225.063283	-3.002000	3.839600	-11.525000	22.487923	0.000966	21.003623
226.064671	-2.998700	3.838300	-11.509000	22.485289	0.000968	20.966852
227.067933	-3.005000	3.837700	-11.531000	22.478609	0.000965	20.966800
228.064931	-2.990800	3.838700	-11.479000	22.515013	0.000969	20.961060
229.065200	-2.969200	3.840300	-11.402000	22.493682	0.000967	20.980471
230.065907	-3.004400	3.838900	-11.533000	22.493286	0.000968	20.984815
231.064291	-2.971300	3.837900	-11.402000	22.474950	0.000967	20.945122
232.066291	-2.987200	3.837400	-11.463000	22.503358	0.000970	20.977834
233.070109	-3.011000	3.836600	-11.551000	22.486288	0.000968	20.973067
234.066380	-2.999800	3.836800	-11.509000	22.493889	0.000969	20.969774
235.065619	-2.989900	3.836900	-11.470000	22.505647	0.000971	20.970171
236.065716	-2.997100	3.835600	-11.496000	22.493045	0.000970	20.979833
237.065853	-2.995700	3.836500	-11.491000	22.496712	0.000972	20.947949
238.065865	-3.022400	3.836700	-11.594000	22.516528	0.000970	20.960681
239.066898	-2.995000	3.836800	-11.490000	22.511355	0.000970	20.939855
240.068867	-2.987700	3.836900	-11.462000	22.525532	0.000972	20.936036
241.066296	-3.005300	3.836700	-11.530000	22.529405	0.000973	20.942760
242.066697	-2.995400	3.835700	-11.489000	22.525954	0.000974	20.964430
243.067133	-3.008500	3.835700	-11.538000	22.535767	0.000974	20.957663
244.067075	-3.003600	3.835600	-11.519000	22.529690	0.000974	20.964378
245.069015	-3.011400	3.834100	-11.545000	22.548308	0.000975	20.956948
246.068225	-3.000500	3.835400	-11.507000	22.541706	0.000975	20.951759
247.070449	-2.998900	3.834600	-11.499000	22.574631	0.000976	20.947751
248.068637	-3.007300	3.834900	-11.532000	22.560643	0.000976	20.950337
249.073072	-3.010900	3.834300	-11.544000	22.570929	0.000977	20.944518
250.073060	-2.981400	3.835800	-11.435000	22.536343	0.000977	20.939277
251.071062	-3.022600	3.831400	-11.580000	22.560273	0.000977	20.947122
252.074101	-3.003200	3.832000	-11.507000	22.552543	0.000980	20.944122
253.074405	-2.987400	3.833400	-11.451000	22.577239	0.000980	20.966482
254.071347	-2.986400	3.833200	-11.447000	22.559963	0.000980	20.931166
255.071407	-3.005900	3.833400	-11.521000	22.566324	0.000980	20.934218
256.075667	-3.002200	3.831500	-11.502000	22.576921	0.000979	20.929184
257.072351	-3.003600	3.833200	-11.512000	22.607460	0.000980	20.937010
258.073540	-3.000100	3.831700	-11.494000	22.614690	0.000981	20.948044
259.076206	-3.003300	3.831600	-11.506000	22.616523	0.000980	20.945613
260.072575	-3.015800	3.832300	-11.556000	22.602640	0.000982	20.931235
261.073243	-3.002000	3.831500	-11.501000	22.633695	0.000983	20.943846
262.077413	-3.002400	3.831500	-11.502000	22.620362	0.000982	20.915797
263.075836	-2.996700	3.832100	-11.483000	22.597372	0.000982	20.928805
264.074897	-3.010100	3.830100	-11.527000	22.624752	0.000986	20.930149
265.078338	-2.994200	3.829400	-11.465000	22.632326	0.000984	20.935364
266.077302	-2.989700	3.830400	-11.451000	22.644790	0.000983	20.918452
267.077302	-3.009900	3.829500	-11.525000	22.676214	0.000986	20.937597
268.079477	-3.011500	3.830900	-11.535000	22.654593	0.000986	20.926374
269.078475	-3.000300	3.830500	-11.491000	22.698247	0.000985	20.913677
270.077137	-3.020700	3.827100	-11.560000	22.691147	0.000987	20.929322
271.079139	-3.014900	3.829400	-11.545000	22.688117	0.000988	20.928659
272.081173	-3.002100	3.828800	-11.494000	22.692377	0.000986	20.923443
273.079494	-2.981700	3.828700	-11.413000	22.728955	0.000988	20.934951
274.083064	-2.980100	3.829500	-11.411000	22.712724	0.000988	20.932443
275.082067	-2.981400	3.829600	-11.416000	22.738792	0.000987	20.909720
276.080748	-3.012900	3.828300	-11.533000	22.731925	0.000990	20.910901
277.079751	-3.001600	3.828700	-11.491000	22.716984	0.000991	20.928650
278.079335	-3.003800	3.828600	-11.499000	22.723611	0.000991	20.911108
279.080795	-2.997200	3.828800	-11.474000	22.741727	0.000992	20.934943
280.095462	-2.999300	3.827000	-11.477000	22.748036	0.000990	20.906178
281.084490	-3.003900	3.827600	-11.497000	22.749585	0.000991	20.909152
282.081425	-3.009600	3.827700	-11.518000	22.760842	0.000991	20.911893
283.081184	-2.970200	3.827400	-11.367000	22.748845	0.000992	20.912678
284.084112	-2.994900	3.826700	-11.460000	22.755050	0.000992	20.911307
285.082485	-3.001000	3.826800	-11.482000	22.762315	0.000995	20.913842
286.082934	-3.001000	3.826300	-11.481000	22.755963	0.000993	20.914118
287.082294	-2.981400	3.826200	-11.407000	22.766979	0.000994	20.908084
288.087369	-3.011000	3.824200	-11.514000	22.783494	0.000996	20.912773
289.085742	-2.988600	3.826800	-11.435000	22.793718	0.000997	20.918273
290.083201	-3.003100	3.824000	-11.483000	22.798099	0.000997	20.903696
291.084337	-2.986300	3.824900	-11.422000	22.819768	0.000997	20.913549
292.087730	-2.996600	3.825400	-11.462000	22.815164	0.000998	20.913679
293.088378	-2.987000	3.824600	-11.422000	22.815448	0.000997	20.934824
294.086504	-3.007000	3.823800	-11.497000	22.842005	0.000997	20.906903
295.086678	-2.980700	3.824900	-11.400000	22.817807	0.001000	20.916325
296.088677	-2.987500	3.824600	-11.424000	22.809209	0.000999	20.914351
297.088933	-3.001800	3.823800	-11.478000	22.814915	0.000999	20.941875
298.087913	-3.007900	3.823400	-11.500000	22.808650	0.000999	20.906680
299.088488	-3.001300	3.821300	-11.467000	22.804046	0.000999	20.920558
300.089488	-3.000400	3.822400	-11.468000	22.783564	0.001000	20.902413
301.087543	-2.986500	3.822500	-11.414000	22.808891	0.001001	20.931100
302.089661	-3.021600	3.820800	-11.544000	22.792092	0.001003	20.930867
303.090376	-3.026500	3.822200	-11.566000	22.796817	0.001002	20.909050
304.094376	-3.001700	3.821100	-11.469000	22.787583	0.001002	20.897430
305.089629	-3.025800	3.821600	-11.561000	22.778572	0.001004	20.897413
306.089052	-3.014200	3.821800	-11.519000	22.786197	0.001004	20.915007
307.091254	-3.002300	3.822900	-11.476000	22.810862	0.001005	20.906524
308.097703	-3.005800	3.820800	-11.484000	22.812918	0.001004	20.900525
309.094646	-3.029800	3.819800	-11.572000	22.826421	0.001006	20.896034
310.094557	-2.991500	3.820900	-11.429000	22.833813	0.001006	20.899646
311.099557	-3.002700	3.819700	-11.468000	22.817058	0.001005	20.907516
312.094762	-3.008500	3.821000	-11.494000	22.845612	0.001006	20.920472
313.095132	-2.988900	3.820100	-11.417000	22.838779	0.001008	20.908413
314.096287	-2.984700	3.820900	-11.402000	22.868485	0.001008	20.906878
315.096819	-3.010000	3.819700	-11.496000	22.862436	0.001008	20.926420
316.096795	-3.004800	3.818800	-11.473000	22.852341	0.001010	20.904930
317.099367	-2.976400	3.819900	-11.367000	22.875757	0.001008	20.911318
318.098313	-3.009200	3.819400	-11.490000	22.875817	0.001008	20.907111
319.099907	-3.006800	3.818400	-11.481000	22.899611	0.001009	20.895862
320.101926	-2.989900	3.819600	-11.419000	22.902528	0.001010	20.913008
321.102129	-3.002100	3.817500	-11.458000	22.874991	0.001011	20.904862
322.099373	-3.001000	3.818300	-11.458000	22.873227	0.001010	20.902147
323.103928	-3.009300	3.818100	-11.488000	22.887925	0.001012	20.886053
324.101086	-3.008500	3.817000	-11.482000	22.884526	0.001011	20.911569
325.101542	-2.979800	3.817600	-11.375000	22.931940	0.001012	20.916396
326.104546	-3.009200	3.814700	-11.478000	22.911658	0.001012	20.905087
327.104033	-3.024000	3.816300	-11.538000	22.889733	0.001012	20.894027
328.102273	-2.991400	3.817900	-11.420000	22.906659	0.001014	20.904820
329.103832	-3.008800	3.816600	-11.483000	22.895334	0.001014	20.925240
330.104358	-2.992500	3.816100	-11.419000	22.893330	0.001014	20.915172
331.103358	-2.992800	3.816700	-11.421000	22.874975	0.001015	20.892044
332.104957	-3.006600	3.814700	-11.468000	22.867979	0.001015	20.914431
333.129227	-2.993900	3.815200	-11.422000	22.838419	0.001016	20.912319
334.106232	-2.997500	3.814700	-11.434000	22.857145	0.001017	20.904527
335.104482	-2.991300	3.814200	-11.408000	22.875629	0.001015	20.901234
336.107934	-3.026800	3.813200	-11.541000	22.877729	0.001017	20.902389
337.106935	-3.010800	3.815600	-11.487000	22.915281	0.001016	20.899234
338.106106	-3.023800	3.813400	-11.530000	22.935417	0.001018	20.899018
339.117293	-3.003500	3.813300	-11.452000	22.957660	0.001018	20.897596
340.107967	-3.003200	3.813200	-11.451000	22.948135	0.001017	20.897062
341.107443	-2.998300	3.814800	-11.436000	22.926546	0.001017	20.911940
342.106661	-3.003700	3.813400	-11.452000	22.928095	0.001020	20.886942
343.107171	-3.012000	3.812600	-11.482000	22.945184	0.001019	20.902639
344.107171	-2.997600	3.811900	-11.426000	22.927372	0.001018	20.917983
345.106432	-2.988400	3.813700	-11.397000	22.920574	0.001019	20.888416
346.106641	-2.967800	3.814300	-11.318000	22.927260	0.001021	20.907441
347.106678	-2.984100	3.811600	-11.373000	22.960543	0.001020	20.896217
348.106887	-3.009200	3.811400	-11.468000	22.952472	0.001021	20.905674
349.107211	-3.001800	3.811200	-11.439000	22.963194	0.001021	20.900769
350.108505	-2.995200	3.810700	-11.413000	22.991907	0.001022	20.884020
351.106627	-2.993600	3.811200	-11.407000	22.975997	0.001023	20.915018
352.109497	-2.990200	3.810300	-11.393000	22.994755	0.001022	20.910578
353.108094	-3.013300	3.811200	-11.482000	22.986339	0.001023	20.892666
354.108088	-3.008600	3.810500	-11.461000	22.999797	0.001022	20.892398
355.109126	-3.010000	3.808800	-11.463000	22.982717	0.001025	20.903260
356.106292	-3.022600	3.808100	-11.509000	23.018820	0.001026	20.909087
357.107317	-2.995400	3.810100	-11.412000	23.044581	0.001027	20.889855
358.107318	-3.022000	3.808800	-11.509000	23.030359	0.001025	20.887459
359.111314	-2.988800	3.810200	-11.386000	23.056386	0.001025	20.878924
360.108318	-2.986800	3.810700	-11.381000	23.050612	0.001027	20.903957
361.107315	-2.989900	3.809000	-11.387000	23.083651	0.001029	20.881588
362.109580	-2.988000	3.808200	-11.378000	23.057263	0.001027	20.890234
363.108911	-2.988100	3.807900	-11.377000	23.081216	0.001028	20.928929
364.107912	-2.980700	3.809700	-11.353000	23.079219	0.001027	20.903224
365.109305	-2.996200	3.808100	-11.408000	23.093312	0.001028	20.901224
366.116147	-3.019400	3.806700	-11.492000	23.094370	0.001028	20.881897
367.108986	-2.998300	3.806200	-11.411000	23.114012	0.001027	20.902526
368.110614	-2.979900	3.806600	-11.342000	23.143186	0.001027	20.904733
369.109700	-2.992500	3.806000	-11.389000	23.134703	0.001029	20.892914
370.108805	-3.000400	3.805300	-11.417000	23.142463	0.001031	20.885043
371.110054	-2.991900	3.807000	-11.389000	23.130977	0.001031	20.884440
372.112045	-2.992000	3.805200	-11.384000	23.134840	0.001030	20.887362
373.109600	-2.990700	3.805400	-11.380000	23.129377	0.001034	20.872406
374.112657	-3.001100	3.804700	-11.417000	23.109778	0.001031	20.906817
375.110664	-3.004000	3.803100	-11.424000	23.094395	0.001034	20.888560
376.108880	-3.008200	3.804600	-11.444000	23.068111	0.001031	20.868862
377.111059	-3.012800	3.804500	-11.461000	23.048709	0.001033	20.897783
378.108243	-3.003600	3.804000	-11.423000	23.079511	0.001036	20.878388
379.109245	-3.016100	3.803900	-11.471000	23.101450	0.001034	20.874767
380.111278	-2.993500	3.803800	-11.385000	23.098000	0.001033	20.885060
381.111784	-2.982100	3.803400	-11.341000	23.115938	0.001034	20.885491
382.111173	-2.987000	3.803400	-11.360000	23.120455	0.001036	20.894758
383.111363	-3.017000	3.801500	-11.468000	23.121926	0.001036	20.894335
384.113342	-3.021300	3.802200	-11.485000	23.138883	0.001037	20.883827
385.113022	-2.971400	3.803700	-11.302000	23.150213	0.001037	20.886172
386.112731	-2.995200	3.801800	-11.386000	23.137653	0.001039	20.870741
387.115733	-2.960800	3.803700	-11.261000	23.162645	0.001035	20.877293
388.115654	-2.994200	3.803000	-11.385000	23.145645	0.001037	20.871638
389.114655	-3.004400	3.801000	-11.419000	23.141800	0.001036	20.881060
390.119653	-2.995800	3.800300	-11.384000	23.157741	0.001039	20.887551
391.116653	-2.996000	3.800800	-11.386000	23.122777	0.001039	20.874327
392.116653	-2.997500	3.800800	-11.392000	23.106345	0.001039	20.882042
393.116654	-2.989700	3.801300	-11.364000	23.093095	0.001040	20.858336
394.117878	-2.983700	3.801300	-11.340000	23.113838	0.001039	20.862526
395.119051	-2.978300	3.799200	-11.315000	23.120670	0.001040	20.873164
396.117894	-3.022200	3.798200	-11.478000	23.176083	0.001039	20.867526
397.123041	-2.995300	3.799200	-11.379000	23.187783	0.001040	20.883517
398.118042	-2.995100	3.797800	-11.375000	23.195904	0.001042	20.866052
399.117310	-3.002000	3.798100	-11.401000	23.202425	0.001041	20.865474
400.118311	-2.989400	3.798800	-11.354000	23.221514	0.001041	20.858052
401.117853	-2.977600	3.798900	-11.311000	23.216120	0.001043	20.867345
402.120271	-2.990500	3.798600	-11.359000	23.246358	0.001043	20.845491
403.120761	-3.000700	3.797700	-11.394000	23.259339	0.001043	20.871775
404.122395	-2.979600	3.797600	-11.314000	23.265722	0.001041	20.859681
405.121077	-3.010800	3.797400	-11.433000	23.284758	0.001044	20.851733
406.122834	-2.990400	3.797700	-11.356000	23.291873	0.001043	20.879724
407.120237	-3.005400	3.797500	-11.412000	23.312827	0.001044	20.867534
408.120646	-3.002700	3.795400	-11.396000	23.282574	0.001043	20.868982
409.122648	-2.989000	3.795300	-11.343000	23.304921	0.001042	20.866249
410.120374	-2.987400	3.796500	-11.341000	23.330461	0.001044	20.870508
411.120977	-3.017000	3.795300	-11.449000	23.305291	0.001044	20.859982
412.123583	-2.972900	3.796200	-11.284000	23.305988	0.001046	20.860681
413.121963	-3.000600	3.795200	-11.387000	23.313618	0.001044	20.872594
414.131959	-2.993500	3.796200	-11.363000	23.344559	0.001046	20.850500
415.123397	-2.997800	3.794400	-11.374000	23.348584	0.001047	20.865439
416.127801	-2.985700	3.795600	-11.331000	23.389845	0.001047	20.863172
417.123742	-2.988700	3.795400	-11.343000	23.371284	0.001049	20.861163
418.124723	-2.995100	3.793400	-11.361000	23.352971	0.001046	20.839965
419.124824	-2.984100	3.794800	-11.323000	23.385940	0.001048	20.849775
420.125850	-3.010200	3.792900	-11.416000	23.397371	0.001047	20.870240
421.125079	-2.993900	3.794100	-11.359000	23.384572	0.001049	20.846034
422.125078	-2.996900	3.793000	-11.366000	23.390542	0.001049	20.861025
423.125519	-2.998700	3.793500	-11.375000	23.404811	0.001049	20.847827
424.125359	-3.008700	3.792200	-11.408000	23.404948	0.001050	20.864559
425.124187	-3.009500	3.791900	-11.411000	23.419562	0.001050	20.845542
426.125042	-2.992700	3.791900	-11.347000	23.439937	0.001049	20.852688
427.124562	-3.018300	3.790200	-11.439000	23.419648	0.001050	20.868386
428.125854	-2.980300	3.791500	-11.299000	23.420095	0.001051	20.853188
429.126079	-2.999500	3.791300	-11.370000	23.416336	0.001050	20.872179
430.126079	-2.978600	3.792200	-11.294000	23.425771	0.001050	20.847973
431.131166	-3.004700	3.790000	-11.386000	23.420335	0.001051	20.852007
432.128201	-2.998800	3.791200	-11.368000	23.422804	0.001052	20.841206
433.126388	-2.972300	3.790300	-11.264000	23.414341	0.001053	20.845999
434.125388	-3.015500	3.789900	-11.428000	23.443988	0.001052	20.846792
435.128389	-2.995900	3.788900	-11.350000	23.454705	0.001053	20.842835
436.126424	-2.995000	3.788900	-11.346000	23.445880	0.001051	20.858645
437.126500	-2.995200	3.789500	-11.350000	23.448039	0.001052	20.870765
438.127810	-3.003700	3.788900	-11.380000	23.451195	0.001053	20.831257
439.127283	-3.006100	3.787900	-11.386000	23.445390	0.001053	20.851041
440.126283	-2.996000	3.787700	-11.347000	23.482227	0.001054	20.847188
441.130375	-2.991700	3.788500	-11.333000	23.463409	0.001052	20.856300
442.129503	-2.956600	3.789300	-11.203000	23.483233	0.001054	20.850567
443.128907	-2.993700	3.786300	-11.334000	23.416663	0.001056	20.842636
444.128896	-2.997400	3.787000	-11.350000	23.419191	0.001054	20.853231
445.129637	-3.001000	3.785500	-11.359000	23.412362	0.001056	20.865351
446.127839	-2.985500	3.786100	-11.303000	23.363076	0.001054	20.851041
447.131104	-3.010200	3.784400	-11.391000	23.402849	0.001055	20.845860
448.135160	-3.006400	3.784700	-11.378000	23.432161	0.001056	20.828774
449.141131	-2.991500	3.785800	-11.323000	23.438096	0.001057	20.838989
450.135137	-3.002900	3.786400	-11.370000	23.468285	0.001056	20.850757
451.130486	-2.991000	3.785100	-11.320000	23.465532	0.001054	20.842782
452.131635	-2.980400	3.786700	-11.284000	23.478837	0.001057	20.839524
453.131813	-2.978700	3.785900	-11.275000	23.469119	0.001057	20.833101
454.131434	-2.972700	3.784500	-11.248000	23.459469	0.001058	20.844765
455.131773	-2.990900	3.783300	-11.314000	23.448778	0.001059	20.844006
456.130489	-2.969100	3.785600	-11.238000	23.476292	0.001058	20.837920
457.132420	-3.003800	3.782800	-11.362000	23.460131	0.001057	20.825041
458.131421	-2.986900	3.782900	-11.298000	23.458410	0.001058	20.843704
459.132063	-2.993200	3.783400	-11.323000	23.466658	0.001058	20.819730
460.133147	-3.008700	3.782800	-11.379000	23.463743	0.001058	20.829135
461.132327	-2.996200	3.782000	-11.329000	23.446816	0.001058	20.810747
462.132138	-3.000800	3.781600	-11.347000	23.430415	0.001057	20.823230
463.132381	-3.003800	3.781200	-11.357000	23.437080	0.001059	20.824695
464.131353	-3.005400	3.782200	-11.366000	23.435859	0.001059	20.837221
465.132349	-3.007000	3.780500	-11.367000	23.459287	0.001060	20.830833
466.134134	-2.999000	3.779900	-11.335000	23.465592	0.001061	20.822454
467.133570	-2.992800	3.780400	-11.314000	23.493183	0.001060	20.839678
468.133568	-3.016500	3.780000	-11.401000	23.479834	0.001059	20.826299
469.136606	-2.993300	3.779900	-11.313000	23.464860	0.001060	20.819824
470.134792	-3.001100	3.780400	-11.344000	23.451882	0.001059	20.810134
471.138231	-2.997800	3.778900	-11.328000	23.446756	0.001060	20.840083
472.135632	-2.999800	3.779700	-11.337000	23.482827	0.001061	20.838781
473.138935	-2.993200	3.778200	-11.308000	23.476695	0.001062	20.826471
474.140903	-2.975700	3.778600	-11.243000	23.476170	0.001061	20.815514
475.136317	-2.992800	3.779200	-11.309000	23.479404	0.001063	20.829186
476.140317	-2.968100	3.778300	-11.212000	23.499538	0.001063	20.829453
477.141870	-3.003800	3.777900	-11.347000	23.484607	0.001063	20.820177
478.146866	-3.011400	3.777100	-11.374000	23.498222	0.001062	20.821970
479.143129	-3.015900	3.776000	-11.387000	23.513281	0.001064	20.799608
480.140131	-3.016300	3.775500	-11.387000	23.529725	0.001064	20.830315
481.139317	-2.992000	3.776000	-11.297000	23.558157	0.001064	20.826574
482.144902	-2.992600	3.777600	-11.304000	23.539607	0.001062	20.808453
483.141488	-2.986700	3.777600	-11.282000	23.559344	0.001062	20.819703
484.141031	-2.969300	3.776300	-11.212000	23.583415	0.001063	20.813962
485.144534	-3.005100	3.776300	-11.347000	23.594345	0.001063	20.814962
486.145154	-2.976600	3.777000	-11.242000	23.597544	0.001063	20.818169
487.143408	-2.987200	3.776100	-11.279000	23.599376	0.001063	20.823324
488.144411	-2.995000	3.774600	-11.304000	23.590450	0.001064	20.815798
489.150326	-3.018700	3.773900	-11.392000	23.592514	0.001065	20.793686
490.145557	-3.014000	3.773000	-11.370000	23.578539	0.001064	20.802436
491.146606	-2.998800	3.773600	-11.315000	23.573723	0.001064	20.796186
492.147311	-3.007900	3.772600	-11.346000	23.567187	0.001066	20.804333
493.152525	-3.012400	3.773300	-11.366000	23.575272	0.001064	20.800583
494.148526	-2.984300	3.772500	-11.258000	23.589487	0.001064	20.786858
495.150537	-2.992900	3.771800	-11.288000	23.606429	0.001066	20.799574
496.153072	-2.977400	3.773000	-11.232000	23.601518	0.001066	20.805557
497.149528	-2.988300	3.773100	-11.274000	23.615682	0.001065	20.788936
498.148971	-3.006800	3.771300	-11.338000	23.611950	0.001065	20.787091
499.154006	-2.994400	3.772000	-11.294000	23.612766	0.001065	20.776530
500.150018	-3.013800	3.770300	-11.361000	23.610900	0.001067	20.815911
501.150257	-3.003900	3.769300	-11.320000	23.624324	0.001067	20.794281
502.153905	-3.018000	3.768600	-11.372000	23.610032	0.001067	20.801764
503.154440	-3.018300	3.768900	-11.375000	23.584121	0.001065	20.787643
504.151349	-3.011600	3.769200	-11.351000	23.563679	0.001065	20.779953
505.154992	-2.998000	3.769800	-11.301000	23.564358	0.001068	20.810506
506.155835	-2.989200	3.770100	-11.268000	23.566147	0.001065	20.790962
507.153840	-2.998700	3.768300	-11.298000	23.592609	0.001067	20.789039
508.154021	-3.006400	3.769200	-11.331000	23.588877	0.001068	20.775815
509.156072	-3.010700	3.767800	-11.343000	23.593452	0.001068	20.793678
510.155075	-3.027900	3.767300	-11.405000	23.659375	0.001067	20.795755
511.155076	-2.995200	3.767300	-11.283000	23.656933	0.001070	20.799945
512.156106	-3.010400	3.768300	-11.343000	23.681338	0.001068	20.797385
513.157125	-3.004800	3.766100	-11.316000	23.693823	0.001070	20.762012
514.155122	-3.016400	3.766600	-11.361000	23.721615	0.001068	20.775177
515.155375	-3.006000	3.767500	-11.325000	23.734444	0.001070	20.775237
516.154557	-3.014100	3.765500	-11.349000	23.725476	0.001070	20.790902
517.154650	-3.003600	3.765700	-11.310000	23.737505	0.001069	20.781626
518.157116	-2.978000	3.766200	-11.215000	23.734306	0.001067	20.797859
519.157084	-2.993700	3.765400	-11.271000	23.739534	0.001071	20.795988
520.156818	-3.011700	3.764200	-11.335000	23.751039	0.001069	20.802782
521.157203	-2.997500	3.763800	-11.281000	23.744427	0.001069	20.780979
522.156783	-3.004700	3.763700	-11.308000	23.763946	0.001069	20.798652
523.157001	-2.984400	3.763800	-11.231000	23.762036	0.001069	20.781091
524.157063	-3.007500	3.764100	-11.319000	23.766706	0.001070	20.804738
525.160048	-3.007300	3.764500	-11.319000	23.757067	0.001069	20.801712
526.157206	-2.998500	3.762800	-11.282000	23.779999	0.001071	20.776815
527.156576	-2.991300	3.762400	-11.254000	23.753309	0.001068	20.771392
528.156576	-3.012400	3.761200	-11.329000	23.746078	0.001071	20.776470
529.157580	-2.995400	3.762400	-11.269000	23.739122	0.001070	20.772340
530.157622	-2.993400	3.762500	-11.261000	23.738287	0.001069	20.774823
531.158259	-2.999100	3.761300	-11.279000	23.750446	0.001070	20.805505
532.158632	-2.993700	3.760600	-11.257000	23.760041	0.001069	20.780987
533.158794	-2.998100	3.761800	-11.278000	23.764324	0.001072	20.790022
534.162921	-2.978500	3.762000	-11.204000	23.768872	0.001070	20.792686
535.159432	-3.011100	3.758600	-11.316000	23.784031	0.001070	20.807410
536.159037	-3.026400	3.760700	-11.380000	23.785853	0.001071	20.789797
537.163031	-2.993500	3.760100	-11.255000	23.770772	0.001072	20.798858
538.159185	-2.991200	3.758400	-11.241000	23.740394	0.001069	20.799220
539.160292	-2.996800	3.759000	-11.264000	23.747255	0.001071	20.795194
540.164544	-3.004400	3.758800	-11.292000	23.745682	0.001070	20.797410
541.163542	-3.018600	3.759100	-11.345000	23.731675	0.001071	20.809445
542.162169	-2.992200	3.757100	-11.241000	23.737126	0.001074	20.787409
543.164252	-2.984500	3.759900	-11.219000	23.736730	0.001072	20.802660
544.165262	-3.004700	3.757100	-11.286000	23.737960	0.001070	20.791091
545.162261	-3.011400	3.757200	-11.313000	23.737831	0.001072	20.808505
546.164299	-3.005300	3.755600	-11.286000	23.771073	0.001072	20.793470
547.167749	-2.990600	3.755500	-11.230000	23.785913	0.001071	20.793651
548.163582	-2.993900	3.755200	-11.242000	23.776000	0.001072	20.793668
549.167756	-2.994100	3.756500	-11.247000	23.803995	0.001072	20.810358
550.165051	-3.012000	3.755500	-11.310000	23.779559	0.001073	20.784435
551.163727	-3.002900	3.755200	-11.275000	23.787787	0.001073	20.811651
552.168730	-3.037900	3.754300	-11.404000	23.810856	0.001071	20.803013
553.164610	-2.986400	3.755700	-11.216000	23.803041	0.001071	20.790909
554.164650	-3.001400	3.753700	-11.264000	23.762921	0.001072	20.809953
555.169165	-3.003500	3.755100	-11.278000	23.758364	0.001072	20.803013
556.165615	-2.998100	3.754400	-11.255000	23.756103	0.001073	20.782728
557.166920	-2.987800	3.754800	-11.218000	23.775019	0.001071	20.810229
558.169918	-2.968000	3.755800	-11.145000	23.754761	0.001073	20.802246
559.169211	-3.015800	3.754600	-11.322000	23.743738	0.001072	20.804470
560.170117	-2.996600	3.752700	-11.244000	23.746911	0.001073	20.791530
561.173660	-2.997500	3.753500	-11.250000	23.756902	0.001072	20.794435
562.171675	-3.017400	3.750700	-11.316000	23.740728	0.001071	20.813780
563.171677	-2.999300	3.751900	-11.252000	23.733256	0.001072	20.815772
564.171785	-2.987900	3.752000	-11.211000	23.775191	0.001073	20.817987
565.173307	-2.982800	3.752100	-11.191000	23.778346	0.001071	20.797918
566.175896	-3.035400	3.748500	-11.376000	23.806015	0.001070	20.801478
567.175263	-2.993900	3.751500	-11.231000	23.804570	0.001072	20.796710
568.176862	-3.000800	3.749900	-11.252000	23.823649	0.001073	20.794977
569.174922	-2.994100	3.750000	-11.226000	23.824363	0.001074	20.780994
570.173923	-3.007600	3.748200	-11.272000	23.837604	0.001073	20.820349
571.177798	-3.005000	3.749400	-11.266000	23.801845	0.001071	20.809624
572.174781	-2.996600	3.749000	-11.233000	23.820218	0.001073	20.778735
573.181663	-2.989100	3.750300	-11.210000	23.824087	0.001072	20.812960
574.179666	-3.009400	3.747800	-11.278000	23.809686	0.001071	20.795675
575.179663	-2.992400	3.748000	-11.215000	23.804939	0.001072	20.816521
576.176851	-2.983000	3.748000	-11.180000	23.846029	0.001072	20.810779
577.180243	-2.982600	3.749000	-11.180000	23.857404	0.001072	20.808434
578.177209	-2.989100	3.748200	-11.202000	23.861685	0.001072	20.811779
579.178634	-2.979800	3.748700	-11.170000	23.856673	0.001073	20.793477
580.177866	-3.004100	3.746900	-11.254000	23.889395	0.001071	20.816331
581.181400	-3.009200	3.746200	-11.271000	23.905171	0.001073	20.837365
582.183974	-3.010400	3.745700	-11.275000	23.922925	0.001072	20.817710
583.180899	-2.994500	3.745300	-11.214000	23.915367	0.001074	20.825779
584.180897	-2.998700	3.744500	-11.227000	23.929261	0.001073	20.811262
585.181273	-2.985300	3.745200	-11.179000	23.943712	0.001072	20.812477
586.182670	-2.999700	3.744400	-11.230000	23.963150	0.001070	20.820115
587.182701	-2.987200	3.744200	-11.183000	23.962995	0.001076	20.815693
588.181669	-3.014100	3.742700	-11.279000	23.983748	0.001071	20.824650
589.181912	-2.996100	3.744300	-11.218000	23.987006	0.001073	20.826494
590.184093	-3.005300	3.744600	-11.252000	23.975658	0.001072	20.799942
591.186092	-2.980300	3.743200	-11.154000	23.988949	0.001071	20.832710
592.186317	-3.017000	3.742500	-11.290000	23.987109	0.001071	20.828969
593.182334	-2.998000	3.742800	-11.220000	23.991442	0.001069	20.830943
594.187337	-2.985200	3.742400	-11.171000	23.995723	0.001071	20.810580
595.182837	-3.003000	3.740200	-11.231000	23.984280	0.001071	20.827555
596.184043	-3.004600	3.741400	-11.239000	24.000562	0.001074	20.814011
597.186098	-3.003400	3.741000	-11.234000	24.003898	0.001072	20.819727
598.182266	-3.013200	3.740800	-11.271000	24.000674	0.001072	20.825029
599.182489	-3.021700	3.739600	-11.298000	24.001929	0.001071	20.809218
600.184541	-3.013800	3.741400	-11.275000	24.013904	0.001074	20.835925
601.185487	-3.000800	3.741600	-11.227000	23.997958	0.001073	20.815667
602.185488	-2.990700	3.741200	-11.188000	23.970483	0.001071	20.844063
603.187623	-3.006800	3.740300	-11.245000	23.960476	0.001072	20.819330
604.186041	-2.990000	3.739600	-11.181000	23.962943	0.001072	20.822279
605.185039	-2.977200	3.741100	-11.137000	23.976844	0.001073	20.840486
606.185345	-2.982600	3.740400	-11.154000	23.963072	0.001072	20.833313
607.188399	-2.973800	3.738900	-11.118000	23.998903	0.001073	20.816141
608.186531	-2.995900	3.737300	-11.196000	24.007853	0.001072	20.835546
609.185980	-2.986100	3.737500	-11.160000	24.033702	0.001073	20.847245
610.185249	-3.019100	3.737400	-11.282000	24.046751	0.001074	20.839469
611.187510	-2.968800	3.739600	-11.101000	24.029421	0.001073	20.848167
612.188574	-3.000400	3.737200	-11.212000	24.024882	0.001072	20.828443
613.188762	-3.026200	3.735700	-11.303000	24.016252	0.001071	20.840650
614.191111	-2.970600	3.738400	-11.104000	24.037269	0.001072	20.848926
615.190112	-3.008000	3.736600	-11.238000	24.028819	0.001071	20.838555
616.190108	-3.018300	3.735000	-11.272000	24.011953	0.001071	20.848667
617.192342	-3.003600	3.734400	-11.217000	24.025742	0.001072	20.861546
618.189370	-3.009700	3.734200	-11.237000	24.034330	0.001071	20.827486
619.188773	-2.974700	3.735500	-11.110000	24.038843	0.001072	20.857141
620.193076	-3.002700	3.733900	-11.211000	24.032507	0.001071	20.834667
621.189353	-2.993300	3.734400	-11.176000	24.021710	0.001072	20.852288
622.198872	-2.975400	3.735900	-11.114000	24.032636	0.001071	20.834797
623.192913	-2.997900	3.734000	-11.194000	24.057033	0.001071	20.853098
624.189589	-3.001600	3.734100	-11.206000	24.084247	0.001073	20.832978
625.190789	-2.996200	3.732500	-11.183000	24.083276	0.001073	20.848598
626.191019	-2.989400	3.732600	-11.157000	24.055752	0.001072	20.866512
627.192054	-3.020800	3.730400	-11.267000	24.050001	0.001071	20.849365
628.194429	-3.005800	3.732500	-11.218000	24.051109	0.001070	20.851426
629.191432	-2.991100	3.731700	-11.160000	24.042247	0.001071	20.864348
630.199370	-2.986800	3.732500	-11.146000	24.059955	0.001071	20.848443
631.191893	-2.999500	3.729700	-11.186000	24.038155	0.001071	20.872572
632.192274	-2.986400	3.731800	-11.143000	24.054634	0.001071	20.850219
633.203890	-2.994500	3.730900	-11.169000	24.091786	0.001071	20.852866
634.193922	-2.995700	3.730100	-11.174000	24.094047	0.001071	20.867460
635.193061	-3.016500	3.729100	-11.246000	24.108797	0.001069	20.861866
636.194230	-3.023200	3.729900	-11.275000	24.121330	0.001072	20.866848
637.193263	-3.013300	3.729600	-11.238000	24.111531	0.001071	20.850383
638.192093	-2.990800	3.729900	-11.153000	24.104568	0.001068	20.850038
639.193315	-2.998500	3.729700	-11.183000	24.139715	0.001069	20.858262
640.192451	-3.004800	3.727900	-11.200000	24.145079	0.001070	20.875020
641.196678	-3.010800	3.728200	-11.222000	24.185709	0.001069	20.866460
642.193901	-3.007900	3.728300	-11.214000	24.172575	0.001069	20.858977
643.196857	-3.015100	3.727400	-11.238000	24.181239	0.001068	20.853443
644.195855	-3.012400	3.727100	-11.227000	24.167667	0.001070	20.864012
645.196939	-2.989300	3.727300	-11.141000	24.139586	0.001068	20.864296
646.198361	-2.988000	3.728100	-11.140000	24.160207	0.001070	20.860796
647.194762	-2.990800	3.726600	-11.145000	24.165458	0.001070	20.870805
648.194833	-2.999000	3.727100	-11.177000	24.171767	0.001070	20.873813
649.195455	-2.998600	3.726800	-11.175000	24.173289	0.001069	20.856848
650.195456	-2.977600	3.726700	-11.095000	24.143712	0.001069	20.876968
651.194725	-2.987600	3.724800	-11.128000	24.121648	0.001069	20.865745
652.195725	-3.006900	3.726100	-11.204000	24.131412	0.001069	20.878382
653.196296	-2.999100	3.724500	-11.169000	24.141005	0.001067	20.866667
654.198880	-2.993800	3.724200	-11.149000	24.158385	0.001068	20.875563
655.198513	-3.000300	3.725400	-11.175000	24.175352	0.001068	20.876460
656.201486	-3.003100	3.724400	-11.184000	24.178025	0.001069	20.882460
657.198911	-3.004000	3.724300	-11.187000	24.177973	0.001067	20.868659
658.199154	-3.001400	3.723200	-11.174000	24.204231	0.001067	20.876029
659.201106	-2.993800	3.723700	-11.147000	24.225031	0.001068	20.876503
660.203299	-2.997600	3.723400	-11.160000	24.216419	0.001068	20.860754
661.200025	-3.003300	3.723000	-11.180000	24.222298	0.001067	20.883719
662.204558	-3.014700	3.722800	-11.223000	24.205177	0.001068	20.888830
663.203078	-2.992700	3.721500	-11.136000	24.170401	0.001067	20.856323
664.200842	-2.995500	3.721400	-11.146000	24.173323	0.001067	20.873003
665.200845	-3.006400	3.721000	-11.186000	24.182031	0.001067	20.894537
666.202907	-2.977000	3.721600	-11.079000	24.157895	0.001066	20.883607
667.203529	-2.997600	3.721500	-11.154000	24.160259	0.001067	20.885977
668.203529	-2.992300	3.720600	-11.132000	24.194700	0.001068	20.889701
669.204603	-2.982400	3.720600	-11.094000	24.217416	0.001065	20.883089
670.203958	-2.995900	3.721100	-11.147000	24.247266	0.001066	20.907812
671.203975	-2.996300	3.720900	-11.146000	24.257459	0.001067	20.899071
672.203976	-3.002800	3.718000	-11.163000	24.255542	0.001065	20.890037
673.203659	-3.000100	3.717700	-11.152000	24.254365	0.001066	20.878426
674.203656	-2.985500	3.719600	-11.105000	24.258430	0.001065	20.886770
675.204731	-2.995000	3.719100	-11.138000	24.264678	0.001065	20.892563
676.204933	-2.988000	3.719500	-11.113000	24.266492	0.001064	20.919036
677.206079	-2.991800	3.717700	-11.122000	24.283346	0.001064	20.897537
678.206019	-3.009900	3.717300	-11.187000	24.266131	0.001065	20.895916
679.205830	-3.010100	3.718300	-11.191000	24.264291	0.001066	20.878900
680.204684	-3.002000	3.716800	-11.157000	24.247824	0.001065	20.887511
681.205903	-2.972600	3.718300	-11.051000	24.206750	0.001065	20.912217
682.206904	-3.012400	3.715600	-11.191000	24.194889	0.001064	20.888468
683.206904	-3.008200	3.716800	-11.180000	24.161969	0.001064	20.906657
684.208330	-2.996400	3.717100	-11.137000	24.133982	0.001065	20.924104
685.205545	-2.983200	3.716000	-11.084000	24.145741	0.001065	20.897020
686.207698	-2.983200	3.716300	-11.085000	24.156829	0.001063	20.903873
687.209745	-3.006200	3.713600	-11.163000	24.187514	0.001063	20.904303
688.208314	-3.014000	3.715500	-11.197000	24.199882	0.001064	20.907226
689.207314	-3.008400	3.713400	-11.171000	24.208013	0.001063	20.913010
690.210968	-2.999800	3.714700	-11.142000	24.212328	0.001063	20.896002
691.211968	-3.005700	3.713900	-11.161000	24.240313	0.001063	20.907476
692.211315	-2.992400	3.713300	-11.111000	24.201489	0.001062	20.914527
693.209529	-3.010000	3.712900	-11.175000	24.198120	0.001065	20.908777
694.211531	-3.010600	3.712100	-11.174000	24.192611	0.001062	20.923164
695.209861	-2.977000	3.712300	-11.050000	24.150563	0.001063	20.908967
696.209519	-2.985400	3.713300	-11.085000	24.159090	0.001062	20.910881
697.212520	-2.989600	3.712600	-11.098000	24.157525	0.001061	20.915001
698.211523	-2.990900	3.711600	-11.100000	24.183569	0.001060	20.923104
699.211565	-3.005400	3.712600	-11.157000	24.207403	0.001062	20.918087
700.220094	-2.989100	3.713000	-11.097000	24.216092	0.001060	20.914949
701.213094	-3.005300	3.710800	-11.151000	24.230325	0.001060	20.909786
702.213094	-3.003000	3.710800	-11.142000	24.258189	0.001061	20.929672
703.211579	-3.009300	3.711000	-11.166000	24.292008	0.001060	20.923293
704.211595	-2.996100	3.709300	-11.112000	24.283242	0.001062	20.913079
705.212110	-3.014600	3.709600	-11.182000	24.299983	0.001061	20.943145
706.213032	-3.004400	3.709400	-11.144000	24.265546	0.001061	20.911449
707.212421	-2.986400	3.708800	-11.076000	24.228546	0.001060	20.926491
708.215187	-3.009400	3.708100	-11.158000	24.227918	0.001062	20.927758
709.216552	-2.992600	3.707600	-11.094000	24.206594	0.001060	20.945722
710.212828	-2.977700	3.709000	-11.044000	24.219195	0.001062	20.957885
711.217198	-2.996500	3.710400	-11.117000	24.205572	0.001060	20.934266
712.213864	-2.997000	3.708200	-11.113000	24.211665	0.001057	20.940378
713.213295	-3.000300	3.708600	-11.126000	24.214923	0.001060	20.945067
714.217294	-2.996800	3.707000	-11.108000	24.213719	0.001059	20.922526
715.215236	-2.979000	3.707000	-11.042000	24.217235	0.001060	20.953075
716.215466	-3.012600	3.706900	-11.167000	24.235542	0.001058	20.932559
717.217843	-2.991000	3.707600	-11.088000	24.270083	0.001059	20.940179
718.215843	-3.000800	3.706900	-11.122000	24.265614	0.001057	20.961772
719.215846	-2.997400	3.706100	-11.108000	24.272275	0.001058	20.944748
720.215742	-3.014600	3.705900	-11.170000	24.298230	0.001057	20.951342
721.215497	-2.985600	3.707600	-11.069000	24.292085	0.001057	20.944705
722.224662	-2.997400	3.705400	-11.106000	24.314567	0.001056	20.957298
723.216782	-2.995500	3.704900	-11.097000	24.350808	0.001057	20.944343
724.221926	-3.025400	3.704400	-11.206000	24.363827	0.001055	20.937016
725.216319	-2.985900	3.705200	-11.062000	24.381719	0.001057	20.959229
726.217906	-2.991800	3.704600	-11.082000	24.370977	0.001056	20.931861
727.219296	-2.970000	3.705000	-11.003000	24.366930	0.001057	20.936335
728.217217	-2.999400	3.704100	-11.108000	24.342936	0.001055	20.953988
729.216798	-2.986600	3.703300	-11.059000	24.368597	0.001055	20.956496
730.220693	-3.014400	3.702700	-11.161000	24.394747	0.001056	20.956177
731.217243	-2.999200	3.702000	-11.101000	24.398193	0.001055	20.923129
732.217257	-3.027600	3.700400	-11.202000	24.384091	0.001056	20.941222
733.221685	-2.992600	3.701500	-11.075000	24.413369	0.001056	20.957315
734.220536	-2.989100	3.701700	-11.063000	24.399928	0.001057	20.968960
735.220639	-2.993600	3.702500	-11.083000	24.396861	0.001056	20.943127
736.222730	-3.007600	3.700100	-11.127000	24.397024	0.001054	20.956565
737.221949	-3.002200	3.701400	-11.110000	24.407525	0.001055	20.949557
738.220459	-2.989500	3.701700	-11.066000	24.415164	0.001055	20.955324
739.224625	-3.012600	3.699500	-11.144000	24.425502	0.001054	20.963323
740.222467	-3.034400	3.697800	-11.220000	24.432806	0.001054	20.952160
741.223463	-2.999800	3.699700	-11.098000	24.448987	0.001053	20.956539
742.224766	-2.995300	3.698700	-11.078000	24.438039	0.001054	20.958358
743.225491	-3.012100	3.699800	-11.144000	24.465322	0.001054	20.977192
744.223319	-3.000600	3.698500	-11.097000	24.455501	0.001053	20.964969
745.223810	-2.990500	3.697700	-11.057000	24.496308	0.001053	20.960866
746.224167	-3.001000	3.697200	-11.092000	24.487354	0.001051	20.984122
747.224166	-3.008700	3.698700	-11.127000	24.493919	0.001053	20.967477
748.225726	-3.012900	3.700500	-11.149000	24.520694	0.001053	20.952143
749.225801	-3.003000	3.698100	-11.105000	24.545508	0.001050	20.968029
750.225295	-2.995100	3.698300	-11.076000	24.534321	0.001052	20.973399
751.226293	-2.997100	3.698900	-11.084000	24.565743	0.001052	20.965573
752.228585	-2.969700	3.697800	-10.980000	24.559024	0.001051	20.992018
753.233027	-2.984500	3.697100	-11.033000	24.564471	0.001051	20.971882
754.228809	-2.998000	3.695300	-11.077000	24.553654	0.001051	20.975252
755.231715	-2.982800	3.697600	-11.027000	24.580719	0.001051	20.966374
756.228680	-2.990200	3.696100	-11.051000	24.570976	0.001053	20.962288
757.228683	-3.012300	3.694400	-11.128000	24.559402	0.001049	20.957315
758.232661	-3.011700	3.695900	-11.130000	24.516053	0.001051	20.961711
759.233659	-3.026500	3.694600	-11.180000	24.503526	0.001051	20.950091
760.229860	-3.004900	3.694500	-11.101000	24.446624	0.001048	20.957961
761.232374	-2.983300	3.696100	-11.025000	24.445713	0.001050	20.969374
762.231375	-2.999500	3.693700	-11.078000	24.415293	0.001048	20.949764
763.231374	-2.992200	3.694500	-11.054000	24.402197	0.001048	20.960332
764.234892	-2.998400	3.693500	-11.074000	24.361154	0.001050	20.937179
765.232890	-3.002100	3.692800	-11.085000	24.342832	0.001047	20.939661
766.233891	-2.990100	3.693800	-11.044000	24.342540	0.001047	20.955487
767.233891	-3.000300	3.691500	-11.075000	24.392529	0.001048	20.942575
768.236889	-2.984400	3.692500	-11.019000	24.375076	0.001050	20.940713
769.234890	-2.992000	3.692800	-11.047000	24.394549	0.001046	20.923740
770.233409	-2.991900	3.691900	-11.043000	24.420991	0.001048	20.936989
771.232408	-3.010200	3.689800	-11.107000	24.422881	0.001047	20.937463
772.233409	-2.995700	3.691700	-11.059000	24.440626	0.001047	20.930611
773.232409	-2.997000	3.690100	-11.058000	24.449743	0.001047	20.947816
774.233408	-2.980400	3.692100	-11.002000	24.460777	0.001046	20.933283
775.234410	-3.004800	3.690200	-11.087000	24.442938	0.001046	20.927714
776.233409	-3.011500	3.689900	-11.111000	24.460906	0.001044	20.931516
777.233408	-2.989300	3.690600	-11.030000	24.473778	0.001044	20.939687
778.233409	-2.999700	3.690100	-11.069000	24.459909	0.001045	20.926249
779.233408	-2.988000	3.689600	-11.024000	24.464240	0.001043	20.933438
780.236409	-3.009200	3.688700	-11.098000	24.468622	0.001044	20.930249
781.234415	-2.992400	3.688500	-11.035000	24.459196	0.001046	20.911310
782.234408	-2.983000	3.689200	-11.004000	24.468940	0.001043	20.934834
783.235410	-2.989300	3.687600	-11.022000	24.436751	0.001043	20.915818
784.235409	-2.996600	3.688700	-11.052000	24.433648	0.001045	20.903699
785.234411	-2.991400	3.688300	-11.032000	24.419109	0.001042	20.925145
786.235410	-2.984800	3.688200	-11.008000	24.432239	0.001042	20.934050
787.234410	-2.992000	3.688600	-11.035000	24.403323	0.001043	20.923059
788.237409	-2.997100	3.687200	-11.050000	24.400048	0.001043	20.917879
789.241413	-3.000200	3.686700	-11.060000	24.408943	0.001042	20.912577
790.235409	-2.990800	3.687300	-11.026000	24.406442	0.001043	20.929507
791.237410	-2.998800	3.685100	-11.050000	24.430658	0.001042	20.917293
792.237411	-2.976500	3.686600	-10.972000	24.466998	0.001041	20.913922
793.236407	-2.978800	3.687000	-10.982000	24.460562	0.001040	20.918370
794.239409	-3.008200	3.685100	-11.084000	24.498061	0.001040	20.899095
795.238412	-2.993200	3.686900	-11.034000	24.515409	0.001042	20.917448
796.237409	-3.014800	3.684500	-11.107000	24.536289	0.001040	20.909948
797.238410	-3.003700	3.684600	-11.067000	24.570211	0.001040	20.903207
798.240409	-3.019400	3.682900	-11.119000	24.567908	0.001039	20.926498
799.240410	-3.010400	3.683500	-11.087000	24.561000	0.001040	20.906293
800.238411	-3.030200	3.683400	-11.160000	24.564016	0.001040	20.911689
801.243410	-2.994100	3.683800	-11.027000	24.551531	0.001039	20.901535
802.241415	-3.009500	3.681600	-11.079000	24.566576	0.001039	20.908094
803.240409	-2.984500	3.684600	-10.995000	24.520023	0.001038	20.892682
804.240408	-2.989100	3.683000	-11.009000	24.506713	0.001039	20.903034
805.240408	-2.965900	3.684100	-10.925000	24.476896	0.001037	20.907258
806.241409	-2.960100	3.683000	-10.901000	24.488815	0.001036	20.890294
807.241410	-3.004400	3.682000	-11.061000	24.480600	0.001035	20.894380
808.244928	-3.009100	3.680600	-11.075000	24.502391	0.001038	20.899172
809.244930	-2.969100	3.682000	-10.931000	24.521106	0.001037	20.902302
810.244928	-2.996400	3.682900	-11.035000	24.529414	0.001037	20.893095
811.253440	-3.012000	3.680800	-11.086000	24.526338	0.001037	20.881949
812.248995	-3.018000	3.681200	-11.109000	24.569686	0.001037	20.898414
813.244507	-3.019000	3.680100	-11.110000	24.597851	0.001036	20.899172
814.245507	-3.007800	3.681300	-11.071000	24.568320	0.001037	20.893250
815.247512	-3.006900	3.679000	-11.061000	24.584258	0.001035	20.899284
816.248509	-2.996600	3.679600	-11.024000	24.565888	0.001035	20.893181
817.247509	-3.017600	3.678500	-11.099000	24.571138	0.001036	20.897026
818.245552	-3.006400	3.679100	-11.060000	24.581088	0.001035	20.898474
819.247642	-3.017100	3.678500	-11.097000	24.601717	0.001035	20.902103
820.247574	-3.010600	3.677600	-11.071000	24.616744	0.001034	20.889207
821.252578	-3.002800	3.677000	-11.040000	24.615902	0.001036	20.892155
822.248727	-3.039300	3.677600	-11.176000	24.603092	0.001034	20.894000
823.248606	-3.017000	3.676900	-11.092000	24.636110	0.001033	20.885880
824.248894	-3.011100	3.676800	-11.070000	24.636066	0.001033	20.881569
825.251894	-3.029900	3.675900	-11.136000	24.631831	0.001031	20.879216
826.248941	-3.014800	3.675600	-11.080000	24.643387	0.001032	20.868053
827.249039	-2.997500	3.676900	-11.020000	24.620679	0.001032	20.882251
828.252097	-3.014300	3.675800	-11.078000	24.620550	0.001032	20.879276
829.253094	-2.984400	3.676600	-10.971000	24.647914	0.001031	20.890612
830.250096	-3.000600	3.677000	-11.032000	24.630946	0.001033	20.883544
831.255123	-2.983200	3.675600	-10.965000	24.585804	0.001031	20.894198
832.252542	-2.993900	3.676700	-11.007000	24.561644	0.001033	20.887974
833.250541	-3.014000	3.675300	-11.076000	24.546444	0.001032	20.880311
834.253767	-3.019200	3.674700	-11.093000	24.583932	0.001032	20.889000
835.250766	-3.004100	3.674500	-11.037000	24.604801	0.001031	20.882914
836.249817	-2.983300	3.674400	-10.960000	24.616306	0.001031	20.876440
837.250547	-2.977700	3.675000	-10.942000	24.648283	0.001031	20.888138
838.251994	-2.978200	3.675100	-10.944000	24.638773	0.001029	20.880018
839.251801	-3.013700	3.672900	-11.067000	24.637037	0.001031	20.874958
840.251738	-2.998700	3.672100	-11.011000	24.650079	0.001031	20.860544
841.254739	-2.993700	3.673300	-10.996000	24.672554	0.001031	20.883569
842.252884	-3.009500	3.672600	-11.051000	24.685175	0.001030	20.884380
843.252880	-2.994600	3.672800	-10.997000	24.670690	0.001030	20.866527
844.254072	-3.017600	3.671400	-11.077000	24.624356	0.001028	20.878828
845.253074	-3.017900	3.672500	-11.081000	24.609123	0.001027	20.879664
846.252716	-3.007800	3.670900	-11.040000	24.599517	0.001027	20.876190
847.253713	-2.991600	3.671500	-10.982000	24.618394	0.001027	20.872846
848.253774	-3.000300	3.672500	-11.018000	24.607791	0.001030	20.855570
849.254163	-3.023200	3.671100	-11.098000	24.608075	0.001026	20.878139
850.253601	-3.011500	3.670700	-11.053000	24.646239	0.001025	20.896517
851.256778	-2.999600	3.671500	-11.012000	24.643936	0.001026	20.879983
852.258775	-3.017400	3.669300	-11.070000	24.627475	0.001025	20.873897
853.255025	-3.008600	3.669500	-11.038000	24.612139	0.001025	20.878423
854.259558	-3.027000	3.668000	-11.101000	24.612216	0.001025	20.874708
855.258803	-3.004600	3.670100	-11.025000	24.603942	0.001026	20.880156
856.261837	-2.995200	3.669200	-10.989000	24.594174	0.001025	20.875096
857.258435	-3.010600	3.668000	-11.042000	24.594629	0.001023	20.875079
858.260059	-3.012300	3.667900	-11.047000	24.621083	0.001022	20.862743
859.257079	-2.998100	3.669000	-10.999000	24.642854	0.001024	20.877949
860.259113	-2.992500	3.669600	-10.980000	24.642407	0.001025	20.868018
861.256551	-3.015800	3.667200	-11.059000	24.643370	0.001023	20.861872
862.256078	-3.010900	3.667300	-11.039000	24.633876	0.001022	20.886957
863.259288	-3.009300	3.667500	-11.034000	24.612027	0.001023	20.859346
864.255606	-3.016900	3.667400	-11.062000	24.577428	0.001021	20.909025
865.255941	-2.983500	3.668400	-10.943000	24.544494	0.001022	20.875036
866.259891	-3.004000	3.665900	-11.011000	24.528048	0.001020	20.869915
867.256937	-3.002500	3.665400	-11.004000	24.535283	0.001022	20.893768
868.258485	-3.012700	3.665900	-11.043000	24.530824	0.001020	20.860846
869.261525	-2.995100	3.665900	-10.978000	24.556085	0.001022	20.883820
870.258563	-3.012800	3.664900	-11.041000	24.597138	0.001020	20.883285
871.258559	-3.009000	3.663700	-11.023000	24.634701	0.001021	20.881148
872.258559	-2.980900	3.665800	-10.927000	24.658302	0.001021	20.865950
873.263559	-2.981600	3.666500	-10.931000	24.636651	0.001019	20.866036
874.261561	-3.011100	3.663300	-11.029000	24.641213	0.001022	20.871088
875.261271	-3.004500	3.664300	-11.008000	24.661901	0.001018	20.857234
876.262070	-3.005800	3.665000	-11.014000	24.657649	0.001018	20.871458
877.260539	-2.999800	3.663100	-10.988000	24.642657	0.001018	20.844562
878.261018	-2.990400	3.662600	-10.950000	24.620868	0.001016	20.852097
879.261020	-2.988300	3.663900	-10.948000	24.615688	0.001019	20.888622
880.261021	-3.000800	3.662100	-10.988000	24.625431	0.001018	20.882751
881.263019	-2.977900	3.662700	-10.906000	24.618471	0.001017	20.863441
882.264019	-2.992400	3.663800	-10.962000	24.619099	0.001015	20.861700
883.265533	-2.988300	3.662200	-10.942000	24.636480	0.001016	20.844528
884.262413	-2.996900	3.661600	-10.973000	24.640071	0.001015	20.853821
885.261412	-2.975900	3.662000	-10.897000	24.646738	0.001017	20.856243
886.268683	-3.010100	3.661200	-11.020000	24.658001	0.001015	20.873708
887.262885	-3.017000	3.660200	-11.042000	24.681258	0.001017	20.877131
888.263412	-2.964100	3.661000	-10.851000	24.694437	0.001015	20.872338
889.265086	-3.006000	3.660500	-11.003000	24.714720	0.001016	20.888898
890.262923	-3.013100	3.659300	-11.024000	24.748903	0.001016	20.848761
891.263747	-3.014300	3.659700	-11.030000	24.752915	0.001016	20.855631
892.263541	-3.000800	3.659000	-10.979000	24.767253	0.001014	20.869545
893.262871	-3.015700	3.657900	-11.030000	24.756532	0.001014	20.866847
894.262511	-2.999200	3.659300	-10.974000	24.774718	0.001014	20.858545
895.263840	-2.983300	3.660300	-10.919000	24.762855	0.001014	20.852330
896.265903	-2.990600	3.658800	-10.940000	24.788317	0.001014	20.878829
897.268495	-2.985700	3.659300	-10.924000	24.749307	0.001014	20.840632
898.263175	-2.995500	3.656700	-10.952000	24.757760	0.001012	20.856227
899.265333	-2.985800	3.657700	-10.919000	24.793145	0.001013	20.868028
900.264453	-2.995300	3.656800	-10.952000	24.810360	0.001011	20.867287
901.263621	-2.994600	3.655600	-10.947000	24.817893	0.001013	20.852089
902.265101	-2.988200	3.656000	-10.923000	24.834867	0.001012	20.855373
903.264173	-3.010400	3.657600	-11.009000	24.835005	0.001011	20.859304
904.263995	-3.008600	3.655500	-10.997000	24.816914	0.001015	20.855847
905.263282	-3.006100	3.655200	-10.987000	24.838698	0.001010	20.865856
906.264081	-3.002200	3.655200	-10.973000	24.819439	0.001010	20.853640
907.263602	-2.998100	3.655500	-10.958000	24.823632	0.001010	20.845046
908.263571	-2.996400	3.655100	-10.951000	24.826312	0.001011	20.848684
909.264570	-3.016000	3.653700	-11.017000	24.824920	0.001011	20.864356
910.266464	-3.012700	3.653200	-11.005000	24.774212	0.001010	20.864675
911.265596	-2.996200	3.655300	-10.951000	24.755759	0.001009	20.848529
912.267719	-3.030200	3.652000	-11.066000	24.758336	0.001011	20.866287
913.266189	-3.025400	3.653300	-11.052000	24.812980	0.001009	20.838623
914.265227	-2.995100	3.653300	-10.941000	24.803737	0.001009	20.865856
915.269242	-3.011000	3.653500	-11.000000	24.805274	0.001006	20.856968
916.264746	-3.000800	3.654100	-10.964000	24.793170	0.001009	20.852408
917.266166	-3.011400	3.651800	-10.996000	24.759444	0.001006	20.847011
918.270739	-2.991500	3.653300	-10.929000	24.769160	0.001009	20.861028
919.266774	-3.012900	3.651400	-10.999000	24.751738	0.001008	20.850657
920.267573	-2.998400	3.652700	-10.951000	24.787226	0.001005	20.846916
921.271572	-2.992100	3.651700	-10.925000	24.761557	0.001005	20.849606
922.268616	-2.995800	3.652800	-10.942000	24.774340	0.001004	20.848209
923.271947	-3.000800	3.651400	-10.956000	24.748757	0.001005	20.847666
924.267614	-3.019800	3.651200	-11.025000	24.748070	0.001002	20.830381
925.267829	-2.987000	3.650400	-10.903000	24.790911	0.001003	20.854881
926.267977	-2.984600	3.651600	-10.898000	24.776384	0.001002	20.851683
927.267657	-2.991900	3.649000	-10.917000	24.773343	0.001002	20.847683
928.269126	-3.006300	3.650400	-10.974000	24.771118	0.001001	20.844501
929.270387	-3.011300	3.649200	-10.987000	24.794630	0.001003	20.828743
930.277287	-3.012700	3.648300	-10.989000	24.777544	0.001001	20.847157
931.272546	-3.008700	3.648100	-10.975000	24.769159	0.001002	20.852018
932.275686	-2.996800	3.647900	-10.931000	24.739899	0.001000	20.852527
933.273414	-3.004800	3.650000	-10.966000	24.738327	0.001000	20.833880
934.273239	-3.014500	3.648000	-10.996000	24.775421	0.001000	20.844079
935.274294	-3.020300	3.646300	-11.012000	24.778101	0.001000	20.856725
936.274610	-3.021400	3.647500	-11.020000	24.809095	0.001002	20.834725
937.276301	-3.006200	3.647600	-10.964000	24.840397	0.000999	20.822044
938.274126	-3.009600	3.646800	-10.974000	24.831687	0.001000	20.847440
939.274926	-2.999400	3.648200	-10.941000	24.834247	0.000998	20.841475
940.278740	-3.007300	3.645800	-10.962000	24.850147	0.000997	20.811440
941.276399	-2.982400	3.647400	-10.877000	24.820829	0.000997	20.826587
942.274378	-3.001000	3.645700	-10.939000	24.844245	0.000997	20.823535
943.277369	-2.991100	3.646700	-10.907000	24.828560	0.000998	20.821069
944.274653	-3.013800	3.644900	-10.984000	24.795900	0.000999	20.841871
945.280953	-3.000200	3.645800	-10.937000	24.750001	0.000995	20.820940
946.275209	-3.009300	3.645600	-10.970000	24.703825	0.000995	20.831026
947.277367	-2.989200	3.645200	-10.895000	24.731161	0.000995	20.833802
948.276170	-2.995800	3.644500	-10.917000	24.727098	0.000995	20.832569
949.275061	-2.996700	3.644900	-10.921000	24.737999	0.000994	20.823121
950.275999	-2.970700	3.646100	-10.830000	24.787215	0.000994	20.829836
951.276718	-3.010300	3.643700	-10.968000	24.800762	0.000995	20.829681
952.277006	-2.999300	3.643600	-10.927000	24.833748	0.000994	20.832440
953.281518	-2.998900	3.641600	-10.920000	24.857482	0.000994	20.816905
954.280158	-2.994400	3.643100	-10.907000	24.863503	0.000993	20.819629
955.279346	-3.035500	3.641000	-11.050000	24.884634	0.000993	20.823293
956.280752	-3.015800	3.640800	-10.979000	24.902921	0.000991	20.824103
957.279786	-3.007000	3.641100	-10.948000	24.916836	0.000992	20.806775
958.279011	-2.998100	3.641800	-10.918000	24.927289	0.000993	20.810629
959.282173	-3.002900	3.641300	-10.933000	24.922616	0.000990	20.826327
960.278597	-2.992300	3.642400	-10.898000	24.905687	0.000993	20.819293
961.279970	-2.964800	3.641100	-10.794000	24.896461	0.000991	20.810034
962.285009	-2.998800	3.640300	-10.916000	24.872419	0.000990	20.813405
963.279633	-3.004300	3.641500	-10.940000	24.868777	0.000989	20.849103
964.278476	-3.014200	3.640000	-10.969000	24.868537	0.000989	20.807611
965.281590	-2.983400	3.640700	-10.861000	24.892210	0.000990	20.839905
966.283155	-2.973400	3.641200	-10.826000	24.841925	0.000990	20.829741
967.278961	-3.003800	3.639700	-10.932000	24.833945	0.000990	20.802766
968.280891	-3.022100	3.638000	-10.993000	24.805443	0.000987	20.813991
969.284085	-2.986700	3.640500	-10.872000	24.794035	0.000988	20.802068
970.282033	-3.028600	3.637700	-11.016000	24.797128	0.000988	20.820818
971.281795	-2.994100	3.637900	-10.891000	24.809669	0.000987	20.806853
972.285459	-2.982000	3.640200	-10.854000	24.801672	0.000988	20.805939
973.280653	-3.005200	3.637700	-10.931000	24.817151	0.000988	20.804879
974.280020	-3.001000	3.637400	-10.915000	24.821515	0.000987	20.822060
975.284602	-3.005000	3.638000	-10.931000	24.864671	0.000987	20.798516
976.283891	-3.001600	3.637800	-10.918000	24.833739	0.000984	20.820577
977.283753	-3.015600	3.636700	-10.966000	24.822116	0.000987	20.787102
978.289661	-3.005200	3.635500	-10.924000	24.795925	0.000984	20.785947
979.284527	-2.996900	3.636900	-10.899000	24.812461	0.000984	20.830043
980.282773	-2.989000	3.637000	-10.870000	24.819264	0.000984	20.792775
981.287838	-3.009500	3.636600	-10.943000	24.852628	0.000985	20.794964
982.287655	-3.011500	3.633800	-10.942000	24.863125	0.000985	20.810715
983.285382	-3.024600	3.633500	-10.988000	24.869533	0.000985	20.792490
984.288728	-3.005200	3.635100	-10.923000	24.902654	0.000982	20.786852
985.285531	-3.013800	3.634200	-10.953000	24.879900	0.000982	20.810956
986.286035	-2.990900	3.633700	-10.867000	24.905497	0.000982	20.795869
987.289065	-3.012900	3.633500	-10.946000	24.948985	0.000982	20.778826
988.285197	-3.031800	3.632900	-11.013000	24.933206	0.000981	20.807085
989.285226	-2.998400	3.632400	-10.890000	24.957213	0.000980	20.800835
990.288509	-3.003900	3.632400	-10.910000	24.983538	0.000982	20.789326
991.286091	-2.991900	3.634800	-10.874000	24.959266	0.000981	20.812378
992.286523	-2.993600	3.633100	-10.874000	24.945935	0.000979	20.816068
993.289461	-3.033800	3.631700	-11.016000	24.933764	0.000981	20.808120
994.286259	-2.982700	3.633400	-10.836000	24.899802	0.000980	20.809594
995.287410	-3.001700	3.631600	-10.900000	24.907043	0.000979	20.809275
996.292944	-2.995200	3.631900	-10.877000	24.912961	0.000978	20.793404
997.287204	-3.014700	3.631700	-10.947000	24.898402	0.000979	20.785429
998.287186	-3.005700	3.631400	-10.913000	24.914782	0.000977	20.781006
999.291692	-2.992800	3.630800	-10.865000	24.898771	0.000979	20.798602
1000.286475	-2.996600	3.629700	-10.875000	24.927125	0.000976	20.810938
1001.288613	-2.988200	3.631700	-10.851000	24.918183	0.000977	20.788214
1002.290702	-2.975000	3.631400	-10.801000	24.955976	0.000975	20.780153
1003.286132	-3.000900	3.629400	-10.890000	24.968868	0.000975	20.810162
1004.286168	-2.984200	3.628800	-10.828000	24.966351	0.000975	20.790093
1005.287760	-2.990800	3.628700	-10.851000	24.920425	0.000976	20.788093
1006.287436	-3.006300	3.628200	-10.906000	24.908494	0.000975	20.788446
1007.287882	-2.995000	3.628600	-10.867000	24.922358	0.000976	20.783394
1008.287148	-3.002200	3.628000	-10.890000	24.919369	0.000974	20.778023
1009.289190	-2.978400	3.628600	-10.806000	24.945231	0.000974	20.776954
1010.288540	-3.007400	3.628900	-10.913000	24.911818	0.000975	20.788463
1011.287825	-2.985800	3.626500	-10.826000	24.882803	0.000973	20.773092
1012.289710	-2.997600	3.626100	-10.869000	24.873638	0.000973	20.789498
1013.288934	-3.016200	3.626400	-10.936000	24.864644	0.000974	20.778101
1014.290474	-2.997100	3.628000	-10.873000	24.865409	0.000973	20.782187
1015.289190	-3.022300	3.625300	-10.954000	24.875442	0.000971	20.799369
1016.287272	-3.019300	3.625400	-10.944000	24.879625	0.000970	20.775592
1017.289021	-3.007700	3.624900	-10.900000	24.873217	0.000973	20.771057
1018.289454	-2.994900	3.626500	-10.859000	24.900678	0.000971	20.784394
1019.288793	-3.018900	3.623900	-10.939000	24.916749	0.000970	20.786300
1020.291502	-3.005100	3.624600	-10.892000	24.912892	0.000970	20.771997
1021.291739	-2.990700	3.624600	-10.840000	24.935877	0.000972	20.788429
1022.290647	-3.006700	3.625500	-10.900000	24.931282	0.000969	20.784291
1023.291517	-2.991600	3.624600	-10.843000	24.946760	0.000968	20.769954
1024.293332	-2.984200	3.624300	-10.814000	24.911252	0.000969	20.776515
1025.293087	-2.995900	3.625000	-10.858000	24.883155	0.000967	20.772023
1026.293375	-2.988900	3.624000	-10.831000	24.862944	0.000967	20.780661
1027.293357	-2.993700	3.622100	-10.841000	24.883001	0.000964	20.774239
1028.293992	-3.004700	3.622300	-10.882000	24.889778	0.000965	20.797162
1029.293358	-2.998900	3.622500	-10.862000	24.897861	0.000966	20.784886
1030.295898	-2.988100	3.623400	-10.826000	24.952772	0.000964	20.780256
1031.297885	-3.029800	3.620900	-10.969000	24.951432	0.000965	20.781756
1032.298963	-3.005000	3.620500	-10.878000	24.943642	0.000966	20.765876
1033.293289	-2.989300	3.620500	-10.822000	24.936238	0.000964	20.786895
1034.301115	-2.977000	3.621900	-10.781000	24.911123	0.000963	20.778282
1035.294977	-2.994500	3.620300	-10.840000	24.904887	0.000962	20.774394
1036.298496	-3.018600	3.619000	-10.923000	24.914284	0.000963	20.783351
1037.296850	-3.016100	3.620400	-10.919000	24.930320	0.000962	20.797076
1038.303449	-3.029400	3.618700	-10.961000	24.972235	0.000962	20.782248
1039.299917	-3.017500	3.619200	-10.920000	24.963577	0.000961	20.781144
1040.297021	-2.988800	3.619600	-10.817000	24.965450	0.000962	20.778756
1041.297461	-2.974200	3.620900	-10.768000	24.941778	0.000961	20.787714
1042.298728	-2.980700	3.618900	-10.786000	24.963174	0.000960	20.792593
1043.299547	-2.989200	3.619600	-10.818000	24.941503	0.000962	20.780800
1044.299323	-3.015700	3.618200	-10.910000	24.959326	0.000959	20.761230
1045.298599	-2.990100	3.618800	-10.821000	24.925837	0.000961	20.786412
1046.301462	-3.030100	3.617200	-10.959000	24.920331	0.000958	20.790369
1047.301765	-2.998300	3.618100	-10.847000	24.929676	0.000958	20.779360
1048.303215	-3.007900	3.616500	-10.877000	24.943281	0.000958	20.791593
1049.300721	-3.018100	3.616800	-10.915000	24.974906	0.000958	20.795835
1050.299553	-3.000700	3.615500	-10.848000	24.973678	0.000956	20.794602
1051.298617	-2.999300	3.617400	-10.849000	24.948572	0.000957	20.795956
1052.301011	-3.009300	3.615600	-10.879000	24.947258	0.000956	20.789421
1053.298731	-2.998500	3.614000	-10.834000	24.937561	0.000957	20.788697
1054.299340	-2.986700	3.615600	-10.797000	24.921474	0.000956	20.786300
1055.300705	-3.002400	3.614700	-10.851000	24.911871	0.000956	20.783300
1056.299830	-3.016800	3.613500	-10.900000	24.938309	0.000955	20.780912
1057.301973	-3.019300	3.614500	-10.912000	24.987790	0.000955	20.770834
1058.298199	-3.006100	3.613500	-10.861000	25.019345	0.000953	20.802034
1059.301434	-3.006000	3.614300	-10.864000	25.019001	0.000955	20.779878
1060.300220	-3.000400	3.612500	-10.837000	25.008489	0.000953	20.784025
1061.300311	-3.009600	3.613000	-10.873000	24.981512	0.000952	20.811474
1062.302881	-2.997500	3.611900	-10.825000	24.969668	0.000952	20.786310
1063.303155	-2.999400	3.612300	-10.832000	24.956046	0.000953	20.793025
1064.301524	-2.998200	3.613200	-10.832000	24.959962	0.000952	20.799327
1065.306057	-2.991900	3.612300	-10.807000	24.934212	0.000949	20.795293
1066.305636	-3.011100	3.611200	-10.873000	24.948745	0.000951	20.800871
1067.303770	-3.007600	3.610500	-10.859000	24.956750	0.000949	20.788991
1068.305679	-3.017500	3.610900	-10.895000	24.974753	0.000950	20.795207
1069.305733	-2.989700	3.610500	-10.793000	24.986202	0.000949	20.784888
1070.304129	-2.996400	3.610400	-10.817000	25.030193	0.000950	20.784000
1071.307262	-3.005800	3.610700	-10.851000	25.050488	0.000948	20.784931
1072.304186	-2.984900	3.611700	-10.779000	25.026449	0.000949	20.805371
1073.304165	-2.999000	3.609800	-10.825000	25.000580	0.000946	20.787940
1074.306108	-2.997600	3.609800	-10.820000	24.974006	0.000947	20.792087
1075.305853	-3.008100	3.608400	-10.853000	24.951907	0.000948	20.805941
1076.303890	-2.995700	3.609900	-10.814000	24.944563	0.000947	20.800466
1077.306338	-2.987800	3.610100	-10.784000	24.944778	0.000944	20.799259
1078.305709	-2.993700	3.609100	-10.803000	24.963863	0.000946	20.781905
1079.305473	-3.003400	3.607800	-10.834000	24.998940	0.000942	20.803838
1080.306886	-2.988100	3.608200	-10.780000	25.015585	0.000945	20.781665
1081.307538	-2.995600	3.608800	-10.809000	25.043850	0.000945	20.799605
1082.307644	-2.989400	3.608200	-10.785000	25.060442	0.000944	20.788760
1083.309163	-3.016500	3.606700	-10.879000	25.079611	0.000943	20.807054
1084.310031	-3.006500	3.606800	-10.843000	25.084326	0.000942	20.802303
1085.308468	-3.005100	3.605300	-10.833000	25.086413	0.000941	20.802028
1086.311721	-3.018600	3.605100	-10.881000	25.080333	0.000942	20.802563
1087.309765	-2.985300	3.605700	-10.763000	25.063183	0.000942	20.799097
1088.314051	-2.993700	3.607000	-10.797000	25.047363	0.000941	20.805977
1089.310730	-2.987300	3.605000	-10.767000	25.028452	0.000941	20.800744
1090.318680	-3.009800	3.605000	-10.849000	25.060401	0.000939	20.796305
1091.313743	-2.997900	3.604800	-10.807000	25.082112	0.000940	20.807667
1092.312170	-3.002800	3.604100	-10.821000	25.097888	0.000939	20.784624
1093.315536	-2.992900	3.603900	-10.784000	25.118989	0.000940	20.793952
1094.312797	-3.019500	3.603000	-10.878000	25.113536	0.000939	20.815504
1095.312513	-3.016800	3.603400	-10.870000	25.110822	0.000937	20.796659
1096.316304	-3.004900	3.603600	-10.828000	25.087163	0.000938	20.816056
1097.314937	-2.982700	3.603700	-10.747000	25.047469	0.000937	20.806556
1098.313422	-3.000100	3.602800	-10.807000	25.043999	0.000936	20.819669
1099.316698	-2.993800	3.601700	-10.781000	25.073585	0.000938	20.798634
1100.318073	-2.993200	3.601600	-10.779000	25.078816	0.000935	20.814316
1101.316292	-3.008300	3.602100	-10.835000	25.080242	0.000936	20.802945
1102.317022	-2.979500	3.602300	-10.732000	25.099668	0.000934	20.820549
1103.314508	-2.986900	3.601500	-10.757000	25.145072	0.000933	20.812075
1104.315284	-3.023800	3.600200	-10.886000	25.186978	0.000933	20.829015
1105.315678	-3.014200	3.599600	-10.849000	25.184909	0.000935	20.804178
1106.320056	-2.993600	3.599600	-10.774000	25.216329	0.000931	20.822921
1107.318490	-3.017400	3.597600	-10.855000	25.230867	0.000932	20.826610
1108.315778	-2.985900	3.600600	-10.750000	25.240648	0.000932	20.797550
1109.318619	-2.974700	3.601400	-10.712000	25.251716	0.000931	20.819094
1110.318702	-3.010800	3.598100	-10.832000	25.288029	0.000930	20.818094
1111.317685	-2.982600	3.599000	-10.733000	25.267422	0.000930	20.822534
1112.320474	-3.003100	3.597900	-10.803000	25.211118	0.000930	20.827172
1113.322301	-2.994900	3.598300	-10.777000	25.186053	0.000928	20.828086
1114.319372	-2.998200	3.597100	-10.785000	25.165718	0.000930	20.811940
1115.321562	-2.998700	3.596200	-10.782000	25.134297	0.000928	20.815957
1116.325439	-3.012100	3.597700	-10.835000	25.128638	0.000928	20.819285
1117.320458	-2.990100	3.596300	-10.751000	25.142387	0.000927	20.812225
1118.322047	-2.981500	3.596700	-10.722000	25.138592	0.000928	20.816949
1119.326993	-2.997400	3.594500	-10.772000	25.163719	0.000927	20.826054
1120.321585	-2.994400	3.595200	-10.763000	25.175347	0.000926	20.818286
1121.321191	-2.996400	3.596000	-10.774000	25.174016	0.000925	20.831649
1122.324617	-3.005300	3.596000	-10.805000	25.167576	0.000925	20.830873
1123.323377	-3.021700	3.595300	-10.863000	25.173175	0.000923	20.831279
1124.324624	-3.010500	3.594500	-10.820000	25.202827	0.000922	20.833546
1125.323136	-2.991200	3.593100	-10.746000	25.206305	0.000924	20.819969
1126.324187	-2.963800	3.594100	-10.652000	25.237227	0.000924	20.824461
1127.325235	-3.013400	3.592000	-10.822000	25.265383	0.000923	20.832815
1128.325970	-2.997200	3.592400	-10.766000	25.272425	0.000922	20.825660
1129.325880	-3.001600	3.592500	-10.783000	25.270064	0.000921	20.846996
1130.324353	-3.006300	3.592100	-10.798000	25.288483	0.000920	20.819023
1131.325824	-3.011800	3.592700	-10.820000	25.253699	0.000919	20.834360
1132.326359	-2.996200	3.594300	-10.768000	25.233975	0.000919	20.830205
1133.325021	-3.015500	3.592200	-10.831000	25.187099	0.000917	20.825344
1134.327121	-3.030200	3.589700	-10.875000	25.170398	0.000920	20.843189
1135.326820	-2.987400	3.591500	-10.728000	25.163374	0.000917	20.832345
1136.327200	-3.005800	3.591500	-10.794000	25.165650	0.000919	20.837475
1137.327790	-3.013900	3.591000	-10.822000	25.176857	0.000918	20.827863
1138.328859	-2.991600	3.592000	-10.745000	25.162886	0.000917	20.844657
1139.327883	-3.012700	3.590400	-10.816000	25.168408	0.000915	20.819381
1140.327158	-3.001500	3.589500	-10.772000	25.132633	0.000916	20.835624
1141.328388	-3.009400	3.589700	-10.802000	25.152136	0.000915	20.823434
1142.329068	-3.009200	3.588100	-10.796000	25.189165	0.000914	20.829788
1143.328070	-2.967400	3.589900	-10.650000	25.187474	0.000915	20.831409
1144.328742	-2.993500	3.589200	-10.744000	25.236944	0.000915	20.828919
1145.331019	-2.987800	3.588700	-10.720000	25.218766	0.000915	20.823945
1146.329317	-3.001400	3.586900	-10.764000	25.234180	0.000914	20.844635
1147.329983	-3.014100	3.586800	-10.809000	25.221567	0.000912	20.833868
1148.330279	-2.980400	3.588800	-10.695000	25.259238	0.000915	20.846559
1149.333378	-3.022000	3.586600	-10.837000	25.237394	0.000912	20.840749
1150.330065	-3.005500	3.586100	-10.777000	25.293044	0.000913	20.845413
1151.331540	-3.032100	3.585100	-10.868000	25.295526	0.000910	20.864500
1152.332441	-3.017000	3.585800	-10.818000	25.304328	0.000912	20.855794
1153.331057	-2.979400	3.588000	-10.689000	25.293209	0.000911	20.837993
1154.333082	-3.014800	3.585700	-10.809000	25.291072	0.000911	20.868562
1155.332818	-3.008800	3.584300	-10.784000	25.286908	0.000910	20.837356
1156.338028	-3.019300	3.583100	-10.817000	25.278339	0.000908	20.855779
1157.334435	-3.011300	3.584600	-10.793000	25.290000	0.000909	20.849943
1158.336821	-3.019300	3.583800	-10.818000	25.308908	0.000908	20.849488
1159.334946	-3.008000	3.584300	-10.781000	25.283098	0.000907	20.839695
1160.335399	-3.012600	3.583700	-10.794000	25.270520	0.000909	20.856937
1161.336852	-3.001400	3.584600	-10.757000	25.269087	0.000906	20.844119
1162.335349	-3.000100	3.582400	-10.747000	25.256001	0.000906	20.884084
1163.335371	-2.984600	3.583000	-10.692000	25.251468	0.000908	20.849663
1164.340790	-2.999000	3.582200	-10.742000	25.298952	0.000904	20.843759
1165.338544	-3.000800	3.581000	-10.745000	25.303607	0.000903	20.866449
1166.336021	-2.989900	3.584000	-10.715000	25.254810	0.000904	20.862501
1167.340274	-2.985100	3.583000	-10.694000	25.253618	0.000904	20.841864
1168.338648	-3.016000	3.582100	-10.803000	25.267451	0.000903	20.851960
1169.337173	-2.996000	3.580700	-10.726000	25.294809	0.000904	20.854771
1170.341668	-3.017900	3.580000	-10.803000	25.325282	0.000902	20.854548
1171.336049	-3.004600	3.580500	-10.757000	25.322063	0.000903	20.883082
1172.338139	-2.984800	3.581400	-10.689000	25.338661	0.000901	20.854231
1173.336336	-2.997000	3.578400	-10.723000	25.359998	0.000901	20.856688
1174.337543	-2.984700	3.579200	-10.682000	25.388083	0.000901	20.871137
1175.337297	-2.992100	3.578800	-10.707000	25.345971	0.000900	20.870104
1176.336337	-2.991400	3.580000	-10.708000	25.348367	0.000898	20.869191
1177.338051	-3.000400	3.577800	-10.732000	25.365180	0.000899	20.858098
1178.336577	-2.994300	3.578900	-10.715000	25.362931	0.000898	20.868642
1179.337340	-2.993500	3.577800	-10.708000	25.369329	0.000898	20.837609
1180.338567	-3.025200	3.575100	-10.814000	25.361140	0.000899	20.859731
1181.341418	-2.998500	3.576600	-10.724000	25.369649	0.000895	20.861163
1182.339462	-2.999300	3.577200	-10.729000	25.319509	0.000898	20.873406
1183.340214	-2.996200	3.576800	-10.716000	25.311361	0.000896	20.882768
1184.339702	-2.994100	3.577600	-10.710000	25.292731	0.000897	20.848418
1185.339384	-2.977500	3.578100	-10.653000	25.337484	0.000895	20.865850
1186.341831	-3.001500	3.577700	-10.737000	25.342868	0.000894	20.876471
1187.339987	-2.990000	3.575900	-10.689000	25.361270	0.000894	20.864130
1188.342190	-3.012700	3.574600	-10.767000	25.374055	0.000893	20.875070
1189.344272	-2.995000	3.576100	-10.709000	25.378427	0.000895	20.862391
1190.341270	-3.007400	3.573300	-10.744000	25.417629	0.000891	20.873305
1191.342875	-2.990000	3.573600	-10.684000	25.387006	0.000892	20.877642
1192.343109	-2.988800	3.575000	-10.684000	25.379238	0.000890	20.878851
1193.342701	-2.985300	3.573600	-10.667000	25.357561	0.000888	20.871784
1194.341323	-3.013500	3.572000	-10.763000	25.373128	0.000889	20.876983
1195.341330	-3.018300	3.571900	-10.779000	25.405411	0.000890	20.876683
1196.344083	-3.026000	3.571200	-10.804000	25.422936	0.000888	20.872470
1197.346849	-3.004600	3.572000	-10.731000	25.430080	0.000888	20.879643
1198.342906	-2.977400	3.572400	-10.635000	25.390229	0.000888	20.874240
1199.347920	-2.993900	3.572200	-10.694000	25.360781	0.000887	20.866009
1200.345454	-3.009200	3.569600	-10.739000	25.350446	0.000888	20.882657
1201.346151	-3.007300	3.571200	-10.739000	25.326218	0.000885	20.896261
1202.348234	-3.023100	3.569600	-10.790000	25.310730	0.000886	20.871230
1203.345593	-2.977100	3.572700	-10.635000	25.343522	0.000883	20.873810
1204.346025	-3.007400	3.570200	-10.736000	25.348367	0.000884	20.871087
1205.345442	-3.000300	3.568900	-10.707000	25.373629	0.000884	20.869426
1206.350720	-3.001900	3.570800	-10.719000	25.362134	0.000883	20.885384
1207.346162	-3.020500	3.569000	-10.778000	25.390245	0.000881	20.903652
1208.345765	-3.004100	3.569800	-10.723000	25.382822	0.000883	20.886716
1209.348046	-2.990200	3.570000	-10.675000	25.391469	0.000882	20.879278
1210.347837	-2.983700	3.570400	-10.652000	25.419804	0.000882	20.895876
1211.351092	-2.983100	3.569400	-10.647000	25.405365	0.000880	20.903661
1212.348753	-2.998700	3.568200	-10.699000	25.377852	0.000882	20.883148
1213.348658	-2.997600	3.568800	-10.697000	25.347382	0.000880	20.901390
1214.349757	-3.015800	3.567100	-10.755000	25.353550	0.000880	20.893360
1215.350502	-3.014300	3.564700	-10.745000	25.336251	0.000879	20.881681
1216.351268	-2.983500	3.567200	-10.641000	25.311878	0.000879	20.887080
1217.349175	-2.989700	3.566500	-10.662000	25.310988	0.000877	20.897565
1218.351169	-2.998700	3.564600	-10.688000	25.360447	0.000879	20.898388
1219.352955	-3.009500	3.565500	-10.730000	25.388009	0.000877	20.887183
1220.350616	-3.008900	3.564500	-10.723000	25.386063	0.000876	20.905142
1221.352392	-3.007400	3.564900	-10.720000	25.429688	0.000875	20.902955
1222.354108	-3.017500	3.563000	-10.750000	25.426669	0.000875	20.905139
1223.353184	-2.973800	3.566700	-10.606000	25.435670	0.000877	20.886204
1224.352392	-2.973600	3.565900	-10.602000	25.403882	0.000875	20.897431
1225.354053	-2.977900	3.565600	-10.616000	25.407705	0.000873	20.922130
1226.352234	-2.985100	3.564700	-10.640000	25.411615	0.000874	20.881489
1227.353547	-3.006600	3.564000	-10.715000	25.380083	0.000873	20.896768
1228.354582	-3.002200	3.562700	-10.695000	25.405740	0.000874	20.895030
1229.353946	-3.023900	3.562700	-10.772000	25.427774	0.000872	20.892024
1230.355174	-2.992400	3.562600	-10.660000	25.443755	0.000873	20.881046
1231.353559	-2.988200	3.563700	-10.648000	25.449733	0.000874	20.893212
1232.354506	-3.004600	3.562300	-10.703000	25.451831	0.000872	20.884414
1233.357039	-2.987900	3.561300	-10.640000	25.442725	0.000872	20.904666
1234.359044	-2.992500	3.560200	-10.654000	25.417015	0.000871	20.907299
1235.359253	-3.034000	3.559000	-10.796000	25.405677	0.000872	20.903500
1236.362058	-3.020700	3.558700	-10.748000	25.369998	0.000869	20.905607
1237.355694	-2.974400	3.561100	-10.591000	25.397545	0.000869	20.904343
1238.359708	-2.999400	3.560600	-10.678000	25.419311	0.000869	20.881631
1239.360122	-3.019600	3.559800	-10.748000	25.419331	0.000867	20.903935
1240.356186	-3.000700	3.559700	-10.681000	25.407023	0.000868	20.893473
1241.356357	-3.013500	3.558100	-10.722000	25.426721	0.000865	20.905665
1242.355862	-3.027500	3.557700	-10.770000	25.443431	0.000865	20.917702
1243.356325	-3.011700	3.558200	-10.716000	25.454871	0.000864	20.905957
1244.358406	-2.986300	3.559300	-10.628000	25.452109	0.000864	20.898917
1245.358198	-2.980000	3.557900	-10.601000	25.449383	0.000863	20.901395
1246.357418	-2.985900	3.557300	-10.621000	25.441581	0.000863	20.919637
1247.357739	-2.987000	3.556500	-10.622000	25.425582	0.000864	20.919219
1248.362232	-2.993900	3.557200	-10.648000	25.455196	0.000865	20.907706
1249.357550	-2.999500	3.557100	-10.669000	25.477470	0.000863	20.908262
1250.357376	-3.022900	3.555600	-10.747000	25.470982	0.000862	20.914075
1251.360718	-3.017700	3.555500	-10.728000	25.429743	0.000862	20.912492
1252.360466	-3.004100	3.554800	-10.678000	25.428357	0.000863	20.919634
1253.359075	-2.982600	3.554500	-10.600000	25.432447	0.000860	20.893872
1254.362227	-2.994400	3.554200	-10.642000	25.424378	0.000860	20.893831
1255.361332	-2.963400	3.555500	-10.535000	25.428658	0.000860	20.918989
1256.363652	-2.982600	3.555700	-10.604000	25.452760	0.000858	20.920906
1257.363106	-3.001700	3.555300	-10.670000	25.469137	0.000859	20.928816
1258.363361	-2.983200	3.554300	-10.602000	25.494526	0.000859	20.937715
1259.361697	-3.003800	3.553200	-10.673000	25.520997	0.000856	20.923997
1260.363573	-2.995700	3.554100	-10.646000	25.527895	0.000855	20.917174
1261.363991	-3.003200	3.552700	-10.667000	25.564424	0.000855	20.918297
1262.363223	-3.009300	3.553900	-10.693000	25.585613	0.000856	20.907336
1263.362842	-2.997300	3.553600	-10.649000	25.589739	0.000855	20.907686
1264.363498	-2.990100	3.552100	-10.619000	25.592325	0.000854	20.914076
1265.366201	-2.986000	3.553500	-10.610000	25.650718	0.000855	20.915823
1266.362243	-2.986100	3.552700	-10.607000	25.649373	0.000856	20.883181
1267.364734	-2.992600	3.551700	-10.627000	25.658620	0.000854	20.928974
1268.362561	-3.002100	3.552000	-10.661000	25.659621	0.000853	20.920971
1269.363570	-3.005800	3.550300	-10.670000	25.645719	0.000854	20.907485
1270.366111	-2.999300	3.549500	-10.645000	25.656557	0.000852	20.896086
1271.364434	-3.020200	3.549300	-10.718000	25.669109	0.000850	20.889726
1272.367065	-2.998000	3.549000	-10.639000	25.662633	0.000848	20.895550
1273.368114	-2.990300	3.549700	-10.614000	25.646028	0.000850	20.906372
1274.365231	-2.999400	3.549600	-10.646000	25.637638	0.000849	20.896524
1275.365956	-3.008900	3.547800	-10.673000	25.621607	0.000849	20.900812
1276.368945	-2.997000	3.548800	-10.635000	25.633349	0.000846	20.883682
1277.368031	-2.997500	3.549000	-10.636000	25.603986	0.000847	20.885012
1278.367254	-3.019400	3.546400	-10.707000	25.597459	0.000847	20.882724
1279.367450	-2.991000	3.546100	-10.604000	25.581745	0.000845	20.883539
1280.369335	-2.979400	3.547300	-10.567000	25.580771	0.000847	20.879715
1281.371109	-2.973600	3.547400	-10.547000	25.555846	0.000844	20.882658
1282.370425	-3.024700	3.543600	-10.716000	25.573525	0.000843	20.878129
1283.371462	-3.001100	3.544900	-10.637000	25.588013	0.000844	20.878454
1284.371000	-3.011100	3.545100	-10.674000	25.577303	0.000842	20.884293
1285.371427	-2.976400	3.545800	-10.553000	25.589379	0.000842	20.887886
1286.372249	-2.987100	3.545100	-10.588000	25.604251	0.000841	20.893813
1287.372470	-2.977500	3.546100	-10.557000	25.589216	0.000843	20.889144
1288.370202	-3.011500	3.545400	-10.676000	25.555752	0.000841	20.874504
1289.373901	-2.995900	3.544400	-10.618000	25.563122	0.000839	20.899448
1290.374069	-2.985200	3.543900	-10.578000	25.577410	0.000841	20.888193
1291.370194	-3.021800	3.544200	-10.708000	25.542390	0.000840	20.867724
1292.369806	-2.992000	3.542600	-10.598000	25.534077	0.000841	20.879289
1293.369864	-2.995000	3.543600	-10.612000	25.533308	0.000841	20.888947
1294.369608	-3.017800	3.542000	-10.688000	25.538050	0.000839	20.864788
1295.369545	-2.983800	3.543500	-10.572000	25.562633	0.000840	20.861975
1296.373094	-3.003000	3.542000	-10.635000	25.547012	0.000841	20.861460
1297.371729	-3.014300	3.541800	-10.675000	25.551616	0.000837	20.859446
1298.374311	-3.007200	3.541600	-10.648000	25.518880	0.000837	20.856916
1299.372946	-2.994500	3.541100	-10.602000	25.485111	0.000837	20.863307
1300.371429	-2.985900	3.541600	-10.574000	25.517239	0.000836	20.859536
1301.370999	-3.006200	3.539800	-10.640000	25.523665	0.000835	20.855084
1302.374834	-3.006400	3.539800	-10.641000	25.535926	0.000834	20.875456
1303.375473	-3.004900	3.538300	-10.631000	25.537733	0.000835	20.849772
1304.373237	-3.010400	3.538300	-10.651000	25.566672	0.000834	20.866506
1305.377806	-2.989100	3.538700	-10.576000	25.588869	0.000832	20.850392
1306.376291	-2.981200	3.539300	-10.551000	25.612598	0.000830	20.859051
1307.374783	-2.994300	3.538100	-10.593000	25.569529	0.000833	20.853254
1308.381549	-3.003000	3.538600	-10.626000	25.558106	0.000831	20.848894
1309.379528	-3.019500	3.537500	-10.681000	25.489116	0.000829	20.856425
1310.375249	-3.001600	3.538200	-10.619000	25.457949	0.000829	20.848360
1311.377105	-3.021600	3.537200	-10.687000	25.487984	0.000826	20.853865
1312.376488	-3.033700	3.535200	-10.723000	25.496782	0.000827	20.851321
1313.376311	-3.000500	3.538000	-10.613000	25.488920	0.000828	20.836788
1314.376304	-2.995600	3.536700	-10.594000	25.483250	0.000827	20.842948
1315.377689	-3.004800	3.536500	-10.625000	25.439462	0.000829	20.852081
1316.376503	-2.983500	3.537000	-10.552000	25.385458	0.000827	20.829149
1317.376691	-2.991200	3.535900	-10.575000	25.411184	0.000828	20.854980
1318.377038	-3.018300	3.534300	-10.666000	25.436982	0.000825	20.842953
1319.375622	-3.019900	3.534500	-10.673000	25.438713	0.000824	20.842795
1320.376669	-2.982000	3.535300	-10.541000	25.423255	0.000824	20.846239
1321.376374	-2.993400	3.534200	-10.578000	25.468478	0.000824	20.841865
1322.377664	-3.016900	3.533900	-10.661000	25.524061	0.000825	20.848844
1323.378252	-3.012000	3.533700	-10.643000	25.547306	0.000822	20.845161
1324.378618	-2.998100	3.532100	-10.588000	25.557381	0.000824	20.836314
1325.378978	-2.995900	3.531800	-10.580000	25.538569	0.000821	20.855826
1326.379705	-3.001900	3.533100	-10.604000	25.516960	0.000821	20.849299
1327.379856	-2.983100	3.533700	-10.540000	25.490171	0.000822	20.826665
1328.379866	-2.993700	3.533500	-10.577000	25.441811	0.000820	20.832630
1329.379950	-2.986300	3.531100	-10.542000	25.419296	0.000819	20.826143
1330.382736	-2.995100	3.531200	-10.576000	25.376409	0.000819	20.839503
1331.380469	-3.016200	3.530800	-10.649000	25.362649	0.000819	20.832799
1332.381083	-3.020100	3.528700	-10.656000	25.358725	0.000818	20.826962
1333.383916	-2.998100	3.529500	-10.581000	25.350031	0.000816	20.828664
1334.388316	-2.993700	3.529900	-10.566000	25.338222	0.000816	20.842410
1335.384079	-3.019200	3.529700	-10.656000	25.338280	0.000816	20.841047
1336.389113	-2.991900	3.530100	-10.561000	25.331768	0.000815	20.820284
1337.382461	-2.984700	3.530400	-10.536000	25.331332	0.000815	20.827433
1338.384235	-3.010000	3.527900	-10.618000	25.360504	0.000815	20.838232
1339.387358	-2.999300	3.528800	-10.583000	25.409318	0.000813	20.832719
1340.384810	-2.986300	3.528200	-10.536000	25.430589	0.000813	20.827999
1341.383408	-2.967900	3.528000	-10.469000	25.469418	0.000811	20.818627
1342.385072	-2.984800	3.528000	-10.530000	25.480212	0.000812	20.824251
1343.390354	-3.005800	3.527600	-10.601000	25.537965	0.000813	20.845738
1344.387619	-3.006300	3.526500	-10.600000	25.571663	0.000812	20.812724
1345.386003	-3.000800	3.527000	-10.583000	25.544213	0.000814	20.834943
1346.387417	-3.018800	3.525000	-10.640000	25.522619	0.000810	20.824637
1347.386920	-3.014200	3.526600	-10.629000	25.522553	0.000812	20.832157
1348.385885	-3.003800	3.525800	-10.590000	25.528842	0.000812	20.835627
1349.387670	-3.009000	3.524200	-10.603000	25.518477	0.000810	20.813839
1350.387937	-2.981100	3.526800	-10.513000	25.523144	0.000808	20.815681
1351.389861	-2.996300	3.525600	-10.563000	25.512716	0.000809	20.818486
1352.388921	-3.009300	3.523800	-10.603000	25.546235	0.000810	20.829387
1353.392753	-3.008700	3.521900	-10.594000	25.575032	0.000807	20.828436
1354.388941	-2.986300	3.524100	-10.522000	25.548743	0.000808	20.822423
1355.389507	-2.988100	3.523500	-10.528000	25.579135	0.000808	20.828289
1356.390098	-2.999700	3.522600	-10.566000	25.580753	0.000808	20.831337
1357.387547	-3.006300	3.521200	-10.585000	25.604623	0.000806	20.833024
1358.390688	-3.021100	3.521800	-10.639000	25.576051	0.000806	20.825666
1359.391924	-3.022500	3.520500	-10.639000	25.598033	0.000805	20.815975
1360.390901	-3.016700	3.519200	-10.615000	25.610675	0.000806	20.834834
1361.392573	-3.015300	3.522100	-10.619000	25.628586	0.000803	20.826271
1362.396373	-2.989700	3.521300	-10.527000	25.627536	0.000804	20.833277
1363.393094	-2.995700	3.520900	-10.546000	25.630289	0.000802	20.845998
1364.392998	-2.988100	3.519600	-10.517000	25.636577	0.000802	20.822443
1365.398107	-2.986400	3.519700	-10.511000	25.651732	0.000800	20.820594
1366.396224	-2.994900	3.519000	-10.538000	25.665533	0.000802	20.827344
1367.398174	-2.999100	3.518800	-10.553000	25.674002	0.000801	20.823996
1368.393474	-3.000300	3.520700	-10.563000	25.701189	0.000797	20.838974
1369.398062	-3.014600	3.517500	-10.603000	25.691859	0.000800	20.819171
1370.394725	-3.000400	3.519400	-10.559000	25.689100	0.000800	20.822090
1371.396683	-2.982200	3.518800	-10.492000	25.658565	0.000797	20.807543
1372.396851	-3.002700	3.517900	-10.562000	25.613431	0.000798	20.826697
1373.397151	-2.996000	3.518300	-10.539000	25.605465	0.000797	20.809688
1374.399379	-3.004300	3.516100	-10.560000	25.610004	0.000798	20.855023
1375.399212	-3.006800	3.516200	-10.570000	25.630225	0.000796	20.826020
1376.398624	-2.977300	3.517000	-10.469000	25.611682	0.000796	20.825415
1377.399953	-3.006200	3.516500	-10.570000	25.597271	0.000795	20.801933
1378.399663	-2.994900	3.516200	-10.528000	25.609979	0.000796	20.809480
1379.399698	-3.003500	3.516100	-10.559000	25.616546	0.000794	20.822713
1380.399974	-3.010500	3.514500	-10.579000	25.567468	0.000793	20.808986
1381.399639	-3.012600	3.514700	-10.587000	25.569724	0.000794	20.815993
1382.400063	-2.985600	3.513800	-10.490000	25.527280	0.000792	20.789015
1383.402395	-2.985200	3.515600	-10.492000	25.535557	0.000792	20.821509
1384.401189	-3.000600	3.512700	-10.540000	25.568501	0.000790	20.828515
1385.404458	-2.984700	3.514400	-10.488000	25.542250	0.000793	20.806894
1386.402072	-3.005700	3.512600	-10.556000	25.556565	0.000791	20.813683
1387.401071	-3.023900	3.513000	-10.621000	25.570240	0.000790	20.818882
1388.401281	-3.006000	3.512900	-10.559000	25.598858	0.000791	20.822019
1389.407233	-3.017000	3.510000	-10.589000	25.607507	0.000790	20.804153
1390.405201	-2.987400	3.511100	-10.487000	25.621884	0.000786	20.832342
1391.403226	-2.991800	3.511400	-10.505000	25.604107	0.000787	20.822548
1392.405474	-2.994500	3.511800	-10.515000	25.585359	0.000786	20.821264
1393.404029	-2.992200	3.512300	-10.508000	25.581363	0.000786	20.809190
1394.404574	-3.000400	3.510000	-10.531000	25.601571	0.000786	20.800088
1395.407721	-3.003900	3.511900	-10.549000	25.595432	0.000784	20.810517
1396.404916	-3.017400	3.508900	-10.587000	25.561587	0.000786	20.803554
1397.404305	-3.002800	3.510700	-10.541000	25.564202	0.000785	20.801438
1398.406981	-3.021600	3.509100	-10.602000	25.511215	0.000785	20.807969
1399.406300	-2.979500	3.509100	-10.453000	25.499932	0.000782	20.812760
1400.406295	-3.015800	3.507600	-10.576000	25.506756	0.000783	20.800173
1401.406506	-3.000300	3.509000	-10.527000	25.539293	0.000783	20.798708
1402.405523	-2.963800	3.508900	-10.398000	25.529094	0.000783	20.816441
1403.406142	-2.992500	3.508500	-10.498000	25.546866	0.000781	20.772175
1404.406489	-3.011800	3.507300	-10.562000	25.553090	0.000783	20.790280
1405.406839	-3.011200	3.506600	-10.557000	25.586061	0.000781	20.802528
1406.406402	-2.983000	3.507000	-10.461000	25.528584	0.000780	20.754288
1407.407003	-3.001300	3.506800	-10.524000	25.537553	0.000781	20.785107
1408.406233	-3.003300	3.504900	-10.523000	25.539349	0.000778	20.796868
1409.408393	-3.012800	3.505800	-10.561000	25.564547	0.000781	20.786612
1410.405905	-3.011500	3.504500	-10.553000	25.590678	0.000780	20.807639
1411.409751	-3.013800	3.505200	-10.563000	25.574687	0.000776	20.795847
1412.406977	-3.029500	3.502900	-10.610000	25.573178	0.000778	20.804289
1413.409282	-2.990800	3.503600	-10.477000	25.594817	0.000778	20.799943
1414.409763	-3.002400	3.502800	-10.515000	25.618458	0.000777	20.798082
1415.409312	-2.983700	3.504700	-10.455000	25.625957	0.000775	20.800398
1416.408545	-3.001000	3.501400	-10.507000	25.632858	0.000775	20.774138
1417.411418	-2.986200	3.503100	-10.460000	25.643306	0.000774	20.798381
1418.410461	-3.006100	3.501600	-10.525000	25.648765	0.000774	20.764035
1419.408488	-2.986400	3.501900	-10.457000	25.666268	0.000775	20.776873
1420.412515	-3.001500	3.501500	-10.509000	25.646909	0.000772	20.786353
1421.409391	-3.003400	3.500900	-10.514000	25.623570	0.000774	20.768128
1422.409873	-3.008100	3.499300	-10.526000	25.585314	0.000773	20.795140
1423.408198	-3.005000	3.499800	-10.516000	25.579059	0.000772	20.777952
1424.410301	-2.974500	3.500100	-10.410000	25.569512	0.000773	20.776900
1425.412003	-2.962500	3.501200	-10.371000	25.604562	0.000772	20.774642
1426.411698	-2.991900	3.499100	-10.468000	25.611948	0.000770	20.774473
1427.418619	-3.006400	3.499000	-10.518000	25.638217	0.000771	20.780943
1428.415537	-3.016600	3.498300	-10.551000	25.634707	0.000770	20.788797
1429.412617	-3.019800	3.497300	-10.560000	25.655350	0.000768	20.779184
1430.415129	-2.990000	3.498800	-10.461000	25.656560	0.000770	20.767123
1431.415221	-3.018700	3.496800	-10.554000	25.661101	0.000768	20.768364
1432.415680	-2.994000	3.499000	-10.475000	25.693889	0.000768	20.774269
1433.415344	-2.993600	3.496800	-10.466000	25.704273	0.000768	20.778536
1434.415976	-2.990100	3.496900	-10.455000	25.700380	0.000769	20.771780
1435.412739	-2.992400	3.497700	-10.465000	25.695556	0.000768	20.781634
1436.414186	-2.998900	3.495500	-10.482000	25.664499	0.000769	20.756130
1437.417089	-2.982800	3.497100	-10.430000	25.648434	0.000767	20.771763
1438.415216	-2.991700	3.495500	-10.456000	25.621472	0.000767	20.771711
1439.416165	-2.985900	3.495800	-10.436000	25.583293	0.000764	20.751384
1440.416762	-3.001700	3.495000	-10.490000	25.578022	0.000765	20.764108
1441.415893	-3.027000	3.493100	-10.574000	25.541360	0.000766	20.744359
1442.416123	-2.996700	3.495600	-10.473000	25.524348	0.000764	20.751457
1443.418802	-3.019100	3.492300	-10.541000	25.506572	0.000765	20.756365
1444.414809	-2.992800	3.494200	-10.456000	25.508421	0.000764	20.764386
1445.415298	-3.002100	3.492900	-10.486000	25.526987	0.000762	20.761219
1446.418716	-2.998500	3.492900	-10.472000	25.557688	0.000763	20.766447
1447.417458	-3.005800	3.492400	-10.496000	25.594385	0.000764	20.736445
1448.417264	-2.991800	3.491400	-10.443000	25.556563	0.000762	20.770533
1449.420891	-2.997200	3.491000	-10.462000	25.554813	0.000761	20.761663
1450.416034	-3.010300	3.491500	-10.509000	25.538301	0.000760	20.757408
1451.417902	-3.014700	3.490100	-10.519000	25.510583	0.000761	20.772247
1452.419219	-3.009200	3.490500	-10.502000	25.523803	0.000759	20.759918
1453.417790	-3.000900	3.490300	-10.473000	25.532696	0.000760	20.766953
1454.417402	-2.998700	3.491200	-10.467000	25.517650	0.000759	20.769387
1455.421052	-3.003900	3.489300	-10.481000	25.549934	0.000759	20.750599
1456.418830	-2.984000	3.488400	-10.408000	25.552574	0.000758	20.755621
1457.418644	-3.001700	3.488500	-10.470000	25.585062	0.000757	20.747945
1458.423086	-3.014100	3.487800	-10.512000	25.601419	0.000756	20.753941
1459.424228	-3.002200	3.487700	-10.469000	25.571509	0.000756	20.757093
1460.419253	-3.009800	3.486600	-10.492000	25.613476	0.000755	20.742342
1461.420298	-3.011100	3.486400	-10.496000	25.603280	0.000753	20.776199
1462.420930	-3.005900	3.486400	-10.478000	25.646841	0.000753	20.755938
1463.420041	-3.007000	3.486900	-10.484000	25.638674	0.000754	20.762435
1464.424781	-3.005100	3.485600	-10.474000	25.665213	0.000752	20.751631
1465.421528	-3.027900	3.484800	-10.551000	25.685014	0.000753	20.741647
1466.425447	-2.984600	3.485300	-10.401000	25.703323	0.000752	20.749131
1467.423609	-2.993200	3.484300	-10.427000	25.751089	0.000752	20.767712
1468.430618	-2.983100	3.485800	-10.398000	25.737284	0.000750	20.771864
1469.427056	-3.015300	3.484300	-10.505000	25.758233	0.000751	20.759715
1470.423384	-2.978200	3.484800	-10.377000	25.759802	0.000750	20.746591
1471.425313	-3.006300	3.484100	-10.472000	25.749620	0.000750	20.743476
1472.424520	-3.001600	3.483300	-10.454000	25.735905	0.000748	20.745347
1473.424440	-3.004600	3.482500	-10.463000	25.710949	0.000748	20.729289
1474.426126	-2.992400	3.481700	-10.418000	25.696838	0.000748	20.712743
1475.426907	-3.013600	3.480000	-10.487000	25.708052	0.000748	20.753407
1476.425021	-2.994600	3.481700	-10.425000	25.707376	0.000747	20.738976
1477.425487	-3.004100	3.480800	-10.455000	25.710552	0.000747	20.760660
1478.425313	-2.983500	3.480500	-10.383000	25.723693	0.000746	20.734503
1479.425822	-3.003200	3.478700	-10.446000	25.756507	0.000746	20.742808
1480.426950	-2.995000	3.479900	-10.422000	25.732177	0.000745	20.729274
1481.427916	-2.991200	3.479600	-10.407000	25.729077	0.000745	20.722366
1482.433197	-3.022100	3.479400	-10.514000	25.748559	0.000744	20.734349
1483.426973	-3.002100	3.478700	-10.443000	25.716433	0.000742	20.749971
1484.429945	-3.007400	3.479400	-10.463000	25.694884	0.000744	20.740180
1485.430794	-3.001800	3.478900	-10.442000	25.707847	0.000742	20.725224
1486.426705	-2.997100	3.480100	-10.430000	25.690865	0.000743	20.725711
1487.429773	-3.003400	3.478000	-10.444000	25.645557	0.000742	20.721456
1488.431834	-2.983200	3.478200	-10.375000	25.630004	0.000743	20.728121
1489.427911	-2.995900	3.477100	-10.416000	25.614884	0.000741	20.711512
1490.427207	-2.983300	3.476500	-10.370000	25.628702	0.000740	20.723495
1491.431064	-2.995700	3.476500	-10.413000	25.638808	0.000739	20.728429
1492.428093	-2.980900	3.475600	-10.360000	25.659683	0.000741	20.722367
1493.434083	-3.018300	3.473600	-10.483000	25.715171	0.000740	20.732107
1494.430889	-2.984800	3.476600	-10.375000	25.693252	0.000738	20.746128
1495.428235	-3.007900	3.474700	-10.450000	25.689540	0.000738	20.732441
1496.432082	-3.002900	3.474700	-10.433000	25.692640	0.000739	20.713743
1497.429679	-3.003200	3.474200	-10.433000	25.687703	0.000738	20.724432
1498.430233	-3.022400	3.472400	-10.493000	25.723849	0.000738	20.714270
1499.434542	-2.993200	3.474300	-10.398000	25.720787	0.000736	20.722101
1500.432014	-3.014800	3.472500	-10.467000	25.738484	0.000736	20.737032
1501.430885	-3.000600	3.473500	-10.422000	25.749087	0.000735	20.717809
1502.436243	-2.994900	3.471100	-10.394000	25.772345	0.000736	20.713670
1503.430967	-3.004100	3.471100	-10.427000	25.789033	0.000735	20.720950
1504.430918	-2.972200	3.471500	-10.317000	25.759282	0.000736	20.738957
1505.431243	-2.982600	3.471800	-10.354000	25.797110	0.000735	20.707251
1506.429667	-2.983600	3.470200	-10.352000	25.819742	0.000732	20.708174
1507.432112	-2.975700	3.470800	-10.327000	25.819067	0.000732	20.716980
1508.430362	-2.982100	3.470100	-10.347000	25.842031	0.000733	20.699269
1509.435143	-3.015800	3.470500	-10.465000	25.882764	0.000732	20.703679
1510.439281	-2.982500	3.469800	-10.346000	25.887179	0.000731	20.698630
1511.430737	-2.984800	3.468500	-10.352000	25.886223	0.000732	20.715689
1512.433977	-2.998600	3.468400	-10.399000	25.891977	0.000731	20.706296
1513.430643	-2.990600	3.467200	-10.367000	25.880370	0.000731	20.679934
1514.431325	-2.997700	3.466400	-10.390000	25.881059	0.000730	20.694853
1515.434987	-3.013000	3.467300	-10.446000	25.894481	0.000729	20.695060
1516.432561	-3.002900	3.467900	-10.412000	25.890617	0.000729	20.711094
1517.440111	-2.970600	3.466700	-10.297000	25.897952	0.000728	20.697599
1518.430422	-2.983500	3.466700	-10.342000	25.867555	0.000729	20.696934
1519.429880	-3.005100	3.465500	-10.413000	25.859418	0.000728	20.693027
1520.431206	-3.010900	3.464900	-10.432000	25.874829	0.000729	20.692387
1521.430403	-2.990800	3.464100	-10.359000	25.815434	0.000726	20.694837
1522.435910	-3.021800	3.465100	-10.471000	25.789473	0.000727	20.712857
1523.431536	-3.003900	3.464400	-10.405000	25.739923	0.000727	20.705284
1524.432360	-2.994300	3.464900	-10.374000	25.721514	0.000726	20.689163
1525.435299	-2.989000	3.463600	-10.351000	25.703679	0.000726	20.688319
1526.432384	-2.950200	3.465100	-10.221000	25.673225	0.000724	20.671479
1527.431950	-2.998300	3.462600	-10.381000	25.665519	0.000724	20.671801
1528.434181	-2.992900	3.463000	-10.364000	25.619268	0.000724	20.684145
1529.434452	-2.993200	3.461600	-10.360000	25.606089	0.000725	20.666639
1530.432349	-3.004300	3.462100	-10.400000	25.612457	0.000725	20.673984
1531.434322	-3.004400	3.461800	-10.399000	25.625219	0.000725	20.688699
1532.434090	-2.989200	3.461700	-10.347000	25.639460	0.000723	20.683087
1533.433089	-3.010200	3.459400	-10.412000	25.671040	0.000725	20.692995
1534.432843	-3.000300	3.460000	-10.381000	25.647501	0.000724	20.684525
1535.432140	-2.997500	3.460000	-10.370000	25.642411	0.000721	20.676093
1536.433990	-2.996000	3.458600	-10.360000	25.676607	0.000721	20.681041
1537.432030	-2.996600	3.459100	-10.365000	25.715534	0.000720	20.664188
1538.434046	-2.986700	3.458700	-10.329000	25.728665	0.000719	20.671688
1539.435322	-2.989000	3.458600	-10.336000	25.729483	0.000721	20.676778
1540.432353	-2.988000	3.458300	-10.333000	25.739040	0.000720	20.671203
1541.434241	-3.022400	3.458200	-10.451000	25.687930	0.000720	20.670602
1542.435993	-3.014200	3.457500	-10.421000	25.680008	0.000719	20.683036
1543.433896	-3.020300	3.456900	-10.439000	25.684743	0.000719	20.668349
1544.434447	-3.009200	3.457300	-10.403000	25.694887	0.000719	20.682333
1545.441327	-3.006900	3.456400	-10.392000	25.723391	0.000719	20.672081
1546.438914	-3.012800	3.457200	-10.413000	25.769321	0.000718	20.677438
1547.435806	-2.997400	3.453600	-10.351000	25.801842	0.000717	20.679760
1548.436855	-2.978800	3.456000	-10.295000	25.772092	0.000719	20.684016
1549.438267	-2.995000	3.453300	-10.341000	25.754003	0.000716	20.675802
1550.435874	-2.999900	3.455200	-10.364000	25.718816	0.000717	20.679340
1551.433216	-2.999900	3.454500	-10.362000	25.701976	0.000714	20.670011
1552.436210	-2.995600	3.454200	-10.346000	25.727622	0.000714	20.678702
1553.436695	-2.996900	3.453100	-10.348000	25.728147	0.000717	20.694877
1554.435805	-2.989000	3.453400	-10.321000	25.740357	0.000712	20.682485
1555.436637	-2.988000	3.454100	-10.319000	25.733456	0.000713	20.661327
1556.435739	-3.022700	3.451500	-10.432000	25.694506	0.000713	20.674362
1557.436698	-2.989800	3.453300	-10.324000	25.662942	0.000714	20.676800
1558.439279	-3.002400	3.452300	-10.364000	25.672437	0.000713	20.674481
1559.436735	-3.009000	3.450300	-10.381000	25.663545	0.000712	20.681673
1560.442810	-3.007500	3.452100	-10.381000	25.695227	0.000710	20.681252
1561.443077	-3.001500	3.450100	-10.354000	25.729919	0.000709	20.679113
1562.444258	-3.009200	3.450500	-10.383000	25.747579	0.000710	20.671720
1563.439878	-3.005200	3.450400	-10.368000	25.742988	0.000709	20.671375
1564.442440	-3.013600	3.449000	-10.393000	25.765150	0.000709	20.683207
1565.438865	-3.038000	3.447900	-10.473000	25.771953	0.000709	20.668701
1566.442602	-2.990700	3.448500	-10.313000	25.758584	0.000708	20.669972
1567.443178	-2.990000	3.448300	-10.309000	25.741044	0.000705	20.638599
1568.440196	-3.000700	3.447700	-10.345000	25.791835	0.000706	20.661645
1569.441996	-2.978400	3.448300	-10.269000	25.786429	0.000705	20.674708
1570.446255	-3.010700	3.446700	-10.377000	25.835431	0.000705	20.673671
1571.443743	-3.009200	3.446800	-10.371000	25.890032	0.000705	20.670200
1572.444857	-3.019600	3.446600	-10.407000	25.883401	0.000704	20.670177
1573.446324	-3.013500	3.447300	-10.387000	25.889655	0.000704	20.670769
1574.453366	-3.012000	3.446100	-10.379000	25.865597	0.000703	20.684535
1575.448559	-2.999900	3.444800	-10.333000	25.878356	0.000704	20.674118
1576.449276	-3.004000	3.446600	-10.353000	25.834015	0.000703	20.659919
1577.446509	-2.995000	3.445900	-10.319000	25.838904	0.000703	20.668625
1578.450293	-2.978700	3.444500	-10.259000	25.871664	0.000703	20.667395
1579.448642	-2.990700	3.445000	-10.302000	25.854637	0.000702	20.673050
1580.448903	-3.002400	3.444900	-10.342000	25.826548	0.000700	20.667592
1581.447346	-3.007100	3.443100	-10.353000	25.818628	0.000699	20.666274
1582.449682	-2.997300	3.441600	-10.314000	25.783982	0.000700	20.665137
1583.449221	-2.988100	3.444400	-10.291000	25.804830	0.000698	20.679442
1584.448810	-2.987900	3.443000	-10.286000	25.847175	0.000697	20.667924
1585.453385	-2.971800	3.442000	-10.228000	25.799133	0.000695	20.660915
1586.449463	-3.012100	3.441200	-10.364000	25.778507	0.000698	20.675760
1587.448279	-3.003200	3.440900	-10.333000	25.739075	0.000695	20.668393
1588.450100	-3.004000	3.441800	-10.338000	25.728398	0.000696	20.664781
1589.449081	-3.002700	3.440200	-10.329000	25.704045	0.000697	20.662131
1590.448055	-3.013600	3.439800	-10.364000	25.718936	0.000699	20.684677
1591.452504	-2.991900	3.438900	-10.288000	25.710863	0.000694	20.675144
1592.451118	-3.009300	3.439000	-10.348000	25.728741	0.000694	20.685516
1593.449119	-3.020800	3.437600	-10.383000	25.746529	0.000695	20.664500
1594.452247	-3.024000	3.437100	-10.393000	25.794730	0.000697	20.684471
1595.450992	-3.005000	3.437400	-10.329000	25.800754	0.000695	20.673924
1596.449390	-3.005700	3.438300	-10.334000	25.803436	0.000694	20.683257
1597.449968	-2.997600	3.438100	-10.304000	25.805747	0.000693	20.671828
1598.449550	-2.996500	3.437000	-10.297000	25.838689	0.000692	20.666986
1599.448327	-3.004100	3.436300	-10.321000	25.836524	0.000692	20.666234
1600.451017	-3.020000	3.435200	-10.372000	25.844551	0.000694	20.683307
1601.451712	-3.003600	3.436800	-10.321000	25.833174	0.000691	20.678517
1602.452888	-3.016900	3.435300	-10.363000	25.876079	0.000692	20.691746
1603.457912	-3.008100	3.435900	-10.335000	25.905791	0.000691	20.691249
1604.454833	-3.029200	3.434200	-10.401000	25.883483	0.000690	20.671207
1605.453295	-2.999400	3.434400	-10.300000	25.891204	0.000690	20.690346
1606.454198	-2.994300	3.434500	-10.283000	25.913314	0.000687	20.691694
1607.454580	-3.001800	3.433400	-10.305000	25.921903	0.000689	20.669975
1608.455517	-2.996900	3.433600	-10.289000	25.941881	0.000688	20.690996
1609.455687	-2.991200	3.434300	-10.270000	25.972971	0.000685	20.681452
1610.456106	-2.992400	3.434000	-10.274000	25.948432	0.000687	20.700423
1611.455245	-3.000000	3.432100	-10.296000	25.977962	0.000686	20.691209
1612.455439	-2.992500	3.434300	-10.276000	25.936461	0.000686	20.684601
1613.457717	-3.007500	3.432100	-10.321000	25.904587	0.000686	20.681978
1614.457080	-3.018000	3.431800	-10.355000	25.926275	0.000684	20.677213
1615.457787	-3.010800	3.432000	-10.332000	25.932261	0.000686	20.680382
1616.457776	-3.014400	3.429900	-10.338000	25.901306	0.000684	20.696701
1617.458737	-2.978200	3.431800	-10.219000	25.843779	0.000683	20.692964
1618.459279	-2.999200	3.430300	-10.286000	25.872560	0.000683	20.672562
1619.459043	-3.007800	3.429300	-10.313000	25.854180	0.000684	20.694878
1620.457801	-2.983900	3.431100	-10.236000	25.867479	0.000683	20.689745
1621.459941	-2.996200	3.428600	-10.272000	25.882945	0.000682	20.690109
1622.460989	-3.003600	3.428700	-10.297000	25.958134	0.000682	20.693099
1623.459902	-3.004500	3.427000	-10.296000	25.929002	0.000680	20.697498
1624.460799	-2.998500	3.427200	-10.276000	25.952912	0.000679	20.682637
1625.462090	-2.983900	3.427300	-10.226000	25.909112	0.000681	20.690318
1626.461505	-3.028000	3.425900	-10.373000	25.883846	0.000679	20.691963
1627.462770	-3.001400	3.428000	-10.288000	25.882473	0.000679	20.699119
1628.461863	-3.007300	3.425700	-10.302000	25.875052	0.000679	20.694508
1629.464404	-3.015400	3.426800	-10.332000	25.886194	0.000678	20.708073
1630.468626	-2.994800	3.425200	-10.257000	25.905269	0.000677	20.685508
1631.463422	-2.984800	3.426600	-10.227000	25.901587	0.000677	20.701251
1632.464995	-2.992000	3.424200	-10.244000	25.880569	0.000675	20.711905
1633.464240	-2.979200	3.424800	-10.202000	25.868493	0.000675	20.701196
1634.461824	-3.034200	3.421900	-10.381000	25.820162	0.000675	20.700061
1635.465941	-3.002200	3.423000	-10.275000	25.855516	0.000676	20.704281
1636.466032	-2.987400	3.423900	-10.228000	25.841907	0.000676	20.688239
1637.467885	-2.973100	3.423300	-10.177000	25.860181	0.000674	20.687155
1638.465910	-2.985300	3.424200	-10.220000	25.897715	0.000675	20.713484
1639.466791	-3.005100	3.422700	-10.285000	25.893918	0.000674	20.702081
1640.462660	-2.983100	3.422600	-10.209000	25.879979	0.000675	20.689975
1641.464237	-3.005400	3.421100	-10.280000	25.902105	0.000672	20.690865
1642.462071	-3.020700	3.419900	-10.329000	25.881610	0.000672	20.692087
1643.462279	-3.006700	3.420300	-10.283000	25.878386	0.000673	20.680312
1644.464506	-2.984900	3.422100	-10.212000	25.822300	0.000673	20.706003
1645.465869	-2.979000	3.420400	-10.188000	25.809407	0.000671	20.681195
1646.465229	-2.985000	3.420800	-10.210000	25.796731	0.000671	20.687903
1647.465684	-2.975100	3.421000	-10.176000	25.810653	0.000671	20.690508
1648.467123	-2.996200	3.419600	-10.244000	25.815301	0.000668	20.699919
1649.466410	-3.006000	3.419200	-10.277000	25.870584	0.000669	20.699978
1650.467181	-2.998700	3.419700	-10.254000	25.854656	0.000667	20.714324
1651.469013	-3.009000	3.418700	-10.285000	25.808199	0.000668	20.692311
1652.467143	-2.993500	3.418500	-10.232000	25.788916	0.000667	20.687164
1653.466538	-3.008400	3.418200	-10.282000	25.821911	0.000669	20.699446
1654.467249	-3.003700	3.418200	-10.266000	25.795866	0.000667	20.730659
1655.468262	-2.975000	3.418700	-10.169000	25.812482	0.000669	20.695665
1656.466770	-2.994800	3.418300	-10.236000	25.795609	0.000667	20.703373
1657.467077	-3.010500	3.417100	-10.285000	25.757277	0.000667	20.700430
1658.467403	-2.988300	3.417800	-10.212000	25.780335	0.000665	20.718376
1659.467308	-3.009000	3.415600	-10.277000	25.796722	0.000666	20.695955
1660.468514	-2.993700	3.415500	-10.225000	25.794893	0.000664	20.689850
1661.469493	-3.006400	3.414000	-10.263000	25.788071	0.000664	20.688687
1662.471147	-2.994300	3.413100	-10.219000	25.761173	0.000665	20.704344
1663.469292	-3.005700	3.415200	-10.264000	25.761766	0.000664	20.703991
1664.471227	-2.973400	3.412600	-10.146000	25.742253	0.000662	20.698141
1665.470715	-3.003700	3.412700	-10.248000	25.705589	0.000662	20.690237
1666.468845	-2.997900	3.412500	-10.229000	25.717359	0.000662	20.696370
1667.471481	-3.007900	3.412100	-10.261000	25.677023	0.000661	20.716075
1668.470826	-3.013700	3.412600	-10.283000	25.655195	0.000661	20.706953
1669.471078	-3.007900	3.411400	-10.259000	25.678960	0.000662	20.704270
1670.472058	-3.003100	3.410500	-10.241000	25.713121	0.000659	20.715349
1671.471569	-3.017300	3.410200	-10.289000	25.755687	0.000659	20.718275
1672.470829	-3.026100	3.410700	-10.320000	25.800053	0.000661	20.732494
1673.470156	-3.014200	3.410100	-10.277000	25.835190	0.000660	20.704726
1674.469855	-3.003200	3.409000	-10.237000	25.859972	0.000661	20.704490
1675.470756	-2.977500	3.410400	-10.153000	25.868843	0.000660	20.703919
1676.471570	-2.984800	3.408900	-10.173000	25.884169	0.000657	20.698926
1677.471026	-2.973200	3.410200	-10.138000	25.884940	0.000659	20.728626
1678.472562	-2.994500	3.409900	-10.210000	25.870146	0.000658	20.701908
1679.472429	-2.995500	3.408400	-10.209000	25.820107	0.000659	20.714705
1680.472904	-2.995300	3.410200	-10.213000	25.795784	0.000656	20.718723
1681.473216	-3.007500	3.406800	-10.245000	25.747768	0.000655	20.712216
1682.472953	-3.027100	3.406100	-10.310000	25.717739	0.000657	20.718090
1683.473039	-3.028300	3.407600	-10.318000	25.685323	0.000657	20.720619
1684.471825	-3.005800	3.407400	-10.240000	25.701840	0.000655	20.722984
1685.472291	-2.971200	3.407700	-10.124000	25.746792	0.000653	20.704123
1686.472206	-2.972100	3.407400	-10.126000	25.739051	0.000655	20.728592
1687.472970	-2.995500	3.406100	-10.202000	25.773901	0.000654	20.726613
1688.473962	-2.999100	3.405900	-10.214000	25.767257	0.000653	20.729422
1689.473762	-3.000200	3.405600	-10.217000	25.768982	0.000654	20.735423
1690.472971	-2.981800	3.404900	-10.152000	25.761678	0.000653	20.726663
1691.473306	-3.020600	3.403800	-10.281000	25.766388	0.000654	20.708634
1692.473533	-2.998400	3.404600	-10.207000	25.745943	0.000652	20.709909
1693.474499	-2.996000	3.404200	-10.197000	25.751165	0.000652	20.731277
1694.475318	-2.983000	3.404800	-10.156000	25.738679	0.000652	20.727744
1695.479142	-2.993000	3.404000	-10.186000	25.739709	0.000651	20.740159
1696.482945	-2.993000	3.403500	-10.185000	25.774285	0.000650	20.710877
1697.476806	-2.998200	3.402900	-10.201000	25.795329	0.000648	20.727274
1698.480139	-3.021100	3.401900	-10.277000	25.806383	0.000649	20.706135
1699.477186	-3.008500	3.401400	-10.232000	25.826325	0.000650	20.726642
1700.478631	-3.022400	3.400400	-10.276000	25.836384	0.000646	20.718254
1701.477541	-2.988200	3.402500	-10.166000	25.859132	0.000647	20.731149
1702.483087	-3.008500	3.400400	-10.229000	25.858025	0.000647	20.723873
1703.478913	-3.005700	3.399000	-10.215000	25.811494	0.000646	20.738297
1704.479416	-3.004500	3.400500	-10.216000	25.818782	0.000647	20.743722
1705.480098	-3.003200	3.399000	-10.207000	25.790862	0.000645	20.743177
1706.480099	-2.985800	3.400700	-10.152000	25.799678	0.000643	20.736386
1707.476851	-2.963500	3.399100	-10.071000	25.807951	0.000644	20.740903
1708.480140	-2.995300	3.399900	-10.182000	25.769224	0.000641	20.739934
1709.481854	-3.002700	3.398300	-10.202000	25.767915	0.000643	20.767069
1710.478255	-2.998300	3.397300	-10.185000	25.747800	0.000644	20.744493
1711.480399	-3.011100	3.397300	-10.230000	25.772793	0.000641	20.734035
1712.477791	-2.985600	3.398700	-10.146000	25.759429	0.000641	20.764235
1713.479133	-3.029800	3.396700	-10.289000	25.796075	0.000641	20.750785
1714.484076	-3.007800	3.397900	-10.219000	25.810495	0.000640	20.767641
1715.478582	-2.995300	3.396500	-10.173000	25.797883	0.000639	20.747384
1716.478508	-3.008800	3.395400	-10.215000	25.842461	0.000641	20.743326
1717.484127	-3.010000	3.395700	-10.220000	25.861600	0.000639	20.749751
1718.483200	-2.991000	3.396700	-10.157000	25.922274	0.000639	20.744321
1719.482301	-3.003500	3.395200	-10.196000	25.934129	0.000638	20.756706
1720.480721	-2.992000	3.395100	-10.157000	25.971460	0.000639	20.746794
1721.486237	-3.008900	3.395300	-10.215000	25.948416	0.000637	20.769162
1722.486415	-3.005700	3.393800	-10.200000	25.946239	0.000635	20.761285
1723.480818	-3.006900	3.392800	-10.201000	25.974891	0.000637	20.749768
1724.485849	-2.996500	3.393100	-10.167000	25.971375	0.000637	20.768046
1725.487302	-3.016900	3.393200	-10.235000	25.946351	0.000636	20.768985
1726.485076	-3.021600	3.391600	-10.246000	25.954395	0.000634	20.762841
1727.485232	-3.010200	3.392700	-10.210000	25.967438	0.000636	20.752711
1728.481413	-2.976800	3.393100	-10.098000	25.967976	0.000634	20.763209
1729.481288	-2.990400	3.391600	-10.141000	25.972067	0.000633	20.749301
1730.484382	-2.990400	3.391700	-10.141000	25.964440	0.000634	20.752544
1731.481611	-2.984400	3.391500	-10.119000	25.979320	0.000634	20.785986
1732.482009	-2.993100	3.390300	-10.147000	25.952560	0.000633	20.779965
1733.485154	-3.006600	3.390800	-10.194000	25.922604	0.000633	20.762671
1734.480467	-2.988900	3.391800	-10.137000	25.893625	0.000631	20.757741
1735.483324	-2.999600	3.388900	-10.165000	25.835382	0.000633	20.769407
1736.485557	-3.022400	3.389800	-10.245000	25.805549	0.000633	20.780216
1737.484756	-3.006900	3.388500	-10.188000	25.801382	0.000632	20.765125
1738.483389	-3.000700	3.390200	-10.171000	25.790161	0.000633	20.779458
1739.484949	-2.995000	3.387700	-10.146000	25.826908	0.000632	20.773223
1740.486982	-2.991500	3.388700	-10.136000	25.818301	0.000631	20.784965
1741.485008	-3.008100	3.387100	-10.188000	25.826011	0.000630	20.786546
1742.484075	-3.022100	3.387900	-10.237000	25.875796	0.000631	20.778237
1743.490519	-2.996100	3.387900	-10.149000	25.893849	0.000632	20.782622
1744.485496	-3.010500	3.387900	-10.198000	25.889074	0.000630	20.793472
1745.484931	-2.993700	3.386800	-10.138000	25.884192	0.000629	20.780507
1746.488081	-2.999900	3.385800	-10.156000	25.877448	0.000627	20.810716
1747.487506	-3.004800	3.384500	-10.168000	25.879189	0.000627	20.789706
1748.487226	-2.988100	3.385300	-10.115000	25.901759	0.000629	20.801474
1749.487654	-3.008700	3.385000	-10.184000	25.856108	0.000626	20.797340
1750.486861	-2.984600	3.385000	-10.102000	25.829859	0.000627	20.803214
1751.491070	-2.978400	3.385400	-10.082000	25.843284	0.000625	20.794415
1752.488441	-3.010600	3.384700	-10.188000	25.826079	0.000624	20.797995
1753.489365	-3.009700	3.383700	-10.183000	25.830242	0.000624	20.796012
1754.487187	-3.019200	3.383100	-10.213000	25.863567	0.000625	20.797246
1755.489634	-2.978100	3.382800	-10.073000	25.883001	0.000626	20.775043
1756.490365	-2.980500	3.382800	-10.081000	25.945074	0.000625	20.811324
1757.489073	-2.980700	3.383100	-10.083000	25.940411	0.000623	20.819915
1758.489709	-3.002600	3.382000	-10.154000	25.955032	0.000624	20.799517
1759.494029	-3.034200	3.381000	-10.257000	25.976403	0.000621	20.795383
1760.490400	-3.024800	3.381200	-10.226000	25.963255	0.000621	20.808252
1761.492385	-3.000600	3.380400	-10.142000	25.975110	0.000623	20.810206
1762.494647	-3.005500	3.382000	-10.164000	25.945798	0.000621	20.811577
1763.492529	-2.999700	3.380600	-10.139000	25.930980	0.000619	20.818976
1764.491005	-2.998700	3.380300	-10.136000	25.910102	0.000619	20.798950
1765.496215	-2.989100	3.380600	-10.104000	25.907976	0.000620	20.807246
1766.496686	-2.995900	3.380000	-10.126000	25.963365	0.000619	20.809311
1767.492359	-2.995100	3.380300	-10.123000	25.948715	0.000618	20.823042
1768.498537	-2.991500	3.380100	-10.111000	25.980184	0.000619	20.801552
1769.495177	-3.019300	3.378800	-10.200000	25.973348	0.000616	20.795633
1770.492173	-2.990900	3.378800	-10.105000	25.934714	0.000618	20.818933
1771.499006	-2.994600	3.378600	-10.117000	25.950893	0.000617	20.808636
1772.496744	-3.010700	3.377100	-10.166000	25.922860	0.000616	20.800387
1773.495604	-3.016500	3.376400	-10.184000	25.932224	0.000617	20.811690
1774.499671	-3.005200	3.376700	-10.146000	25.963851	0.000614	20.804584
1775.497864	-3.024000	3.377400	-10.213000	25.974260	0.000613	20.823576
1776.496426	-3.017800	3.374800	-10.183000	26.006789	0.000614	20.820696
1777.496570	-3.003600	3.375700	-10.138000	26.021486	0.000615	20.806064
1778.496605	-3.003900	3.375200	-10.138000	26.025023	0.000614	20.814834
1779.496192	-2.983400	3.376600	-10.072000	26.009820	0.000613	20.828957
1780.496352	-2.983800	3.375100	-10.069000	26.007593	0.000614	20.832883
1781.496685	-2.982200	3.375600	-10.065000	26.040796	0.000612	20.827836
1782.496694	-3.003100	3.374400	-10.133000	26.055492	0.000612	20.839282
1783.496463	-2.999800	3.374000	-10.121000	26.072624	0.000612	20.834210
1784.497515	-3.025600	3.372700	-10.202000	26.078724	0.000610	20.826115
1785.498945	-2.990700	3.374500	-10.090000	26.111874	0.000611	20.841879
1786.500711	-3.031500	3.372900	-10.224000	26.134901	0.000608	20.830878
1787.499876	-3.004500	3.372300	-10.130000	26.159717	0.000610	20.828788
1788.504611	-2.997700	3.372200	-10.108000	26.129289	0.000610	20.835196
1789.501282	-3.019700	3.372000	-10.182000	26.159809	0.000609	20.834570
1790.500137	-2.990800	3.373000	-10.087000	26.162504	0.000609	20.867622
1791.503245	-3.003700	3.372500	-10.130000	26.143873	0.000609	20.854591
1792.504135	-2.990500	3.371200	-10.080000	26.121812	0.000607	20.842382
1793.509233	-3.014700	3.370800	-10.160000	26.129337	0.000607	20.860847
1794.504054	-2.988600	3.371700	-10.074000	26.133726	0.000608	20.836810
1795.504519	-2.991100	3.369900	-10.078000	26.115785	0.000607	20.856714
1796.503559	-2.993500	3.371700	-10.092000	26.107139	0.000608	20.857509
1797.503802	-2.968500	3.370900	-10.005000	26.117638	0.000605	20.852886
1798.501071	-3.014600	3.368900	-10.155000	26.156779	0.000607	20.860446
1799.504071	-2.992000	3.370400	-10.083000	26.185224	0.000606	20.873856
1800.504003	-3.007600	3.368700	-10.131000	26.194670	0.000604	20.853004
1801.501359	-2.999600	3.368400	-10.102000	26.223291	0.000602	20.850471
1802.501303	-2.997400	3.368500	-10.096000	26.236646	0.000603	20.860096
1803.501833	-3.002200	3.367200	-10.108000	26.245189	0.000601	20.862044
1804.505378	-3.006600	3.367500	-10.123000	26.235661	0.000600	20.864322
1805.511141	-2.996300	3.368600	-10.093000	26.236250	0.000602	20.873922
1806.502680	-3.014100	3.366300	-10.146000	26.201846	0.000599	20.863059
1807.505785	-2.982200	3.366300	-10.038000	26.161155	0.000599	20.863896
1808.506614	-2.996300	3.364700	-10.080000	26.142372	0.000600	20.860195
1809.506952	-3.022600	3.366200	-10.173000	26.124567	0.000600	20.867908
1810.506535	-2.997200	3.367300	-10.092000	26.131570	0.000600	20.855505
1811.503335	-2.987700	3.365400	-10.054000	26.173009	0.000599	20.879599
1812.509161	-2.987400	3.365700	-10.054000	26.172385	0.000598	20.868068
1813.502307	-3.006100	3.365300	-10.115000	26.177338	0.000598	20.865933
1814.505218	-2.991800	3.365900	-10.069000	26.193103	0.000598	20.877031
1815.508074	-3.005400	3.363500	-10.108000	26.219821	0.000597	20.865948
1816.503006	-3.009000	3.364000	-10.121000	26.225398	0.000598	20.869656
1817.505423	-3.006400	3.362600	-10.108000	26.237726	0.000593	20.869242
1818.509183	-3.001200	3.362500	-10.091000	26.274098	0.000596	20.854111
1819.504152	-2.990100	3.362600	-10.054000	26.284291	0.000595	20.847286
1820.507670	-3.016600	3.363000	-10.144000	26.299389	0.000594	20.853449
1821.505290	-2.990200	3.363500	-10.057000	26.300003	0.000592	20.861179
1822.505118	-3.008600	3.363000	-10.117000	26.272806	0.000594	20.850917
1823.508729	-3.015100	3.361500	-10.134000	26.265871	0.000591	20.856749
1824.505338	-3.006100	3.362100	-10.106000	26.229084	0.000593	20.862455
1825.507897	-3.015800	3.360400	-10.133000	26.246298	0.000593	20.844667
1826.514494	-2.985800	3.361200	-10.035000	26.241621	0.000592	20.849924
1827.509458	-2.989300	3.361600	-10.048000	26.247594	0.000592	20.850710
1828.510386	-2.986700	3.360900	-10.036000	26.260248	0.000592	20.844935
1829.512391	-3.009700	3.359800	-10.111000	26.269102	0.000591	20.843875
1830.510449	-2.987900	3.359400	-10.037000	26.229686	0.000592	20.855474
1831.509288	-2.998800	3.359100	-10.073000	26.206607	0.000589	20.852671
1832.510637	-3.018500	3.359200	-10.139000	26.146940	0.000588	20.834915
1833.509511	-3.030700	3.357600	-10.174000	26.099869	0.000588	20.853524
1834.509864	-3.017200	3.358300	-10.131000	26.046946	0.000588	20.842549
1835.510856	-2.988400	3.358600	-10.035000	26.062164	0.000588	20.863054
1836.510970	-3.005100	3.357000	-10.087000	26.086374	0.000589	20.823370
1837.511932	-3.012700	3.356200	-10.110000	26.095819	0.000586	20.837127
1838.510884	-2.986200	3.358300	-10.027000	26.133013	0.000585	20.836093
1839.513094	-3.025500	3.354900	-10.149000	26.120624	0.000587	20.825067
1840.513964	-3.006900	3.355800	-10.090000	26.110790	0.000585	20.846954
1841.513990	-3.022700	3.355700	-10.141000	26.080545	0.000584	20.823677
1842.515298	-2.988500	3.354600	-10.024000	26.081951	0.000584	20.834573
1843.517163	-3.013200	3.355200	-10.108000	26.050232	0.000584	20.838738
1844.512999	-2.998900	3.355600	-10.062000	26.079877	0.000584	20.834385
1845.514275	-3.012100	3.353900	-10.101000	26.082598	0.000582	20.839490
1846.517306	-2.984700	3.354700	-10.012000	26.077768	0.000581	20.819939
1847.515089	-2.993900	3.355600	-10.046000	26.061672	0.000581	20.817517
1848.517641	-2.996800	3.355300	-10.054000	26.066854	0.000581	20.821775
1849.515174	-3.007200	3.355000	-10.087000	26.087340	0.000581	20.831927
1850.516098	-3.011800	3.351800	-10.094000	26.097677	0.000578	20.828563
1851.518932	-3.005900	3.353600	-10.080000	26.133414	0.000578	20.831755
1852.518223	-3.012900	3.351900	-10.098000	26.150957	0.000578	20.823304
1853.517245	-2.997300	3.353100	-10.049000	26.170050	0.000579	20.824472
1854.519293	-3.006700	3.351800	-10.077000	26.211650	0.000577	20.841143
1855.521167	-2.996400	3.352300	-10.044000	26.223706	0.000578	20.819120
1856.517363	-2.997300	3.353400	-10.050000	26.209415	0.000576	20.808078
1857.517914	-2.996700	3.352300	-10.046000	26.210206	0.000574	20.803658
1858.521037	-2.974700	3.352000	-9.970300	26.232703	0.000576	20.825790
1859.518713	-3.012500	3.351100	-10.093000	26.238406	0.000575	20.833418
1860.518135	-3.022000	3.349600	-10.120000	26.215454	0.000575	20.824104
1861.521571	-2.996600	3.350000	-10.038000	26.216271	0.000576	20.804062
1862.521402	-3.000900	3.349300	-10.050000	26.176458	0.000576	20.805307
1863.519973	-3.006700	3.349000	-10.067000	26.127855	0.000576	20.816212
1864.522080	-2.981200	3.349000	-9.983700	26.093743	0.000575	20.806119
1865.518877	-2.980500	3.349000	-9.980500	26.062075	0.000572	20.816499
1866.521530	-2.982600	3.348200	-9.985300	26.070594	0.000573	20.817947
1867.520786	-3.025400	3.347100	-10.125000	26.114548	0.000572	20.830342
1868.519846	-2.988500	3.346300	-9.998700	26.135412	0.000571	20.796305
1869.520307	-2.998300	3.346000	-10.030000	26.149467	0.000570	20.825600
1870.520326	-2.982300	3.346200	-9.978300	26.191809	0.000572	20.797972
1871.520463	-3.012600	3.346600	-10.081000	26.168703	0.000571	20.827860
1872.522682	-3.002000	3.346600	-10.045000	26.210050	0.000572	20.803975
1873.522672	-3.017300	3.345600	-10.093000	26.222704	0.000570	20.796302
1874.522898	-3.008900	3.343800	-10.060000	26.189903	0.000571	20.803644
1875.524135	-3.006700	3.344200	-10.053000	26.153037	0.000570	20.813067
1876.522533	-3.019100	3.343700	-10.093000	26.156366	0.000569	20.801238
1877.525586	-3.002100	3.343400	-10.037000	26.164286	0.000568	20.804456
1878.526210	-2.975300	3.344400	-9.949300	26.121497	0.000568	20.830686
1879.522594	-2.991100	3.344200	-10.001000	26.117485	0.000569	20.804844
1880.524438	-2.989700	3.343500	-9.994500	26.168970	0.000569	20.802998
1881.523912	-2.992200	3.343600	-10.003000	26.147163	0.000568	20.816647
1882.523009	-2.977900	3.345100	-9.959900	26.147626	0.000565	20.797672
1883.525481	-3.007700	3.343300	-10.055000	26.149041	0.000565	20.803836
1884.524821	-3.012800	3.342600	-10.070000	26.177278	0.000566	20.799966
1885.524410	-3.008600	3.341900	-10.053000	26.166526	0.000566	20.809077
1886.526736	-3.012700	3.340600	-10.064000	26.133410	0.000565	20.827009
1887.526602	-3.003800	3.342700	-10.039000	26.098119	0.000563	20.797239
1888.526057	-3.008700	3.341100	-10.051000	26.064538	0.000567	20.815181
1889.531324	-3.001700	3.340000	-10.024000	26.040166	0.000562	20.820565
1890.528392	-3.011600	3.340400	-10.060000	26.017859	0.000565	20.824705
1891.527535	-2.989700	3.341500	-9.989100	26.039862	0.000563	20.799397
1892.529193	-3.016100	3.340600	-10.074000	26.036112	0.000563	20.818389
1893.529971	-3.030200	3.337400	-10.113000	26.043267	0.000563	20.815620
1894.529444	-3.005800	3.340000	-10.038000	26.039061	0.000562	20.808550
1895.527669	-2.996300	3.338400	-10.002000	26.051702	0.000559	20.810819
1896.529111	-2.997000	3.338200	-10.004000	26.054945	0.000559	20.808862
1897.533419	-2.994500	3.337600	-9.993800	26.100122	0.000558	20.809683
1898.531268	-2.989900	3.337700	-9.977500	26.108851	0.000558	20.815135
1899.529987	-3.009300	3.336300	-10.039000	26.160083	0.000559	20.803077
1900.530674	-3.010600	3.336700	-10.045000	26.143172	0.000555	20.790351
1901.530047	-2.987600	3.337100	-9.968800	26.157353	0.000556	20.835421
1902.531070	-3.004700	3.336400	-10.024000	26.179361	0.000554	20.817232
1903.529161	-3.001300	3.335200	-10.009000	26.233279	0.000553	20.791281
1904.531819	-3.013400	3.336200	-10.052000	26.267435	0.000556	20.815174
1905.534374	-2.999300	3.337100	-10.007000	26.259287	0.000555	20.806512
1906.531430	-3.009600	3.335000	-10.035000	26.225812	0.000554	20.790891
1907.532878	-3.006900	3.336100	-10.030000	26.238432	0.000552	20.814004
1908.533283	-2.979600	3.336100	-9.939100	26.281242	0.000555	20.805816
1909.531713	-3.008200	3.335500	-10.033000	26.294991	0.000552	20.801616
1910.534126	-3.030800	3.332900	-10.100000	26.312927	0.000552	20.813951
1911.534871	-2.991300	3.334100	-9.972200	26.310172	0.000552	20.813079
1912.533452	-3.004600	3.332200	-10.011000	26.267405	0.000550	20.771522
1913.533067	-3.007700	3.332600	-10.022000	26.226153	0.000551	20.817312
1914.534473	-3.001700	3.333200	-10.003000	26.164996	0.000550	20.812281
1915.532902	-3.012300	3.332600	-10.038000	26.151885	0.000550	20.810961
1916.532934	-2.992700	3.332700	-9.972700	26.139009	0.000550	20.802290
1917.534796	-2.995400	3.332400	-9.981000	26.128476	0.000551	20.808301
1918.533437	-3.006400	3.331800	-10.016000	26.087488	0.000550	20.793669
1919.534427	-3.022200	3.330000	-10.063000	26.106364	0.000549	20.818325
1920.536289	-3.009000	3.330800	-10.021000	26.085692	0.000548	20.790917
1921.535727	-2.998600	3.331000	-9.987900	26.089189	0.000548	20.801543
1922.536544	-3.013200	3.330000	-10.033000	26.088616	0.000545	20.789113
1923.538946	-2.985200	3.330400	-9.941700	26.126611	0.000548	20.792203
1924.536136	-2.978100	3.329700	-9.915500	26.159095	0.000546	20.788334
1925.536513	-2.997100	3.329300	-9.977700	26.191552	0.000546	20.801982
1926.538966	-3.021300	3.327400	-10.052000	26.231406	0.000549	20.808840
1927.538301	-3.028200	3.327300	-10.074000	26.261537	0.000546	20.808773
1928.541472	-2.996800	3.327900	-9.972000	26.249615	0.000544	20.790154
1929.537964	-3.017800	3.326200	-10.038000	26.267047	0.000544	20.798663
1930.542579	-3.001200	3.326200	-9.981300	26.262202	0.000542	20.793321
1931.539098	-3.009700	3.326800	-10.011000	26.258057	0.000544	20.797215
1932.539148	-2.979700	3.327000	-9.911400	26.249707	0.000542	20.795937
1933.541614	-3.031700	3.325400	-10.080000	26.209651	0.000542	20.808315
1934.539797	-3.011000	3.325000	-10.011000	26.226241	0.000541	20.805073
1935.537240	-3.002200	3.327600	-9.988800	26.256414	0.000540	20.797935
1936.540385	-2.993800	3.325900	-9.956300	26.296316	0.000540	20.811008
1937.538653	-3.006700	3.324500	-9.994000	26.321490	0.000539	20.817340
1938.540302	-2.994900	3.325200	-9.957400	26.343984	0.000541	20.807231
1939.539543	-3.000800	3.325600	-9.977800	26.373041	0.000537	20.795183
1940.540677	-3.000600	3.323500	-9.971400	26.408845	0.000539	20.820736
1941.542830	-3.012100	3.324500	-10.012000	26.414370	0.000536	20.801634
1942.539837	-3.005600	3.325900	-9.995500	26.417967	0.000535	20.802404
1943.541459	-3.019200	3.323900	-10.035000	26.397875	0.000533	20.782210
1944.542657	-2.980200	3.324400	-9.906500	26.393401	0.000534	20.811852
1945.542315	-2.991500	3.323200	-9.940700	26.400823	0.000534	20.788492
1946.543291	-3.002100	3.322100	-9.972700	26.398784	0.000534	20.793555
1947.542911	-3.034200	3.320100	-10.073000	26.405683	0.000531	20.799541
1948.542088	-3.001600	3.323400	-9.973600	26.370393	0.000531	20.791099
1949.544415	-3.007500	3.321700	-9.989100	26.349828	0.000531	20.793190
1950.545947	-2.994200	3.321200	-9.942200	26.335472	0.000532	20.785874
1951.542914	-3.009100	3.321800	-9.994500	26.335564	0.000529	20.810148
1952.543822	-3.006000	3.320300	-9.978400	26.336853	0.000531	20.795322
1953.541612	-3.030300	3.320400	-10.061000	26.366272	0.000533	20.798336
1954.543699	-2.991500	3.321200	-9.933300	26.350256	0.000530	20.805000
1955.547742	-3.014800	3.319400	-10.007000	26.317440	0.000530	20.777710
1956.546603	-2.991200	3.319100	-9.926700	26.291516	0.000529	20.788166
1957.542414	-2.999500	3.318300	-9.951500	26.290959	0.000529	20.785236
1958.547319	-3.011200	3.317900	-9.990300	26.330616	0.000529	20.795219
1959.545457	-2.996300	3.318600	-9.942400	26.328046	0.000527	20.806860
1960.547153	-2.994900	3.318600	-9.936900	26.348763	0.000528	20.802077
1961.548195	-3.006500	3.316900	-9.971900	26.353447	0.000528	20.801568
1962.548891	-2.994300	3.317900	-9.934300	26.348805	0.000526	20.795226
1963.548808	-3.010600	3.316400	-9.983600	26.357516	0.000525	20.777208
1964.549767	-3.003200	3.318500	-9.965200	26.375805	0.000525	20.794167
1965.553734	-3.018300	3.316800	-10.010000	26.390236	0.000525	20.793024
1966.555408	-2.983600	3.316000	-9.893200	26.359360	0.000523	20.821261
1967.552294	-2.972700	3.316400	-9.856900	26.328709	0.000525	20.797570
1968.557522	-2.992800	3.314600	-9.919000	26.288935	0.000523	20.790788
1969.556364	-2.995700	3.315700	-9.931600	26.305835	0.000522	20.796393
1970.554817	-3.000900	3.315600	-9.949400	26.331775	0.000521	20.792116
1971.553687	-2.995400	3.315700	-9.929100	26.359813	0.000522	20.790423
1972.552808	-2.999000	3.313300	-9.935000	26.382652	0.000522	20.787773
1973.551925	-3.002000	3.314500	-9.948900	26.390175	0.000522	20.794859
1974.555003	-3.007600	3.312900	-9.963200	26.414268	0.000521	20.772133
1975.554860	-2.991800	3.313300	-9.912400	26.451966	0.000521	20.811446
1976.555498	-3.011900	3.312900	-9.976900	26.491415	0.000521	20.802733
1977.561687	-3.000600	3.311800	-9.936200	26.484136	0.000519	20.781193
1978.555007	-3.025100	3.310900	-10.015000	26.490715	0.000519	20.777848
1979.556780	-2.992200	3.313400	-9.913400	26.493394	0.000519	20.781963
1980.556107	-3.015500	3.309000	-9.977400	26.453212	0.000518	20.780455
1981.558115	-2.998800	3.311900	-9.929900	26.405084	0.000519	20.789455
1982.558385	-3.001400	3.310400	-9.935000	26.373298	0.000516	20.775526
1983.558545	-3.003300	3.311700	-9.944900	26.393635	0.000514	20.784586
1984.571376	-3.016400	3.310200	-9.983800	26.402127	0.000516	20.775577
1985.562722	-2.976900	3.311100	-9.855500	26.383542	0.000516	20.781080
1986.561551	-2.998900	3.309700	-9.924300	26.370357	0.000516	20.782528
1987.564449	-2.997900	3.308400	-9.917700	26.345993	0.000513	20.787439
1988.564956	-3.004500	3.308900	-9.939800	26.364586	0.000513	20.768193
1989.563434	-2.995900	3.309100	-9.912200	26.332739	0.000515	20.775067
1990.568191	-3.018900	3.307900	-9.985000	26.379320	0.000514	20.769724
1991.564414	-3.008900	3.307600	-9.951600	26.393625	0.000513	20.781257
1992.562544	-3.026500	3.307200	-10.008000	26.413784	0.000510	20.769750
1993.563988	-2.988500	3.307000	-9.882000	26.386599	0.000512	20.777040
1994.564080	-3.000400	3.306000	-9.917000	26.325771	0.000510	20.755736
1995.563840	-2.987600	3.308300	-9.882700	26.310775	0.000511	20.782865
1996.564442	-2.983900	3.306500	-9.865300	26.313647	0.000509	20.775320
1997.566949	-3.001600	3.305400	-9.920600	26.333067	0.000509	20.763068
1998.564466	-3.033800	3.303500	-10.020000	26.356580	0.000511	20.774372
1999.570210	-3.008200	3.304000	-9.936900	26.345973	0.000509	20.768927
2000.565634	-2.986200	3.304800	-9.867800	26.388931	0.000507	20.756624
2001.563831	-3.007400	3.303100	-9.932400	26.437395	0.000508	20.787792
2002.568089	-2.995500	3.303600	-9.894000	26.461724	0.000508	20.786640
2003.567366	-2.989600	3.303700	-9.875900	26.523444	0.000507	20.766649
2004.564344	-3.011800	3.304500	-9.950100	26.534116	0.000507	20.789231
2005.569992	-3.011800	3.303400	-9.948900	26.562611	0.000507	20.781839
2006.564412	-3.010600	3.303000	-9.942400	26.549100	0.000505	20.763515
2007.565640	-2.999600	3.302900	-9.906300	26.529264	0.000505	20.763016
2008.565117	-3.012100	3.301200	-9.941500	26.543440	0.000505	20.764938
2009.567164	-3.011200	3.302400	-9.943100	26.550734	0.000503	20.790288
2010.574624	-2.988000	3.301200	-9.863300	26.507783	0.000503	20.768926
2011.565565	-3.009800	3.299500	-9.930600	26.552823	0.000503	20.781957
2012.571286	-2.999400	3.301000	-9.899400	26.581419	0.000500	20.785098
2013.569053	-3.002700	3.301100	-9.911300	26.604481	0.000502	20.771296
2014.567251	-2.995500	3.299500	-9.882800	26.590701	0.000501	20.760289
2015.569258	-2.991900	3.299800	-9.872300	26.537881	0.000500	20.778790
2016.568131	-2.984300	3.299400	-9.845400	26.513074	0.000500	20.764760
2017.569304	-2.983800	3.300500	-9.847300	26.454950	0.000500	20.766555
2018.568821	-3.016600	3.298200	-9.948200	26.457561	0.000499	20.773921
2019.569057	-3.017700	3.299700	-9.956400	26.435136	0.000498	20.774141
2020.569787	-2.997700	3.297900	-9.884500	26.409063	0.000498	20.777333
2021.569979	-3.015600	3.298000	-9.944100	26.401600	0.000498	20.750865
2022.572485	-3.007300	3.296200	-9.911600	26.391145	0.000498	20.749841
2023.572973	-3.013200	3.297300	-9.934700	26.387489	0.000497	20.794056
2024.569130	-3.008300	3.296500	-9.913500	26.342442	0.000495	20.764903
2025.569889	-2.997500	3.296300	-9.880000	26.305313	0.000495	20.773582
2026.568936	-3.026900	3.295100	-9.972900	26.301741	0.000494	20.773785
2027.569807	-3.007300	3.294900	-9.908400	26.312364	0.000495	20.769289
2028.572467	-3.002300	3.295700	-9.893300	26.335483	0.000497	20.756961
2029.572402	-3.005600	3.295100	-9.902800	26.358356	0.000494	20.763828
2030.572058	-2.999800	3.294500	-9.882500	26.375154	0.000494	20.758425
2031.571058	-2.984800	3.294700	-9.833200	26.432491	0.000492	20.777172
2032.571658	-3.004700	3.293300	-9.894000	26.462774	0.000490	20.747866
2033.571984	-2.987400	3.293600	-9.838600	26.431345	0.000487	20.766537
2034.572888	-3.000300	3.294500	-9.882500	26.429028	0.000489	20.762311
2035.570497	-2.990600	3.293400	-9.848100	26.415068	0.000488	20.764877
2036.572857	-3.016700	3.292000	-9.930400	26.406577	0.000489	20.764877
2037.572874	-3.007100	3.291100	-9.895500	26.433467	0.000487	20.771041
2038.577010	-3.018200	3.291300	-9.932000	26.410645	0.000487	20.783191
2039.572274	-3.016400	3.291000	-9.925600	26.398969	0.000487	20.755333
2040.574347	-3.004100	3.290000	-9.882200	26.386105	0.000483	20.750465
2041.572752	-3.035200	3.290500	-9.986400	26.394841	0.000486	20.757822
2042.572112	-3.018100	3.289400	-9.927100	26.438638	0.000485	20.753953
2043.572437	-2.996400	3.291100	-9.859900	26.468130	0.000485	20.783122
2044.572666	-3.024300	3.289900	-9.948900	26.492845	0.000484	20.770031
2045.573070	-3.032700	3.288700	-9.972800	26.506525	0.000483	20.732097
2046.572423	-3.004100	3.288800	-9.878100	26.511613	0.000482	20.769455
2047.572010	-3.017700	3.288600	-9.923500	26.536823	0.000481	20.759709
2048.573286	-3.009900	3.287500	-9.893900	26.540252	0.000480	20.741343
2049.573996	-3.007400	3.287100	-9.884500	26.569858	0.000482	20.760200
2050.575708	-3.000300	3.286700	-9.859800	26.573050	0.000480	20.769572
2051.575163	-3.000700	3.286500	-9.860200	26.584783	0.000480	20.751968
2052.574727	-3.000200	3.286100	-9.858300	26.603262	0.000477	20.746362
2053.574223	-3.005300	3.286200	-9.874500	26.609226	0.000480	20.743348
2054.575473	-2.992400	3.286900	-9.834400	26.588463	0.000477	20.773686
2055.576566	-3.007600	3.286500	-9.883200	26.620519	0.000478	20.769401
2056.576847	-3.012500	3.285100	-9.895600	26.609308	0.000477	20.764294
2057.576482	-3.018500	3.284800	-9.912700	26.586768	0.000477	20.761551
2058.578530	-2.998600	3.284600	-9.848200	26.588394	0.000475	20.767926
2059.576787	-3.018300	3.283300	-9.908700	26.593304	0.000473	20.757689
2060.577412	-3.004400	3.285700	-9.870200	26.587879	0.000475	20.752236
2061.578449	-3.011800	3.284100	-9.889900	26.626547	0.000474	20.737053
2062.582125	-2.981100	3.285700	-9.794600	26.688325	0.000472	20.763124
2063.581898	-2.980800	3.284200	-9.788900	26.696460	0.000472	20.754707
2064.581154	-2.996200	3.284300	-9.838300	26.718340	0.000471	20.756789
2065.584108	-3.004800	3.283700	-9.865700	26.701521	0.000471	20.746992
2066.580520	-2.985500	3.282900	-9.799800	26.694345	0.000471	20.761590
2067.584524	-3.000500	3.282800	-9.848700	26.658719	0.000472	20.751852
2068.584759	-3.025500	3.281000	-9.925600	26.673196	0.000470	20.729895
2069.582994	-3.012700	3.280600	-9.882700	26.681231	0.000469	20.759311
2070.582298	-3.007600	3.279600	-9.862800	26.681871	0.000468	20.748574
2071.585497	-3.004400	3.281300	-9.857300	26.736175	0.000466	20.742477
2072.583851	-3.005600	3.279800	-9.856100	26.757414	0.000466	20.734433
2073.581979	-3.019600	3.280600	-9.905300	26.728536	0.000464	20.760402
2074.585255	-3.018400	3.278400	-9.894900	26.699059	0.000466	20.769648
2075.584204	-3.022200	3.278200	-9.906200	26.709199	0.000465	20.746650
2076.582608	-3.016000	3.277700	-9.884100	26.720366	0.000466	20.740808
2077.583466	-2.996000	3.278900	-9.822900	26.670987	0.000463	20.758970
2078.588225	-3.000600	3.278600	-9.836600	26.590770	0.000465	20.749452
2079.583993	-2.990800	3.276500	-9.798700	26.587199	0.000464	20.764355
2080.583725	-2.979100	3.277800	-9.763800	26.592943	0.000461	20.771552
2081.584894	-2.993700	3.276400	-9.807700	26.602494	0.000462	20.765980
2082.583296	-2.989800	3.276300	-9.794600	26.609140	0.000460	20.754168
2083.583646	-2.990200	3.277900	-9.801200	26.628899	0.000461	20.761704
2084.584383	-3.013400	3.275800	-9.869400	26.601163	0.000459	20.770332
2085.583077	-3.020900	3.275800	-9.894500	26.596682	0.000459	20.764404
2086.582482	-2.989600	3.276500	-9.794400	26.589927	0.000462	20.768045
2087.585063	-3.010200	3.275600	-9.859100	26.594071	0.000459	20.743286
2088.587834	-3.007300	3.274600	-9.847200	26.581959	0.000459	20.764777
2089.588684	-2.991000	3.273900	-9.791100	26.566586	0.000458	20.748850
2090.589032	-3.005200	3.272300	-9.831400	26.544484	0.000456	20.761720
2091.588778	-3.001900	3.274200	-9.827200	26.520940	0.000459	20.777409
2092.589978	-2.995400	3.271400	-9.798300	26.524958	0.000456	20.757740
2093.586411	-2.995600	3.271400	-9.797700	26.528016	0.000455	20.769823
2094.590333	-2.978200	3.273900	-9.750100	26.518927	0.000454	20.771118
2095.586997	-2.996800	3.273000	-9.806400	26.519997	0.000455	20.765555
2096.587399	-3.001100	3.270800	-9.815200	26.511582	0.000453	20.774640
2097.589129	-3.015400	3.270700	-9.860900	26.555518	0.000451	20.767121
2098.586980	-3.012600	3.269600	-9.849100	26.580711	0.000452	20.770635
2099.585634	-2.987200	3.271000	-9.770400	26.636748	0.000451	20.778129
2100.593200	-2.992500	3.270200	-9.784500	26.685050	0.000452	20.773108
2101.588318	-3.000800	3.270100	-9.811300	26.643722	0.000449	20.755741
2102.587209	-2.993600	3.269800	-9.786600	26.603057	0.000448	20.771761
2103.590981	-3.018800	3.269700	-9.869200	26.599309	0.000447	20.778425
2104.598141	-3.014900	3.268100	-9.852200	26.609829	0.000448	20.770982
2105.589260	-3.001200	3.268800	-9.809800	26.631029	0.000448	20.767638
2106.591022	-3.011600	3.267400	-9.839300	26.654814	0.000447	20.762151
2107.589142	-2.996600	3.268000	-9.791700	26.687947	0.000446	20.779813
2108.588741	-3.016200	3.267000	-9.852800	26.738141	0.000446	20.762947
2109.592598	-3.004500	3.266400	-9.813200	26.748626	0.000444	20.773014
2110.592061	-3.008500	3.265200	-9.822400	26.708471	0.000444	20.777688
2111.593912	-2.991800	3.265800	-9.770000	26.692478	0.000442	20.777256
2112.590998	-2.975800	3.265500	-9.716600	26.656776	0.000443	20.770287
2113.594472	-3.015000	3.265500	-9.844800	26.607799	0.000441	20.768467
2114.590668	-2.993800	3.264000	-9.770100	26.595729	0.000442	20.782886
2115.592623	-3.027900	3.264800	-9.883800	26.591239	0.000440	20.788805
2116.592503	-2.982000	3.264600	-9.734000	26.540743	0.000441	20.788305
2117.595235	-3.000700	3.263800	-9.792300	26.541012	0.000439	20.787154
2118.595978	-3.012500	3.262200	-9.826000	26.557682	0.000440	20.783047
2119.593861	-3.004300	3.264000	-9.804600	26.580601	0.000439	20.781904
2120.599202	-2.996900	3.264400	-9.781900	26.598154	0.000439	20.771100
2121.595113	-2.991900	3.262500	-9.759600	26.617889	0.000437	20.788094
2122.594666	-2.999100	3.262700	-9.784300	26.656531	0.000436	20.778576
2123.598767	-3.016400	3.261400	-9.836600	26.681494	0.000436	20.779016
2124.594498	-3.014700	3.261700	-9.831800	26.697976	0.000436	20.804121
2125.595057	-3.015700	3.259900	-9.829000	26.702490	0.000435	20.780210
2126.594891	-3.017500	3.262200	-9.842800	26.742949	0.000434	20.783428
2127.596643	-2.974400	3.261800	-9.700600	26.759186	0.000435	20.774148
2128.594093	-3.010100	3.259700	-9.810500	26.784719	0.000432	20.804087
2129.595911	-3.013700	3.260100	-9.823900	26.768778	0.000432	20.779050
2130.597406	-3.016500	3.260200	-9.832400	26.711982	0.000430	20.775527
2131.596960	-2.981400	3.260600	-9.719400	26.737449	0.000432	20.795442
2132.597107	-2.987500	3.258900	-9.734500	26.764154	0.000429	20.797161
2133.598281	-3.009400	3.257300	-9.800400	26.751446	0.000428	20.784384
2134.601306	-2.985600	3.256800	-9.722300	26.740153	0.000430	20.778245
2135.598998	-3.004500	3.257400	-9.785600	26.699744	0.000429	20.784088
2136.600877	-3.016700	3.255800	-9.821100	26.711476	0.000430	20.790192
2137.600378	-3.001900	3.258000	-9.779100	26.731949	0.000429	20.790861
2138.602147	-2.995900	3.256600	-9.755100	26.767042	0.000426	20.798642
2139.597074	-2.995200	3.256400	-9.751500	26.816433	0.000428	20.788084
2140.601675	-3.027900	3.254900	-9.855000	26.867514	0.000426	20.827116
2141.598518	-3.025700	3.254600	-9.846400	26.900371	0.000424	20.807050
2142.601553	-3.001400	3.255700	-9.769500	26.949487	0.000425	20.810445
2143.601197	-3.011100	3.253400	-9.795400	26.964297	0.000425	20.801157
2144.599584	-2.997100	3.254000	-9.751800	26.968423	0.000422	20.791555
2145.603984	-2.998700	3.254800	-9.758400	26.974401	0.000424	20.804679
2146.599058	-2.997300	3.253200	-9.748600	26.979537	0.000421	20.814585
2147.599148	-3.007000	3.253100	-9.780300	26.991805	0.000421	20.810327
2148.600210	-2.993300	3.253300	-9.736100	26.977424	0.000421	20.819098
2149.601534	-3.015200	3.252200	-9.804200	26.987469	0.000421	20.797905
2150.600869	-3.022400	3.250800	-9.824300	26.976380	0.000419	20.808091
2151.600115	-3.001800	3.251200	-9.757900	26.996360	0.000422	20.809691
2152.602417	-3.002100	3.251400	-9.758700	26.960870	0.000418	20.806245
2153.600918	-3.011900	3.249800	-9.786500	26.926525	0.000420	20.816279
2154.601565	-2.990600	3.251000	-9.721900	26.903243	0.000418	20.816575
2155.602087	-2.989900	3.249800	-9.715200	26.865426	0.000418	20.818853
2156.601715	-2.988900	3.250200	-9.713400	26.838867	0.000417	20.815855
2157.603115	-3.000800	3.247000	-9.743000	26.813031	0.000417	20.833974
2158.603770	-3.000800	3.248200	-9.746300	26.799346	0.000416	20.821638
2159.603921	-3.015000	3.247100	-9.788900	26.809654	0.000413	20.800234
2160.602994	-2.990400	3.247500	-9.710800	26.827296	0.000415	20.832670
2161.604428	-3.016200	3.248100	-9.795800	26.865939	0.000413	20.807041
2162.605190	-3.006100	3.246700	-9.757500	26.865721	0.000413	20.829106
2163.604664	-2.994300	3.247000	-9.721000	26.825561	0.000412	20.821918
2164.606853	-2.992900	3.247900	-9.719100	26.828012	0.000411	20.821062
2165.605723	-2.987900	3.245000	-9.694600	26.821982	0.000409	20.826854
2166.604400	-3.006600	3.246200	-9.759200	26.854420	0.000411	20.811579
2167.605868	-3.010900	3.244300	-9.767500	26.875615	0.000410	20.855175
2168.607777	-2.994700	3.244700	-9.715700	26.891546	0.000408	20.837056
2169.605967	-2.991000	3.245900	-9.707700	26.897660	0.000407	20.837988
2170.607574	-2.986000	3.242700	-9.681300	26.896035	0.000407	20.821655
2171.606354	-2.996200	3.243600	-9.717900	26.917229	0.000408	20.826371
2172.608265	-2.979500	3.245700	-9.668600	26.927131	0.000405	20.833957
2173.606420	-3.006100	3.241500	-9.742900	26.934456	0.000404	20.856970
2174.606662	-3.025500	3.241500	-9.806600	26.964887	0.000405	20.829724
2175.605825	-3.008800	3.241000	-9.750600	27.002969	0.000403	20.835777
2176.605655	-2.996800	3.241000	-9.711900	27.053317	0.000402	20.832831
2177.607957	-3.017000	3.240900	-9.775600	27.088215	0.000400	20.832840
2178.607367	-3.009100	3.240600	-9.750600	27.108167	0.000400	20.832518
2179.609336	-2.993300	3.240300	-9.697500	27.157761	0.000400	20.830714
2180.608081	-3.000800	3.238600	-9.715500	27.144687	0.000402	20.843169
2181.608581	-3.000600	3.239600	-9.720400	27.149233	0.000400	20.843000
2182.610038	-2.988800	3.237800	-9.675600	27.159773	0.000399	20.830841
2183.613019	-2.996200	3.238400	-9.702600	27.190349	0.000398	20.839782
2184.609258	-3.019200	3.239000	-9.778100	27.205408	0.000398	20.849240
2185.609317	-3.005100	3.237500	-9.727900	27.161491	0.000397	20.854853
2186.609951	-3.020000	3.236300	-9.773300	27.173007	0.000398	20.845574
2187.610337	-2.989700	3.236600	-9.675400	27.172754	0.000397	20.854802
2188.611151	-2.996400	3.233900	-9.687500	27.171441	0.000395	20.844947
2189.616891	-2.992100	3.235500	-9.679800	27.187941	0.000396	20.845421
2190.613288	-3.001900	3.235000	-9.709100	27.224492	0.000393	20.814856
2191.611844	-2.986800	3.233600	-9.657300	27.219509	0.000393	20.847775
2192.618837	-2.979000	3.234500	-9.634300	27.193556	0.000391	20.857232
2193.614613	-2.985900	3.233900	-9.655200	27.173756	0.000392	20.852017
2194.616415	-2.985900	3.234000	-9.655400	27.178790	0.000391	20.852339
2195.613286	-2.981000	3.233800	-9.638000	27.173681	0.000389	20.854786
2196.615505	-3.011400	3.232500	-9.733100	27.173386	0.000390	20.854963
2197.612509	-3.005800	3.233100	-9.714700	27.174674	0.000390	20.878068
2198.615695	-2.999600	3.231800	-9.691500	27.163957	0.000387	20.865868
2199.611885	-3.000100	3.231300	-9.693600	27.146860	0.000386	20.878543
2200.614417	-2.989300	3.231600	-9.659200	27.131580	0.000386	20.863176
2201.626487	-2.973800	3.231500	-9.608600	27.129400	0.000385	20.869043
2202.614841	-3.000900	3.230600	-9.693100	27.153216	0.000385	20.868815
2203.616086	-2.996500	3.230100	-9.677800	27.186182	0.000385	20.851712
2204.617735	-3.005600	3.229400	-9.704600	27.216259	0.000383	20.859205
2205.613329	-3.029100	3.228200	-9.777300	27.250772	0.000381	20.857884
2206.617127	-2.997100	3.230100	-9.680700	27.262338	0.000382	20.868569
2207.619059	-2.992900	3.228400	-9.661400	27.270158	0.000381	20.880227
2208.616437	-3.013900	3.227600	-9.726000	27.256749	0.000379	20.868637
2209.618862	-2.994700	3.227500	-9.663900	27.242144	0.000379	20.873861
2210.617351	-2.988000	3.226300	-9.638700	27.194221	0.000379	20.875918
2211.616858	-3.013200	3.226100	-9.718600	27.124550	0.000377	20.881709
2212.618078	-3.013200	3.225200	-9.717000	27.090488	0.000377	20.878272
2213.617773	-2.997000	3.227200	-9.669900	27.071554	0.000376	20.864920
2214.618747	-3.005500	3.224700	-9.691300	27.090564	0.000376	20.875029
2215.619124	-2.967300	3.226700	-9.573300	27.134232	0.000375	20.878644
2216.620070	-3.002500	3.223200	-9.677100	27.142398	0.000374	20.874055
2217.620906	-3.017400	3.223400	-9.725400	27.153064	0.000376	20.882412
2218.619768	-2.978600	3.223800	-9.601300	27.115887	0.000374	20.866833
2219.621387	-3.003600	3.224600	-9.685100	27.065542	0.000373	20.892063
2220.623721	-3.003500	3.221900	-9.675700	27.057695	0.000372	20.893655
2221.619733	-2.970800	3.223600	-9.574700	27.084881	0.000372	20.872633
2222.620468	-3.005700	3.221300	-9.680900	27.069137	0.000372	20.893782
2223.620047	-2.989100	3.222000	-9.629300	27.057308	0.000370	20.888999
2224.620644	-2.996200	3.221200	-9.650500	27.040950	0.000370	20.891987
2225.620344	-3.017400	3.219700	-9.713200	27.018192	0.000373	20.881429
2226.620865	-2.995300	3.220300	-9.644500	27.038693	0.000371	20.890192
2227.620124	-2.970700	3.220400	-9.565000	27.069541	0.000369	20.882336
2228.620056	-3.007000	3.217900	-9.675600	27.093140	0.000367	20.890421
2229.621838	-2.995100	3.218600	-9.639400	27.133053	0.000367	20.895001
2230.623892	-3.002800	3.217800	-9.660600	27.163949	0.000368	20.884825
2231.620883	-2.988900	3.217100	-9.614800	27.180533	0.000366	20.886332
2232.622598	-2.991900	3.217600	-9.625700	27.185138	0.000364	20.894281
2233.620037	-3.013900	3.217100	-9.695000	27.171046	0.000364	20.893858
2234.622462	-2.991600	3.216900	-9.622200	27.168343	0.000364	20.904890
2235.624347	-3.003400	3.215400	-9.656000	27.158536	0.000364	20.905931
2236.622092	-3.023300	3.215800	-9.721500	27.114271	0.000364	20.899818
2237.620566	-3.011500	3.215000	-9.681000	27.118842	0.000361	20.883081
2238.625899	-3.016600	3.214600	-9.695800	27.127152	0.000362	20.896178
2239.620408	-3.013900	3.213900	-9.685600	27.156776	0.000362	20.888042
2240.622268	-3.003900	3.214100	-9.653900	27.196426	0.000360	20.884300
2241.621624	-3.029100	3.212100	-9.727400	27.232674	0.000360	20.904162
2242.625590	-3.005200	3.212300	-9.653000	27.282144	0.000361	20.886594
2243.627883	-3.012900	3.211600	-9.675500	27.280402	0.000362	20.907599
2244.620800	-3.004300	3.212700	-9.649000	27.294669	0.000359	20.898718
2245.622941	-3.020600	3.210300	-9.696500	27.353463	0.000357	20.909969
2246.625392	-3.002500	3.212500	-9.644600	27.343144	0.000357	20.900064
2247.622098	-3.017200	3.210600	-9.685600	27.351030	0.000357	20.916056
2248.623835	-3.008100	3.211100	-9.658500	27.320586	0.000357	20.902028
2249.625134	-3.013800	3.208500	-9.668100	27.272674	0.000356	20.913102
2250.623515	-3.007300	3.210100	-9.653000	27.269383	0.000355	20.908843
2251.632220	-2.990400	3.207600	-9.590500	27.236832	0.000352	20.912611
2252.627480	-2.994500	3.207800	-9.605200	27.283163	0.000353	20.922228
2253.627186	-2.987500	3.209900	-9.588900	27.332067	0.000353	20.922584
2254.625552	-3.004500	3.206800	-9.632900	27.350491	0.000353	20.909351
2255.626626	-2.982200	3.207600	-9.564300	27.356694	0.000351	20.932184
2256.624160	-2.999100	3.208700	-9.621800	27.344642	0.000350	20.913897
2257.626439	-2.998400	3.206700	-9.613800	27.325930	0.000351	20.916412
2258.629550	-2.983500	3.207000	-9.567400	27.302868	0.000349	20.923557
2259.627003	-3.017700	3.203800	-9.667100	27.320005	0.000352	20.922778
2260.625947	-2.997700	3.205500	-9.608200	27.330324	0.000351	20.918935
2261.625787	-2.991100	3.205200	-9.585300	27.321023	0.000349	20.917639
2262.626270	-3.001900	3.204600	-9.618400	27.299366	0.000349	20.917665
2263.629147	-2.993500	3.205000	-9.593800	27.270309	0.000348	20.932531
2264.627623	-3.030300	3.202300	-9.702300	27.260267	0.000348	20.926224
2265.627856	-3.004300	3.202200	-9.619700	27.261757	0.000347	20.920137
2266.629278	-3.005600	3.201200	-9.620400	27.270166	0.000347	20.939025
2267.627655	-2.997400	3.202100	-9.597300	27.249922	0.000347	20.926249
2268.628841	-2.994700	3.200900	-9.584300	27.262674	0.000346	20.923904
2269.630653	-2.979100	3.200800	-9.533700	27.305519	0.000345	20.931439
2270.631989	-2.991500	3.201200	-9.575100	27.338565	0.000345	20.946187
2271.633721	-2.990200	3.201000	-9.570600	27.382332	0.000344	20.931896
2272.631864	-3.001300	3.199500	-9.601300	27.422723	0.000341	20.950242
2273.634761	-2.986900	3.198700	-9.553700	27.399544	0.000342	20.925504
2274.634325	-2.997100	3.198200	-9.584500	27.369371	0.000342	20.943038
2275.631515	-3.005700	3.200200	-9.618100	27.411091	0.000340	20.943757
2276.631264	-3.004300	3.198000	-9.605400	27.393796	0.000339	20.931575
2277.636360	-3.022600	3.196200	-9.659900	27.367637	0.000340	20.940346
2278.632035	-3.047800	3.195500	-9.738700	27.359599	0.000337	20.946958
2279.631874	-3.001600	3.195900	-9.592500	27.369640	0.000338	20.956583
2280.635228	-3.011300	3.196500	-9.624000	27.393232	0.000337	20.935275
2281.632776	-2.977300	3.196900	-9.517500	27.451456	0.000337	20.938847
2282.632183	-2.997100	3.194700	-9.572700	27.440448	0.000335	20.943419
2283.638571	-2.990300	3.195400	-9.554200	27.449672	0.000333	20.945112
2284.634717	-2.990500	3.194800	-9.554100	27.448855	0.000334	20.947136
2285.636490	-3.020900	3.193700	-9.646700	27.391406	0.000333	20.920163
2286.638884	-2.992000	3.193900	-9.554100	27.325813	0.000332	20.935258
2287.636152	-3.006300	3.192000	-9.595100	27.284956	0.000333	20.948211
2288.638120	-2.987700	3.193000	-9.538900	27.253542	0.000331	20.930364
2289.638899	-2.990700	3.192300	-9.545200	27.284358	0.000331	20.939550
2290.637376	-2.984300	3.190300	-9.519800	27.343632	0.000331	20.941802
2291.637760	-3.001800	3.189900	-9.574800	27.336654	0.000328	20.937154
2292.646449	-3.000500	3.190500	-9.572900	27.391608	0.000330	20.910884
2293.641331	-3.008300	3.188100	-9.590100	27.432402	0.000328	20.931533
2294.637704	-2.993800	3.188000	-9.542900	27.482485	0.000326	20.920281
2295.637818	-2.989000	3.187700	-9.527100	27.502902	0.000328	20.924226
2296.637391	-2.995300	3.189300	-9.551700	27.517453	0.000329	20.917530
2297.640054	-2.996100	3.188300	-9.551400	27.517604	0.000326	20.922897
2298.640278	-2.995800	3.187400	-9.546700	27.509634	0.000324	20.902553
2299.641007	-2.995000	3.189200	-9.550100	27.501724	0.000326	20.922567
2300.640064	-3.004600	3.187100	-9.574500	27.509963	0.000325	20.919951
2301.640812	-2.983300	3.186900	-9.506400	27.546814	0.000322	20.913881
2302.644886	-3.017500	3.184000	-9.606800	27.556786	0.000323	20.915379
2303.642102	-2.990100	3.185500	-9.524200	27.552595	0.000321	20.915904
2304.642319	-3.039200	3.182000	-9.669500	27.546831	0.000321	20.923379
2305.644831	-3.015400	3.183000	-9.596500	27.564671	0.000322	20.912882
2306.641789	-3.009400	3.181800	-9.574500	27.573095	0.000321	20.906659
2307.642625	-3.013200	3.180600	-9.582600	27.585078	0.000320	20.905914
2308.646943	-2.999600	3.182200	-9.544800	27.577958	0.000320	20.922457
2309.646482	-3.005500	3.181000	-9.559200	27.637031	0.000320	20.902239
2310.647667	-2.983300	3.181900	-9.491700	27.637847	0.000320	20.917284
2311.644430	-2.999600	3.181500	-9.542500	27.648954	0.000320	20.913288
2312.647905	-3.018700	3.178700	-9.594800	27.686204	0.000318	20.914261
2313.645684	-2.985800	3.179800	-9.492700	27.670873	0.000317	20.928230
2314.646388	-3.013600	3.177900	-9.574900	27.706785	0.000317	20.891351
2315.649295	-2.977200	3.180600	-9.468200	27.729798	0.000317	20.893646
2316.647393	-3.007800	3.178500	-9.559800	27.653136	0.000316	20.908961
2317.646533	-3.008600	3.176700	-9.556500	27.641482	0.000316	20.909088
2318.646428	-3.003300	3.177000	-9.539500	27.650485	0.000313	20.897286
2319.647921	-2.977200	3.176900	-9.457500	27.660431	0.000315	20.902552
2320.647002	-2.996900	3.174600	-9.512100	27.607335	0.000315	20.890852
2321.648582	-2.990400	3.175200	-9.493700	27.547209	0.000314	20.887254
2322.651222	-2.997900	3.174000	-9.514700	27.518605	0.000312	20.887872
2323.646800	-2.969900	3.174200	-9.426300	27.496581	0.000312	20.903644
2324.648526	-2.993800	3.176600	-9.509300	27.504231	0.000310	20.887635
2325.647931	-3.023600	3.173400	-9.594300	27.451893	0.000311	20.893299
2326.653904	-3.000800	3.172500	-9.518800	27.427132	0.000309	20.881666
2327.648933	-2.999100	3.171200	-9.509900	27.411015	0.000311	20.890581
2328.652674	-2.991100	3.171500	-9.484600	27.446709	0.000310	20.908944
2329.648752	-2.990900	3.172800	-9.488800	27.502683	0.000309	20.879913
2330.649809	-2.983100	3.170600	-9.457200	27.550634	0.000309	20.877424
2331.654569	-3.029100	3.168000	-9.595500	27.586146	0.000306	20.875697
2332.648696	-3.011500	3.169400	-9.543500	27.568912	0.000306	20.890598
2333.650749	-2.983700	3.170100	-9.457900	27.553765	0.000306	20.912813
2334.650275	-3.000000	3.169400	-9.507800	27.492180	0.000304	20.900165
2335.650815	-2.988200	3.167400	-9.463500	27.417504	0.000301	20.881463
2336.651143	-3.007900	3.166000	-9.522500	27.403811	0.000301	20.893764
2337.649571	-2.985700	3.166300	-9.452200	27.412690	0.000301	20.873775
2338.649491	-2.994600	3.165900	-9.480100	27.436550	0.000300	20.888295
2339.649039	-2.988900	3.165100	-9.459900	27.493846	0.000301	20.890936
2340.656935	-3.007500	3.163900	-9.514200	27.555658	0.000301	20.893383
2341.650646	-3.014200	3.163200	-9.532200	27.591085	0.000302	20.881141
2342.650915	-3.000700	3.164500	-9.494800	27.613452	0.000300	20.880412
2343.649548	-2.996200	3.163300	-9.476300	27.629617	0.000298	20.902365
2344.651868	-3.012700	3.162000	-9.524800	27.621631	0.000299	20.888642
2345.650881	-3.012400	3.159500	-9.517000	27.651578	0.000299	20.901231
2346.651221	-3.015500	3.160500	-9.529500	27.650316	0.000300	20.906598
2347.654034	-2.996600	3.159600	-9.467100	27.658588	0.000297	20.888845
2348.654702	-3.013600	3.158600	-9.517800	27.690722	0.000296	20.868550
2349.653669	-3.026000	3.158200	-9.554900	27.670401	0.000297	20.873232
2350.652135	-3.012600	3.157400	-9.510700	27.598549	0.000297	20.881538
2351.652964	-2.987000	3.159200	-9.436000	27.546190	0.000295	20.876746
2352.655622	-2.995600	3.156700	-9.454900	27.527432	0.000297	20.861667
2353.653220	-3.001700	3.158200	-9.479100	27.471913	0.000295	20.871242
2354.654797	-2.975600	3.157200	-9.394000	27.438375	0.000293	20.876382
2355.657696	-3.020000	3.155400	-9.527300	27.407386	0.000294	20.885508
2356.655149	-3.012900	3.154700	-9.504000	27.423950	0.000295	20.864240
2357.655291	-3.009000	3.155200	-9.493100	27.426702	0.000292	20.858001
2358.660233	-2.981600	3.155500	-9.407800	27.419674	0.000295	20.880327
2359.657131	-2.985900	3.153900	-9.415100	27.470398	0.000293	20.869718
2360.656857	-3.001500	3.153400	-9.463200	27.524738	0.000290	20.881715
2361.659498	-2.983900	3.152600	-9.405800	27.562641	0.000292	20.857264
2362.658465	-2.985900	3.153200	-9.413600	27.580498	0.000290	20.867170
2363.658330	-2.969100	3.153800	-9.363000	27.564349	0.000291	20.866094
2364.664518	-2.989700	3.151400	-9.420700	27.602562	0.000290	20.848120
2365.662072	-2.998600	3.149700	-9.444400	27.646285	0.000291	20.862242
2366.660297	-3.001400	3.149200	-9.451600	27.667868	0.000289	20.874950
2367.661321	-3.008600	3.149200	-9.473200	27.658713	0.000289	20.871428
2368.662402	-3.015100	3.147700	-9.489800	27.667220	0.000288	20.889470
2369.659210	-3.011400	3.145800	-9.472300	27.709283	0.000289	20.857831
2370.665122	-3.013300	3.146300	-9.479700	27.695214	0.000287	20.870700
2371.659143	-2.986600	3.146600	-9.397000	27.706363	0.000287	20.879548
2372.658482	-2.994500	3.145000	-9.416600	27.667262	0.000286	20.853953
2373.660250	-2.981400	3.145000	-9.374900	27.634580	0.000287	20.882232
2374.660205	-2.975600	3.145400	-9.358800	27.644896	0.000286	20.859423
2375.661871	-2.999300	3.142800	-9.425500	27.664603	0.000288	20.861235
2376.661766	-3.012900	3.141400	-9.462500	27.709367	0.000285	20.867398
2377.663240	-2.979900	3.143100	-9.364600	27.710789	0.000285	20.879734
2378.664098	-3.027300	3.140300	-9.504100	27.766110	0.000286	20.869024
2379.661853	-3.006000	3.140800	-9.440700	27.769610	0.000283	20.855951
2380.666325	-2.996200	3.140500	-9.408600	27.799124	0.000283	20.858627
2381.665111	-3.013500	3.138300	-9.456500	27.789625	0.000283	20.863766
2382.664180	-2.993700	3.137400	-9.391000	27.825853	0.000283	20.869879
2383.665008	-2.996100	3.138700	-9.403200	27.862029	0.000280	20.871674
2384.665621	-2.989500	3.138100	-9.380700	27.857830	0.000281	20.851329
2385.666623	-3.021000	3.135300	-9.470800	27.872040	0.000279	20.870370
2386.665964	-2.992500	3.137700	-9.388800	27.847861	0.000280	20.861683
2387.665378	-3.018700	3.133600	-9.458500	27.837522	0.000280	20.859338
2388.665289	-3.015700	3.135100	-9.452700	27.767127	0.000281	20.871470
2389.667006	-3.008900	3.134000	-9.429000	27.704276	0.000280	20.869388
2390.665590	-3.006000	3.132500	-9.414700	27.690401	0.000279	20.854478
2391.666327	-2.995500	3.132300	-9.382100	27.718908	0.000279	20.855663
2392.666378	-3.006100	3.131400	-9.412000	27.744503	0.000280	20.877626
2393.668209	-3.000400	3.131100	-9.393400	27.698319	0.000278	20.872876
2394.666855	-3.018900	3.129400	-9.446200	27.700666	0.000277	20.863859
2395.665342	-2.971500	3.130000	-9.300000	27.646823	0.000277	20.863258
2396.667968	-3.007500	3.128600	-9.407500	27.668785	0.000275	20.842210
2397.668285	-3.001000	3.128300	-9.387600	27.648321	0.000277	20.861446
2398.668118	-3.016600	3.125600	-9.427000	27.666622	0.000276	20.866111
2399.669725	-3.012400	3.125900	-9.415400	27.698361	0.000277	20.844944
2400.668642	-2.965900	3.125700	-9.269600	27.730098	0.000273	20.863131
2401.669554	-2.998500	3.125000	-9.368800	27.748861	0.000274	20.859727
2402.671298	-3.011200	3.125100	-9.409400	27.720616	0.000275	20.846477
2403.669556	-3.007200	3.124200	-9.394100	27.701895	0.000276	20.861302
2404.669128	-3.005000	3.122800	-9.382700	27.667531	0.000274	20.856595
2405.682046	-3.007600	3.120300	-9.383200	27.637660	0.000272	20.867313
2406.671827	-3.005900	3.122600	-9.385100	27.586077	0.000273	20.843861
2407.671152	-2.989500	3.120000	-9.326300	27.566327	0.000273	20.853860
2408.671059	-3.007100	3.119100	-9.379000	27.542730	0.000271	20.863309
2409.670778	-2.996900	3.118100	-9.344000	27.543546	0.000271	20.843268
2410.671547	-3.010400	3.117900	-9.385500	27.581070	0.000271	20.844039
2411.671135	-2.999300	3.118300	-9.351200	27.572848	0.000271	20.861370
2412.672309	-3.020300	3.114400	-9.405000	27.630221	0.000270	20.838019
2413.671640	-3.026700	3.116300	-9.430900	27.666193	0.000270	20.853826
2414.671594	-3.006200	3.114700	-9.362300	27.716190	0.000268	20.856248
2415.673277	-2.990000	3.115500	-9.313500	27.760245	0.000269	20.861226
2416.672865	-2.986100	3.112300	-9.292800	27.814966	0.000267	20.863190
2417.672700	-2.997700	3.112600	-9.329800	27.809834	0.000268	20.836690
2418.672677	-2.980500	3.111300	-9.270700	27.811752	0.000268	20.849525
2419.672735	-3.014500	3.110300	-9.374600	27.760430	0.000268	20.826800
2420.672904	-2.990800	3.110900	-9.302500	27.758310	0.000268	20.828460
2421.676979	-3.038900	3.108500	-9.445400	27.762710	0.000266	20.831466
2422.674173	-3.006700	3.107800	-9.342600	27.799881	0.000267	20.829993
2423.674728	-3.028400	3.106600	-9.407000	27.814461	0.000265	20.866001
2424.678438	-3.006400	3.105600	-9.336000	27.791889	0.000265	20.828113
2425.675815	-2.981900	3.105700	-9.260000	27.798872	0.000265	20.849365
2426.678589	-2.991900	3.105400	-9.290200	27.819728	0.000266	20.834319
2427.678325	-2.988900	3.105500	-9.281300	27.826888	0.000265	20.834887
2428.675251	-3.023400	3.101500	-9.376100	27.863981	0.000265	20.853725
2429.674437	-3.006000	3.103400	-9.327700	27.869659	0.000264	20.824354
2430.679718	-2.998000	3.102600	-9.300300	27.867421	0.000265	20.838223
2431.676855	-2.984000	3.102000	-9.254500	27.886434	0.000264	20.843133
2432.676752	-2.995600	3.100800	-9.287800	27.897463	0.000263	20.826259
2433.675597	-2.985400	3.099100	-9.251400	27.928850	0.000265	20.836512
2434.675561	-2.995000	3.097900	-9.277100	27.948106	0.000264	20.837402
2435.677058	-3.007200	3.098100	-9.315300	27.974006	0.000265	20.829807
2436.676494	-3.026400	3.095500	-9.366800	27.965788	0.000266	20.831018
2437.678132	-3.002500	3.096700	-9.296200	27.963971	0.000263	20.836775
2438.678341	-3.004300	3.095000	-9.296600	28.002951	0.000264	20.825751
2439.676859	-3.014100	3.095200	-9.327500	27.986532	0.000263	20.828190
2440.677871	-3.010600	3.093200	-9.311400	28.008377	0.000263	20.830738
2441.677857	-3.028700	3.090500	-9.358900	28.004911	0.000263	20.826776
2442.676529	-2.984900	3.092900	-9.231000	27.982418	0.000263	20.836851
2443.678651	-2.992500	3.090200	-9.246100	28.013542	0.000262	20.830721
2444.677587	-2.987500	3.090500	-9.232300	27.988029	0.000262	20.817369
2445.676929	-2.982800	3.089500	-9.214400	27.948552	0.000261	20.818411
2446.680082	-3.016000	3.087100	-9.309100	27.905464	0.000263	20.838578
2447.681978	-3.000400	3.085900	-9.257900	27.876499	0.000262	20.829815
2448.677920	-3.021600	3.085500	-9.321800	27.838591	0.000262	20.835285
2449.681171	-2.990000	3.085300	-9.224200	27.799974	0.000261	20.819181
2450.684334	-3.003300	3.083300	-9.258300	27.766758	0.000261	20.818944
2451.681109	-2.996000	3.083100	-9.236200	27.770839	0.000260	20.820680
2452.682865	-3.014400	3.081400	-9.287700	27.781238	0.000260	20.828774
2453.681109	-3.012300	3.082200	-9.283200	27.822774	0.000260	20.819367
2454.680366	-3.000200	3.080000	-9.239100	27.822252	0.000260	20.826429
2455.680570	-2.998000	3.080600	-9.234000	27.823245	0.000262	20.831695
2456.690922	-3.021300	3.077900	-9.298100	27.822538	0.000260	20.839044
2457.684444	-3.003300	3.078000	-9.243100	27.849687	0.000259	20.816107
2458.681336	-2.997300	3.075400	-9.216900	27.857377	0.000260	20.822424
2459.682953	-2.995900	3.076700	-9.215400	27.888445	0.000258	20.802958
2460.683855	-2.987900	3.074900	-9.186000	27.920278	0.000260	20.816031
2461.679389	-2.979300	3.073900	-9.156800	27.919285	0.000257	20.811239
2462.683247	-2.965200	3.073800	-9.113200	27.927840	0.000258	20.835971
2463.683399	-3.013800	3.071800	-9.256600	27.938137	0.000257	20.836851
2464.681200	-2.972600	3.071800	-9.130200	27.922886	0.000257	20.828613
2465.691167	-2.975700	3.070800	-9.136800	27.881126	0.000258	20.833524
2466.683849	-2.995200	3.069400	-9.192200	27.834376	0.000258	20.807810
2467.680931	-3.004500	3.069400	-9.220500	27.843411	0.000257	20.805998
2468.686404	-2.997600	3.067900	-9.195300	27.845287	0.000257	20.818317
2469.687184	-2.994600	3.066900	-9.183100	27.842654	0.000257	20.813297
2470.683098	-2.992200	3.066700	-9.174000	27.803769	0.000258	20.794551
2471.685343	-2.987200	3.064500	-9.152300	27.833105	0.000257	20.807006
2472.684123	-2.987600	3.063200	-9.150200	27.812645	0.000255	20.798268
2473.683392	-2.991700	3.062400	-9.159900	27.777973	0.000256	20.813161
2474.685420	-3.000000	3.059600	-9.177200	27.762476	0.000256	20.816531
2475.684186	-3.003600	3.059400	-9.188400	27.750537	0.000258	20.792189
2476.683972	-3.000800	3.058700	-9.178300	27.781070	0.000256	20.808217
2477.685033	-3.003600	3.058100	-9.184000	27.853103	0.000256	20.805321
2478.691013	-3.012000	3.055300	-9.201100	27.876356	0.000254	20.805490
2479.687118	-2.980900	3.055600	-9.107300	27.833434	0.000253	20.802595
2480.685767	-3.013000	3.053100	-9.198000	27.821210	0.000254	20.814948
2481.694712	-2.972500	3.053700	-9.075200	27.853692	0.000256	20.824879
2482.689584	-2.986100	3.054200	-9.119700	27.896782	0.000254	20.805186
2483.687429	-2.996200	3.049900	-9.136800	27.919454	0.000255	20.801451
2484.688491	-3.004700	3.050600	-9.165400	27.901544	0.000255	20.808081
2485.688429	-2.985800	3.049000	-9.103000	27.950781	0.000254	20.793628
2486.689064	-3.008500	3.046900	-9.165600	27.979146	0.000253	20.792307
2487.689083	-2.981900	3.047600	-9.086700	28.048290	0.000254	20.807378
2488.690096	-3.014800	3.046200	-9.182600	28.048383	0.000254	20.799885
2489.691032	-3.027000	3.044200	-9.214000	28.067779	0.000253	20.802341
2490.690152	-3.008800	3.043400	-9.156300	28.073919	0.000252	20.795245
2491.694798	-3.022900	3.042300	-9.195000	28.069377	0.000253	20.802527
2492.691195	-2.997700	3.041700	-9.117900	28.059208	0.000254	20.791342
2493.693069	-3.004900	3.040900	-9.136700	28.061286	0.000253	20.806236
2494.695095	-3.026900	3.039800	-9.200200	28.057139	0.000252	20.788785
2495.694210	-3.007100	3.037700	-9.133100	28.090136	0.000253	20.802561
2496.692369	-3.008800	3.036400	-9.135400	28.119692	0.000252	20.792486
2497.696477	-3.007000	3.035600	-9.127100	28.145177	0.000253	20.794907
2498.696285	-2.992700	3.035100	-9.081000	28.152763	0.000251	20.775992
2499.694232	-2.999600	3.033400	-9.098500	28.147019	0.000251	20.797236
2500.692216	-3.002500	3.031400	-9.101100	28.115731	0.000252	20.809835
2501.694731	-2.987300	3.031400	-9.054200	28.096462	0.000253	20.800869
2502.696669	-2.967500	3.030700	-8.992000	28.030913	0.000250	20.797947
2503.695234	-3.034600	3.026500	-9.183500	27.942522	0.000250	20.791953
2504.699513	-2.970800	3.027900	-8.994800	27.903758	0.000249	20.797033
2505.695130	-3.016900	3.026700	-9.130600	27.856310	0.000252	20.782470
2506.694661	-3.014900	3.024000	-9.115800	27.865691	0.000252	20.772945
2507.695617	-3.024700	3.022700	-9.141500	27.886394	0.000250	20.787144
2508.701082	-2.973700	3.024800	-8.993400	27.929634	0.000252	20.790836
2509.698118	-2.982400	3.022100	-9.012400	27.969130	0.000252	20.804036
2510.697130	-2.977200	3.021300	-8.994700	27.973058	0.000252	20.778593
2511.699185	-2.999000	3.020400	-9.056900	27.949378	0.000250	20.784155
2512.697738	-2.983000	3.018900	-9.004600	27.938468	0.000252	20.794985
2513.696460	-2.974600	3.018400	-8.977400	27.973319	0.000251	20.776484
2514.697713	-3.006700	3.015700	-9.065600	27.991136	0.000249	20.760753
2515.698421	-3.000100	3.015700	-9.046100	28.028652	0.000250	20.785240
2516.698267	-2.997600	3.013500	-9.032400	28.021409	0.000249	20.773682
2517.698646	-2.979500	3.012400	-8.972900	28.062953	0.000250	20.789423
2518.698271	-2.985600	3.011500	-8.990400	28.090315	0.000249	20.793732
2519.698133	-3.004800	3.009100	-9.040800	28.121259	0.000249	20.772251
2520.697176	-2.970300	3.009300	-8.937400	28.113596	0.000250	20.781608
2521.699432	-2.994800	3.007400	-9.006300	28.121394	0.000248	20.774284
2522.699065	-2.996600	3.005400	-9.003800	28.129653	0.000249	20.778332
2523.698390	-3.009500	3.004800	-9.042700	28.117121	0.000249	20.778992
2524.703098	-2.999500	3.002700	-9.005100	28.119400	0.000248	20.780812
2525.700391	-3.034600	3.002000	-9.108600	28.154944	0.000249	20.772498
2526.709790	-3.009600	2.999400	-9.026400	28.169637	0.000250	20.765953
2527.700755	-2.983500	3.000400	-8.951000	28.153102	0.000249	20.758789
2528.706300	-2.997900	2.998700	-8.988900	28.180285	0.000250	20.772879
2529.701775	-2.983200	2.996700	-8.938900	28.117794	0.000251	20.772083
2530.702958	-2.999500	2.995100	-8.982900	28.116365	0.000251	20.774912
2531.705323	-3.018400	2.992100	-9.030000	28.110965	0.000249	20.778010
2532.701340	-2.994600	2.994700	-8.966300	28.085379	0.000250	20.784496
2533.702106	-3.012300	2.990700	-9.008000	28.065765	0.000252	20.794149
2534.710051	-3.007500	2.989900	-8.991500	28.037376	0.000252	20.771262
2535.703846	-3.015600	2.987900	-9.010000	27.998675	0.000252	20.785885
2536.704238	-2.973700	2.987400	-8.882800	27.982600	0.000250	20.771601
2537.707799	-2.995600	2.986300	-8.945100	27.989683	0.000250	20.767351
2538.702971	-3.025400	2.982700	-9.022000	27.976291	0.000249	20.760035
2539.704421	-3.001700	2.984100	-8.956600	27.949709	0.000250	20.756987
2540.706975	-2.997100	2.982400	-8.937900	27.952982	0.000252	20.767394
2541.708642	-3.028100	2.979600	-9.020300	27.977671	0.000249	20.766640
2542.706537	-3.016500	2.980000	-8.988300	27.933365	0.000251	20.766141
2543.706945	-3.005800	2.978100	-8.950200	27.912183	0.000251	20.778960
2544.709843	-2.999500	2.976700	-8.926500	27.887509	0.000249	20.775938
2545.708072	-3.024400	2.974500	-8.994600	27.876606	0.000249	20.744574
2546.707781	-3.001600	2.973700	-8.924600	27.878137	0.000248	20.749435
2547.710002	-3.028800	2.971200	-8.997700	27.874360	0.000249	20.755591
2548.708500	-2.986300	2.971300	-8.872300	27.894719	0.000249	20.762331
2549.708867	-3.019500	2.967500	-8.959600	27.919956	0.000248	20.771611
2550.709581	-2.968700	2.968300	-8.810700	27.961268	0.000248	20.785218
2551.709117	-2.994200	2.966500	-8.880500	28.026140	0.000247	20.751891
2552.708903	-3.005200	2.966200	-8.912600	28.022591	0.000248	20.772026
2553.711275	-3.002300	2.963100	-8.895300	28.062284	0.000248	20.781636
2554.713282	-2.971400	2.962600	-8.802300	28.111489	0.000251	20.763839
2555.711482	-3.034600	2.959100	-8.978800	28.118403	0.000250	20.764635
2556.720519	-3.026200	2.958000	-8.949800	28.149615	0.000250	20.776616
2557.716722	-3.057200	2.955100	-9.032600	28.207890	0.000248	20.765583
2558.710994	-3.032500	2.955100	-8.959900	28.233515	0.000249	20.767200
2559.714673	-3.026800	2.953900	-8.939600	28.239915	0.000250	20.773644
2560.712243	-3.015600	2.951800	-8.900600	28.295679	0.000248	20.757717
2561.714156	-2.963900	2.952400	-8.748900	28.320394	0.000250	20.786395
2562.712252	-2.977600	2.949900	-8.782700	28.355258	0.000249	20.784990
2563.718651	-3.021700	2.949200	-8.910100	28.397546	0.000247	20.761188
2564.711987	-3.010100	2.947900	-8.872500	28.433458	0.000249	20.779808
2565.712831	-2.996600	2.946600	-8.829300	28.458237	0.000250	20.775837
2566.712499	-2.983700	2.945300	-8.787100	28.456648	0.000249	20.785142
2567.713862	-2.992300	2.943500	-8.807300	28.376945	0.000250	20.793550
2568.712871	-2.994300	2.941100	-8.806600	28.350078	0.000249	20.772662
2569.712934	-3.005900	2.939400	-8.834800	28.292526	0.000249	20.763077
2570.713891	-2.997100	2.939800	-8.810200	28.274319	0.000248	20.785049
2571.719835	-2.962300	2.938300	-8.703400	28.299522	0.000250	20.772492
2572.714679	-2.976500	2.936500	-8.738900	28.320882	0.000249	20.785464
2573.717986	-3.008100	2.932600	-8.820400	28.298034	0.000250	20.789486
2574.717229	-3.024300	2.931000	-8.863500	28.254927	0.000249	20.781645
2575.715847	-3.005400	2.930300	-8.805400	28.181684	0.000250	20.781400
2576.718347	-3.013500	2.927400	-8.820800	28.126923	0.000247	20.781273
2577.720026	-3.003000	2.927800	-8.790900	28.084608	0.000248	20.781823
2578.716216	-3.034300	2.925700	-8.876400	28.098267	0.000249	20.789410
2579.718512	-3.004200	2.923400	-8.781400	28.130354	0.000247	20.777615
2580.715506	-2.976500	2.923100	-8.699600	28.169691	0.000249	20.765532
2581.716897	-2.989900	2.921400	-8.733200	28.208537	0.000248	20.780934
2582.718662	-3.006800	2.918800	-8.775400	28.248888	0.000247	20.799274
2583.716536	-3.003300	2.917200	-8.760900	28.256499	0.000248	20.775168
2584.717121	-2.994100	2.915500	-8.726500	28.169228	0.000247	20.785455
2585.720141	-3.008900	2.914100	-8.767200	28.138016	0.000247	20.806665
2586.717832	-3.012600	2.913100	-8.774400	28.170935	0.000248	20.790019
2587.715283	-3.018400	2.910500	-8.783100	28.198521	0.000249	20.793135
2588.718226	-3.025800	2.907800	-8.797800	28.258635	0.000245	20.788698
2589.718701	-2.998600	2.908300	-8.718600	28.292963	0.000249	20.775845
2590.718815	-2.997000	2.905600	-8.707300	28.333723	0.000249	20.776108
2591.717212	-2.992600	2.904100	-8.690100	28.354602	0.000249	20.782907
2592.718052	-3.001900	2.903200	-8.713500	28.342426	0.000247	20.802415
2593.719366	-2.999900	2.900900	-8.701800	28.355679	0.000247	20.788258
2594.718652	-2.981200	2.899500	-8.642300	28.317661	0.000248	20.776531
2595.719140	-2.989900	2.896400	-8.658600	28.270981	0.000249	20.798758
2596.719702	-3.002300	2.896100	-8.694400	28.226047	0.000248	20.778174
2597.719225	-2.999700	2.892600	-8.676500	28.204299	0.000249	20.792314
2598.719662	-3.018400	2.891700	-8.727600	28.160751	0.000249	20.787827
2599.722083	-2.983800	2.892000	-8.628200	28.163669	0.000248	20.795507
2600.721665	-3.003600	2.887600	-8.671900	28.181886	0.000247	20.798199
2601.721730	-2.968300	2.887800	-8.570800	28.249284	0.000248	20.808681
2602.725846	-3.007600	2.883700	-8.671100	28.297959	0.000249	20.793204
2603.722452	-3.004100	2.883600	-8.661700	28.283041	0.000249	20.804262
2604.722851	-2.960200	2.883300	-8.534400	28.301970	0.000249	20.802458
2605.725243	-3.031800	2.877400	-8.722400	28.379073	0.000250	20.792848
2606.725647	-2.965900	2.877900	-8.533900	28.413943	0.000250	20.805202
2607.723206	-2.991200	2.876200	-8.601500	28.377181	0.000248	20.808487
2608.724951	-3.004000	2.873300	-8.631100	28.325811	0.000248	20.779521
2609.724466	-2.984900	2.872200	-8.572500	28.302106	0.000248	20.781257
2610.723488	-2.979900	2.869600	-8.550100	28.302139	0.000247	20.812111
2611.726541	-2.986500	2.867300	-8.561400	28.242919	0.000247	20.810807
2612.726906	-3.024100	2.865500	-8.663100	28.196395	0.000248	20.808538
2613.722799	-2.984900	2.864600	-8.548600	28.197488	0.000247	20.825285
2614.724285	-2.984800	2.863100	-8.545200	28.235316	0.000247	20.824964
2615.723132	-2.990100	2.859900	-8.550300	28.298119	0.000248	20.817547
2616.722852	-3.022500	2.856800	-8.632100	28.305772	0.000248	20.822407
2617.723927	-3.008200	2.856700	-8.592800	28.271394	0.000247	20.816243
2618.722699	-3.021100	2.853700	-8.619500	28.265995	0.000248	20.804643
2619.724834	-3.010100	2.852700	-8.586300	28.240144	0.000249	20.810858
2620.724027	-3.011800	2.849800	-8.581800	28.267332	0.000249	20.820214
2621.726388	-2.993500	2.846600	-8.520400	28.337920	0.000249	20.810206
2622.725523	-2.980300	2.846600	-8.482900	28.395538	0.000248	20.829341
2623.723919	-2.970600	2.845600	-8.452500	28.453581	0.000249	20.783476
2624.727536	-2.979800	2.842000	-8.467300	28.484102	0.000249	20.808996
2625.726037	-2.975700	2.839300	-8.447600	28.491467	0.000247	20.833956
2626.726440	-3.014500	2.836900	-8.550900	28.514135	0.000248	20.819800
2627.726608	-2.995100	2.834800	-8.489600	28.498824	0.000246	20.810071
2628.726346	-3.002300	2.832000	-8.500300	28.466530	0.000247	20.833973
2629.729641	-2.983500	2.831900	-8.447600	28.432132	0.000247	20.803603
2630.727877	-2.997100	2.828300	-8.474000	28.399314	0.000247	20.818919
2631.732401	-2.992500	2.826800	-8.458200	28.395748	0.000248	20.835717
2632.729283	-2.998000	2.824800	-8.466900	28.382774	0.000248	20.808429
2633.728179	-3.040200	2.820900	-8.574700	28.435286	0.000248	20.832856
2634.733985	-2.978300	2.819700	-8.396800	28.375391	0.000249	20.822332
2635.729355	-3.004000	2.817600	-8.462600	28.413130	0.000246	20.830460
2636.730569	-3.016600	2.814400	-8.488500	28.424927	0.000246	20.836649
2637.728290	-2.964400	2.814600	-8.343000	28.445174	0.000248	20.832856
2638.728509	-3.020200	2.811100	-8.488600	28.474628	0.000246	20.832645
2639.728819	-3.005700	2.808800	-8.441300	28.438347	0.000246	20.826456
2640.729973	-3.013700	2.806900	-8.457900	28.419134	0.000247	20.809480
2641.733278	-2.963300	2.805700	-8.312300	28.423271	0.000248	20.833086
2642.729991	-2.986100	2.800900	-8.362600	28.467692	0.000247	20.822816
2643.730629	-2.963600	2.799100	-8.294300	28.502635	0.000247	20.832875
2644.739789	-3.017100	2.795300	-8.432900	28.525605	0.000247	20.826609
2645.732603	-2.991500	2.794600	-8.358800	28.506721	0.000247	20.834619
2646.733102	-3.023300	2.789200	-8.431200	28.471073	0.000247	20.843764
2647.734603	-3.014000	2.787500	-8.400900	28.476479	0.000247	20.840199
2648.732331	-2.992900	2.786300	-8.338000	28.515684	0.000248	20.853127
2649.734483	-2.997000	2.782000	-8.336400	28.500391	0.000250	20.849580
2650.738657	-3.013600	2.779700	-8.374300	28.489906	0.000250	20.838074
2651.735662	-3.029300	2.776100	-8.406700	28.461320	0.000246	20.851486
2652.736470	-3.004900	2.774300	-8.335600	28.466575	0.000248	20.847295
2653.743329	-2.981900	2.773300	-8.267500	28.497356	0.000248	20.837516
2654.739074	-3.011600	2.768400	-8.337100	28.525304	0.000247	20.839108
2655.737827	-3.004000	2.767300	-8.311000	28.564205	0.000248	20.839404
2656.739273	-3.009100	2.764000	-8.315400	28.601617	0.000248	20.840573
2657.739729	-3.008600	2.760000	-8.303000	28.572822	0.000248	20.846660
2658.737754	-2.997600	2.757700	-8.265400	28.580574	0.000248	20.844984
2659.740363	-2.968300	2.755300	-8.177600	28.562457	0.000249	20.840488
2660.739097	-2.978900	2.753100	-8.199700	28.513214	0.000247	20.847795
2661.739183	-2.999700	2.748900	-8.244800	28.475001	0.000248	20.829228
2662.739643	-3.041600	2.745400	-8.349100	28.415421	0.000249	20.844621
2663.742063	-2.999600	2.742700	-8.225800	28.402488	0.000248	20.827331
2664.739645	-2.990600	2.740100	-8.194000	28.409476	0.000248	20.837686
2665.738166	-2.998800	2.736600	-8.205900	28.398940	0.000248	20.834664
2666.740736	-3.001500	2.733700	-8.202700	28.405625	0.000247	20.834757
2667.744738	-2.998700	2.730400	-8.186300	28.442504	0.000246	20.851030
2668.744604	-3.004700	2.725500	-8.188400	28.510970	0.000246	20.841742
2669.742353	-2.992400	2.723600	-8.149100	28.563685	0.000249	20.848837
2670.743227	-3.011500	2.719500	-8.188600	28.558876	0.000245	20.857270
2671.743279	-3.009000	2.716900	-8.174300	28.542717	0.000248	20.843842
2672.745315	-3.005400	2.713300	-8.154000	28.577607	0.000248	20.859539
2673.745325	-3.012300	2.710700	-8.163600	28.592177	0.000246	20.858565
2674.743050	-2.998000	2.704900	-8.108400	28.587628	0.000247	20.870579
2675.746748	-2.985900	2.702400	-8.068300	28.581399	0.000247	20.847711
2676.742411	-2.998400	2.698000	-8.088300	28.616136	0.000246	20.848558
2677.741797	-3.015900	2.694200	-8.124000	28.658043	0.000247	20.869902
2678.745074	-3.010800	2.692800	-8.105800	28.661910	0.000246	20.860521
2679.746200	-3.005100	2.689300	-8.079400	28.701454	0.000246	20.860995
2680.744114	-3.035000	2.683500	-8.142600	28.714803	0.000247	20.885819
2681.749894	-2.997700	2.681300	-8.035800	28.790320	0.000246	20.857100
2682.747358	-2.997500	2.677000	-8.023400	28.783966	0.000246	20.873458
2683.746336	-3.040800	2.670800	-8.120300	28.736709	0.000246	20.856203
2684.750654	-3.005000	2.668600	-8.018200	28.697141	0.000247	20.865186
2685.750031	-2.987900	2.665200	-7.962700	28.661557	0.000248	20.850683
2686.748298	-2.986400	2.661000	-7.946100	28.670502	0.000245	20.872967
2687.749059	-2.991100	2.657600	-7.948800	28.628999	0.000249	20.874787
2688.748595	-3.003700	2.651400	-7.963700	28.625628	0.000248	20.865229
2689.751406	-2.972000	2.649300	-7.871800	28.581937	0.000248	20.865322
2690.749453	-2.993400	2.645400	-7.917400	28.586031	0.000249	20.860437
2691.749173	-3.008300	2.640500	-7.942600	28.653891	0.000247	20.872832
2692.750036	-3.034100	2.634900	-7.993500	28.718309	0.000247	20.877971
2693.750224	-3.021900	2.631200	-7.951100	28.742754	0.000248	20.860869
2694.751299	-3.009600	2.625800	-7.901200	28.779881	0.000248	20.895894
2695.751757	-3.006700	2.622200	-7.882900	28.813915	0.000247	20.873281
2696.751406	-2.980500	2.617600	-7.800500	28.851612	0.000249	20.870479
2697.752343	-2.976300	2.611900	-7.773100	28.877053	0.000249	20.888995
2698.753479	-2.984500	2.607500	-7.781400	28.927590	0.000248	20.880638
2699.752458	-2.987900	2.602600	-7.775600	28.959291	0.000248	20.887919
2700.755234	-3.018900	2.595300	-7.834100	28.992957	0.000248	20.907612
2701.755999	-3.021200	2.589300	-7.822400	28.976015	0.000246	20.873476
2702.753034	-3.009900	2.586100	-7.782900	29.026152	0.000246	20.871833
2703.754576	-2.993500	2.581600	-7.726700	29.047849	0.000248	20.878995
2704.756989	-3.005400	2.575500	-7.739200	29.121158	0.000248	20.890747
2705.755432	-2.976100	2.569800	-7.646400	29.137636	0.000248	20.894548
2706.758327	-3.036600	2.563200	-7.782600	29.133258	0.000248	20.909575
2707.756499	-2.998600	2.559200	-7.673000	29.105419	0.000248	20.894802
2708.755354	-3.002000	2.553500	-7.664200	29.130485	0.000248	20.900618
2709.756003	-3.009400	2.545900	-7.661000	29.170901	0.000249	20.882077
2710.755480	-3.016100	2.540800	-7.662300	29.192528	0.000248	20.898179
2711.754447	-3.035800	2.533900	-7.691100	29.167397	0.000249	20.897510
2712.761234	-3.041700	2.528100	-7.688900	29.125888	0.000248	20.896460
2713.757296	-3.008500	2.523300	-7.590500	29.067706	0.000249	20.896630
2714.756522	-3.003100	2.517100	-7.558300	29.072663	0.000246	20.907314
2715.765082	-2.970000	2.511900	-7.459300	29.051193	0.000248	20.894217
2716.757717	-3.013700	2.504800	-7.548100	29.057378	0.000250	20.922257
2717.758298	-2.996000	2.498800	-7.485600	29.092747	0.000247	20.910481
