LabVIEW Measurement	
Writer_Version	2
Reader_Version	2
Separator	Tab
Decimal_Separator	.
Multi_Headings	No
X_Columns	One
Time_Pref	Absolute
Operator	admin
Description	Clolumns are: time, Current, Voltage, Power, Battery Temp, and Chamber Temp
Date	2024/08/16
Time	13:06:06.104549407958984375
***End_of_Header***	
	
Channels	6						
Samples	1	1	1	1	1	1	
Date	2024/08/27	2024/08/27	2024/08/27	2024/08/27	2024/08/27	2024/08/27	
Time	11:38:40.8040480613708496094	11:38:40.8090481758117675781	11:38:40.8140511512756347656	11:38:40.7708182334899902344	11:38:40.7708182334899902344	11:38:40.7708182334899902344	
X_Dimension	Time	Time	Time	Time	Time	Time	
X0	0.0000000000000000E+0	0.0000000000000000E+0	0.0000000000000000E+0	0.0000000000000000E+0	0.0000000000000000E+0	0.0000000000000000E+0	
Delta_X	1.000000	1.000000	1.000000	1.000000	1.000000	1.000000	
***End_of_Header***							
X_Value	Untitled	Untitled 1	Untitled 2	Untitled 3	Untitled 4	Untitled 5	Comment
0.000000	-0.020421	4.108200	-0.083882	20.997185	0.000958	20.725985
0.993877	-3.001800	3.947600	-11.849000	20.990297	0.000956	20.725259
2.004461	-2.992600	3.940300	-11.790000	21.023803	0.000955	20.703767
2.993654	-2.991600	3.937500	-11.779000	21.020938	0.000956	20.724137
3.997458	-2.991100	3.933600	-11.764000	20.997906	0.000953	20.730974
4.997080	-2.992000	3.927900	-11.749000	21.021086	0.000953	20.722389
5.997993	-3.012600	3.925600	-11.825000	21.008439	0.000953	20.730129
7.005807	-3.002400	3.923700	-11.779000	21.005121	0.000952	20.714955
8.001266	-3.004400	3.920500	-11.778000	21.013225	0.000950	20.719267
8.996905	-2.987500	3.919600	-11.708000	21.026350	0.000951	20.725283
9.997583	-2.987800	3.918600	-11.706000	21.028148	0.000949	20.721391
10.997997	-3.019200	3.914700	-11.819000	21.023555	0.000948	20.731023
12.005341	-3.007900	3.913500	-11.771000	21.007062	0.000948	20.724483
12.999690	-3.006900	3.912100	-11.763000	21.052226	0.000948	20.741682
13.997832	-2.964000	3.912700	-11.596000	21.028143	0.000948	20.712851
15.002141	-3.005400	3.909300	-11.748000	21.038671	0.000946	20.743772
16.003623	-2.987800	3.909100	-11.679000	21.033659	0.000944	20.728800
17.004509	-3.004700	3.908800	-11.744000	21.045964	0.000946	20.731625
18.003696	-2.986200	3.906500	-11.665000	21.056991	0.000943	20.727007
19.003314	-2.983800	3.905100	-11.650000	21.068388	0.000943	20.729872
20.017183	-3.002600	3.904300	-11.722000	21.060981	0.000943	20.741430
21.013409	-2.989100	3.903600	-11.667000	21.059959	0.000944	20.741830
22.008957	-2.983400	3.904100	-11.647000	21.082293	0.000942	20.741410
22.996447	-2.980300	3.901800	-11.627000	21.064906	0.000939	20.727812
24.015389	-3.022700	3.900000	-11.788000	21.065623	0.000940	20.744651
25.009041	-2.989900	3.900400	-11.661000	21.095966	0.000942	20.723317
25.998566	-3.007800	3.899100	-11.727000	21.089680	0.000940	20.729358
26.996486	-2.997900	3.898400	-11.686000	21.101654	0.000938	20.722843
28.007905	-3.004300	3.898300	-11.710000	21.097767	0.000939	20.713265
28.999036	-2.982100	3.898000	-11.623000	21.108996	0.000939	20.752473
30.000927	-2.995800	3.897300	-11.674000	21.094977	0.000937	20.742718
31.013670	-3.006500	3.895600	-11.710000	21.115909	0.000937	20.734257
32.011534	-3.001100	3.895700	-11.690000	21.091659	0.000939	20.713793
32.998750	-3.014300	3.894500	-11.737000	21.117429	0.000935	20.732459
34.005083	-2.997900	3.895600	-11.677000	21.147124	0.000937	20.727549
35.006322	-3.000700	3.893300	-11.680000	21.144102	0.000937	20.723578
36.000144	-3.008100	3.893600	-11.711000	21.147346	0.000934	20.731091
37.005484	-2.999900	3.892900	-11.678000	21.141861	0.000936	20.743622
37.996831	-3.010800	3.891200	-11.714000	21.162549	0.000934	20.733970
38.999563	-2.983900	3.893200	-11.615000	21.150867	0.000937	20.733664
40.015352	-3.000400	3.890400	-11.671000	21.165363	0.000934	20.741527
41.004062	-3.017100	3.889900	-11.735000	21.177559	0.000934	20.739028
42.003279	-3.000900	3.892200	-11.679000	21.168883	0.000933	20.729401
43.006402	-2.999200	3.890600	-11.668000	21.180210	0.000933	20.744999
44.013997	-3.008900	3.888800	-11.700000	21.208876	0.000933	20.738114
45.002669	-3.019200	3.888400	-11.738000	21.204186	0.000933	20.752388
46.010443	-2.988000	3.890500	-11.623000	21.210200	0.000930	20.731376
47.005171	-2.993700	3.888400	-11.639000	21.210501	0.000932	20.742583
48.004973	-2.990600	3.888400	-11.627000	21.207583	0.000932	20.739664
49.003572	-3.009800	3.887900	-11.700000	21.222775	0.000933	20.750595
50.005898	-3.024900	3.886500	-11.755000	21.221950	0.000931	20.755934
51.005608	-2.990500	3.887600	-11.625000	21.245402	0.000931	20.727237
52.007544	-3.018100	3.886200	-11.729000	21.248819	0.000930	20.754838
53.020559	-2.987100	3.887400	-11.610000	21.259522	0.000930	20.739467
54.011601	-3.017200	3.884900	-11.720000	21.254066	0.000929	20.729266
55.014698	-3.011200	3.885300	-11.698000	21.277063	0.000929	20.755119
56.010166	-3.004300	3.884300	-11.669000	21.275740	0.000928	20.751899
57.013870	-2.999600	3.884700	-11.651000	21.264567	0.000931	20.747359
58.009163	-2.988500	3.884900	-11.608000	21.280855	0.000929	20.750377
59.008696	-3.005900	3.884600	-11.675000	21.280761	0.000929	20.752654
60.008957	-3.010300	3.884600	-11.693000	21.314342	0.000930	20.758748
61.012827	-2.992500	3.883000	-11.618000	21.296904	0.000929	20.748890
62.008550	-3.001300	3.882900	-11.652000	21.301125	0.000928	20.738887
63.016637	-3.004300	3.881400	-11.659000	21.324274	0.000930	20.747822
64.005569	-2.999000	3.882800	-11.644000	21.305849	0.000927	20.732233
65.017643	-3.016300	3.881400	-11.705000	21.348528	0.000928	20.744112
66.022942	-3.002500	3.882300	-11.656000	21.312835	0.000928	20.752499
67.010060	-3.024200	3.879900	-11.732000	21.341523	0.000927	20.743267
68.007187	-3.020300	3.880200	-11.719000	21.358638	0.000928	20.778884
69.014449	-2.990900	3.881000	-11.606000	21.380319	0.000927	20.750315
70.012957	-3.013100	3.879000	-11.687000	21.368171	0.000925	20.752385
71.008826	-2.986200	3.879600	-11.584000	21.362389	0.000926	20.739962
72.026362	-3.018000	3.879700	-11.709000	21.414100	0.000926	20.738594
73.012793	-2.982400	3.882900	-11.579000	21.390380	0.000927	20.769390
74.014995	-3.021100	3.878400	-11.716000	21.392873	0.000926	20.745805
75.013128	-2.987300	3.880200	-11.590000	21.383404	0.000926	20.744392
76.025603	-2.988200	3.879600	-11.593000	21.413561	0.000926	20.762712
77.030221	-3.004700	3.878400	-11.653000	21.420452	0.000925	20.739734
78.019784	-3.021800	3.878200	-11.718000	21.416290	0.000925	20.754062
79.027913	-3.013500	3.878900	-11.687000	21.431460	0.000927	20.753119
80.024422	-2.978500	3.878000	-11.550000	21.427742	0.000927	20.737545
81.023339	-2.995700	3.877900	-11.615000	21.429065	0.000926	20.750249
82.018043	-2.999800	3.877500	-11.631000	21.439723	0.000925	20.754748
83.026227	-3.018800	3.877500	-11.704000	21.430822	0.000926	20.747265
84.016991	-2.991900	3.877700	-11.600000	21.444165	0.000925	20.767254
85.020589	-3.001500	3.876300	-11.634000	21.444323	0.000926	20.749393
86.033233	-2.984400	3.877600	-11.571000	21.465884	0.000925	20.740620
87.025766	-3.016000	3.876700	-11.692000	21.479972	0.000926	20.764675
88.028387	-2.990200	3.876900	-11.592000	21.481971	0.000926	20.755295
89.018561	-2.987500	3.876600	-11.580000	21.498161	0.000925	20.735459
90.030131	-2.983900	3.876800	-11.567000	21.483723	0.000926	20.740926
91.014059	-3.016600	3.876000	-11.691000	21.494375	0.000924	20.756327
92.018033	-2.997300	3.874700	-11.612000	21.523907	0.000926	20.770231
93.026537	-3.009600	3.876700	-11.667000	21.525111	0.000926	20.759107
94.016990	-2.996400	3.875200	-11.611000	21.535166	0.000926	20.773436
95.023922	-2.986300	3.873900	-11.568000	21.530304	0.000926	20.771416
96.024799	-3.009900	3.874000	-11.659000	21.563675	0.000925	20.755970
97.031970	-3.002500	3.874000	-11.629000	21.550412	0.000925	20.765933
98.023758	-3.005200	3.874200	-11.642000	21.580274	0.000924	20.743182
99.026445	-3.012700	3.872500	-11.666000	21.557954	0.000925	20.775376
100.031521	-2.998200	3.873400	-11.612000	21.565614	0.000925	20.743211
101.030622	-3.004500	3.873000	-11.635000	21.570012	0.000926	20.762311
102.019295	-2.995300	3.874800	-11.605000	21.585944	0.000924	20.763556
103.024087	-3.003700	3.873600	-11.634000	21.586053	0.000925	20.764613
104.022010	-3.004200	3.873000	-11.633000	21.584705	0.000925	20.749039
105.023304	-2.995800	3.872100	-11.599000	21.621574	0.000925	20.770287
106.030601	-2.996800	3.872200	-11.603000	21.630873	0.000926	20.774377
107.024448	-3.011200	3.871100	-11.656000	21.617764	0.000924	20.773587
108.022130	-3.006200	3.871900	-11.639000	21.631879	0.000926	20.770643
109.015058	-3.003200	3.870600	-11.623000	21.636968	0.000925	20.772890
110.012131	-2.990100	3.871300	-11.573000	21.643936	0.000927	20.756630
111.009583	-3.004700	3.871200	-11.630000	21.629401	0.000927	20.765792
112.011839	-3.006400	3.869200	-11.631000	21.656235	0.000927	20.764671
113.022587	-3.009900	3.870400	-11.649000	21.634267	0.000927	20.775404
114.011772	-2.987300	3.871400	-11.564000	21.683750	0.000926	20.752377
115.020539	-2.977800	3.870700	-11.525000	21.670587	0.000926	20.773344
116.029819	-3.005700	3.869400	-11.630000	21.672265	0.000926	20.776919
117.038897	-3.006100	3.870600	-11.633000	21.683083	0.000927	20.744123
118.037695	-2.978900	3.870300	-11.528000	21.661219	0.000927	20.769659
119.037068	-3.005000	3.870100	-11.629000	21.710947	0.000926	20.759681
120.033401	-2.998200	3.867700	-11.595000	21.694222	0.000927	20.770918
121.038857	-3.005800	3.868700	-11.627000	21.719406	0.000926	20.764354
122.033629	-2.996900	3.868000	-11.591000	21.710286	0.000926	20.774667
123.017714	-3.014100	3.867000	-11.654000	21.721888	0.000928	20.766838
124.049268	-2.985800	3.869300	-11.552000	21.708918	0.000929	20.784204
125.031569	-2.968700	3.869600	-11.486000	21.744974	0.000928	20.762916
126.036677	-2.998000	3.868100	-11.595000	21.739373	0.000928	20.774380
127.023219	-2.985000	3.868400	-11.546000	21.734512	0.000929	20.758135
128.017384	-2.990600	3.869000	-11.570000	21.754967	0.000928	20.775288
129.015893	-2.994800	3.867000	-11.579000	21.760904	0.000931	20.767954
130.033569	-2.997200	3.867000	-11.589000	21.759957	0.000928	20.769376
131.038402	-2.975900	3.867200	-11.507000	21.766145	0.000930	20.775096
132.055012	-2.985100	3.866800	-11.542000	21.759517	0.000928	20.778894
133.034628	-3.005900	3.866500	-11.622000	21.771144	0.000929	20.765874
134.030417	-2.963900	3.868000	-11.464000	21.791214	0.000929	20.780272
135.037233	-3.026200	3.865600	-11.695000	21.807228	0.000930	20.772117
136.043625	-2.972700	3.867700	-11.496000	21.794491	0.000929	20.776913
137.019150	-3.010400	3.866700	-11.639000	21.825264	0.000928	20.768832
138.038448	-2.995400	3.865500	-11.578000	21.826290	0.000929	20.788352
139.031781	-2.993300	3.865300	-11.569000	21.854847	0.000930	20.791330
140.034043	-3.025100	3.866100	-11.694000	21.845323	0.000930	20.782272
141.030642	-3.017000	3.864900	-11.660000	21.858715	0.000932	20.768649
142.047606	-3.017400	3.864100	-11.658000	21.845180	0.000931	20.772171
143.044988	-2.965100	3.865900	-11.462000	21.849853	0.000930	20.783487
144.038748	-3.008100	3.865200	-11.626000	21.860250	0.000932	20.782988
145.045506	-2.999200	3.864000	-11.588000	21.873317	0.000932	20.784213
146.045430	-2.985100	3.864400	-11.535000	21.860215	0.000932	20.786746
147.053417	-3.010300	3.862800	-11.627000	21.860442	0.000933	20.767533
148.025611	-3.006700	3.862900	-11.613000	21.862841	0.000932	20.778942
149.039760	-2.955400	3.866300	-11.425000	21.856613	0.000932	20.773183
150.018249	-2.989100	3.863000	-11.545000	21.879356	0.000934	20.790732
151.021689	-2.995200	3.863500	-11.571000	21.905440	0.000932	20.794555
152.030858	-2.984100	3.864300	-11.530000	21.901680	0.000933	20.792688
153.024246	-3.004100	3.863400	-11.605000	21.908341	0.000934	20.787028
154.023537	-3.026400	3.862000	-11.687000	21.933229	0.000936	20.781595
155.021721	-2.995200	3.861900	-11.565000	21.912841	0.000933	20.775885
156.030406	-3.012900	3.862100	-11.636000	21.956800	0.000933	20.773420
157.024055	-3.008700	3.861300	-11.615000	21.933920	0.000935	20.785605
158.034737	-3.003200	3.859700	-11.590000	21.950850	0.000935	20.796387
159.026594	-3.002800	3.861700	-11.593000	21.937794	0.000933	20.798966
160.024731	-3.012100	3.860900	-11.629000	21.943182	0.000937	20.778281
161.041934	-2.994600	3.861300	-11.562000	21.938702	0.000935	20.797030
162.024887	-3.000600	3.861600	-11.586000	21.940424	0.000935	20.793064
163.045305	-3.006500	3.860100	-11.605000	21.951047	0.000936	20.795637
164.040928	-2.995700	3.859900	-11.562000	21.978106	0.000936	20.803283
165.044785	-2.991100	3.860100	-11.545000	21.957047	0.000937	20.789789
166.051958	-3.019300	3.859000	-11.651000	21.977366	0.000936	20.795430
167.041509	-2.956100	3.861900	-11.414000	21.974835	0.000936	20.791948
168.043319	-3.001400	3.859800	-11.584000	21.991443	0.000939	20.800512
169.026372	-2.998200	3.859700	-11.571000	22.000822	0.000937	20.771021
170.044730	-2.983900	3.860600	-11.519000	22.017652	0.000938	20.795455
171.029072	-3.005500	3.858800	-11.597000	22.036953	0.000939	20.784905
172.027640	-2.986500	3.858600	-11.523000	22.038833	0.000939	20.808598
173.027570	-3.012700	3.858100	-11.622000	22.030910	0.000939	20.807304
174.040428	-2.971400	3.858900	-11.465000	22.044670	0.000939	20.788363
175.030930	-2.992400	3.859000	-11.546000	22.066186	0.000939	20.798048
176.027478	-2.984800	3.858700	-11.517000	22.069008	0.000940	20.783804
177.030605	-2.990300	3.858000	-11.536000	22.043486	0.000941	20.791919
178.054404	-2.999500	3.857500	-11.569000	22.080706	0.000942	20.805946
179.030716	-3.003000	3.858800	-11.587000	22.086671	0.000941	20.805280
180.034933	-3.003600	3.857400	-11.585000	22.095146	0.000942	20.804756
181.045964	-3.009500	3.857900	-11.608000	22.095354	0.000942	20.820136
182.051503	-3.002900	3.856900	-11.580000	22.087830	0.000942	20.800277
183.044900	-2.978100	3.857000	-11.485000	22.103835	0.000942	20.797807
184.054161	-3.005500	3.857100	-11.591000	22.112992	0.000943	20.800810
185.056838	-3.013200	3.855900	-11.618000	22.118157	0.000944	20.809775
186.050296	-3.009500	3.856200	-11.604000	22.129351	0.000942	20.818137
187.050529	-3.001900	3.855200	-11.571000	22.115621	0.000944	20.801073
188.048858	-2.989800	3.856700	-11.529000	22.141620	0.000946	20.816196
189.066458	-3.009200	3.855200	-11.598000	22.140599	0.000944	20.786724
190.055461	-3.001400	3.854800	-11.569000	22.136544	0.000945	20.808269
191.056419	-2.996100	3.855700	-11.549000	22.159909	0.000945	20.806057
192.054429	-3.046000	3.853600	-11.736000	22.149791	0.000946	20.811574
193.051916	-2.999300	3.855100	-11.562000	22.166815	0.000945	20.812971
194.058137	-3.012000	3.854500	-11.609000	22.181852	0.000946	20.795310
195.037530	-3.018500	3.855900	-11.637000	22.197761	0.000948	20.805549
196.059621	-2.998000	3.853300	-11.552000	22.215136	0.000949	20.801607
197.036918	-3.014700	3.853600	-11.616000	22.234508	0.000947	20.805356
198.038043	-3.000300	3.853300	-11.559000	22.218831	0.000948	20.810522
199.039972	-2.995700	3.853300	-11.542000	22.204382	0.000948	20.815496
200.037293	-2.999100	3.854500	-11.559000	22.242199	0.000947	20.812108
201.039487	-3.003700	3.853300	-11.573000	22.226029	0.000949	20.821522
202.037714	-3.012400	3.852700	-11.604000	22.246570	0.000949	20.808899
203.055763	-3.031700	3.851800	-11.676000	22.238519	0.000950	20.807476
204.059182	-2.983200	3.853500	-11.495000	22.231623	0.000949	20.827598
205.056695	-3.006700	3.851500	-11.579000	22.247675	0.000950	20.813798
206.061782	-3.024000	3.852300	-11.648000	22.248602	0.000951	20.792442
207.056598	-2.996800	3.852400	-11.544000	22.268043	0.000952	20.821390
208.063399	-2.981500	3.852700	-11.486000	22.265034	0.000953	20.805575
209.065927	-3.012500	3.852200	-11.604000	22.272192	0.000952	20.829337
210.054343	-3.006700	3.852300	-11.582000	22.306888	0.000954	20.816664
211.064277	-2.971200	3.852200	-11.444000	22.301956	0.000954	20.809354
212.042372	-2.997800	3.850100	-11.540000	22.321154	0.000953	20.824310
213.057000	-2.986600	3.852200	-11.504000	22.315699	0.000954	20.816003
214.060000	-2.992100	3.851500	-11.523000	22.333599	0.000955	20.816383
215.056868	-3.004900	3.850000	-11.567000	22.307333	0.000953	20.819006
216.057923	-3.013900	3.850000	-11.601000	22.322837	0.000956	20.825995
217.069002	-3.020000	3.850500	-11.628000	22.317904	0.000958	20.831013
218.065544	-3.003300	3.851000	-11.564000	22.321998	0.000955	20.827526
219.059906	-3.000700	3.850200	-11.552000	22.358736	0.000958	20.819743
220.064648	-2.995500	3.850200	-11.531000	22.341812	0.000958	20.832194
221.057954	-2.994400	3.849900	-11.528000	22.353231	0.000958	20.824662
222.048640	-3.009300	3.850400	-11.585000	22.333368	0.000958	20.824687
223.047053	-3.011500	3.849300	-11.591000	22.340205	0.000958	20.837222
224.053586	-3.014800	3.848100	-11.600000	22.358677	0.000958	20.819684
225.055525	-3.009800	3.849500	-11.585000	22.358204	0.000961	20.836279
226.047420	-3.004500	3.848600	-11.562000	22.353617	0.000960	20.837376
227.044034	-2.996800	3.848800	-11.533000	22.351654	0.000960	20.824505
228.046204	-3.010500	3.847500	-11.581000	22.381564	0.000961	20.816524
229.068082	-2.987600	3.848500	-11.497000	22.378181	0.000960	20.825938
230.067342	-3.012200	3.848100	-11.590000	22.385357	0.000963	20.827434
231.066844	-2.997700	3.848200	-11.535000	22.379877	0.000961	20.824318
232.064779	-2.991100	3.847100	-11.506000	22.378714	0.000961	20.818412
233.074643	-2.995600	3.847200	-11.523000	22.381057	0.000964	20.824077
234.046914	-2.992100	3.847100	-11.508000	22.408026	0.000963	20.834014
235.069581	-3.013400	3.846700	-11.591000	22.416377	0.000964	20.827203
236.060702	-3.011300	3.845800	-11.580000	22.437259	0.000964	20.826779
237.071084	-3.005700	3.847300	-11.563000	22.435839	0.000963	20.808761
238.065589	-3.005300	3.846500	-11.559000	22.443222	0.000965	20.824690
239.066078	-2.990000	3.845700	-11.498000	22.448855	0.000966	20.822744
240.073454	-2.992400	3.847000	-11.510000	22.449205	0.000964	20.826414
241.068060	-2.993500	3.844800	-11.508000	22.455661	0.000966	20.818181
242.069330	-2.986900	3.846200	-11.485000	22.469372	0.000966	20.822903
243.054511	-3.008200	3.846200	-11.568000	22.451410	0.000967	20.814398
244.048504	-2.994600	3.846200	-11.516000	22.455070	0.000967	20.815218
245.047864	-2.981100	3.844200	-11.458000	22.440895	0.000969	20.819041
246.049218	-3.002100	3.843400	-11.537000	22.452708	0.000968	20.830870
247.056922	-3.004900	3.844600	-11.551000	22.445458	0.000968	20.807489
248.081540	-3.002500	3.844700	-11.542000	22.447702	0.000969	20.822538
249.066338	-2.968700	3.846200	-11.417000	22.469284	0.000968	20.810487
250.073559	-3.007600	3.843400	-11.558000	22.461887	0.000970	20.822044
251.061159	-3.009300	3.843700	-11.566000	22.464777	0.000970	20.803602
252.058264	-2.975100	3.844300	-11.436000	22.473857	0.000970	20.806057
253.061502	-3.022900	3.842200	-11.613000	22.487379	0.000971	20.809642
254.054323	-3.015500	3.840900	-11.580000	22.493392	0.000974	20.797646
255.052767	-2.983000	3.843000	-11.463000	22.522346	0.000973	20.803410
256.059805	-3.014500	3.841000	-11.577000	22.516142	0.000972	20.828016
257.056131	-2.993700	3.842300	-11.502000	22.515816	0.000973	20.806353
258.060337	-2.996500	3.842000	-11.512000	22.510570	0.000974	20.804892
259.052894	-2.987800	3.841500	-11.475000	22.514776	0.000974	20.791087
260.078450	-3.022200	3.841400	-11.608000	22.541018	0.000975	20.812152
261.079699	-2.989900	3.842300	-11.486000	22.564467	0.000976	20.791542
262.085294	-2.994100	3.842000	-11.502000	22.548248	0.000975	20.780513
263.055772	-2.998200	3.841100	-11.515000	22.573339	0.000977	20.804221
264.084113	-3.012600	3.839600	-11.567000	22.556005	0.000977	20.811042
265.081017	-2.975000	3.840700	-11.425000	22.557623	0.000975	20.791799
266.072712	-3.011500	3.840600	-11.564000	22.563783	0.000978	20.787063
267.077214	-2.997300	3.840200	-11.509000	22.541906	0.000977	20.788387
268.071802	-2.986400	3.841400	-11.471000	22.570159	0.000979	20.809096
269.057305	-2.995200	3.840500	-11.501000	22.536255	0.000980	20.804064
270.076370	-2.995000	3.840400	-11.500000	22.573459	0.000979	20.787271
271.076460	-2.998900	3.839000	-11.512000	22.550015	0.000980	20.799826
272.076007	-2.993700	3.839600	-11.494000	22.572487	0.000983	20.798152
273.061456	-3.017700	3.839000	-11.584000	22.606430	0.000982	20.815553
274.066554	-3.001000	3.838700	-11.519000	22.595093	0.000983	20.800879
275.080239	-3.025600	3.838700	-11.613000	22.596316	0.000984	20.771758
276.080510	-2.985700	3.839800	-11.463000	22.623577	0.000984	20.774405
277.059917	-2.986600	3.837700	-11.460000	22.656271	0.000985	20.781548
278.060929	-3.006800	3.836900	-11.535000	22.624455	0.000983	20.774337
279.060736	-3.012700	3.837000	-11.559000	22.623656	0.000985	20.781123
280.061134	-2.993300	3.837800	-11.487000	22.631088	0.000986	20.788093
281.060835	-2.995100	3.836900	-11.489000	22.614420	0.000984	20.766657
282.061086	-2.983900	3.838400	-11.451000	22.597605	0.000987	20.773522
283.064005	-2.976200	3.837800	-11.421000	22.643825	0.000985	20.799903
284.070975	-2.992700	3.837100	-11.483000	22.609371	0.000986	20.778670
285.064302	-2.969300	3.837300	-11.393000	22.629875	0.000987	20.769334
286.063616	-2.998700	3.836500	-11.504000	22.623702	0.000988	20.774531
287.073893	-2.997200	3.836500	-11.498000	22.616158	0.000988	20.794001
288.064659	-2.987500	3.835800	-11.459000	22.631509	0.000988	20.775712
289.066764	-3.000600	3.836100	-11.510000	22.653413	0.000988	20.772047
290.075477	-2.987100	3.835600	-11.456000	22.638664	0.000989	20.782405
291.065408	-3.023000	3.835600	-11.594000	22.664405	0.000989	20.765039
292.067091	-2.984700	3.836400	-11.450000	22.646318	0.000988	20.769682
293.068596	-3.007700	3.835100	-11.534000	22.676644	0.000991	20.749797
294.089250	-2.999600	3.833800	-11.499000	22.675555	0.000991	20.754870
295.073488	-3.009100	3.833600	-11.535000	22.701467	0.000992	20.760437
296.068871	-2.985500	3.836100	-11.452000	22.688815	0.000992	20.783325
297.068619	-2.987400	3.833500	-11.450000	22.701492	0.000994	20.754297
298.070051	-3.005100	3.833300	-11.518000	22.717345	0.000992	20.770652
299.069135	-3.008100	3.835200	-11.535000	22.718593	0.000994	20.763367
300.092058	-2.995000	3.833300	-11.480000	22.730733	0.000992	20.775053
301.092209	-3.005000	3.833200	-11.518000	22.743784	0.000994	20.758729
302.095057	-3.005500	3.833200	-11.519000	22.745535	0.000992	20.744835
303.089555	-2.989600	3.832500	-11.456000	22.779246	0.000995	20.768174
304.090381	-3.007200	3.831100	-11.519000	22.756926	0.000996	20.772367
305.079681	-3.017200	3.831000	-11.559000	22.755062	0.000996	20.758647
306.074681	-2.995000	3.831900	-11.476000	22.760324	0.000995	20.732622
307.072274	-3.005400	3.831400	-11.513000	22.755738	0.000998	20.756953
308.096811	-2.995600	3.831800	-11.477000	22.788256	0.000997	20.741162
309.077134	-3.002300	3.832000	-11.504000	22.809107	0.000997	20.777224
310.071754	-2.990400	3.831500	-11.457000	22.802258	0.000997	20.752345
311.072927	-3.008100	3.831400	-11.524000	22.774061	0.000999	20.756341
312.075414	-3.011300	3.829900	-11.532000	22.805957	0.000998	20.747041
313.073318	-2.994900	3.831100	-11.472000	22.794444	0.001002	20.765381
314.090862	-3.011900	3.829700	-11.534000	22.770906	0.001002	20.758397
315.074305	-2.981700	3.829600	-11.417000	22.781971	0.001001	20.742927
316.074966	-3.000700	3.828400	-11.486000	22.790570	0.001001	20.761499
317.075435	-3.022400	3.828800	-11.571000	22.796152	0.001004	20.747176
318.077311	-3.006400	3.828900	-11.511000	22.792020	0.001003	20.769116
319.080905	-2.999500	3.827900	-11.481000	22.792346	0.001003	20.764227
320.078290	-3.015900	3.827900	-11.544000	22.776904	0.001002	20.762034
321.079081	-3.008500	3.828800	-11.518000	22.805377	0.001003	20.735554
322.097882	-3.007500	3.829000	-11.515000	22.778926	0.001004	20.762163
323.100509	-2.990600	3.828500	-11.449000	22.787593	0.001005	20.754250
324.099005	-3.009700	3.828000	-11.521000	22.779552	0.001005	20.759945
325.095021	-2.997900	3.827100	-11.472000	22.800901	0.001005	20.735338
326.108717	-3.011600	3.827200	-11.525000	22.775538	0.001006	20.749286
327.099398	-3.006600	3.827900	-11.508000	22.760047	0.001007	20.762692
328.104021	-2.989600	3.825800	-11.437000	22.773946	0.001007	20.760019
329.087883	-3.011500	3.826300	-11.522000	22.807528	0.001007	20.737709
330.083678	-2.994600	3.828200	-11.462000	22.798116	0.001008	20.738712
331.077491	-3.004300	3.825600	-11.492000	22.823152	0.001009	20.756681
332.078471	-3.025100	3.824900	-11.569000	22.849308	0.001008	20.737363
333.078735	-3.009900	3.827300	-11.518000	22.842140	0.001008	20.744407
334.079293	-3.007700	3.824700	-11.503000	22.848366	0.001009	20.753491
335.079048	-3.009100	3.825800	-11.511000	22.861747	0.001010	20.751723
336.081577	-3.019300	3.825400	-11.549000	22.882197	0.001011	20.738070
337.096712	-3.007400	3.826100	-11.505000	22.895893	0.001010	20.740411
338.080517	-2.995800	3.825200	-11.458000	22.899837	0.001013	20.746734
339.089303	-2.986300	3.824000	-11.418000	22.921977	0.001012	20.748053
340.083484	-3.022000	3.824700	-11.558000	22.928278	0.001014	20.737769
341.090851	-3.004200	3.825000	-11.490000	22.936925	0.001011	20.746433
342.106031	-2.994600	3.823500	-11.449000	22.923581	0.001011	20.738753
343.100361	-2.995300	3.824700	-11.455000	22.927564	0.001015	20.720457
344.086438	-3.002800	3.824500	-11.483000	22.936709	0.001014	20.741000
345.103041	-2.991700	3.822600	-11.435000	22.946973	0.001017	20.739430
346.105814	-3.016500	3.823400	-11.531000	22.931429	0.001015	20.734288
347.084235	-3.006700	3.822500	-11.493000	22.940279	0.001016	20.735094
348.082920	-3.000600	3.821000	-11.464000	22.930967	0.001015	20.744256
349.083416	-3.015000	3.821700	-11.522000	22.908250	0.001016	20.732402
350.083226	-2.996300	3.822100	-11.452000	22.907727	0.001015	20.739465
351.083469	-2.973300	3.822500	-11.363000	22.926584	0.001017	20.733701
352.084599	-2.991700	3.822400	-11.434000	22.930406	0.001017	20.751756
353.083515	-2.990200	3.822300	-11.429000	22.914911	0.001018	20.722480
354.100746	-3.033300	3.819300	-11.584000	22.958028	0.001019	20.715891
355.099033	-2.979500	3.821100	-11.384000	22.945728	0.001018	20.729173
356.107806	-3.004400	3.819900	-11.475000	22.976865	0.001018	20.756577
357.105942	-3.008100	3.820200	-11.491000	22.978487	0.001019	20.718371
358.083321	-2.986100	3.819500	-11.404000	22.984896	0.001019	20.730483
359.084933	-3.004800	3.820400	-11.479000	22.999370	0.001021	20.723173
360.082282	-3.007800	3.818500	-11.483000	22.987361	0.001022	20.733427
361.083208	-2.990500	3.819300	-11.421000	23.004181	0.001022	20.724675
362.083658	-3.002100	3.818700	-11.463000	22.979050	0.001020	20.714668
363.088635	-3.025800	3.818300	-11.552000	22.965425	0.001021	20.726622
364.085250	-3.008200	3.817500	-11.482000	22.977705	0.001022	20.737503
365.102879	-2.969700	3.817500	-11.335000	22.994594	0.001022	20.748261
366.116946	-3.011700	3.816600	-11.493000	23.009042	0.001022	20.735711
367.113462	-2.996200	3.818000	-11.439000	23.014401	0.001023	20.728277
368.102981	-3.019100	3.816500	-11.521000	23.031487	0.001025	20.725481
369.106426	-2.989400	3.818100	-11.413000	23.023398	0.001024	20.724489
370.106066	-2.983200	3.817400	-11.385000	23.056898	0.001025	20.726761
371.108366	-2.990000	3.817200	-11.413000	23.028732	0.001025	20.733153
372.089117	-2.974800	3.816400	-11.351000	23.047292	0.001025	20.739422
373.089753	-2.970100	3.817100	-11.337000	23.065200	0.001026	20.728916
374.089940	-2.984000	3.816100	-11.386000	23.052073	0.001027	20.728091
375.097533	-3.001300	3.815100	-11.449000	23.039775	0.001026	20.721458
376.094779	-3.002300	3.814300	-11.451000	23.031159	0.001027	20.727524
377.116323	-3.018500	3.814300	-11.513000	23.032209	0.001028	20.723360
378.110862	-2.993700	3.815200	-11.421000	23.027655	0.001028	20.714055
379.115366	-2.992600	3.816400	-11.420000	23.032909	0.001028	20.719794
380.110049	-3.003300	3.815000	-11.457000	23.034433	0.001028	20.723218
381.115889	-2.994100	3.815000	-11.421000	23.050676	0.001028	20.723371
382.123526	-2.985200	3.814600	-11.386000	23.058967	0.001029	20.707970
383.092211	-2.997800	3.813700	-11.433000	23.093713	0.001029	20.712914
384.117703	-3.026400	3.812100	-11.536000	23.095064	0.001031	20.729917
385.112732	-3.000100	3.813200	-11.439000	23.126768	0.001032	20.702414
386.111063	-3.009200	3.812500	-11.470000	23.087542	0.001032	20.696773
387.109868	-3.008000	3.812600	-11.467000	23.095316	0.001030	20.699821
388.113712	-3.001700	3.812100	-11.442000	23.083596	0.001031	20.722218
389.111164	-3.013600	3.811400	-11.485000	23.082274	0.001032	20.719471
390.116914	-3.014000	3.811900	-11.488000	23.082496	0.001032	20.708787
391.112413	-3.019700	3.810700	-11.506000	23.099236	0.001031	20.717975
392.110025	-3.010300	3.809700	-11.465000	23.128382	0.001033	20.704031
393.134121	-2.998400	3.810900	-11.426000	23.115133	0.001033	20.713989
394.118878	-2.981100	3.810700	-11.359000	23.163195	0.001035	20.709993
395.113995	-2.986100	3.809900	-11.376000	23.161455	0.001032	20.702085
396.121444	-3.006900	3.810000	-11.455000	23.152287	0.001035	20.700484
397.123614	-2.989900	3.808900	-11.387000	23.164448	0.001035	20.698920
398.122342	-2.994500	3.809300	-11.407000	23.167292	0.001034	20.696080
399.095342	-3.007300	3.808200	-11.452000	23.168465	0.001037	20.693462
400.104598	-2.998700	3.809400	-11.421000	23.181837	0.001037	20.715873
401.111672	-2.993300	3.809400	-11.402000	23.213834	0.001037	20.710952
402.132467	-2.996000	3.807800	-11.406000	23.196032	0.001036	20.704492
403.117979	-3.001200	3.808300	-11.429000	23.193420	0.001038	20.695236
404.117025	-3.027100	3.807700	-11.526000	23.217108	0.001036	20.699534
405.098544	-2.989300	3.808000	-11.383000	23.221434	0.001036	20.707663
406.099755	-3.024100	3.807100	-11.512000	23.203632	0.001038	20.689822
407.098971	-3.027900	3.806500	-11.524000	23.171863	0.001038	20.712515
408.151770	-2.976300	3.808500	-11.334000	23.176742	0.001039	20.720250
409.101434	-3.014200	3.808100	-11.477000	23.172139	0.001039	20.700937
410.098931	-3.004800	3.807400	-11.440000	23.144720	0.001041	20.681994
411.100121	-3.020000	3.807000	-11.496000	23.156770	0.001040	20.691700
412.099735	-3.007600	3.806400	-11.447000	23.152837	0.001040	20.709571
413.128994	-3.020300	3.805100	-11.492000	23.137543	0.001040	20.717479
414.121465	-2.964000	3.807500	-11.284000	23.181799	0.001040	20.709196
415.103102	-2.991000	3.805800	-11.382000	23.185062	0.001041	20.699663
416.101697	-3.004600	3.805200	-11.432000	23.179452	0.001039	20.698308
417.198877	-3.004200	3.804200	-11.427000	23.178131	0.001040	20.695088
418.125438	-2.994100	3.805500	-11.393000	23.152236	0.001042	20.709442
419.104883	-3.015000	3.802800	-11.464000	23.194569	0.001042	20.684058
420.102674	-2.990300	3.804300	-11.376000	23.214116	0.001042	20.700803
421.127499	-3.049400	3.801300	-11.590000	23.198748	0.001041	20.705317
422.108194	-2.989000	3.804200	-11.371000	23.201907	0.001043	20.688567
423.123473	-2.995400	3.804200	-11.394000	23.208186	0.001043	20.682057
424.106070	-2.999700	3.802600	-11.406000	23.249669	0.001046	20.693758
425.114126	-3.013200	3.801500	-11.454000	23.232016	0.001046	20.677488
426.107342	-2.994600	3.803000	-11.388000	23.213188	0.001045	20.699873
427.129041	-3.006700	3.801600	-11.430000	23.234775	0.001045	20.696376
428.103101	-2.994600	3.801200	-11.382000	23.229675	0.001045	20.675141
429.109393	-2.984300	3.801400	-11.344000	23.269787	0.001045	20.690211
430.124643	-2.989300	3.802400	-11.365000	23.262192	0.001047	20.679754
431.133999	-2.999400	3.800800	-11.398000	23.261921	0.001048	20.679483
432.126217	-3.019500	3.800700	-11.474000	23.271280	0.001049	20.675111
433.136128	-2.981800	3.801600	-11.334000	23.282463	0.001047	20.685371
434.126281	-2.991700	3.800200	-11.368000	23.270831	0.001047	20.687939
435.118724	-3.007100	3.800700	-11.428000	23.263912	0.001049	20.717043
436.125697	-3.009600	3.798600	-11.430000	23.275385	0.001047	20.700090
437.106826	-2.984600	3.800000	-11.338000	23.313283	0.001049	20.686862
438.109220	-3.003600	3.798600	-11.409000	23.293197	0.001047	20.685697
439.109775	-3.024000	3.798000	-11.485000	23.291501	0.001049	20.685420
440.108770	-3.010200	3.798900	-11.435000	23.297952	0.001050	20.674815
441.118654	-3.005300	3.798100	-11.414000	23.309375	0.001049	20.669193
442.106778	-2.998400	3.798200	-11.387000	23.330542	0.001050	20.674286
443.109129	-2.973300	3.798900	-11.293000	23.326412	0.001050	20.675363
444.117230	-2.990900	3.797900	-11.358000	23.368498	0.001050	20.674396
445.117649	-2.984100	3.797700	-11.331000	23.328537	0.001051	20.680338
446.108453	-2.998100	3.797500	-11.383000	23.335806	0.001050	20.691418
447.132223	-2.987600	3.797100	-11.343000	23.352788	0.001048	20.683307
448.141302	-3.011200	3.796200	-11.429000	23.327340	0.001051	20.681509
449.125078	-3.005300	3.796700	-11.409000	23.311407	0.001051	20.675023
450.122077	-2.995100	3.797000	-11.371000	23.337630	0.001050	20.671907
451.138077	-3.001600	3.797000	-11.396000	23.326724	0.001051	20.676150
452.122077	-2.998600	3.795600	-11.379000	23.357752	0.001052	20.676427
453.151079	-2.992900	3.795900	-11.359000	23.366894	0.001052	20.668519
454.164082	-2.988400	3.795000	-11.340000	23.369959	0.001051	20.656417
455.161078	-3.023800	3.793800	-11.470000	23.353051	0.001052	20.676457
456.110629	-3.019100	3.793600	-11.452000	23.355214	0.001053	20.695696
457.134629	-3.007100	3.793800	-11.408000	23.356964	0.001052	20.702667
458.110629	-2.997500	3.793600	-11.370000	23.375642	0.001054	20.678236
459.113629	-2.998900	3.792500	-11.373000	23.383837	0.001054	20.671277
460.152627	-3.005300	3.791800	-11.394000	23.394392	0.001053	20.679486
461.121634	-3.005900	3.791600	-11.395000	23.406545	0.001055	20.671277
462.111628	-2.991400	3.792500	-11.344000	23.397335	0.001054	20.674849
463.127627	-3.003400	3.791500	-11.386000	23.382196	0.001055	20.683384
465.422084	-2.995500	3.792100	-11.358000	23.385237	0.001056	20.672206
466.390084	-2.996200	3.792300	-11.361000	23.387376	0.001054	20.672453
467.393085	-2.990200	3.791300	-11.336000	23.406980	0.001055	20.675981
468.394082	-2.991500	3.791400	-11.341000	23.424477	0.001057	20.693995
469.399083	-2.998800	3.790600	-11.367000	23.437433	0.001056	20.679479
470.377085	-3.022400	3.790200	-11.455000	23.432003	0.001056	20.648902
471.380083	-2.985300	3.790500	-11.315000	23.444652	0.001057	20.662530
472.373083	-2.997700	3.790100	-11.360000	23.440517	0.001058	20.696322
473.405084	-2.993400	3.789300	-11.342000	23.404552	0.001057	20.665011
474.415102	-3.004800	3.788700	-11.383000	23.397554	0.001058	20.683130
475.413087	-3.003800	3.789800	-11.383000	23.425987	0.001058	20.675592
476.393085	-2.985300	3.789100	-11.311000	23.415432	0.001058	20.677341
477.423086	-3.010700	3.787800	-11.403000	23.429334	0.001058	20.664721
478.372087	-2.989300	3.787600	-11.322000	23.423086	0.001056	20.688807
479.409086	-2.994500	3.787300	-11.340000	23.402099	0.001061	20.672986
480.391084	-2.989300	3.787000	-11.318000	23.413827	0.001059	20.674309
481.389086	-3.026200	3.786700	-11.457000	23.404815	0.001061	20.693253
482.397085	-2.999800	3.787300	-11.360000	23.406909	0.001059	20.664055
483.398086	-2.989000	3.786600	-11.317000	23.376037	0.001059	20.660138
484.389083	-3.012000	3.786500	-11.404000	23.382113	0.001059	20.678558
485.380084	-3.002000	3.785600	-11.363000	23.411148	0.001060	20.677788
486.380084	-2.990000	3.785400	-11.317000	23.417243	0.001060	20.675362
487.379085	-2.988700	3.785700	-11.313000	23.408082	0.001062	20.674715
488.376083	-2.994700	3.785100	-11.334000	23.436048	0.001061	20.675245
489.413084	-2.990600	3.785600	-11.320000	23.445730	0.001059	20.676889
490.379092	-3.003900	3.784400	-11.367000	23.469063	0.001062	20.692691
491.397499	-2.990000	3.784100	-11.314000	23.492493	0.001061	20.682037
492.402498	-2.998300	3.785600	-11.350000	23.472718	0.001060	20.677388
493.396498	-3.010900	3.784200	-11.393000	23.505461	0.001059	20.689347
494.413498	-2.987500	3.783800	-11.303000	23.504042	0.001060	20.682708
495.403498	-3.002500	3.783200	-11.358000	23.510044	0.001062	20.671654
496.378500	-3.005900	3.781600	-11.366000	23.494735	0.001063	20.699459
497.379499	-3.011300	3.782300	-11.389000	23.505013	0.001063	20.688898
498.413498	-3.004900	3.782500	-11.365000	23.515173	0.001063	20.698609
499.417498	-3.012100	3.782400	-11.392000	23.516814	0.001063	20.695038
500.409498	-2.986000	3.782300	-11.293000	23.548260	0.001061	20.696214
501.381496	-2.993200	3.782700	-11.321000	23.542356	0.001062	20.684131
502.380745	-2.999800	3.781200	-11.342000	23.572880	0.001062	20.708093
503.398494	-2.985900	3.781200	-11.289000	23.565134	0.001064	20.682782
504.397875	-3.004500	3.779000	-11.353000	23.617611	0.001063	20.691768
505.405258	-3.001000	3.779900	-11.343000	23.626045	0.001062	20.695007
506.404751	-2.998400	3.781500	-11.337000	23.616887	0.001065	20.681083
507.402801	-2.993000	3.779100	-11.309000	23.600455	0.001062	20.688793
508.401834	-3.005300	3.779100	-11.356000	23.600879	0.001063	20.679260
509.400847	-3.004200	3.780300	-11.355000	23.604589	0.001063	20.691041
510.384598	-2.999600	3.779500	-11.335000	23.602151	0.001063	20.709935
511.385575	-3.007600	3.777800	-11.361000	23.588705	0.001064	20.677961
512.388700	-3.038600	3.776700	-11.475000	23.593257	0.001062	20.694854
513.402904	-3.004400	3.777600	-11.348000	23.599460	0.001064	20.709134
514.414557	-3.002400	3.776600	-11.337000	23.600682	0.001063	20.695660
515.412942	-3.011100	3.778200	-11.375000	23.623306	0.001063	20.692261
516.407942	-2.972400	3.779200	-11.232000	23.610634	0.001064	20.688566
517.386944	-3.007900	3.776500	-11.359000	23.623951	0.001064	20.700969
518.419942	-3.001900	3.776200	-11.335000	23.612427	0.001064	20.688941
519.416944	-2.993900	3.776100	-11.304000	23.609393	0.001064	20.687321
520.408943	-2.997900	3.776100	-11.320000	23.623380	0.001066	20.701819
521.409942	-3.014000	3.774300	-11.374000	23.606052	0.001063	20.708156
522.406945	-2.994800	3.775300	-11.306000	23.616211	0.001065	20.720712
523.389942	-3.004100	3.776200	-11.343000	23.634184	0.001064	20.695580
524.395947	-2.984700	3.776300	-11.268000	23.610462	0.001068	20.721587
525.408944	-3.004800	3.775400	-11.343000	23.624602	0.001067	20.702570
526.414941	-3.007700	3.772900	-11.346000	23.624553	0.001066	20.700149
527.391943	-3.016700	3.772900	-11.379000	23.662089	0.001067	20.695106
528.413651	-2.985200	3.773900	-11.265000	23.655044	0.001066	20.707484
529.415260	-2.982100	3.774700	-11.256000	23.677070	0.001068	20.694478
530.414321	-2.990300	3.772700	-11.280000	23.669705	0.001068	20.691836
531.395328	-3.005200	3.772200	-11.335000	23.657280	0.001066	20.707355
532.410527	-3.008700	3.772200	-11.349000	23.640658	0.001067	20.702545
533.411859	-3.010500	3.771700	-11.353000	23.646285	0.001066	20.727153
534.412174	-2.997800	3.772900	-11.310000	23.644773	0.001067	20.692445
535.399572	-3.024900	3.771000	-11.406000	23.621291	0.001068	20.698776
536.427574	-3.010200	3.769800	-11.345000	23.635904	0.001067	20.711530
537.412573	-2.995900	3.771200	-11.298000	23.642870	0.001066	20.698124
538.394979	-3.012800	3.770500	-11.358000	23.626874	0.001066	20.727609
539.395093	-2.989200	3.770600	-11.269000	23.635707	0.001065	20.708488
540.418975	-3.035000	3.768800	-11.436000	23.633373	0.001065	20.701405
541.428721	-3.017300	3.769000	-11.371000	23.639442	0.001067	20.711758
542.413406	-2.995800	3.770200	-11.294000	23.678254	0.001067	20.711314
543.420437	-2.986000	3.770200	-11.257000	23.679698	0.001067	20.687629
544.394532	-3.006000	3.767500	-11.324000	23.699690	0.001068	20.695819
545.394191	-2.995500	3.768700	-11.287000	23.714376	0.001068	20.721924
546.420285	-3.008100	3.767400	-11.331000	23.717312	0.001067	20.704952
547.419516	-2.999000	3.767300	-11.297000	23.710445	0.001068	20.712767
548.419382	-3.013600	3.767100	-11.352000	23.720450	0.001069	20.722324
549.419384	-2.990800	3.767000	-11.265000	23.738372	0.001067	20.726543
550.395621	-3.007700	3.766500	-11.327000	23.734515	0.001070	20.711295
551.414080	-2.964800	3.768400	-11.171000	23.765703	0.001068	20.717909
552.412124	-2.998700	3.766500	-11.293000	23.759481	0.001068	20.702186
553.398514	-2.986900	3.766400	-11.247000	23.750250	0.001066	20.723278
554.420515	-2.992800	3.766400	-11.271000	23.738506	0.001069	20.721461
555.397513	-2.975200	3.765900	-11.201000	23.722722	0.001066	20.729818
556.422513	-3.002200	3.764700	-11.300000	23.708362	0.001070	20.742448
557.401514	-3.002600	3.765400	-11.304000	23.707613	0.001071	20.719885
558.399513	-3.017700	3.764700	-11.359000	23.715259	0.001069	20.721387
559.399513	-2.995200	3.764000	-11.274000	23.742615	0.001069	20.721787
560.415515	-2.993800	3.764400	-11.269000	23.722875	0.001069	20.708159
561.400514	-3.010600	3.763100	-11.327000	23.748290	0.001069	20.729849
562.423513	-3.021000	3.762100	-11.363000	23.760783	0.001071	20.734313
563.402514	-3.002100	3.762400	-11.295000	23.753186	0.001070	20.722429
564.421518	-2.987000	3.763200	-11.240000	23.755501	0.001069	20.732811
565.403092	-3.013400	3.761800	-11.334000	23.729663	0.001068	20.733458
566.421092	-3.013600	3.761900	-11.337000	23.719811	0.001068	20.732115
567.424096	-2.995300	3.761900	-11.266000	23.715573	0.001068	20.721228
568.420090	-2.971300	3.762600	-11.178000	23.704419	0.001068	20.726167
569.441200	-3.001500	3.760300	-11.285000	23.671062	0.001068	20.730182
570.411201	-2.995100	3.761100	-11.264000	23.698173	0.001067	20.727017
571.405199	-2.992300	3.760700	-11.250000	23.683758	0.001070	20.701657
572.406200	-2.990300	3.761400	-11.246000	23.690926	0.001069	20.742037
573.437200	-2.995300	3.761100	-11.265000	23.704211	0.001070	20.750616
574.425201	-3.004500	3.760000	-11.296000	23.712183	0.001070	20.720200
575.432200	-3.000600	3.760700	-11.284000	23.693580	0.001068	20.728102
576.406950	-2.998500	3.760500	-11.275000	23.738391	0.001067	20.730829
577.424951	-2.989300	3.759900	-11.238000	23.751247	0.001069	20.740874
578.426575	-3.011900	3.759100	-11.321000	23.769297	0.001067	20.723883
579.408574	-3.003500	3.758300	-11.286000	23.782336	0.001068	20.756399
580.408576	-3.025500	3.756700	-11.365000	23.816907	0.001070	20.718988
581.408576	-2.991500	3.758500	-11.242000	23.833709	0.001067	20.744372
582.415577	-2.990100	3.758500	-11.238000	23.803794	0.001069	20.741403
583.434573	-3.002200	3.757800	-11.281000	23.801498	0.001067	20.730566
584.411574	-3.013800	3.757400	-11.322000	23.781188	0.001070	20.743393
585.410573	-2.991100	3.756100	-11.232000	23.785444	0.001070	20.750980
586.409877	-2.977400	3.757800	-11.188000	23.824867	0.001070	20.746411
587.409838	-2.980100	3.757100	-11.194000	23.846687	0.001068	20.739367
588.410661	-2.979700	3.755500	-11.189000	23.845638	0.001070	20.753487
589.423110	-2.991600	3.755600	-11.234000	23.853559	0.001069	20.736300
590.411112	-2.989000	3.755200	-11.223000	23.872253	0.001069	20.738448
591.415575	-3.010800	3.753800	-11.301000	23.856145	0.001067	20.752643
592.436450	-2.991100	3.755300	-11.231000	23.877424	0.001069	20.748850
593.432443	-3.030700	3.753200	-11.374000	23.890044	0.001068	20.751073
594.438843	-3.017200	3.753100	-11.323000	23.889841	0.001069	20.734274
595.453950	-3.004800	3.753000	-11.276000	23.930255	0.001070	20.748721
596.410952	-3.009400	3.752500	-11.292000	23.911390	0.001068	20.753986
597.417093	-3.007800	3.752700	-11.287000	23.914848	0.001071	20.747496
598.429438	-3.017300	3.752100	-11.321000	23.887102	0.001070	20.770884
599.433794	-2.999100	3.752300	-11.253000	23.864725	0.001069	20.760773
600.413826	-3.005600	3.753200	-11.279000	23.857632	0.001069	20.760773
601.411829	-3.013400	3.752000	-11.306000	23.843814	0.001071	20.748814
602.438834	-2.991300	3.753000	-11.225000	23.860119	0.001069	20.736713
603.412827	-2.994100	3.750800	-11.228000	23.882939	0.001070	20.723559
604.413828	-3.003200	3.751100	-11.265000	23.902553	0.001070	20.738487
605.432683	-2.988000	3.750600	-11.206000	23.908578	0.001070	20.748321
606.439225	-3.020700	3.749200	-11.324000	23.931195	0.001068	20.765786
607.434182	-2.996300	3.750200	-11.236000	23.908228	0.001068	20.741806
608.432565	-2.999700	3.748600	-11.243000	23.889185	0.001069	20.747367
609.435566	-2.998800	3.748500	-11.239000	23.886028	0.001069	20.770755
610.434877	-2.993700	3.749500	-11.223000	23.917329	0.001069	20.750933
611.437877	-3.003500	3.749100	-11.259000	23.932908	0.001070	20.752331
612.437879	-3.005900	3.748800	-11.267000	23.918649	0.001070	20.757472
613.434879	-2.982700	3.748200	-11.180000	23.920319	0.001069	20.742077
614.444885	-3.011600	3.747900	-11.285000	23.918146	0.001068	20.774038
615.437740	-3.010900	3.747100	-11.282000	23.923703	0.001067	20.773920
616.421734	-3.031400	3.746800	-11.356000	23.913049	0.001070	20.782677
617.442735	-3.018000	3.745100	-11.301000	23.932627	0.001069	20.766747
618.440736	-3.007800	3.747300	-11.270000	23.935193	0.001069	20.756519
619.422733	-2.998300	3.746300	-11.230000	23.953855	0.001071	20.792303
620.421526	-2.994500	3.746700	-11.219000	23.971350	0.001069	20.764327
621.443528	-3.011900	3.746000	-11.282000	23.972965	0.001069	20.758834
622.443525	-3.021800	3.744700	-11.314000	23.956736	0.001070	20.749197
623.440528	-3.005700	3.745200	-11.254000	23.971891	0.001068	20.779095
624.440531	-2.991600	3.744800	-11.202000	23.978786	0.001070	20.757086
625.440526	-2.991400	3.744500	-11.200000	23.972590	0.001067	20.785012
626.424526	-2.986000	3.745000	-11.180000	24.002673	0.001066	20.772031
627.441525	-2.997000	3.742000	-11.213000	23.985173	0.001068	20.782457
628.441526	-2.989800	3.743700	-11.192000	23.983982	0.001070	20.785530
629.423525	-3.015700	3.742200	-11.285000	23.984651	0.001070	20.771502
630.422528	-3.000300	3.742800	-11.229000	24.021027	0.001067	20.773843
631.439005	-3.004400	3.742100	-11.243000	24.027928	0.001069	20.761323
632.444920	-3.013600	3.741900	-11.275000	24.039945	0.001069	20.789496
633.445084	-3.033800	3.740900	-11.347000	24.072543	0.001068	20.782359
634.439432	-3.008200	3.741000	-11.253000	24.041984	0.001067	20.788221
635.448432	-3.001800	3.740800	-11.228000	24.035359	0.001068	20.790112
636.425021	-3.016700	3.741200	-11.284000	24.005031	0.001066	20.775345
637.447499	-3.026600	3.741500	-11.323000	24.024810	0.001067	20.809879
638.440500	-2.977500	3.739800	-11.134000	23.990374	0.001066	20.763017
639.444053	-2.991000	3.739800	-11.182000	23.976761	0.001066	20.770702
640.424051	-2.985700	3.740100	-11.166000	24.002072	0.001066	20.800826
641.427054	-3.003500	3.737600	-11.224000	23.981421	0.001068	20.781065
642.452700	-2.991800	3.739000	-11.185000	23.981292	0.001067	20.777143
643.442708	-3.000200	3.739300	-11.218000	23.985799	0.001068	20.771231
644.463703	-2.997100	3.740100	-11.208000	23.993266	0.001067	20.780616
645.444858	-2.985500	3.738500	-11.160000	24.032834	0.001066	20.776200
646.441549	-2.982000	3.740100	-11.151000	24.025736	0.001067	20.823136
647.456257	-2.998800	3.737400	-11.205000	24.031287	0.001065	20.801202
648.443541	-2.985900	3.738200	-11.162000	24.037488	0.001066	20.802205
649.448616	-2.994500	3.737300	-11.190000	24.055331	0.001065	20.780745
650.457616	-2.997600	3.737300	-11.201000	24.078847	0.001065	20.783466
651.463619	-3.009000	3.736300	-11.241000	24.069564	0.001063	20.794544
652.456617	-2.986800	3.737100	-11.161000	24.080591	0.001064	20.795172
653.450620	-3.022500	3.736400	-11.292000	24.101185	0.001065	20.781687
654.447164	-3.003100	3.735600	-11.217000	24.062631	0.001064	20.789488
655.463105	-3.003200	3.736200	-11.218000	24.088549	0.001065	20.811688
656.449105	-2.999200	3.735000	-11.201000	24.114256	0.001063	20.786736
657.431625	-2.986500	3.735700	-11.155000	24.113734	0.001064	20.804230
658.432886	-2.990600	3.734800	-11.168000	24.119536	0.001066	20.786342
659.431884	-2.990100	3.734000	-11.164000	24.137500	0.001065	20.785867
660.431885	-3.007000	3.733600	-11.226000	24.149694	0.001064	20.798571
661.455885	-3.010500	3.733600	-11.238000	24.127124	0.001067	20.802013
662.434824	-2.991700	3.733400	-11.168000	24.104610	0.001064	20.822106
663.439478	-3.002300	3.733000	-11.206000	24.112229	0.001066	20.800824
664.433605	-2.986800	3.731700	-11.144000	24.103897	0.001065	20.796735
665.457590	-2.981500	3.735000	-11.134000	24.138304	0.001066	20.806588
666.457037	-3.007600	3.731600	-11.222000	24.135694	0.001065	20.812031
667.455777	-3.006300	3.731200	-11.216000	24.141018	0.001064	20.802671
668.437778	-3.004400	3.731000	-11.208000	24.166098	0.001065	20.815972
669.435334	-3.006000	3.731200	-11.215000	24.142988	0.001065	20.801328
670.434457	-2.981400	3.732100	-11.126000	24.127731	0.001064	20.824433
671.450198	-3.027900	3.731000	-11.296000	24.156692	0.001064	20.812228
672.450814	-3.003600	3.732100	-11.208000	24.150822	0.001063	20.806815
673.453020	-2.991800	3.731400	-11.163000	24.182742	0.001066	20.822709
674.450246	-3.014900	3.730400	-11.246000	24.185603	0.001064	20.808035
675.452246	-3.019600	3.729900	-11.262000	24.196893	0.001063	20.814618
676.454245	-3.007100	3.730000	-11.215000	24.205605	0.001062	20.797277
677.453005	-3.004000	3.729900	-11.204000	24.207698	0.001063	20.806489
678.462800	-2.988100	3.729700	-11.144000	24.189759	0.001064	20.832592
679.439798	-2.988600	3.728300	-11.141000	24.151492	0.001063	20.807487
680.435797	-3.008200	3.728400	-11.214000	24.140993	0.001063	20.804543
681.436637	-3.014000	3.727600	-11.234000	24.174214	0.001061	20.825535
682.436602	-3.015300	3.726800	-11.237000	24.169855	0.001061	20.830646
683.436077	-3.008200	3.727200	-11.212000	24.178340	0.001060	20.821138
684.436623	-2.986900	3.727400	-11.131000	24.202572	0.001062	20.816994
685.439713	-2.984800	3.728000	-11.126000	24.196604	0.001062	20.818595
686.435852	-3.002800	3.727300	-11.192000	24.197525	0.001060	20.824260
687.452973	-2.987500	3.727000	-11.134000	24.211663	0.001061	20.822794
688.457736	-2.997400	3.727200	-11.171000	24.221516	0.001060	20.817979
689.453482	-2.989800	3.727700	-11.143000	24.256417	0.001060	20.829753
690.461147	-3.001100	3.725000	-11.178000	24.259505	0.001060	20.832375
691.455326	-2.996300	3.725200	-11.161000	24.267768	0.001060	20.835448
692.456560	-3.013900	3.725800	-11.228000	24.269063	0.001062	20.827264
693.453747	-2.992100	3.724400	-11.143000	24.278197	0.001059	20.821728
694.456473	-3.008200	3.725500	-11.204000	24.256674	0.001060	20.841864
695.454330	-2.995000	3.725100	-11.155000	24.270610	0.001059	20.830238
696.463048	-2.995100	3.724200	-11.154000	24.271702	0.001062	20.822325
697.467050	-3.001100	3.724100	-11.176000	24.285490	0.001059	20.834733
698.463693	-2.985600	3.722500	-11.114000	24.255992	0.001059	20.849239
699.464502	-3.003300	3.723100	-11.181000	24.245568	0.001060	20.825982
700.469074	-2.998200	3.722700	-11.161000	24.256391	0.001059	20.829252
701.442366	-3.004500	3.722800	-11.183000	24.255273	0.001058	20.839510
702.463366	-2.980700	3.723200	-11.095000	24.274826	0.001057	20.829726
703.446369	-3.006100	3.722400	-11.189000	24.290977	0.001059	20.833124
704.440430	-3.002500	3.722400	-11.176000	24.322253	0.001058	20.834626
705.439937	-2.995900	3.721300	-11.147000	24.312799	0.001058	20.830833
706.460137	-2.977500	3.721900	-11.080000	24.317280	0.001057	20.828690
707.464138	-2.998700	3.722200	-11.161000	24.352859	0.001059	20.845414
708.460032	-2.986800	3.721200	-11.114000	24.346119	0.001056	20.848135
709.463265	-3.015200	3.721000	-11.218000	24.316813	0.001058	20.837704
710.459832	-3.008100	3.720200	-11.190000	24.291939	0.001056	20.819865
711.471130	-3.007200	3.720000	-11.185000	24.295253	0.001057	20.821294
712.462129	-3.007900	3.719700	-11.188000	24.310582	0.001055	20.842359
713.443132	-2.998000	3.718600	-11.148000	24.302245	0.001057	20.836367
714.445449	-2.964000	3.719200	-11.023000	24.291723	0.001055	20.840511
715.446323	-2.988800	3.719700	-11.116000	24.283245	0.001054	20.832007
716.466230	-3.025400	3.719200	-11.251000	24.280557	0.001057	20.835948
717.461234	-2.982700	3.718900	-11.091000	24.279469	0.001054	20.842444
718.465752	-3.026400	3.717300	-11.248000	24.318377	0.001055	20.816514
719.447698	-2.994400	3.718700	-11.135000	24.306235	0.001054	20.802912
720.446667	-2.962900	3.719800	-11.020000	24.300612	0.001055	20.843263
721.448345	-2.993000	3.717400	-11.125000	24.293128	0.001053	20.818688
722.466343	-3.003200	3.716600	-11.160000	24.278322	0.001054	20.809051
723.447078	-2.987400	3.716400	-11.101000	24.307634	0.001052	20.804789
724.451177	-3.008500	3.716100	-11.179000	24.303981	0.001053	20.821513
725.468442	-3.015000	3.715600	-11.202000	24.258603	0.001054	20.819617
726.473827	-3.006200	3.715700	-11.170000	24.256319	0.001055	20.798834
727.452062	-2.998900	3.716400	-11.143000	24.276718	0.001052	20.829253
728.465770	-3.008500	3.714000	-11.172000	24.278984	0.001054	20.802128
729.477770	-2.994200	3.714500	-11.121000	24.308437	0.001055	20.799431
730.449084	-2.980300	3.715500	-11.071000	24.335907	0.001052	20.808021
731.450084	-3.009000	3.713700	-11.172000	24.350836	0.001054	20.793125
732.451084	-3.013100	3.713200	-11.186000	24.332599	0.001050	20.812289
733.453875	-2.999800	3.713400	-11.137000	24.333156	0.001052	20.809529
734.450054	-3.022000	3.713100	-11.218000	24.308424	0.001051	20.802737
735.477601	-3.004400	3.713300	-11.156000	24.319271	0.001054	20.800342
736.452299	-3.012400	3.711900	-11.180000	24.317761	0.001051	20.805465
737.451723	-2.975000	3.714300	-11.048000	24.326121	0.001051	20.813377
738.454976	-2.987700	3.712700	-11.090000	24.331867	0.001051	20.808710
739.453987	-2.992100	3.713400	-11.110000	24.336673	0.001050	20.807367
740.453987	-2.997700	3.712600	-11.128000	24.339558	0.001052	20.791769
741.455490	-3.008300	3.711800	-11.165000	24.361853	0.001051	20.816505
742.477492	-2.987500	3.710700	-11.084000	24.359864	0.001052	20.789379
743.476490	-2.982000	3.711800	-11.068000	24.384226	0.001052	20.779206
744.473490	-3.004900	3.710500	-11.148000	24.373920	0.001049	20.789730
745.476488	-2.986000	3.710500	-11.078000	24.405746	0.001049	20.793683
746.481490	-2.996200	3.710400	-11.117000	24.403875	0.001050	20.805556
747.480489	-2.977400	3.710800	-11.047000	24.402990	0.001048	20.812255
748.482490	-3.011500	3.709600	-11.171000	24.410847	0.001048	20.777937
749.475491	-2.986700	3.711200	-11.082000	24.400805	0.001049	20.796312
750.480494	-2.969800	3.710300	-11.018000	24.390658	0.001050	20.788029
751.475056	-2.986700	3.710300	-11.080000	24.418347	0.001049	20.781668
752.487053	-2.994900	3.709000	-11.107000	24.417899	0.001047	20.794969
753.485053	-3.009100	3.708000	-11.156000	24.425412	0.001047	20.787333
754.487902	-3.001500	3.710300	-11.134000	24.437957	0.001046	20.786169
755.485905	-2.993500	3.708500	-11.100000	24.431739	0.001047	20.790362
756.480906	-3.013500	3.707200	-11.171000	24.427786	0.001046	20.784500
757.475910	-2.976800	3.707800	-11.035000	24.404406	0.001047	20.772898
758.479595	-2.993200	3.708400	-11.098000	24.376496	0.001047	20.778563
759.475545	-3.008900	3.706900	-11.153000	24.326971	0.001046	20.777719
760.482067	-3.003800	3.706800	-11.133000	24.317719	0.001047	20.783612
761.479967	-2.995700	3.706200	-11.101000	24.315957	0.001045	20.783741
762.461493	-3.016200	3.704500	-11.172000	24.322028	0.001045	20.783193
763.486494	-2.991700	3.704800	-11.083000	24.365888	0.001045	20.787362
764.491496	-3.019400	3.704000	-11.183000	24.338971	0.001045	20.770791
765.463493	-2.994000	3.706300	-11.095000	24.353224	0.001046	20.769442
766.479528	-2.996800	3.705700	-11.103000	24.350345	0.001046	20.760864
767.487221	-3.009400	3.704700	-11.148000	24.343629	0.001043	20.761239
768.479218	-2.997800	3.705100	-11.106000	24.386665	0.001044	20.781653
769.462218	-2.979300	3.705300	-11.037000	24.391895	0.001043	20.752285
770.463220	-2.988100	3.705300	-11.070000	24.375524	0.001044	20.746294
771.463427	-2.995400	3.702900	-11.091000	24.391545	0.001043	20.777065
772.483827	-2.992200	3.703300	-11.078000	24.374505	0.001041	20.769454
773.462827	-2.986000	3.703000	-11.056000	24.368607	0.001042	20.787719
774.486626	-3.000100	3.703000	-11.109000	24.382068	0.001042	20.769454
775.463958	-3.006400	3.703000	-11.131000	24.418688	0.001044	20.780113
776.488013	-3.001500	3.702300	-11.112000	24.392018	0.001041	20.772798
777.463243	-2.981500	3.701900	-11.036000	24.373787	0.001042	20.760672
778.465045	-2.974200	3.701600	-11.009000	24.424777	0.001041	20.758247
779.486751	-2.988200	3.702600	-11.063000	24.437347	0.001041	20.784608
780.463892	-3.009100	3.699200	-11.130000	24.439582	0.001041	20.762194
781.467127	-2.984200	3.701800	-11.045000	24.453766	0.001040	20.779743
782.483680	-3.005800	3.701300	-11.125000	24.467110	0.001040	20.764682
783.489865	-3.012200	3.700100	-11.144000	24.457934	0.001042	20.769700
784.484150	-2.985600	3.701100	-11.049000	24.473935	0.001040	20.769158
785.484147	-3.009600	3.698900	-11.131000	24.493754	0.001040	20.774344
786.485897	-3.005000	3.699000	-11.113000	24.461150	0.001039	20.759650
787.488895	-2.993600	3.699900	-11.076000	24.452047	0.001041	20.785606
788.467896	-2.984900	3.698900	-11.040000	24.477041	0.001040	20.761843
789.495895	-2.990700	3.698100	-11.059000	24.489856	0.001038	20.757156
790.467289	-2.999500	3.698600	-11.094000	24.484332	0.001040	20.764416
791.470853	-2.984600	3.699200	-11.039000	24.516592	0.001037	20.765488
792.486166	-2.988900	3.698300	-11.053000	24.494582	0.001039	20.758579
793.489445	-3.013300	3.697500	-11.140000	24.513762	0.001038	20.775925
794.483990	-2.989700	3.697200	-11.053000	24.481950	0.001037	20.762975
795.470990	-2.986000	3.697100	-11.039000	24.478071	0.001038	20.748177
796.470990	-3.000600	3.697200	-11.091000	24.486419	0.001037	20.744699
797.471991	-2.974200	3.696000	-10.992000	24.472149	0.001035	20.767366
798.472544	-3.002900	3.695200	-11.095000	24.484289	0.001036	20.753941
799.486971	-3.007700	3.694800	-11.111000	24.476856	0.001036	20.751699
800.490922	-2.990500	3.696200	-11.053000	24.463598	0.001036	20.762107
801.491444	-2.994200	3.695700	-11.064000	24.477107	0.001036	20.742942
802.476541	-3.035400	3.694100	-11.211000	24.465317	0.001036	20.751028
803.473542	-3.000000	3.694400	-11.082000	24.473725	0.001037	20.743343
804.476134	-3.007000	3.695000	-11.110000	24.434400	0.001036	20.748934
805.474363	-3.005500	3.693700	-11.100000	24.449229	0.001035	20.745319
806.492898	-3.021500	3.693500	-11.158000	24.452242	0.001035	20.751662
807.479156	-3.017000	3.694500	-11.145000	24.429906	0.001032	20.745374
808.496130	-3.017200	3.692600	-11.140000	24.443839	0.001034	20.746550
809.493032	-3.019700	3.690700	-11.143000	24.463818	0.001034	20.770388
810.477211	-3.009500	3.693100	-11.114000	24.454488	0.001035	20.745854
811.492492	-3.010300	3.692100	-11.114000	24.473399	0.001033	20.762456
812.499015	-3.002300	3.692600	-11.085000	24.491008	0.001032	20.769218
813.495323	-2.997800	3.692500	-11.069000	24.505965	0.001033	20.748662
814.477239	-3.012500	3.691800	-11.120000	24.521137	0.001034	20.739701
815.478237	-3.015400	3.690900	-11.128000	24.517558	0.001034	20.738008
816.477096	-3.035600	3.689300	-11.197000	24.528679	0.001034	20.755330
817.494589	-3.001800	3.692600	-11.083000	24.552425	0.001035	20.743119
818.502144	-2.979500	3.691900	-10.998000	24.545717	0.001033	20.753933
819.478601	-3.004400	3.690300	-11.085000	24.545048	0.001032	20.737613
820.494469	-3.013100	3.689800	-11.117000	24.536738	0.001030	20.727853
821.496902	-3.010200	3.690100	-11.106000	24.551191	0.001031	20.746623
822.478881	-3.005300	3.689300	-11.086000	24.539303	0.001031	20.747023
823.503211	-2.978700	3.690200	-10.991000	24.535798	0.001031	20.732126
824.481307	-2.985800	3.689400	-11.015000	24.532441	0.001031	20.735870
825.503846	-2.985700	3.688900	-11.013000	24.531747	0.001028	20.733278
826.479658	-2.979400	3.688400	-10.986000	24.510107	0.001031	20.749498
827.479043	-2.986700	3.690400	-11.021000	24.513317	0.001029	20.728536
828.479980	-3.001100	3.688500	-11.068000	24.495333	0.001029	20.749375
829.499015	-2.963000	3.689900	-10.931000	24.480511	0.001029	20.723123
830.481167	-3.016800	3.686300	-11.119000	24.468696	0.001028	20.734977
831.484299	-3.027200	3.686300	-11.158000	24.443942	0.001029	20.726738
832.496917	-2.990700	3.686900	-11.025000	24.445857	0.001029	20.742410
833.511963	-2.986600	3.686500	-11.010000	24.466112	0.001029	20.730014
834.515963	-2.993000	3.687100	-11.035000	24.468720	0.001030	20.727889
835.483962	-3.002000	3.686800	-11.067000	24.459520	0.001029	20.728616
836.481961	-3.006300	3.687200	-11.083000	24.448674	0.001026	20.733382
837.497962	-2.995200	3.687200	-11.043000	24.417904	0.001028	20.740445
838.504783	-2.995500	3.686400	-11.041000	24.417339	0.001025	20.728498
839.504265	-3.002000	3.684100	-11.059000	24.445243	0.001026	20.722353
840.483165	-3.019400	3.684700	-11.124000	24.435053	0.001026	20.733942
841.498679	-3.005500	3.684200	-11.072000	24.446593	0.001028	20.736510
842.482600	-2.992900	3.684800	-11.027000	24.500893	0.001024	20.725555
843.483354	-3.003400	3.685200	-11.067000	24.502833	0.001025	20.745993
844.483088	-2.994300	3.684500	-11.031000	24.500549	0.001025	20.733745
845.503091	-3.003500	3.683700	-11.061000	24.489655	0.001024	20.719495
846.484000	-2.995900	3.683900	-11.036000	24.500328	0.001022	20.730204
847.482837	-3.016000	3.683400	-11.108000	24.508688	0.001021	20.724365
848.483362	-3.011400	3.683100	-11.090000	24.510977	0.001021	20.713859
849.510362	-3.009800	3.682000	-11.081000	24.535778	0.001022	20.710768
850.509717	-3.003000	3.683800	-11.062000	24.553373	0.001022	20.728897
851.484556	-2.980800	3.682500	-10.976000	24.543616	0.001023	20.736651
852.486028	-2.983300	3.682800	-10.986000	24.579935	0.001019	20.725202
853.508447	-2.998600	3.681700	-11.039000	24.592946	0.001020	20.720713
854.485487	-2.995600	3.681800	-11.029000	24.586931	0.001021	20.721790
855.486487	-3.000200	3.680300	-11.041000	24.623667	0.001019	20.732099
856.485445	-2.994000	3.680400	-11.019000	24.617800	0.001020	20.717202
857.484024	-2.997900	3.680700	-11.033000	24.631387	0.001018	20.732259
858.500022	-3.003000	3.681300	-11.053000	24.631958	0.001019	20.725719
859.486024	-3.007900	3.678300	-11.063000	24.616290	0.001020	20.723274
860.485998	-2.993600	3.679900	-11.016000	24.622409	0.001017	20.717559
861.488963	-2.984600	3.678400	-10.977000	24.642507	0.001018	20.721131
862.506671	-2.982500	3.680700	-10.976000	24.617296	0.001017	20.709583
863.504673	-3.012600	3.679600	-11.084000	24.599738	0.001018	20.716148
864.486890	-3.003700	3.679200	-11.051000	24.583426	0.001018	20.730127
865.484891	-3.007800	3.678200	-11.062000	24.572060	0.001019	20.700703
866.488758	-3.018200	3.678300	-11.100000	24.588231	0.001017	20.705075
867.486765	-3.000400	3.678500	-11.035000	24.587912	0.001017	20.705229
868.487742	-2.964500	3.679900	-10.908000	24.584505	0.001016	20.707027
869.489747	-2.999100	3.677500	-11.028000	24.564836	0.001016	20.718586
870.489744	-2.973700	3.678200	-10.937000	24.570733	0.001017	20.716443
871.508744	-3.020200	3.675500	-11.100000	24.601572	0.001016	20.699495
872.517042	-3.013000	3.674500	-11.071000	24.608568	0.001018	20.703670
873.514327	-3.003000	3.676800	-11.040000	24.625211	0.001014	20.698559
874.492409	-3.002000	3.675100	-11.032000	24.632600	0.001013	20.715457
875.492410	-2.992000	3.676300	-10.998000	24.627709	0.001015	20.692055
876.493408	-2.986700	3.676500	-10.980000	24.610648	0.001014	20.707654
877.508966	-3.013300	3.675100	-11.074000	24.590531	0.001015	20.702641
878.493965	-2.992000	3.674700	-10.993000	24.553799	0.001013	20.709883
879.509965	-2.982300	3.674900	-10.957000	24.533214	0.001013	20.689227
880.493966	-2.998300	3.673400	-11.012000	24.546097	0.001013	20.706896
881.509964	-2.995500	3.674700	-11.007000	24.540904	0.001013	20.710695
882.512330	-2.981100	3.673100	-10.947000	24.540511	0.001013	20.698920
883.494329	-3.026900	3.671700	-11.112000	24.524444	0.001013	20.698920
884.495328	-3.008800	3.673600	-11.052000	24.511739	0.001011	20.707511
885.515331	-2.992100	3.672800	-10.987000	24.512193	0.001013	20.697534
886.519330	-2.991800	3.672100	-10.984000	24.499905	0.001013	20.713657
887.496332	-2.989500	3.673900	-10.982000	24.481553	0.001011	20.715159
888.513723	-2.985400	3.672900	-10.964000	24.461557	0.001012	20.689405
889.513722	-2.984100	3.671600	-10.955000	24.463699	0.001009	20.683493
890.515892	-2.995500	3.671900	-10.999000	24.443008	0.001008	20.698297
891.512892	-3.007700	3.670900	-11.039000	24.416240	0.001009	20.705109
892.524893	-2.990700	3.670900	-10.976000	24.388992	0.001009	20.680142
893.524889	-3.015800	3.670900	-11.070000	24.392945	0.001010	20.706395
894.514894	-2.990900	3.672000	-10.981000	24.409113	0.001010	20.690845
895.528897	-2.979800	3.671600	-10.939000	24.398801	0.001007	20.673386
896.522451	-3.008500	3.671300	-11.044000	24.401139	0.001008	20.694226
897.498127	-3.010600	3.671800	-11.053000	24.410420	0.001008	20.689786
898.526128	-3.012300	3.669400	-11.052000	24.400728	0.001008	20.672948
899.519378	-2.981500	3.671000	-10.944000	24.390630	0.001008	20.687476
900.517924	-3.001000	3.670200	-11.013000	24.430731	0.001008	20.662269
901.501924	-2.987200	3.669000	-10.957000	24.453692	0.001007	20.702379
902.500840	-2.997000	3.669700	-10.998000	24.484142	0.001006	20.675079
903.522533	-2.994900	3.668900	-10.987000	24.476562	0.001006	20.699718
904.519532	-2.987100	3.668300	-10.956000	24.490120	0.001007	20.685819
905.520483	-3.014600	3.667200	-11.054000	24.473063	0.001006	20.682930
906.518482	-2.983000	3.668100	-10.940000	24.501842	0.001005	20.697581
907.505826	-2.998300	3.667300	-10.994000	24.536513	0.001006	20.662189
908.508825	-3.022900	3.666300	-11.082000	24.538784	0.001006	20.681064
909.523830	-2.996300	3.667200	-10.987000	24.556447	0.001004	20.687407
910.523825	-3.003300	3.666800	-11.011000	24.540453	0.001003	20.664720
911.506825	-2.995800	3.666100	-10.981000	24.570206	0.001004	20.688411
912.529546	-2.996900	3.666300	-10.987000	24.580480	0.001002	20.686865
913.534935	-3.011600	3.666300	-11.040000	24.529547	0.001002	20.676063
914.511143	-2.988400	3.667100	-10.957000	24.508802	0.001003	20.682751
915.505502	-2.995300	3.666300	-10.980000	24.506463	0.001003	20.672818
916.528089	-3.015300	3.664800	-11.050000	24.516836	0.001002	20.662360
917.535034	-2.970100	3.666300	-10.889000	24.527018	0.001001	20.675897
918.507184	-2.998300	3.665800	-10.990000	24.544730	0.001001	20.681815
919.508922	-3.004700	3.665500	-11.012000	24.552666	0.001001	20.692149
920.507711	-3.031500	3.664300	-11.107000	24.600296	0.000999	20.681618
921.511215	-3.008200	3.663700	-11.020000	24.616670	0.000999	20.670070
922.528149	-3.023400	3.663900	-11.076000	24.607869	0.001000	20.667404
923.531502	-3.010200	3.662100	-11.022000	24.625028	0.001000	20.651428
924.534325	-3.008200	3.663300	-11.019000	24.667089	0.001000	20.675145
925.536595	-2.998200	3.663200	-10.982000	24.653736	0.000998	20.670754
926.534934	-2.984600	3.662600	-10.930000	24.637670	0.000998	20.690196
927.544440	-3.009800	3.661400	-11.019000	24.636436	0.000998	20.673309
928.526016	-2.984900	3.662300	-10.930000	24.639241	0.000999	20.668062
929.554015	-2.990900	3.663400	-10.955000	24.640216	0.000998	20.670464
930.534014	-2.983400	3.664000	-10.930000	24.611839	0.000999	20.666646
931.516019	-2.998900	3.661800	-10.980000	24.575041	0.000999	20.667181
932.526967	-2.994700	3.660800	-10.962000	24.551309	0.000998	20.679406
933.511512	-2.997700	3.659800	-10.970000	24.565019	0.000996	20.665660
934.510283	-3.001000	3.660500	-10.983000	24.590065	0.000997	20.660444
935.514395	-2.989800	3.659800	-10.941000	24.603769	0.000997	20.683206
936.511612	-2.989800	3.661600	-10.947000	24.621253	0.000993	20.640053
937.511635	-2.994900	3.660000	-10.960000	24.642321	0.000995	20.677318
938.532539	-2.998100	3.659800	-10.971000	24.648912	0.000995	20.645047
939.526874	-2.987000	3.660100	-10.932000	24.644806	0.000994	20.668906
940.531968	-3.002000	3.659600	-10.985000	24.662321	0.000993	20.668936
941.538509	-3.005800	3.658900	-10.997000	24.684732	0.000994	20.653965
942.540370	-3.001900	3.658000	-10.979000	24.702589	0.000994	20.669515
943.536201	-3.011000	3.658300	-11.014000	24.708860	0.000994	20.673438
944.532317	-3.013500	3.657300	-11.020000	24.747083	0.000992	20.667224
945.517965	-3.002800	3.657400	-10.981000	24.769437	0.000992	20.661682
946.522468	-2.977400	3.657800	-10.889000	24.754913	0.000992	20.648053
947.517096	-2.981400	3.658100	-10.906000	24.769830	0.000993	20.675354
948.518425	-3.004400	3.656100	-10.984000	24.772665	0.000992	20.671560
949.517927	-3.026700	3.655600	-11.063000	24.747722	0.000992	20.648896
950.519180	-3.002200	3.655900	-10.975000	24.762448	0.000992	20.662729
951.543685	-2.976500	3.658200	-10.887000	24.783857	0.000991	20.676154
952.520643	-3.021200	3.655000	-11.041000	24.766897	0.000991	20.667194
953.542833	-3.015300	3.654500	-11.019000	24.773039	0.000990	20.666719
954.518515	-2.992100	3.656600	-10.939000	24.768173	0.000990	20.671320
955.537680	-2.989700	3.654100	-10.924000	24.749538	0.000990	20.673956
956.544604	-3.009700	3.655500	-11.001000	24.767050	0.000988	20.662605
957.520320	-3.008800	3.654600	-10.995000	24.777420	0.000988	20.672539
958.544090	-2.993600	3.654200	-10.937000	24.762375	0.000988	20.688262
959.533108	-3.013200	3.653000	-11.005000	24.771346	0.000987	20.652216
960.540950	-2.987100	3.654900	-10.917000	24.780402	0.000988	20.673161
961.541293	-2.986000	3.653300	-10.908000	24.762927	0.000988	20.680754
962.544067	-3.013800	3.652500	-11.006000	24.759564	0.000990	20.661731
963.537922	-2.989000	3.653400	-10.920000	24.758877	0.000986	20.666257
964.522358	-3.012500	3.651900	-11.000000	24.750814	0.000987	20.688988
965.520644	-2.997300	3.653100	-10.949000	24.769020	0.000987	20.675963
966.526023	-3.002200	3.652600	-10.965000	24.767326	0.000986	20.681376
967.541211	-3.001300	3.651300	-10.958000	24.759227	0.000985	20.665186
968.541031	-2.983600	3.651700	-10.893000	24.773229	0.000985	20.683507
969.522224	-2.983200	3.651500	-10.893000	24.780169	0.000986	20.671504
970.526308	-2.998700	3.650700	-10.946000	24.795509	0.000984	20.658922
971.523657	-2.978600	3.651600	-10.876000	24.784894	0.000983	20.674349
972.546669	-2.975900	3.651200	-10.865000	24.780243	0.000985	20.691020
973.528555	-3.008800	3.651800	-10.987000	24.757294	0.000983	20.686482
974.523534	-3.003900	3.649500	-10.961000	24.724299	0.000982	20.659532
975.528866	-2.993500	3.649400	-10.923000	24.732307	0.000981	20.674682
976.546284	-2.976400	3.649700	-10.862000	24.709154	0.000982	20.683218
977.528049	-3.022500	3.648400	-11.026000	24.730773	0.000981	20.675513
978.524847	-2.993300	3.648300	-10.919000	24.713867	0.000982	20.685102
979.540482	-2.991300	3.647400	-10.909000	24.722820	0.000981	20.690293
980.523193	-2.998800	3.649400	-10.943000	24.718868	0.000979	20.675421
981.546840	-3.019200	3.647400	-11.010000	24.726753	0.000980	20.666263
982.553562	-3.000600	3.647900	-10.945000	24.727895	0.000979	20.670728
983.521834	-3.009300	3.646900	-10.973000	24.694954	0.000980	20.688883
984.542297	-3.004300	3.649100	-10.962000	24.729576	0.000981	20.669096
985.522671	-3.001300	3.647100	-10.945000	24.731171	0.000979	20.675439
986.524395	-2.991400	3.647900	-10.910000	24.758901	0.000978	20.697104
987.525269	-2.994200	3.646700	-10.916000	24.779144	0.000978	20.691814
988.527849	-3.002900	3.645700	-10.947000	24.802620	0.000979	20.699254
989.522454	-2.986300	3.646500	-10.888000	24.822862	0.000978	20.691593
990.526245	-2.985100	3.646100	-10.883000	24.806657	0.000977	20.694296
991.524765	-2.989900	3.645900	-10.899000	24.774462	0.000978	20.688064
992.521921	-2.964200	3.647400	-10.810000	24.775855	0.000978	20.691833
993.526464	-3.024800	3.643300	-11.019000	24.766730	0.000976	20.690262
994.544581	-2.996300	3.644200	-10.918000	24.742812	0.000977	20.673844
995.546613	-3.019000	3.643700	-10.999000	24.737547	0.000976	20.691796
996.546128	-2.996400	3.645500	-10.923000	24.721463	0.000975	20.696045
997.544732	-2.987700	3.644400	-10.888000	24.740087	0.000974	20.694345
998.553326	-2.963800	3.643400	-10.796000	24.759938	0.000974	20.682496
999.541787	-2.994100	3.643900	-10.909000	24.760613	0.000976	20.695503
1000.548420	-2.986000	3.644400	-10.881000	24.788366	0.000974	20.673092
1001.532228	-3.000300	3.642400	-10.928000	24.819101	0.000974	20.683549
1002.531079	-2.993500	3.642400	-10.903000	24.795557	0.000973	20.698330
1003.528174	-3.018800	3.641700	-10.993000	24.822543	0.000974	20.698859
1004.553185	-2.998800	3.642400	-10.921000	24.819757	0.000972	20.694166
1005.549285	-3.001300	3.640200	-10.924000	24.809265	0.000973	20.685532
1006.554216	-3.000600	3.641500	-10.925000	24.786120	0.000971	20.706877
1007.550809	-3.020800	3.639100	-10.991000	24.813057	0.000974	20.695977
1008.563196	-3.015000	3.640800	-10.976000	24.833593	0.000972	20.689086
1009.555649	-2.997900	3.640400	-10.912000	24.834262	0.000971	20.692128
1010.544835	-3.006200	3.639800	-10.941000	24.852822	0.000969	20.679460
1011.561962	-2.994700	3.640100	-10.898000	24.876837	0.000970	20.699771
1012.546320	-3.002200	3.639000	-10.924000	24.839539	0.000969	20.702166
1013.531319	-2.996600	3.638500	-10.900000	24.808614	0.000968	20.695312
1014.532364	-3.011900	3.639600	-10.960000	24.799859	0.000969	20.713553
1015.531494	-2.977000	3.639500	-10.834000	24.799791	0.000969	20.695466
1016.530197	-2.996400	3.639100	-10.903000	24.808940	0.000969	20.696587
1017.558522	-2.996400	3.638700	-10.902000	24.815014	0.000968	20.702209
1018.565346	-2.970700	3.638700	-10.808000	24.798177	0.000967	20.700485
1019.530681	-2.995800	3.636700	-10.893000	24.784580	0.000966	20.710548
1020.551335	-3.008500	3.636900	-10.940000	24.807485	0.000968	20.706034
1021.556866	-3.007700	3.636700	-10.937000	24.831654	0.000966	20.708953
1022.534235	-3.004900	3.637600	-10.929000	24.851798	0.000966	20.702616
1023.530401	-3.006700	3.636600	-10.933000	24.849387	0.000963	20.693557
1024.532529	-3.028400	3.635000	-11.007000	24.829771	0.000965	20.723184
1025.534510	-2.978200	3.638500	-10.834000	24.837115	0.000964	20.691672
1026.534369	-3.008100	3.635800	-10.936000	24.865032	0.000965	20.689344
1027.558181	-2.999800	3.636100	-10.906000	24.860559	0.000966	20.725635
1028.531776	-3.011800	3.635000	-10.947000	24.849129	0.000963	20.712266
1029.560035	-2.987300	3.636700	-10.862000	24.857381	0.000962	20.731929
1030.549358	-2.992600	3.634600	-10.875000	24.844036	0.000963	20.699567
1031.548340	-2.981900	3.635000	-10.838000	24.777702	0.000961	20.711706
1032.549141	-2.975700	3.635800	-10.818000	24.808854	0.000961	20.703614
1033.548594	-2.979200	3.633800	-10.824000	24.809210	0.000960	20.697332
1034.533763	-2.995400	3.635100	-10.887000	24.831372	0.000961	20.706299
1035.563284	-2.991900	3.634200	-10.872000	24.818113	0.000960	20.723813
1036.552093	-3.003500	3.633200	-10.911000	24.804320	0.000963	20.718504
1037.563559	-3.001100	3.632600	-10.901000	24.806209	0.000959	20.711392
1038.554955	-2.998200	3.633000	-10.892000	24.801239	0.000960	20.717310
1039.558541	-3.020700	3.631400	-10.968000	24.804620	0.000959	20.706003
1040.539481	-3.016600	3.631200	-10.952000	24.843760	0.000959	20.722526
1041.545751	-2.985200	3.632500	-10.844000	24.838895	0.000959	20.705313
1042.537570	-2.987800	3.632700	-10.852000	24.852246	0.000958	20.731043
1043.535763	-2.991200	3.630800	-10.860000	24.839245	0.000956	20.727477
1044.539149	-2.973700	3.632700	-10.802000	24.853768	0.000958	20.730199
1045.539849	-3.013800	3.629200	-10.937000	24.805332	0.000958	20.705295
1046.542959	-2.994600	3.631100	-10.871000	24.786139	0.000959	20.711638
1047.541485	-3.012900	3.628600	-10.932000	24.798325	0.000956	20.699211
1048.541205	-3.012500	3.629100	-10.932000	24.789502	0.000957	20.709797
1049.540088	-3.000200	3.629800	-10.889000	24.791422	0.000956	20.724053
1050.540709	-2.996900	3.629700	-10.877000	24.827973	0.000955	20.708103
1051.560154	-2.971000	3.628400	-10.779000	24.840190	0.000955	20.718468
1052.557361	-2.981600	3.628200	-10.816000	24.860161	0.000954	20.694888
1053.574115	-2.995800	3.628700	-10.870000	24.863321	0.000954	20.730304
1054.569450	-2.988400	3.627400	-10.840000	24.860984	0.000953	20.724638
1055.572397	-2.974700	3.628200	-10.792000	24.871684	0.000955	20.734430
1056.547123	-2.992500	3.628500	-10.858000	24.889416	0.000953	20.712396
1057.544960	-3.009000	3.627300	-10.913000	24.886685	0.000953	20.719139
1058.549014	-3.011700	3.626900	-10.922000	24.877838	0.000952	20.723536
1059.545798	-2.978600	3.627300	-10.804000	24.882415	0.000952	20.721966
1060.547087	-3.001400	3.626500	-10.884000	24.878814	0.000953	20.713135
1061.550311	-3.006000	3.626300	-10.898000	24.874838	0.000952	20.717206
1062.567780	-3.020000	3.625300	-10.947000	24.879611	0.000951	20.727687
1063.563958	-2.986100	3.625400	-10.824000	24.880483	0.000950	20.733303
1064.545835	-3.020500	3.624600	-10.947000	24.850400	0.000950	20.714016
1065.570114	-3.005700	3.624100	-10.891000	24.847903	0.000950	20.732848
1066.573431	-3.006300	3.624700	-10.896000	24.829600	0.000949	20.725859
1067.549770	-3.008500	3.624900	-10.905000	24.831920	0.000948	20.726290
1068.552316	-2.988600	3.623800	-10.830000	24.828889	0.000949	20.728938
1069.548812	-2.985900	3.624500	-10.822000	24.835877	0.000947	20.715088
1070.550702	-3.004100	3.623100	-10.883000	24.853505	0.000947	20.747006
1071.549098	-2.992500	3.622400	-10.840000	24.820520	0.000947	20.732867
1072.553213	-3.003100	3.623400	-10.880000	24.856027	0.000946	20.732941
1073.549619	-3.021600	3.622000	-10.944000	24.843922	0.000946	20.723636
1074.548381	-2.995600	3.623100	-10.853000	24.822815	0.000946	20.729480
1075.548707	-3.007200	3.621600	-10.890000	24.828540	0.000944	20.727165
1076.555699	-2.980400	3.621500	-10.793000	24.846867	0.000945	20.743188
1077.551814	-2.997500	3.621300	-10.854000	24.880563	0.000946	20.748084
1078.550173	-3.009200	3.620000	-10.892000	24.915707	0.000943	20.747795
1079.570811	-3.015100	3.621100	-10.917000	24.915382	0.000942	20.728027
1080.554173	-2.989600	3.622300	-10.829000	24.927990	0.000942	20.744476
1081.553944	-3.010700	3.619600	-10.897000	24.946573	0.000944	20.737998
1082.555147	-3.010300	3.619600	-10.895000	24.967316	0.000943	20.773992
1083.551517	-3.004000	3.619800	-10.873000	25.010573	0.000942	20.733010
1084.555180	-3.019100	3.619400	-10.926000	24.999046	0.000942	20.750363
1085.554354	-3.047700	3.618100	-11.025000	24.982617	0.000942	20.743356
1086.578755	-2.990200	3.619800	-10.822000	24.951789	0.000939	20.767415
1087.576585	-2.992700	3.617900	-10.826000	24.936794	0.000941	20.746201
1088.567978	-3.020900	3.618900	-10.931000	24.971384	0.000939	20.765747
1089.573882	-2.989600	3.619400	-10.819000	24.982353	0.000940	20.729814
1090.550872	-3.001000	3.617000	-10.854000	25.005157	0.000938	20.747014
1091.568385	-3.004100	3.617200	-10.865000	25.002721	0.000939	20.735086
1092.572501	-2.982900	3.617400	-10.788000	24.980648	0.000938	20.748492
1093.574282	-2.990400	3.618300	-10.820000	24.953550	0.000937	20.740259
1094.572869	-3.003800	3.617400	-10.865000	24.978440	0.000937	20.746275
1095.571681	-2.982200	3.616100	-10.782000	24.989017	0.000939	20.756892
1096.570336	-3.015100	3.614300	-10.897000	25.034561	0.000938	20.751873
1097.576652	-2.995500	3.616700	-10.832000	25.017286	0.000936	20.757292
1098.553929	-2.993400	3.616600	-10.824000	24.996851	0.000938	20.745789
1099.553755	-3.006400	3.615800	-10.869000	24.983704	0.000933	20.772423
1100.553851	-3.009900	3.615900	-10.883000	24.981195	0.000936	20.759947
1101.575933	-2.999900	3.614200	-10.842000	24.954796	0.000935	20.739613
1102.553869	-2.996900	3.615100	-10.832000	24.981754	0.000933	20.756714
1103.554749	-2.996900	3.613400	-10.827000	24.991299	0.000934	20.766296
1104.562538	-3.001000	3.612900	-10.841000	25.004784	0.000932	20.755175
1105.555375	-2.982900	3.615100	-10.782000	24.986883	0.000932	20.763759
1106.558147	-3.018100	3.612900	-10.903000	24.997502	0.000931	20.748814
1107.555638	-2.984700	3.612800	-10.782000	24.969705	0.000933	20.755526
1108.555226	-2.981400	3.615300	-10.777000	24.969705	0.000931	20.756949
1109.560306	-2.994700	3.611900	-10.816000	24.970429	0.000931	20.742976
1110.571765	-2.992800	3.612600	-10.810000	24.985055	0.000932	20.758131
1111.576174	-2.984900	3.612200	-10.781000	25.019563	0.000931	20.768588
1112.571619	-3.000300	3.611800	-10.835000	25.055910	0.000930	20.772830
1113.579615	-3.002100	3.612400	-10.844000	25.082092	0.000930	20.757386
1114.578572	-3.012200	3.611000	-10.876000	25.087963	0.000929	20.753796
1115.579889	-3.001700	3.610400	-10.836000	25.065560	0.000929	20.775879
1116.572462	-3.007500	3.609600	-10.854000	25.067547	0.000929	20.773606
1117.579118	-2.985900	3.608400	-10.772000	25.058475	0.000927	20.766870
1118.557756	-3.012800	3.608300	-10.870000	25.017533	0.000927	20.776981
1119.562011	-3.005200	3.609500	-10.846000	25.041501	0.000927	20.777332
1120.556330	-2.977900	3.609400	-10.748000	25.044212	0.000925	20.779580
1121.592118	-3.024700	3.607200	-10.909000	25.056420	0.000924	20.772868
1122.575042	-2.989100	3.608700	-10.786000	25.082896	0.000925	20.759616
1123.583573	-2.985300	3.608000	-10.770000	25.080405	0.000923	20.782720
1124.580244	-3.000400	3.607700	-10.823000	25.094802	0.000923	20.779155
1125.578963	-3.000900	3.606400	-10.822000	25.095030	0.000922	20.778909
1126.581587	-2.997100	3.608100	-10.813000	25.111113	0.000923	20.787943
1127.562821	-2.985700	3.605600	-10.765000	25.116481	0.000924	20.778632
1128.560838	-3.000000	3.607800	-10.821000	25.076007	0.000922	20.780202
1129.560779	-2.986000	3.605600	-10.764000	25.055027	0.000923	20.785221
1130.562675	-3.019200	3.605600	-10.885000	25.036777	0.000921	20.782074
1131.561419	-2.998800	3.605600	-10.811000	25.029643	0.000922	20.805258
1132.562549	-3.011200	3.605500	-10.856000	25.001797	0.000922	20.779678
1133.562513	-3.016000	3.605400	-10.872000	25.007220	0.000919	20.782751
1134.562337	-2.980500	3.605300	-10.744000	24.995754	0.000921	20.772665
1135.567513	-3.007800	3.603400	-10.837000	25.025612	0.000921	20.792678
1136.563226	-2.985500	3.604800	-10.760000	25.062242	0.000918	20.773022
1137.564986	-2.998900	3.603700	-10.806000	25.065713	0.000918	20.789309
1138.563385	-2.983300	3.604600	-10.753000	25.058708	0.000919	20.790812
1139.562840	-3.013500	3.604400	-10.861000	25.036280	0.000917	20.774463
1140.565246	-3.008900	3.604200	-10.842000	25.007515	0.000917	20.773089
1141.565574	-3.003500	3.602200	-10.818000	25.004988	0.000915	20.791890
1142.564789	-3.014000	3.602600	-10.857000	25.004687	0.000918	20.795381
1143.567760	-2.997100	3.601100	-10.792000	25.010950	0.000918	20.801668
1144.568329	-3.003000	3.602000	-10.816000	24.998227	0.000916	20.789371
1145.584375	-3.004400	3.601900	-10.820000	25.003104	0.000917	20.787155
1146.589391	-3.032800	3.600300	-10.918000	25.000644	0.000916	20.794643
1147.583327	-2.989900	3.603100	-10.771000	24.978037	0.000915	20.792339
1148.568191	-2.989400	3.601300	-10.764000	24.944927	0.000916	20.775701
1149.586492	-2.999900	3.600600	-10.800000	24.945798	0.000917	20.796016
1150.595667	-2.999300	3.600300	-10.797000	24.947694	0.000914	20.792703
1151.568028	-3.041000	3.598700	-10.942000	24.963872	0.000916	20.814157
1152.569907	-2.978300	3.599800	-10.720000	25.004252	0.000912	20.805850
1153.568735	-2.986900	3.598100	-10.747000	25.023325	0.000913	20.791804
1154.590992	-2.991200	3.598600	-10.763000	25.045777	0.000912	20.794902
1155.595830	-3.010700	3.597600	-10.830000	25.081823	0.000912	20.812593
1156.593284	-2.993600	3.599400	-10.774000	25.074793	0.000911	20.801743
1157.572616	-3.007800	3.596600	-10.817000	25.053237	0.000910	20.819933
1158.570550	-3.011200	3.598100	-10.834000	25.022527	0.000911	20.798590
1159.570010	-2.986900	3.597500	-10.744000	25.009902	0.000911	20.827168
1160.598392	-3.018300	3.595400	-10.850000	24.968738	0.000910	20.829472
1161.577642	-3.013500	3.597400	-10.839000	24.970400	0.000909	20.800321
1162.573530	-2.982500	3.596100	-10.724000	24.980897	0.000909	20.809909
1163.570917	-3.016200	3.595300	-10.843000	24.996339	0.000907	20.823037
1164.594110	-3.014200	3.595800	-10.837000	25.035748	0.000908	20.833197
1165.572688	-2.989600	3.595900	-10.749000	25.041889	0.000906	20.803326
1166.600986	-2.989300	3.596300	-10.749000	25.025884	0.000904	20.815236
1167.592949	-2.996200	3.593400	-10.765000	25.013976	0.000905	20.827939
1168.598898	-2.986300	3.594100	-10.732000	25.049306	0.000907	20.814565
1169.589955	-2.992700	3.593900	-10.755000	25.062237	0.000906	20.828493
1170.597365	-2.985500	3.594700	-10.730000	25.074445	0.000905	20.820833
1171.597673	-3.013600	3.594800	-10.833000	25.070715	0.000902	20.825624
1172.603845	-3.000000	3.593000	-10.777000	25.094958	0.000902	20.828623
1173.603195	-2.997300	3.593800	-10.771000	25.134493	0.000903	20.812361
1174.597590	-3.010700	3.592400	-10.814000	25.122489	0.000902	20.823069
1175.592817	-3.009500	3.592400	-10.811000	25.152545	0.000904	20.824793
1176.576542	-3.023000	3.592000	-10.858000	25.173726	0.000903	20.827090
1177.580315	-2.987700	3.591300	-10.728000	25.198715	0.000900	20.809504
1178.576845	-2.983200	3.591900	-10.714000	25.196084	0.000899	20.816820
1179.577521	-2.989400	3.591600	-10.735000	25.187362	0.000899	20.813279
1180.578762	-2.996500	3.591300	-10.760000	25.223378	0.000897	20.827152
1181.580713	-2.990100	3.591100	-10.736000	25.221747	0.000899	20.820299
1182.580798	-3.012200	3.589100	-10.811000	25.202709	0.000898	20.810669
1183.578280	-3.017200	3.590300	-10.832000	25.217706	0.000897	20.823828
1184.609549	-3.022700	3.589200	-10.848000	25.215995	0.000895	20.814998
1185.605524	-2.985900	3.589400	-10.717000	25.204218	0.000897	20.812659
1186.610063	-3.016300	3.589300	-10.826000	25.234095	0.000896	20.819420
1187.606909	-2.986600	3.589100	-10.718000	25.229728	0.000895	20.826889
1188.600306	-2.995800	3.588500	-10.749000	25.278519	0.000895	20.797166
1189.579623	-3.012900	3.588100	-10.809000	25.238211	0.000895	20.805535
1190.597316	-2.983000	3.589100	-10.705000	25.250539	0.000893	20.805110
1191.596973	-2.987000	3.589200	-10.719000	25.240733	0.000893	20.790997
1192.601497	-3.022600	3.585600	-10.836000	25.250902	0.000895	20.798362
1193.615328	-2.986800	3.587800	-10.715000	25.267805	0.000892	20.799211
1194.583174	-3.012000	3.586200	-10.801000	25.268235	0.000892	20.807703
1195.598685	-2.997800	3.587500	-10.754000	25.278674	0.000893	20.784993
1196.582518	-3.015800	3.586500	-10.815000	25.288727	0.000894	20.773750
1197.583801	-2.967300	3.587800	-10.645000	25.313437	0.000890	20.784335
1198.602943	-3.010400	3.584200	-10.789000	25.297387	0.000891	20.798566
1199.586082	-2.988500	3.586200	-10.716000	25.319387	0.000890	20.795525
1200.612434	-2.992300	3.585000	-10.727000	25.328415	0.000890	20.773295
1201.602435	-2.997700	3.585100	-10.746000	25.306422	0.000889	20.801948
1202.583224	-3.020100	3.582900	-10.820000	25.306919	0.000887	20.790593
1203.604321	-3.011200	3.583400	-10.790000	25.298149	0.000889	20.788425
1204.609099	-3.010600	3.583900	-10.788000	25.294671	0.000887	20.794891
1205.602245	-2.996700	3.584300	-10.740000	25.250629	0.000887	20.771060
1206.586303	-3.020000	3.582200	-10.817000	25.219318	0.000886	20.779928
1207.584320	-3.023700	3.582700	-10.831000	25.207787	0.000885	20.786370
1208.585441	-2.991300	3.582400	-10.715000	25.230138	0.000885	20.786050
1209.586686	-2.972500	3.583300	-10.651000	25.265141	0.000886	20.767139
1210.599477	-2.987900	3.581600	-10.700000	25.273642	0.000884	20.786105
1211.599296	-2.983400	3.582000	-10.685000	25.246908	0.000883	20.778704
1212.601213	-2.982600	3.582400	-10.684000	25.232862	0.000884	20.779301
1213.619725	-2.999600	3.581800	-10.743000	25.200281	0.000881	20.760341
1214.606738	-3.018200	3.579400	-10.802000	25.160191	0.000883	20.788847
1215.586118	-3.000000	3.582200	-10.746000	25.153634	0.000885	20.792696
1216.587303	-2.990900	3.579400	-10.705000	25.159057	0.000882	20.782967
1217.587513	-3.012200	3.578800	-10.779000	25.175993	0.000881	20.770571
1218.589401	-3.007300	3.578400	-10.759000	25.193419	0.000880	20.780479
1219.586478	-3.004500	3.580100	-10.755000	25.159990	0.000880	20.778688
1220.589455	-3.000200	3.578400	-10.736000	25.159174	0.000880	20.754635
1221.604115	-3.012200	3.578700	-10.779000	25.174662	0.000882	20.791995
1222.589661	-2.986000	3.578100	-10.683000	25.183594	0.000879	20.764926
1223.589302	-2.973300	3.580100	-10.644000	25.225480	0.000878	20.785641
1224.588740	-3.005700	3.578300	-10.752000	25.239827	0.000879	20.779182
1225.590710	-2.985800	3.577200	-10.680000	25.264612	0.000877	20.771349
1226.587833	-3.003200	3.577300	-10.743000	25.263373	0.000878	20.768683
1227.590650	-2.979100	3.576700	-10.654000	25.283460	0.000877	20.762771
1228.587890	-2.967300	3.576800	-10.611000	25.278020	0.000878	20.764896
1229.589844	-3.010500	3.576000	-10.765000	25.320847	0.000876	20.768542
1230.592189	-2.966800	3.576400	-10.610000	25.299530	0.000877	20.755672
1231.592470	-3.003800	3.575400	-10.737000	25.252531	0.000874	20.770599
1232.614922	-3.014000	3.574200	-10.771000	25.290459	0.000874	20.754151
1233.589097	-2.996300	3.574900	-10.711000	25.271851	0.000875	20.756332
1234.604399	-2.979400	3.574500	-10.649000	25.282493	0.000873	20.767490
1235.608846	-2.993600	3.574800	-10.699000	25.314231	0.000872	20.793193
1236.609973	-2.991300	3.573200	-10.687000	25.331882	0.000872	20.755439
1237.605692	-3.000900	3.574000	-10.725000	25.339574	0.000873	20.763636
1238.607300	-2.990400	3.573100	-10.684000	25.329909	0.000870	20.771476
1239.592578	-3.004600	3.572500	-10.733000	25.284647	0.000872	20.763015
1240.612926	-2.998100	3.571700	-10.706000	25.289026	0.000869	20.742755
1241.610393	-2.982400	3.572400	-10.653000	25.261764	0.000870	20.752368
1242.605385	-2.997900	3.572600	-10.710000	25.272479	0.000871	20.760755
1243.608290	-2.967300	3.572300	-10.599000	25.277226	0.000869	20.752719
1244.608765	-3.012000	3.571400	-10.756000	25.250160	0.000866	20.748304
1245.590037	-3.001500	3.571700	-10.719000	25.258748	0.000866	20.738908
1246.607736	-2.975300	3.570900	-10.624000	25.255043	0.000867	20.752732
1247.593981	-3.000800	3.569900	-10.711000	25.288164	0.000866	20.736199
1248.615625	-2.986300	3.570400	-10.661000	25.288199	0.000866	20.767530
1249.609984	-3.009200	3.569200	-10.739000	25.277939	0.000867	20.746322
1250.614966	-3.008400	3.569200	-10.737000	25.235190	0.000865	20.771681
1251.590076	-3.022000	3.568000	-10.781000	25.211264	0.000865	20.740547
1252.594859	-2.990500	3.569600	-10.674000	25.217158	0.000863	20.718489
1253.612733	-3.001800	3.569000	-10.713000	25.236571	0.000864	20.745566
1254.610566	-2.985100	3.568800	-10.652000	25.265337	0.000863	20.745998
1255.610010	-2.975600	3.568100	-10.615000	25.315892	0.000861	20.740332
1256.593230	-3.010400	3.567900	-10.740000	25.327429	0.000859	20.762348
1257.595518	-2.989400	3.568200	-10.666000	25.357161	0.000861	20.741466
1258.593771	-2.994000	3.567600	-10.680000	25.378295	0.000858	20.747988
1259.592790	-2.993700	3.567600	-10.678000	25.359529	0.000860	20.731989
1260.614462	-2.978000	3.566800	-10.621000	25.335575	0.000861	20.732593
1261.619748	-3.001600	3.565600	-10.702000	25.332024	0.000858	20.736140
1262.616978	-2.972500	3.566500	-10.600000	25.340996	0.000858	20.748943
1263.594977	-3.006500	3.566300	-10.720000	25.329589	0.000859	20.749344
1264.596074	-3.013900	3.564400	-10.741000	25.310063	0.000856	20.749652
1265.595715	-3.015000	3.564300	-10.743000	25.321820	0.000859	20.738697
1266.619905	-2.977700	3.566400	-10.619000	25.305942	0.000858	20.742195
1267.615003	-2.998100	3.561900	-10.678000	25.303115	0.000855	20.741728
1268.595421	-3.004700	3.562800	-10.704000	25.293155	0.000856	20.718925
1269.593545	-3.038000	3.561500	-10.819000	25.319643	0.000856	20.719915
1270.601515	-2.975300	3.563500	-10.601000	25.325789	0.000856	20.757856
1271.597665	-2.996800	3.563400	-10.678000	25.318804	0.000855	20.735194
1272.597546	-2.994900	3.562600	-10.668000	25.344888	0.000856	20.726297
1273.600069	-2.985800	3.562800	-10.637000	25.374442	0.000855	20.733213
1274.621853	-2.993100	3.562100	-10.660000	25.337007	0.000851	20.732609
1275.599046	-2.986600	3.561400	-10.636000	25.325054	0.000852	20.732461
1276.615532	-3.006000	3.561200	-10.704000	25.327992	0.000852	20.741576
1277.597993	-2.967600	3.563200	-10.572000	25.345220	0.000851	20.719517
1278.600621	-3.005000	3.560300	-10.697000	25.329993	0.000851	20.738842
1279.620043	-3.004300	3.562300	-10.701000	25.342620	0.000853	20.727339
1280.621998	-2.993900	3.560800	-10.660000	25.350452	0.000851	20.750377
1281.613123	-3.013600	3.559800	-10.727000	25.375830	0.000850	20.750254
1282.618425	-2.998300	3.558800	-10.668000	25.401605	0.000851	20.729667
1283.636327	-2.980000	3.558500	-10.603000	25.397257	0.000848	20.725301
1284.610169	-3.020700	3.557700	-10.745000	25.412301	0.000851	20.718122
1285.602762	-3.002600	3.558500	-10.683000	25.415281	0.000850	20.730598
1286.624927	-2.970200	3.558600	-10.568000	25.438597	0.000849	20.721293
1287.617640	-3.005200	3.557700	-10.692000	25.462758	0.000848	20.734177
1288.602595	-3.016600	3.556800	-10.727000	25.463384	0.000846	20.736702
1289.617546	-2.999000	3.557500	-10.669000	25.443129	0.000846	20.714939
1290.602480	-3.016700	3.555200	-10.722000	25.436648	0.000848	20.732139
1291.601346	-3.011200	3.554500	-10.702000	25.379592	0.000846	20.738858
1292.606624	-2.998200	3.556500	-10.662000	25.308660	0.000844	20.724534
1293.602220	-3.004300	3.555800	-10.682000	25.292033	0.000844	20.719694
1294.603312	-2.997200	3.555000	-10.654000	25.250180	0.000843	20.724615
1295.606143	-2.996100	3.555700	-10.653000	25.238153	0.000842	20.724868
1296.604222	-2.986000	3.556700	-10.619000	25.255854	0.000844	20.726518
1297.605153	-2.994000	3.555100	-10.642000	25.254112	0.000841	20.735201
1298.605033	-3.002400	3.554500	-10.670000	25.229032	0.000841	20.704330
1299.624775	-3.015900	3.552700	-10.713000	25.240472	0.000841	20.708229
1300.607761	-2.983500	3.554500	-10.604000	25.223844	0.000839	20.729943
1301.621884	-3.010400	3.553900	-10.698000	25.254874	0.000841	20.748295
1302.605376	-2.995900	3.552100	-10.641000	25.218999	0.000841	20.727923
1303.619991	-2.999300	3.552700	-10.655000	25.232352	0.000838	20.716198
1304.606386	-3.000800	3.552700	-10.660000	25.249679	0.000838	20.732173
1305.607347	-3.004200	3.552900	-10.672000	25.266509	0.000841	20.722517
1306.606422	-3.004400	3.551600	-10.669000	25.280351	0.000837	20.694688
1307.605166	-2.989100	3.551400	-10.614000	25.274814	0.000837	20.728485
1308.606865	-3.014700	3.550300	-10.701000	25.293581	0.000835	20.711765
1309.606173	-2.981900	3.552400	-10.591000	25.307651	0.000835	20.715935
1310.635170	-2.974700	3.552800	-10.568000	25.350711	0.000835	20.725031
1311.626020	-3.004300	3.549900	-10.664000	25.337317	0.000836	20.727230
1312.608239	-3.027900	3.549700	-10.748000	25.363835	0.000834	20.733468
1313.626390	-2.984800	3.551700	-10.599000	25.344953	0.000833	20.722095
1314.611674	-3.018000	3.549200	-10.711000	25.354968	0.000836	20.718400
1315.609581	-3.015700	3.549500	-10.703000	25.369337	0.000831	20.705326
1316.615200	-2.971700	3.550300	-10.549000	25.356220	0.000832	20.714915
1317.626344	-2.998600	3.548600	-10.640000	25.324563	0.000832	20.717742
1318.640133	-3.011600	3.548000	-10.685000	25.316412	0.000831	20.712877
1319.631978	-3.001500	3.547400	-10.646000	25.332108	0.000830	20.707773
1320.643406	-2.968700	3.550500	-10.539000	25.332125	0.000831	20.716801
1321.627866	-3.018900	3.545900	-10.703000	25.350126	0.000829	20.683189
1322.631267	-3.008000	3.547600	-10.669000	25.361288	0.000829	20.706252
1323.613800	-2.998900	3.547000	-10.636000	25.344724	0.000829	20.701475
1324.611363	-2.987200	3.547200	-10.595000	25.346613	0.000828	20.705268
1325.635099	-3.001600	3.545100	-10.640000	25.355929	0.000827	20.714622
1326.627501	-2.978000	3.546800	-10.561000	25.363141	0.000825	20.704320
1327.628313	-2.989900	3.545500	-10.600000	25.361780	0.000827	20.693470
1328.635141	-3.012900	3.544900	-10.679000	25.351104	0.000826	20.717365
1329.628687	-3.004900	3.545000	-10.650000	25.373519	0.000825	20.709999
1330.633242	-3.006500	3.543600	-10.653000	25.369773	0.000826	20.704341
1331.646469	-3.011000	3.544600	-10.672000	25.376359	0.000826	20.717119
1332.629858	-2.976000	3.545400	-10.550000	25.358275	0.000824	20.704175
1333.635209	-3.007100	3.543400	-10.654000	25.320968	0.000822	20.709391
1334.627879	-2.989300	3.544300	-10.594000	25.343065	0.000823	20.711664
1335.633327	-3.007300	3.543200	-10.654000	25.366610	0.000825	20.702587
1336.633314	-2.997200	3.543200	-10.619000	25.368628	0.000823	20.706985
1337.643639	-2.962200	3.545200	-10.500000	25.361877	0.000821	20.711586
1338.642779	-2.984500	3.543200	-10.573000	25.384855	0.000821	20.711425
1339.614837	-2.975700	3.542900	-10.541000	25.418542	0.000820	20.700205
1340.613951	-2.987800	3.542400	-10.583000	25.426269	0.000819	20.694213
1341.614381	-2.988700	3.541000	-10.582000	25.454582	0.000821	20.698463
1342.614842	-2.992500	3.540400	-10.594000	25.446188	0.000821	20.706630
1343.613406	-2.992300	3.540000	-10.592000	25.458023	0.000818	20.694332
1344.616593	-2.994700	3.540000	-10.600000	25.458961	0.000818	20.702386
1345.613502	-2.973700	3.541300	-10.529000	25.437922	0.000817	20.706390
1346.614957	-2.989200	3.540800	-10.583000	25.433281	0.000817	20.698410
1347.635997	-3.001800	3.539800	-10.624000	25.422966	0.000816	20.694216
1348.632433	-3.004500	3.537800	-10.627000	25.401049	0.000815	20.699710
1349.635400	-3.030700	3.537700	-10.720000	25.370981	0.000814	20.702709
1350.631196	-3.000500	3.539200	-10.618000	25.386197	0.000815	20.698072
1351.632272	-3.010100	3.537200	-10.646000	25.411769	0.000813	20.667323
1352.634985	-2.993500	3.537100	-10.588000	25.420626	0.000812	20.708937
1353.642670	-3.006000	3.536500	-10.629000	25.449097	0.000812	20.688687
1354.628605	-3.006900	3.537800	-10.637000	25.461958	0.000814	20.700654
1355.632914	-2.972800	3.537700	-10.516000	25.439569	0.000813	20.702828
1356.638014	-3.019000	3.536100	-10.674000	25.441500	0.000810	20.706190
1357.634461	-2.996700	3.537200	-10.599000	25.457494	0.000812	20.706604
1358.646779	-2.997000	3.536800	-10.599000	25.454710	0.000811	20.681047
1359.633113	-2.986300	3.535100	-10.556000	25.468582	0.000810	20.682648
1360.634587	-2.973500	3.536900	-10.515000	25.436050	0.000810	20.693604
1361.633099	-2.985100	3.536200	-10.555000	25.423927	0.000810	20.684275
1362.635672	-3.014400	3.534500	-10.653000	25.427956	0.000811	20.697331
1363.635062	-2.981100	3.534500	-10.535000	25.435413	0.000808	20.673522
1364.635907	-2.987100	3.535200	-10.559000	25.439296	0.000807	20.697812
1365.618456	-2.999600	3.532400	-10.595000	25.440712	0.000807	20.685009
1366.634009	-2.984100	3.534600	-10.547000	25.409628	0.000808	20.669441
1367.638266	-3.005900	3.532800	-10.618000	25.370190	0.000807	20.679153
1368.641415	-2.991300	3.533300	-10.567000	25.350437	0.000805	20.687295
1369.641285	-3.003400	3.532800	-10.610000	25.347058	0.000805	20.669676
1370.637422	-3.011900	3.532200	-10.637000	25.346463	0.000805	20.666233
1371.642227	-2.983800	3.533500	-10.542000	25.359808	0.000804	20.666356
1372.638681	-2.996000	3.531000	-10.578000	25.370259	0.000805	20.674955
1373.625264	-3.013600	3.530700	-10.639000	25.361784	0.000804	20.666918
1374.626749	-3.011300	3.529900	-10.629000	25.344042	0.000803	20.670441
1375.623474	-3.008500	3.530000	-10.618000	25.359185	0.000802	20.677112
1376.651603	-3.021700	3.529300	-10.664000	25.361675	0.000801	20.680087
1377.623073	-2.994800	3.530300	-10.571000	25.360738	0.000801	20.673929
1378.622817	-3.003800	3.529500	-10.601000	25.378112	0.000800	20.670511
1379.640721	-3.001000	3.529000	-10.589000	25.383712	0.000801	20.657167
1380.643946	-2.989800	3.528000	-10.547000	25.432894	0.000799	20.680002
1381.646347	-2.996000	3.528200	-10.568000	25.446986	0.000800	20.672815
1382.623566	-3.005800	3.528800	-10.605000	25.420127	0.000799	20.659594
1383.648540	-3.011900	3.527200	-10.622000	25.396524	0.000800	20.661972
1384.651751	-3.005800	3.526700	-10.599000	25.402971	0.000798	20.684094
1385.653502	-3.019300	3.525000	-10.641000	25.400064	0.000797	20.662681
1386.647507	-3.003100	3.526900	-10.591000	25.402677	0.000797	20.681428
1387.633270	-2.995000	3.525600	-10.558000	25.375044	0.000796	20.678337
1388.629149	-2.982400	3.526600	-10.517000	25.356431	0.000797	20.676243
1389.648897	-3.013200	3.526100	-10.624000	25.365239	0.000795	20.684140
1390.646185	-2.991700	3.525300	-10.545000	25.304223	0.000795	20.662702
1391.644522	-2.990600	3.525900	-10.542000	25.325303	0.000792	20.652572
1392.653093	-2.998800	3.524300	-10.568000	25.324365	0.000795	20.656847
1393.646308	-3.009900	3.524600	-10.608000	25.366572	0.000792	20.650861
1394.646014	-3.007800	3.523200	-10.596000	25.374558	0.000791	20.685436
1395.628970	-2.970700	3.525000	-10.470000	25.373515	0.000791	20.655937
1396.635650	-2.998300	3.524000	-10.566000	25.430708	0.000791	20.664529
1397.650233	-3.017500	3.521900	-10.625000	25.431180	0.000792	20.648405
1398.651718	-3.013900	3.522300	-10.614000	25.421173	0.000792	20.665860
1399.649954	-2.995400	3.522600	-10.551000	25.401389	0.000791	20.674445
1400.662970	-2.992600	3.522200	-10.539000	25.366047	0.000790	20.661715
1401.672257	-3.004300	3.521100	-10.578000	25.399165	0.000791	20.646603
1402.651278	-2.998500	3.521400	-10.558000	25.405972	0.000789	20.654388
1403.653718	-3.019600	3.520900	-10.631000	25.450469	0.000788	20.653077
1404.660555	-3.000900	3.520200	-10.563000	25.444632	0.000788	20.660018
1405.633808	-3.010300	3.519500	-10.594000	25.467923	0.000788	20.646895
1406.661538	-2.995100	3.519100	-10.539000	25.478611	0.000788	20.656207
1407.638829	-2.988800	3.520400	-10.521000	25.501901	0.000786	20.654465
1408.652411	-3.008100	3.519900	-10.587000	25.495095	0.000788	20.676082
1409.635438	-3.022900	3.519300	-10.638000	25.511823	0.000786	20.659214
1410.650682	-3.010200	3.518300	-10.590000	25.517863	0.000784	20.645363
1411.653544	-3.007800	3.517700	-10.578000	25.510438	0.000783	20.638854
1412.658504	-3.004200	3.518100	-10.569000	25.469741	0.000783	20.656309
1413.650765	-3.008000	3.516400	-10.575000	25.456374	0.000784	20.674656
1414.635587	-2.983100	3.517600	-10.491000	25.421033	0.000784	20.641060
1415.634053	-3.005000	3.517500	-10.569000	25.448532	0.000783	20.648760
1416.663228	-3.009100	3.515800	-10.578000	25.466492	0.000784	20.661107
1417.654723	-2.999500	3.516800	-10.547000	25.489611	0.000784	20.656822
1418.656271	-2.987000	3.516400	-10.503000	25.529230	0.000782	20.669583
1419.636904	-3.017500	3.514200	-10.603000	25.522994	0.000781	20.638187
1420.663757	-3.009200	3.515800	-10.579000	25.516832	0.000782	20.657131
1421.636897	-3.002200	3.514900	-10.551000	25.499817	0.000780	20.637197
1422.636649	-3.003000	3.513900	-10.552000	25.475443	0.000782	20.652551
1423.638361	-3.025600	3.513700	-10.630000	25.445377	0.000780	20.652231
1424.661161	-3.005500	3.512700	-10.556000	25.393394	0.000780	20.670683
1425.653811	-3.011600	3.513700	-10.581000	25.355372	0.000780	20.637242
1426.653460	-3.000000	3.513500	-10.539000	25.339561	0.000778	20.641282
1427.656379	-3.018400	3.512900	-10.601000	25.350608	0.000775	20.652849
1428.641070	-2.993500	3.512900	-10.515000	25.398668	0.000777	20.636146
1429.639578	-3.017000	3.511700	-10.593000	25.401712	0.000776	20.661491
1430.657119	-3.027100	3.510800	-10.625000	25.417759	0.000777	20.664803
1431.656297	-3.011600	3.512600	-10.578000	25.422593	0.000775	20.662070
1432.641746	-3.010400	3.511700	-10.570000	25.424629	0.000776	20.674547
1433.640866	-3.024900	3.510700	-10.618000	25.474638	0.000775	20.649846
1434.643531	-3.012400	3.510400	-10.574000	25.477073	0.000775	20.659404
1435.660853	-2.987200	3.511200	-10.488000	25.483463	0.000775	20.650647
1436.640930	-3.036900	3.508500	-10.653000	25.488405	0.000773	20.677424
1437.642737	-3.011800	3.509900	-10.570000	25.495722	0.000774	20.662485
1438.666462	-2.984200	3.510300	-10.474000	25.516448	0.000774	20.673817
1439.645599	-3.011100	3.509300	-10.566000	25.544532	0.000772	20.663612
1440.658182	-2.997900	3.508800	-10.517000	25.540835	0.000771	20.673652
1441.670280	-2.985000	3.508000	-10.470000	25.533526	0.000770	20.678639
1442.658101	-2.998800	3.508200	-10.518000	25.511586	0.000771	20.658976
1443.660721	-2.994500	3.508200	-10.504000	25.500751	0.000771	20.668485
1444.646214	-2.987600	3.507600	-10.479000	25.506571	0.000772	20.654413
1445.647986	-3.002300	3.506200	-10.525000	25.503200	0.000768	20.652924
1446.646365	-3.005200	3.506600	-10.537000	25.544490	0.000770	20.677322
1447.647051	-3.001000	3.505700	-10.520000	25.554566	0.000768	20.654248
1448.666210	-3.010500	3.505700	-10.554000	25.555877	0.000768	20.647978
1449.668002	-3.015200	3.504000	-10.564000	25.558847	0.000768	20.654754
1450.679327	-3.003300	3.505100	-10.526000	25.551415	0.000768	20.680484
1451.668643	-3.014900	3.504100	-10.564000	25.568607	0.000768	20.671671
1452.667536	-3.010500	3.504000	-10.548000	25.590927	0.000768	20.665636
1453.682854	-3.020300	3.504300	-10.584000	25.608549	0.000766	20.670533
1454.671710	-3.003200	3.504500	-10.524000	25.610301	0.000765	20.661386
1455.682468	-2.995900	3.504500	-10.498000	25.591130	0.000766	20.680066
1456.673642	-3.019700	3.502400	-10.575000	25.584097	0.000766	20.679641
1457.668948	-2.989900	3.503300	-10.474000	25.576665	0.000765	20.663167
1458.667157	-3.007300	3.502200	-10.531000	25.605569	0.000764	20.671808
1459.682417	-2.985600	3.502300	-10.456000	25.594564	0.000764	20.680196
1460.649961	-3.012400	3.501700	-10.547000	25.565918	0.000763	20.685567
1461.668779	-3.008100	3.501900	-10.533000	25.547603	0.000763	20.680923
1462.668758	-3.011800	3.500500	-10.542000	25.524818	0.000762	20.687439
1463.667678	-3.018400	3.500400	-10.564000	25.532624	0.000762	20.675363
1464.682036	-3.023600	3.499900	-10.581000	25.500640	0.000763	20.687341
1465.672955	-2.988200	3.499400	-10.456000	25.519460	0.000760	20.673996
1466.672854	-2.992500	3.499400	-10.471000	25.494386	0.000761	20.665412
1467.672020	-2.993900	3.500200	-10.478000	25.439614	0.000756	20.683906
1468.672261	-2.984700	3.499700	-10.445000	25.455098	0.000759	20.673849
1469.668992	-2.978600	3.498500	-10.420000	25.435469	0.000757	20.665517
1470.674579	-2.986300	3.499600	-10.450000	25.477770	0.000757	20.681443
1471.671531	-2.992300	3.498300	-10.467000	25.505204	0.000758	20.662999
1472.679134	-2.976300	3.499000	-10.413000	25.515728	0.000755	20.670723
1473.653337	-3.005000	3.496600	-10.505000	25.521289	0.000757	20.662556
1474.671612	-2.976000	3.498300	-10.409000	25.528941	0.000756	20.667871
1475.673311	-3.003000	3.497300	-10.501000	25.483296	0.000757	20.672767
1476.653093	-2.980600	3.497100	-10.423000	25.463839	0.000754	20.676463
1477.658666	-2.994300	3.496600	-10.469000	25.435980	0.000754	20.662711
1478.653275	-2.993700	3.496500	-10.467000	25.461835	0.000754	20.689150
1479.655814	-3.000400	3.496800	-10.491000	25.469936	0.000755	20.678317
1480.657938	-3.012500	3.494200	-10.525000	25.505925	0.000752	20.698813
1481.679653	-2.988300	3.495300	-10.444000	25.522402	0.000752	20.696393
1482.680963	-3.004700	3.493400	-10.496000	25.517110	0.000752	20.683492
1483.672924	-3.002700	3.494200	-10.491000	25.552822	0.000754	20.688062
1484.689452	-3.008700	3.492800	-10.508000	25.562786	0.000750	20.700914
1485.659913	-2.963400	3.493400	-10.351000	25.566668	0.000751	20.684897
1486.659816	-3.002100	3.491700	-10.482000	25.610061	0.000750	20.676793
1487.662847	-2.991500	3.491600	-10.445000	25.618486	0.000751	20.689523
1488.676290	-2.999500	3.490900	-10.470000	25.622661	0.000750	20.686130
1489.682051	-3.020300	3.491300	-10.544000	25.624501	0.000749	20.702203
1490.679914	-2.990900	3.491200	-10.441000	25.600122	0.000749	20.671553
1491.678979	-2.996900	3.489400	-10.455000	25.544289	0.000749	20.685182
1492.685975	-2.997300	3.490400	-10.462000	25.513508	0.000750	20.700265
1493.684522	-3.020300	3.488600	-10.536000	25.489347	0.000748	20.693545
1494.665546	-2.992500	3.489300	-10.441000	25.475987	0.000747	20.695776
1495.663316	-3.016700	3.488300	-10.521000	25.453942	0.000746	20.714891
1496.664316	-2.979200	3.490700	-10.397000	25.424145	0.000746	20.692081
1497.665459	-2.957900	3.489100	-10.319000	25.427905	0.000746	20.691589
1498.687343	-2.992400	3.489100	-10.440000	25.404865	0.000744	20.711129
1499.666208	-3.000200	3.487000	-10.460000	25.451515	0.000745	20.703918
1500.667060	-3.019000	3.485800	-10.523000	25.446352	0.000743	20.693043
1501.665321	-2.995700	3.486600	-10.444000	25.461609	0.000744	20.720694
1502.663599	-2.992300	3.486500	-10.432000	25.465215	0.000740	20.693967
1503.669266	-2.985200	3.487000	-10.407000	25.471003	0.000744	20.704996
1504.680034	-2.990800	3.487000	-10.428000	25.495881	0.000741	20.702952
1505.685756	-2.988400	3.486600	-10.419000	25.506000	0.000741	20.701733
1506.685971	-3.008200	3.484400	-10.481000	25.541019	0.000740	20.698495
1507.684341	-2.994300	3.485700	-10.436000	25.542184	0.000739	20.709148
1508.686940	-2.998100	3.484400	-10.445000	25.558758	0.000741	20.712043
1509.688166	-2.968500	3.484500	-10.343000	25.549388	0.000738	20.703581
1510.668056	-3.001300	3.483900	-10.455000	25.566319	0.000738	20.703514
1511.668583	-3.018800	3.482900	-10.513000	25.564633	0.000740	20.703244
1512.691004	-3.008100	3.482700	-10.476000	25.564406	0.000738	20.701119
1513.697016	-2.986700	3.483700	-10.404000	25.507350	0.000738	20.700718
1514.686757	-2.990000	3.482400	-10.411000	25.487152	0.000737	20.713627
1515.691542	-3.000500	3.481800	-10.446000	25.455069	0.000736	20.706065
1516.691286	-3.005700	3.481300	-10.463000	25.447433	0.000738	20.713097
1517.666942	-3.006000	3.482100	-10.466000	25.464862	0.000737	20.706416
1518.667788	-3.015600	3.480500	-10.495000	25.496497	0.000737	20.723013
1519.668990	-2.990200	3.479900	-10.405000	25.522295	0.000735	20.722840
1520.694407	-2.992500	3.481200	-10.416000	25.538421	0.000737	20.721966
1521.691123	-3.002100	3.479800	-10.446000	25.563444	0.000735	20.723863
1522.688317	-2.998100	3.478500	-10.428000	25.522613	0.000734	20.709883
1523.688365	-2.991200	3.480300	-10.410000	25.495357	0.000735	20.696261
1524.707758	-3.012200	3.478400	-10.476000	25.503010	0.000734	20.696834
1525.688262	-2.981700	3.479100	-10.372000	25.519185	0.000734	20.715450
1526.692291	-2.998100	3.478600	-10.428000	25.535043	0.000734	20.702925
1527.693165	-3.019000	3.477000	-10.495000	25.574328	0.000734	20.711084
1528.690023	-3.008500	3.477900	-10.462000	25.566578	0.000733	20.709465
1529.690125	-2.996100	3.478400	-10.421000	25.570673	0.000731	20.725907
1530.701759	-3.011100	3.477500	-10.469000	25.588859	0.000732	20.718566
1531.691485	-3.018600	3.474800	-10.488000	25.595468	0.000729	20.718091
1532.673344	-3.005100	3.476500	-10.445000	25.598634	0.000730	20.740238
1533.671946	-3.005600	3.475900	-10.446000	25.582224	0.000730	20.719015
1534.671790	-2.990600	3.475500	-10.393000	25.564105	0.000729	20.704610
1535.675872	-3.002600	3.475000	-10.432000	25.556037	0.000729	20.727329
1536.697259	-3.036400	3.474200	-10.548000	25.556583	0.000730	20.723135
1537.697650	-3.005500	3.474700	-10.443000	25.545846	0.000729	20.735113
1538.698071	-3.033300	3.472100	-10.531000	25.542817	0.000727	20.728278
1539.697153	-2.987000	3.472900	-10.372000	25.546587	0.000728	20.728270
1540.673409	-2.998300	3.474000	-10.415000	25.536347	0.000728	20.709451
1541.694901	-2.991700	3.472200	-10.386000	25.520993	0.000727	20.748088
1542.689936	-2.999700	3.471800	-10.412000	25.526163	0.000723	20.749960
1543.692505	-2.986800	3.472000	-10.369000	25.533448	0.000726	20.743999
1544.688663	-2.983200	3.471500	-10.355000	25.563811	0.000725	20.700048
1545.705400	-3.001600	3.470800	-10.417000	25.560230	0.000723	20.739127
1546.697145	-2.989700	3.472100	-10.380000	25.569306	0.000724	20.756777
1547.694757	-3.004400	3.470100	-10.425000	25.573702	0.000723	20.741751
1548.689102	-3.006500	3.470300	-10.433000	25.564976	0.000723	20.744842
1549.674590	-2.996100	3.469500	-10.394000	25.555883	0.000722	20.730020
1550.693696	-2.990700	3.469200	-10.374000	25.519829	0.000723	20.744073
1551.699014	-2.983200	3.470200	-10.352000	25.489090	0.000721	20.737860
1552.691929	-2.997800	3.468900	-10.398000	25.463536	0.000722	20.760564
1553.690891	-3.012400	3.468000	-10.446000	25.452585	0.000721	20.747196
1554.700418	-2.996300	3.469800	-10.396000	25.449151	0.000721	20.742324
1555.693726	-3.014800	3.466100	-10.448000	25.436947	0.000720	20.731491
1556.705742	-2.975700	3.468400	-10.320000	25.434520	0.000721	20.728106
1557.699991	-2.997000	3.467500	-10.391000	25.406912	0.000720	20.754912
1558.694126	-3.017400	3.466900	-10.459000	25.416104	0.000721	20.751340
1559.679889	-2.985500	3.466800	-10.349000	25.452316	0.000721	20.730803
1560.675774	-3.017000	3.464800	-10.452000	25.474330	0.000719	20.741530
1561.676388	-3.026700	3.464400	-10.484000	25.509994	0.000720	20.737990
1562.680294	-3.014400	3.465000	-10.444000	25.497302	0.000720	20.734253
1563.680507	-3.005300	3.465400	-10.414000	25.498271	0.000719	20.739493
1564.681179	-3.000800	3.464100	-10.394000	25.486596	0.000717	20.741520
1565.677935	-3.025100	3.462800	-10.474000	25.476632	0.000717	20.756644
1566.704543	-3.019200	3.462900	-10.454000	25.505776	0.000717	20.763153
1567.704962	-2.991800	3.464300	-10.362000	25.538379	0.000716	20.752745
1568.704037	-2.986000	3.463400	-10.341000	25.545990	0.000716	20.747112
1569.682797	-3.002800	3.462200	-10.395000	25.512174	0.000713	20.760568
1570.696972	-3.003400	3.462400	-10.397000	25.523872	0.000715	20.753350
1571.704187	-2.996900	3.461500	-10.373000	25.501786	0.000712	20.765309
1572.705653	-2.978300	3.462600	-10.312000	25.490608	0.000714	20.732746
1573.703162	-2.978800	3.462500	-10.312000	25.473610	0.000714	20.755032
1574.705757	-2.983500	3.461200	-10.325000	25.462180	0.000713	20.767262
1575.717467	-3.001000	3.460400	-10.384000	25.476761	0.000713	20.767680
1576.683818	-2.979500	3.460500	-10.309000	25.532679	0.000712	20.750814
1577.683292	-2.994600	3.459900	-10.359000	25.491423	0.000710	20.767231
1578.683597	-2.979600	3.458600	-10.304000	25.523163	0.000711	20.748369
1579.686176	-2.977600	3.459900	-10.301000	25.574976	0.000709	20.755359
1580.700625	-2.993200	3.458300	-10.350000	25.567813	0.000712	20.753381
1581.700309	-2.990700	3.459000	-10.342000	25.602131	0.000710	20.794012
1582.702426	-3.007900	3.458000	-10.400000	25.584142	0.000709	20.753659
1583.708403	-3.000900	3.457000	-10.373000	25.622554	0.000706	20.775643
1584.706319	-3.002200	3.457700	-10.379000	25.629905	0.000708	20.769749
1585.685746	-2.990100	3.456800	-10.335000	25.625859	0.000706	20.768056
1586.684655	-3.004300	3.456900	-10.385000	25.637613	0.000707	20.757101
1587.686770	-2.990000	3.455600	-10.331000	25.628611	0.000704	20.780303
1588.713709	-3.001100	3.455000	-10.368000	25.619452	0.000706	20.756406
1589.702961	-3.012000	3.455400	-10.405000	25.637141	0.000704	20.774645
1590.709520	-3.017800	3.455100	-10.425000	25.666988	0.000705	20.783760
1591.710310	-2.991500	3.455000	-10.335000	25.656602	0.000703	20.797985
1592.707814	-3.019600	3.453900	-10.428000	25.625240	0.000702	20.768857
1593.709698	-2.992000	3.455300	-10.337000	25.645166	0.000705	20.779387
1594.724266	-3.008900	3.452500	-10.387000	25.650995	0.000703	20.767223
1595.689715	-2.994100	3.452600	-10.336000	25.648862	0.000703	20.783099
1596.714409	-3.000000	3.453200	-10.359000	25.655276	0.000702	20.772945
1597.687899	-2.990800	3.452500	-10.325000	25.649383	0.000703	20.789312
1598.690667	-3.010100	3.451300	-10.388000	25.613210	0.000702	20.770051
1599.694067	-3.016200	3.451900	-10.410000	25.584183	0.000700	20.777409
1600.690031	-3.009800	3.449900	-10.382000	25.602929	0.000700	20.776795
1601.691543	-3.003600	3.450900	-10.364000	25.609052	0.000701	20.781048
1602.690768	-2.997300	3.451400	-10.344000	25.648569	0.000700	20.781382
1603.709533	-2.982900	3.450600	-10.292000	25.594479	0.000700	20.773051
1604.726572	-3.003700	3.450100	-10.361000	25.596214	0.000697	20.775741
1605.709338	-3.016200	3.448500	-10.399000	25.622058	0.000699	20.775144
1606.715434	-2.992700	3.450900	-10.327000	25.643302	0.000697	20.789843
1607.711173	-3.016600	3.448000	-10.400000	25.653283	0.000697	20.788487
1608.712749	-2.978500	3.449300	-10.273000	25.674118	0.000697	20.772903
1609.724542	-3.029300	3.448200	-10.444000	25.654332	0.000697	20.788593
1610.697033	-3.014300	3.447100	-10.389000	25.644149	0.000696	20.769830
1611.694562	-3.010100	3.447900	-10.378000	25.667827	0.000694	20.797879
1612.695134	-3.014500	3.447500	-10.392000	25.674118	0.000695	20.790447
1613.694767	-2.974000	3.447700	-10.253000	25.657766	0.000694	20.784929
1614.721391	-2.997100	3.446900	-10.330000	25.704233	0.000692	20.836815
1615.712931	-3.029200	3.444900	-10.434000	25.720983	0.000694	20.813337
1616.692093	-2.997200	3.445400	-10.326000	25.759537	0.000693	20.791371
1617.697407	-3.017300	3.443300	-10.388000	25.748533	0.000694	20.806396
1618.692905	-3.024700	3.445200	-10.420000	25.763191	0.000692	20.807843
1619.696064	-3.003900	3.444700	-10.346000	25.699096	0.000692	20.809371
1620.692550	-3.015300	3.443800	-10.383000	25.686945	0.000693	20.781045
1621.713101	-3.022100	3.443500	-10.404000	25.667166	0.000691	20.805276
1622.715819	-3.026200	3.444800	-10.424000	25.681531	0.000691	20.790781
1623.712564	-2.982800	3.443600	-10.271000	25.686455	0.000690	20.781976
1624.723384	-2.992300	3.443300	-10.302000	25.694505	0.000692	20.805234
1625.721230	-3.000300	3.442700	-10.327000	25.687473	0.000688	20.823775
1626.714661	-3.010600	3.442100	-10.361000	25.715748	0.000690	20.807605
1627.715844	-3.006000	3.441000	-10.342000	25.715601	0.000689	20.798923
1628.720439	-3.011300	3.441200	-10.361000	25.732124	0.000688	20.792285
1629.715021	-2.999400	3.442400	-10.323000	25.750509	0.000688	20.789889
1630.698827	-2.994300	3.440900	-10.303000	25.757915	0.000689	20.824355
1631.701672	-3.004400	3.440400	-10.335000	25.780898	0.000687	20.819940
1632.698221	-2.992800	3.440300	-10.295000	25.764573	0.000687	20.809231
1633.698148	-2.998800	3.439100	-10.311000	25.791682	0.000686	20.824133
1634.700541	-2.977300	3.441300	-10.243000	25.773199	0.000685	20.796559
1635.699589	-2.991700	3.438200	-10.285000	25.730047	0.000687	20.812958
1636.699715	-2.977700	3.440500	-10.244000	25.690190	0.000684	20.820340
1637.703656	-2.994200	3.438300	-10.294000	25.686445	0.000687	20.814208
1638.702331	-2.989900	3.437700	-10.277000	25.703538	0.000685	20.833746
1639.708235	-3.018600	3.436900	-10.373000	25.722819	0.000684	20.804750
1640.702863	-3.018400	3.436600	-10.372000	25.723169	0.000685	20.820274
1641.700775	-3.003900	3.435900	-10.320000	25.708112	0.000682	20.824590
1642.730225	-2.993800	3.438600	-10.292000	25.687022	0.000683	20.824745
1643.701494	-2.973100	3.437600	-10.220000	25.699093	0.000682	20.827386
1644.700937	-2.974300	3.437600	-10.223000	25.725984	0.000679	20.812196
1645.718523	-2.971600	3.436100	-10.210000	25.735914	0.000683	20.835920
1646.701823	-3.000500	3.435400	-10.306000	25.768217	0.000679	20.820004
1647.737947	-3.005000	3.434600	-10.320000	25.757164	0.000682	20.816488
1648.722259	-3.000100	3.436000	-10.308000	25.782133	0.000679	20.805533
1649.724632	-2.985200	3.435500	-10.255000	25.760542	0.000678	20.828889
1650.702749	-2.998000	3.433700	-10.293000	25.766906	0.000681	20.824376
1651.702845	-2.981900	3.434200	-10.240000	25.783972	0.000680	20.824450
1652.728492	-2.985400	3.433900	-10.251000	25.774791	0.000680	20.831348
1653.703427	-3.000800	3.431400	-10.296000	25.754111	0.000677	20.823379
1654.724382	-3.014500	3.430700	-10.341000	25.720529	0.000677	20.831373
1655.704566	-2.985800	3.431700	-10.245000	25.705178	0.000676	20.832550
1656.705613	-2.983600	3.432900	-10.242000	25.697797	0.000675	20.804747
1657.728920	-2.988300	3.432800	-10.257000	25.693125	0.000677	20.808115
1658.736819	-3.000100	3.431300	-10.292000	25.708857	0.000675	20.822494
1659.721395	-2.998500	3.431600	-10.288000	25.679588	0.000676	20.814908
1660.723383	-2.976100	3.431900	-10.211000	25.668210	0.000674	20.815807
1661.723789	-3.028100	3.430600	-10.388000	25.658117	0.000673	20.802826
1662.725778	-3.003400	3.430100	-10.301000	25.651784	0.000675	20.809741
1663.736581	-2.967200	3.430700	-10.179000	25.698496	0.000673	20.822045
1664.730920	-3.005300	3.429500	-10.304000	25.710200	0.000674	20.802032
1665.709353	-2.996300	3.426800	-10.267000	25.704161	0.000673	20.800234
1666.726352	-3.007400	3.428200	-10.308000	25.683299	0.000672	20.811997
1667.725148	-2.981400	3.428000	-10.220000	25.677879	0.000672	20.818880
1668.708708	-3.018500	3.427300	-10.344000	25.681418	0.000670	20.805840
1669.711514	-2.975800	3.429300	-10.204000	25.671969	0.000671	20.801091
1670.725261	-2.994800	3.427300	-10.263000	25.673141	0.000669	20.808906
1671.709864	-2.995700	3.426700	-10.265000	25.695297	0.000669	20.796072
1672.711992	-2.976800	3.427600	-10.202000	25.701091	0.000668	20.795254
1673.709360	-3.014100	3.425900	-10.325000	25.744024	0.000668	20.795229
1674.710445	-3.016700	3.424000	-10.328000	25.762085	0.000667	20.808154
1675.710414	-2.976800	3.425100	-10.194000	25.791620	0.000667	20.790881
1676.709855	-3.011600	3.425000	-10.314000	25.821715	0.000666	20.785075
1677.711084	-3.015400	3.424400	-10.325000	25.843329	0.000666	20.789719
1678.731105	-3.008000	3.423700	-10.297000	25.832466	0.000667	20.782599
1679.726333	-3.016500	3.422600	-10.323000	25.788145	0.000664	20.795450
1680.710553	-2.976000	3.424100	-10.189000	25.781812	0.000666	20.795254
1681.714411	-2.999300	3.423200	-10.265000	25.802435	0.000664	20.789417
1682.732419	-2.988200	3.422600	-10.225000	25.821984	0.000665	20.782975
1683.734463	-3.015000	3.422400	-10.317000	25.822781	0.000665	20.798949
1684.731509	-3.005300	3.420500	-10.278000	25.847896	0.000663	20.776762
1685.729758	-2.988400	3.421600	-10.224000	25.827582	0.000662	20.775322
1686.734161	-2.985300	3.421600	-10.214000	25.822316	0.000661	20.779990
1687.733128	-2.980200	3.421500	-10.195000	25.824204	0.000659	20.800853
1688.744545	-2.998600	3.420900	-10.257000	25.855577	0.000661	20.774047
1689.732061	-3.002100	3.421400	-10.270000	25.854161	0.000661	20.784478
1690.734788	-2.988400	3.420900	-10.222000	25.838291	0.000663	20.803624
1691.745256	-2.990200	3.419000	-10.223000	25.845298	0.000659	20.786481
1692.741490	-2.987100	3.419300	-10.212000	25.865147	0.000660	20.763271
1693.740950	-2.982700	3.419000	-10.196000	25.875580	0.000658	20.776597
1694.716369	-2.966100	3.419300	-10.141000	25.869052	0.000660	20.772885
1695.735290	-2.995500	3.418200	-10.239000	25.875408	0.000658	20.792072
1696.737815	-2.996500	3.417300	-10.237000	25.861200	0.000658	20.779695
1697.717474	-2.990600	3.418000	-10.221000	25.825522	0.000657	20.765667
1698.735822	-2.980200	3.418300	-10.186000	25.792928	0.000657	20.769910
1699.740654	-3.005400	3.416900	-10.268000	25.759665	0.000655	20.761153
1700.719289	-3.008000	3.416900	-10.277000	25.724513	0.000653	20.766622
1701.718873	-3.001200	3.415800	-10.251000	25.724286	0.000657	20.766868
1702.721145	-2.970200	3.416200	-10.146000	25.700577	0.000655	20.775297
1703.742641	-2.993100	3.416500	-10.224000	25.707617	0.000654	20.766721
1704.737089	-2.984100	3.416100	-10.193000	25.712362	0.000658	20.781918
1705.737215	-3.007100	3.415300	-10.269000	25.684436	0.000654	20.760981
1706.740399	-3.010800	3.414400	-10.278000	25.660856	0.000654	20.781395
1707.754174	-3.015600	3.414700	-10.296000	25.632709	0.000654	20.780626
1708.737006	-2.990700	3.413600	-10.208000	25.626572	0.000652	20.772565
1709.722579	-2.971400	3.414800	-10.145000	25.599109	0.000654	20.778648
1710.723333	-2.993100	3.413300	-10.215000	25.611880	0.000651	20.765396
1711.726450	-3.002200	3.412700	-10.245000	25.611831	0.000652	20.780046
1712.720913	-3.027600	3.411700	-10.328000	25.677176	0.000653	20.779295
1713.724491	-2.962700	3.413100	-10.110000	25.664479	0.000651	20.774602
1714.725301	-3.003600	3.410900	-10.244000	25.689597	0.000651	20.771381
1715.723393	-2.989000	3.410300	-10.192000	25.714796	0.000649	20.755913
1716.726320	-3.001700	3.410600	-10.237000	25.730992	0.000650	20.769811
1717.723764	-2.960600	3.411600	-10.099000	25.758193	0.000649	20.776744
1718.745585	-3.008200	3.410100	-10.256000	25.754245	0.000649	20.741010
1719.749162	-2.972300	3.411300	-10.137000	25.786963	0.000650	20.766288
1720.723739	-2.975700	3.410700	-10.148000	25.791708	0.000651	20.768209
1721.747303	-2.988000	3.409800	-10.188000	25.781820	0.000648	20.754009
1722.733786	-2.990100	3.410700	-10.197000	25.735265	0.000648	20.769836
1723.723965	-2.984500	3.408500	-10.172000	25.698731	0.000647	20.765382
1724.760180	-2.983600	3.408400	-10.167000	25.676208	0.000646	20.763148
1725.753128	-2.992600	3.408000	-10.198000	25.687261	0.000646	20.768087
1726.745393	-3.013100	3.408100	-10.268000	25.702889	0.000646	20.755333
1727.762727	-2.991300	3.408100	-10.193000	25.703451	0.000645	20.758269
1728.744093	-3.011300	3.405900	-10.255000	25.711183	0.000645	20.754181
1729.746859	-2.977300	3.408100	-10.146000	25.753319	0.000646	20.749088
1730.726311	-2.999000	3.406500	-10.215000	25.731954	0.000644	20.769829
1731.726307	-3.020600	3.405600	-10.286000	25.743657	0.000645	20.742703
1732.727154	-3.017000	3.405600	-10.274000	25.770288	0.000644	20.743848
1733.734966	-3.011700	3.405100	-10.255000	25.769099	0.000642	20.750240
1734.727186	-2.998200	3.406200	-10.212000	25.739905	0.000642	20.756952
1735.757278	-3.017700	3.404600	-10.273000	25.758193	0.000643	20.761097
1736.751606	-2.995400	3.405000	-10.199000	25.742248	0.000642	20.745081
1737.745504	-3.008400	3.404600	-10.242000	25.740084	0.000640	20.759977
1738.746153	-3.008800	3.402700	-10.237000	25.739538	0.000640	20.747574
1739.745161	-2.999400	3.404200	-10.209000	25.780924	0.000640	20.752636
1740.749918	-2.998000	3.404300	-10.205000	25.780575	0.000638	20.750388
1741.730030	-3.009100	3.404000	-10.242000	25.799904	0.000641	20.751311
1742.727616	-3.025200	3.402300	-10.292000	25.827998	0.000638	20.743022
1743.730896	-2.987700	3.402600	-10.164000	25.806072	0.000638	20.749921
1744.730630	-3.015900	3.400800	-10.255000	25.805194	0.000637	20.727227
1745.733335	-3.002200	3.400800	-10.209000	25.804656	0.000636	20.767939
1746.747774	-2.976300	3.402300	-10.124000	25.791211	0.000638	20.752063
1747.761467	-2.987300	3.401200	-10.160000	25.813526	0.000637	20.737968
1748.734605	-3.004500	3.400400	-10.216000	25.833075	0.000637	20.737216
1749.732621	-2.993000	3.400700	-10.177000	25.836501	0.000636	20.757729
1750.752645	-2.995600	3.398700	-10.180000	25.855186	0.000635	20.751842
1751.733863	-2.970900	3.400700	-10.102000	25.795858	0.000634	20.749619
1752.757910	-2.994100	3.399700	-10.179000	25.771061	0.000635	20.734192
1753.739764	-2.999400	3.399100	-10.194000	25.728405	0.000634	20.750142
1754.738880	-3.006700	3.398300	-10.217000	25.694423	0.000634	20.744459
1755.739341	-3.009400	3.398100	-10.226000	25.661248	0.000633	20.748122
1756.738512	-2.989300	3.397800	-10.156000	25.654215	0.000632	20.738688
1757.736526	-3.039700	3.395900	-10.321000	25.675134	0.000630	20.741206
1758.755170	-2.981800	3.397600	-10.130000	25.705071	0.000629	20.753731
1759.741467	-2.994500	3.397400	-10.172000	25.693227	0.000631	20.744680
1760.758513	-3.000600	3.396300	-10.190000	25.701448	0.000630	20.769534
1761.755321	-3.000300	3.396400	-10.189000	25.666221	0.000630	20.746479
1762.758856	-3.003000	3.396400	-10.198000	25.628022	0.000628	20.737985
1763.762287	-3.006400	3.395300	-10.205000	25.637765	0.000627	20.745874
1764.751587	-3.005000	3.395600	-10.203000	25.654575	0.000628	20.727669
1765.756466	-3.019300	3.393900	-10.246000	25.658709	0.000627	20.734192
1766.756955	-2.994000	3.395800	-10.165000	25.673564	0.000627	20.735836
1767.747897	-2.998500	3.393900	-10.176000	25.736276	0.000628	20.740504
1768.737934	-3.005200	3.393400	-10.197000	25.747157	0.000626	20.737209
1769.778502	-2.999100	3.394200	-10.178000	25.752854	0.000626	20.737241
1770.737287	-3.037200	3.392000	-10.300000	25.761270	0.000627	20.721512
1771.747292	-2.995200	3.393300	-10.163000	25.741346	0.000626	20.744648
1772.740553	-3.006800	3.392800	-10.201000	25.718582	0.000625	20.728421
1773.738207	-3.017700	3.391300	-10.231000	25.708767	0.000623	20.728993
1774.742576	-3.003400	3.391100	-10.184000	25.726509	0.000622	20.749186
1775.740047	-2.998200	3.390600	-10.165000	25.719803	0.000625	20.732966
1776.738595	-3.002600	3.390500	-10.179000	25.752952	0.000622	20.730701
1777.741059	-2.978200	3.390300	-10.096000	25.788624	0.000622	20.724807
1778.740894	-3.000900	3.389300	-10.170000	25.774040	0.000621	20.741452
1779.762659	-3.003900	3.389800	-10.181000	25.772176	0.000621	20.729622
1780.762904	-2.991800	3.389100	-10.138000	25.738888	0.000620	20.745973
1781.765312	-3.019600	3.388800	-10.232000	25.697094	0.000620	20.727701
1782.765511	-2.993500	3.388800	-10.144000	25.660321	0.000618	20.724431
1783.763837	-3.007500	3.388600	-10.190000	25.664895	0.000619	20.720016
1784.757735	-3.006500	3.387900	-10.185000	25.650593	0.000620	20.731256
1785.760056	-2.989200	3.388000	-10.126000	25.661443	0.000620	20.723188
1786.764176	-3.000200	3.388600	-10.166000	25.661965	0.000619	20.739833
1787.764813	-3.004000	3.387700	-10.176000	25.687220	0.000616	20.724421
1788.762785	-3.006500	3.386400	-10.180000	25.710498	0.000618	20.723146
1789.765197	-2.988300	3.388500	-10.124000	25.736860	0.000617	20.733504
1790.741494	-2.967300	3.386400	-10.047000	25.768641	0.000617	20.727020
1791.743446	-3.006700	3.385000	-10.177000	25.764466	0.000617	20.721404
1792.743056	-3.000600	3.386700	-10.160000	25.731919	0.000615	20.714790
1793.746722	-3.023100	3.384900	-10.232000	25.691077	0.000616	20.722131
1794.743700	-3.002600	3.384700	-10.161000	25.662182	0.000615	20.717765
1795.742054	-2.998600	3.384100	-10.147000	25.656150	0.000615	20.715974
1796.745210	-2.977100	3.385500	-10.078000	25.694487	0.000614	20.699475
1797.741793	-2.992800	3.384700	-10.128000	25.690311	0.000614	20.703343
1798.741714	-3.007700	3.383700	-10.176000	25.705051	0.000613	20.711509
1799.742230	-2.999300	3.384700	-10.151000	25.679835	0.000612	20.707519
1800.742682	-2.988000	3.383200	-10.108000	25.660951	0.000610	20.727435
1801.745374	-3.000600	3.383900	-10.153000	25.639658	0.000610	20.713635
1802.747011	-2.987000	3.382300	-10.102000	25.653576	0.000611	20.735675
1803.770008	-3.007200	3.381500	-10.168000	25.653699	0.000611	20.707347
1804.771570	-3.013400	3.380900	-10.187000	25.681332	0.000611	20.725145
1805.770465	-3.012400	3.380100	-10.181000	25.738428	0.000609	20.713266
1806.765803	-2.994200	3.380900	-10.122000	25.767614	0.000608	20.708917
1807.746309	-3.023800	3.380200	-10.219000	25.786258	0.000610	20.697298
1808.744491	-3.005000	3.380700	-10.158000	25.811300	0.000610	20.698271
1809.760251	-2.998400	3.381000	-10.136000	25.859323	0.000608	20.702416
1810.763603	-2.994800	3.379900	-10.122000	25.861708	0.000608	20.715244
1811.744811	-3.030700	3.380000	-10.242000	25.851967	0.000605	20.712571
1812.753333	-3.005700	3.379200	-10.155000	25.881360	0.000606	20.682827
1813.745957	-2.997600	3.380000	-10.131000	25.887692	0.000606	20.704362
1814.748635	-2.992600	3.378700	-10.109000	25.896961	0.000608	20.705138
1815.747562	-3.016900	3.378300	-10.191000	25.894429	0.000607	20.709234
1816.747206	-2.979100	3.378400	-10.064000	25.900467	0.000603	20.721465
1817.752027	-2.995600	3.377600	-10.117000	25.911494	0.000607	20.707411
1818.747546	-2.992300	3.378500	-10.109000	25.914351	0.000606	20.705539
1819.749751	-2.996800	3.377500	-10.120000	25.940991	0.000605	20.701482
1820.749705	-2.998600	3.376800	-10.125000	25.939886	0.000603	20.696578
1821.770512	-3.012500	3.376300	-10.170000	25.962645	0.000602	20.699529
1822.751941	-2.976200	3.377700	-10.052000	25.973605	0.000602	20.708170
1823.748049	-3.018800	3.375600	-10.189000	26.026683	0.000602	20.692269
1824.751268	-2.971300	3.375800	-10.030000	25.978716	0.000602	20.697657
1825.749539	-3.026700	3.374000	-10.211000	25.973085	0.000602	20.687731
1826.749822	-3.010900	3.375600	-10.161000	25.975843	0.000602	20.693821
1827.751464	-2.993100	3.376300	-10.105000	25.987390	0.000602	20.697836
1828.753227	-2.986500	3.375100	-10.078000	25.979870	0.000600	20.699765
1829.752720	-3.007500	3.373800	-10.146000	25.959699	0.000600	20.705104
1830.749482	-3.003500	3.373800	-10.132000	25.907652	0.000598	20.707345
1831.751067	-3.006100	3.373000	-10.138000	25.904153	0.000599	20.699087
1832.752460	-3.010300	3.372700	-10.151000	25.896381	0.000599	20.686537
1833.751499	-3.014800	3.372600	-10.167000	25.890497	0.000597	20.692480
1834.750967	-3.007200	3.373600	-10.144000	25.902272	0.000595	20.694826
1835.770201	-3.011000	3.372700	-10.154000	25.870372	0.000596	20.683642
1836.773999	-3.000600	3.372000	-10.116000	25.850223	0.000598	20.702283
1837.773010	-3.005500	3.370400	-10.129000	25.848244	0.000596	20.700770
1838.770096	-3.002000	3.371900	-10.121000	25.848318	0.000596	20.677608
1839.775843	-2.984400	3.372700	-10.065000	25.840196	0.000595	20.693158
1840.756542	-3.010100	3.369600	-10.142000	25.857083	0.000592	20.707752
1841.774654	-2.976500	3.371000	-10.033000	25.848310	0.000595	20.688981
1842.753164	-3.018200	3.369400	-10.168000	25.857929	0.000594	20.680151
1843.757435	-3.023800	3.369400	-10.188000	25.836094	0.000594	20.688563
1844.754708	-2.997900	3.370700	-10.104000	25.890196	0.000595	20.698342
1845.753520	-2.999600	3.369700	-10.107000	25.904356	0.000592	20.676055
1846.756440	-2.966300	3.369400	-9.993200	25.941788	0.000593	20.705128
1847.756850	-2.992800	3.368900	-10.082000	25.951895	0.000591	20.688728
1848.784021	-3.034900	3.367700	-10.219000	25.983370	0.000591	20.676252
1849.774952	-3.010300	3.367800	-10.137000	25.989977	0.000590	20.680994
1850.759782	-2.990700	3.367200	-10.069000	26.003817	0.000591	20.676881
1851.757450	-2.975600	3.367900	-10.020000	25.990229	0.000590	20.666072
1852.757906	-3.002100	3.367100	-10.107000	25.993183	0.000588	20.676627
1853.758640	-2.994600	3.366200	-10.079000	25.963107	0.000588	20.696200
1854.761981	-2.990600	3.366400	-10.067000	26.002516	0.000590	20.674151
1855.786141	-3.027600	3.365500	-10.188000	26.022191	0.000589	20.683487
1856.776978	-3.002300	3.365300	-10.102000	26.016511	0.000586	20.682522
1857.760326	-2.968100	3.365900	-9.988400	26.033021	0.000588	20.676824
1858.758471	-3.011000	3.365400	-10.132000	26.053712	0.000586	20.689080
1859.788777	-3.034300	3.364400	-10.207000	26.058854	0.000586	20.687608
1860.778007	-2.998800	3.365000	-10.091000	26.045186	0.000587	20.685254
1861.789201	-2.998700	3.365500	-10.090000	26.058155	0.000584	20.696389
1862.780412	-3.017700	3.363100	-10.147000	26.064290	0.000584	20.666989
1863.761509	-3.013400	3.363000	-10.133000	26.042631	0.000585	20.682686
1864.765446	-2.992300	3.364200	-10.066000	26.021971	0.000582	20.674256
1865.768128	-3.011000	3.362000	-10.123000	26.037324	0.000584	20.673561
1866.765909	-3.009300	3.363000	-10.119000	26.056690	0.000581	20.692546
1867.767074	-2.982300	3.364600	-10.032000	26.072222	0.000581	20.691082
1868.785941	-2.990300	3.362200	-10.053000	26.023964	0.000582	20.673888
1869.766800	-2.972400	3.363100	-9.995500	25.975500	0.000580	20.672138
1870.770890	-2.993800	3.362200	-10.064000	25.929867	0.000579	20.670389
1871.768419	-2.980400	3.361600	-10.017000	25.942236	0.000580	20.681394
1872.769996	-3.009500	3.361200	-10.114000	25.960772	0.000579	20.673463
1873.787070	-2.985700	3.360300	-10.032000	25.955500	0.000580	20.656310
1874.801201	-3.003900	3.360500	-10.092000	26.011693	0.000578	20.681475
1875.789042	-2.988500	3.360300	-10.041000	26.001807	0.000578	20.652573
1876.770551	-3.009200	3.359400	-10.108000	26.020286	0.000579	20.666399
1877.792155	-2.987900	3.359000	-10.035000	26.020954	0.000576	20.672760
1878.792829	-2.998300	3.358900	-10.070000	26.008229	0.000577	20.664242
1879.786233	-3.019400	3.358500	-10.140000	26.003614	0.000578	20.669089
1880.778476	-3.025100	3.357700	-10.156000	25.987373	0.000574	20.655141
1881.780262	-2.973700	3.359000	-9.988300	26.015217	0.000575	20.666048
1882.770577	-2.986700	3.358300	-10.028000	26.018391	0.000576	20.664495
1883.770124	-2.968100	3.358000	-9.966000	26.025966	0.000575	20.665468
1884.790575	-3.011100	3.357400	-10.108000	25.979587	0.000576	20.681460
1885.789767	-3.001200	3.357900	-10.077000	25.944963	0.000575	20.676546
1886.789261	-3.010400	3.354900	-10.099000	25.922553	0.000573	20.659247
1887.807308	-3.000300	3.356800	-10.069000	25.863376	0.000573	20.659541
1888.786872	-2.988400	3.356500	-10.030000	25.858998	0.000573	20.661308
1889.797462	-3.023000	3.354700	-10.140000	25.826835	0.000571	20.674045
1890.775495	-2.980000	3.355600	-9.998500	25.832492	0.000571	20.665502
1891.797870	-2.990200	3.356100	-10.034000	25.855596	0.000570	20.672591
1892.772556	-2.985300	3.355200	-10.015000	25.847743	0.000572	20.669918
1893.797466	-3.002300	3.354000	-10.069000	25.831509	0.000570	20.683483
1894.774645	-2.995100	3.354300	-10.045000	25.838971	0.000571	20.687185
1895.775728	-3.007600	3.354000	-10.087000	25.840282	0.000568	20.686131
1896.775645	-2.992000	3.353600	-10.033000	25.876350	0.000570	20.655505
1897.801845	-3.009500	3.352800	-10.089000	25.887572	0.000568	20.672945
1898.790397	-3.020900	3.352700	-10.127000	25.872657	0.000565	20.681670
1899.791901	-3.018000	3.353000	-10.119000	25.860385	0.000565	20.656063
1900.800670	-3.005200	3.351500	-10.069000	25.847511	0.000566	20.678220
1901.789729	-2.980100	3.353000	-9.992100	25.829795	0.000564	20.658525
1902.774848	-3.003200	3.351500	-10.064000	25.838585	0.000566	20.683478
1903.774300	-2.999300	3.351300	-10.050000	25.769865	0.000564	20.691262
1904.774824	-3.017700	3.350200	-10.108000	25.797536	0.000564	20.692031
1905.774763	-2.995600	3.350900	-10.037000	25.815914	0.000567	20.673506
1906.777750	-3.020500	3.349800	-10.115000	25.862562	0.000563	20.674847
1907.793397	-2.993600	3.349900	-10.027000	25.878082	0.000563	20.691388
1908.793405	-2.998600	3.349100	-10.042000	25.920886	0.000562	20.661840
1909.793384	-2.981200	3.349200	-9.983400	25.932377	0.000562	20.668169
1910.803005	-2.979600	3.350600	-9.982200	25.925591	0.000562	20.682216
1911.811617	-3.028500	3.347300	-10.136000	25.909341	0.000563	20.674899
1912.804004	-3.000800	3.348500	-10.048000	25.925535	0.000563	20.666985
1913.798256	-3.009300	3.347000	-10.071000	25.871152	0.000561	20.673993
1914.799584	-3.016500	3.347000	-10.095000	25.921867	0.000560	20.665197
1915.795870	-3.000500	3.347100	-10.042000	25.902565	0.000561	20.667143
1916.810110	-2.995900	3.345600	-10.022000	25.878161	0.000560	20.692890
1917.780693	-2.988900	3.347600	-10.005000	25.865190	0.000560	20.679858
1918.816315	-2.982600	3.347400	-9.982200	25.869235	0.000559	20.691509
1919.781291	-2.980100	3.346300	-9.970600	25.890842	0.000560	20.676704
1920.799830	-2.999600	3.346300	-10.036000	25.898914	0.000559	20.672011
1921.779140	-3.000900	3.344200	-10.035000	25.930229	0.000558	20.692092
1922.780159	-3.019400	3.344100	-10.096000	25.913996	0.000556	20.689060
1923.801809	-3.004000	3.344800	-10.046000	25.931826	0.000556	20.696542
1924.781489	-3.023700	3.342600	-10.106000	25.922998	0.000556	20.706166
1925.779178	-3.009700	3.344400	-10.064000	25.897739	0.000555	20.696911
1926.779736	-3.012600	3.343400	-10.072000	25.866360	0.000555	20.695260
1927.783556	-3.004300	3.343900	-10.045000	25.834672	0.000555	20.695196
1928.783219	-2.990800	3.343600	-9.999400	25.830921	0.000554	20.682892
1929.806417	-2.987100	3.344300	-9.988100	25.836675	0.000554	20.703373
1930.780935	-2.993300	3.342500	-10.005000	25.846532	0.000552	20.695255
1931.783726	-3.001900	3.341600	-10.030000	25.889029	0.000554	20.691954
1932.788313	-2.985500	3.342700	-9.978800	25.937415	0.000552	20.679870
1933.812021	-2.998200	3.341900	-10.018000	25.945334	0.000551	20.709165
1934.787773	-2.992800	3.342300	-10.002000	25.991537	0.000552	20.682561
1935.803039	-2.991000	3.341900	-9.995300	26.028886	0.000551	20.690689
1936.785424	-2.982500	3.342000	-9.967300	26.056796	0.000550	20.720155
1937.784858	-2.993400	3.340300	-9.997700	26.062777	0.000551	20.706249
1938.789117	-2.996100	3.340000	-10.006000	26.012777	0.000548	20.696790
1939.786444	-3.008700	3.339900	-10.047000	25.960286	0.000549	20.692891
1940.814250	-2.996500	3.340800	-10.008000	25.939586	0.000548	20.685844
1941.785511	-2.992200	3.339800	-9.991400	25.908467	0.000547	20.711008
1942.788198	-2.987400	3.340400	-9.977600	25.909705	0.000546	20.704665
1943.787879	-2.997500	3.337100	-10.002000	25.934786	0.000546	20.710422
1944.788618	-2.966500	3.340400	-9.907800	25.969344	0.000545	20.711001
1945.788932	-2.973400	3.339000	-9.926900	25.996636	0.000544	20.709498
1946.785442	-3.014200	3.337200	-10.058000	26.012235	0.000545	20.692451
1947.788209	-3.012100	3.336800	-10.050000	26.071152	0.000544	20.711345
1948.807698	-2.983600	3.338000	-9.958000	26.088091	0.000544	20.699441
1949.814726	-3.001900	3.336100	-10.014000	26.092779	0.000541	20.702729
1950.810998	-2.997900	3.336400	-10.001000	26.121198	0.000544	20.717534
1951.792977	-3.001400	3.335300	-10.008000	26.170388	0.000539	20.723815
1952.790298	-2.979400	3.336800	-9.940900	26.165652	0.000542	20.706726
1953.794082	-2.995400	3.334900	-9.988600	26.163293	0.000543	20.727591
1954.806911	-2.971000	3.335600	-9.908700	26.127423	0.000541	20.693442
1955.818997	-3.015600	3.333700	-10.051000	26.174439	0.000540	20.729308
1956.807443	-2.993600	3.334900	-9.982300	26.189165	0.000541	20.703326
1957.795234	-2.991400	3.334100	-9.971700	26.211967	0.000538	20.702058
1958.793162	-2.998300	3.333800	-9.994800	26.236577	0.000540	20.732006
1959.811894	-2.964100	3.335800	-9.886500	26.232054	0.000538	20.703751
1960.820650	-3.023700	3.333300	-10.078000	26.216305	0.000537	20.724436
1961.793750	-2.979300	3.334700	-9.933500	26.215735	0.000537	20.707267
1962.794443	-3.026600	3.331400	-10.082000	26.258973	0.000537	20.708043
1963.797177	-3.009200	3.331500	-10.024000	26.246534	0.000535	20.713087
1964.796955	-3.022500	3.332100	-10.070000	26.218811	0.000536	20.707513
1965.818035	-2.991000	3.331400	-9.962600	26.231949	0.000536	20.715026
1966.815906	-2.988800	3.332000	-9.957700	26.231771	0.000535	20.704415
1967.810595	-3.000600	3.331200	-9.994800	26.249309	0.000535	20.720144
1968.816696	-2.995500	3.330600	-9.976500	26.237709	0.000535	20.712754
1969.799265	-2.995500	3.330800	-9.976200	26.211408	0.000532	20.719989
1970.796361	-2.998500	3.332100	-9.989500	26.210496	0.000532	20.748946
1971.796294	-3.016500	3.330000	-10.044000	26.208706	0.000534	20.727706
1972.799045	-2.994400	3.328700	-9.965900	26.183300	0.000531	20.726832
1973.796019	-3.017600	3.328300	-10.042000	26.188001	0.000530	20.708321
1974.798825	-3.009700	3.329400	-10.019000	26.131499	0.000530	20.710341
1975.814020	-2.995700	3.328200	-9.968600	26.136958	0.000532	20.726733
1976.803598	-3.020800	3.327800	-10.052000	26.143296	0.000530	20.725989
1977.797070	-2.993200	3.328200	-9.960400	26.133337	0.000531	20.709343
1978.817894	-3.000100	3.327200	-9.981700	26.175040	0.000530	20.716635
1979.818532	-3.001200	3.327200	-9.984700	26.177253	0.000529	20.730239
1980.799438	-3.002800	3.327200	-9.989500	26.213327	0.000529	20.732350
1981.798613	-2.993700	3.326300	-9.957300	26.178808	0.000528	20.722318
1982.799748	-2.978600	3.328700	-9.913500	26.161381	0.000528	20.737050
1983.820622	-2.993900	3.326800	-9.959300	26.120124	0.000524	20.736846
1984.818086	-2.991300	3.325700	-9.947100	26.142831	0.000525	20.730264
1985.816463	-2.984600	3.324400	-9.919400	26.149989	0.000525	20.741251
1986.817151	-3.000400	3.326700	-9.980000	26.149046	0.000524	20.718964
1987.818993	-3.010100	3.325400	-10.009000	26.202594	0.000525	20.713028
1988.812525	-2.992200	3.325300	-9.949100	26.205620	0.000523	20.713699
1989.819680	-2.993600	3.323400	-9.947300	26.219059	0.000523	20.720092
1990.799819	-3.004000	3.324000	-9.984100	26.231701	0.000522	20.721416
1991.795981	-3.008200	3.322900	-9.994600	26.233417	0.000523	20.729305
1992.817647	-2.992600	3.323100	-9.943700	26.216333	0.000522	20.724465
1993.835391	-3.023200	3.321900	-10.041000	26.182384	0.000521	20.746302
1994.799458	-2.990500	3.322600	-9.935000	26.184352	0.000521	20.729786
1995.803003	-2.995800	3.322900	-9.954000	26.141388	0.000522	20.730710
1996.798929	-2.990100	3.321400	-9.929800	26.161409	0.000521	20.743242
1997.802661	-3.003100	3.320900	-9.971800	26.137441	0.000519	20.738125
1998.803848	-3.009300	3.320500	-9.991400	26.140101	0.000521	20.734633
1999.801849	-2.999500	3.322000	-9.962900	26.184212	0.000519	20.743871
2000.801196	-3.014400	3.321000	-10.010000	26.185824	0.000520	20.717040
2001.801760	-2.997300	3.320100	-9.950600	26.197620	0.000519	20.752129
2002.805122	-2.999100	3.320100	-9.956300	26.214142	0.000517	20.728427
2003.801197	-2.992000	3.319600	-9.930300	26.234595	0.000517	20.730489
2004.804775	-3.011600	3.319000	-9.994700	26.266736	0.000515	20.750460
2005.803701	-3.021400	3.318500	-10.026000	26.275456	0.000516	20.742154
2006.803020	-2.996300	3.318000	-9.939500	26.300958	0.000514	20.769206
2007.803360	-2.983800	3.318800	-9.901300	26.311167	0.000515	20.723987
2008.802869	-2.985800	3.317900	-9.904500	26.310126	0.000513	20.743805
2009.823893	-3.008700	3.317400	-9.979700	26.324482	0.000513	20.751121
2010.818496	-2.986300	3.317800	-9.907500	26.317503	0.000511	20.752168
2011.803606	-2.994900	3.316400	-9.930400	26.319667	0.000512	20.738694
2012.851059	-2.991600	3.316400	-9.920200	26.312859	0.000512	20.754138
2013.817418	-2.999400	3.317400	-9.948400	26.312761	0.000512	20.749298
2014.837026	-2.993500	3.315600	-9.924500	26.289918	0.000511	20.746256
2015.824091	-2.993300	3.315700	-9.924100	26.289219	0.000511	20.755986
2016.820379	-2.983300	3.313800	-9.885000	26.242963	0.000510	20.736527
2017.821828	-3.002000	3.314700	-9.950400	26.241320	0.000510	20.738670
2018.822742	-2.995600	3.313000	-9.923100	26.249324	0.000511	20.759990
2019.824095	-3.011600	3.314400	-9.980500	26.256402	0.000508	20.732014
2020.831879	-3.006100	3.314100	-9.959400	26.286200	0.000509	20.751054
2021.824903	-2.997000	3.315000	-9.933600	26.311922	0.000508	20.736127
2022.829313	-3.017000	3.313600	-9.996000	26.333185	0.000507	20.774092
2023.825928	-2.995700	3.313800	-9.926100	26.364445	0.000507	20.744816
2024.824198	-2.980000	3.312800	-9.871500	26.391588	0.000507	20.772097
2025.827167	-2.994100	3.312200	-9.915700	26.398640	0.000507	20.755002
2026.826335	-3.012900	3.311700	-9.976900	26.397598	0.000505	20.759172
2027.822589	-2.975500	3.311300	-9.851800	26.363949	0.000503	20.746214
2028.823748	-2.986400	3.311400	-9.887800	26.340594	0.000503	20.740286
2029.823540	-2.997300	3.311500	-9.924600	26.318444	0.000504	20.747897
2030.806845	-2.977800	3.311000	-9.858100	26.332126	0.000504	20.758803
2031.826265	-3.014300	3.309900	-9.976000	26.334062	0.000504	20.763594
2032.810598	-3.011700	3.309800	-9.966800	26.369519	0.000499	20.764616
2033.808220	-2.995800	3.310000	-9.915200	26.383030	0.000502	20.757331
2034.806204	-2.990300	3.309100	-9.893900	26.373748	0.000500	20.738045
2035.806665	-2.997700	3.310000	-9.921300	26.377669	0.000499	20.765694
2036.808097	-3.007000	3.308900	-9.948400	26.351843	0.000500	20.759179
2037.830035	-3.037300	3.306100	-10.040000	26.330393	0.000500	20.744258
2038.826643	-3.027000	3.307500	-10.011000	26.351770	0.000498	20.766218
2039.815654	-2.990400	3.307900	-9.890900	26.363987	0.000497	20.772807
2040.810228	-2.989200	3.307400	-9.886400	26.360765	0.000497	20.771939
2041.811357	-2.973000	3.306100	-9.828100	26.374919	0.000498	20.760559
2042.826051	-3.012400	3.306200	-9.959200	26.411416	0.000496	20.771163
2043.827019	-3.002000	3.306300	-9.924400	26.445365	0.000495	20.761188
2044.828542	-3.006100	3.304400	-9.932600	26.428399	0.000495	20.776853
2045.833716	-2.979300	3.306700	-9.850200	26.418045	0.000496	20.765972
2046.835179	-3.019300	3.304300	-9.976000	26.437443	0.000493	20.786891
2047.834890	-2.981200	3.304900	-9.851100	26.405112	0.000495	20.759137
2048.815100	-2.993500	3.304300	-9.890100	26.411343	0.000494	20.777253
2049.832032	-3.007900	3.304300	-9.937700	26.437768	0.000493	20.777735
2050.836769	-2.992800	3.304200	-9.887400	26.456232	0.000492	20.773534
2051.821190	-2.998500	3.303900	-9.905800	26.449628	0.000494	20.765473
2052.817135	-3.018500	3.302000	-9.966800	26.472205	0.000491	20.771571
2053.821301	-3.009800	3.302700	-9.938800	26.492035	0.000490	20.758311
2054.819798	-2.988700	3.302400	-9.868400	26.499038	0.000490	20.780998
2055.818850	-2.990600	3.301800	-9.873600	26.455939	0.000489	20.773239
2056.820271	-3.005800	3.301300	-9.921500	26.451889	0.000490	20.790505
2057.841091	-3.015300	3.300300	-9.950500	26.441021	0.000489	20.778634
2058.852509	-2.993600	3.301400	-9.881700	26.428333	0.000490	20.780580
2059.820489	-2.995400	3.301000	-9.886700	26.435458	0.000488	20.782526
2060.825645	-2.992700	3.301200	-9.878400	26.380734	0.000487	20.798173
2061.819526	-3.008800	3.299400	-9.925000	26.372322	0.000487	20.798254
2062.822800	-2.979700	3.300200	-9.833000	26.348335	0.000487	20.786948
2063.826583	-3.006200	3.299700	-9.918300	26.313642	0.000485	20.799023
2064.823341	-3.005800	3.299400	-9.916800	26.322460	0.000485	20.817367
2065.821126	-3.013100	3.298800	-9.938600	26.335027	0.000485	20.770254
2066.824666	-3.037000	3.297400	-10.013000	26.347489	0.000484	20.787520
2067.824076	-2.985100	3.297800	-9.843100	26.382709	0.000484	20.782614
2068.823930	-3.001600	3.296900	-9.895200	26.373745	0.000483	20.789252
2069.831508	-3.012500	3.297600	-9.932900	26.397585	0.000481	20.790927
2070.823150	-3.000700	3.298000	-9.894200	26.412039	0.000481	20.796445
2071.836257	-3.000900	3.295600	-9.889500	26.421019	0.000481	20.772755
2072.824353	-3.006000	3.295700	-9.906000	26.447476	0.000481	20.784173
2073.823458	-3.010800	3.295600	-9.920700	26.479921	0.000478	20.782171
2074.844657	-2.997700	3.297500	-9.884100	26.513438	0.000478	20.802584
2075.842677	-3.012100	3.296200	-9.927500	26.504580	0.000479	20.804587
2076.846335	-2.978000	3.294900	-9.811400	26.457082	0.000478	20.804260
2077.828024	-2.984900	3.295400	-9.834700	26.477919	0.000478	20.787745
2078.825107	-2.973000	3.296900	-9.800400	26.473446	0.000478	20.796526
2079.827637	-3.026900	3.292900	-9.966000	26.455625	0.000476	20.795209
2080.860135	-2.969600	3.294400	-9.781400	26.463295	0.000475	20.806712
2081.849753	-3.012700	3.292400	-9.918000	26.468607	0.000475	20.818214
2082.824677	-3.007400	3.293200	-9.903300	26.466776	0.000474	20.806417
2083.827942	-3.017000	3.293600	-9.935400	26.490859	0.000474	20.793639
2084.827489	-3.002100	3.293600	-9.886800	26.525441	0.000474	20.803744
2085.827890	-2.985400	3.292400	-9.828100	26.548879	0.000473	20.784630
2086.840625	-3.007800	3.290500	-9.896100	26.549879	0.000474	20.813136
2087.845230	-3.018200	3.290500	-9.930200	26.511597	0.000472	20.797889
2088.825516	-3.016100	3.291500	-9.926100	26.566315	0.000472	20.807372
2089.850641	-3.001300	3.290900	-9.876500	26.590996	0.000472	20.823648
2090.858011	-2.995900	3.289100	-9.853400	26.612124	0.000469	20.794152
2091.824934	-3.016300	3.289400	-9.921600	26.622721	0.000469	20.808598
2092.827791	-2.999900	3.290100	-9.869000	26.594867	0.000469	20.807625
2093.828337	-3.017300	3.287800	-9.919300	26.645441	0.000469	20.821955
2094.827435	-3.006700	3.289300	-9.889000	26.645465	0.000467	20.811548
2095.827027	-2.997400	3.288400	-9.855800	26.633429	0.000468	20.805613
2096.849176	-2.982400	3.288800	-9.806600	26.575242	0.000466	20.822510
2097.827313	-2.988500	3.288100	-9.826100	26.551308	0.000467	20.828797
2098.839769	-3.005700	3.287200	-9.879700	26.563052	0.000468	20.814998
2099.856460	-3.002300	3.287000	-9.867600	26.601632	0.000465	20.808735
2100.827573	-3.006000	3.286000	-9.876100	26.614594	0.000464	20.797110
2101.830573	-3.021400	3.286900	-9.929300	26.615464	0.000464	20.797510
2102.828986	-3.004000	3.286300	-9.871000	26.571832	0.000463	20.822402
2103.832285	-3.012900	3.285600	-9.898300	26.541490	0.000462	20.809919
2104.830726	-3.009200	3.284400	-9.882400	26.567807	0.000461	20.815985
2105.830770	-3.013700	3.283500	-9.894600	26.593904	0.000464	20.829416
2106.829097	-3.010100	3.286600	-9.891600	26.551330	0.000461	20.817439
2107.852479	-2.994900	3.283400	-9.831600	26.562276	0.000461	20.801416
2108.850497	-2.996500	3.283900	-9.839500	26.598767	0.000461	20.798269
2109.832153	-3.024700	3.281400	-9.924200	26.629108	0.000458	20.834933
2110.852676	-3.016300	3.283000	-9.900300	26.677046	0.000460	20.824330
2111.849861	-3.012100	3.282200	-9.885800	26.695862	0.000461	20.824281
2112.847528	-3.015600	3.282600	-9.897100	26.735650	0.000460	20.825401
2113.848103	-2.987800	3.281300	-9.801800	26.732478	0.000458	20.807988
2114.833530	-2.998700	3.281300	-9.838600	26.753107	0.000458	20.823986
2115.855418	-3.005400	3.281700	-9.861600	26.746172	0.000459	20.825549
2116.848555	-3.005800	3.281700	-9.863600	26.715346	0.000458	20.831540
2117.851864	-2.979700	3.282200	-9.778900	26.683202	0.000454	20.825777
2118.859517	-3.006300	3.279900	-9.858900	26.663221	0.000454	20.821812
2119.854226	-3.025600	3.278600	-9.916900	26.642982	0.000455	20.827069
2120.835433	-3.000200	3.280900	-9.840900	26.658431	0.000453	20.814626
2121.835105	-2.953100	3.281900	-9.690500	26.707597	0.000453	20.800991
2122.859049	-2.996300	3.280600	-9.828600	26.710451	0.000452	20.799593
2123.851086	-3.013200	3.277500	-9.874800	26.724893	0.000451	20.816958
2124.873928	-2.977700	3.279600	-9.764400	26.708282	0.000449	20.821594
2125.853930	-2.989300	3.278200	-9.798900	26.701661	0.000450	20.816361
2126.857221	-3.012700	3.277900	-9.873900	26.710273	0.000447	20.812690
2127.863568	-3.010900	3.277200	-9.866000	26.740149	0.000448	20.808114
2128.856048	-2.990000	3.277100	-9.797200	26.682740	0.000448	20.815830
2129.863430	-3.006000	3.275700	-9.845300	26.647586	0.000446	20.819845
2130.857961	-3.002800	3.277200	-9.839700	26.610545	0.000445	20.818643
2131.864422	-3.027900	3.275400	-9.916200	26.579991	0.000444	20.820645
2132.858665	-3.018700	3.274000	-9.882100	26.598973	0.000445	20.811752
2133.863424	-3.005800	3.274100	-9.839900	26.589808	0.000444	20.822454
2134.841605	-3.004800	3.275900	-9.841600	26.603218	0.000442	20.830244
2135.862883	-2.991100	3.274700	-9.793100	26.632430	0.000442	20.800341
2136.860078	-2.995900	3.273400	-9.806200	26.618207	0.000442	20.814492
2137.841803	-3.016400	3.274500	-9.876600	26.618930	0.000441	20.784399
2138.847387	-3.009400	3.272700	-9.847300	26.625551	0.000442	20.797693
2139.843750	-2.986600	3.273900	-9.777800	26.652411	0.000441	20.782969
2140.848241	-2.990600	3.272600	-9.785900	26.621110	0.000440	20.811246
2141.842351	-3.002800	3.271900	-9.823400	26.601048	0.000439	20.788708
2142.845858	-3.015600	3.270300	-9.860300	26.556060	0.000438	20.803228
2143.847838	-2.989300	3.271800	-9.778700	26.522845	0.000438	20.806350
2144.843742	-3.003100	3.271700	-9.823800	26.485432	0.000437	20.797668
2145.845061	-3.001800	3.271300	-9.817700	26.510475	0.000435	20.808615
2146.842725	-2.998900	3.269900	-9.805200	26.519909	0.000438	20.794391
2147.843523	-2.982400	3.271700	-9.756400	26.538607	0.000435	20.800383
2148.847669	-2.997000	3.270800	-9.801600	26.571552	0.000435	20.775179
2149.847636	-2.999400	3.270200	-9.806600	26.612319	0.000436	20.806677
2150.864541	-2.986400	3.269300	-9.762100	26.641524	0.000434	20.793362
2151.872046	-3.017000	3.267800	-9.857600	26.672782	0.000434	20.784009
2152.879652	-3.007400	3.268400	-9.828200	26.636067	0.000434	20.799255
2153.868630	-2.999600	3.268600	-9.802400	26.613801	0.000432	20.790622
2154.857357	-2.996700	3.267500	-9.790200	26.586964	0.000431	20.783559
2155.872678	-2.988500	3.267900	-9.765000	26.567373	0.000431	20.776668
2156.868966	-3.010500	3.267400	-9.835000	26.550913	0.000431	20.777665
2157.871475	-2.984100	3.267000	-9.747300	26.551824	0.000432	20.793281
2158.870921	-2.986700	3.267100	-9.757100	26.522464	0.000430	20.775147
2159.854186	-3.002400	3.266100	-9.805600	26.502498	0.000428	20.802968
2160.869853	-3.017200	3.265500	-9.851400	26.545692	0.000431	20.777633
2161.874485	-2.984000	3.265000	-9.741500	26.557111	0.000428	20.799543
2162.849150	-2.998800	3.264500	-9.787900	26.558827	0.000428	20.779456
2163.854303	-3.016100	3.265500	-9.847600	26.533973	0.000427	20.771543
2164.852598	-3.005400	3.263800	-9.807100	26.517561	0.000426	20.789185
2165.851586	-3.008100	3.263200	-9.815100	26.492885	0.000426	20.768649
2166.853103	-2.984800	3.263400	-9.739300	26.546489	0.000424	20.757571
2167.854789	-3.002100	3.262400	-9.792800	26.592334	0.000425	20.802707
2168.853809	-3.006000	3.262500	-9.806100	26.623384	0.000425	20.783660
2169.857183	-3.004200	3.261900	-9.798300	26.632272	0.000423	20.765568
2170.876771	-3.003300	3.261800	-9.794600	26.614153	0.000420	20.761578
2171.856212	-3.025800	3.261700	-9.868400	26.623635	0.000419	20.772533
2172.855218	-3.013800	3.260500	-9.825500	26.615236	0.000419	20.784004
2173.872715	-3.021800	3.259500	-9.848700	26.577558	0.000418	20.768888
2174.857741	-2.971200	3.261700	-9.690100	26.556772	0.000418	20.762692
2175.856368	-3.032500	3.259500	-9.883200	26.568026	0.000419	20.770212
2176.858074	-3.002600	3.260000	-9.787300	26.583389	0.000418	20.769534
2177.856073	-2.991800	3.259400	-9.750600	26.615903	0.000417	20.744845
2178.872297	-3.016600	3.257000	-9.823400	26.614317	0.000416	20.782606
2179.875706	-3.021300	3.256900	-9.838400	26.609698	0.000413	20.763264
2180.879440	-2.996700	3.259000	-9.765300	26.610194	0.000416	20.757599
2181.857414	-2.986800	3.257600	-9.729100	26.608405	0.000415	20.747739
2182.855214	-3.012600	3.258000	-9.813600	26.609869	0.000414	20.772445
2183.856470	-3.011600	3.256100	-9.804600	26.652441	0.000412	20.746489
2184.890376	-3.013500	3.256000	-9.810800	26.663314	0.000415	20.765480
2185.876404	-2.998200	3.254600	-9.756400	26.693548	0.000412	20.772168
2186.877503	-3.016500	3.254400	-9.815400	26.657378	0.000411	20.775634
2187.872355	-3.018000	3.254200	-9.820900	26.630689	0.000412	20.764451
2188.875512	-2.989100	3.253900	-9.723900	26.599136	0.000411	20.754068
2189.857662	-3.005400	3.254100	-9.779100	26.615148	0.000408	20.762579
2190.857515	-2.978000	3.255600	-9.694500	26.655631	0.000410	20.765343
2191.858047	-2.985200	3.254100	-9.713700	26.694728	0.000409	20.757707
2192.855299	-2.997000	3.254300	-9.752000	26.700639	0.000408	20.736148
2193.855710	-2.989900	3.254700	-9.730800	26.688311	0.000408	20.751255
2194.858654	-3.001400	3.252000	-9.760100	26.659306	0.000406	20.766193
2195.858207	-2.993200	3.253500	-9.736700	26.675569	0.000408	20.753145
2196.857337	-3.015000	3.251700	-9.802700	26.694159	0.000406	20.761876
2197.858027	-2.994800	3.250900	-9.734100	26.737971	0.000406	20.763250
2198.855649	-3.000600	3.251500	-9.753400	26.768797	0.000404	20.756783
2199.856234	-3.005900	3.250700	-9.770300	26.799580	0.000405	20.763078
2200.856490	-2.989800	3.250900	-9.718600	26.776660	0.000405	20.756629
2201.857293	-3.002900	3.249800	-9.758000	26.750673	0.000403	20.759425
2202.855385	-2.989900	3.249200	-9.713800	26.776035	0.000403	20.739878
2203.858570	-3.018200	3.248700	-9.804500	26.797906	0.000402	20.760921
2204.860703	-2.989100	3.248500	-9.709100	26.853560	0.000399	20.747651
2205.856404	-2.999900	3.248400	-9.742700	26.895521	0.000400	20.732470
2206.860500	-2.981600	3.247300	-9.681700	26.897138	0.000400	20.754012
2207.873510	-2.997600	3.247500	-9.733300	26.930691	0.000400	20.733222
2208.874797	-3.011700	3.246800	-9.777800	26.934463	0.000399	20.750767
2209.861725	-2.994000	3.246200	-9.718400	26.931959	0.000397	20.749671
2210.859097	-3.012300	3.245800	-9.776400	26.940520	0.000397	20.741684
2211.862625	-2.990700	3.247000	-9.708800	26.908113	0.000396	20.758884
2212.877003	-2.991400	3.246400	-9.710600	26.891455	0.000396	20.729805
2213.861641	-2.995700	3.246500	-9.724500	26.896195	0.000395	20.747848
2214.859189	-2.998400	3.244800	-9.728600	26.848145	0.000395	20.733198
2215.861275	-3.011100	3.243900	-9.766700	26.828364	0.000395	20.746973
2216.863036	-3.004900	3.243600	-9.745600	26.852211	0.000394	20.732544
2217.861726	-3.000000	3.242700	-9.727000	26.840031	0.000392	20.762024
2218.868453	-3.009100	3.242000	-9.755100	26.867927	0.000392	20.757356
2219.862644	-2.989400	3.244900	-9.699600	26.899318	0.000390	20.732021
2220.867283	-3.004600	3.241700	-9.739000	26.938724	0.000390	20.745094
2221.889197	-3.015000	3.241300	-9.771700	26.956943	0.000389	20.746819
2222.891525	-3.009000	3.241000	-9.751000	26.981730	0.000388	20.734286
2223.887178	-3.003700	3.240800	-9.733300	27.018539	0.000388	20.748069
2224.890807	-2.990700	3.239800	-9.687500	27.018036	0.000390	20.743770
2225.888307	-3.001400	3.239800	-9.722400	26.969202	0.000389	20.733542
2226.880174	-3.003300	3.240000	-9.729500	26.940212	0.000387	20.729520
2227.884521	-2.969500	3.240400	-9.621200	26.926716	0.000386	20.722586
2228.891683	-3.017200	3.238600	-9.770000	26.906132	0.000385	20.710422
2229.883707	-3.007900	3.239300	-9.740700	26.892367	0.000386	20.741627
2230.882634	-3.004400	3.236100	-9.721600	26.880473	0.000384	20.735358
2231.896742	-3.010200	3.238100	-9.746200	26.874636	0.000383	20.740868
2232.886930	-3.004300	3.238000	-9.726900	26.883474	0.000381	20.736952
2233.890282	-2.998500	3.236000	-9.702300	26.951627	0.000382	20.737679
2234.889922	-3.013000	3.238000	-9.754300	26.959586	0.000381	20.754693
2235.895314	-2.964600	3.238000	-9.598400	26.969237	0.000380	20.732154
2236.869974	-2.994800	3.236100	-9.690000	26.970969	0.000380	20.728206
2237.869808	-2.998100	3.234000	-9.695600	26.948766	0.000379	20.756140
2238.893666	-2.989800	3.234200	-9.668800	26.919426	0.000380	20.728058
2239.892906	-2.992600	3.233700	-9.676600	26.916345	0.000378	20.755308
2240.871392	-2.988900	3.234800	-9.667200	26.948109	0.000379	20.750738
2241.870884	-2.995000	3.232300	-9.679200	26.920467	0.000376	20.747124
2242.874022	-3.029000	3.231700	-9.787700	26.952548	0.000378	20.715371
2243.870793	-3.014500	3.232500	-9.742800	26.964563	0.000375	20.721764
2244.872139	-2.979200	3.233100	-9.630500	26.968685	0.000376	20.733970
2245.871495	-3.002300	3.231400	-9.700200	26.984409	0.000374	20.729867
2246.870918	-3.002900	3.231300	-9.701200	26.990831	0.000374	20.736326
2247.875002	-2.993800	3.231500	-9.673800	26.972303	0.000374	20.739031
2248.871550	-2.998700	3.230700	-9.686400	26.983319	0.000375	20.713597
2249.871365	-3.014600	3.229700	-9.735200	27.002050	0.000373	20.729590
2250.876994	-3.003200	3.229400	-9.698300	27.013554	0.000372	20.711286
2251.873966	-2.997700	3.230200	-9.682000	27.033804	0.000371	20.747773
2252.876170	-2.977800	3.229900	-9.616800	27.040925	0.000370	20.723639
2253.889426	-3.000500	3.229000	-9.686300	27.005092	0.000371	20.724588
2254.893056	-2.980100	3.228900	-9.621800	26.998840	0.000369	20.707868
2255.899901	-2.998600	3.227500	-9.676900	26.955104	0.000367	20.733116
2256.898280	-2.955600	3.228100	-9.540200	26.948259	0.000367	20.732396
2257.876621	-3.010000	3.226700	-9.711700	26.963145	0.000367	20.707534
2258.874776	-2.985400	3.226000	-9.629600	26.970039	0.000368	20.723478
2259.890615	-2.996300	3.226300	-9.665900	27.005573	0.000366	20.712743
2260.891878	-3.031800	3.225200	-9.776600	26.993437	0.000365	20.736101
2261.894904	-3.000000	3.225800	-9.676700	26.997624	0.000365	20.727510
2262.888892	-3.006600	3.224200	-9.692800	26.991844	0.000363	20.709842
2263.899185	-2.972100	3.226100	-9.587100	26.996884	0.000364	20.735300
2264.895608	-2.998100	3.223900	-9.664300	27.020029	0.000363	20.735817
2265.898731	-3.030900	3.222700	-9.767100	27.026459	0.000362	20.729480
2266.903229	-2.984800	3.224300	-9.622600	27.052439	0.000361	20.730478
2267.881429	-3.001300	3.222200	-9.669200	27.057796	0.000362	20.750091
2268.879972	-3.017700	3.221100	-9.719900	27.029452	0.000359	20.736758
2269.876998	-3.010000	3.221100	-9.693200	27.041361	0.000358	20.723129
2270.893743	-3.007100	3.221200	-9.684600	27.075290	0.000360	20.726431
2271.878185	-2.993800	3.221300	-9.642000	27.102303	0.000360	20.740323
2272.900581	-3.006800	3.220800	-9.683300	27.108781	0.000359	20.717439
2273.904457	-3.012500	3.219100	-9.696800	27.100661	0.000358	20.719231
2274.887860	-3.007100	3.219000	-9.678800	27.111351	0.000357	20.728085
2275.880221	-3.002000	3.217700	-9.659200	27.138775	0.000357	20.727218
2276.883039	-3.025700	3.216700	-9.731400	27.154081	0.000356	20.724594
2277.878994	-2.993100	3.217800	-9.630400	27.137354	0.000354	20.716305
2278.879211	-3.002500	3.215500	-9.653800	27.120626	0.000354	20.712757
2279.887194	-2.998400	3.217100	-9.644200	27.122732	0.000354	20.705391
2280.878422	-3.003500	3.219000	-9.667400	27.101419	0.000353	20.719518
2281.886030	-2.987300	3.215800	-9.605000	27.115531	0.000352	20.719961
2282.897611	-3.019700	3.216600	-9.712700	27.120619	0.000350	20.724604
2283.903278	-3.006000	3.215000	-9.663600	27.138241	0.000349	20.704394
2284.877754	-3.001500	3.215200	-9.649100	27.093813	0.000349	20.705704
2285.899736	-3.012100	3.214000	-9.680700	27.125473	0.000350	20.699139
2286.879019	-2.999600	3.213500	-9.638100	27.114239	0.000350	20.703487
2287.880024	-3.018600	3.213300	-9.697400	27.129667	0.000348	20.707625
2288.886781	-2.976400	3.214700	-9.567300	27.147777	0.000349	20.704502
2289.882514	-2.994600	3.212300	-9.617400	27.124799	0.000346	20.694193
2290.880799	-3.010000	3.213300	-9.671300	27.086164	0.000345	20.704650
2291.880574	-3.014600	3.212000	-9.681200	27.096854	0.000347	20.696908
2292.883217	-2.969900	3.211500	-9.537400	27.132433	0.000346	20.689068
2293.902508	-3.017100	3.210400	-9.685200	27.160265	0.000347	20.694776
2294.903090	-3.010500	3.209300	-9.660800	27.129971	0.000345	20.698447
2295.880926	-2.980200	3.210100	-9.565800	27.052871	0.000343	20.711471
2296.906406	-3.021900	3.209200	-9.697200	27.020730	0.000344	20.705226
2297.908001	-3.018200	3.207900	-9.681100	27.006292	0.000343	20.704931
2298.886102	-3.007300	3.209500	-9.651000	27.002408	0.000344	20.696283
2299.903530	-2.990900	3.208800	-9.596200	26.981337	0.000340	20.702595
2300.908190	-2.990000	3.208200	-9.591600	26.987418	0.000340	20.694484
2301.905815	-3.007300	3.207400	-9.644700	26.962966	0.000341	20.708777
2302.910833	-3.014800	3.206000	-9.664300	26.993834	0.000340	20.692875
2303.907403	-2.997000	3.206500	-9.609200	27.009564	0.000340	20.701583
2304.913494	-2.989500	3.206500	-9.584500	27.017199	0.000339	20.692665
2305.908800	-2.993600	3.204700	-9.591900	26.981089	0.000338	20.674842
2306.903755	-2.988900	3.204400	-9.577000	26.986073	0.000338	20.684122
2307.904081	-3.024400	3.204200	-9.689500	27.026175	0.000338	20.699795
2308.905518	-3.035500	3.203100	-9.721400	27.044660	0.000335	20.709377
2309.891305	-2.986800	3.204100	-9.568000	27.037997	0.000336	20.696985
2310.885605	-3.012900	3.202300	-9.647200	27.062863	0.000338	20.694017
2311.889116	-2.996600	3.202400	-9.595300	27.035608	0.000335	20.689366
2312.886744	-3.003900	3.201500	-9.616300	26.969207	0.000335	20.682808
2313.887477	-2.991800	3.200200	-9.572400	26.964265	0.000334	20.681632
2314.909177	-3.018500	3.202900	-9.667400	26.981662	0.000333	20.694386
2315.889348	-3.006300	3.199300	-9.617400	27.003735	0.000334	20.703308
2316.887171	-3.010000	3.200400	-9.632900	27.033104	0.000330	20.689693
2317.906956	-2.994500	3.199800	-9.580800	27.046518	0.000330	20.686588
2318.904454	-2.984800	3.199500	-9.549300	27.048967	0.000330	20.685257
2319.907137	-3.003100	3.198100	-9.603100	27.089139	0.000329	20.703374
2320.905139	-3.014100	3.198300	-9.638400	27.098991	0.000329	20.690996
2321.902627	-2.997200	3.197400	-9.582600	27.100049	0.000331	20.691586
2322.891031	-2.989600	3.196800	-9.556300	27.103692	0.000328	20.685766
2323.902552	-2.988600	3.198200	-9.557100	27.097116	0.000327	20.712819
2324.914162	-3.015200	3.196100	-9.636300	27.143667	0.000327	20.679503
2325.893934	-3.014500	3.195300	-9.630800	27.176586	0.000326	20.669464
2326.911150	-3.024700	3.193800	-9.659800	27.217152	0.000327	20.689879
2327.910725	-3.001700	3.195800	-9.591900	27.241609	0.000325	20.705945
2328.905710	-3.007800	3.193600	-9.604100	27.228361	0.000325	20.677919
2329.913694	-3.000100	3.194100	-9.580400	27.226525	0.000322	20.688874
2330.891371	-3.014700	3.192600	-9.623700	27.217317	0.000322	20.696683
2331.896990	-2.993200	3.192500	-9.554700	27.222324	0.000323	20.700297
2332.891529	-2.987800	3.193100	-9.539300	27.252745	0.000322	20.702447
2333.889541	-3.017600	3.190700	-9.627700	27.274949	0.000323	20.678312
2334.891389	-2.988200	3.193800	-9.541300	27.300899	0.000322	20.680708
2335.891059	-2.967100	3.190600	-9.464900	27.288196	0.000322	20.676465
2336.895765	-2.999400	3.189800	-9.566600	27.291318	0.000321	20.679605
2337.894891	-3.009700	3.189900	-9.598700	27.270333	0.000321	20.682204
2338.897146	-3.025400	3.188000	-9.643300	27.297819	0.000322	20.685671
2339.910800	-3.020400	3.188700	-9.630100	27.311555	0.000317	20.678625
2340.918698	-2.988900	3.189000	-9.531000	27.298364	0.000318	20.706609
2341.916650	-3.001800	3.189100	-9.572400	27.260077	0.000318	20.677104
2342.894931	-3.015400	3.188500	-9.613300	27.229608	0.000317	20.696244
2343.897017	-2.998500	3.186800	-9.554200	27.203705	0.000319	20.672084
2344.898728	-2.994400	3.186700	-9.541500	27.143614	0.000315	20.676131
2345.896342	-2.997900	3.185800	-9.548800	27.118824	0.000316	20.691502
2346.895348	-2.970100	3.186400	-9.462800	27.087903	0.000316	20.683637
2347.896019	-3.019000	3.184500	-9.612800	27.011450	0.000316	20.678822
2348.895206	-3.025200	3.183400	-9.629700	26.966601	0.000314	20.683982
2349.900466	-2.997000	3.184100	-9.541400	26.954440	0.000315	20.682183
2350.896011	-2.989100	3.185600	-9.520500	26.968107	0.000314	20.686444
2351.894504	-3.005100	3.181800	-9.560500	26.983618	0.000314	20.688292
2352.902503	-3.008200	3.181100	-9.567600	26.992852	0.000314	20.692837
2353.895285	-2.996900	3.182100	-9.535900	27.059626	0.000314	20.668473
2354.897185	-2.983000	3.181100	-9.488400	27.120248	0.000310	20.692935
2355.913266	-3.012200	3.180800	-9.579500	27.167392	0.000311	20.699574
2356.912069	-2.997900	3.180300	-9.533100	27.238030	0.000311	20.681006
2357.920000	-3.003800	3.181700	-9.556300	27.236511	0.000309	20.669046
2358.927929	-2.979600	3.181200	-9.477600	27.226343	0.000310	20.681105
2359.915314	-3.001500	3.179200	-9.540900	27.242266	0.000310	20.676732
2360.912223	-2.997700	3.179200	-9.527800	27.273702	0.000310	20.676584
2361.917118	-3.002500	3.177700	-9.540800	27.291388	0.000308	20.698169
2362.918596	-2.989300	3.176700	-9.495000	27.323165	0.000305	20.686037
2363.921189	-3.019700	3.175900	-9.589200	27.288364	0.000307	20.676159
2364.900996	-2.988900	3.175800	-9.490200	27.278311	0.000305	20.685489
2365.899515	-3.000600	3.174800	-9.525400	27.248509	0.000307	20.685857
2366.897947	-2.994000	3.176800	-9.510200	27.189413	0.000304	20.696592
2367.899980	-2.992400	3.174100	-9.497400	27.191972	0.000303	20.679250
2368.921537	-2.985800	3.178400	-9.488200	27.204425	0.000305	20.688457
2369.901718	-3.005100	3.173700	-9.536000	27.219779	0.000306	20.671182
2370.899667	-2.996900	3.172200	-9.506200	27.182017	0.000303	20.686781
2371.899299	-2.988900	3.172100	-9.480300	27.154276	0.000303	20.692071
2372.919184	-2.995700	3.172900	-9.504500	27.116114	0.000304	20.684983
2373.899402	-2.980200	3.169900	-9.444400	27.093459	0.000303	20.679268
2374.903275	-2.995200	3.171200	-9.497700	27.070934	0.000301	20.695970
2375.897871	-2.996800	3.170100	-9.499600	27.098817	0.000302	20.681337
2376.904601	-2.997200	3.169600	-9.498600	27.109276	0.000303	20.675260
2377.901117	-2.991700	3.168700	-9.478800	27.138100	0.000301	20.668214
2378.921306	-3.028500	3.166800	-9.589700	27.138198	0.000302	20.677322
2379.931071	-2.984700	3.168400	-9.455800	27.124973	0.000299	20.698162
2380.920911	-3.012000	3.167200	-9.538800	27.136288	0.000300	20.678246
2381.922069	-3.031800	3.166500	-9.599300	27.168394	0.000297	20.682088
2382.929138	-3.014800	3.165500	-9.543200	27.147278	0.000298	20.688826
2383.929971	-2.977100	3.165900	-9.424900	27.119438	0.000298	20.695440
2384.902464	-3.010200	3.164500	-9.524700	27.153106	0.000297	20.678091
2385.928505	-3.001400	3.162800	-9.492100	27.196477	0.000296	20.662917
2386.928942	-2.997100	3.164500	-9.482600	27.197849	0.000294	20.702707
2387.937049	-3.003300	3.161200	-9.493200	27.212163	0.000296	20.673479
2388.924028	-3.028000	3.162500	-9.574100	27.248761	0.000295	20.664297
2389.927869	-3.002500	3.160900	-9.489200	27.260165	0.000293	20.686202
2390.934171	-3.013600	3.160500	-9.523600	27.256872	0.000295	20.675302
2391.908674	-3.023200	3.159700	-9.551200	27.226469	0.000294	20.676015
2392.932791	-2.992000	3.162400	-9.460500	27.219356	0.000294	20.706322
2393.922451	-2.996900	3.159300	-9.466600	27.180945	0.000293	20.693290
2394.942320	-2.995600	3.159400	-9.463800	27.185830	0.000292	20.690617
2395.931987	-3.003900	3.156900	-9.481900	27.227614	0.000292	20.687125
2396.906106	-2.996000	3.158800	-9.461900	27.220861	0.000292	20.697403
2397.909206	-2.984400	3.156700	-9.419500	27.208482	0.000290	20.696806
2398.907113	-2.985200	3.155300	-9.418500	27.253859	0.000290	20.686023
2399.908917	-2.991800	3.156100	-9.440900	27.254006	0.000288	20.704664
2400.907196	-2.996200	3.154600	-9.451100	27.233613	0.000290	20.690789
2401.911596	-2.994400	3.154200	-9.444400	27.248820	0.000289	20.675738
2402.909521	-3.007200	3.153600	-9.482600	27.262466	0.000289	20.695629
2403.911500	-3.014500	3.151500	-9.499400	27.295438	0.000289	20.705089
2404.910963	-2.987000	3.152600	-9.415700	27.318811	0.000287	20.695882
2405.906969	-3.002500	3.150500	-9.457700	27.287994	0.000288	20.680055
2406.917070	-2.984300	3.152200	-9.405900	27.304572	0.000287	20.704794
2407.908841	-3.000400	3.150900	-9.452600	27.262037	0.000286	20.681920
2408.912534	-3.012800	3.149600	-9.488300	27.265018	0.000286	20.688239
2409.910450	-2.988800	3.148600	-9.409800	27.283078	0.000288	20.702138
2410.913828	-3.020800	3.147400	-9.506400	27.266408	0.000288	20.708605
2411.909928	-3.008400	3.147500	-9.467700	27.268018	0.000287	20.685092
2412.915879	-3.018300	3.146000	-9.494100	27.278395	0.000285	20.690315
2413.911337	-3.002800	3.146700	-9.447500	27.291618	0.000284	20.678959
2414.909952	-3.012700	3.145100	-9.473500	27.273252	0.000284	20.705531
2415.911958	-2.977400	3.145600	-9.363800	27.270057	0.000285	20.703740
2416.930933	-3.016400	3.143900	-9.481800	27.302411	0.000284	20.703094
2417.929592	-2.996200	3.143000	-9.414600	27.369440	0.000284	20.708882
2418.930119	-3.003200	3.142700	-9.436500	27.419101	0.000284	20.696251
2419.935047	-3.000000	3.141600	-9.423800	27.393705	0.000285	20.686349
2420.937799	-2.989900	3.140600	-9.388700	27.368466	0.000282	20.689409
2421.940346	-2.987300	3.140300	-9.380300	27.360209	0.000284	20.698647
2422.914537	-3.020800	3.140000	-9.483700	27.365045	0.000284	20.720108
2423.911438	-3.018600	3.137700	-9.470700	27.387473	0.000282	20.699996
2424.911120	-2.992100	3.141700	-9.398500	27.379754	0.000282	20.698868
2425.911717	-2.993800	3.139300	-9.397300	27.359616	0.000281	20.702792
2426.912797	-2.996100	3.137200	-9.399200	27.355049	0.000281	20.704362
2427.913759	-2.996200	3.136500	-9.396600	27.336073	0.000281	20.705661
2428.913288	-2.995100	3.136400	-9.392900	27.316821	0.000279	20.700993
2429.911796	-2.997200	3.134400	-9.392900	27.262068	0.000277	20.708506
2430.913464	-2.996300	3.134200	-9.390300	27.248544	0.000280	20.696325
2431.912956	-3.009000	3.132300	-9.424000	27.307264	0.000279	20.720305
2432.930129	-2.991600	3.133100	-9.371700	27.329222	0.000278	20.709202
2433.933807	-3.014300	3.131900	-9.438000	27.288214	0.000278	20.702089
2434.934483	-3.003100	3.130700	-9.400900	27.299429	0.000280	20.697723
2435.929774	-3.000600	3.129300	-9.387900	27.326272	0.000278	20.716666
2436.913278	-3.007300	3.129100	-9.409600	27.378462	0.000276	20.726020
2437.915756	-3.017600	3.127700	-9.436700	27.373854	0.000278	20.699571
2438.920678	-2.993300	3.127300	-9.359800	27.422327	0.000275	20.704239
2439.917604	-2.994900	3.127500	-9.365300	27.437622	0.000276	20.729585
2440.919202	-2.980300	3.127500	-9.320000	27.435492	0.000274	20.687610
2441.937154	-2.995200	3.125600	-9.360700	27.414210	0.000276	20.699391
2442.941161	-3.003100	3.126900	-9.389600	27.423140	0.000274	20.718334
2443.948330	-2.962800	3.123600	-9.252800	27.402629	0.000275	20.726150
2444.941492	-3.000000	3.123700	-9.369700	27.426464	0.000277	20.719307
2445.916343	-3.003600	3.121800	-9.374900	27.400297	0.000273	20.726648
2446.920408	-3.006300	3.120800	-9.381200	27.414754	0.000272	20.711794
2447.919750	-2.988600	3.121000	-9.325300	27.435946	0.000273	20.707983
2448.919608	-2.972200	3.120700	-9.273600	27.445567	0.000272	20.725250
2449.920201	-2.977900	3.119300	-9.288300	27.446884	0.000274	20.722307
2450.917426	-2.978700	3.118900	-9.288800	27.443633	0.000272	20.728046
2451.919725	-2.998700	3.117600	-9.347100	27.464542	0.000271	20.713993
2452.916611	-2.991300	3.116800	-9.322500	27.458390	0.000273	20.721555
2453.918331	-3.015500	3.116800	-9.397100	27.470742	0.000272	20.720231
2454.941504	-2.971700	3.116000	-9.257700	27.514864	0.000271	20.719104
2455.923779	-2.997300	3.115000	-9.334900	27.518519	0.000270	20.718039
2456.938613	-2.998200	3.114100	-9.335500	27.511516	0.000271	20.713838
2457.920475	-2.989000	3.113000	-9.302900	27.475950	0.000269	20.727843
2458.920950	-2.990000	3.112900	-9.307200	27.444195	0.000272	20.735250
2459.926854	-2.999500	3.111800	-9.333000	27.458139	0.000271	20.705654
2460.923778	-2.988300	3.110800	-9.295300	27.474407	0.000269	20.712539
2461.925369	-3.016800	3.109200	-9.378700	27.516107	0.000269	20.732209
2462.946403	-2.989000	3.110000	-9.294800	27.543287	0.000269	20.735373
2463.923419	-2.981900	3.108700	-9.268200	27.562608	0.000270	20.714035
2464.923965	-3.006000	3.107400	-9.340500	27.591159	0.000268	20.748454
2465.922749	-3.020800	3.105700	-9.380300	27.584977	0.000269	20.731801
2466.922528	-2.987900	3.106300	-9.280700	27.590736	0.000268	20.726691
2467.922922	-3.003700	3.103600	-9.320800	27.622082	0.000269	20.731204
2468.923292	-2.988200	3.103000	-9.270600	27.633318	0.000268	20.731605
2469.927143	-2.986000	3.103300	-9.265200	27.666628	0.000267	20.736673
2470.927497	-3.004600	3.101300	-9.317300	27.692592	0.000266	20.732929
2471.923911	-2.986600	3.101800	-9.263200	27.750987	0.000267	20.751864
2472.926214	-2.987200	3.100200	-9.259800	27.771359	0.000266	20.730164
2473.925430	-2.999300	3.100300	-9.298100	27.798703	0.000266	20.723543
2474.928477	-3.011000	3.098000	-9.327300	27.770556	0.000265	20.750695
2475.928569	-3.001100	3.097500	-9.295200	27.724382	0.000266	20.733150
2476.936529	-3.009300	3.096800	-9.318700	27.689099	0.000265	20.733680
2477.927981	-3.004500	3.096400	-9.301400	27.665287	0.000266	20.758559
2478.926038	-2.999100	3.093900	-9.276600	27.694030	0.000267	20.750972
2479.929583	-3.010000	3.093700	-9.311400	27.704812	0.000265	20.734320
2480.932526	-2.990200	3.094100	-9.250600	27.679025	0.000266	20.732553
2481.931120	-3.009100	3.090800	-9.299700	27.715949	0.000267	20.738415
2482.931650	-2.989800	3.092600	-9.245200	27.741498	0.000265	20.735675
2483.929674	-2.992200	3.089700	-9.243900	27.760938	0.000266	20.728686
2484.930533	-2.992300	3.088300	-9.240400	27.782328	0.000264	20.740256
2485.930354	-3.008600	3.088000	-9.289400	27.818142	0.000265	20.741685
2486.932712	-3.011600	3.086900	-9.295400	27.821936	0.000263	20.723691
2487.931732	-3.009200	3.086700	-9.287400	27.851195	0.000263	20.764993
2488.930786	-3.000300	3.084900	-9.254000	27.875491	0.000265	20.744400
2489.930732	-2.961800	3.086000	-9.139500	27.884368	0.000264	20.744801
2490.931382	-2.987100	3.084200	-9.211000	27.913392	0.000264	20.727544
2491.934861	-2.982100	3.084300	-9.195200	27.879350	0.000264	20.754449
2492.931494	-3.013300	3.082000	-9.286000	27.845290	0.000262	20.759999
2493.930727	-2.995500	3.080700	-9.227000	27.844536	0.000264	20.741222
2494.929901	-2.984400	3.081400	-9.194400	27.846177	0.000262	20.754727
2495.931178	-2.996500	3.079600	-9.226700	27.860310	0.000262	20.727699
2496.933383	-2.985500	3.078800	-9.191000	27.805157	0.000265	20.752324
2497.932161	-3.003300	3.076500	-9.238300	27.770071	0.000263	20.757319
2498.932145	-3.006300	3.074900	-9.242900	27.700306	0.000262	20.748278
2499.931592	-2.970300	3.076100	-9.135500	27.680418	0.000263	20.743438
2500.931437	-3.004100	3.073700	-9.232100	27.639870	0.000262	20.743888
2501.935666	-3.011400	3.073800	-9.254700	27.609956	0.000262	20.769265
2502.930938	-2.995600	3.073000	-9.204100	27.587208	0.000262	20.736891
2503.932130	-2.983400	3.070900	-9.160900	27.626449	0.000261	20.749350
2504.930803	-2.990100	3.070500	-9.179700	27.664855	0.000263	20.769029
2505.933926	-2.995800	3.069400	-9.194000	27.708756	0.000263	20.729280
2506.933754	-3.010700	3.067400	-9.234100	27.722372	0.000262	20.730653
2507.932291	-2.989400	3.066600	-9.166400	27.693060	0.000262	20.765643
2508.938994	-3.020700	3.066000	-9.260300	27.669972	0.000263	20.765169
2509.933974	-2.997900	3.064800	-9.187000	27.677333	0.000260	20.745549
2510.934806	-2.996000	3.063900	-9.178600	27.667780	0.000262	20.758222
2511.932816	-3.003300	3.061400	-9.193000	27.689584	0.000261	20.755507
2512.935805	-3.012500	3.061700	-9.221800	27.744939	0.000262	20.780866
2513.935477	-3.004900	3.060600	-9.195600	27.770633	0.000262	20.759781
2514.937618	-2.975700	3.060300	-9.105000	27.800131	0.000259	20.776665
2515.933288	-3.004900	3.058700	-9.190000	27.823744	0.000261	20.758229
2516.935901	-3.022700	3.057600	-9.240900	27.851094	0.000260	20.754460
2517.940050	-2.967600	3.057800	-9.073200	27.880205	0.000257	20.771906
2518.937080	-2.988800	3.055300	-9.130200	27.848163	0.000260	20.777589
2519.934478	-2.988100	3.054900	-9.127600	27.806500	0.000260	20.781653
2520.932710	-3.011600	3.052600	-9.190700	27.776989	0.000260	20.751952
2521.933455	-3.004300	3.051400	-9.166600	27.711074	0.000259	20.785667
2522.934536	-2.996700	3.051900	-9.144600	27.731984	0.000259	20.776837
2523.937260	-3.016200	3.048500	-9.193700	27.753504	0.000259	20.766725
2524.934228	-2.992100	3.048600	-9.120200	27.783432	0.000258	20.771239
2525.933893	-3.021100	3.046800	-9.204400	27.799231	0.000258	20.772440
2526.935083	-3.004400	3.046500	-9.151900	27.768103	0.000259	20.780469
2527.936119	-3.000100	3.045200	-9.135200	27.759280	0.000259	20.772064
2528.941718	-3.009800	3.042700	-9.157000	27.721018	0.000259	20.780975
2529.936280	-3.010400	3.043000	-9.158900	27.670935	0.000258	20.756182
2530.938670	-3.004500	3.041000	-9.135600	27.636959	0.000257	20.760400
2531.938591	-3.013000	3.039800	-9.158400	27.679790	0.000258	20.763670
2532.936333	-2.970300	3.039500	-9.026400	27.679937	0.000259	20.787525
2533.938452	-2.994500	3.038800	-9.098500	27.715919	0.000257	20.779637
2534.935981	-3.001600	3.036000	-9.110300	27.752395	0.000259	20.783627
2535.936675	-3.015400	3.035200	-9.151700	27.792743	0.000258	20.781084
2536.936408	-2.995900	3.035000	-9.091300	27.837128	0.000258	20.766009
2537.939501	-2.986600	3.035200	-9.063400	27.851904	0.000255	20.793683
2538.936437	-3.007500	3.033400	-9.121600	27.837568	0.000258	20.789686
2539.939688	-2.996900	3.032600	-9.087800	27.807764	0.000257	20.783873
2540.941254	-2.977200	3.030900	-9.022500	27.769154	0.000259	20.794803
2541.942403	-3.004000	3.030000	-9.101500	27.803028	0.000258	20.792857
2542.939338	-2.973600	3.029400	-9.007400	27.794223	0.000259	20.786367
2543.939762	-3.000500	3.026200	-9.078500	27.749634	0.000256	20.772788
2544.946552	-3.017700	3.026200	-9.131400	27.790325	0.000256	20.789082
2545.940625	-3.015200	3.024500	-9.118900	27.805726	0.000257	20.786563
2546.946383	-3.017900	3.022200	-9.119300	27.867671	0.000258	20.787740
2547.940133	-3.009700	3.022600	-9.095700	27.899951	0.000258	20.787037
2548.942974	-3.025600	3.019500	-9.134000	27.938849	0.000257	20.801533
2549.944278	-2.982200	3.021400	-9.008800	27.980555	0.000257	20.796570
2550.943202	-3.012300	3.017800	-9.089700	27.965432	0.000256	20.802685
2551.943199	-3.000000	3.017800	-9.052700	27.953875	0.000257	20.805751
2552.944601	-2.992700	3.016200	-9.025800	27.904044	0.000255	20.785942
2553.942843	-2.995900	3.015000	-9.031200	27.855684	0.000257	20.795590
2554.941649	-3.004400	3.013400	-9.052900	27.879588	0.000256	20.786932
2555.946650	-2.986700	3.012900	-8.996800	27.886931	0.000257	20.790529
2556.941241	-3.012500	3.011000	-9.069000	27.907335	0.000255	20.807746
2557.948974	-3.019400	3.008800	-9.084100	27.912712	0.000255	20.787080
2558.943933	-2.994000	3.009100	-9.008500	27.929630	0.000255	20.784667
2559.953595	-2.989500	3.007200	-8.988200	27.954028	0.000255	20.798319
2560.946974	-3.018600	3.006300	-9.073900	28.002095	0.000255	20.802604
2561.944918	-2.949900	3.006300	-8.867300	28.024454	0.000258	20.816576
2562.946712	-3.011200	3.003000	-9.041800	28.046624	0.000255	20.799064
2563.946529	-2.984800	3.001000	-8.955300	28.035546	0.000256	20.811146
2564.948274	-3.024200	3.000900	-9.074400	28.038616	0.000257	20.796219
2565.946822	-3.007600	2.999300	-9.020300	28.042360	0.000256	20.820850
2566.946621	-2.990600	2.998800	-8.967600	28.019621	0.000256	20.808866
2567.946141	-3.022000	2.996200	-9.053400	27.971133	0.000255	20.801311
2568.946832	-2.981800	2.998000	-8.938400	27.962176	0.000255	20.811262
2569.948354	-3.000000	2.994800	-8.983700	27.927121	0.000255	20.805849
2570.946687	-3.010700	2.994300	-9.013600	27.892235	0.000254	20.811989
2571.951350	-3.000600	2.992300	-8.977800	27.894168	0.000255	20.807770
2572.949743	-2.993700	2.990000	-8.950000	27.902275	0.000256	20.811662
2573.952010	-2.983600	2.990400	-8.920800	27.912761	0.000256	20.803724
2574.948895	-3.010500	2.987300	-8.992800	27.967285	0.000255	20.814981
2575.947958	-2.993800	2.987600	-8.943400	28.014544	0.000256	20.814661
2576.950578	-3.010600	2.985300	-8.986500	28.039259	0.000255	20.825788
2577.948726	-2.998700	2.984100	-8.947900	27.999188	0.000253	20.824334
2578.951212	-3.021800	2.982600	-9.010900	28.000504	0.000254	20.819020
2579.950678	-2.984800	2.982900	-8.901700	28.020783	0.000254	20.827579
2580.953748	-2.999200	2.980000	-8.936700	28.050459	0.000256	20.825683
2581.951443	-2.970400	2.980000	-8.850900	28.092876	0.000256	20.824759
2582.951062	-3.015600	2.978300	-8.979100	28.071557	0.000253	20.814679
2583.951066	-3.000800	2.975200	-8.926300	28.099714	0.000255	20.819789
2584.951015	-3.015800	2.973800	-8.967100	28.099543	0.000257	20.801600
2585.953604	-2.970600	2.974100	-8.833700	28.106755	0.000256	20.840153
2586.949899	-3.012300	2.971400	-8.950200	28.104822	0.000257	20.829198
2587.952269	-2.996800	2.969100	-8.896500	28.122029	0.000256	20.807641
2588.952035	-3.000900	2.969500	-8.910500	28.130678	0.000257	20.826778
2589.953646	-3.000700	2.967600	-8.904100	28.185826	0.000255	20.830614
2590.956004	-3.018100	2.965600	-8.949300	28.178321	0.000256	20.830171
2591.952486	-2.984400	2.964500	-8.847100	28.164143	0.000254	20.815898
2592.953981	-2.992800	2.964500	-8.871200	28.140043	0.000254	20.824826
2593.953485	-3.002000	2.961200	-8.889200	28.157818	0.000256	20.840349
2594.955402	-3.017100	2.960000	-8.929800	28.126813	0.000257	20.840904
2595.951910	-3.022900	2.957800	-8.940100	28.144906	0.000254	20.852006
2596.955448	-3.033200	2.956300	-8.965700	28.156527	0.000254	20.839050
2597.954721	-2.993600	2.956400	-8.849500	28.192402	0.000254	20.838657
2598.959303	-3.012000	2.952800	-8.892300	28.187643	0.000256	20.843349
2599.954669	-2.991000	2.952800	-8.831000	28.228488	0.000255	20.812400
2600.954493	-2.994000	2.952600	-8.839200	28.171867	0.000253	20.835527
2601.951845	-3.019300	2.949800	-8.905200	28.182205	0.000256	20.820804
2602.955481	-2.987700	2.947900	-8.806500	28.171250	0.000254	20.824949
2603.955247	-2.970600	2.948400	-8.757100	28.172980	0.000255	20.842812
2604.953428	-2.976900	2.946100	-8.769200	28.166216	0.000254	20.803760
2605.959774	-2.987900	2.946300	-8.801900	28.159046	0.000254	20.846801
2606.955277	-3.001900	2.941500	-8.828500	28.155920	0.000253	20.837965
2607.954244	-3.009200	2.940100	-8.846200	28.144917	0.000250	20.821198
2608.957991	-2.988800	2.939900	-8.785600	28.152575	0.000253	20.838390
2609.961762	-2.972400	2.938900	-8.733800	28.096745	0.000254	20.818223
2610.958181	-2.986700	2.935700	-8.766800	28.049789	0.000254	20.801301
2611.959093	-3.000500	2.934600	-8.804200	28.026042	0.000252	20.797786
2612.962865	-3.001600	2.933700	-8.804800	27.965415	0.000254	20.828746
2613.959027	-3.003000	2.932700	-8.805800	27.964302	0.000254	20.835212
2614.959877	-2.986300	2.929900	-8.748300	28.016436	0.000251	20.832686
2615.961666	-3.022200	2.927700	-8.848000	28.052169	0.000253	20.832620
2616.960418	-3.033900	2.924300	-8.870900	28.078644	0.000255	20.819916
2617.958469	-3.001500	2.926300	-8.782500	28.084168	0.000255	20.814097
2618.964453	-2.985200	2.924300	-8.728600	28.041262	0.000252	20.822115
2619.964705	-3.016600	2.921700	-8.811600	28.022242	0.000254	20.808660
2620.963362	-2.999200	2.921000	-8.760100	27.987286	0.000253	20.823260
2621.964999	-3.001200	2.917500	-8.754500	27.955969	0.000254	20.818290
2622.963315	-2.999400	2.917000	-8.748700	27.968535	0.000252	20.795851
2623.967040	-3.007200	2.914400	-8.762700	28.026904	0.000253	20.790593
2624.963747	-3.010300	2.912500	-8.766100	28.063760	0.000254	20.794028
2625.963193	-3.026000	2.911300	-8.808400	28.089991	0.000255	20.816639
2626.967333	-3.013000	2.909700	-8.765700	28.116716	0.000254	20.792809
2627.963569	-2.993200	2.910100	-8.709900	28.144059	0.000252	20.796153
2628.964804	-2.951100	2.907100	-8.577800	28.191126	0.000254	20.801337
2629.969386	-3.000300	2.905200	-8.716100	28.205806	0.000251	20.808530
2630.965756	-3.013000	2.903300	-8.746400	28.206723	0.000252	20.797126
2631.966267	-2.993400	2.902700	-8.686300	28.155533	0.000254	20.809127
2632.965665	-3.015600	2.899700	-8.743700	28.139666	0.000253	20.790308
2633.966203	-3.014800	2.898600	-8.737900	28.074520	0.000251	20.804385
2634.965708	-2.991000	2.896900	-8.663700	28.018736	0.000252	20.793276
2635.973057	-2.999700	2.895500	-8.685000	28.001736	0.000252	20.779009
2636.966718	-3.024600	2.892700	-8.746900	27.996156	0.000250	20.799472
2637.968272	-2.998800	2.891900	-8.671000	28.035100	0.000253	20.786515
2638.967732	-3.009900	2.888500	-8.692800	28.090957	0.000254	20.815242
2639.967909	-3.013700	2.886700	-8.698400	28.126503	0.000252	20.780376
2640.971498	-3.001100	2.885300	-8.657100	28.195762	0.000251	20.793677
2641.970128	-3.010800	2.882600	-8.677500	28.192465	0.000252	20.793202
2642.968929	-3.026000	2.881900	-8.718900	28.209298	0.000255	20.795450
2643.969322	-2.992000	2.880200	-8.615800	28.186067	0.000255	20.789132
2644.969442	-2.979300	2.879600	-8.577300	28.217127	0.000254	20.785788
2645.969689	-2.986700	2.877800	-8.594300	28.183028	0.000252	20.793185
2646.973664	-2.991300	2.874500	-8.596800	28.158506	0.000251	20.784618
2647.970639	-3.021200	2.871400	-8.673900	28.095148	0.000252	20.794330
2648.972676	-2.974300	2.871200	-8.537700	28.066342	0.000253	20.788092
2649.971011	-2.992900	2.869300	-8.586500	28.069322	0.000253	20.820963
2650.975763	-2.996500	2.867600	-8.592000	28.072123	0.000253	20.785851
2651.972062	-3.006400	2.863700	-8.607600	28.058830	0.000253	20.791910
2652.975132	-2.997900	2.863900	-8.583800	28.036349	0.000250	20.791091
2653.971705	-2.958300	2.861500	-8.463800	28.055833	0.000253	20.778461
2654.972160	-3.009100	2.858200	-8.599600	28.094341	0.000251	20.775500
2655.975401	-3.006400	2.857000	-8.588600	28.132591	0.000253	20.774650
2656.972546	-3.002500	2.854700	-8.569800	28.180307	0.000251	20.776220
2657.976299	-2.998800	2.851300	-8.548800	28.200039	0.000252	20.770955
2658.973835	-3.008500	2.849000	-8.569000	28.235734	0.000252	20.775124
2659.975300	-2.974800	2.849500	-8.475000	28.247239	0.000252	20.769164
2660.977850	-3.007900	2.847000	-8.563200	28.257942	0.000254	20.777095
2661.977074	-2.994000	2.845200	-8.517100	28.261294	0.000252	20.759133
2662.972996	-3.004900	2.841900	-8.539000	28.236505	0.000251	20.780168
2663.977137	-2.994800	2.839300	-8.502100	28.198284	0.000251	20.761602
2664.974787	-2.992400	2.839000	-8.494100	28.145461	0.000252	20.761054
2665.975224	-2.993000	2.835600	-8.486600	28.112247	0.000251	20.761756
2666.979278	-3.004400	2.834300	-8.514300	28.117867	0.000252	20.749396
2667.974946	-3.005400	2.831600	-8.509600	28.147620	0.000250	20.764650
2668.982914	-3.000000	2.830100	-8.489200	28.100300	0.000253	20.773912
2669.973912	-2.959600	2.829900	-8.374200	28.135643	0.000251	20.764447
2670.978266	-3.001500	2.825300	-8.479300	28.185348	0.000253	20.786037
2671.979413	-3.003000	2.823600	-8.478600	28.242952	0.000251	20.776701
2672.979141	-2.997600	2.820000	-8.451800	28.305262	0.000250	20.767366
2673.978762	-3.012400	2.818500	-8.490100	28.312668	0.000253	20.770081
2674.977768	-3.014600	2.815000	-8.483800	28.358897	0.000252	20.789602
2675.984578	-3.007200	2.813800	-8.460600	28.403753	0.000253	20.773604
2676.980122	-3.009300	2.811100	-8.458000	28.447244	0.000253	20.756706
2677.981642	-3.018200	2.808900	-8.477000	28.423530	0.000252	20.771233
2678.979669	-2.995800	2.807300	-8.409200	28.417262	0.000252	20.771559
2679.981478	-3.009600	2.804400	-8.439100	28.439759	0.000252	20.792791
2680.984750	-3.027500	2.801300	-8.478900	28.446724	0.000252	20.764243
2681.982647	-3.009400	2.798200	-8.420300	28.379885	0.000252	20.752888
2682.979796	-3.005900	2.797100	-8.406100	28.315353	0.000250	20.778001
2683.980701	-3.007200	2.793900	-8.400700	28.274449	0.000255	20.766214
2684.982398	-3.006200	2.792300	-8.391600	28.304847	0.000252	20.751774
2685.982030	-3.008800	2.787800	-8.386300	28.373592	0.000252	20.745603
2686.982629	-2.992600	2.786000	-8.336100	28.381897	0.000252	20.742112
2687.982290	-2.992400	2.783600	-8.328000	28.422337	0.000252	20.747271
2688.983265	-2.990900	2.781100	-8.316600	28.443128	0.000251	20.754458
2689.983727	-2.993000	2.778300	-8.313300	28.474609	0.000253	20.749649
2690.984885	-3.034200	2.775100	-8.418600	28.431088	0.000251	20.766516
2691.992710	-3.041000	2.770400	-8.424500	28.423212	0.000252	20.743411
2692.985781	-3.010800	2.768900	-8.335400	28.403063	0.000251	20.771011
2693.989350	-3.020600	2.765600	-8.351700	28.434367	0.000251	20.746583
2694.990677	-3.010100	2.763400	-8.316500	28.484497	0.000250	20.761978
2695.994719	-3.003700	2.761700	-8.294600	28.517511	0.000251	20.737377
2696.988327	-3.027100	2.756700	-8.344200	28.521864	0.000253	20.745554
2697.990192	-2.978000	2.756900	-8.209300	28.536215	0.000252	20.750998
2698.997117	-3.005700	2.750600	-8.265700	28.584440	0.000252	20.744563
2699.992007	-2.995900	2.747900	-8.230900	28.593862	0.000250	20.748363
2700.995332	-3.008300	2.745400	-8.257100	28.618263	0.000254	20.737377
2701.996196	-2.993800	2.743200	-8.211500	28.606647	0.000253	20.747015
2702.996053	-3.002900	2.740100	-8.227400	28.619975	0.000252	20.760913
2703.992665	-3.012800	2.736700	-8.243700	28.582141	0.000251	20.764534
2705.001913	-3.009300	2.733100	-8.223500	28.523412	0.000253	20.751381
2705.992264	-3.002100	2.729700	-8.193700	28.486143	0.000251	20.733762
2706.996144	-2.996900	2.728100	-8.174800	28.438018	0.000252	20.755002
2707.991729	-2.999300	2.723900	-8.169600	28.469461	0.000251	20.742094
2708.993833	-3.017700	2.717900	-8.200100	28.414946	0.000251	20.753105
2709.997897	-2.988000	2.717400	-8.118400	28.407136	0.000252	20.750931
2710.995160	-3.000400	2.713100	-8.138900	28.372078	0.000252	20.748346
2712.001525	-2.993400	2.709100	-8.108200	28.351529	0.000251	20.753734
2712.996819	-2.983500	2.704800	-8.069000	28.323746	0.000252	20.733344
2713.996109	-3.001600	2.702600	-8.111400	28.349279	0.000252	20.742933
2714.996270	-2.957500	2.699800	-7.984200	28.337005	0.000252	20.749540
2715.996179	-2.987700	2.695900	-8.053700	28.369919	0.000252	20.760871
2716.994101	-3.000300	2.690900	-8.071200	28.370610	0.000251	20.747341
2717.995688	-3.000500	2.687800	-8.063900	28.354857	0.000252	20.743808
2718.998119	-2.992300	2.683700	-8.028800	28.382089	0.000251	20.738511
2720.003841	-2.988300	2.679900	-8.007100	28.430149	0.000253	20.755139
2721.000487	-2.977100	2.676000	-7.966000	28.482188	0.000252	20.738788
2721.993270	-3.001500	2.670700	-8.015400	28.519952	0.000251	20.755483
2722.995287	-2.989400	2.667000	-7.972100	28.484964	0.000250	20.728307
2723.994414	-3.005700	2.662200	-8.001100	28.471982	0.000253	20.734201
2724.994746	-2.998800	2.659700	-7.974700	28.522759	0.000253	20.713738
2725.997346	-2.978700	2.655800	-7.910300	28.547706	0.000251	20.744078
2726.996605	-3.011100	2.649800	-7.977900	28.530910	0.000251	20.747078
2727.998023	-3.007700	2.645200	-7.954700	28.502636	0.000252	20.743260
2728.994917	-2.992700	2.642800	-7.907300	28.432277	0.000254	20.754436
2729.994526	-3.014800	2.637700	-7.951400	28.430181	0.000252	20.757067
2731.000270	-3.005700	2.633300	-7.914400	28.423557	0.000251	20.740439
2731.995942	-3.004600	2.628600	-7.897000	28.432682	0.000252	20.738722
2732.994769	-2.985300	2.623800	-7.832100	28.403114	0.000251	20.735975
2733.995719	-2.999200	2.618200	-7.851200	28.411339	0.000253	20.742361
2734.995380	-2.973700	2.616100	-7.778900	28.417711	0.000252	20.752097
2736.006653	-3.005300	2.609900	-7.842800	28.375088	0.000252	20.735255
2736.998637	-2.996900	2.605000	-7.805300	28.352356	0.000251	20.742712
2737.997230	-3.008800	2.599400	-7.819900	28.342889	0.000250	20.729386
2738.999124	-2.984200	2.594900	-7.743100	28.383735	0.000252	20.749652
2739.999449	-3.014900	2.589600	-7.806500	28.444104	0.000253	20.715135
2740.996456	-2.947200	2.585100	-7.616900	28.502416	0.000250	20.731658
2741.997105	-2.968700	2.580500	-7.660200	28.478574	0.000253	20.728985
2742.997708	-2.989000	2.571800	-7.686300	28.510078	0.000252	20.732736
2744.011324	-2.956000	2.569200	-7.593100	28.550416	0.000251	20.726892
2745.001157	-2.951700	2.562500	-7.562000	28.595546	0.000252	20.730618
2745.998646	-2.973600	2.557700	-7.605200	28.664371	0.000254	20.716958
2747.000779	-2.996200	2.549800	-7.638800	28.726809	0.000252	20.730063
2747.998962	-3.012900	2.544500	-7.664300	28.721216	0.000255	20.730120
2749.003492	-2.975100	2.538600	-7.552000	28.725484	0.000253	20.734419
2750.000453	-3.008000	2.533300	-7.618400	28.762072	0.000252	20.727176
2750.996130	-2.988100	2.527900	-7.552200	28.796758	0.000253	20.733193
2752.000376	-2.992700	2.521000	-7.543700	28.852428	0.000253	20.723839
2753.001506	-2.988500	2.514000	-7.511600	28.885222	0.000254	20.713253
2753.997932	-3.008000	2.508100	-7.543500	28.888614	0.000253	20.712403
2754.999647	-2.991400	2.502300	-7.484300	28.859806	0.000251	20.721788
2755.999314	-3.019900	2.495800	-7.535700	28.826467	0.000252	20.727085
