LabVIEW Measurement	
Writer_Version	2
Reader_Version	2
Separator	Tab
Decimal_Separator	.
Multi_Headings	No
X_Columns	One
Time_Pref	Absolute
Operator	admin
Description	Clolumns are: time, Current, Voltage, Power, Battery Temp, and Chamber Temp
Date	2024/08/16
Time	13:06:06.104549407958984375
***End_of_Header***	
	
Channels	6						
Samples	1	1	1	1	1	1	
Date	2024/08/26	2024/08/26	2024/08/26	2024/08/26	2024/08/26	2024/08/26	
Time	23:55:35.8069758415222167969	23:55:35.8219761848449707031	23:55:35.8358473777770996094	23:55:35.7876901626586914063	23:55:35.7876901626586914063	23:55:35.7876901626586914063	
X_Dimension	Time	Time	Time	Time	Time	Time	
X0	0.0000000000000000E+0	0.0000000000000000E+0	0.0000000000000000E+0	0.0000000000000000E+0	0.0000000000000000E+0	0.0000000000000000E+0	
Delta_X	1.000000	1.000000	1.000000	1.000000	1.000000	1.000000	
***End_of_Header***							
X_Value	Untitled	Untitled 1	Untitled 2	Untitled 3	Untitled 4	Untitled 5	Comment
0.000000	0.030822	4.103600	0.126460	21.048007	0.000965	20.873543
0.996228	-2.990000	3.945100	-11.794000	21.023399	0.000965	20.866949
1.999848	-3.002300	3.935300	-11.815000	21.053753	0.000965	20.880712
3.000816	-2.996100	3.931900	-11.779000	21.041301	0.000964	20.877741
4.002440	-2.992200	3.928600	-11.754000	21.029008	0.000965	20.870662
5.000139	-3.018500	3.924400	-11.845000	21.039216	0.000960	20.872811
5.997962	-3.012100	3.920700	-11.808000	21.038268	0.000961	20.882294
7.001510	-2.996200	3.918900	-11.741000	21.049551	0.000960	20.876510
8.003949	-2.983300	3.918300	-11.688000	21.040671	0.000960	20.868577
8.997713	-2.993100	3.915500	-11.719000	21.048017	0.000958	20.875923
9.996990	-3.003000	3.913400	-11.751000	21.078482	0.000958	20.895015
10.997929	-3.008400	3.911000	-11.765000	21.050217	0.000958	20.882391
11.998705	-3.013300	3.908900	-11.778000	21.066095	0.000958	20.886893
12.999774	-3.029800	3.909100	-11.843000	21.055149	0.000956	20.863618
14.002533	-3.001800	3.906800	-11.727000	21.067354	0.000954	20.866343
14.998861	-3.027900	3.904600	-11.823000	21.098116	0.000955	20.885257
15.998182	-2.997700	3.904700	-11.702000	21.088035	0.000954	20.877070
16.998904	-3.009800	3.903800	-11.748000	21.072525	0.000952	20.896643
17.998241	-3.019800	3.902400	-11.783000	21.089421	0.000953	20.896947
18.997938	-2.988700	3.902800	-11.662000	21.091223	0.000950	20.866983
20.002184	-3.021100	3.899700	-11.780000	21.102473	0.000952	20.894355
21.004100	-3.005500	3.901400	-11.725000	21.090882	0.000952	20.888926
22.002494	-2.970800	3.899300	-11.583000	21.105906	0.000950	20.886411
23.005071	-2.989000	3.901000	-11.659000	21.119034	0.000951	20.883421
24.002467	-3.001700	3.897400	-11.698000	21.111280	0.000951	20.886096
25.000700	-2.983800	3.896300	-11.625000	21.135759	0.000949	20.892563
26.002730	-2.996700	3.896100	-11.673000	21.133837	0.000950	20.892064
26.998181	-3.001700	3.896200	-11.694000	21.141953	0.000950	20.897337
28.000366	-2.973200	3.895200	-11.581000	21.148419	0.000948	20.895270
29.002888	-2.975400	3.896100	-11.592000	21.156763	0.000948	20.912150
30.001444	-2.983400	3.893300	-11.614000	21.159177	0.000949	20.910771
31.001751	-2.984500	3.893400	-11.619000	21.165592	0.000946	20.879733
32.003095	-2.995700	3.894500	-11.666000	21.163602	0.000945	20.884380
33.004163	-3.019400	3.891600	-11.749000	21.161619	0.000945	20.905154
34.006248	-3.002600	3.890200	-11.679000	21.178310	0.000946	20.884394
35.006982	-3.003500	3.890200	-11.683000	21.191090	0.000945	20.895755
36.007151	-2.983900	3.890300	-11.608000	21.184979	0.000945	20.903865
37.006042	-2.997400	3.890300	-11.660000	21.196235	0.000943	20.904694
38.004425	-3.006100	3.888800	-11.689000	21.209438	0.000943	20.906522
39.007879	-2.994900	3.888900	-11.647000	21.200338	0.000943	20.886041
40.005805	-2.992700	3.886700	-11.631000	21.221465	0.000943	20.909544
41.006160	-2.992100	3.888800	-11.636000	21.225492	0.000944	20.892237
42.009095	-2.978800	3.887300	-11.579000	21.237721	0.000942	20.909211
43.014644	-2.995300	3.886800	-11.641000	21.246158	0.000943	20.895367
44.007107	-2.998700	3.886100	-11.652000	21.254375	0.000942	20.930610
45.012874	-3.009300	3.886800	-11.695000	21.263431	0.000941	20.948677
46.010342	-2.997300	3.886900	-11.650000	21.256846	0.000941	20.922652
47.008424	-2.999100	3.885400	-11.652000	21.262414	0.000940	20.909732
48.009055	-3.006900	3.885100	-11.681000	21.283496	0.000940	20.917545
49.010854	-3.003000	3.885700	-11.667000	21.280906	0.000941	20.908791
50.009855	-2.992700	3.884500	-11.623000	21.295656	0.000939	20.917383
51.011725	-2.989400	3.884900	-11.613000	21.297357	0.000939	20.925247
52.009983	-3.014700	3.882300	-11.703000	21.309484	0.000940	20.937378
53.012068	-2.987800	3.884600	-11.605000	21.316897	0.000939	20.933889
54.011796	-2.991200	3.882400	-11.612000	21.324107	0.000939	20.932094
55.010595	-3.010500	3.883900	-11.691000	21.323344	0.000939	20.930856
56.009986	-2.993200	3.882800	-11.621000	21.330833	0.000940	20.945459
57.013381	-2.977700	3.883400	-11.563000	21.339396	0.000938	20.915149
58.014454	-2.991200	3.880300	-11.605000	21.362441	0.000938	20.941996
59.012086	-3.011600	3.879900	-11.683000	21.358285	0.000938	20.908443
60.011023	-3.007300	3.879300	-11.665000	21.375574	0.000937	20.915309
61.017231	-2.994800	3.881000	-11.622000	21.347164	0.000938	20.928135
62.018222	-2.983100	3.881400	-11.578000	21.381496	0.000939	20.929767
63.015854	-2.991300	3.881500	-11.610000	21.361389	0.000939	20.913445
64.018909	-2.988100	3.878700	-11.589000	21.385168	0.000938	20.917321
65.016489	-3.016800	3.878600	-11.700000	21.402261	0.000938	20.932999
66.015869	-3.006600	3.877200	-11.656000	21.409825	0.000938	20.925869
67.017188	-3.003200	3.877900	-11.645000	21.408259	0.000936	20.932362
68.017758	-2.977600	3.878600	-11.548000	21.390869	0.000936	20.950048
69.016736	-3.003300	3.876500	-11.640000	21.426495	0.000936	20.944917
70.017212	-2.976600	3.877900	-11.541000	21.435405	0.000935	20.932496
71.016131	-3.002900	3.877700	-11.643000	21.426882	0.000937	20.941511
72.019379	-2.992400	3.877300	-11.601000	21.436733	0.000935	20.944728
73.015757	-3.001800	3.876700	-11.636000	21.433973	0.000937	20.957138
74.021335	-2.989100	3.877900	-11.591000	21.457294	0.000937	20.931638
75.018450	-2.997300	3.876900	-11.619000	21.437247	0.000936	20.943346
76.015245	-3.007900	3.876100	-11.657000	21.472745	0.000936	20.935717
77.017591	-3.002700	3.876300	-11.639000	21.473819	0.000935	20.945800
78.020166	-3.006900	3.874300	-11.649000	21.476543	0.000936	20.940465
79.017663	-2.979100	3.875500	-11.545000	21.475053	0.000935	20.960309
80.017930	-2.996000	3.877000	-11.613000	21.482819	0.000935	20.939633
81.019270	-2.996800	3.873400	-11.607000	21.491848	0.000935	20.944399
82.017032	-3.018600	3.873700	-11.691000	21.528013	0.000936	20.950241
83.020112	-2.996100	3.874200	-11.606000	21.514203	0.000936	20.935475
84.018834	-3.009200	3.874700	-11.658000	21.492380	0.000935	20.952991
85.019275	-2.994400	3.873500	-11.598000	21.528672	0.000938	20.958011
86.019629	-3.020400	3.871900	-11.693000	21.538232	0.000933	20.955250
87.019104	-3.009500	3.871900	-11.650000	21.529949	0.000935	20.955496
88.023035	-3.000900	3.873300	-11.622000	21.544052	0.000935	20.976717
89.019362	-3.010100	3.871900	-11.654000	21.549475	0.000937	20.971713
90.018519	-2.978900	3.873700	-11.538000	21.571441	0.000935	20.970934
91.017523	-2.973000	3.875300	-11.520000	21.562547	0.000935	20.948287
92.020461	-3.046200	3.870500	-11.788000	21.556658	0.000936	20.952825
93.017509	-3.000100	3.870900	-11.613000	21.586796	0.000935	20.950267
94.017626	-2.992800	3.873000	-11.590000	21.587642	0.000935	20.954432
95.018818	-3.002700	3.871500	-11.623000	21.579146	0.000935	20.974850
96.019919	-3.001200	3.871600	-11.618000	21.585458	0.000935	20.967417
97.019787	-3.004700	3.871300	-11.631000	21.599282	0.000935	20.967026
98.020723	-3.026200	3.868700	-11.706000	21.608089	0.000933	20.986268
99.019490	-3.013400	3.870200	-11.661000	21.616448	0.000934	20.960498
100.025017	-2.990500	3.870900	-11.575000	21.636594	0.000936	20.960270
101.021406	-3.008900	3.869200	-11.641000	21.654378	0.000935	20.965264
102.019724	-2.984600	3.871200	-11.553000	21.636348	0.000936	20.978039
103.022076	-3.034800	3.868600	-11.740000	21.641796	0.000934	20.960259
104.025039	-3.004700	3.869200	-11.626000	21.664292	0.000935	20.961910
105.020411	-2.985900	3.869900	-11.554000	21.671298	0.000937	20.985512
106.019824	-3.015800	3.869800	-11.669000	21.672093	0.000936	20.975405
107.022915	-2.995300	3.869500	-11.588000	21.680806	0.000934	20.977960
108.022714	-3.009000	3.869000	-11.641000	21.700181	0.000934	20.961316
109.020576	-3.033600	3.866200	-11.727000	21.691559	0.000937	20.977815
110.023499	-3.022100	3.869300	-11.693000	21.686796	0.000936	20.996753
111.018760	-3.009400	3.868100	-11.639000	21.703107	0.000935	20.992215
112.019569	-2.998200	3.868200	-11.596000	21.705255	0.000936	20.965446
113.020405	-3.006400	3.867300	-11.624000	21.726897	0.000937	20.974301
114.019857	-3.002500	3.867200	-11.610000	21.722192	0.000937	20.980497
115.020526	-2.988800	3.867800	-11.559000	21.739501	0.000938	20.976958
116.023487	-2.989000	3.866600	-11.556000	21.742318	0.000936	20.972192
117.023632	-2.994700	3.866600	-11.578000	21.748036	0.000936	20.962743
118.021507	-3.003000	3.868100	-11.615000	21.751005	0.000937	20.992262
119.024840	-3.014600	3.865900	-11.653000	21.758011	0.000936	20.972250
120.024001	-3.012200	3.867000	-11.647000	21.763830	0.000938	20.980917
121.024125	-2.988700	3.866900	-11.555000	21.765750	0.000937	20.975254
122.028630	-2.974700	3.866700	-11.501000	21.781138	0.000938	20.983541
123.026617	-2.998200	3.864300	-11.584000	21.780064	0.000937	20.989577
124.024869	-2.977800	3.866400	-11.512000	21.778599	0.000937	20.982423
125.032922	-2.993500	3.865100	-11.568000	21.794978	0.000939	20.980798
126.026103	-3.004700	3.865500	-11.613000	21.799122	0.000938	20.982101
127.028030	-3.006700	3.865600	-11.621000	21.809299	0.000937	20.991337
128.029320	-3.018700	3.864100	-11.663000	21.779428	0.000938	20.978511
129.030397	-2.999100	3.864100	-11.587000	21.803639	0.000938	20.985673
130.029507	-2.992600	3.864100	-11.563000	21.804865	0.000940	21.002544
131.029887	-3.010700	3.862800	-11.628000	21.816937	0.000939	20.994713
132.033420	-2.989700	3.864100	-11.550000	21.825030	0.000939	20.984324
133.027683	-2.999600	3.864000	-11.589000	21.865915	0.000940	20.998216
134.029535	-3.008700	3.862300	-11.619000	21.860679	0.000938	21.006250
135.034296	-3.007100	3.862900	-11.615000	21.863673	0.000940	20.991706
136.029839	-3.002500	3.862600	-11.596000	21.875068	0.000939	20.968976
137.033698	-3.000500	3.861800	-11.586000	21.880734	0.000939	20.982232
138.030546	-3.013500	3.862600	-11.639000	21.889431	0.000942	20.989513
139.032011	-3.008700	3.862900	-11.622000	21.883128	0.000941	20.988894
140.034321	-3.000400	3.862600	-11.589000	21.874110	0.000940	21.000728
141.032063	-3.005800	3.861700	-11.607000	21.882644	0.000940	20.981773
142.032474	-2.997800	3.862700	-11.579000	21.881486	0.000941	20.992941
143.034578	-2.986200	3.862000	-11.532000	21.864567	0.000940	20.967474
144.031393	-2.984000	3.862400	-11.524000	21.892726	0.000940	20.971003
145.034233	-3.007400	3.861600	-11.612000	21.906539	0.000940	20.987198
146.033884	-3.003100	3.861000	-11.594000	21.906412	0.000942	20.974271
147.033629	-2.995500	3.862300	-11.568000	21.915471	0.000943	20.977174
148.033991	-2.979500	3.862200	-11.505000	21.927989	0.000942	20.992547
149.032849	-2.999800	3.861800	-11.583000	21.939528	0.000944	20.954316
150.032610	-3.006000	3.860300	-11.603000	21.940508	0.000941	20.974735
151.032948	-3.010300	3.860500	-11.619000	21.938891	0.000943	20.970273
152.037381	-3.007600	3.860500	-11.610000	21.946716	0.000943	20.964356
153.044816	-3.008900	3.859800	-11.613000	21.957694	0.000945	20.955906
154.034214	-3.028000	3.859000	-11.684000	21.951511	0.000943	20.981481
155.032175	-3.009000	3.859900	-11.613000	21.984524	0.000943	20.948624
156.034418	-2.996300	3.859700	-11.564000	22.002447	0.000945	20.964667
157.032835	-3.018000	3.857800	-11.640000	21.968571	0.000945	20.971533
158.032336	-3.012200	3.858000	-11.619000	21.986357	0.000944	20.944770
159.035583	-3.005500	3.858000	-11.594000	22.006801	0.000945	20.961440
160.034667	-2.989100	3.859600	-11.535000	22.009516	0.000945	20.971269
161.037735	-2.983300	3.859100	-11.511000	22.002419	0.000944	20.972224
162.037498	-2.995300	3.858800	-11.557000	22.016451	0.000947	20.960195
163.035850	-2.997800	3.858000	-11.564000	21.981527	0.000947	20.950366
164.033708	-3.014700	3.858700	-11.631000	21.994815	0.000946	20.968406
165.041759	-3.002800	3.856900	-11.581000	22.008161	0.000947	20.942415
166.038967	-3.012500	3.856400	-11.616000	22.010106	0.000948	20.946258
167.039792	-2.992600	3.858100	-11.544000	22.009386	0.000948	20.949805
168.040016	-3.004700	3.856000	-11.585000	22.050044	0.000948	20.938825
169.035994	-3.006100	3.856500	-11.592000	22.045460	0.000948	20.934236
170.036735	-2.990400	3.856600	-11.532000	22.064944	0.000948	20.952791
171.039441	-3.029500	3.854900	-11.675000	22.056936	0.000949	20.954731
172.038095	-3.008100	3.855300	-11.596000	22.053331	0.000949	20.958235
173.035683	-3.009900	3.855200	-11.603000	22.073477	0.000948	20.933835
174.039141	-2.989900	3.856300	-11.528000	22.072429	0.000949	20.946060
175.044709	-2.987300	3.854600	-11.514000	22.084819	0.000950	20.946136
176.040917	-3.009600	3.854000	-11.597000	22.089834	0.000950	20.942622
177.040800	-3.004600	3.854400	-11.580000	22.069399	0.000950	20.944924
178.043194	-3.000500	3.854900	-11.566000	22.081688	0.000951	20.945373
179.040640	-3.010200	3.854100	-11.601000	22.071851	0.000951	20.951645
180.047735	-3.012700	3.854200	-11.610000	22.076070	0.000951	20.956343
181.040463	-3.003500	3.853300	-11.572000	22.091903	0.000952	20.934738
182.045347	-2.997000	3.853100	-11.547000	22.118357	0.000952	20.926609
183.040995	-2.998200	3.852700	-11.551000	22.114178	0.000953	20.942338
184.042598	-3.012200	3.853600	-11.607000	22.103140	0.000955	20.945038
185.046996	-2.983700	3.852900	-11.495000	22.102395	0.000954	20.938604
186.039907	-2.992000	3.853900	-11.530000	22.110649	0.000953	20.938332
187.044890	-2.977900	3.854600	-11.478000	22.086791	0.000953	20.946689
188.040606	-2.996600	3.853500	-11.546000	22.079254	0.000955	20.940566
189.039667	-3.003300	3.852100	-11.568000	22.100321	0.000957	20.942216
190.041557	-2.998300	3.852000	-11.548000	22.124457	0.000953	20.928924
191.045512	-2.997800	3.852900	-11.549000	22.106706	0.000955	20.937229
192.042719	-3.002100	3.850600	-11.559000	22.126952	0.000954	20.915776
193.042101	-3.007800	3.852900	-11.588000	22.135824	0.000955	20.929398
194.048062	-3.019100	3.850200	-11.622000	22.153651	0.000956	20.936339
195.047474	-2.991500	3.851900	-11.521000	22.172754	0.000958	20.926543
196.043021	-3.008200	3.852400	-11.587000	22.173785	0.000957	20.935160
197.048007	-2.964100	3.853000	-11.419000	22.183672	0.000958	20.929413
198.048358	-2.994100	3.852100	-11.532000	22.174013	0.000959	20.912158
199.044961	-3.002500	3.850200	-11.559000	22.181912	0.000958	20.941874
200.054077	-2.978900	3.851000	-11.471000	22.192533	0.000959	20.929750
201.053114	-3.004300	3.850000	-11.566000	22.202012	0.000958	20.932128
202.046264	-2.981900	3.849200	-11.477000	22.223551	0.000960	20.920978
203.048867	-3.017200	3.848800	-11.612000	22.220117	0.000961	20.930341
204.047781	-2.990200	3.849200	-11.509000	22.226501	0.000960	20.929621
205.049333	-3.026000	3.848100	-11.643000	22.238846	0.000960	20.917327
206.051389	-3.005500	3.849700	-11.569000	22.251506	0.000961	20.920519
207.059164	-3.026900	3.847800	-11.646000	22.266591	0.000962	20.918554
208.058683	-2.995800	3.848100	-11.526000	22.255548	0.000963	20.916506
209.053458	-3.011700	3.848400	-11.588000	22.291646	0.000961	20.925623
210.053359	-3.015700	3.847200	-11.601000	22.283256	0.000963	20.927653
211.056537	-2.975200	3.849600	-11.453000	22.296262	0.000962	20.922185
212.054253	-3.012500	3.847700	-11.591000	22.308260	0.000965	20.932775
213.056797	-2.996000	3.848600	-11.529000	22.291094	0.000962	20.926492
214.054658	-2.996500	3.848800	-11.532000	22.269192	0.000963	20.925899
215.055586	-2.991000	3.847300	-11.506000	22.290180	0.000966	20.926525
216.052160	-2.983600	3.848000	-11.480000	22.300851	0.000965	20.899281
217.053175	-3.008800	3.845500	-11.570000	22.302026	0.000966	20.905198
218.055030	-2.984300	3.847200	-11.481000	22.307513	0.000966	20.926338
219.058360	-2.996600	3.847100	-11.528000	22.330022	0.000969	20.922324
220.054458	-2.992700	3.848000	-11.515000	22.329895	0.000967	20.925516
221.058516	-2.982000	3.847400	-11.472000	22.339695	0.000966	20.927268
222.056094	-3.009000	3.844900	-11.568000	22.328161	0.000967	20.907660
223.057509	-2.993300	3.846200	-11.510000	22.333522	0.000968	20.916820
224.055882	-3.013500	3.844700	-11.584000	22.331205	0.000968	20.925879
225.057351	-3.016500	3.844700	-11.596000	22.342678	0.000968	20.904179
226.069198	-3.002200	3.844900	-11.542000	22.344478	0.000968	20.905982
227.066973	-3.015400	3.846000	-11.597000	22.340014	0.000970	20.894874
228.059089	-2.993900	3.845000	-11.510000	22.356587	0.000969	20.892030
229.071018	-2.986400	3.845500	-11.483000	22.371375	0.000970	20.923430
230.059946	-2.994700	3.845300	-11.515000	22.364297	0.000973	20.914922
231.063988	-3.019700	3.843700	-11.605000	22.364746	0.000972	20.909681
232.065934	-2.977500	3.846500	-11.452000	22.366224	0.000971	20.906421
233.060726	-2.992100	3.842900	-11.497000	22.388656	0.000974	20.894745
234.065241	-2.995600	3.844000	-11.514000	22.374401	0.000972	20.915555
235.066041	-3.003600	3.845300	-11.548000	22.382035	0.000974	20.908502
236.062698	-2.984700	3.844800	-11.473000	22.371144	0.000972	20.902813
237.060397	-3.000300	3.843400	-11.531000	22.404745	0.000976	20.916070
238.064740	-2.990900	3.842900	-11.492000	22.402648	0.000975	20.907334
239.069793	-2.985300	3.842700	-11.471000	22.424885	0.000976	20.900204
240.064640	-2.976900	3.842600	-11.438000	22.419000	0.000977	20.902372
241.067788	-2.988000	3.842700	-11.481000	22.443079	0.000975	20.904200
242.068668	-3.007400	3.842700	-11.555000	22.442682	0.000976	20.909965
243.060584	-2.993000	3.841400	-11.497000	22.452405	0.000976	20.915908
244.067928	-3.009800	3.842000	-11.562000	22.427903	0.000978	20.885210
245.077612	-2.992000	3.840800	-11.491000	22.423809	0.000979	20.911928
246.060589	-3.006200	3.841800	-11.549000	22.425829	0.000978	20.903521
247.063217	-3.012500	3.838500	-11.562000	22.403203	0.000977	20.896510
248.062995	-3.005200	3.840500	-11.541000	22.453992	0.000979	20.922713
249.069826	-3.003800	3.840400	-11.535000	22.433691	0.000978	20.899066
250.067084	-2.977000	3.840800	-11.433000	22.439398	0.000978	20.909522
251.083854	-2.993400	3.840700	-11.495000	22.452131	0.000980	20.899515
252.078193	-3.010100	3.840100	-11.557000	22.477131	0.000982	20.905585
253.075990	-2.988400	3.840500	-11.475000	22.474037	0.000982	20.898694
254.064565	-2.990800	3.838400	-11.478000	22.477461	0.000983	20.891691
255.063871	-2.981700	3.839300	-11.448000	22.480623	0.000982	20.901969
256.063558	-3.009000	3.838500	-11.549000	22.501159	0.000982	20.891242
257.065733	-2.983000	3.839300	-11.452000	22.523486	0.000983	20.923084
258.064055	-3.011100	3.837400	-11.554000	22.500143	0.000985	20.895441
259.063699	-2.982100	3.838700	-11.446000	22.514423	0.000984	20.895517
260.068140	-3.011100	3.837600	-11.555000	22.507253	0.000987	20.919628
261.076274	-3.000600	3.838900	-11.518000	22.507904	0.000986	20.912220
262.070148	-2.986100	3.838000	-11.460000	22.522183	0.000985	20.899021
263.079248	-3.005800	3.837400	-11.533000	22.523282	0.000987	20.895854
264.068373	-2.991900	3.836800	-11.478000	22.514565	0.000987	20.879065
265.069906	-2.995000	3.837400	-11.491000	22.522841	0.000986	20.892095
266.073348	-2.991200	3.838400	-11.481000	22.536181	0.000989	20.865628
267.078343	-3.004000	3.837000	-11.525000	22.548559	0.000988	20.905522
268.079787	-3.014800	3.837600	-11.568000	22.538346	0.000989	20.885338
269.070942	-2.997900	3.836100	-11.499000	22.564739	0.000988	20.878581
270.078657	-3.015600	3.836200	-11.567000	22.562017	0.000988	20.886286
271.074748	-2.998200	3.835900	-11.499000	22.550045	0.000991	20.896106
272.071534	-3.000400	3.835100	-11.506000	22.552108	0.000990	20.872096
273.080269	-2.989300	3.836200	-11.466000	22.588071	0.000990	20.886302
274.077310	-2.985200	3.835300	-11.449000	22.588866	0.000990	20.881882
275.073702	-3.004700	3.836400	-11.525000	22.594055	0.000991	20.870486
276.076702	-3.006300	3.835200	-11.527000	22.592382	0.000991	20.867862
277.073194	-2.987400	3.834600	-11.455000	22.588949	0.000991	20.912310
278.074402	-2.987800	3.835300	-11.456000	22.600167	0.000995	20.883718
279.074215	-2.999100	3.834300	-11.498000	22.611308	0.000994	20.870222
280.074905	-2.998000	3.834400	-11.494000	22.576471	0.000994	20.865202
281.092084	-3.015300	3.834300	-11.561000	22.609787	0.000994	20.885767
282.086323	-2.982500	3.834300	-11.434000	22.575760	0.000994	20.882033
283.078099	-3.029600	3.833400	-11.612000	22.601519	0.000995	20.870375
284.087171	-3.007700	3.833200	-11.528000	22.631098	0.000998	20.885775
285.079575	-2.997400	3.832400	-11.486000	22.624004	0.000995	20.863499
286.078226	-3.012700	3.832100	-11.544000	22.627589	0.000997	20.854762
287.080681	-2.978500	3.832900	-11.415000	22.610106	0.001000	20.896992
288.080894	-3.006500	3.832100	-11.520000	22.612625	0.000996	20.860162
289.080176	-2.980300	3.833200	-11.423000	22.608821	0.001000	20.867257
290.088559	-2.981600	3.831200	-11.422000	22.657175	0.000998	20.872066
291.095887	-3.016900	3.831000	-11.557000	22.643768	0.001000	20.888034
292.083539	-3.005100	3.829900	-11.508000	22.661367	0.001000	20.864412
293.102376	-2.981000	3.831800	-11.421000	22.636751	0.001000	20.878161
294.101894	-2.990600	3.830800	-11.455000	22.627790	0.001000	20.898582
295.107699	-3.010300	3.830500	-11.530000	22.625245	0.001000	20.874224
296.104583	-3.002600	3.829900	-11.499000	22.636767	0.001001	20.872962
297.105828	-3.019900	3.830000	-11.565000	22.648229	0.001003	20.871167
298.104629	-3.000500	3.831300	-11.495000	22.663555	0.001002	20.867551
299.107038	-3.016700	3.829500	-11.551000	22.668288	0.001002	20.864706
300.102373	-2.981600	3.831600	-11.423000	22.676412	0.001004	20.889437
301.097542	-2.987700	3.830400	-11.443000	22.710925	0.001003	20.867584
302.095518	-2.979600	3.828500	-11.407000	22.697248	0.001005	20.880436
303.086439	-2.970400	3.830300	-11.376000	22.718744	0.001005	20.879209
304.098338	-2.990400	3.830100	-11.451000	22.725396	0.001006	20.881605
305.085450	-2.975200	3.830800	-11.396000	22.722911	0.001005	20.886701
306.100100	-2.969700	3.828600	-11.369000	22.704306	0.001009	20.874704
307.086475	-2.976400	3.828600	-11.395000	22.715633	0.001005	20.871826
308.107313	-3.034400	3.825800	-11.608000	22.708194	0.001005	20.859634
309.091787	-2.968700	3.828900	-11.366000	22.713679	0.001008	20.850904
310.106279	-3.004100	3.827200	-11.496000	22.704584	0.001010	20.855070
311.094439	-2.997900	3.828900	-11.478000	22.708556	0.001007	20.850514
312.091253	-3.016900	3.826600	-11.543000	22.722377	0.001010	20.891856
313.090102	-2.995900	3.826800	-11.464000	22.740516	0.001011	20.863561
314.090230	-3.022600	3.824800	-11.559000	22.749416	0.001012	20.869631
315.102633	-2.981900	3.827300	-11.412000	22.768401	0.001010	20.867785
316.108434	-3.015900	3.826100	-11.538000	22.758612	0.001010	20.872205
317.089211	-2.999000	3.826100	-11.473000	22.770345	0.001012	20.850293
318.109136	-2.996400	3.825400	-11.461000	22.765120	0.001012	20.850276
319.118640	-2.999600	3.824900	-11.472000	22.744471	0.001013	20.866100
320.106599	-3.001100	3.824900	-11.478000	22.710812	0.001012	20.871264
321.107053	-2.981500	3.825700	-11.406000	22.750151	0.001014	20.837652
322.108586	-3.002200	3.824500	-11.482000	22.742053	0.001014	20.839023
323.117637	-2.986500	3.824900	-11.421000	22.746000	0.001015	20.848666
324.109283	-2.991600	3.824900	-11.441000	22.753877	0.001015	20.847548
325.108187	-2.979800	3.825100	-11.397000	22.767756	0.001015	20.849597
326.114202	-2.996100	3.824400	-11.456000	22.803873	0.001014	20.854957
327.110216	-3.003200	3.823800	-11.482000	22.792141	0.001015	20.841782
328.116800	-3.007300	3.823500	-11.498000	22.814648	0.001017	20.854846
329.119834	-3.021100	3.822200	-11.546000	22.829346	0.001016	20.840173
330.117744	-2.999900	3.822400	-11.467000	22.843351	0.001017	20.836185
331.114286	-2.999600	3.821900	-11.463000	22.820083	0.001018	20.856970
332.112194	-3.000500	3.821300	-11.464000	22.836074	0.001019	20.845964
333.114448	-3.008300	3.821600	-11.495000	22.828932	0.001019	20.847343
334.097751	-2.990200	3.823200	-11.430000	22.821536	0.001020	20.844202
335.117093	-2.989800	3.821200	-11.424000	22.796974	0.001019	20.854210
336.111630	-2.983400	3.822600	-11.403000	22.835743	0.001022	20.852744
337.115258	-2.998100	3.821600	-11.456000	22.851658	0.001021	20.859679
338.124583	-3.011900	3.821000	-11.507000	22.855807	0.001021	20.849137
339.115115	-2.996000	3.820700	-11.446000	22.836072	0.001022	20.866824
340.115237	-3.000400	3.820300	-11.462000	22.852714	0.001021	20.839874
341.116485	-3.013500	3.820400	-11.512000	22.856043	0.001021	20.831356
342.105172	-3.006500	3.819900	-11.484000	22.846974	0.001023	20.847400
343.098665	-2.997800	3.820100	-11.451000	22.833848	0.001023	20.836622
344.100542	-3.004500	3.819200	-11.473000	22.837820	0.001023	20.844868
345.104842	-3.001800	3.819600	-11.465000	22.852636	0.001025	20.838848
346.099493	-3.017600	3.818300	-11.522000	22.881854	0.001024	20.839196
347.121873	-3.003200	3.820500	-11.473000	22.876309	0.001025	20.828425
348.101248	-2.991400	3.818700	-11.423000	22.865203	0.001025	20.835317
349.122558	-3.017600	3.817500	-11.518000	22.875345	0.001024	20.822244
350.114614	-3.005500	3.816700	-11.470000	22.902795	0.001026	20.831727
351.130604	-3.006700	3.817500	-11.476000	22.903074	0.001026	20.835325
352.120651	-2.986300	3.818400	-11.401000	22.903758	0.001027	20.840751
353.118359	-3.008200	3.816800	-11.479000	22.928520	0.001027	20.837584
354.121554	-3.003600	3.818000	-11.465000	22.934376	0.001026	20.828753
355.119172	-2.990800	3.816400	-11.413000	22.961876	0.001028	20.845873
356.105578	-2.985800	3.818100	-11.399000	22.976825	0.001028	20.830031
357.137048	-3.023700	3.815800	-11.537000	22.973318	0.001029	20.841216
358.128179	-3.005700	3.816800	-11.471000	22.980315	0.001029	20.833054
359.122040	-3.024300	3.816300	-11.541000	22.989965	0.001029	20.837507
360.120509	-2.999300	3.815400	-11.442000	23.013754	0.001030	20.839530
361.124971	-2.993500	3.816600	-11.424000	23.003748	0.001031	20.829979
362.127170	-2.985500	3.816400	-11.393000	22.982579	0.001031	20.822520
363.107146	-3.000600	3.814700	-11.445000	23.005573	0.001031	20.834652
364.105995	-2.986400	3.814700	-11.391000	23.004153	0.001033	20.837023
365.106285	-2.996500	3.813800	-11.426000	22.983558	0.001031	20.823501
366.109004	-2.985200	3.814400	-11.386000	23.004161	0.001034	20.839876
367.130679	-2.968900	3.816100	-11.328000	23.019203	0.001032	20.842619
368.125556	-3.011200	3.812500	-11.479000	23.032605	0.001034	20.830444
369.133406	-3.002100	3.814100	-11.450000	23.024619	0.001033	20.843778
370.124066	-2.971300	3.814300	-11.332000	23.014031	0.001036	20.820368
371.127959	-2.974000	3.814300	-11.342000	22.995236	0.001036	20.835675
372.131368	-3.001600	3.811400	-11.439000	22.981942	0.001034	20.833736
373.139474	-2.999200	3.812700	-11.434000	23.016362	0.001035	20.858738
374.125026	-3.003700	3.810900	-11.446000	22.994948	0.001036	20.816421
375.129593	-2.989600	3.812200	-11.396000	23.008604	0.001037	20.841008
376.135215	-3.009100	3.810200	-11.464000	23.048388	0.001036	20.817808
377.126008	-2.978000	3.812200	-11.352000	23.043504	0.001036	20.829984
378.126453	-2.976100	3.812700	-11.346000	23.047044	0.001038	20.842540
379.112685	-2.993100	3.811600	-11.407000	23.058807	0.001038	20.840575
380.109571	-2.988000	3.811800	-11.389000	23.045142	0.001038	20.813134
381.108413	-3.006500	3.809700	-11.453000	23.040832	0.001039	20.841531
382.111575	-2.991000	3.809700	-11.394000	23.039970	0.001039	20.838296
383.132624	-2.981500	3.809200	-11.356000	23.014492	0.001039	20.843114
384.130279	-3.000300	3.809100	-11.428000	23.003412	0.001039	20.836755
385.132746	-2.987100	3.810500	-11.381000	22.998984	0.001039	20.827577
386.132800	-2.994500	3.808600	-11.404000	23.010714	0.001041	20.831268
387.119405	-2.988900	3.808700	-11.384000	23.014955	0.001041	20.847846
388.117282	-2.995400	3.807900	-11.405000	23.026076	0.001040	20.844289
389.118067	-3.018600	3.809000	-11.497000	23.044709	0.001043	20.865803
390.112718	-3.008600	3.807900	-11.456000	23.052956	0.001041	20.833765
391.117530	-3.017600	3.808200	-11.490000	23.066679	0.001042	20.833290
392.117560	-3.000100	3.806700	-11.420000	23.064541	0.001042	20.829252
393.119136	-3.013300	3.807200	-11.472000	23.059361	0.001044	20.853932
394.116949	-2.982000	3.807100	-11.352000	23.072644	0.001046	20.850172
395.133794	-2.989700	3.807800	-11.383000	23.101636	0.001043	20.821377
396.141291	-2.987600	3.805700	-11.368000	23.088082	0.001045	20.840986
397.131736	-3.001400	3.805900	-11.422000	23.114572	0.001045	20.821063
398.139675	-2.972300	3.808000	-11.318000	23.138730	0.001045	20.842425
399.134222	-2.994900	3.807500	-11.402000	23.135198	0.001044	20.836989
400.142857	-2.984200	3.805300	-11.354000	23.172738	0.001046	20.841416
401.138400	-2.993100	3.807200	-11.395000	23.169621	0.001047	20.848723
402.128075	-3.012800	3.803500	-11.459000	23.155949	0.001045	20.832653
403.119931	-3.007400	3.805500	-11.444000	23.177369	0.001048	20.845582
404.117758	-3.005700	3.804400	-11.434000	23.167779	0.001048	20.846403
405.118216	-3.016000	3.804200	-11.472000	23.188057	0.001048	20.865300
406.119874	-3.012200	3.803200	-11.456000	23.189408	0.001048	20.819241
407.128465	-2.997700	3.804800	-11.404000	23.186400	0.001047	20.823339
408.138849	-3.004100	3.805100	-11.430000	23.214012	0.001047	20.838207
409.141135	-2.982600	3.805000	-11.347000	23.229017	0.001048	20.836648
410.140895	-2.989600	3.803800	-11.371000	23.220695	0.001049	20.851541
411.140055	-2.995800	3.802800	-11.391000	23.220728	0.001049	20.835454
412.141225	-2.984100	3.803400	-11.348000	23.217771	0.001051	20.848611
413.139603	-2.983500	3.802100	-11.343000	23.255791	0.001050	20.829815
414.135694	-2.998000	3.801700	-11.396000	23.227732	0.001051	20.836309
415.125249	-3.020800	3.801300	-11.482000	23.213766	0.001050	20.828951
416.119835	-2.996100	3.801000	-11.387000	23.209760	0.001051	20.842955
417.129547	-2.999800	3.800500	-11.400000	23.226599	0.001051	20.855087
418.120596	-2.995800	3.800600	-11.384000	23.228112	0.001051	20.844276
419.120282	-3.006200	3.800600	-11.423000	23.227841	0.001053	20.834522
420.120714	-3.002000	3.799800	-11.405000	23.246428	0.001053	20.860734
421.124828	-2.999200	3.800800	-11.398000	23.210672	0.001052	20.849084
422.143324	-2.978400	3.799900	-11.316000	23.228753	0.001055	20.851082
423.137223	-2.996100	3.798600	-11.378000	23.208932	0.001055	20.874839
424.138883	-2.986000	3.799600	-11.345000	23.224933	0.001053	20.870961
425.120388	-2.983200	3.799500	-11.333000	23.207123	0.001055	20.861174
426.123870	-3.006800	3.799100	-11.421000	23.213206	0.001056	20.859683
427.142123	-3.019800	3.796400	-11.464000	23.228177	0.001055	20.859514
428.144139	-2.976200	3.798600	-11.304000	23.221199	0.001055	20.876701
429.127050	-2.999500	3.797000	-11.388000	23.270362	0.001056	20.865279
430.141527	-3.002400	3.796900	-11.399000	23.259134	0.001057	20.877733
431.151134	-2.994500	3.797300	-11.370000	23.257055	0.001056	20.866642
432.140886	-3.011300	3.795700	-11.429000	23.299230	0.001055	20.865762
433.138927	-2.993600	3.797200	-11.366000	23.299585	0.001057	20.861376
434.126584	-3.002400	3.795200	-11.394000	23.285053	0.001058	20.854873
435.123619	-3.004300	3.795700	-11.403000	23.286270	0.001057	20.841394
436.122947	-3.009300	3.795800	-11.422000	23.295216	0.001057	20.860317
437.123986	-3.022500	3.794500	-11.467000	23.290814	0.001056	20.863491
438.131595	-3.011400	3.796300	-11.431000	23.275363	0.001060	20.853696
439.145026	-3.000500	3.795600	-11.388000	23.267834	0.001059	20.852789
440.146879	-3.007900	3.795000	-11.413000	23.271315	0.001059	20.860071
441.141545	-3.008200	3.793100	-11.409000	23.258101	0.001058	20.886181
442.152656	-3.023800	3.794200	-11.472000	23.286928	0.001058	20.854381
443.148158	-2.996800	3.794300	-11.370000	23.298739	0.001058	20.865269
444.127123	-3.010500	3.792700	-11.417000	23.296373	0.001061	20.866217
445.133215	-3.018400	3.793300	-11.449000	23.289606	0.001059	20.858961
446.125508	-2.996100	3.792800	-11.363000	23.306511	0.001059	20.852671
447.158296	-3.004500	3.791800	-11.391000	23.320341	0.001060	20.862263
448.126968	-2.998500	3.792600	-11.370000	23.317950	0.001061	20.873142
449.127112	-2.983600	3.794100	-11.318000	23.361246	0.001061	20.863905
450.129527	-2.999700	3.791900	-11.372000	23.374552	0.001061	20.872024
451.130036	-3.005300	3.792100	-11.395000	23.382189	0.001061	20.886316
452.128047	-3.002900	3.790000	-11.381000	23.373512	0.001062	20.878095
453.133071	-2.989600	3.791100	-11.333000	23.400553	0.001064	20.879119
454.132528	-2.997800	3.791600	-11.366000	23.374754	0.001062	20.863693
455.134286	-3.003900	3.790900	-11.386000	23.392089	0.001063	20.877747
456.133891	-2.999400	3.791600	-11.372000	23.388347	0.001063	20.873049
457.132610	-2.988000	3.791300	-11.327000	23.366289	0.001063	20.886028
458.134884	-2.995500	3.791300	-11.356000	23.388904	0.001065	20.881193
459.158591	-3.024000	3.789100	-11.458000	23.404397	0.001063	20.905728
460.156334	-2.995200	3.789000	-11.345000	23.395712	0.001065	20.888017
461.147579	-2.999800	3.788900	-11.364000	23.392907	0.001065	20.888050
462.152062	-2.980000	3.789700	-11.292000	23.362977	0.001065	20.881760
463.149106	-3.000900	3.787700	-11.364000	23.364793	0.001066	20.870305
464.152969	-2.969300	3.790200	-11.253000	23.391607	0.001066	20.878212
465.152462	-3.003200	3.787400	-11.373000	23.417735	0.001064	20.884011
466.147742	-3.008300	3.787400	-11.392000	23.427027	0.001067	20.875308
467.162453	-2.987500	3.787500	-11.315000	23.446202	0.001066	20.886466
468.153104	-2.994200	3.787400	-11.340000	23.463198	0.001067	20.880269
469.157260	-3.009100	3.787300	-11.396000	23.460275	0.001068	20.888718
470.138939	-2.996600	3.786100	-11.344000	23.495102	0.001067	20.908453
471.161497	-3.002500	3.785400	-11.365000	23.497594	0.001067	20.886297
472.156559	-3.012600	3.785400	-11.402000	23.484982	0.001065	20.877923
473.157081	-3.015500	3.784900	-11.411000	23.464498	0.001066	20.886313
474.157147	-2.990600	3.786100	-11.321000	23.451126	0.001068	20.890927
475.156006	-3.021600	3.783900	-11.432000	23.431748	0.001067	20.894737
476.158216	-3.001900	3.783700	-11.357000	23.410494	0.001066	20.886237
477.157203	-2.999800	3.784900	-11.354000	23.394815	0.001068	20.903237
478.150955	-3.005300	3.784800	-11.373000	23.395592	0.001068	20.874146
479.151177	-2.984200	3.783600	-11.290000	23.386012	0.001070	20.906268
480.149802	-3.002600	3.784600	-11.362000	23.385885	0.001068	20.902348
481.152126	-2.996200	3.782500	-11.332000	23.405779	0.001069	20.902373
482.150939	-2.990400	3.783300	-11.313000	23.406379	0.001068	20.911034
483.159134	-2.997500	3.781600	-11.333000	23.409851	0.001069	20.900290
484.160504	-3.001700	3.781900	-11.351000	23.436190	0.001068	20.892552
485.158118	-3.004800	3.781500	-11.361000	23.468754	0.001071	20.912862
486.144197	-3.008700	3.780600	-11.373000	23.489348	0.001068	20.912168
487.136441	-3.000100	3.781900	-11.345000	23.496545	0.001068	20.916062
488.136894	-3.010300	3.781000	-11.381000	23.512154	0.001070	20.907054
489.136830	-2.980000	3.782700	-11.272000	23.502322	0.001070	20.898622
490.136682	-3.005200	3.781400	-11.363000	23.516099	0.001069	20.906741
491.136684	-2.993400	3.781000	-11.317000	23.536692	0.001070	20.894668
492.149899	-2.995600	3.780600	-11.325000	23.533304	0.001071	20.905970
493.138016	-2.999800	3.781300	-11.342000	23.540704	0.001071	20.905801
494.161454	-3.004900	3.778200	-11.352000	23.567174	0.001071	20.900568
495.141731	-2.998900	3.779200	-11.333000	23.538870	0.001071	20.899222
496.141949	-2.994700	3.779600	-11.318000	23.544893	0.001071	20.902414
497.141670	-2.983300	3.779800	-11.276000	23.555974	0.001071	20.888394
498.140168	-3.007400	3.778000	-11.361000	23.532729	0.001071	20.895912
499.142818	-2.988900	3.779200	-11.294000	23.558027	0.001072	20.910363
500.142477	-3.006100	3.778200	-11.357000	23.541522	0.001073	20.906621
501.144980	-2.998100	3.777600	-11.325000	23.520819	0.001071	20.923325
502.145887	-3.022400	3.775700	-11.410000	23.507896	0.001072	20.905630
503.142603	-2.989500	3.775700	-11.286000	23.532695	0.001073	20.904411
504.145459	-2.987700	3.776600	-11.282000	23.544596	0.001072	20.908280
505.144027	-2.996700	3.775700	-11.313000	23.554014	0.001074	20.908238
506.152551	-3.000400	3.775800	-11.328000	23.561227	0.001073	20.896029
507.144542	-2.990600	3.775900	-11.291000	23.555458	0.001071	20.920590
508.144812	-2.989800	3.775300	-11.286000	23.560222	0.001074	20.932476
509.148121	-2.994800	3.775600	-11.306000	23.582571	0.001072	20.906993
510.145809	-3.020800	3.774400	-11.401000	23.580535	0.001074	20.933873
511.145658	-2.992500	3.774500	-11.294000	23.605485	0.001075	20.910049
512.146581	-3.007200	3.774800	-11.350000	23.561320	0.001076	20.931206
513.170027	-2.981200	3.774100	-11.251000	23.562873	0.001077	20.913325
514.148319	-3.005300	3.772800	-11.338000	23.523893	0.001074	20.919768
515.156209	-3.023400	3.773300	-11.407000	23.536275	0.001074	20.925541
516.173199	-2.995400	3.774900	-11.306000	23.560339	0.001075	20.927853
517.165898	-2.995500	3.773900	-11.302000	23.579040	0.001074	20.933322
518.168740	-2.981000	3.773700	-11.248000	23.581514	0.001075	20.924898
519.167666	-2.998400	3.771800	-11.308000	23.580036	0.001075	20.944751
520.154574	-2.988900	3.772500	-11.274000	23.611886	0.001073	20.932111
521.169300	-2.983900	3.772900	-11.257000	23.603052	0.001074	20.922307
522.165864	-3.001200	3.771000	-11.316000	23.612461	0.001075	20.926049
523.167557	-2.986300	3.772100	-11.264000	23.624867	0.001074	20.935167
524.152218	-2.981100	3.772400	-11.245000	23.636345	0.001075	20.935294
525.156154	-3.014700	3.769300	-11.362000	23.647029	0.001074	20.941736
526.173439	-2.987000	3.771900	-11.265000	23.649571	0.001076	20.951396
527.173837	-2.990400	3.769800	-11.271000	23.659926	0.001076	20.932381
528.168182	-2.991800	3.769900	-11.277000	23.671876	0.001075	20.953842
529.174175	-2.996400	3.770000	-11.295000	23.707026	0.001076	20.935031
530.170443	-2.996400	3.768600	-11.289000	23.703538	0.001075	20.950498
531.176435	-2.981300	3.769400	-11.237000	23.706663	0.001074	20.937511
532.172375	-3.010400	3.767700	-11.341000	23.721028	0.001077	20.929629
533.154557	-3.006800	3.768100	-11.329000	23.731686	0.001074	20.954062
534.156398	-3.013200	3.768700	-11.354000	23.741372	0.001077	20.952868
535.178264	-2.994300	3.766900	-11.278000	23.724786	0.001075	20.920122
536.176545	-3.014700	3.766400	-11.352000	23.735646	0.001074	20.937646
537.155240	-3.017000	3.765900	-11.361000	23.770617	0.001078	20.931932
538.156719	-2.995100	3.766500	-11.279000	23.758625	0.001076	20.954045
539.155758	-2.984500	3.767400	-11.243000	23.784863	0.001076	20.955696
540.163444	-3.000000	3.767000	-11.300000	23.748254	0.001077	20.956923
541.157680	-3.013300	3.764500	-11.343000	23.800747	0.001076	20.955501
542.157094	-3.008800	3.766700	-11.333000	23.781789	0.001076	20.944554
543.174714	-2.995900	3.766100	-11.282000	23.791998	0.001077	20.947204
544.158659	-2.995100	3.764400	-11.274000	23.791770	0.001078	20.956931
545.180018	-2.996200	3.764900	-11.280000	23.801785	0.001077	20.953223
546.160327	-2.995500	3.763600	-11.273000	23.801954	0.001077	20.948652
547.163388	-2.990400	3.763600	-11.254000	23.805501	0.001078	20.962637
548.179858	-2.992500	3.764100	-11.262000	23.818590	0.001078	20.962959
549.179643	-2.992900	3.763800	-11.264000	23.834229	0.001079	20.962518
550.178541	-3.004300	3.762800	-11.303000	23.822601	0.001080	20.963187
551.180542	-3.028000	3.761000	-11.387000	23.818328	0.001079	20.958903
552.184227	-3.008200	3.762800	-11.317000	23.839481	0.001079	20.955932
553.162179	-2.994100	3.763100	-11.266000	23.822989	0.001077	20.946509
554.185020	-2.989900	3.763100	-11.250000	23.810989	0.001079	20.953443
555.182116	-2.980200	3.761900	-11.210000	23.847157	0.001079	20.940871
556.183752	-2.991600	3.761800	-11.252000	23.856099	0.001078	20.985866
557.186204	-3.013700	3.760400	-11.331000	23.870808	0.001079	20.962213
558.179469	-3.000100	3.761200	-11.283000	23.858742	0.001077	20.991835
559.184150	-3.021800	3.759800	-11.360000	23.886067	0.001080	20.985096
560.182999	-2.997200	3.760400	-11.268000	23.889030	0.001079	20.965311
561.169353	-3.006800	3.759300	-11.302000	23.918009	0.001079	20.986780
562.164457	-2.995600	3.759800	-11.262000	23.916017	0.001077	20.954441
563.165388	-2.989800	3.760200	-11.242000	23.938645	0.001077	20.958640
564.164818	-3.002500	3.759800	-11.288000	23.941761	0.001080	20.970297
565.167560	-3.014200	3.757000	-11.323000	23.893531	0.001077	20.968401
566.166859	-3.007500	3.756000	-11.295000	23.872277	0.001078	20.965108
567.187318	-3.012700	3.758400	-11.322000	23.855279	0.001080	20.978882
568.198559	-3.012500	3.758100	-11.320000	23.857027	0.001079	20.981108
569.164590	-2.994400	3.758200	-11.252000	23.852999	0.001080	21.002670
570.165398	-2.995700	3.758300	-11.257000	23.903629	0.001079	20.987059
571.169319	-3.008600	3.756700	-11.301000	23.904600	0.001081	20.997514
572.166411	-2.987700	3.757500	-11.225000	23.909607	0.001079	20.999216
573.170430	-2.987000	3.756800	-11.221000	23.936441	0.001080	20.991512
574.167721	-3.004300	3.755100	-11.280000	23.953430	0.001078	20.976782
575.165666	-3.015200	3.755800	-11.323000	23.963063	0.001079	20.976485
576.192042	-3.016800	3.753600	-11.323000	23.964667	0.001079	20.996583
577.188602	-3.005900	3.754900	-11.286000	23.985590	0.001080	20.972049
578.169126	-3.005100	3.755400	-11.283000	23.994134	0.001080	20.995787
579.169112	-2.997000	3.753500	-11.248000	24.001083	0.001077	20.998487
580.169688	-2.990900	3.753700	-11.226000	23.973482	0.001080	21.002102
581.186955	-3.012500	3.753500	-11.306000	23.977417	0.001079	20.994195
582.193125	-3.003300	3.753200	-11.271000	23.994362	0.001079	20.984164
583.172314	-2.991000	3.754400	-11.228000	23.943255	0.001078	21.017780
584.175982	-3.019800	3.752600	-11.330000	23.961645	0.001077	20.989759
585.172397	-3.008900	3.750900	-11.285000	23.953488	0.001080	20.978263
586.187843	-2.971100	3.753300	-11.150000	23.948194	0.001079	20.992866
587.176116	-3.028400	3.750900	-11.358000	23.935174	0.001079	20.982182
588.194099	-2.986500	3.752000	-11.204000	23.943238	0.001078	20.993112
589.196190	-2.994600	3.751000	-11.232000	23.943584	0.001080	20.989192
590.172996	-3.010400	3.750200	-11.289000	23.960960	0.001079	20.973903
591.192436	-2.995500	3.750100	-11.232000	23.973060	0.001077	20.992197
592.190426	-3.017500	3.751000	-11.317000	23.979831	0.001077	20.998987
593.176275	-2.988100	3.750000	-11.204000	23.950761	0.001079	21.006343
594.171778	-3.011300	3.748700	-11.287000	23.956950	0.001081	20.989793
595.177155	-2.975700	3.749900	-11.158000	23.946446	0.001078	20.986373
596.172503	-2.973500	3.751500	-11.153000	23.922171	0.001078	20.981471
597.173966	-2.999300	3.750300	-11.247000	23.946218	0.001078	21.000840
598.192735	-3.020500	3.748100	-11.319000	23.944833	0.001080	20.999926
599.193687	-2.997400	3.748100	-11.233000	23.945965	0.001079	20.998690
600.197218	-3.013800	3.745900	-11.288000	23.939581	0.001078	20.987075
601.174378	-2.985900	3.748500	-11.192000	23.959390	0.001078	20.983706
602.198400	-3.019300	3.747400	-11.313000	23.955835	0.001076	20.978245
603.199980	-2.976200	3.749100	-11.158000	23.951875	0.001081	20.991342
604.194123	-3.000200	3.747700	-11.243000	23.950034	0.001077	20.973378
605.197240	-2.984400	3.747600	-11.184000	23.964295	0.001078	20.967291
606.174931	-2.990300	3.747100	-11.204000	23.984255	0.001079	20.967866
607.193148	-2.984800	3.747200	-11.184000	23.979780	0.001078	20.989928
608.194026	-2.996700	3.745200	-11.223000	23.973017	0.001076	20.962761
609.193943	-3.002300	3.746300	-11.246000	23.973465	0.001079	20.971744
610.192878	-2.991400	3.745100	-11.203000	23.994986	0.001078	20.972463
611.193329	-3.014600	3.742700	-11.280000	23.964835	0.001078	20.974944
612.202495	-3.000100	3.743700	-11.231000	23.977796	0.001078	20.989361
613.198696	-2.981300	3.745600	-11.165000	23.970763	0.001078	20.988946
614.194731	-3.029700	3.743600	-11.341000	23.988097	0.001079	20.969348
615.200585	-3.016100	3.743500	-11.290000	24.010108	0.001078	20.965343
616.201451	-3.014900	3.743300	-11.284000	23.995653	0.001077	20.975028
617.202805	-3.019100	3.743600	-11.301000	24.029197	0.001077	20.986381
618.201670	-2.988900	3.742800	-11.186000	24.050101	0.001077	20.969890
619.201072	-2.993600	3.743100	-11.204000	24.055530	0.001080	20.947362
620.201902	-2.987700	3.742100	-11.179000	24.036128	0.001078	20.961568
621.192001	-3.034600	3.739900	-11.348000	24.046673	0.001078	20.983045
622.205147	-2.993800	3.742400	-11.203000	24.018744	0.001077	20.974952
623.177621	-2.980500	3.741200	-11.150000	24.013299	0.001077	20.960010
624.199746	-2.992300	3.741400	-11.194000	24.008925	0.001076	20.966054
625.198544	-2.982400	3.740400	-11.154000	24.012775	0.001078	20.948107
626.204584	-3.023900	3.738900	-11.305000	24.024156	0.001076	20.953830
627.199140	-3.015600	3.739100	-11.275000	24.053520	0.001077	20.965733
628.179663	-3.023300	3.739200	-11.304000	24.060570	0.001077	20.978490
629.193271	-2.985400	3.740200	-11.164000	24.050295	0.001077	20.954913
630.197002	-3.007100	3.739600	-11.244000	24.022037	0.001077	20.949334
631.206743	-3.006200	3.739700	-11.240000	24.044951	0.001075	20.943391
632.180034	-2.992900	3.739400	-11.191000	24.051350	0.001077	20.962134
633.178333	-2.989000	3.739300	-11.175000	24.063052	0.001076	20.938785
634.179559	-2.995800	3.738800	-11.198000	24.092389	0.001078	20.931699
635.182259	-2.988000	3.737000	-11.165000	24.085779	0.001076	20.935975
636.181557	-3.019700	3.735400	-11.279000	24.062292	0.001078	20.969313
637.180556	-2.999100	3.736900	-11.207000	24.046715	0.001076	20.954642
638.204274	-2.993100	3.736800	-11.184000	24.041489	0.001076	20.934231
639.202903	-2.989700	3.736200	-11.169000	24.035056	0.001076	20.944847
640.202459	-2.992400	3.737200	-11.182000	24.035326	0.001076	20.953178
641.205642	-2.997400	3.734900	-11.194000	24.051257	0.001075	20.962041
642.198049	-2.994500	3.736400	-11.188000	24.066142	0.001075	20.948047
643.203323	-3.006100	3.734700	-11.226000	24.055842	0.001076	20.932978
644.198703	-2.985300	3.734600	-11.148000	24.032278	0.001076	20.959603
645.198115	-2.990400	3.734700	-11.166000	24.031510	0.001076	20.929439
646.222558	-2.980800	3.735300	-11.133000	24.058763	0.001075	20.930218
647.206454	-3.010200	3.733700	-11.238000	24.066657	0.001075	20.936711
648.202932	-2.981300	3.734200	-11.132000	24.073900	0.001078	20.935915
649.181818	-2.989200	3.735300	-11.164000	24.083187	0.001076	20.933376
650.180943	-2.980300	3.734100	-11.129000	24.090051	0.001073	20.924613
651.205544	-2.976800	3.734100	-11.114000	24.064951	0.001073	20.955387
652.193541	-3.015600	3.731900	-11.253000	24.063533	0.001075	20.938794
653.205012	-3.029500	3.731700	-11.305000	24.055850	0.001072	20.917341
654.202062	-3.004600	3.732000	-11.211000	24.058163	0.001075	20.939573
655.207213	-3.005700	3.730600	-11.212000	24.069569	0.001075	20.959544
656.182816	-2.977200	3.732600	-11.112000	24.093014	0.001074	20.912413
657.186119	-2.989500	3.731000	-11.152000	24.117471	0.001073	20.926984
658.205152	-3.001600	3.732200	-11.202000	24.102174	0.001076	20.931555
659.209436	-2.976400	3.730000	-11.101000	24.109595	0.001074	20.921929
660.211006	-3.008100	3.730600	-11.221000	24.092803	0.001073	20.925477
661.206707	-3.007500	3.730000	-11.217000	24.119801	0.001072	20.919364
662.211472	-3.005900	3.729400	-11.209000	24.105703	0.001073	20.918027
663.203685	-3.012800	3.730100	-11.236000	24.128041	0.001074	20.918145
664.207136	-3.008500	3.729300	-11.219000	24.130734	0.001073	20.943603
665.204036	-2.988500	3.729500	-11.145000	24.117277	0.001074	20.931056
666.212556	-3.016800	3.728900	-11.248000	24.131114	0.001072	20.923597
667.209570	-2.983300	3.729800	-11.126000	24.161327	0.001072	20.935882
668.188967	-2.990200	3.729100	-11.150000	24.181680	0.001073	20.941122
669.189327	-3.008300	3.728300	-11.214000	24.222115	0.001072	20.939480
670.193168	-3.029900	3.727400	-11.292000	24.220866	0.001072	20.928745
671.206520	-2.980700	3.726900	-11.107000	24.219161	0.001071	20.926561
672.212253	-2.984400	3.727900	-11.124000	24.225433	0.001069	20.921947
673.207325	-3.004300	3.725300	-11.191000	24.211867	0.001072	20.930150
674.189006	-2.996700	3.726400	-11.166000	24.163759	0.001071	20.924097
675.191508	-2.996500	3.725300	-11.162000	24.163978	0.001070	20.942807
676.219245	-3.013600	3.725500	-11.225000	24.166308	0.001071	20.944669
677.205722	-2.992500	3.724400	-11.145000	24.144959	0.001071	20.913777
678.210807	-3.006000	3.724700	-11.194000	24.157174	0.001070	20.912752
679.222573	-2.996200	3.725600	-11.160000	24.155064	0.001071	20.914429
680.217965	-3.016600	3.723200	-11.229000	24.140003	0.001070	20.928245
681.214947	-3.005500	3.724200	-11.192000	24.172606	0.001070	20.932969
682.210082	-3.006300	3.723600	-11.192000	24.171745	0.001071	20.939217
683.213322	-3.010100	3.722700	-11.204000	24.203595	0.001071	20.932758
684.248880	-3.006200	3.722600	-11.188000	24.215835	0.001069	20.929862
685.189779	-2.989700	3.723300	-11.131000	24.218004	0.001070	20.909755
686.189476	-2.998600	3.723600	-11.165000	24.211834	0.001068	20.930591
687.217068	-3.014300	3.723200	-11.221000	24.225990	0.001069	20.920609
688.206902	-2.984200	3.722600	-11.108000	24.238432	0.001068	20.933562
689.214242	-2.984700	3.723300	-11.111000	24.251179	0.001070	20.935916
690.211663	-3.020400	3.720500	-11.236000	24.245633	0.001069	20.914708
691.194008	-3.020400	3.720800	-11.238000	24.267158	0.001069	20.932504
692.193020	-3.006700	3.720400	-11.185000	24.273252	0.001070	20.918704
693.191787	-3.012400	3.721000	-11.208000	24.284234	0.001068	20.909332
694.192177	-2.987800	3.721800	-11.118000	24.266094	0.001068	20.914370
695.196622	-2.995600	3.720400	-11.144000	24.247861	0.001067	20.906987
696.217008	-3.003300	3.719800	-11.170000	24.228666	0.001068	20.904803
697.194135	-3.013900	3.719900	-11.210000	24.228337	0.001068	20.910162
698.197662	-3.013300	3.719900	-11.208000	24.234719	0.001065	20.917037
699.203027	-3.003000	3.720900	-11.172000	24.252529	0.001066	20.894601
700.197400	-2.990400	3.719500	-11.120000	24.266812	0.001068	20.908452
701.200986	-3.021600	3.717700	-11.231000	24.250504	0.001068	20.908689
702.196662	-3.008700	3.717700	-11.185000	24.254505	0.001068	20.917443
703.196486	-2.999800	3.717600	-11.150000	24.250748	0.001064	20.913676
704.198201	-3.001500	3.716200	-11.153000	24.214958	0.001064	20.914285
705.199314	-2.996200	3.717100	-11.136000	24.198083	0.001067	20.894043
706.195001	-3.003600	3.716000	-11.160000	24.170504	0.001066	20.917113
707.202117	-3.007000	3.717600	-11.178000	24.184205	0.001065	20.907623
708.204603	-2.984800	3.717000	-11.093000	24.210197	0.001065	20.906192
709.201180	-3.004300	3.717100	-11.166000	24.214004	0.001067	20.914277
710.204243	-2.999200	3.717100	-11.146000	24.240949	0.001064	20.914277
711.196388	-2.995100	3.715100	-11.125000	24.228236	0.001065	20.917647
712.198796	-3.002700	3.715800	-11.156000	24.224860	0.001065	20.928958
713.198496	-2.989900	3.715500	-11.108000	24.240341	0.001066	20.884747
714.214227	-2.981000	3.716500	-11.078000	24.262583	0.001062	20.906108
715.211132	-3.014200	3.715400	-11.198000	24.274527	0.001064	20.904812
716.213952	-2.980000	3.715900	-11.072000	24.301344	0.001064	20.919383
717.201454	-3.009500	3.713300	-11.174000	24.313592	0.001063	20.902272
718.204815	-3.010500	3.713100	-11.178000	24.298736	0.001063	20.890216
719.200048	-3.006100	3.713600	-11.162000	24.290379	0.001064	20.917393
720.206530	-2.993500	3.713800	-11.116000	24.303125	0.001062	20.911687
721.215081	-3.015300	3.712900	-11.194000	24.306586	0.001065	20.918477
722.220398	-3.000200	3.713000	-11.139000	24.305497	0.001064	20.911696
723.203405	-3.008300	3.711800	-11.165000	24.316369	0.001063	20.883249
724.208448	-3.000900	3.711900	-11.138000	24.311895	0.001063	20.899623
725.202459	-2.990900	3.711900	-11.100000	24.315601	0.001062	20.910925
726.204659	-2.988100	3.712700	-11.093000	24.339884	0.001063	20.886449
727.203831	-2.991100	3.710800	-11.099000	24.321332	0.001061	20.896287
728.224758	-2.993100	3.711400	-11.106000	24.333925	0.001061	20.902756
729.220044	-2.982800	3.711100	-11.068000	24.334702	0.001063	20.914439
730.211544	-3.002600	3.710700	-11.140000	24.325747	0.001060	20.907827
731.207135	-3.005100	3.711200	-11.150000	24.357660	0.001060	20.887211
732.205053	-3.006000	3.709900	-11.151000	24.356292	0.001060	20.889633
733.201963	-2.983200	3.709700	-11.065000	24.356993	0.001060	20.895077
734.205102	-2.995100	3.710400	-11.112000	24.359686	0.001061	20.869331
735.206511	-3.033100	3.707800	-11.245000	24.357694	0.001060	20.899098
736.233922	-3.000900	3.708100	-11.126000	24.356656	0.001058	20.908013
737.208654	-2.988700	3.710400	-11.088000	24.379276	0.001059	20.880921
738.207129	-3.001100	3.707700	-11.127000	24.398654	0.001060	20.899886
739.204668	-2.996600	3.707200	-11.108000	24.409221	0.001060	20.899581
740.204524	-3.008300	3.707500	-11.152000	24.408605	0.001060	20.901808
741.208773	-3.000800	3.708400	-11.127000	24.386863	0.001058	20.895170
742.210506	-2.997400	3.706700	-11.109000	24.353828	0.001060	20.897117
743.233119	-2.984600	3.707300	-11.063000	24.308385	0.001059	20.889938
744.220702	-2.989400	3.707800	-11.083000	24.259124	0.001058	20.892207
745.229278	-3.010000	3.705400	-11.152000	24.248302	0.001057	20.883250
746.225992	-2.998800	3.705200	-11.111000	24.235371	0.001059	20.884029
747.224705	-2.974500	3.706400	-11.023000	24.240824	0.001057	20.891869
748.210449	-2.987900	3.706300	-11.073000	24.217914	0.001056	20.881692
749.210337	-3.005700	3.705400	-11.136000	24.228812	0.001057	20.884562
750.233350	-2.995900	3.704900	-11.098000	24.215660	0.001058	20.896974
751.229807	-2.981500	3.705400	-11.045000	24.222413	0.001057	20.897583
752.213060	-2.999900	3.703000	-11.107000	24.218615	0.001056	20.888559
753.235856	-2.992200	3.705300	-11.084000	24.229589	0.001054	20.888660
754.214126	-2.999400	3.704600	-11.110000	24.231108	0.001057	20.893503
755.212323	-2.998300	3.703500	-11.104000	24.252937	0.001056	20.884105
756.213844	-3.004200	3.702700	-11.123000	24.236409	0.001055	20.858520
757.215676	-3.006200	3.703200	-11.132000	24.251941	0.001057	20.869831
758.214696	-3.008600	3.702100	-11.138000	24.253562	0.001055	20.888051
759.211323	-2.991900	3.704300	-11.082000	24.252068	0.001056	20.884182
760.215171	-3.028800	3.700300	-11.206000	24.260078	0.001055	20.865666
761.215672	-3.021100	3.701600	-11.181000	24.250126	0.001055	20.879390
762.214109	-3.016500	3.700100	-11.161000	24.291209	0.001056	20.868917
763.232606	-2.996500	3.701400	-11.090000	24.303279	0.001054	20.867274
764.233235	-3.020200	3.701700	-11.177000	24.301110	0.001053	20.866047
765.228608	-3.009900	3.701600	-11.140000	24.332137	0.001054	20.871567
766.230946	-3.006300	3.700600	-11.124000	24.314674	0.001054	20.873963
767.229406	-3.004400	3.700900	-11.118000	24.334855	0.001051	20.881405
768.237422	-3.016800	3.699400	-11.159000	24.334003	0.001053	20.864904
769.231824	-3.005700	3.700600	-11.122000	24.350681	0.001053	20.890168
770.218242	-3.005500	3.698700	-11.115000	24.343541	0.001054	20.883954
771.216235	-2.996900	3.700500	-11.089000	24.344359	0.001051	20.887145
772.235737	-3.014100	3.699100	-11.148000	24.330509	0.001054	20.877045
773.233797	-2.994500	3.700800	-11.081000	24.331403	0.001051	20.865615
774.240919	-3.010000	3.699200	-11.133000	24.370212	0.001052	20.860925
775.236655	-3.008900	3.698400	-11.126000	24.356632	0.001052	20.857733
776.222307	-3.000900	3.697000	-11.093000	24.342351	0.001054	20.859054
777.244142	-2.990000	3.698200	-11.057000	24.352083	0.001051	20.862652
778.218903	-2.995500	3.697500	-11.075000	24.345769	0.001052	20.861535
779.233520	-2.988000	3.698300	-11.048000	24.360624	0.001050	20.873117
780.237325	-3.005900	3.696200	-11.110000	24.357139	0.001050	20.885266
781.238302	-2.991800	3.696400	-11.058000	24.346419	0.001048	20.856497
782.238102	-2.991400	3.696600	-11.055000	24.344875	0.001052	20.852103
783.241104	-2.987800	3.696700	-11.044000	24.346191	0.001050	20.864329
784.240141	-3.009500	3.694200	-11.117000	24.359856	0.001049	20.862864
785.238303	-2.991400	3.696400	-11.057000	24.350403	0.001048	20.860968
786.241157	-2.998900	3.695600	-11.082000	24.381826	0.001047	20.855033
787.247846	-2.987100	3.695200	-11.037000	24.370162	0.001049	20.847125
788.237796	-2.992700	3.695900	-11.060000	24.405813	0.001048	20.855863
789.222698	-3.008200	3.693200	-11.108000	24.403771	0.001048	20.859503
790.248302	-3.008400	3.693000	-11.109000	24.408700	0.001048	20.863025
791.243131	-3.022100	3.693700	-11.162000	24.385616	0.001046	20.867369
792.240211	-3.010600	3.694800	-11.123000	24.387836	0.001048	20.844941
793.242963	-3.002900	3.691500	-11.084000	24.367512	0.001045	20.868647
794.242495	-3.025000	3.691700	-11.167000	24.361967	0.001045	20.856921
795.253178	-3.003100	3.694000	-11.092000	24.381802	0.001045	20.860697
796.239361	-3.011900	3.691400	-11.116000	24.371977	0.001046	20.847998
797.247927	-2.988800	3.692200	-11.034000	24.369015	0.001046	20.855457
798.238190	-2.996100	3.691600	-11.060000	24.341153	0.001044	20.838413
799.238109	-2.956300	3.693300	-10.917000	24.342175	0.001044	20.852239
800.243461	-2.998200	3.690500	-11.063000	24.351662	0.001045	20.868394
801.246121	-2.970300	3.693000	-10.968000	24.351856	0.001045	20.853890
802.223058	-3.009900	3.690700	-11.108000	24.364643	0.001043	20.841588
803.246591	-2.995800	3.692200	-11.058000	24.356347	0.001044	20.847964
804.247251	-2.992700	3.691900	-11.048000	24.393711	0.001042	20.850360
805.222202	-2.972600	3.691100	-10.970000	24.409410	0.001041	20.856151
806.221910	-3.000700	3.688500	-11.067000	24.425555	0.001042	20.853857
807.224140	-3.001900	3.689900	-11.076000	24.442747	0.001044	20.868259
808.226386	-3.002100	3.689600	-11.076000	24.467382	0.001043	20.840345
809.238517	-2.975100	3.689900	-10.977000	24.468108	0.001042	20.846762
810.240987	-2.991300	3.690500	-11.038000	24.455541	0.001040	20.857388
811.250253	-3.020900	3.687800	-11.140000	24.406667	0.001040	20.852452
812.243293	-2.985500	3.689100	-11.013000	24.434983	0.001042	20.855255
813.248743	-3.008900	3.689000	-11.099000	24.439380	0.001041	20.862985
814.240545	-3.004900	3.689000	-11.083000	24.451888	0.001041	20.853249
815.257985	-2.997200	3.686300	-11.048000	24.452866	0.001043	20.806816
816.255519	-3.005000	3.687000	-11.078000	24.445263	0.001040	20.836645
817.246626	-2.990700	3.687500	-11.028000	24.471104	0.001040	20.847872
818.247240	-2.998800	3.687400	-11.057000	24.457981	0.001040	20.853672
819.245979	-2.986100	3.687200	-11.009000	24.449871	0.001039	20.846484
820.247370	-3.001600	3.686400	-11.064000	24.438765	0.001040	20.826807
821.245947	-3.025000	3.685700	-11.149000	24.430105	0.001038	20.853207
822.244036	-3.004100	3.686100	-11.072000	24.406103	0.001039	20.826757
823.247128	-3.008700	3.686600	-11.090000	24.394346	0.001040	20.852894
824.247862	-3.004100	3.685700	-11.071000	24.391460	0.001038	20.833403
825.255162	-2.998500	3.685000	-11.049000	24.392135	0.001036	20.834555
826.242421	-2.992800	3.683500	-11.023000	24.395418	0.001037	20.838323
827.246245	-2.978500	3.684000	-10.971000	24.414037	0.001036	20.833768
828.246802	-3.021800	3.682900	-11.128000	24.415851	0.001036	20.846493
829.248283	-3.006000	3.683400	-11.070000	24.399376	0.001037	20.822854
830.252753	-3.006900	3.682500	-11.072000	24.419734	0.001035	20.845647
831.244336	-2.998400	3.683400	-11.044000	24.426680	0.001038	20.827012
832.256328	-3.018000	3.683300	-11.115000	24.449096	0.001036	20.836224
833.253402	-2.995000	3.681900	-11.027000	24.460582	0.001035	20.847272
834.246671	-3.000100	3.682400	-11.046000	24.466161	0.001033	20.862352
835.247642	-2.978100	3.681500	-10.962000	24.486483	0.001036	20.837223
836.231655	-3.006300	3.681800	-11.067000	24.493082	0.001035	20.822982
837.232640	-3.012600	3.682000	-11.091000	24.486365	0.001033	20.815294
838.233200	-2.971800	3.681300	-10.939000	24.484356	0.001036	20.843624
839.251173	-3.004400	3.681700	-11.060000	24.499463	0.001033	20.836021
840.250661	-3.000200	3.681800	-11.045000	24.502999	0.001032	20.848103
841.267593	-3.014000	3.679600	-11.088000	24.530426	0.001037	20.835792
842.251214	-2.985400	3.681700	-10.991000	24.525303	0.001032	20.831127
843.249189	-2.988900	3.680200	-10.999000	24.504020	0.001032	20.843912
844.257363	-3.000900	3.680200	-11.043000	24.499573	0.001032	20.832338
845.251013	-2.984900	3.680400	-10.985000	24.519659	0.001031	20.818352
846.251994	-2.989700	3.679300	-10.999000	24.523068	0.001031	20.807548
847.252882	-3.009300	3.677200	-11.065000	24.538486	0.001032	20.841034
848.253392	-3.008100	3.678700	-11.064000	24.497405	0.001031	20.839646
849.255105	-2.976900	3.680800	-10.955000	24.476121	0.001028	20.823034
850.259463	-3.009100	3.677900	-11.066000	24.445249	0.001032	20.824779
851.250313	-2.992800	3.678100	-11.006000	24.456188	0.001030	20.854718
852.256341	-3.008500	3.677500	-11.063000	24.436599	0.001030	20.824161
853.254783	-3.022300	3.676600	-11.110000	24.435663	0.001029	20.840764
854.250968	-3.006900	3.676400	-11.053000	24.458053	0.001027	20.821503
855.260237	-2.994800	3.677300	-11.012000	24.448061	0.001029	20.822857
856.259499	-3.006900	3.675700	-11.051000	24.473902	0.001027	20.821283
857.251745	-3.011700	3.674700	-11.066000	24.513761	0.001029	20.835194
858.254148	-2.989600	3.676600	-10.991000	24.482326	0.001029	20.804603
859.252583	-3.021800	3.677400	-11.111000	24.483651	0.001028	20.852873
860.250599	-2.977800	3.676800	-10.948000	24.476536	0.001028	20.832934
861.255499	-3.002100	3.675800	-11.034000	24.470646	0.001027	20.834610
862.254083	-3.006200	3.674500	-11.045000	24.472697	0.001028	20.834298
863.254789	-3.015200	3.673500	-11.075000	24.490386	0.001029	20.838768
864.252594	-2.994600	3.674500	-11.003000	24.478394	0.001025	20.840013
865.257149	-2.997500	3.674100	-11.012000	24.450459	0.001026	20.840436
866.251589	-2.976700	3.674100	-10.935000	24.476040	0.001025	20.831013
867.259306	-2.998200	3.673700	-11.013000	24.470216	0.001026	20.836550
868.255968	-2.992500	3.674600	-10.995000	24.500961	0.001025	20.849377
869.251442	-3.007900	3.672300	-11.045000	24.496995	0.001027	20.840183
870.265246	-2.993400	3.674400	-10.998000	24.534135	0.001028	20.833350
871.259637	-2.997900	3.673200	-11.011000	24.516777	0.001024	20.847702
872.257112	-3.016200	3.672200	-11.075000	24.536844	0.001027	20.847921
873.255751	-2.982500	3.672800	-10.953000	24.568094	0.001024	20.831861
874.266282	-3.006300	3.671700	-11.038000	24.523992	0.001024	20.850199
875.259320	-3.001900	3.670600	-11.017000	24.555368	0.001022	20.838533
876.265460	-2.979400	3.671500	-10.938000	24.560862	0.001024	20.832191
877.259676	-3.029200	3.670500	-11.117000	24.565546	0.001021	20.840209
878.257845	-3.008500	3.671200	-11.043000	24.574711	0.001022	20.837551
879.255356	-2.976700	3.671800	-10.929000	24.585714	0.001022	20.829626
880.268904	-2.983000	3.671300	-10.950000	24.607485	0.001023	20.834401
881.255501	-3.004600	3.669300	-11.025000	24.599537	0.001022	20.883322
882.256145	-2.990400	3.670900	-10.976000	24.645019	0.001021	20.827493
883.256416	-3.019400	3.668900	-11.076000	24.658984	0.001022	20.836764
884.256751	-3.009400	3.668500	-11.039000	24.662140	0.001020	20.833767
885.272479	-3.019800	3.669300	-11.079000	24.641349	0.001022	20.845621
886.257509	-2.999500	3.668200	-11.001000	24.646378	0.001021	20.832176
887.265095	-3.034700	3.666900	-11.126000	24.654284	0.001021	20.829678
888.269478	-2.997100	3.668900	-10.995000	24.642775	0.001018	20.841362
889.267495	-2.995900	3.667900	-10.988000	24.625637	0.001019	20.856881
890.261048	-2.987600	3.668600	-10.960000	24.607115	0.001019	20.860108
891.270145	-3.009300	3.666300	-11.032000	24.611900	0.001019	20.844047
892.268054	-2.988500	3.667500	-10.959000	24.602230	0.001018	20.860896
893.258482	-3.018500	3.665000	-11.060000	24.550974	0.001017	20.847400
894.272550	-3.017200	3.667000	-11.063000	24.560772	0.001018	20.851066
895.260096	-2.997000	3.667800	-10.990000	24.587438	0.001017	20.851269
896.262434	-2.992500	3.666500	-10.970000	24.601243	0.001018	20.850423
897.273245	-2.977400	3.666100	-10.914000	24.604240	0.001017	20.854851
898.268029	-3.002700	3.665200	-11.004000	24.635647	0.001017	20.827097
899.265578	-2.978100	3.666500	-10.918000	24.619015	0.001015	20.858297
900.265109	-3.001100	3.666500	-11.002000	24.653308	0.001015	20.864732
901.263144	-3.014100	3.665100	-11.045000	24.623150	0.001015	20.847274
902.281975	-3.004500	3.664000	-11.007000	24.628104	0.001016	20.864572
903.276655	-2.993800	3.665600	-10.973000	24.636112	0.001015	20.857434
904.264884	-2.982700	3.664400	-10.928000	24.604628	0.001017	20.860457
905.274332	-2.975900	3.664500	-10.904000	24.612164	0.001012	20.850475
906.276008	-3.007400	3.663800	-11.018000	24.600410	0.001015	20.852431
907.265126	-3.018000	3.664200	-11.057000	24.580293	0.001011	20.860695
908.271444	-2.981100	3.665300	-10.925000	24.600781	0.001014	20.855174
909.274162	-2.981500	3.664000	-10.923000	24.637471	0.001014	20.855005
910.268322	-2.990600	3.663100	-10.954000	24.657571	0.001012	20.848147
911.277628	-3.001500	3.662600	-10.992000	24.662920	0.001012	20.849722
912.269303	-2.997400	3.662300	-10.976000	24.659191	0.001012	20.844084
913.274039	-2.994400	3.660700	-10.961000	24.667579	0.001012	20.859138
914.275477	-3.012000	3.661100	-11.026000	24.678573	0.001011	20.877282
915.268631	-2.986200	3.662100	-10.935000	24.706629	0.001011	20.870348
916.269791	-2.996100	3.661300	-10.969000	24.693281	0.001012	20.862643
917.278628	-3.002900	3.661000	-10.993000	24.712882	0.001011	20.844381
918.268674	-2.980200	3.662000	-10.912000	24.692462	0.001011	20.847598
919.267675	-3.015900	3.659200	-11.035000	24.682954	0.001010	20.853230
920.271515	-2.983500	3.659800	-10.919000	24.650594	0.001010	20.871018
921.270225	-2.993000	3.660000	-10.954000	24.664053	0.001009	20.873143
922.269249	-3.000900	3.658900	-10.980000	24.669200	0.001007	20.883997
923.272232	-3.007600	3.660200	-11.008000	24.676339	0.001010	20.862712
924.292692	-3.005100	3.657200	-10.989000	24.690168	0.001008	20.875167
925.280190	-3.005000	3.658600	-10.994000	24.686768	0.001007	20.873651
926.275513	-2.996200	3.657700	-10.958000	24.674204	0.001008	20.858200
927.269711	-2.997800	3.658000	-10.965000	24.673639	0.001006	20.869486
928.284029	-3.026800	3.656900	-11.067000	24.676661	0.001007	20.874888
929.269550	-3.018500	3.658600	-11.042000	24.665396	0.001008	20.882550
930.273317	-3.017500	3.656400	-11.033000	24.704142	0.001008	20.854103
931.271430	-3.009800	3.656000	-11.003000	24.733960	0.001006	20.871222
932.275590	-2.992400	3.655800	-10.938000	24.695747	0.001005	20.872230
933.276465	-3.006800	3.656600	-10.993000	24.699949	0.001007	20.880714
934.286963	-3.020000	3.656800	-11.041000	24.692078	0.001006	20.888935
935.278935	-2.991600	3.655400	-10.934000	24.720403	0.001005	20.870893
936.281940	-2.986400	3.656900	-10.921000	24.726149	0.001004	20.892305
937.285544	-2.997600	3.656500	-10.959000	24.715880	0.001006	20.881527
938.281257	-2.988600	3.656400	-10.926000	24.719964	0.001005	20.886100
939.281386	-2.993800	3.654800	-10.940000	24.737101	0.001005	20.898080
940.279212	-2.981300	3.655900	-10.899000	24.751656	0.001004	20.893246
941.275282	-3.004400	3.653300	-10.975000	24.755553	0.001002	20.878192
942.278286	-3.000000	3.654500	-10.962000	24.737304	0.001003	20.882637
943.280312	-3.032900	3.652600	-11.075000	24.771332	0.001001	20.885965
944.285411	-2.991500	3.653900	-10.930000	24.779820	0.001001	20.875518
945.287987	-2.986800	3.654000	-10.913000	24.767409	0.001000	20.881080
946.282002	-2.982800	3.653800	-10.897000	24.754449	0.001001	20.893204
947.290808	-3.013200	3.652900	-11.006000	24.735828	0.001001	20.868829
948.282545	-3.025700	3.652300	-11.049000	24.711410	0.001001	20.891740
949.285459	-2.988700	3.652100	-10.914000	24.700104	0.001004	20.903627
950.289101	-2.993400	3.652500	-10.932000	24.694038	0.001000	20.903229
951.290114	-3.008200	3.652000	-10.985000	24.691329	0.000999	20.880125
952.289876	-3.008800	3.650400	-10.982000	24.712297	0.001000	20.891207
953.288667	-2.996000	3.650800	-10.936000	24.728869	0.001000	20.901672
954.286346	-2.978900	3.651500	-10.875000	24.755826	0.000999	20.911654
955.283612	-3.006200	3.650700	-10.974000	24.761226	0.000997	20.888626
956.288143	-3.020500	3.649500	-11.022000	24.741550	0.000998	20.894484
957.289502	-2.998300	3.650600	-10.945000	24.777966	0.000998	20.895467
958.291816	-3.003600	3.650800	-10.965000	24.756282	0.000999	20.888880
959.298584	-3.017800	3.648200	-11.008000	24.784083	0.000998	20.895916
960.287598	-3.018900	3.649300	-11.016000	24.796620	0.000995	20.884317
961.284534	-2.999000	3.650000	-10.944000	24.806281	0.000997	20.892115
962.281954	-2.999200	3.650100	-10.947000	24.811529	0.000995	20.903071
963.289805	-2.981800	3.650600	-10.884000	24.809766	0.000994	20.906991
964.292444	-2.973100	3.650300	-10.850000	24.816878	0.000997	20.901801
965.285592	-2.988800	3.647800	-10.901000	24.836384	0.000996	20.909049
966.289001	-2.996100	3.647600	-10.928000	24.849933	0.000994	20.908896
967.282237	-3.001200	3.647300	-10.945000	24.845453	0.000993	20.907245
968.284722	-3.001600	3.647000	-10.945000	24.823679	0.000994	20.911470
969.294452	-3.013600	3.647300	-10.990000	24.807936	0.000994	20.907051
970.284036	-2.999900	3.647400	-10.939000	24.766468	0.000993	20.924703
971.289249	-2.994200	3.646200	-10.916000	24.736702	0.000992	20.901946
972.284159	-2.985200	3.646600	-10.885000	24.702479	0.000992	20.902217
973.289213	-3.001500	3.646100	-10.942000	24.698286	0.000992	20.909862
974.288238	-2.994800	3.648000	-10.924000	24.723852	0.000991	20.917025
975.294227	-2.980000	3.646600	-10.865000	24.720123	0.000991	20.903801
976.287788	-2.983300	3.646800	-10.879000	24.745444	0.000991	20.900288
977.287528	-2.988700	3.645400	-10.894000	24.756834	0.000991	20.912665
978.295952	-3.004600	3.644200	-10.948000	24.751164	0.000991	20.930207
979.289021	-3.000600	3.645100	-10.936000	24.754767	0.000991	20.924340
980.286387	-3.005000	3.644200	-10.950000	24.758311	0.000991	20.905139
981.294831	-2.994800	3.643500	-10.911000	24.752337	0.000990	20.915265
982.290119	-2.980900	3.644600	-10.863000	24.760344	0.000990	20.915239
983.287049	-2.991900	3.645000	-10.905000	24.782433	0.000989	20.917492
984.287047	-2.985400	3.643200	-10.875000	24.795865	0.000989	20.903946
985.288950	-2.994400	3.642400	-10.904000	24.807905	0.000989	20.920294
986.287395	-3.007400	3.642900	-10.955000	24.840580	0.000988	20.937912
987.299481	-2.989200	3.641400	-10.883000	24.881184	0.000988	20.919397
988.303159	-3.008000	3.639800	-10.948000	24.882189	0.000987	20.919457
989.288615	-2.997900	3.640500	-10.912000	24.895484	0.000986	20.913361
990.306488	-2.987200	3.643300	-10.882000	24.887503	0.000986	20.911515
991.297870	-2.999900	3.640700	-10.920000	24.856002	0.000986	20.930632
992.292808	-2.984400	3.640600	-10.864000	24.835139	0.000986	20.934348
993.298999	-3.014200	3.639700	-10.970000	24.793099	0.000985	20.921557
994.302629	-3.027800	3.639900	-11.019000	24.774622	0.000985	20.929566
995.299135	-2.993900	3.640900	-10.899000	24.824316	0.000985	20.923962
996.292382	-2.996100	3.640300	-10.906000	24.820806	0.000986	20.928499
997.293794	-3.025900	3.638200	-11.008000	24.854670	0.000984	20.932140
998.292512	-2.997800	3.639300	-10.908000	24.883784	0.000984	20.916790
999.292447	-3.012100	3.639100	-10.960000	24.907912	0.000986	20.917299
1000.292843	-2.971600	3.638900	-10.812000	24.935514	0.000982	20.928881
1001.293326	-3.002300	3.639400	-10.926000	24.943916	0.000985	20.939683
1002.290238	-3.003800	3.638300	-10.928000	24.951779	0.000982	20.945678
1003.294916	-3.008400	3.637000	-10.941000	24.946760	0.000982	20.943485
1004.295499	-3.029900	3.636300	-11.017000	24.974285	0.000982	20.930338
1005.294704	-2.989900	3.637500	-10.874000	24.926303	0.000981	20.961831
1006.300778	-2.984700	3.637300	-10.855000	24.963286	0.000981	20.945848
1007.293967	-2.994300	3.637300	-10.890000	24.951232	0.000982	20.950818
1008.305075	-2.998600	3.636800	-10.904000	24.950734	0.000980	20.930881
1009.294155	-2.991100	3.636900	-10.878000	24.933474	0.000979	20.928256
1010.304460	-2.977400	3.636300	-10.826000	24.923309	0.000980	20.930855
1011.296258	-2.994400	3.637300	-10.889000	24.898803	0.000978	20.921433
1012.298293	-2.987500	3.634700	-10.857000	24.902034	0.000979	20.934632
1013.295856	-3.012000	3.634900	-10.947000	24.922830	0.000979	20.939382
1014.305032	-2.965300	3.637500	-10.785000	24.916343	0.000978	20.951361
1015.293407	-3.010900	3.634500	-10.941000	24.947674	0.000977	20.952462
1016.309593	-2.994700	3.634400	-10.883000	24.955932	0.000977	20.948898
1017.299798	-3.003300	3.633900	-10.913000	24.967717	0.000978	20.946976
1018.300691	-2.979500	3.635300	-10.829000	24.918064	0.000977	20.945503
1019.298907	-3.017200	3.634500	-10.965000	24.925565	0.000976	20.962038
1020.304736	-3.005000	3.633700	-10.918000	24.910118	0.000974	20.954596
1021.297417	-2.996200	3.632300	-10.882000	24.926164	0.000975	20.939883
1022.294551	-3.010500	3.631300	-10.930000	24.928484	0.000975	20.964968
1023.294791	-3.006700	3.632600	-10.921000	24.919474	0.000973	20.955926
1024.299376	-2.990600	3.632900	-10.864000	24.899591	0.000973	20.951143
1025.299282	-2.997600	3.632100	-10.887000	24.920006	0.000975	20.947926
1026.304584	-2.980700	3.633000	-10.828000	24.933427	0.000974	20.959025
1027.302638	-3.008600	3.630900	-10.923000	24.958305	0.000973	20.969769
1028.301933	-3.008100	3.630600	-10.920000	24.968133	0.000973	20.954980
1029.304419	-2.996600	3.630900	-10.879000	24.981116	0.000972	20.972750
1030.303884	-3.004300	3.631000	-10.907000	25.026515	0.000975	20.970904
1031.305420	-2.992400	3.630700	-10.864000	25.021867	0.000972	20.982359
1032.299503	-3.014400	3.629200	-10.939000	25.024701	0.000971	20.963395
1033.304347	-2.986300	3.630300	-10.840000	25.052884	0.000970	20.966554
1034.307639	-2.995800	3.629900	-10.874000	25.064220	0.000969	20.974614
1035.297632	-3.000300	3.628600	-10.886000	25.082921	0.000970	20.953085
1036.303986	-3.000800	3.629700	-10.891000	25.099259	0.000969	20.981810
1037.305199	-2.996600	3.628000	-10.870000	25.080340	0.000968	20.985103
1038.314452	-2.991900	3.629400	-10.857000	25.110452	0.000969	20.957488
1039.302546	-2.987800	3.628800	-10.841000	25.105560	0.000969	20.959216
1040.298768	-3.001500	3.626100	-10.883000	25.082990	0.000970	20.983022
1041.302480	-2.989200	3.627300	-10.842000	25.044079	0.000968	20.976207
1042.300868	-3.021400	3.626800	-10.956000	25.016118	0.000968	20.969951
1043.302005	-3.018500	3.625300	-10.942000	25.006797	0.000967	20.985249
1044.305499	-2.973900	3.628500	-10.790000	25.009235	0.000966	20.972525
1045.310504	-3.005900	3.625800	-10.897000	24.995384	0.000968	20.987069
1046.302770	-2.981900	3.626000	-10.811000	25.000690	0.000967	20.981965
1047.305822	-3.003100	3.625300	-10.887000	24.993950	0.000965	20.993690
1048.302922	-2.973000	3.627400	-10.783000	24.970753	0.000966	20.981313
1049.299925	-2.988600	3.624500	-10.832000	24.998709	0.000963	20.983294
1050.317627	-2.998800	3.624700	-10.869000	24.996220	0.000966	20.978901
1051.301569	-2.994200	3.623300	-10.848000	24.982850	0.000965	20.992979
1052.308854	-3.020000	3.623300	-10.941000	25.008165	0.000964	20.975718
1053.309931	-2.981400	3.626100	-10.810000	25.050526	0.000964	20.979358
1054.305819	-3.015000	3.625300	-10.929000	25.066266	0.000964	21.000370
1055.307345	-2.989600	3.624800	-10.835000	25.081888	0.000962	20.967219
1056.302709	-3.033400	3.622300	-10.987000	25.120147	0.000963	20.989975
1057.314687	-2.988000	3.623700	-10.827000	25.112050	0.000963	21.009819
1058.306470	-3.009000	3.621800	-10.896000	25.126119	0.000962	20.995021
1059.311173	-2.986500	3.624700	-10.825000	25.133499	0.000960	20.982043
1060.304937	-2.997600	3.622200	-10.856000	25.152847	0.000961	20.988190
1061.306954	-3.002600	3.622700	-10.876000	25.129476	0.000959	20.985117
1062.310337	-3.018900	3.622000	-10.933000	25.128271	0.000961	20.992914
1063.308866	-2.993700	3.620300	-10.837000	25.129400	0.000960	21.009218
1064.324430	-2.985500	3.620900	-10.810000	25.144869	0.000959	21.005307
1065.315911	-3.004100	3.620600	-10.876000	25.145991	0.000958	21.001693
1066.312690	-3.009200	3.619300	-10.890000	25.114421	0.000958	20.997028
1067.306997	-2.996300	3.620200	-10.847000	25.088569	0.000959	21.011378
1068.309349	-3.005900	3.621000	-10.883000	25.084841	0.000956	20.983932
1069.308795	-2.994800	3.621000	-10.842000	25.043132	0.000956	20.997537
1070.311862	-3.009400	3.619400	-10.891000	25.019666	0.000956	20.964504
1071.308434	-2.993100	3.620100	-10.834000	24.990404	0.000957	20.981123
1072.307673	-3.011900	3.618600	-10.898000	24.992791	0.000955	20.958866
1073.306542	-2.981300	3.618700	-10.787000	24.975363	0.000955	20.983569
1074.309467	-3.010900	3.617400	-10.891000	24.948478	0.000955	20.959433
1075.315382	-2.995700	3.618200	-10.838000	24.953912	0.000954	20.971523
1076.310576	-3.008000	3.618000	-10.882000	24.933405	0.000953	20.973225
1077.312299	-2.997100	3.617600	-10.842000	24.940136	0.000955	20.983299
1078.315653	-3.009500	3.617800	-10.886000	24.957894	0.000953	20.972675
1079.308592	-3.013600	3.616800	-10.899000	25.001531	0.000952	20.963371
1080.310825	-3.001200	3.617700	-10.856000	25.006112	0.000951	20.972709
1081.320796	-2.991600	3.618100	-10.823000	25.044567	0.000951	20.969111
1082.314455	-3.008600	3.615500	-10.875000	25.058941	0.000952	20.974055
1083.315613	-3.016200	3.614900	-10.903000	25.086615	0.000950	20.956320
1084.319718	-3.017700	3.614300	-10.904000	25.105407	0.000952	20.960011
1085.313537	-3.011200	3.614900	-10.884000	25.101841	0.000950	20.975394
1086.310202	-2.998900	3.614700	-10.839000	25.060417	0.000949	20.979330
1087.313801	-2.987900	3.614300	-10.798000	25.043514	0.000950	20.944824
1088.312560	-3.014000	3.614800	-10.894000	25.038546	0.000950	20.957379
1089.320459	-3.018400	3.613100	-10.904000	25.028703	0.000948	20.966937
1090.316050	-3.011100	3.612600	-10.877000	25.020479	0.000949	20.951098
1091.312349	-2.996400	3.613600	-10.827000	25.066155	0.000950	20.954747
1092.315739	-3.015800	3.612700	-10.895000	25.048079	0.000948	20.942293
1093.311226	-2.982800	3.614100	-10.779000	25.095465	0.000947	20.968047
1094.319498	-3.010700	3.611000	-10.870000	25.053797	0.000945	20.945189
1095.312646	-3.001400	3.612400	-10.840000	25.047219	0.000946	20.953757
1096.321551	-2.984200	3.613100	-10.781000	25.065793	0.000945	20.943480
1097.314643	-2.997400	3.610500	-10.819000	25.120416	0.000945	20.965593
1098.314326	-3.002700	3.611900	-10.844000	25.126800	0.000944	20.934548
1099.315622	-2.996700	3.611700	-10.823000	25.145078	0.000945	20.937724
1100.318352	-3.010700	3.609300	-10.865000	25.108962	0.000944	20.946512
1101.315135	-3.009800	3.609200	-10.862000	25.118603	0.000943	20.942439
1102.316451	-2.990900	3.611000	-10.799000	25.097626	0.000944	20.949356
1103.325599	-2.985800	3.612300	-10.784000	25.053505	0.000942	20.930198
1104.317052	-2.979500	3.609700	-10.753000	25.060767	0.000941	20.946970
1105.320771	-3.017900	3.610100	-10.894000	25.076608	0.000942	20.951965
1106.317127	-3.003300	3.609500	-10.839000	25.117280	0.000940	20.928785
1107.325376	-2.985400	3.609500	-10.775000	25.132546	0.000941	20.944583
1108.319835	-2.999500	3.607900	-10.820000	25.133019	0.000942	20.934627
1109.317068	-2.997900	3.607800	-10.814000	25.119743	0.000942	20.924620
1110.320784	-2.981300	3.608200	-10.756000	25.143647	0.000939	20.931546
1111.319945	-3.010700	3.606200	-10.855000	25.156273	0.000940	20.939005
1112.324923	-3.006200	3.607200	-10.843000	25.175419	0.000940	20.926933
1113.322982	-2.983100	3.606300	-10.756000	25.161107	0.000938	20.932478
1114.325623	-2.990900	3.606800	-10.787000	25.182360	0.000938	20.934375
1115.318350	-2.970500	3.608000	-10.716000	25.175605	0.000936	20.942765
1116.323718	-2.996700	3.607500	-10.809000	25.183567	0.000935	20.946491
1117.325020	-2.996000	3.604800	-10.799000	25.176651	0.000937	20.935281
1118.327782	-3.015600	3.605100	-10.871000	25.207005	0.000937	20.943468
1119.319683	-2.990900	3.604900	-10.781000	25.220238	0.000938	20.920247
1120.323372	-2.999400	3.604800	-10.811000	25.190779	0.000935	20.912957
1121.323530	-2.990300	3.603700	-10.775000	25.205242	0.000935	20.957818
1122.325507	-2.990400	3.606100	-10.782000	25.200681	0.000934	20.936646
1123.326283	-3.019500	3.603400	-10.879000	25.211543	0.000935	20.933801
1124.334503	-2.987400	3.604700	-10.767000	25.214234	0.000934	20.929865
1125.330691	-2.993000	3.603100	-10.782000	25.203422	0.000933	20.929442
1126.336795	-3.021800	3.602500	-10.884000	25.212776	0.000933	20.922712
1127.323151	-3.025700	3.602400	-10.898000	25.208820	0.000932	20.937231
1128.323509	-2.995900	3.602700	-10.791000	25.188613	0.000932	20.922162
1129.329322	-3.002600	3.603000	-10.817000	25.176384	0.000931	20.927902
1130.325880	-3.001800	3.601400	-10.810000	25.181833	0.000931	20.931475
1131.328967	-2.977900	3.602000	-10.725000	25.159542	0.000928	20.907677
1132.326621	-2.982200	3.602000	-10.741000	25.173382	0.000929	20.922992
1133.336084	-3.019300	3.601000	-10.871000	25.179176	0.000930	20.920749
1134.327533	-3.001500	3.601100	-10.807000	25.175458	0.000928	20.922231
1135.323211	-3.003800	3.601300	-10.817000	25.181959	0.000929	20.915483
1136.324727	-2.979100	3.601100	-10.726000	25.148359	0.000927	20.914941
1137.334146	-2.991200	3.601100	-10.770000	25.143712	0.000928	20.905061
1138.330355	-2.998800	3.601000	-10.797000	25.138516	0.000927	20.915492
1139.334923	-3.026300	3.598200	-10.888000	25.124026	0.000926	20.907111
1140.324629	-2.990200	3.600000	-10.763000	25.153614	0.000927	20.910260
1141.330376	-2.987200	3.599600	-10.752000	25.160353	0.000927	20.934093
1142.328043	-3.025700	3.597900	-10.886000	25.120663	0.000927	20.908475
1143.327355	-2.990600	3.598100	-10.758000	25.115559	0.000927	20.920894
1144.327200	-3.010100	3.597100	-10.826000	25.125386	0.000926	20.874339
1145.333357	-3.010400	3.596900	-10.827000	25.126870	0.000924	20.915180
1146.327064	-3.011800	3.596400	-10.831000	25.140652	0.000925	20.922851
1147.333699	-2.985300	3.597100	-10.737000	25.136924	0.000925	20.927169
1148.335206	-2.988200	3.596900	-10.748000	25.155699	0.000923	20.909983
1149.337650	-2.984000	3.596300	-10.731000	25.138519	0.000924	20.918339
1150.331241	-2.985000	3.595800	-10.731000	25.090309	0.000921	20.909773
1151.327960	-2.988100	3.596200	-10.745000	25.076155	0.000923	20.888454
1152.327535	-3.005100	3.596100	-10.806000	24.998342	0.000920	20.905649
1153.342678	-2.989300	3.595300	-10.747000	25.000333	0.000919	20.901484
1154.327633	-2.995200	3.595300	-10.768000	24.996360	0.000921	20.906979
1155.325765	-2.995600	3.594600	-10.766000	25.003024	0.000920	20.880005
1156.332308	-2.994900	3.594700	-10.764000	24.995349	0.000919	20.917816
1157.338491	-2.991200	3.596100	-10.755000	25.000814	0.000919	20.911449
1158.326754	-3.017300	3.593000	-10.840000	24.979059	0.000920	20.911898
1159.329882	-3.013000	3.593500	-10.826000	24.992717	0.000917	20.902848
1160.329121	-3.013400	3.593200	-10.826000	25.022772	0.000916	20.903144
1161.335016	-3.014400	3.592700	-10.829000	25.000015	0.000917	20.906380
1162.337986	-2.986100	3.592200	-10.725000	25.020638	0.000917	20.900529
1163.328768	-3.002000	3.591700	-10.781000	25.047715	0.000916	20.882665
1164.330298	-2.975200	3.592000	-10.685000	25.086136	0.000915	20.883775
1165.342229	-3.013500	3.591300	-10.821000	25.079143	0.000915	20.893350
1166.332023	-3.005600	3.591800	-10.794000	25.073627	0.000915	20.893503
1167.336462	-2.996200	3.590800	-10.758000	25.100551	0.000916	20.894451
1168.341621	-3.009300	3.591300	-10.807000	25.109585	0.000913	20.902571
1169.328702	-2.985000	3.591200	-10.719000	25.148569	0.000914	20.913256
1170.335878	-3.000800	3.590800	-10.775000	25.153394	0.000913	20.887282
1171.341434	-3.006900	3.590400	-10.794000	25.158732	0.000911	20.887899
1172.343069	-2.998800	3.589000	-10.761000	25.161448	0.000911	20.885885
1173.329221	-3.003700	3.589800	-10.781000	25.175693	0.000911	20.891176
1174.339715	-2.980500	3.589600	-10.698000	25.150198	0.000911	20.895927
1175.340576	-2.994000	3.590400	-10.748000	25.122661	0.000910	20.903843
1176.333409	-2.990200	3.588700	-10.729000	25.139690	0.000909	20.913825
1177.337132	-3.015100	3.587500	-10.816000	25.151675	0.000909	20.907366
1178.335264	-3.003500	3.588200	-10.776000	25.161593	0.000908	20.894091
1179.333935	-3.001100	3.588900	-10.769000	25.167759	0.000909	20.904546
1180.349074	-3.011600	3.587000	-10.801000	25.153209	0.000907	20.913647
1181.338086	-2.993600	3.586100	-10.735000	25.171208	0.000907	20.889992
1182.337389	-3.011700	3.585900	-10.799000	25.228136	0.000906	20.870808
1183.347275	-2.997700	3.585600	-10.748000	25.233341	0.000906	20.902109
1184.333858	-2.988500	3.585900	-10.715000	25.217882	0.000904	20.864307
1185.340644	-2.997600	3.584900	-10.745000	25.241125	0.000904	20.896174
1186.337350	-3.007900	3.585900	-10.785000	25.204851	0.000904	20.906223
1187.335732	-3.003600	3.584300	-10.764000	25.210275	0.000903	20.886065
1188.336016	-3.001400	3.585500	-10.760000	25.236352	0.000903	20.875737
1189.338032	-3.007800	3.583900	-10.778000	25.217175	0.000904	20.897259
1190.347974	-2.997400	3.584500	-10.744000	25.227454	0.000904	20.898570
1191.338591	-3.006200	3.582600	-10.769000	25.251997	0.000903	20.883383
1192.339744	-2.997700	3.582400	-10.737000	25.219191	0.000901	20.894542
1193.341777	-2.998300	3.583600	-10.742000	25.257638	0.000903	20.873875
1194.341511	-3.017800	3.582400	-10.810000	25.265195	0.000901	20.886676
1195.336645	-3.004600	3.582300	-10.762000	25.296642	0.000904	20.867043
1196.345219	-2.991500	3.582600	-10.715000	25.268703	0.000901	20.876449
1197.354764	-3.011900	3.579700	-10.780000	25.295007	0.000901	20.879150
1198.342271	-2.996500	3.581300	-10.730000	25.298541	0.000899	20.884121
1199.347687	-2.980700	3.582500	-10.678000	25.310229	0.000899	20.867409
1200.342543	-2.978900	3.580000	-10.663000	25.337046	0.000901	20.877263
1201.343725	-2.983000	3.580400	-10.679000	25.351719	0.000898	20.890573
1202.346868	-3.006000	3.580600	-10.761000	25.351643	0.000896	20.862998
1203.346647	-2.993700	3.579900	-10.715000	25.308797	0.000895	20.879246
1204.342040	-3.006400	3.580000	-10.762000	25.280319	0.000897	20.880525
1205.345543	-2.989600	3.578900	-10.699000	25.264937	0.000896	20.866504
1206.344134	-3.001100	3.577700	-10.737000	25.214683	0.000897	20.869155
1207.343518	-3.011500	3.576700	-10.771000	25.183958	0.000895	20.876241
1208.349773	-2.998700	3.578600	-10.729000	25.146798	0.000894	20.861696
1209.345719	-2.976900	3.577500	-10.648000	25.104305	0.000894	20.874040
1210.352170	-3.015000	3.577200	-10.785000	25.116123	0.000893	20.893014
1211.345025	-2.996700	3.577000	-10.719000	25.110220	0.000892	20.884718
1212.357042	-2.992100	3.577300	-10.702000	25.119591	0.000891	20.872789
1213.350080	-3.028400	3.576800	-10.830000	25.143409	0.000891	20.868725
1214.351910	-3.013100	3.576400	-10.774000	25.184770	0.000892	20.873737
1215.346337	-3.000600	3.577300	-10.733000	25.196846	0.000891	20.868792
1216.352081	-3.009900	3.574900	-10.759000	25.200365	0.000891	20.870902
1217.347863	-3.012700	3.574400	-10.768000	25.230667	0.000891	20.872874
1218.346413	-3.016200	3.573300	-10.777000	25.240239	0.000892	20.869683
1219.354377	-3.007500	3.575000	-10.750000	25.216524	0.000891	20.876219
1220.350671	-2.986100	3.576500	-10.677000	25.227294	0.000888	20.869014
1221.347376	-3.008100	3.573800	-10.750000	25.222007	0.000888	20.875560
1222.349102	-3.034900	3.572600	-10.841000	25.240873	0.000887	20.870319
1223.349826	-3.001000	3.574200	-10.725000	25.247982	0.000885	20.854698
1224.348069	-3.002500	3.572900	-10.726000	25.259529	0.000886	20.875299
1225.345055	-3.002400	3.572200	-10.723000	25.269792	0.000886	20.873275
1226.351508	-2.999900	3.573100	-10.718000	25.289475	0.000886	20.870752
1227.353446	-2.987500	3.572700	-10.673000	25.276210	0.000887	20.868814
1228.346338	-3.030600	3.571700	-10.824000	25.319144	0.000886	20.868298
1229.354492	-3.013400	3.571100	-10.760000	25.312507	0.000885	20.864954
1230.351197	-3.006100	3.571300	-10.735000	25.305255	0.000883	20.866207
1231.354581	-3.021800	3.569100	-10.783000	25.312684	0.000882	20.856123
1232.359133	-2.979200	3.572100	-10.641000	25.330553	0.000884	20.874538
1233.352334	-2.994500	3.570300	-10.690000	25.332949	0.000881	20.862246
1234.350039	-3.006300	3.570800	-10.733000	25.326785	0.000881	20.857005
1235.364398	-2.992900	3.569900	-10.684000	25.282682	0.000883	20.859665
1236.362206	-2.992800	3.570400	-10.685000	25.275116	0.000881	20.846380
1237.353240	-2.988500	3.571200	-10.671000	25.261852	0.000882	20.863407
1238.348916	-3.005400	3.567900	-10.722000	25.298723	0.000879	20.853011
1239.361819	-2.992300	3.569600	-10.681000	25.280473	0.000880	20.840852
1240.355126	-3.011100	3.567800	-10.741000	25.276603	0.000880	20.867311
1241.362421	-3.010900	3.567600	-10.741000	25.279167	0.000879	20.873678
1242.354770	-3.015400	3.567900	-10.756000	25.306811	0.000876	20.849752
1243.352634	-3.010700	3.567200	-10.739000	25.325111	0.000878	20.848686
1244.351749	-3.017900	3.566300	-10.762000	25.334302	0.000878	20.861233
1245.357989	-2.994400	3.567900	-10.682000	25.353293	0.000877	20.848534
1246.355454	-3.003700	3.567500	-10.715000	25.321881	0.000877	20.840228
1247.361196	-2.991600	3.566600	-10.668000	25.322616	0.000876	20.862302
1248.354071	-2.987400	3.566400	-10.654000	25.301660	0.000875	20.851219
1249.363174	-2.995100	3.565100	-10.677000	25.301914	0.000875	20.851948
1250.352967	-2.999600	3.566100	-10.696000	25.306899	0.000872	20.856479
1251.354635	-2.988300	3.565500	-10.653000	25.324718	0.000875	20.859196
1252.355002	-3.015600	3.564700	-10.749000	25.338244	0.000875	20.840537
1253.361143	-3.010400	3.562900	-10.723000	25.358550	0.000874	20.843381
1254.356617	-2.990100	3.563500	-10.653000	25.363374	0.000871	20.855811
1255.360037	-3.001800	3.563500	-10.694000	25.395367	0.000873	20.853322
1256.355821	-2.985600	3.563500	-10.637000	25.404196	0.000871	20.840852
1257.355352	-2.968000	3.563900	-10.577000	25.407872	0.000872	20.849758
1258.358460	-3.018300	3.563200	-10.753000	25.436011	0.000871	20.844349
1259.360448	-2.986100	3.562600	-10.638000	25.418473	0.000869	20.863721
1260.358479	-2.984500	3.563400	-10.634000	25.457091	0.000871	20.850344
1261.363571	-3.002800	3.562600	-10.696000	25.427673	0.000869	20.831235
1262.359366	-2.993100	3.561300	-10.658000	25.468711	0.000869	20.836409
1263.359799	-3.018500	3.560400	-10.746000	25.442311	0.000867	20.826494
1264.358207	-2.981800	3.560800	-10.616000	25.376415	0.000867	20.848043
1265.357427	-3.001400	3.560000	-10.684000	25.323820	0.000866	20.837434
1266.359910	-3.000700	3.559500	-10.679000	25.306341	0.000867	20.838376
1267.354760	-3.009400	3.560900	-10.715000	25.290950	0.000866	20.838096
1268.372878	-3.012200	3.558700	-10.719000	25.274396	0.000866	20.842337
1269.363534	-3.012100	3.557900	-10.716000	25.294763	0.000867	20.862785
1270.360699	-2.999800	3.559100	-10.676000	25.312860	0.000863	20.845869
1271.365736	-2.999200	3.558800	-10.672000	25.317456	0.000864	20.833415
1272.365011	-3.005300	3.557400	-10.690000	25.285632	0.000865	20.834178
1273.370809	-3.009800	3.557400	-10.705000	25.244082	0.000865	20.829921
1274.365639	-2.996900	3.558300	-10.663000	25.246342	0.000863	20.829819
1275.371171	-2.979900	3.558800	-10.604000	25.265578	0.000861	20.832536
1276.361513	-3.026700	3.555700	-10.760000	25.272992	0.000860	20.822910
1277.361807	-3.002400	3.555600	-10.673000	25.266491	0.000861	20.832504
1278.374861	-2.984800	3.556700	-10.614000	25.265622	0.000860	20.846331
1279.366052	-3.014600	3.554500	-10.715000	25.240836	0.000860	20.820972
1280.360908	-2.988800	3.557500	-10.631000	25.212905	0.000859	20.828966
1281.367105	-2.992600	3.554800	-10.637000	25.185141	0.000859	20.846137
1282.362544	-2.993500	3.553900	-10.638000	25.164959	0.000859	20.820660
1283.372771	-3.004200	3.555300	-10.680000	25.160759	0.000857	20.850108
1284.369419	-2.985500	3.553400	-10.607000	25.191636	0.000857	20.826105
1285.371679	-3.010700	3.554700	-10.701000	25.218617	0.000856	20.882113
1286.365143	-2.999300	3.554300	-10.659000	25.226468	0.000856	20.829780
1287.366976	-3.000900	3.553700	-10.664000	25.216652	0.000855	20.816606
1288.370733	-3.007900	3.554000	-10.688000	25.248101	0.000854	20.832059
1289.366244	-3.012500	3.553300	-10.703000	25.212461	0.000854	20.832313
1290.366135	-2.996200	3.552900	-10.644000	25.273831	0.000855	20.814745
1291.368452	-3.001700	3.551200	-10.658000	25.268012	0.000853	20.817911
1292.374546	-3.001800	3.551400	-10.659000	25.301029	0.000853	20.833042
1293.369006	-2.978600	3.552800	-10.582000	25.300810	0.000851	20.823814
1294.373188	-2.974300	3.552400	-10.566000	25.319396	0.000854	20.836784
1295.370540	-3.007700	3.550600	-10.677000	25.322315	0.000853	20.833551
1296.366387	-3.009700	3.550300	-10.684000	25.353751	0.000851	20.822916
1297.367967	-2.997300	3.552800	-10.648000	25.334206	0.000851	20.829370
1298.368355	-2.993400	3.550700	-10.627000	25.318099	0.000849	20.807983
1299.373116	-3.007100	3.550200	-10.675000	25.281923	0.000851	20.803429
1300.369954	-3.002700	3.548300	-10.653000	25.302449	0.000849	20.806019
1301.370824	-2.994100	3.549600	-10.626000	25.308908	0.000847	20.821513
1302.366502	-3.025300	3.549000	-10.736000	25.298107	0.000849	20.815410
1303.379573	-3.019700	3.548500	-10.715000	25.342497	0.000850	20.825841
1304.373800	-2.979900	3.548700	-10.574000	25.356268	0.000846	20.823547
1305.380876	-3.006500	3.547600	-10.665000	25.384407	0.000849	20.819559
1306.375347	-2.993500	3.548400	-10.621000	25.360578	0.000847	20.843047
1307.371610	-2.981100	3.547800	-10.575000	25.365173	0.000846	20.824428
1308.372580	-3.011800	3.546600	-10.681000	25.339962	0.000845	20.817606
1309.374127	-2.992600	3.547500	-10.615000	25.311729	0.000846	20.819130
1310.369638	-3.018400	3.546800	-10.704000	25.278545	0.000844	20.808571
1311.377676	-2.992600	3.544800	-10.607000	25.299273	0.000845	20.817529
1312.374964	-2.993100	3.544600	-10.608000	25.309571	0.000842	20.813170
1313.370579	-3.006800	3.545800	-10.660000	25.291498	0.000844	20.806878
1314.381122	-3.013500	3.545800	-10.684000	25.312287	0.000841	20.815423
1315.374682	-3.016500	3.544100	-10.690000	25.293153	0.000844	20.826083
1316.372495	-3.016400	3.543800	-10.688000	25.298043	0.000840	20.815820
1317.371678	-2.984900	3.545200	-10.580000	25.310474	0.000843	20.806490
1318.375538	-3.012600	3.544400	-10.677000	25.312575	0.000843	20.826143
1319.377752	-3.011100	3.543300	-10.668000	25.270561	0.000839	20.824737
1320.378694	-3.007600	3.544200	-10.658000	25.241163	0.000839	20.826516
1321.380329	-3.008100	3.541600	-10.652000	25.231540	0.000840	20.823967
1322.374481	-2.987100	3.542300	-10.580000	25.231717	0.000840	20.807550
1323.381628	-3.003000	3.542900	-10.639000	25.246754	0.000839	20.826439
1324.378767	-2.985800	3.542400	-10.576000	25.256260	0.000838	20.840250
1325.373081	-2.996000	3.542100	-10.610000	25.281280	0.000837	20.819852
1326.380853	-2.994800	3.542500	-10.609000	25.315358	0.000836	20.800963
1327.388155	-3.003600	3.539300	-10.630000	25.299986	0.000837	20.833892
1328.382747	-2.988000	3.541100	-10.579000	25.326666	0.000834	20.789083
1329.374027	-3.009700	3.540400	-10.656000	25.353761	0.000836	20.831461
1330.374207	-2.989100	3.541500	-10.585000	25.386750	0.000834	20.821911
1331.376742	-2.993900	3.541200	-10.601000	25.379860	0.000834	20.831588
1332.387567	-2.974500	3.541100	-10.533000	25.383916	0.000833	20.817644
1333.379863	-2.979900	3.540400	-10.549000	25.366597	0.000833	20.822064
1334.378553	-3.008200	3.538000	-10.641000	25.342783	0.000834	20.809058
1335.383100	-3.016900	3.536800	-10.669000	25.301622	0.000832	20.815620
1336.394980	-2.981700	3.538400	-10.549000	25.279512	0.000830	20.822344
1337.382240	-2.974000	3.539900	-10.526000	25.258174	0.000831	20.812301
1338.382564	-3.017700	3.536000	-10.669000	25.238836	0.000832	20.834611
1339.380456	-3.010300	3.536900	-10.647000	25.267436	0.000831	20.812117
1340.390619	-2.983400	3.537200	-10.552000	25.289099	0.000831	20.826280
1341.384449	-2.982200	3.536800	-10.546000	25.339426	0.000829	20.818964
1342.381557	-3.009200	3.536300	-10.640000	25.363763	0.000830	20.804995
1343.383563	-3.000400	3.534600	-10.604000	25.405546	0.000828	20.820871
1344.383095	-2.987100	3.536700	-10.563000	25.416929	0.000829	20.828508
1345.383408	-2.997500	3.535300	-10.596000	25.457015	0.000828	20.843629
1346.379188	-2.984500	3.536300	-10.553000	25.453684	0.000827	20.820371
1347.388613	-2.985200	3.535200	-10.552000	25.481298	0.000826	20.828186
1348.396337	-3.006900	3.533100	-10.623000	25.479933	0.000826	20.825867
1349.390843	-3.000100	3.533100	-10.598000	25.455389	0.000826	20.837730
1350.389943	-3.002700	3.534200	-10.611000	25.453871	0.000825	20.821981
1351.384739	-2.984900	3.535700	-10.553000	25.384316	0.000824	20.807140
1352.385145	-2.982600	3.533700	-10.537000	25.362534	0.000824	20.823674
1353.397628	-3.011100	3.532600	-10.636000	25.353485	0.000823	20.814115
1354.387728	-2.978600	3.533300	-10.524000	25.371145	0.000822	20.812406
1355.390881	-2.990900	3.532200	-10.562000	25.312141	0.000823	20.814802
1356.384246	-3.003600	3.531300	-10.605000	25.302224	0.000822	20.826182
1357.388661	-2.987700	3.532200	-10.552000	25.305108	0.000820	20.840931
1358.397179	-3.015000	3.531700	-10.648000	25.279490	0.000821	20.836072
1359.391312	-3.022600	3.530700	-10.671000	25.274117	0.000820	20.812187
1360.391813	-2.992900	3.531500	-10.568000	25.283436	0.000820	20.846672
1361.389222	-3.006300	3.529100	-10.609000	25.263366	0.000817	20.852600
1362.388657	-3.002500	3.530200	-10.598000	25.270501	0.000817	20.834634
1363.389984	-3.000100	3.528500	-10.585000	25.287502	0.000818	20.823254
1364.385781	-3.031000	3.527900	-10.691000	25.272913	0.000819	20.853650
1365.389079	-2.999800	3.528500	-10.584000	25.228941	0.000818	20.834160
1366.388893	-2.976500	3.530300	-10.507000	25.251224	0.000818	20.839935
1367.395332	-2.991300	3.529900	-10.558000	25.293194	0.000818	20.846038
1368.395279	-2.992800	3.527900	-10.557000	25.300627	0.000813	20.827897
1369.393296	-2.999100	3.529000	-10.583000	25.290878	0.000816	20.834704
1370.387806	-3.008400	3.527600	-10.610000	25.239477	0.000816	20.828142
1371.391900	-3.016300	3.526800	-10.637000	25.253503	0.000815	20.829422
1372.394088	-3.011600	3.526200	-10.618000	25.280640	0.000814	20.843865
1373.390231	-3.002700	3.526100	-10.587000	25.283560	0.000812	20.835417
1374.393168	-3.029100	3.525100	-10.678000	25.292244	0.000812	20.824222
1375.392727	-2.987200	3.526700	-10.534000	25.289826	0.000812	20.829855
1376.402789	-2.998700	3.525100	-10.569000	25.282016	0.000811	20.872272
1377.390638	-2.977000	3.525700	-10.495000	25.249211	0.000811	20.851665
1378.389246	-3.025400	3.523700	-10.659000	25.239379	0.000810	20.847009
1379.396341	-2.982900	3.526000	-10.516000	25.235880	0.000811	20.845393
1380.391498	-2.989300	3.524700	-10.535000	25.233366	0.000809	20.837654
1381.397867	-2.982600	3.524800	-10.512000	25.247332	0.000811	20.847881
1382.394265	-2.987900	3.523500	-10.527000	25.211591	0.000809	20.856094
1383.395040	-3.008300	3.522700	-10.596000	25.213860	0.000809	20.865011
1384.394002	-2.986700	3.523600	-10.523000	25.204618	0.000809	20.862844
1385.393548	-2.992900	3.522700	-10.543000	25.213195	0.000809	20.849644
1386.392898	-3.002900	3.522400	-10.576000	25.220742	0.000807	20.839204
1387.392570	-3.009300	3.522400	-10.599000	25.261697	0.000808	20.849975
1388.399583	-2.972100	3.523300	-10.470000	25.293683	0.000808	20.847952
1389.401175	-3.000200	3.522700	-10.567000	25.284340	0.000807	20.861803
1390.396269	-3.021300	3.521000	-10.636000	25.291322	0.000806	20.870710
1391.401020	-3.020900	3.520400	-10.633000	25.334946	0.000804	20.857138
1392.401361	-3.019500	3.520700	-10.629000	25.341735	0.000804	20.865377
1393.396684	-3.001500	3.520300	-10.565000	25.375963	0.000807	20.852804
1394.401009	-2.979400	3.521500	-10.490000	25.398857	0.000805	20.845922
1395.397146	-3.001400	3.520600	-10.566000	25.403259	0.000805	20.865514
1396.398900	-3.022100	3.518000	-10.631000	25.375475	0.000803	20.870805
1397.403926	-3.005400	3.519400	-10.576000	25.359714	0.000801	20.848343
1398.399919	-3.009700	3.519500	-10.592000	25.356190	0.000801	20.883209
1399.398937	-3.014100	3.517300	-10.600000	25.362785	0.000800	20.868021
1400.401207	-3.014000	3.517000	-10.600000	25.379110	0.000801	20.858809
1401.400877	-3.003600	3.516900	-10.562000	25.381262	0.000799	20.864289
1402.402421	-3.000800	3.517500	-10.553000	25.390351	0.000799	20.865829
1403.399050	-3.011500	3.518300	-10.594000	25.395378	0.000799	20.885099
1404.398644	-3.006600	3.516700	-10.572000	25.410133	0.000798	20.861511
1405.408414	-2.983500	3.515000	-10.486000	25.415784	0.000797	20.871926
1406.402366	-3.002600	3.516200	-10.557000	25.394880	0.000795	20.900246
1407.403568	-2.989700	3.515700	-10.508000	25.357803	0.000797	20.870605
1408.411027	-2.979400	3.514900	-10.472000	25.327067	0.000795	20.888107
1409.408440	-2.995500	3.514800	-10.528000	25.300318	0.000796	20.856509
1410.404592	-3.034500	3.513900	-10.660000	25.261105	0.000796	20.875932
1411.405382	-3.023200	3.512800	-10.619000	25.259048	0.000797	20.863436
1412.413242	-2.990800	3.512100	-10.503000	25.239776	0.000794	20.886286
1413.414074	-3.001700	3.514300	-10.547000	25.249064	0.000794	20.895610
1414.412739	-3.004900	3.512500	-10.554000	25.245194	0.000794	20.869441
1415.414119	-3.008700	3.511300	-10.563000	25.280537	0.000794	20.888330
1416.409832	-2.999800	3.511700	-10.533000	25.308131	0.000792	20.864353
1417.405875	-2.996500	3.511300	-10.521000	25.336414	0.000792	20.876629
1418.411378	-3.002100	3.511500	-10.541000	25.324441	0.000792	20.882150
1419.412458	-3.010500	3.511200	-10.570000	25.314726	0.000793	20.858648
1420.409805	-3.018900	3.509900	-10.594000	25.330066	0.000791	20.882109
1421.407624	-2.988500	3.509700	-10.488000	25.360543	0.000792	20.882838
1422.411049	-3.029900	3.507700	-10.627000	25.384255	0.000789	20.882466
1423.405805	-3.005300	3.510300	-10.548000	25.394491	0.000790	20.888950
1424.410144	-3.012700	3.508700	-10.569000	25.383386	0.000787	20.888231
1425.420882	-2.986100	3.509800	-10.479000	25.417664	0.000787	20.877607
1426.408735	-2.994500	3.506400	-10.498000	25.438811	0.000787	20.895047
1427.414392	-3.012400	3.508500	-10.568000	25.441309	0.000788	20.873375
1428.409951	-2.959300	3.509400	-10.384000	25.458500	0.000789	20.896327
1429.406075	-3.014600	3.507500	-10.573000	25.501401	0.000787	20.863071
1430.407759	-2.998700	3.507800	-10.518000	25.511022	0.000787	20.879370
1431.418050	-2.997500	3.506500	-10.510000	25.518424	0.000786	20.882062
1432.417951	-3.014600	3.505400	-10.566000	25.527395	0.000785	20.891544
1433.408519	-3.004400	3.505800	-10.532000	25.543433	0.000785	20.890106
1434.412923	-3.011000	3.506500	-10.557000	25.521115	0.000784	20.880022
1435.418395	-2.987200	3.505300	-10.469000	25.511758	0.000784	20.875841
1436.425791	-2.980600	3.507400	-10.453000	25.467054	0.000784	20.886425
1437.410966	-3.015200	3.504200	-10.565000	25.489744	0.000782	20.887398
1438.410711	-2.986500	3.505000	-10.467000	25.466186	0.000784	20.882708
1439.422083	-2.995800	3.505000	-10.499000	25.478640	0.000785	20.889050
1440.407850	-3.008400	3.503300	-10.539000	25.467536	0.000781	20.879797
1441.423898	-2.994900	3.503500	-10.492000	25.481280	0.000782	20.903079
1442.411706	-3.003200	3.502700	-10.519000	25.482503	0.000782	20.924694
1443.418486	-2.978700	3.504100	-10.437000	25.477629	0.000781	20.907000
1444.414486	-2.996500	3.502400	-10.494000	25.483000	0.000778	20.884420
1445.411920	-3.000900	3.502200	-10.509000	25.486062	0.000779	20.892236
1446.421340	-2.987000	3.503700	-10.465000	25.508776	0.000779	20.898924
1447.409672	-3.014300	3.500200	-10.550000	25.535952	0.000778	20.916256
1448.412195	-2.998500	3.502900	-10.502000	25.557493	0.000777	20.906122
1449.415375	-3.013400	3.500800	-10.548000	25.580089	0.000778	20.895151
1450.427184	-3.011500	3.499900	-10.538000	25.614477	0.000777	20.907401
1451.428025	-2.992700	3.500300	-10.474000	25.619518	0.000777	20.911515
1452.413323	-3.014200	3.499700	-10.548000	25.630960	0.000776	20.907360
1453.419618	-2.994200	3.498500	-10.473000	25.608898	0.000777	20.918392
1454.426486	-2.998600	3.500000	-10.494000	25.589871	0.000776	20.905922
1455.423258	-3.023400	3.497400	-10.572000	25.562244	0.000775	20.908996
1456.417306	-3.016500	3.498100	-10.551000	25.521700	0.000774	20.917116
1457.415811	-3.020500	3.498800	-10.567000	25.545491	0.000774	20.913034
1458.416358	-3.017300	3.496600	-10.547000	25.528706	0.000775	20.922255
1459.418288	-3.025400	3.496700	-10.578000	25.559050	0.000774	20.913374
1460.417361	-3.001500	3.498000	-10.498000	25.542154	0.000772	20.912528
1461.430143	-3.017100	3.497000	-10.550000	25.529188	0.000772	20.921791
1462.415694	-2.994900	3.496400	-10.470000	25.487892	0.000772	20.910193
1463.424923	-3.008500	3.495500	-10.515000	25.505083	0.000770	20.907542
1464.418085	-3.014900	3.496100	-10.539000	25.526938	0.000770	20.923325
1465.421164	-2.998000	3.495300	-10.477000	25.557155	0.000769	20.938970
1466.421020	-2.985700	3.496300	-10.438000	25.572644	0.000771	20.905691
1467.424904	-2.997500	3.495500	-10.476000	25.544915	0.000770	20.918619
1468.423182	-3.003400	3.495000	-10.494000	25.561211	0.000768	20.926449
1469.423234	-2.993000	3.495400	-10.461000	25.574812	0.000769	20.935365
1470.425570	-2.984000	3.494600	-10.427000	25.588529	0.000769	20.924012
1471.418061	-3.010200	3.493500	-10.515000	25.590072	0.000768	20.932673
1472.419154	-3.016400	3.493800	-10.537000	25.593006	0.000769	20.925190
1473.423993	-2.992100	3.492900	-10.451000	25.622454	0.000768	20.939591
1474.422317	-2.996500	3.492200	-10.464000	25.602341	0.000768	20.946890
1475.420124	-3.037500	3.490000	-10.598000	25.631257	0.000765	20.938948
1476.417629	-2.997600	3.491400	-10.465000	25.645978	0.000764	20.933820
1477.419716	-2.996100	3.490500	-10.455000	25.694729	0.000765	20.938214
1478.420870	-3.013300	3.489800	-10.514000	25.691308	0.000764	20.935252
1479.424684	-2.998000	3.490400	-10.462000	25.665663	0.000765	20.958329
1480.422519	-3.019500	3.488500	-10.531000	25.628637	0.000764	20.942007
1481.423136	-3.005800	3.488700	-10.485000	25.565931	0.000764	20.951575
1482.427757	-3.001800	3.489600	-10.474000	25.522301	0.000761	20.935261
1483.423929	-3.019400	3.488700	-10.532000	25.472480	0.000763	20.933120
1484.423860	-2.998500	3.486900	-10.453000	25.442768	0.000761	20.940741
1485.422951	-3.015000	3.487800	-10.514000	25.478694	0.000762	20.937463
1486.428078	-2.999300	3.488100	-10.461000	25.441874	0.000763	20.932732
1487.425804	-2.996200	3.486800	-10.446000	25.464970	0.000761	20.940751
1488.420955	-3.011900	3.487000	-10.502000	25.407556	0.000758	20.940945
1489.421697	-2.991500	3.487200	-10.430000	25.409252	0.000761	20.949759
1490.424352	-2.993500	3.486200	-10.435000	25.401859	0.000760	20.951818
1491.428405	-3.027900	3.485000	-10.552000	25.430191	0.000759	20.944706
1492.420326	-3.023100	3.484700	-10.534000	25.470554	0.000758	20.958210
1493.425698	-3.004000	3.485800	-10.471000	25.508714	0.000759	20.957176
1494.436339	-2.998400	3.484900	-10.447000	25.539347	0.000759	20.931518
1495.426669	-2.994600	3.485100	-10.436000	25.582580	0.000757	20.947433
1496.425429	-3.012500	3.483600	-10.494000	25.566883	0.000755	20.946368
1497.430619	-2.998500	3.485300	-10.450000	25.582758	0.000755	20.945715
1498.424170	-3.013700	3.482900	-10.495000	25.601089	0.000756	20.953219
1499.425553	-3.015000	3.482000	-10.496000	25.645264	0.000753	20.943059
1500.429676	-3.012800	3.484200	-10.497000	25.663761	0.000754	20.969694
1501.422794	-2.999600	3.483700	-10.449000	25.670177	0.000755	20.974241
1502.438346	-2.981000	3.482900	-10.381000	25.693005	0.000753	20.951653
1503.431847	-3.000000	3.482200	-10.445000	25.703477	0.000753	20.952688
1504.429690	-3.035700	3.479900	-10.563000	25.661512	0.000753	20.961272
1505.432214	-3.001700	3.480600	-10.446000	25.664842	0.000753	20.957979
1506.435871	-3.015600	3.481200	-10.496000	25.592037	0.000754	20.979685
1507.427291	-3.008500	3.481500	-10.473000	25.576619	0.000751	20.979374
1508.436087	-3.032600	3.479100	-10.550000	25.568475	0.000750	20.968352
1509.430243	-2.994800	3.481200	-10.425000	25.592300	0.000749	20.957668
1510.432515	-3.010400	3.478200	-10.470000	25.624287	0.000749	20.976040
1511.428097	-3.004600	3.478400	-10.450000	25.645557	0.000748	20.964687
1512.431784	-3.001500	3.478600	-10.440000	25.636967	0.000749	20.967440
1513.431287	-2.964000	3.479400	-10.312000	25.652445	0.000746	20.981086
1514.434676	-2.994100	3.477600	-10.411000	25.657268	0.000748	20.979292
1515.430574	-2.999200	3.478600	-10.432000	25.635678	0.000748	20.987952
1516.433123	-2.993100	3.476700	-10.405000	25.647709	0.000747	20.976804
1517.429458	-2.988800	3.478100	-10.394000	25.663953	0.000746	20.964197
1518.430168	-2.989200	3.478400	-10.396000	25.671861	0.000747	20.981621
1519.427020	-3.014500	3.476900	-10.481000	25.689531	0.000746	20.966654
1520.431226	-3.003400	3.476000	-10.439000	25.697161	0.000747	20.984746
1521.428087	-3.003100	3.476900	-10.440000	25.718632	0.000746	20.980708
1522.435605	-2.998400	3.475000	-10.418000	25.737819	0.000746	20.999029
1523.438436	-3.007500	3.475300	-10.451000	25.721693	0.000746	20.980463
1524.432039	-2.993500	3.475800	-10.404000	25.714317	0.000742	20.964523
1525.438789	-2.988900	3.475000	-10.384000	25.723464	0.000744	20.983190
1526.430377	-2.986700	3.474800	-10.378000	25.750229	0.000742	20.988736
1527.433832	-3.006800	3.473100	-10.442000	25.752412	0.000743	20.989506
1528.439524	-2.978600	3.474300	-10.347000	25.763446	0.000740	20.992529
1529.432810	-2.972700	3.474600	-10.327000	25.749833	0.000743	20.987865
1530.437203	-3.023700	3.472200	-10.498000	25.713434	0.000741	20.985917
1531.433583	-2.989200	3.472100	-10.378000	25.661809	0.000741	20.973897
1532.431353	-2.997200	3.470900	-10.402000	25.672002	0.000742	20.989822
1533.441322	-3.018400	3.470500	-10.474000	25.630001	0.000742	20.999319
1534.433419	-3.007500	3.470400	-10.436000	25.593085	0.000741	20.992590
1535.435446	-3.021800	3.470400	-10.486000	25.605614	0.000739	21.015126
1536.440009	-2.994500	3.470700	-10.392000	25.610487	0.000738	20.968819
1537.431018	-3.011600	3.470000	-10.449000	25.641275	0.000739	20.992151
1538.431796	-2.993200	3.470200	-10.385000	25.616802	0.000740	21.001235
1539.437723	-2.978400	3.470700	-10.336000	25.588922	0.000736	21.011639
1540.435630	-2.988300	3.468100	-10.363000	25.587084	0.000738	20.998416
1541.434748	-2.979200	3.468600	-10.332000	25.577845	0.000737	20.995775
1542.433393	-2.984200	3.469400	-10.352000	25.626026	0.000736	20.991060
1543.434131	-2.995800	3.468400	-10.390000	25.649834	0.000736	21.009278
1544.432091	-2.977800	3.469100	-10.329000	25.673540	0.000735	21.005114
1545.434927	-2.976900	3.469600	-10.328000	25.624655	0.000734	21.024764
1546.438559	-3.007100	3.466500	-10.423000	25.639711	0.000737	21.002906
1547.438004	-2.987800	3.466500	-10.354000	25.599516	0.000736	20.988143
1548.441296	-2.993100	3.465600	-10.371000	25.600602	0.000734	20.986390
1549.437639	-3.011400	3.465500	-10.435000	25.611918	0.000735	20.999648
1550.442225	-2.987700	3.465500	-10.353000	25.624142	0.000733	21.010501
1551.440772	-2.994600	3.464500	-10.373000	25.639376	0.000731	21.001621
1552.437835	-3.021400	3.463800	-10.464000	25.691955	0.000730	20.988051
1553.436934	-3.006500	3.464800	-10.416000	25.717330	0.000732	20.998364
1554.444453	-3.003600	3.462900	-10.400000	25.747197	0.000732	20.980002
1555.445533	-2.991100	3.464000	-10.361000	25.737755	0.000733	20.986639
1556.441863	-2.994600	3.463500	-10.370000	25.775646	0.000732	20.993404
1557.442148	-2.998900	3.462400	-10.382000	25.768642	0.000729	20.974991
1558.448134	-3.005400	3.462100	-10.403000	25.748008	0.000730	20.984136
1559.442576	-3.013000	3.462000	-10.429000	25.688477	0.000729	20.971759
1560.442568	-3.006700	3.460800	-10.404000	25.625917	0.000728	20.990477
1561.445429	-2.994700	3.462700	-10.368000	25.617217	0.000728	21.009710
1562.449790	-2.992300	3.461900	-10.358000	25.583808	0.000728	20.964785
1563.458458	-3.001300	3.460600	-10.385000	25.596403	0.000727	20.979328
1564.446256	-3.002300	3.461000	-10.390000	25.636694	0.000728	20.964321
1565.442235	-3.008900	3.459900	-10.409000	25.633659	0.000728	20.973599
1566.439679	-2.976900	3.459200	-10.297000	25.672101	0.000726	20.992291
1567.446002	-3.030900	3.457900	-10.479000	25.694071	0.000727	20.964101
1568.440298	-2.980800	3.458000	-10.306000	25.728963	0.000726	20.973068
1569.447492	-2.994600	3.458900	-10.357000	25.718425	0.000726	20.959641
1570.445970	-2.983200	3.457900	-10.315000	25.714852	0.000723	20.966482
1571.445214	-3.012500	3.456800	-10.412000	25.694872	0.000722	20.963958
1572.444872	-2.976400	3.458200	-10.291000	25.686553	0.000724	20.950862
1573.450610	-3.001100	3.457800	-10.377000	25.660395	0.000723	20.944031
1574.444094	-2.998200	3.456900	-10.362000	25.677441	0.000723	20.962572
1575.448195	-3.015300	3.455600	-10.419000	25.690837	0.000721	20.957535
1576.456587	-3.002100	3.456600	-10.375000	25.686588	0.000722	20.953742
1577.441975	-3.017100	3.455200	-10.423000	25.688116	0.000722	20.959069
1578.452535	-2.996900	3.454800	-10.352000	25.667141	0.000720	20.969769
1579.451479	-2.984500	3.455200	-10.311000	25.642653	0.000722	20.974097
1580.446273	-2.990200	3.454500	-10.329000	25.646135	0.000721	20.950097
1581.446164	-2.987400	3.454500	-10.319000	25.671872	0.000719	20.954609
1582.450262	-2.985200	3.455100	-10.313000	25.658486	0.000719	20.980515
1583.448500	-2.994200	3.453900	-10.341000	25.645064	0.000718	20.967037
1584.456282	-3.003700	3.452400	-10.370000	25.633373	0.000717	20.968097
1585.449568	-2.987900	3.453400	-10.317000	25.600056	0.000719	20.967352
1586.448587	-2.992600	3.452400	-10.331000	25.619834	0.000716	20.968724
1587.450918	-2.994200	3.453300	-10.338000	25.652054	0.000716	20.956041
1588.446061	-2.992500	3.452000	-10.330000	25.640759	0.000717	20.947069
1589.448626	-3.012400	3.451200	-10.396000	25.635779	0.000715	20.952971
1590.451925	-2.990500	3.452100	-10.323000	25.685836	0.000715	20.955831
1591.461597	-2.990700	3.450800	-10.319000	25.632256	0.000714	20.953700
1592.454134	-2.988200	3.450400	-10.309000	25.612316	0.000714	20.947425
1593.448442	-3.015500	3.448600	-10.399000	25.593609	0.000714	20.962774
1594.454152	-2.985000	3.451300	-10.301000	25.615539	0.000711	20.936439
1595.448467	-2.967700	3.450300	-10.238000	25.642322	0.000713	20.944371
1596.451782	-3.013600	3.448700	-10.392000	25.656175	0.000712	20.949275
1597.449018	-3.010100	3.447300	-10.375000	25.614925	0.000711	20.961423
1598.450107	-3.006600	3.448300	-10.366000	25.583841	0.000712	20.936847
1599.455117	-3.007000	3.447200	-10.364000	25.598324	0.000711	20.931479
1600.462530	-2.993400	3.447700	-10.319000	25.607421	0.000711	20.942510
1601.457192	-2.981400	3.447700	-10.277000	25.613518	0.000710	20.945314
1602.454710	-3.003500	3.447100	-10.353000	25.601756	0.000710	20.945829
1603.455338	-3.006200	3.447100	-10.362000	25.630057	0.000710	20.933951
1604.458994	-2.988100	3.446400	-10.298000	25.655967	0.000710	20.953807
1605.453309	-2.999000	3.445900	-10.333000	25.662347	0.000709	20.934614
1606.465161	-2.997700	3.446800	-10.332000	25.654550	0.000708	20.955703
1607.453873	-2.990800	3.446200	-10.306000	25.654246	0.000708	20.922211
1608.450155	-3.004700	3.446200	-10.354000	25.651591	0.000706	20.942301
1609.467525	-3.003700	3.444700	-10.346000	25.662271	0.000708	20.941649
1610.455015	-3.005400	3.443600	-10.348000	25.667424	0.000707	20.942556
1611.452832	-2.982100	3.444500	-10.271000	25.612787	0.000705	20.929409
1612.469318	-2.997500	3.442500	-10.317000	25.637479	0.000704	20.951360
1613.455104	-2.995500	3.443500	-10.313000	25.628240	0.000705	20.921222
1614.457751	-2.998200	3.443300	-10.322000	25.629184	0.000703	20.939237
1615.462653	-3.001300	3.443600	-10.334000	25.619386	0.000705	20.940777
1616.461014	-3.017400	3.440600	-10.380000	25.626453	0.000702	20.944080
1617.461679	-2.999400	3.440900	-10.319000	25.632549	0.000703	20.910852
1618.462042	-3.017100	3.440500	-10.380000	25.647301	0.000702	20.928986
1619.457575	-2.994900	3.441300	-10.304000	25.666708	0.000702	20.926192
1620.463781	-2.979400	3.440800	-10.250000	25.651281	0.000701	20.906906
1621.456898	-3.004500	3.439200	-10.332000	25.668834	0.000699	20.919320
1622.460274	-3.017400	3.437900	-10.373000	25.637793	0.000700	20.923704
1623.464346	-3.003800	3.438800	-10.328000	25.610908	0.000699	20.914247
1624.466591	-3.018800	3.439600	-10.383000	25.572987	0.000700	20.932110
1625.457853	-2.997900	3.438200	-10.306000	25.595354	0.000700	20.938452
1626.457430	-2.986100	3.439300	-10.268000	25.650641	0.000698	20.929495
1627.463388	-2.998300	3.437300	-10.303000	25.672586	0.000698	20.917872
1628.456743	-3.000600	3.437200	-10.313000	25.710418	0.000697	20.931687
1629.463329	-3.003000	3.437300	-10.320000	25.707789	0.000698	20.927624
1630.472242	-2.978200	3.436600	-10.233000	25.720164	0.000697	20.920141
1631.457508	-2.992800	3.436800	-10.285000	25.749929	0.000696	20.908313
1632.470466	-3.000100	3.436700	-10.310000	25.764344	0.000696	20.910939
1633.462346	-3.030500	3.434300	-10.406000	25.757187	0.000695	20.929826
1634.463616	-3.003700	3.435600	-10.318000	25.782195	0.000695	20.940247
1635.463718	-2.996700	3.434700	-10.292000	25.808426	0.000694	20.918708
1636.471366	-2.994600	3.434500	-10.285000	25.834346	0.000693	20.918667
1637.461276	-3.007700	3.433500	-10.326000	25.807147	0.000693	20.918846
1638.463970	-2.995500	3.433500	-10.283000	25.791519	0.000694	20.921639
1639.463704	-2.995200	3.432000	-10.279000	25.705783	0.000695	20.924662
1640.469845	-2.995000	3.433500	-10.282000	25.687540	0.000693	20.910133
1641.473230	-3.014400	3.431300	-10.343000	25.620132	0.000693	20.924458
1642.473308	-2.984800	3.434100	-10.249000	25.645265	0.000692	20.897546
1643.466953	-2.975800	3.434100	-10.218000	25.680687	0.000691	20.930275
1644.476802	-2.991300	3.432000	-10.265000	25.680982	0.000690	20.922037
1645.472302	-3.003800	3.432000	-10.307000	25.716052	0.000690	20.904632
1646.468263	-2.996000	3.432300	-10.282000	25.747680	0.000691	20.927864
1647.466795	-3.006400	3.431200	-10.314000	25.733584	0.000690	20.919870
1648.469559	-3.013900	3.430400	-10.338000	25.734655	0.000690	20.903878
1649.467054	-2.971600	3.430300	-10.192000	25.712966	0.000688	20.935668
1650.463952	-2.998800	3.429900	-10.284000	25.734386	0.000688	20.926839
1651.467079	-2.994600	3.428000	-10.266000	25.705169	0.000690	20.913141
1652.469898	-2.979700	3.430200	-10.220000	25.748035	0.000689	20.908308
1653.473375	-3.025300	3.426200	-10.365000	25.750832	0.000689	20.940985
1654.468617	-2.996800	3.427900	-10.271000	25.785377	0.000687	20.919737
1655.478631	-3.006400	3.427500	-10.303000	25.775287	0.000688	20.893009
1656.473212	-3.000000	3.427800	-10.282000	25.733021	0.000685	20.912667
1657.473741	-3.024800	3.427800	-10.367000	25.733198	0.000685	20.906208
1658.476535	-3.007400	3.426600	-10.304000	25.733614	0.000683	20.917530
1659.471384	-3.016300	3.426600	-10.334000	25.742599	0.000685	20.906641
1660.480855	-3.001300	3.425700	-10.281000	25.716839	0.000684	20.913482
1661.478377	-3.000900	3.426700	-10.281000	25.669951	0.000684	20.928027
1662.485007	-2.997500	3.426500	-10.270000	25.642722	0.000685	20.907319
1663.474016	-2.986200	3.424600	-10.225000	25.608192	0.000683	20.881650
1664.474277	-2.997100	3.425400	-10.264000	25.586703	0.000682	20.917912
1665.473328	-3.015700	3.424800	-10.326000	25.606110	0.000681	20.901843
1666.472387	-3.015900	3.424800	-10.328000	25.639031	0.000683	20.921154
1667.484598	-3.012900	3.423700	-10.314000	25.654062	0.000682	20.901165
1668.485014	-2.993800	3.422900	-10.246000	25.682879	0.000680	20.920624
1669.474141	-3.017500	3.420900	-10.321000	25.701382	0.000681	20.913604
1670.476134	-2.986900	3.422800	-10.223000	25.715021	0.000679	20.908812
1671.487359	-3.010200	3.422400	-10.301000	25.728391	0.000681	20.893794
1672.477115	-3.011500	3.421200	-10.302000	25.754364	0.000679	20.903760
1673.479464	-2.999600	3.421900	-10.262000	25.753024	0.000679	20.916637
1674.475253	-2.984400	3.421800	-10.210000	25.790468	0.000678	20.904463
1675.480895	-3.001900	3.420500	-10.267000	25.821941	0.000680	20.900992
1676.476822	-3.018400	3.420400	-10.323000	25.821697	0.000678	20.913074
1677.482833	-3.008100	3.421300	-10.290000	25.836010	0.000678	20.906589
1678.483352	-3.010500	3.419500	-10.293000	25.828737	0.000679	20.900232
1679.481107	-2.985400	3.420200	-10.209000	25.810496	0.000675	20.919839
1680.483109	-2.991800	3.419800	-10.230000	25.829833	0.000675	20.901807
1681.463193	-2.987600	3.418300	-10.211000	25.799979	0.000677	20.907379
1682.477521	-3.016500	3.417700	-10.309000	25.833340	0.000675	20.917657
1683.495939	-2.985300	3.419500	-10.207000	25.832498	0.000675	20.895475
1684.495200	-2.970800	3.418600	-10.155000	25.842116	0.000674	20.891387
1685.479975	-2.991400	3.418200	-10.224000	25.798167	0.000674	20.897499
1686.464984	-3.005900	3.416000	-10.267000	25.805603	0.000674	20.918243
1687.481040	-3.008500	3.416900	-10.278000	25.797873	0.000674	20.885351
1688.483865	-3.014000	3.416500	-10.296000	25.790807	0.000673	20.900064
1689.488597	-3.018200	3.416500	-10.311000	25.804440	0.000672	20.895740
1690.482109	-3.026400	3.415200	-10.335000	25.784666	0.000671	20.920445
1691.481945	-2.997300	3.415500	-10.236000	25.791492	0.000672	20.903122
1692.461483	-3.021100	3.414700	-10.314000	25.771956	0.000669	20.883974
1693.465532	-3.006400	3.416300	-10.270000	25.736314	0.000670	20.911233
1694.462508	-3.007200	3.413400	-10.264000	25.725771	0.000670	20.901593
1695.464627	-2.989600	3.414300	-10.206000	25.732867	0.000670	20.885488
1696.464338	-2.987700	3.413800	-10.197000	25.719533	0.000670	20.878733
1697.480786	-3.001300	3.412800	-10.242000	25.730862	0.000668	20.891534
1698.483173	-2.976100	3.413900	-10.159000	25.717543	0.000669	20.906604
1699.471625	-3.000300	3.412700	-10.238000	25.746415	0.000668	20.893405
1700.493544	-3.006500	3.411600	-10.256000	25.728233	0.000667	20.905962
1701.493277	-2.996200	3.412200	-10.222000	25.746171	0.000668	20.891264
1702.480398	-3.011000	3.411400	-10.270000	25.734278	0.000667	20.897336
1703.486934	-3.038800	3.410600	-10.363000	25.736040	0.000668	20.910958
1704.470210	-3.002100	3.410400	-10.237000	25.723801	0.000667	20.907200
1705.466917	-2.993000	3.411400	-10.209000	25.750171	0.000666	20.911401
1706.467264	-3.007800	3.409800	-10.254000	25.752176	0.000666	20.885916
1707.466302	-3.004500	3.410800	-10.247000	25.743039	0.000666	20.902816
1708.469333	-2.994600	3.408900	-10.206000	25.736009	0.000664	20.897178
1709.469543	-2.992200	3.409600	-10.201000	25.743359	0.000665	20.879906
1710.466575	-3.010600	3.407800	-10.259000	25.740232	0.000665	20.902367
1711.468429	-2.984300	3.408300	-10.169000	25.758744	0.000663	20.881134
1712.470069	-2.988300	3.409300	-10.186000	25.746039	0.000664	20.892080
1713.467634	-2.979000	3.409100	-10.155000	25.737603	0.000664	20.884555
1714.472455	-2.976400	3.408800	-10.145000	25.732857	0.000661	20.887848
1715.472091	-3.005800	3.408600	-10.244000	25.744810	0.000661	20.885631
1716.491798	-2.991700	3.409100	-10.198000	25.743993	0.000662	20.894292
1717.495636	-2.992400	3.406300	-10.191000	25.745023	0.000661	20.891060
1718.491544	-2.998400	3.406100	-10.211000	25.757018	0.000660	20.901684
1719.489317	-3.014500	3.405800	-10.266000	25.774113	0.000660	20.877606
1720.495936	-2.998200	3.404500	-10.206000	25.789665	0.000660	20.877581
1721.495699	-3.002200	3.405300	-10.222000	25.748825	0.000658	20.883974
1722.476514	-2.981700	3.404600	-10.151000	25.753327	0.000656	20.881858
1723.478503	-2.996000	3.404300	-10.198000	25.794699	0.000658	20.900654
1724.491371	-2.985800	3.405000	-10.165000	25.806323	0.000657	20.886252
1725.496568	-3.031900	3.402900	-10.316000	25.834999	0.000655	20.872860
1726.494696	-2.997200	3.403800	-10.200000	25.836618	0.000657	20.863107
1727.499310	-2.992400	3.404600	-10.186000	25.849860	0.000655	20.877356
1728.491692	-2.990000	3.403000	-10.174000	25.858330	0.000656	20.896295
1729.498607	-3.026100	3.400300	-10.288000	25.869197	0.000656	20.868332
1730.499650	-2.994100	3.403400	-10.189000	25.859604	0.000654	20.847318
1731.473672	-2.989200	3.401800	-10.168000	25.892197	0.000655	20.879110
1732.477538	-2.992200	3.401900	-10.178000	25.884605	0.000654	20.870535
1733.477044	-2.992300	3.401400	-10.176000	25.879961	0.000653	20.883887
1734.476823	-3.013300	3.400400	-10.244000	25.839049	0.000655	20.881195
1735.481172	-3.015200	3.401800	-10.256000	25.823330	0.000654	20.885319
1736.481923	-3.004000	3.401300	-10.217000	25.820270	0.000653	20.842893
1737.476837	-3.012500	3.399800	-10.241000	25.809038	0.000653	20.870015
1738.480801	-3.002400	3.399400	-10.205000	25.828507	0.000652	20.863494
1739.478628	-2.994400	3.398000	-10.174000	25.824310	0.000650	20.875872
1740.478891	-3.000000	3.398900	-10.196000	25.818544	0.000649	20.860598
1741.479383	-2.979000	3.398700	-10.124000	25.791664	0.000649	20.859676
1742.477923	-2.988800	3.397300	-10.153000	25.763991	0.000649	20.848475
1743.506462	-3.006800	3.398600	-10.218000	25.718557	0.000648	20.858314
1744.495464	-2.994100	3.398400	-10.174000	25.704598	0.000647	20.869897
1745.512011	-3.043200	3.396800	-10.335000	25.704319	0.000647	20.871988
1746.494415	-2.979400	3.397700	-10.122000	25.745845	0.000648	20.871972
1747.504928	-3.001700	3.395300	-10.191000	25.788893	0.000646	20.859737
1748.486465	-3.001100	3.395000	-10.188000	25.807185	0.000645	20.870050
1749.506742	-2.979200	3.397000	-10.119000	25.798460	0.000644	20.862235
1750.512829	-2.986600	3.395400	-10.139000	25.781822	0.000645	20.868755
1751.510481	-3.005800	3.394900	-10.203000	25.795080	0.000643	20.846512
1752.503260	-2.985000	3.396500	-10.138000	25.760682	0.000643	20.859849
1753.508789	-2.986200	3.394600	-10.136000	25.767727	0.000644	20.870244
1754.512735	-3.010200	3.393000	-10.212000	25.770417	0.000645	20.875791
1755.502903	-3.002600	3.394300	-10.190000	25.790217	0.000644	20.858697
1756.485288	-3.015900	3.392900	-10.231000	25.770341	0.000640	20.850586
1757.516184	-3.001800	3.392100	-10.181000	25.809581	0.000640	20.847328
1758.498819	-3.011600	3.391900	-10.214000	25.766194	0.000642	20.845946
1759.508179	-3.021100	3.391400	-10.245000	25.783365	0.000640	20.854659
1760.512592	-3.009600	3.392200	-10.208000	25.791466	0.000640	20.867063
1761.504080	-2.996900	3.392400	-10.165000	25.817773	0.000639	20.862668
1762.504814	-3.014400	3.392700	-10.225000	25.844982	0.000640	20.847328
1763.506137	-2.996700	3.391100	-10.162000	25.844332	0.000639	20.843830
1764.509495	-2.990900	3.391300	-10.142000	25.839100	0.000637	20.846160
1765.510056	-3.001500	3.390300	-10.175000	25.791770	0.000639	20.857886
1766.503250	-3.014300	3.389400	-10.216000	25.754185	0.000637	20.838625
1767.516166	-3.018600	3.387900	-10.226000	25.765412	0.000639	20.854644
1768.505903	-2.998700	3.390200	-10.165000	25.742688	0.000638	20.836560
1769.509438	-3.018700	3.389400	-10.230000	25.742561	0.000636	20.853976
1770.507885	-2.994900	3.390500	-10.153000	25.759250	0.000637	20.869790
1771.506302	-3.006700	3.388500	-10.187000	25.749282	0.000636	20.838916
1772.491406	-2.994400	3.387900	-10.144000	25.770793	0.000638	20.842505
1773.490686	-2.996400	3.387500	-10.149000	25.784928	0.000636	20.854807
1774.489236	-2.998700	3.387300	-10.156000	25.820955	0.000635	20.858279
1775.516959	-3.026000	3.387500	-10.250000	25.846992	0.000634	20.853140
1776.511342	-3.025800	3.387800	-10.249000	25.880697	0.000633	20.848118
1777.515691	-2.997400	3.387100	-10.152000	25.844464	0.000636	20.846334
1778.491534	-2.962600	3.387200	-10.034000	25.854671	0.000634	20.837621
1779.516346	-2.995300	3.386700	-10.143000	25.799942	0.000632	20.839069
1780.516853	-2.974100	3.386600	-10.071000	25.813859	0.000631	20.853996
1781.516415	-3.011400	3.385600	-10.195000	25.806332	0.000631	20.863030
1782.522128	-3.010800	3.385500	-10.191000	25.853062	0.000630	20.846435
1783.495403	-3.001900	3.384500	-10.159000	25.848342	0.000630	20.856866
1784.511154	-2.983900	3.384700	-10.099000	25.846616	0.000630	20.837590
1785.520324	-2.995000	3.385000	-10.137000	25.832918	0.000631	20.848485
1786.495832	-2.992700	3.383800	-10.126000	25.798638	0.000628	20.854353
1787.500918	-2.995300	3.383800	-10.134000	25.833603	0.000630	20.826415
1788.509797	-3.007100	3.383900	-10.174000	25.837201	0.000627	20.839512
1789.495656	-2.993300	3.384000	-10.128000	25.861375	0.000626	20.825864
1790.496906	-3.005300	3.384300	-10.170000	25.847291	0.000626	20.844906
1791.500792	-2.991600	3.381900	-10.117000	25.795978	0.000626	20.822759
1792.498486	-3.009300	3.382500	-10.178000	25.791562	0.000626	20.847720
1793.525453	-2.980100	3.382400	-10.079000	25.761057	0.000625	20.820873
1794.523772	-3.020100	3.381700	-10.212000	25.782340	0.000625	20.821862
1795.520514	-3.011900	3.379600	-10.178000	25.768163	0.000625	20.840338
1796.526923	-3.000400	3.380500	-10.142000	25.772960	0.000624	20.831880
1797.522111	-3.014400	3.380400	-10.189000	25.784837	0.000625	20.820577
1798.528450	-2.998900	3.378200	-10.129000	25.755393	0.000624	20.829407
1799.518756	-2.981500	3.381800	-10.082000	25.749408	0.000623	20.840940
1800.522122	-2.997300	3.379000	-10.127000	25.733419	0.000622	20.841475
1801.500237	-2.995600	3.380400	-10.126000	25.761220	0.000621	20.826251
1802.525115	-3.016700	3.378900	-10.191000	25.786989	0.000620	20.845972
1803.516418	-2.993500	3.378500	-10.113000	25.791735	0.000621	20.852635
1804.520762	-2.992500	3.378900	-10.109000	25.808383	0.000619	20.842331
1805.533517	-2.978400	3.379500	-10.064000	25.845261	0.000619	20.831487
1806.521371	-3.011600	3.377700	-10.172000	25.884259	0.000621	20.847430
1807.521016	-2.989600	3.377600	-10.097000	25.890405	0.000619	20.819940
1808.520536	-3.006800	3.376000	-10.150000	25.919719	0.000619	20.835637
1809.519258	-2.999700	3.377600	-10.130000	25.912030	0.000619	20.827439
1810.520137	-3.004000	3.375800	-10.140000	25.939745	0.000618	20.818772
1811.535057	-2.993700	3.375100	-10.103000	25.958852	0.000616	20.832752
1812.520211	-2.980700	3.376300	-10.063000	25.945764	0.000617	20.830509
1813.525583	-3.023500	3.375400	-10.204000	25.973198	0.000615	20.843372
1814.517112	-2.991800	3.375600	-10.097000	25.969641	0.000616	20.834582
1815.524498	-3.004600	3.375100	-10.140000	25.953787	0.000616	20.827664
1816.523350	-2.990500	3.375600	-10.094000	25.975573	0.000614	20.848128
1817.520487	-2.971100	3.375000	-10.026000	25.957893	0.000614	20.850280
1818.524955	-3.000200	3.374100	-10.122000	25.950671	0.000613	20.830697
1819.514997	-2.983300	3.372900	-10.062000	25.914279	0.000615	20.836336
1820.500831	-3.016200	3.373300	-10.173000	25.879387	0.000615	20.830208
1821.527344	-2.982700	3.372100	-10.056000	25.850443	0.000614	20.835745
1822.516436	-3.013900	3.372600	-10.164000	25.817732	0.000613	20.845085
1823.520144	-3.018200	3.373100	-10.180000	25.802384	0.000610	20.824926
1824.518349	-2.992400	3.372100	-10.090000	25.802663	0.000608	20.836112
1825.521753	-3.028100	3.370500	-10.205000	25.841216	0.000612	20.827898
1826.503904	-2.984100	3.372000	-10.061000	25.888939	0.000611	20.828898
1827.502432	-3.011100	3.370500	-10.148000	25.922257	0.000611	20.843876
1828.517619	-2.996700	3.370000	-10.098000	25.939872	0.000610	20.840710
1829.526031	-3.018300	3.370200	-10.171000	25.991366	0.000609	20.842658
1830.525427	-2.993800	3.369800	-10.087000	25.991594	0.000610	20.843362
1831.526781	-3.005800	3.370000	-10.129000	26.000333	0.000608	20.830330
1832.523955	-3.002800	3.368800	-10.114000	25.985053	0.000608	20.821143
1833.529392	-3.005500	3.368500	-10.123000	25.962141	0.000609	20.824676
1834.526097	-3.019900	3.367800	-10.170000	25.943709	0.000607	20.833660
1835.530874	-3.005600	3.366800	-10.118000	25.919344	0.000607	20.828623
1836.506567	-2.993600	3.367900	-10.080000	25.907402	0.000606	20.833221
1837.507173	-3.002500	3.368000	-10.111000	25.895704	0.000606	20.845651
1838.510794	-3.004800	3.367400	-10.116000	25.892273	0.000605	20.852161
1839.508891	-3.010200	3.366900	-10.134000	25.911127	0.000605	20.853558
1840.507030	-2.999900	3.367100	-10.100000	25.905550	0.000603	20.831360
1841.513098	-2.997100	3.366500	-10.089000	25.925195	0.000603	20.826441
1842.508063	-3.017600	3.364300	-10.151000	25.920232	0.000604	20.830463
1843.506744	-3.005000	3.366400	-10.116000	25.896643	0.000605	20.823835
1844.508770	-3.003900	3.364500	-10.105000	25.831766	0.000602	20.847328
1845.510634	-3.008900	3.365600	-10.126000	25.819554	0.000602	20.822260
1846.508084	-3.005400	3.365000	-10.113000	25.769544	0.000602	20.845992
1847.511620	-3.010200	3.365400	-10.129000	25.780899	0.000600	20.844596
1848.509266	-3.003900	3.365200	-10.109000	25.795288	0.000600	20.828230
1849.528928	-3.007600	3.364700	-10.118000	25.818955	0.000599	20.827822
1850.531997	-3.027300	3.363700	-10.182000	25.851880	0.000598	20.858524
1851.531810	-3.017600	3.362900	-10.146000	25.869192	0.000598	20.846043
1852.527322	-3.020300	3.361900	-10.153000	25.852169	0.000599	20.827996
1853.533445	-2.985000	3.362600	-10.036000	25.846520	0.000598	20.843183
1854.536609	-3.004300	3.362200	-10.101000	25.847094	0.000597	20.839492
1855.535351	-3.002900	3.362400	-10.096000	25.885377	0.000595	20.858983
1856.531466	-3.002400	3.360500	-10.089000	25.911452	0.000598	20.848669
1857.511593	-3.013100	3.360200	-10.122000	25.948429	0.000595	20.868746
1858.515590	-2.997200	3.362000	-10.075000	25.937893	0.000596	20.862429
1859.536273	-3.011300	3.360400	-10.118000	25.988570	0.000595	20.851228
1860.512119	-2.973900	3.362200	-9.997300	26.024270	0.000594	20.856276
1861.515840	-2.993300	3.361900	-10.063000	26.009549	0.000596	20.847650
1862.534604	-2.989100	3.361600	-10.046000	26.006007	0.000594	20.844091
1863.533568	-2.974000	3.361800	-9.997500	26.014705	0.000595	20.838605
1864.540021	-2.987600	3.359500	-10.035000	26.014436	0.000592	20.854456
1865.531783	-2.948300	3.360500	-9.906100	25.999308	0.000593	20.855853
1866.528504	-2.971100	3.358800	-9.978500	26.032801	0.000592	20.858208
1867.541821	-3.011200	3.358900	-10.114000	26.044228	0.000592	20.857836
1868.531932	-2.985100	3.358600	-10.024000	26.051627	0.000590	20.866691
1869.540069	-2.993600	3.357000	-10.047000	26.051089	0.000592	20.843393
1870.535725	-2.986400	3.358600	-10.028000	26.062785	0.000588	20.874583
1871.549067	-2.996500	3.357600	-10.060000	26.074340	0.000590	20.856796
1872.531850	-2.987500	3.358500	-10.033000	26.089466	0.000588	20.854925
1873.533159	-3.016800	3.356500	-10.125000	26.110407	0.000588	20.847517
1874.536189	-2.996000	3.356900	-10.057000	26.116247	0.000588	20.859075
1875.536458	-2.984900	3.356300	-10.018000	26.127446	0.000588	20.858947
1876.536591	-3.013400	3.354800	-10.108000	26.114832	0.000587	20.858127
1877.539795	-3.025800	3.354300	-10.147000	26.114116	0.000586	20.863571
1878.534130	-3.008600	3.354300	-10.091000	26.097448	0.000585	20.852514
1879.514219	-2.981000	3.354800	-10.000000	26.094500	0.000588	20.854767
1880.514663	-3.004000	3.353900	-10.075000	26.108951	0.000586	20.860278
1881.513612	-3.000500	3.354800	-10.064000	26.101512	0.000585	20.851856
1882.514497	-3.004500	3.352800	-10.072000	26.112787	0.000584	20.859391
1883.514642	-3.013200	3.354700	-10.107000	26.143804	0.000585	20.849781
1884.532375	-2.993500	3.353300	-10.037000	26.151507	0.000583	20.855624
1885.540564	-3.013600	3.353000	-10.104000	26.145829	0.000583	20.859876
1886.536797	-2.993600	3.353500	-10.038000	26.094916	0.000582	20.869409
1887.534253	-3.000000	3.351800	-10.054000	26.085158	0.000583	20.871459
1888.529822	-2.972700	3.353700	-9.968500	26.056169	0.000581	20.871255
1889.541682	-3.002900	3.351700	-10.064000	26.048207	0.000579	20.883169
1890.533009	-3.004600	3.351000	-10.067000	26.033258	0.000581	20.877158
1891.535119	-2.999100	3.351200	-10.050000	26.032035	0.000580	20.864076
1892.520696	-3.009200	3.350300	-10.081000	26.008667	0.000580	20.870470
1893.516735	-2.986200	3.350300	-10.004000	26.046396	0.000581	20.864280
1894.518352	-2.997900	3.348700	-10.038000	26.031994	0.000580	20.875889
1895.515618	-3.001700	3.349000	-10.051000	26.026813	0.000579	20.883485
1896.516605	-2.985900	3.349100	-9.999500	25.996625	0.000579	20.870699
1897.522791	-2.996600	3.350000	-10.038000	26.016213	0.000577	20.871413
1898.518275	-3.002700	3.349000	-10.054000	26.044797	0.000578	20.871209
1899.532644	-3.006600	3.348100	-10.065000	26.059589	0.000575	20.870424
1900.539033	-2.982000	3.348500	-9.984300	26.083022	0.000577	20.890648
1901.534159	-3.010100	3.347100	-10.074000	26.118704	0.000576	20.889042
1902.538884	-2.991900	3.347500	-10.014000	26.087493	0.000576	20.888502
1903.534073	-2.996700	3.347100	-10.029000	26.050659	0.000576	20.873305
1904.537292	-2.969000	3.348500	-9.940200	26.005775	0.000575	20.903597
1905.540558	-2.999700	3.346600	-10.038000	26.010672	0.000574	20.887182
1906.538287	-2.990000	3.347000	-10.007000	25.997787	0.000574	20.878031
1907.539518	-3.019500	3.343500	-10.094000	26.011484	0.000572	20.907436
1908.547989	-3.030200	3.345500	-10.136000	26.030772	0.000572	20.888410
1909.539347	-3.003800	3.344600	-10.045000	26.052237	0.000572	20.894329
1910.524383	-3.013300	3.345700	-10.081000	26.084489	0.000572	20.889277
1911.524366	-3.007800	3.343800	-10.056000	26.089569	0.000571	20.889639
1912.525590	-2.999800	3.344000	-10.030000	26.071697	0.000571	20.913880
1913.523853	-2.983100	3.343600	-9.972300	26.116249	0.000570	20.878515
1914.524215	-2.999600	3.343700	-10.029000	26.133846	0.000570	20.878179
1915.524501	-3.000200	3.343800	-10.031000	26.120709	0.000569	20.880626
1916.524592	-2.988800	3.343100	-9.990800	26.068709	0.000569	20.901870
1917.529658	-2.981700	3.343700	-9.968900	26.069642	0.000570	20.879102
1918.527031	-2.975600	3.342700	-9.944700	26.071322	0.000568	20.900702
1919.550768	-2.992000	3.342500	-10.000000	26.065644	0.000566	20.875085
1920.547346	-3.013500	3.340500	-10.066000	26.071754	0.000566	20.893550
1921.552328	-3.005700	3.341900	-10.043000	26.070135	0.000565	20.869640
1922.551001	-2.982000	3.341700	-9.963500	26.077863	0.000567	20.910592
1923.555002	-3.018200	3.340200	-10.081000	26.065517	0.000564	20.866423
1924.547234	-3.007500	3.340800	-10.046000	26.068359	0.000565	20.901044
1925.551409	-2.988300	3.339700	-9.978300	26.076777	0.000564	20.885796
1926.527283	-2.985100	3.339500	-9.967900	26.103458	0.000563	20.885103
1927.527100	-3.001900	3.340600	-10.027000	26.123937	0.000563	20.900463
1928.528852	-2.996100	3.340400	-10.007000	26.132405	0.000563	20.916557
1929.526866	-2.985600	3.338000	-9.964600	26.132035	0.000563	20.899591
1930.527464	-2.993500	3.340100	-9.997400	26.111795	0.000562	20.907702
1931.529908	-3.010600	3.338600	-10.050000	26.116514	0.000560	20.899168
1932.549034	-2.996100	3.336800	-9.996900	26.118909	0.000560	20.911531
1933.546834	-3.004100	3.337000	-10.024000	26.155487	0.000560	20.898501
1934.556930	-2.982100	3.339500	-9.957800	26.194216	0.000561	20.895218
1935.548112	-2.993700	3.337300	-9.988900	26.173388	0.000560	20.902737
1936.555159	-3.014200	3.336800	-10.056000	26.216033	0.000560	20.902916
1937.556508	-2.994400	3.336100	-9.989100	26.186321	0.000559	20.910517
1938.551075	-3.010100	3.334400	-10.035000	26.206073	0.000559	20.923251
1939.550570	-3.024100	3.334300	-10.082000	26.216439	0.000558	20.922762
1940.564210	-3.011200	3.335300	-10.041000	26.188919	0.000559	20.911705
1941.547889	-3.005400	3.335500	-10.023000	26.180106	0.000556	20.900953
1942.554212	-3.032500	3.333800	-10.109000	26.170704	0.000556	20.909523
1943.552551	-2.995100	3.333400	-9.983300	26.148577	0.000557	20.933279
1944.549912	-2.995800	3.333400	-9.985000	26.156127	0.000555	20.922375
1945.559340	-2.986500	3.333500	-9.953800	26.156142	0.000555	20.912908
1946.558248	-3.021200	3.332600	-10.067000	26.151520	0.000555	20.913005
1947.545818	-2.989500	3.333200	-9.961800	26.155229	0.000554	20.911043
1948.557951	-2.985800	3.332400	-9.948800	26.118819	0.000553	20.910018
1949.563783	-3.011500	3.330600	-10.029000	26.127911	0.000553	20.918680
1950.562334	-3.004100	3.333600	-10.014000	26.138511	0.000552	20.929803
1951.548659	-2.987100	3.331400	-9.950300	26.118357	0.000551	20.919985
1952.549551	-2.992400	3.331600	-9.968600	26.180467	0.000551	20.936400
1953.552207	-2.969100	3.332400	-9.893700	26.201467	0.000551	20.920994
1954.549841	-3.002000	3.331600	-10.000000	26.205257	0.000551	20.929543
1955.551444	-2.992700	3.330500	-9.966000	26.184993	0.000550	20.928621
1956.560966	-3.008400	3.330400	-10.018000	26.156655	0.000551	20.933810
1957.552711	-3.002800	3.330000	-9.998200	26.168285	0.000550	20.935539
1958.552624	-3.004800	3.328700	-10.001000	26.172750	0.000549	20.919638
1959.554510	-3.005100	3.329200	-10.003000	26.151272	0.000549	20.917971
1960.557601	-2.998300	3.330500	-9.984600	26.108356	0.000547	20.934590
1961.552285	-3.003000	3.327700	-9.992400	26.151562	0.000548	20.968516
1962.562497	-2.998700	3.328100	-9.978800	26.159010	0.000548	20.949925
1963.553029	-3.029900	3.326500	-10.077000	26.200001	0.000545	20.920943
1964.561025	-3.014100	3.328100	-10.030000	26.189478	0.000544	20.932179
1965.561503	-2.995900	3.327200	-9.966900	26.200930	0.000545	20.945107
1966.553165	-2.977300	3.328000	-9.907100	26.228627	0.000545	20.923630
1967.564678	-2.992200	3.327000	-9.953400	26.215349	0.000544	20.926883
1968.568273	-3.009200	3.326100	-10.007000	26.255928	0.000544	20.951536
1969.558868	-3.014700	3.325200	-10.024000	26.259484	0.000545	20.930931
1970.570220	-2.973000	3.328500	-9.893700	26.252828	0.000540	20.917605
1971.564931	-3.012100	3.324700	-10.013000	26.254675	0.000544	20.945536
1972.555398	-3.014700	3.325100	-10.023000	26.242712	0.000542	20.952954
1973.563110	-3.007000	3.326200	-10.001000	26.224234	0.000544	20.939603
1974.556849	-2.992900	3.324600	-9.948600	26.240556	0.000541	20.946995
1975.557924	-2.971200	3.327000	-9.882900	26.261265	0.000541	20.959270
1976.565067	-3.008500	3.322900	-9.995600	26.266847	0.000541	20.956344
1977.560729	-3.001700	3.323600	-9.974900	26.284852	0.000540	20.951206
1978.557134	-2.993300	3.323400	-9.946900	26.286090	0.000537	20.942968
1979.566628	-2.985700	3.324600	-9.925800	26.267202	0.000538	20.959546
1980.563005	-2.983500	3.322400	-9.910200	26.261565	0.000539	20.951038
1981.561779	-3.004900	3.323400	-9.985400	26.264828	0.000536	20.950049
1982.568485	-2.990600	3.320900	-9.930700	26.273255	0.000536	20.963257
1983.558536	-3.003400	3.322100	-9.976700	26.233890	0.000536	20.951201
1984.573096	-3.004100	3.321400	-9.977000	26.200795	0.000535	20.949239
1985.562466	-2.994000	3.320600	-9.940600	26.183874	0.000536	20.964002
1986.562252	-3.010100	3.318200	-9.986800	26.170748	0.000535	20.949866
1987.566186	-3.021400	3.319800	-10.029000	26.147921	0.000536	20.950161
1988.563071	-3.013000	3.319600	-10.000000	26.164269	0.000535	20.943830
1989.565879	-2.989800	3.320200	-9.925100	26.175427	0.000534	20.953144
1990.564621	-3.019000	3.320500	-10.024000	26.189456	0.000532	20.964869
1991.574967	-2.999200	3.320000	-9.955700	26.198548	0.000534	20.964522
1992.564966	-3.021200	3.316900	-10.019000	26.206569	0.000532	20.962626
1993.564327	-3.011700	3.317200	-9.989400	26.239253	0.000530	20.967968
1994.576242	-2.999400	3.318200	-9.951600	26.254682	0.000533	20.976359
1995.574835	-3.002400	3.317800	-9.960100	26.264819	0.000531	20.972322
1996.566347	-3.003900	3.316600	-9.961900	26.282251	0.000531	20.959022
1997.580947	-3.037600	3.315600	-10.070000	26.323450	0.000527	20.980983
1998.566934	-3.001300	3.316300	-9.953000	26.336635	0.000528	20.975268
1999.573059	-2.976200	3.319000	-9.876300	26.363055	0.000530	20.964365
2000.569938	-3.016400	3.315100	-9.998000	26.369174	0.000527	20.966246
2001.565680	-3.001400	3.315500	-9.949700	26.401036	0.000528	20.962234
2002.569743	-2.988400	3.315000	-9.904800	26.415483	0.000527	20.972960
2003.555568	-2.987000	3.315900	-9.904100	26.404922	0.000526	20.986051
2004.568862	-2.998500	3.316100	-9.941800	26.386716	0.000526	20.983874
2005.569439	-3.024300	3.315400	-10.026000	26.396532	0.000527	20.987101
2006.569778	-2.997200	3.314100	-9.931600	26.429454	0.000524	20.985103
2007.583011	-3.008300	3.313700	-9.967600	26.403010	0.000525	20.980336
2008.570707	-2.995200	3.313100	-9.921300	26.423691	0.000523	20.987371
2009.554863	-3.007300	3.313600	-9.963500	26.453041	0.000525	21.002169
2010.554567	-2.995600	3.313800	-9.926200	26.437955	0.000524	20.978950
2011.557915	-2.996600	3.313600	-9.929000	26.449927	0.000525	20.998092
2012.571379	-2.995100	3.312700	-9.921600	26.462638	0.000522	20.986688
2013.575271	-2.999900	3.311200	-9.932300	26.452757	0.000521	20.980077
2014.579103	-3.008000	3.312800	-9.963900	26.446904	0.000521	20.971824
2015.578569	-3.022900	3.309900	-10.004000	26.413333	0.000520	20.973170
2016.575388	-3.013300	3.310500	-9.974900	26.359130	0.000520	20.988391
2017.554687	-2.980300	3.311500	-9.867300	26.395391	0.000523	20.979792
2018.575890	-3.009900	3.308800	-9.957700	26.412705	0.000520	20.990553
2019.577339	-3.009400	3.309600	-9.958800	26.448304	0.000518	21.001202
2020.579278	-2.997200	3.308600	-9.915400	26.449197	0.000520	20.974602
2021.579421	-3.009300	3.310200	-9.961000	26.504121	0.000519	21.005621
2022.581774	-3.026000	3.307300	-10.007000	26.519292	0.000517	21.016127
2023.579698	-2.989000	3.309300	-9.890500	26.513555	0.000518	20.987607
2024.582012	-3.001000	3.308800	-9.928200	26.546788	0.000515	20.993510
2025.587018	-2.986800	3.307000	-9.876800	26.510786	0.000516	20.995727
2026.587235	-3.021500	3.306500	-9.989100	26.462543	0.000514	21.003659
2027.580103	-2.987400	3.307000	-9.878500	26.494403	0.000514	21.001544
2028.565649	-2.992400	3.306400	-9.892700	26.477598	0.000514	20.999352
2029.563779	-2.978100	3.307300	-9.848300	26.473251	0.000515	21.003517
2030.564341	-3.009900	3.306100	-9.949400	26.460220	0.000513	21.011280
2031.560050	-2.996700	3.306300	-9.907000	26.469132	0.000511	21.000326
2032.588842	-3.012800	3.305600	-9.958300	26.491695	0.000512	21.011622
2033.573427	-3.011300	3.306000	-9.954700	26.501514	0.000512	20.993521
2034.581637	-3.007000	3.305000	-9.936800	26.503513	0.000513	21.018759
2035.581753	-2.994000	3.305400	-9.895500	26.469549	0.000511	20.994581
2036.578837	-2.988600	3.304200	-9.873000	26.488991	0.000509	21.002742
2037.586261	-3.005900	3.303600	-9.929500	26.529443	0.000508	21.016847
2038.579303	-2.987800	3.303200	-9.868600	26.517127	0.000508	20.989775
2039.576594	-2.968700	3.303200	-9.805700	26.517853	0.000509	21.000459
2040.581619	-2.997900	3.302600	-9.899300	26.508698	0.000508	20.990784
2041.584082	-2.992400	3.301900	-9.880300	26.507689	0.000507	20.998778
2042.586302	-2.979500	3.303500	-9.841300	26.443650	0.000506	20.996050
2043.590265	-2.994600	3.301800	-9.885400	26.454612	0.000506	20.981466
2044.586112	-3.004200	3.301700	-9.917900	26.442996	0.000504	20.980697
2045.581075	-2.984700	3.301800	-9.854100	26.481501	0.000506	20.993318
2046.579322	-3.007800	3.302700	-9.932800	26.516089	0.000506	20.992523
2047.588068	-2.996900	3.300400	-9.890000	26.515409	0.000503	20.990418
2048.579981	-3.007800	3.300000	-9.924600	26.497895	0.000503	20.976609
2049.601344	-3.009400	3.299700	-9.929200	26.476728	0.000502	20.982359
2050.583738	-2.974600	3.300000	-9.814900	26.480923	0.000501	20.971878
2051.580213	-3.011600	3.298700	-9.933100	26.485600	0.000500	20.966149
2052.585612	-2.977400	3.299400	-9.822400	26.495035	0.000500	20.976105
2053.581059	-3.012700	3.298700	-9.936300	26.476916	0.000500	20.962163
2054.590137	-3.014300	3.297400	-9.938800	26.428657	0.000499	20.957279
2055.594671	-3.004000	3.297300	-9.902600	26.469278	0.000499	20.966338
2056.584385	-2.997200	3.296900	-9.880000	26.471992	0.000499	20.970014
2057.585955	-2.986600	3.297200	-9.846600	26.480356	0.000499	20.972257
2058.581991	-3.008600	3.296300	-9.916200	26.490795	0.000497	20.963785
2059.584942	-2.993100	3.296300	-9.865900	26.501899	0.000497	20.950291
2060.570048	-2.990200	3.296300	-9.855700	26.525358	0.000497	20.964860
2061.583465	-2.989700	3.297300	-9.857100	26.536268	0.000496	20.966818
2062.568499	-2.983100	3.297300	-9.835300	26.562044	0.000495	20.957643
2063.568914	-2.976300	3.295300	-9.806800	26.574617	0.000494	20.957953
2064.570882	-2.994600	3.295700	-9.869200	26.595636	0.000495	20.934988
2065.574355	-3.002600	3.295500	-9.894400	26.620660	0.000494	20.964882
2066.571320	-3.014100	3.294100	-9.927900	26.613392	0.000494	20.941932
2067.572365	-3.007500	3.292900	-9.901500	26.642545	0.000492	20.951322
2068.602771	-2.990100	3.295300	-9.852000	26.640709	0.000493	20.946158
2069.572878	-2.988600	3.293500	-9.841900	26.626214	0.000493	20.961931
2070.575653	-2.991100	3.292800	-9.847700	26.632026	0.000489	20.948809
2071.594474	-2.975700	3.294200	-9.799900	26.598538	0.000491	20.928423
2072.593057	-2.998200	3.293400	-9.873400	26.615108	0.000488	20.966886
2073.597736	-2.999600	3.290900	-9.870000	26.607956	0.000488	20.958276
2074.593933	-3.011800	3.290700	-9.909600	26.631717	0.000488	20.941387
2075.593681	-2.999500	3.290900	-9.870900	26.641734	0.000491	20.942922
2076.577027	-2.998900	3.289600	-9.863800	26.672660	0.000486	20.931340
2077.574707	-2.992200	3.290200	-9.842700	26.683305	0.000487	20.963374
2078.603107	-3.001000	3.289900	-9.872200	26.661595	0.000485	20.947714
2079.592475	-2.982000	3.290200	-9.809700	26.619617	0.000488	20.938707
2080.597457	-2.989400	3.289400	-9.832300	26.606385	0.000484	20.950059
2081.599420	-3.007700	3.289500	-9.892400	26.574615	0.000484	20.945150
2082.601674	-3.023700	3.287700	-9.938100	26.537950	0.000483	20.947174
2083.607524	-3.034600	3.287500	-9.975600	26.531817	0.000484	20.945752
2084.595518	-2.999400	3.289000	-9.864400	26.544731	0.000482	20.940716
2085.604695	-2.993900	3.287400	-9.841300	26.500096	0.000483	20.926671
2086.577265	-2.997900	3.288300	-9.856700	26.467217	0.000482	20.960948
2087.597888	-2.998500	3.287900	-9.856700	26.478321	0.000480	20.939395
2088.604517	-3.006700	3.286200	-9.879600	26.518620	0.000481	20.954770
2089.601904	-2.983500	3.286200	-9.802100	26.553501	0.000479	20.929618
2090.609110	-3.013300	3.285200	-9.898700	26.596765	0.000477	20.921901
2091.580586	-3.005900	3.286600	-9.879000	26.606863	0.000479	20.943428
2092.598068	-2.990600	3.285100	-9.823600	26.609003	0.000479	20.947002
2093.602644	-3.000700	3.284500	-9.854700	26.628991	0.000476	20.939595
2094.596151	-2.998600	3.284700	-9.847700	26.628124	0.000477	20.924975
2095.603599	-2.992300	3.284800	-9.827700	26.666622	0.000477	20.930959
2096.601547	-3.012400	3.284800	-9.893800	26.672779	0.000476	20.936200
2097.598479	-3.012200	3.282600	-9.886800	26.668048	0.000476	20.918169
2098.617788	-3.016900	3.282200	-9.900000	26.723954	0.000475	20.930277
2099.604046	-3.016500	3.282600	-9.900300	26.725982	0.000474	20.916671
2100.582358	-2.979100	3.284800	-9.784800	26.722438	0.000473	20.939183
2101.582722	-3.005800	3.284400	-9.869300	26.711017	0.000473	20.923436
2102.600402	-3.018600	3.281200	-9.903800	26.684337	0.000471	20.922691
2103.607239	-2.988100	3.282400	-9.807400	26.637771	0.000473	20.918078
2104.598235	-3.015000	3.280400	-9.889900	26.633678	0.000470	20.932928
2105.605469	-3.004700	3.280600	-9.856600	26.628424	0.000471	20.927173
2106.599994	-3.017800	3.279800	-9.895500	26.625838	0.000468	20.934529
2107.613575	-3.007600	3.281200	-9.866300	26.622140	0.000468	20.924650
2108.596482	-3.022700	3.278700	-9.909800	26.647980	0.000467	20.924547
2109.600080	-2.973700	3.279800	-9.752100	26.693984	0.000468	20.922906
2110.582140	-2.983900	3.280100	-9.785900	26.701682	0.000468	20.922585
2111.581532	-2.988800	3.278900	-9.798400	26.703909	0.000469	20.904437
2112.581824	-2.979500	3.278800	-9.767800	26.724585	0.000465	20.935178
2113.582707	-2.996400	3.279000	-9.823200	26.733596	0.000466	20.914368
2114.600670	-3.014800	3.277700	-9.879600	26.723707	0.000466	20.913909
2115.600208	-3.011300	3.276400	-9.865900	26.677168	0.000466	20.911217
2116.611300	-2.972300	3.278900	-9.745300	26.655406	0.000464	20.910203
2117.616475	-3.025200	3.276000	-9.909000	26.630575	0.000463	20.933602
2118.613347	-2.991100	3.276200	-9.798100	26.657891	0.000463	20.938777
2119.611114	-2.977400	3.276500	-9.753800	26.689415	0.000464	20.922107
2120.605050	-3.032100	3.275500	-9.930600	26.713251	0.000463	20.903398
2121.604290	-3.001200	3.275100	-9.828500	26.740300	0.000462	20.902618
2122.624155	-2.993600	3.275500	-9.804100	26.752674	0.000460	20.927384
2123.606394	-3.016200	3.275300	-9.878000	26.771427	0.000461	20.928693
2124.603011	-3.007900	3.274700	-9.849300	26.745052	0.000461	20.916403
2125.607658	-3.026600	3.274600	-9.909300	26.700299	0.000457	20.917876
2126.604897	-2.985800	3.274900	-9.778000	26.653008	0.000460	20.903051
2127.605342	-3.005300	3.272600	-9.834700	26.648367	0.000457	20.901231
2128.605419	-2.998600	3.273500	-9.814800	26.631849	0.000458	20.922556
2129.604283	-3.005900	3.271500	-9.832900	26.643295	0.000457	20.909408
2130.614157	-3.000400	3.272800	-9.818400	26.615326	0.000457	20.906421
2131.587553	-3.000000	3.272500	-9.815900	26.618551	0.000456	20.928153
2132.611747	-3.002800	3.270700	-9.819800	26.625423	0.000454	20.916571
2133.607062	-2.998700	3.272600	-9.812300	26.634816	0.000455	20.924116
2134.607672	-3.004900	3.270000	-9.825000	26.642758	0.000454	20.905075
2135.616663	-3.015600	3.270600	-9.862300	26.664378	0.000452	20.912110
2136.614546	-2.996700	3.270200	-9.798700	26.716603	0.000451	20.916250
2137.604352	-2.999700	3.270800	-9.809600	26.734956	0.000452	20.916209
2138.591882	-2.997600	3.269100	-9.797900	26.709681	0.000452	20.910239
2139.618661	-2.999100	3.270200	-9.806500	26.755134	0.000449	20.909944
2140.607462	-3.001200	3.270100	-9.813200	26.755631	0.000450	20.931778
2141.609855	-2.975500	3.270000	-9.729600	26.799936	0.000449	20.906151
2142.608539	-3.001400	3.266700	-9.803700	26.834296	0.000448	20.925524
2143.608954	-2.996400	3.268500	-9.792500	26.805352	0.000446	20.897847
2144.612715	-2.994600	3.268400	-9.786800	26.816452	0.000449	20.915170
2145.610261	-2.972900	3.268700	-9.716600	26.826228	0.000449	20.914568
2146.616586	-3.013400	3.266500	-9.842500	26.820620	0.000447	20.904189
2147.615517	-3.005300	3.266500	-9.815500	26.837125	0.000445	20.909878
2148.614104	-2.997700	3.267400	-9.793600	26.860435	0.000444	20.909134
2149.595405	-3.002100	3.264900	-9.800200	26.836066	0.000444	20.903124
2150.593077	-2.974000	3.266400	-9.713300	26.860740	0.000443	20.912285
2151.599166	-2.992800	3.266000	-9.772600	26.878405	0.000442	20.917245
2152.597716	-3.007100	3.264700	-9.815300	26.897739	0.000442	20.906340
2153.597702	-2.998800	3.264000	-9.786700	26.889301	0.000440	20.911607
2154.601408	-3.015700	3.263300	-9.839000	26.862408	0.000440	20.909221
2155.596743	-3.007000	3.263400	-9.810800	26.851486	0.000440	20.903929
2156.599791	-2.979800	3.265200	-9.728300	26.814090	0.000441	20.894779
2157.601234	-3.000500	3.262400	-9.786600	26.781387	0.000437	20.905046
2158.598848	-3.030700	3.260300	-9.880400	26.738913	0.000437	20.899801
2159.599788	-3.021900	3.261400	-9.855000	26.730936	0.000440	20.909323
2160.601214	-3.025600	3.261600	-9.867300	26.721119	0.000437	20.904195
2161.601439	-2.998200	3.262300	-9.779500	26.720992	0.000435	20.892689
2162.598511	-2.981900	3.261800	-9.725500	26.696264	0.000434	20.901493
2163.626752	-3.004100	3.261500	-9.795700	26.704206	0.000435	20.901891
2164.623391	-2.973500	3.260700	-9.694400	26.720125	0.000434	20.902722
2165.622123	-2.994300	3.259200	-9.757700	26.760516	0.000434	20.899235
2166.600100	-3.012900	3.259400	-9.819400	26.755506	0.000432	20.895147
2167.600756	-3.006400	3.257800	-9.793600	26.807179	0.000433	20.891624
2168.599706	-3.004400	3.258000	-9.786800	26.835753	0.000430	20.878155
2169.603184	-2.972400	3.259100	-9.686700	26.868469	0.000431	20.890661
2170.620253	-2.989600	3.258300	-9.739300	26.881393	0.000431	20.892751
2171.600390	-2.988400	3.256700	-9.731800	26.871298	0.000429	20.903936
2172.628305	-2.982200	3.258500	-9.715600	26.893233	0.000428	20.909396
2173.618867	-3.011200	3.257200	-9.806500	26.867384	0.000428	20.874398
2174.617573	-2.978400	3.256500	-9.697300	26.895996	0.000427	20.906011
2175.613608	-3.002200	3.256400	-9.775500	26.878560	0.000428	20.881842
2176.617974	-3.021500	3.253300	-9.828400	26.848304	0.000426	20.890774
2177.619840	-2.977000	3.255300	-9.689900	26.805481	0.000425	20.895606
2178.623156	-3.011700	3.254400	-9.799300	26.787024	0.000426	20.897911
2179.603611	-3.003300	3.254200	-9.771300	26.776558	0.000425	20.911095
2180.601550	-3.039300	3.252500	-9.884400	26.817140	0.000423	20.902586
2181.602786	-3.008800	3.253600	-9.788500	26.840196	0.000422	20.875511
2182.604128	-3.002300	3.253500	-9.767300	26.815025	0.000422	20.887185
2183.605907	-2.997200	3.252700	-9.747600	26.822519	0.000420	20.872436
2184.605235	-3.001400	3.252500	-9.759900	26.836130	0.000419	20.875689
2185.605116	-3.002500	3.252600	-9.765000	26.840678	0.000421	20.893538
2186.606686	-3.006700	3.250200	-9.772000	26.854009	0.000420	20.887502
2187.605754	-3.008700	3.251900	-9.783000	26.862167	0.000418	20.885274
2188.604846	-3.011000	3.251000	-9.787300	26.835157	0.000417	20.864281
2189.607989	-2.999500	3.251300	-9.750600	26.847048	0.000417	20.876236
2190.604327	-3.002900	3.250700	-9.759900	26.855166	0.000419	20.879657
2191.605408	-2.985500	3.250700	-9.703500	26.893464	0.000416	20.875018
2192.604744	-3.010800	3.248600	-9.780100	26.930396	0.000417	20.894610
2193.607992	-3.010900	3.248700	-9.780000	26.927501	0.000415	20.900707
2194.606132	-2.999800	3.249400	-9.746200	26.964037	0.000413	20.886239
2195.611360	-3.010100	3.248500	-9.777400	26.976474	0.000416	20.879780
2196.613991	-2.999400	3.248400	-9.742500	26.979775	0.000413	20.888314
2197.610064	-2.995900	3.247100	-9.726700	26.975161	0.000412	20.884624
2198.608394	-2.990100	3.246200	-9.705300	26.936010	0.000413	20.882712
2199.614614	-3.000900	3.246200	-9.740200	26.937222	0.000410	20.904317
2200.610693	-3.012400	3.246500	-9.779100	26.901421	0.000409	20.878751
2201.609348	-3.029500	3.244600	-9.827900	26.899368	0.000410	20.883799
2202.611291	-3.022000	3.244800	-9.804400	26.932731	0.000409	20.898854
2203.614154	-2.997700	3.246600	-9.731000	26.935545	0.000410	20.856642
2204.609606	-2.998000	3.245300	-9.728100	26.932782	0.000409	20.867139
2205.616158	-3.013600	3.245300	-9.778600	26.905276	0.000408	20.883102
2206.614053	-2.998600	3.244100	-9.726500	26.918479	0.000409	20.889265
2207.612534	-3.029300	3.242000	-9.820500	26.933188	0.000407	20.889357
2208.613141	-2.993000	3.242100	-9.702600	26.908998	0.000404	20.870724
2209.613631	-2.991500	3.245400	-9.707700	26.927145	0.000406	20.878539
2210.613415	-2.991700	3.242400	-9.699600	26.915940	0.000404	20.878652
2211.614735	-2.992800	3.241200	-9.698900	26.951700	0.000405	20.872412
2212.616265	-3.001900	3.242800	-9.733500	26.940790	0.000405	20.871398
2213.613673	-2.999000	3.241300	-9.719800	26.919074	0.000403	20.847192
2214.617352	-3.001300	3.239700	-9.722200	26.915555	0.000404	20.875421
2215.617107	-2.999400	3.240100	-9.717600	26.884368	0.000401	20.871562
2216.615697	-3.036100	3.238400	-9.831400	26.918765	0.000402	20.853520
2217.629375	-3.021500	3.238100	-9.783600	26.945567	0.000400	20.861503
2218.618404	-2.980300	3.239300	-9.653400	26.977437	0.000398	20.860836
2219.617029	-3.002800	3.238100	-9.721200	27.011984	0.000400	20.862386
2220.620114	-3.017000	3.237800	-9.767500	27.027797	0.000396	20.864537
2221.623235	-2.992800	3.237700	-9.689200	26.994742	0.000399	20.874917
2222.622176	-2.992100	3.236900	-9.684000	27.000030	0.000396	20.866959
2223.620778	-3.023600	3.237600	-9.787600	27.000882	0.000397	20.871135
2224.623891	-3.008400	3.236500	-9.734600	26.981626	0.000394	20.861255
2225.618912	-2.992400	3.235500	-9.680900	26.992471	0.000395	20.864574
2226.625392	-3.007600	3.235300	-9.729800	27.018429	0.000393	20.869340
2227.619590	-2.986600	3.235600	-9.662200	27.040219	0.000393	20.850003
2228.618523	-3.006800	3.234000	-9.723000	27.048513	0.000394	20.862611
2229.619325	-2.999900	3.234200	-9.700800	27.047762	0.000394	20.847633
2230.620820	-2.991400	3.234000	-9.673700	27.043403	0.000392	20.862214
2231.619306	-3.033900	3.234300	-9.811300	27.004001	0.000391	20.859099
2232.623098	-2.992600	3.231700	-9.670900	26.976066	0.000391	20.864198
2233.620469	-2.993400	3.233500	-9.678500	26.950502	0.000389	20.846553
2234.623460	-2.973600	3.231900	-9.608700	26.981075	0.000387	20.850743
2235.626754	-3.020900	3.230200	-9.757200	26.994759	0.000388	20.840797
2236.621192	-3.000000	3.232100	-9.695100	26.980959	0.000390	20.859635
2237.619576	-2.985100	3.229700	-9.639600	26.941315	0.000387	20.839685
2238.620176	-2.995900	3.230300	-9.675900	26.959907	0.000388	20.857906
2239.623749	-2.989200	3.229500	-9.652600	26.952207	0.000385	20.859646
2240.624190	-3.012500	3.230500	-9.730700	26.897179	0.000386	20.871167
2241.626503	-3.023200	3.228200	-9.758800	26.906305	0.000385	20.853318
2242.626474	-2.996200	3.229800	-9.675200	26.917430	0.000384	20.842694
2243.633410	-3.006100	3.230100	-9.708900	26.907194	0.000381	20.830031
2244.626211	-3.021300	3.227600	-9.750000	26.910139	0.000383	20.853854
2245.623893	-2.999500	3.226600	-9.676100	26.920676	0.000382	20.858760
2246.622473	-2.996500	3.226300	-9.666800	26.996884	0.000383	20.851469
2247.625470	-3.030800	3.225800	-9.774600	27.002745	0.000381	20.848828
2248.629419	-3.010200	3.225400	-9.708700	27.037520	0.000382	20.852979
2249.625886	-3.018300	3.225500	-9.734500	27.063197	0.000379	20.875007
2250.628527	-2.989100	3.225200	-9.639700	27.140044	0.000380	20.844189
2251.625485	-3.004900	3.225500	-9.691300	27.159921	0.000382	20.861334
2252.625883	-3.000600	3.225300	-9.676700	27.170444	0.000376	20.836359
2253.629332	-2.984200	3.224300	-9.621200	27.146133	0.000377	20.853632
2254.624900	-2.996300	3.225200	-9.663000	27.142235	0.000376	20.840228
2255.623720	-2.984800	3.224800	-9.622000	27.124954	0.000375	20.840392
2256.627088	-3.009900	3.220900	-9.693100	27.085505	0.000377	20.848131
2257.626839	-2.996500	3.221700	-9.652300	27.024238	0.000374	20.819709
2258.628485	-3.003500	3.222400	-9.677400	26.974346	0.000374	20.850141
2259.629385	-2.979700	3.222300	-9.599700	26.959537	0.000375	20.836672
2260.627813	-2.975100	3.221800	-9.584400	26.984973	0.000373	20.821474
2261.627073	-2.997600	3.220200	-9.652300	27.000126	0.000371	20.829126
2262.627776	-2.995300	3.220400	-9.645200	27.019291	0.000373	20.850294
2263.634769	-3.002300	3.220100	-9.666700	26.985901	0.000372	20.825726
2264.627771	-3.008800	3.218600	-9.683200	26.948383	0.000372	20.850586
2265.626376	-3.003400	3.219500	-9.668400	26.951481	0.000372	20.828097
2266.629434	-2.978000	3.219500	-9.586800	26.969982	0.000371	20.842908
2267.626274	-2.997200	3.218500	-9.645100	26.980138	0.000369	20.829888
2268.630764	-2.984800	3.219400	-9.608400	27.008849	0.000369	20.842638
2269.632760	-2.999400	3.218100	-9.651800	26.998806	0.000367	20.838703
2270.627281	-3.001000	3.216600	-9.651800	26.996971	0.000366	20.810306
2271.629776	-2.987500	3.217300	-9.610800	27.000652	0.000369	20.826809
2272.629797	-3.003000	3.215500	-9.655800	26.979880	0.000364	20.831999
2273.628819	-3.012300	3.213800	-9.680100	26.945612	0.000366	20.834523
2274.628056	-2.988900	3.215000	-9.608400	26.984798	0.000364	20.834574
2275.627069	-3.011100	3.214400	-9.678100	26.932115	0.000365	20.820952
2276.631592	-3.006700	3.212800	-9.659000	26.931538	0.000365	20.835544
2277.630681	-2.996200	3.214600	-9.630600	26.950490	0.000364	20.825679
2278.631095	-2.985000	3.212800	-9.588100	26.987725	0.000361	20.823767
2279.627866	-2.982500	3.213300	-9.582600	27.005896	0.000362	20.836824
2280.633375	-3.000100	3.210800	-9.631300	26.999295	0.000361	20.825919
2281.639812	-2.999500	3.211500	-9.632400	27.032401	0.000360	20.824599
2282.627669	-2.992800	3.212000	-9.612100	27.046176	0.000361	20.828020
2283.630841	-3.020600	3.210900	-9.697800	27.062931	0.000360	20.829698
2284.633237	-2.983200	3.212400	-9.582600	27.106001	0.000359	20.848831
2285.628459	-2.991700	3.209200	-9.599600	27.118270	0.000359	20.827980
2286.633250	-3.001600	3.210300	-9.634900	27.154607	0.000355	20.838447
2287.631964	-2.992700	3.209000	-9.602800	27.166342	0.000358	20.823698
2288.630259	-2.986500	3.209800	-9.585600	27.178675	0.000356	20.827094
2289.633544	-2.989200	3.208000	-9.588400	27.155728	0.000356	20.834359
2290.631488	-2.998200	3.209600	-9.622200	27.163996	0.000357	20.827502
2291.633042	-2.997100	3.207000	-9.610500	27.163484	0.000357	20.818453
2292.632931	-2.978500	3.208600	-9.555700	27.163550	0.000355	20.848390
2293.632984	-2.990300	3.206900	-9.589200	27.176978	0.000355	20.814481
2294.632604	-3.015100	3.206400	-9.666800	27.163804	0.000353	20.810239
2295.633108	-3.003800	3.205800	-9.628300	27.108924	0.000354	20.833753
2296.632702	-3.014300	3.203300	-9.654400	27.072723	0.000352	20.824847
2297.632576	-2.997600	3.204600	-9.604900	27.025717	0.000352	20.806497
2298.632337	-3.006500	3.203600	-9.629800	27.010067	0.000352	20.815889
2299.635684	-3.010000	3.203000	-9.639300	27.011391	0.000349	20.825281
2300.634330	-3.004300	3.202200	-9.619900	27.037221	0.000350	20.820911
2301.633792	-2.981600	3.203700	-9.551100	27.068669	0.000350	20.830252
2302.634274	-3.006800	3.203000	-9.629300	27.108768	0.000348	20.836441
2303.633654	-2.996000	3.200800	-9.588700	27.155263	0.000348	20.833418
2304.635127	-2.995900	3.201700	-9.590600	27.148152	0.000347	20.831481
2305.635002	-3.011200	3.200500	-9.636700	27.153581	0.000348	20.833148
2306.634111	-3.013500	3.200700	-9.645200	27.185801	0.000346	20.845165
2307.634535	-2.992500	3.200300	-9.574400	27.169225	0.000346	20.832761
2308.635254	-3.015000	3.199500	-9.644500	27.143398	0.000346	20.817217
2309.634642	-2.988900	3.198600	-9.559600	27.139332	0.000344	20.819292
2310.634818	-3.001400	3.197900	-9.597100	27.161617	0.000345	20.842652
2311.634936	-2.978900	3.198300	-9.526100	27.176372	0.000345	20.830467
2312.634594	-3.012100	3.196300	-9.625900	27.226059	0.000343	20.839191
2313.635212	-2.984300	3.196700	-9.538800	27.218161	0.000343	20.828877
2314.641940	-3.007900	3.195700	-9.610500	27.162570	0.000342	20.845982
2315.633870	-2.993400	3.195000	-9.563100	27.141127	0.000342	20.821571
2316.637898	-3.011700	3.194400	-9.620300	27.141077	0.000342	20.841434
2317.646055	-3.014800	3.195200	-9.631900	27.173859	0.000341	20.831733
2318.638211	-2.986300	3.194500	-9.539700	27.187262	0.000338	20.825299
2319.637930	-3.005700	3.193200	-9.596800	27.207634	0.000338	20.814022
2320.640279	-3.012500	3.193300	-9.618700	27.228964	0.000340	20.841164
2321.637660	-3.006800	3.192500	-9.597700	27.251054	0.000337	20.845366
2322.638146	-2.995400	3.192200	-9.561300	27.246608	0.000337	20.846584
2323.639699	-2.983200	3.192000	-9.521300	27.266914	0.000337	20.852784
2324.640951	-2.981600	3.192500	-9.517400	27.318856	0.000335	20.857617
2325.640248	-3.011100	3.192700	-9.613100	27.309682	0.000335	20.851708
2326.647399	-3.018000	3.192200	-9.632300	27.285157	0.000336	20.830832
2327.640874	-3.024600	3.190500	-9.648100	27.295222	0.000334	20.828629
2328.639022	-3.011700	3.190100	-9.606300	27.294240	0.000334	20.852296
2329.647592	-3.003100	3.188400	-9.572600	27.291872	0.000335	20.839009
2330.644278	-2.994600	3.189600	-9.549900	27.295132	0.000332	20.847029
2331.640430	-3.011000	3.187900	-9.598200	27.254821	0.000331	20.826871
2332.644213	-3.009300	3.188200	-9.593600	27.228652	0.000333	20.842273
2333.641099	-3.010600	3.185900	-9.590700	27.247558	0.000333	20.854177
2334.650458	-2.992800	3.186200	-9.534800	27.253164	0.000331	20.852704
2335.644849	-2.967300	3.186900	-9.455700	27.279714	0.000331	20.840530
2336.644588	-3.003100	3.188200	-9.573800	27.266399	0.000332	20.845628
2337.646798	-3.004000	3.185400	-9.568300	27.214343	0.000332	20.866286
2338.646777	-3.035000	3.184200	-9.663200	27.166665	0.000329	20.849626
2339.645585	-2.996200	3.182800	-9.535000	27.150204	0.000330	20.838287
2340.643234	-2.967800	3.183900	-9.448300	27.112308	0.000328	20.840949
2341.645931	-2.989400	3.182900	-9.513200	27.079331	0.000327	20.843345
2342.645593	-2.987000	3.183700	-9.508700	27.035190	0.000328	20.860119
2343.646745	-2.985000	3.183000	-9.500400	27.019247	0.000325	20.880119
2344.647741	-3.010200	3.181100	-9.575000	27.051728	0.000327	20.847828
2345.645908	-3.014200	3.180900	-9.584900	27.090708	0.000326	20.847675
2346.645191	-2.994300	3.179900	-9.519700	27.105004	0.000326	20.854466
2347.646536	-3.019400	3.179000	-9.597100	27.078805	0.000324	20.855618
2348.648077	-2.996100	3.180600	-9.529400	27.043764	0.000323	20.850250
2349.644398	-2.989100	3.180000	-9.503800	27.093892	0.000323	20.874109
2350.646511	-2.965000	3.179100	-9.425200	27.162784	0.000321	20.857103
2351.647335	-3.002000	3.180300	-9.545100	27.191668	0.000323	20.857704
2352.647030	-2.969900	3.179300	-9.440900	27.240223	0.000322	20.858653
2353.648927	-3.001200	3.178400	-9.538000	27.246351	0.000323	20.858653
2354.649389	-3.000700	3.176000	-9.527900	27.261334	0.000321	20.868033
2355.647423	-2.999800	3.175900	-9.526300	27.258455	0.000319	20.857551
2356.647597	-3.036900	3.174400	-9.638700	27.283590	0.000320	20.853911
2357.648069	-3.002500	3.175300	-9.532000	27.268557	0.000320	20.855859
2358.652013	-3.008300	3.175500	-9.552100	27.315299	0.000319	20.875375
2359.648023	-3.011900	3.173400	-9.555700	27.326764	0.000319	20.862726
2360.648760	-2.971800	3.174800	-9.433600	27.363844	0.000318	20.866837
2361.649505	-2.999500	3.172800	-9.515000	27.367336	0.000317	20.860866
2362.651480	-2.991700	3.171200	-9.486500	27.375475	0.000317	20.865261
2363.649192	-3.002700	3.171300	-9.521400	27.394086	0.000319	20.862172
2364.647641	-3.023500	3.172800	-9.592200	27.374061	0.000317	20.868106
2365.649910	-2.990300	3.170500	-9.480000	27.375475	0.000317	20.888493
2366.648822	-2.983100	3.169600	-9.454500	27.356136	0.000315	20.855290
2367.650553	-2.979300	3.169900	-9.443300	27.354098	0.000316	20.888325
2368.651821	-3.020600	3.168500	-9.569800	27.330618	0.000316	20.880353
2369.649897	-3.001500	3.169900	-9.513600	27.307572	0.000313	20.881826
2370.649679	-3.010500	3.168300	-9.537400	27.295241	0.000313	20.854251
2371.653014	-2.995000	3.166700	-9.483500	27.285581	0.000315	20.874879
2372.652037	-2.988400	3.165700	-9.459700	27.251439	0.000313	20.875149
2373.651563	-3.004500	3.165000	-9.508600	27.248853	0.000311	20.876815
2374.651157	-3.021800	3.165200	-9.563600	27.224032	0.000314	20.877928
2375.651459	-3.029500	3.164300	-9.585400	27.244607	0.000312	20.873019
2376.650563	-2.993700	3.164500	-9.472200	27.258176	0.000310	20.875287
2377.651752	-3.010500	3.165400	-9.528100	27.312065	0.000312	20.882078
2378.651637	-2.977200	3.164700	-9.420600	27.366103	0.000310	20.857256
2379.652024	-3.010700	3.162400	-9.520400	27.333490	0.000308	20.864751
2380.653739	-2.978200	3.161800	-9.414200	27.305999	0.000308	20.889252
2381.652110	-3.000700	3.160900	-9.483500	27.296187	0.000308	20.873694
2382.653800	-2.989400	3.161400	-9.450000	27.262491	0.000309	20.875361
2383.654121	-3.007500	3.159600	-9.500900	27.258488	0.000309	20.893144
2384.654777	-2.991900	3.159300	-9.450900	27.274490	0.000308	20.886955
2385.653499	-3.015900	3.159800	-9.528900	27.250652	0.000305	20.873409
2386.653734	-2.992900	3.159700	-9.456100	27.279037	0.000305	20.884416
2387.653625	-3.013500	3.157300	-9.513400	27.292848	0.000307	20.878869
2388.653526	-3.001600	3.157600	-9.477400	27.280846	0.000305	20.870116
2389.652684	-2.988400	3.156200	-9.430900	27.297228	0.000303	20.886120
2390.652863	-3.017800	3.155200	-9.520900	27.329955	0.000304	20.889643
2391.651142	-2.999500	3.156000	-9.464100	27.339230	0.000304	20.867206
2392.655145	-2.998000	3.154500	-9.456900	27.366274	0.000302	20.886824
2393.656239	-3.022300	3.152600	-9.527300	27.374363	0.000303	20.874573
2394.653559	-2.984100	3.154000	-9.410800	27.353102	0.000303	20.886375
2395.653711	-3.011900	3.152100	-9.493100	27.376821	0.000304	20.906441
2396.664687	-3.022500	3.152000	-9.526300	27.407291	0.000301	20.882568
2397.654819	-3.022100	3.150500	-9.520400	27.416540	0.000302	20.913680
2398.654340	-2.960900	3.153000	-9.334800	27.464816	0.000302	20.877852
2399.655405	-3.015800	3.149200	-9.496000	27.501040	0.000300	20.873993
2400.654787	-3.003800	3.149500	-9.459400	27.489080	0.000301	20.879030
2401.654539	-2.982800	3.150100	-9.394400	27.463326	0.000299	20.893421
2402.658406	-2.986500	3.148100	-9.399600	27.408944	0.000301	20.885179
2403.660108	-2.980400	3.148100	-9.380500	27.360640	0.000300	20.888742
2404.655952	-3.004100	3.148000	-9.455500	27.300905	0.000299	20.889344
2405.655394	-3.025200	3.147000	-9.520000	27.316116	0.000297	20.902747
2406.656530	-2.983500	3.145600	-9.383700	27.323657	0.000298	20.895161
2407.658160	-2.987500	3.145500	-9.395300	27.336689	0.000299	20.899260
2408.661902	-2.997400	3.145100	-9.426400	27.338777	0.000299	20.904680
2409.658224	-3.022200	3.143300	-9.497500	27.295412	0.000299	20.877655
2410.659335	-3.009500	3.141500	-9.453700	27.261930	0.000296	20.887597
2411.660516	-3.002100	3.142000	-9.432300	27.262680	0.000297	20.889300
2412.661305	-3.017300	3.140600	-9.475100	27.263496	0.000294	20.907189
2413.659432	-2.995800	3.141800	-9.411200	27.282696	0.000295	20.920336
2414.668365	-3.008800	3.139000	-9.444400	27.303157	0.000296	20.901565
2415.660317	-3.002500	3.140000	-9.427000	27.344049	0.000296	20.922783
2416.657955	-3.024300	3.136900	-9.485200	27.385882	0.000295	20.898013
2417.668086	-2.995800	3.139600	-9.404800	27.383576	0.000294	20.910391
2418.664836	-3.000400	3.136500	-9.409800	27.421333	0.000294	20.892426
2419.664137	-2.984200	3.137700	-9.362000	27.471139	0.000293	20.893221
2420.665335	-2.997800	3.136900	-9.402700	27.452936	0.000293	20.911416
2421.664169	-3.003000	3.137000	-9.419400	27.469852	0.000293	20.892875
2422.663823	-2.976200	3.135700	-9.331500	27.518049	0.000292	20.904855
2423.670256	-3.011700	3.133000	-9.434200	27.536567	0.000292	20.914002
2424.663959	-3.000200	3.132600	-9.396800	27.581579	0.000291	20.897652
2425.663517	-2.977800	3.132300	-9.326400	27.595640	0.000291	20.930289
2426.666033	-3.005800	3.131100	-9.410100	27.634777	0.000291	20.909454
2427.664853	-3.001600	3.130900	-9.397200	27.617632	0.000292	20.922073
2428.666381	-3.014600	3.130200	-9.435400	27.640276	0.000289	20.938692
2429.669049	-3.002600	3.130100	-9.397700	27.646503	0.000292	20.914615
2430.664186	-2.996600	3.130000	-9.378400	27.639308	0.000289	20.922073
2431.663706	-3.001100	3.128600	-9.388900	27.663492	0.000289	20.930286
2432.667317	-3.005200	3.127700	-9.398500	27.667313	0.000289	20.916588
2433.665337	-2.982100	3.126800	-9.322900	27.669248	0.000287	20.926595
2434.665156	-2.996300	3.126100	-9.366300	27.682964	0.000288	20.936602
2435.667598	-3.010600	3.124500	-9.406000	27.691496	0.000291	20.934283
2436.664614	-3.010300	3.124100	-9.403200	27.731725	0.000286	20.918342
2437.665334	-3.013200	3.122300	-9.406800	27.713004	0.000288	20.928426
2438.668949	-3.013100	3.122100	-9.406000	27.695672	0.000286	20.935165
2439.663701	-2.988600	3.120800	-9.325900	27.663732	0.000286	20.918200
2440.664871	-2.984300	3.121300	-9.313200	27.647736	0.000287	20.915381
2441.668956	-2.997000	3.120100	-9.350000	27.646576	0.000287	20.920851
2442.667946	-2.983000	3.120500	-9.307500	27.689724	0.000286	20.933448
2443.666811	-2.961700	3.120000	-9.239400	27.731456	0.000287	20.920443
2444.672873	-3.014800	3.117400	-9.396900	27.724947	0.000284	20.937598
2445.667011	-3.017000	3.117400	-9.404200	27.711475	0.000284	20.941110
2446.668219	-3.007100	3.116100	-9.369500	27.712849	0.000283	20.919261
2447.672677	-2.978600	3.117500	-9.284900	27.722540	0.000285	20.945607
2448.671315	-3.016800	3.114400	-9.394600	27.761927	0.000284	20.937828
2449.670348	-3.025700	3.113000	-9.417400	27.784097	0.000284	20.930268
2450.674677	-2.981800	3.113200	-9.281800	27.799746	0.000283	20.937007
2451.671129	-3.026000	3.112200	-9.415900	27.752119	0.000283	20.955931
2452.672124	-2.970000	3.111500	-9.239300	27.724882	0.000283	20.950333
2453.679007	-3.028800	3.109800	-9.418100	27.695948	0.000283	20.946821
2454.670280	-3.014200	3.110200	-9.374000	27.727553	0.000282	20.943539
2455.671650	-3.005100	3.109000	-9.341400	27.707981	0.000282	20.963670
2456.675475	-2.998400	3.107500	-9.317400	27.730522	0.000282	20.964067
2457.675545	-2.996800	3.107600	-9.311900	27.752819	0.000282	20.943360
2458.675316	-3.007000	3.105200	-9.336000	27.779331	0.000284	20.954866
2459.675029	-3.011100	3.104500	-9.346900	27.753823	0.000283	20.944371
2460.676103	-2.978800	3.105800	-9.250100	27.724458	0.000281	20.961759
2461.676824	-2.996000	3.104300	-9.299700	27.746448	0.000282	20.947854
2462.678723	-2.985900	3.103900	-9.267000	27.730555	0.000280	20.957463
2463.673441	-2.960600	3.103300	-9.186100	27.778117	0.000280	20.968816
2464.673968	-2.996800	3.102000	-9.294800	27.733610	0.000278	20.940152
2465.676953	-2.994100	3.101300	-9.284800	27.752113	0.000280	20.968251
2466.676144	-3.005500	3.100600	-9.317000	27.771442	0.000279	20.955936
2467.675433	-2.989300	3.099800	-9.265700	27.759739	0.000278	20.941315
2468.678335	-2.972700	3.100200	-9.214000	27.757180	0.000280	20.960075
2469.674860	-3.012900	3.097300	-9.330300	27.758949	0.000279	20.947158
2470.674847	-3.005700	3.095200	-9.302100	27.762566	0.000281	20.962649
2471.681313	-2.991100	3.095500	-9.257600	27.776904	0.000280	20.960957
2472.675552	-2.991600	3.094800	-9.256700	27.795290	0.000279	20.949590
2473.676291	-2.986100	3.093100	-9.235700	27.828614	0.000278	20.962263
2474.679300	-2.973000	3.094400	-9.197800	27.824692	0.000280	20.958791
2475.677091	-2.994600	3.091200	-9.256300	27.823188	0.000279	20.985723
2476.679548	-2.996900	3.091500	-9.264400	27.793111	0.000279	20.963518
2477.680096	-2.991900	3.090600	-9.246700	27.774762	0.000278	20.964017
2478.675924	-2.995700	3.089300	-9.252900	27.739283	0.000276	20.949178
2479.676744	-3.011300	3.089200	-9.301000	27.749674	0.000277	20.967693
2480.684781	-3.016700	3.086300	-9.308400	27.772214	0.000276	20.979943
2481.679504	-3.000700	3.086400	-9.260200	27.809065	0.000278	20.988578
2482.677872	-3.001000	3.085600	-9.258400	27.811204	0.000277	20.973189
2483.679230	-3.005600	3.083300	-9.266000	27.758344	0.000276	20.962194
2484.677393	-2.995600	3.082800	-9.233800	27.749406	0.000276	20.981172
2485.677741	-2.998400	3.082600	-9.241600	27.758040	0.000276	20.967103
2486.681589	-3.016500	3.080000	-9.289600	27.792866	0.000277	20.976545
2487.678343	-3.003700	3.081400	-9.254900	27.770442	0.000275	20.981478
2488.677434	-2.995900	3.080400	-9.227800	27.710426	0.000275	20.986989
2489.688190	-2.999900	3.077400	-9.231000	27.663610	0.000276	20.992036
2490.679278	-3.003200	3.077700	-9.240400	27.652733	0.000276	21.008588
2491.680760	-2.983300	3.076700	-9.177700	27.698287	0.000275	20.996583
2492.683486	-2.996700	3.075200	-9.213900	27.687323	0.000275	20.995982
2493.677687	-2.999800	3.075600	-9.224100	27.674383	0.000274	20.974904
2494.678885	-3.013000	3.073400	-9.259500	27.661356	0.000273	20.984079
2495.681818	-3.014800	3.072100	-9.261000	27.654237	0.000274	20.986872
2496.678537	-3.008100	3.072700	-9.241900	27.698146	0.000274	20.967523
2497.676915	-2.997000	3.072000	-9.205900	27.691702	0.000273	20.977632
2498.685961	-2.990700	3.071500	-9.184600	27.744499	0.000274	20.983820
2499.678396	-2.980400	3.070100	-9.149300	27.724532	0.000274	21.007345
2500.679296	-3.015300	3.066300	-9.245100	27.777111	0.000274	21.004307
2501.683287	-2.999500	3.067500	-9.199200	27.801546	0.000274	20.994286
2502.678457	-2.998200	3.065100	-9.188400	27.764299	0.000273	21.013224
2503.679559	-3.011800	3.064300	-9.227300	27.776488	0.000273	20.998939
2504.685010	-2.989500	3.063900	-9.158600	27.749936	0.000276	21.006357
2505.681940	-2.997100	3.063200	-9.180100	27.750828	0.000273	20.993980
2506.678747	-2.981500	3.062600	-9.130400	27.795878	0.000274	21.018450
2507.686399	-2.992400	3.062000	-9.161800	27.837022	0.000272	20.987317
2508.679531	-2.996200	3.060900	-9.169500	27.822784	0.000272	20.993849
2509.679192	-3.013700	3.059700	-9.219900	27.792555	0.000273	21.010365
2510.682263	-2.978900	3.059300	-9.112300	27.753220	0.000273	21.005868
2511.677386	-2.990900	3.057200	-9.142800	27.733532	0.000272	21.007867
2512.678539	-2.975200	3.056200	-9.091900	27.730437	0.000272	21.003330
2513.680173	-3.010300	3.054700	-9.195000	27.747410	0.000272	21.009505
2514.679790	-3.003800	3.051200	-9.164500	27.795534	0.000271	21.005303
2515.686460	-3.013200	3.052200	-9.196100	27.798245	0.000273	20.999024
2516.684504	-2.995800	3.051400	-9.140800	27.823686	0.000273	21.004239
2517.682590	-3.020100	3.050100	-9.210200	27.797632	0.000273	21.008363
2518.682542	-3.009600	3.049000	-9.175300	27.798270	0.000273	21.005212
2519.684679	-2.991100	3.049800	-9.121300	27.776394	0.000272	21.014963
2520.681541	-3.017100	3.046100	-9.189300	27.729252	0.000271	21.004983
2521.681522	-2.975400	3.045800	-9.060600	27.696218	0.000273	21.007302
2522.683653	-2.992000	3.043600	-9.105100	27.677827	0.000272	21.003021
2523.683911	-2.996400	3.043500	-9.117700	27.724526	0.000271	21.031516
2524.681641	-3.006300	3.042700	-9.146000	27.751611	0.000271	21.025583
2525.686649	-3.027000	3.039500	-9.199800	27.833363	0.000269	21.020138
2526.681524	-3.014100	3.039700	-9.160700	27.878297	0.000270	21.019369
2527.681092	-2.989700	3.038300	-9.082500	27.923218	0.000269	20.993937
2528.686632	-3.012500	3.037500	-9.149400	27.945167	0.000271	21.000381
2529.686306	-3.021400	3.036800	-9.174000	28.008189	0.000272	21.000753
2530.682655	-2.996000	3.036100	-9.095300	28.036260	0.000271	21.008145
2531.683732	-2.990900	3.035800	-9.078200	28.065388	0.000269	20.988631
2532.686578	-3.017100	3.033000	-9.150100	28.116258	0.000269	21.004275
2533.685180	-2.970800	3.033100	-9.010200	28.111330	0.000270	21.008323
2534.687529	-3.001100	3.031300	-9.096000	28.094323	0.000271	20.986939
2535.684799	-3.014500	3.029000	-9.128800	28.063935	0.000269	21.000443
2536.682786	-2.998200	3.028700	-9.079900	28.035557	0.000269	21.010756
2537.688800	-2.991400	3.028900	-9.060200	28.059671	0.000270	20.997099
2538.684838	-3.004700	3.027000	-9.094600	28.070363	0.000270	21.005016
2539.685905	-3.000400	3.025000	-9.075300	28.046496	0.000271	20.992847
2540.686471	-3.001100	3.024600	-9.074900	27.993786	0.000269	20.986732
2541.688022	-3.033200	3.021200	-9.163600	27.959271	0.000270	20.983759
2542.687947	-2.992800	3.020100	-9.038000	27.936163	0.000270	20.982312
2543.687256	-3.002500	3.020200	-9.066200	27.932025	0.000269	20.984784
2544.686250	-3.004500	3.018400	-9.068400	27.991608	0.000268	21.001607
2545.686711	-2.974600	3.019000	-8.979100	28.003066	0.000270	20.985167
2546.686356	-3.003000	3.017300	-9.060300	28.027803	0.000269	20.990152
2547.688240	-2.996100	3.015000	-9.032000	28.039540	0.000268	21.001016
2548.687502	-2.997700	3.014600	-9.035300	28.022915	0.000270	20.970536
2549.689162	-3.026600	3.012600	-9.117800	27.963587	0.000267	20.986680
2550.690155	-2.985300	3.011200	-8.987600	27.915294	0.000270	20.998762
2551.690106	-2.992400	3.010900	-9.009300	27.918896	0.000269	20.977261
2552.690002	-3.019400	3.009800	-9.085500	27.940338	0.000268	20.989831
2553.688298	-2.983800	3.008700	-8.977100	27.944309	0.000269	20.984347
2554.688021	-3.015200	3.006000	-9.062100	27.968881	0.000266	20.977312
2555.693632	-3.006800	3.005800	-9.037400	28.003831	0.000269	20.951803
2556.689322	-2.999000	3.006100	-9.014500	28.030717	0.000269	20.977914
2557.689463	-2.996600	3.004100	-9.001300	27.981104	0.000269	20.976813
2558.690406	-3.008100	3.003000	-9.032200	27.993645	0.000267	20.983745
2559.691716	-2.977900	3.000900	-8.935800	27.973733	0.000266	20.981247
2560.691682	-3.014400	3.000500	-9.043900	27.966526	0.000269	20.997698
2561.698717	-3.012900	2.999100	-9.034900	27.996547	0.000268	20.977185
2562.694343	-2.974600	2.997900	-8.916400	28.013911	0.000269	20.978541
2563.695581	-2.980200	2.996500	-8.929300	28.033492	0.000267	20.959848
2564.691581	-3.034500	2.993900	-9.083400	28.026833	0.000269	20.973057
2565.691892	-2.984700	2.993300	-8.933100	28.038674	0.000268	20.964115
2566.690609	-2.998400	2.991500	-8.969300	28.069392	0.000267	20.971328
2567.694705	-3.025300	2.988800	-9.041400	28.060595	0.000267	20.962948
2568.695888	-2.991700	2.989000	-8.941800	28.047877	0.000266	20.966740
2569.693068	-2.989900	2.987400	-8.931200	28.072027	0.000268	20.944586
2570.697836	-2.995300	2.988500	-8.950300	28.114864	0.000267	20.979643
2571.694587	-2.999800	2.985300	-8.955000	28.110690	0.000266	20.960271
2572.694364	-3.004600	2.983700	-8.964000	28.125748	0.000267	20.959782
2573.696103	-3.003800	2.982300	-8.957600	28.082070	0.000267	20.953747
2574.692869	-3.026200	2.980000	-9.017200	28.043855	0.000267	20.959848
2575.695217	-3.004700	2.980200	-8.953700	28.060454	0.000267	20.975132
2576.698195	-3.002100	2.979100	-8.942300	28.064186	0.000266	20.966088
2577.700045	-3.022000	2.975800	-8.991400	28.057653	0.000267	20.946712
2578.696910	-2.999500	2.976200	-8.925900	28.035286	0.000267	20.969713
2579.698953	-2.997900	2.976700	-8.921700	28.002643	0.000266	20.956296
2580.698632	-3.015000	2.973300	-8.963700	27.998773	0.000266	20.947660
2581.696470	-2.977400	2.973400	-8.852300	28.019079	0.000267	20.945815
2582.701576	-2.984500	2.969200	-8.860400	28.060632	0.000268	20.964881
2583.698033	-2.982200	2.968600	-8.851400	28.111668	0.000267	20.948455
2584.697732	-2.977900	2.967700	-8.835900	28.141519	0.000266	20.931567
2585.699745	-3.022200	2.965100	-8.960400	28.162739	0.000267	20.966675
2586.701787	-3.006100	2.965000	-8.912400	28.191900	0.000267	20.945775
2587.701624	-2.983500	2.962700	-8.838100	28.208003	0.000268	20.958667
2588.702120	-2.994000	2.960700	-8.863200	28.211630	0.000265	20.942405
2589.704833	-2.982800	2.961100	-8.830900	28.190168	0.000267	20.955884
2590.701823	-2.998500	2.958300	-8.869700	28.188183	0.000266	20.958153
2591.703417	-3.042000	2.957000	-8.993300	28.203341	0.000266	20.968196
2592.704866	-3.005300	2.955600	-8.881600	28.168503	0.000265	20.937869
2593.704404	-2.979700	2.955100	-8.804400	28.138346	0.000266	20.939277
2594.706638	-2.997400	2.952800	-8.850000	28.128404	0.000265	20.970042
2595.704751	-2.995000	2.950700	-8.836400	28.126444	0.000265	20.946261
2596.705132	-3.006800	2.950400	-8.870900	28.088749	0.000266	20.964736
2597.708431	-3.031500	2.947900	-8.935600	28.056248	0.000265	20.951935
2598.714927	-3.013900	2.944900	-8.874100	28.042512	0.000266	20.951859
2599.708866	-2.989400	2.944500	-8.801000	28.036718	0.000265	20.941761
2600.713472	-2.989200	2.945000	-8.802800	28.043324	0.000268	20.947461
2601.710039	-2.984200	2.943000	-8.780600	28.070466	0.000264	20.949653
2602.708505	-2.982400	2.941100	-8.770300	28.122253	0.000266	20.961005
2603.714070	-3.018500	2.939200	-8.870600	28.141346	0.000267	20.933763
2604.711649	-2.984600	2.938600	-8.769700	28.145991	0.000267	20.929905
2605.712399	-2.978600	2.936800	-8.746700	28.130680	0.000267	20.942939
2606.717378	-3.009900	2.933700	-8.828200	28.115416	0.000267	20.943220
2607.716292	-3.008300	2.932800	-8.821700	28.114905	0.000264	20.941284
2608.708972	-2.992800	2.931700	-8.772100	28.123739	0.000263	20.931211
2609.714119	-2.986300	2.931100	-8.752000	28.101742	0.000265	20.937042
2610.718580	-2.993500	2.927900	-8.763800	28.122173	0.000266	20.942436
2611.711600	-2.993100	2.925800	-8.756300	28.142604	0.000265	20.943563
2612.718698	-3.004800	2.924900	-8.787900	28.164244	0.000266	20.925522
2613.723014	-2.990900	2.923300	-8.742300	28.212421	0.000265	20.935617
2614.714445	-3.014500	2.921900	-8.806900	28.224793	0.000265	20.967983
2615.718799	-2.990300	2.921200	-8.734400	28.249869	0.000267	20.932068
2616.719125	-3.004400	2.918100	-8.765900	28.240921	0.000266	20.933965
2617.717443	-3.011600	2.916200	-8.781500	28.236288	0.000267	20.944945
2618.717049	-2.973700	2.916500	-8.671600	28.198775	0.000265	20.928991
2619.718455	-3.024400	2.913400	-8.809800	28.230648	0.000265	20.948275
2620.714671	-3.018100	2.912200	-8.788300	28.241519	0.000265	20.935041
2621.719437	-3.001400	2.909900	-8.732100	28.292087	0.000264	20.941383
2622.717255	-2.977600	2.909800	-8.663300	28.338606	0.000265	20.931799
2623.719216	-2.975500	2.907900	-8.651600	28.287186	0.000266	20.942138
2624.720576	-2.984200	2.905600	-8.669800	28.323143	0.000266	20.939461
2625.721026	-3.006100	2.904500	-8.730300	28.329938	0.000267	20.926864
2626.714914	-3.010200	2.902900	-8.736900	28.339980	0.000265	20.942189
2627.720878	-3.019600	2.901100	-8.759400	28.317655	0.000264	20.921135
2628.718554	-2.985000	2.899900	-8.654200	28.314703	0.000266	20.930490
2629.715229	-2.998300	2.896100	-8.682900	28.322390	0.000268	20.942495
2630.717206	-2.992500	2.894100	-8.659500	28.314435	0.000268	20.953925
2631.716915	-3.035500	2.892900	-8.781200	28.313862	0.000266	20.951926
2632.718858	-2.988700	2.891900	-8.642200	28.292225	0.000265	20.932040
2633.716118	-3.006300	2.890700	-8.689100	28.327773	0.000265	20.922313
2634.719117	-2.982600	2.889200	-8.616600	28.333666	0.000266	20.934884
2635.715650	-2.982400	2.886500	-8.608000	28.375486	0.000265	20.914881
2636.717311	-2.992400	2.884100	-8.629900	28.391674	0.000265	20.942084
2637.721636	-3.010400	2.882200	-8.676000	28.366246	0.000266	20.921223
2638.716935	-2.976500	2.882000	-8.577400	28.390236	0.000265	20.929731
2639.716187	-2.980600	2.880000	-8.583100	28.421491	0.000264	20.915213
2640.717365	-3.008600	2.875900	-8.651100	28.470917	0.000265	20.932741
2641.720285	-2.988900	2.874500	-8.590500	28.461641	0.000264	20.938572
2642.717128	-2.992800	2.874500	-8.602000	28.499461	0.000264	20.928295
2643.719982	-3.026300	2.871600	-8.688900	28.528410	0.000266	20.949385
2644.717809	-3.008800	2.868300	-8.628800	28.518739	0.000266	20.916891
2645.720506	-2.994700	2.868200	-8.587900	28.505111	0.000265	20.939673
2646.719265	-2.979600	2.867200	-8.542500	28.481149	0.000266	20.914123
2647.717183	-2.978700	2.865100	-8.533100	28.448939	0.000265	20.924360
2648.720770	-2.998300	2.860800	-8.576400	28.439979	0.000264	20.926242
2649.718895	-2.995800	2.860800	-8.569900	28.402718	0.000263	20.939455
2650.720274	-2.998500	2.858400	-8.570000	28.371459	0.000266	20.930265
2651.718124	-2.994300	2.857600	-8.555500	28.428080	0.000265	20.938915
2652.724179	-2.992100	2.856000	-8.544800	28.463025	0.000266	20.915786
2653.720984	-2.982000	2.851400	-8.501200	28.449968	0.000264	20.928715
2654.720194	-3.005600	2.850200	-8.565600	28.481617	0.000265	20.942566
2655.720619	-3.036900	2.847300	-8.645100	28.519359	0.000264	20.915145
2656.721660	-3.002800	2.846700	-8.547000	28.521790	0.000266	20.927074
2657.720495	-2.987500	2.843700	-8.494500	28.536309	0.000264	20.903292
2658.720960	-3.024600	2.839900	-8.587500	28.506531	0.000265	20.930200
2659.724124	-3.001700	2.839300	-8.521900	28.500016	0.000265	20.920794
2660.721938	-2.995600	2.837900	-8.499600	28.515438	0.000264	20.916411
2661.724110	-3.004300	2.835100	-8.516300	28.473214	0.000266	20.911349
2662.723147	-2.989800	2.832700	-8.468000	28.438791	0.000264	20.906557
2663.723058	-3.006100	2.831000	-8.509100	28.419537	0.000265	20.916564
2664.722308	-3.007100	2.828400	-8.504500	28.453769	0.000265	20.936808
2665.722138	-2.985500	2.827900	-8.441500	28.477184	0.000264	20.934310
2666.723113	-3.009000	2.823900	-8.495900	28.501502	0.000265	20.922764
2667.723223	-2.987100	2.823300	-8.432700	28.519853	0.000264	20.930339
2668.724752	-3.050000	2.819100	-8.597600	28.536799	0.000264	20.914216
2669.723021	-3.000800	2.818000	-8.454700	28.584300	0.000265	20.900416
2670.723131	-2.987100	2.815800	-8.409200	28.599047	0.000264	20.911000
2671.724219	-3.043400	2.811300	-8.554600	28.613134	0.000265	20.920445
2672.724322	-3.003700	2.811100	-8.442000	28.577289	0.000264	20.914216
2673.726176	-2.978400	2.809300	-8.366600	28.548378	0.000266	20.895533
2674.724281	-2.992900	2.805800	-8.396600	28.511082	0.000264	20.905861
2675.727635	-2.972800	2.803400	-8.333500	28.496345	0.000264	20.907141
2676.724176	-3.008200	2.800700	-8.423400	28.500506	0.000266	20.911332
2677.728857	-2.985300	2.800200	-8.358200	28.507797	0.000265	20.918673
2678.732783	-3.032700	2.794100	-8.472600	28.537267	0.000265	20.922273
2679.724738	-3.002800	2.793700	-8.388100	28.600268	0.000263	20.925504
2680.727370	-2.994500	2.791200	-8.357600	28.655653	0.000264	20.925336
2681.726781	-2.977200	2.789100	-8.303400	28.686227	0.000265	20.886434
2682.729990	-2.981200	2.787800	-8.309800	28.624774	0.000265	20.918418
2683.726518	-3.000200	2.783600	-8.349500	28.612190	0.000264	20.906693
2684.727767	-2.993600	2.780500	-8.322700	28.610154	0.000264	20.930719
2685.726755	-3.004700	2.777800	-8.345300	28.647472	0.000265	20.911408
2686.727130	-2.993000	2.775400	-8.306100	28.678427	0.000265	20.911292
2687.732991	-2.986900	2.773700	-8.284100	28.661672	0.000265	20.916700
2688.727491	-3.005800	2.769500	-8.324000	28.606425	0.000264	20.907525
2689.728250	-2.999900	2.767000	-8.299400	28.537662	0.000264	20.907025
2690.730792	-3.007000	2.763000	-8.307300	28.479750	0.000263	20.902758
2691.730092	-2.997200	2.762500	-8.278500	28.484407	0.000263	20.916456
2692.727521	-3.023000	2.757600	-8.334800	28.521132	0.000265	20.904603
2693.729696	-2.959500	2.756600	-8.155800	28.552996	0.000265	20.890227
2694.727006	-3.013000	2.751900	-8.289800	28.551442	0.000264	20.929436
2695.731785	-3.013300	2.747900	-8.279500	28.591196	0.000263	20.888870
2696.731193	-2.991500	2.745600	-8.212300	28.579654	0.000265	20.917072
2697.731027	-3.004300	2.742900	-8.239200	28.631745	0.000262	20.908371
2698.732930	-3.021700	2.737900	-8.271900	28.641798	0.000266	20.909012
2699.731656	-2.987600	2.737000	-8.176500	28.648465	0.000266	20.870686
2700.732044	-2.984400	2.733100	-8.155600	28.621084	0.000265	20.878669
2701.729796	-2.985800	2.730000	-8.150800	28.593104	0.000264	20.878465
2702.735695	-3.001800	2.726400	-8.183400	28.545158	0.000264	20.903195
2703.732552	-3.013500	2.723300	-8.206100	28.481712	0.000264	20.896674
2704.733828	-3.012600	2.720500	-8.194400	28.491216	0.000263	20.890599
2705.733589	-3.017600	2.714900	-8.190100	28.459249	0.000264	20.877848
2706.732854	-3.049200	2.711200	-8.265700	28.393878	0.000262	20.905427
2707.731430	-3.036300	2.708200	-8.222800	28.402963	0.000263	20.894187
2708.731382	-3.007700	2.705400	-8.136300	28.447938	0.000264	20.887794
2709.731532	-3.021000	2.702600	-8.163400	28.460231	0.000263	20.882155
2710.730966	-2.994100	2.699300	-8.080400	28.521744	0.000261	20.894789
2711.734384	-3.008700	2.696500	-8.111800	28.546292	0.000264	20.880157
2712.733459	-3.008800	2.691700	-8.097600	28.557946	0.000262	20.891893
2713.736500	-2.989100	2.689100	-8.037200	28.594937	0.000264	20.890266
2714.735016	-2.985400	2.684800	-8.014500	28.615217	0.000264	20.902156
2715.735859	-3.013100	2.680900	-8.076900	28.620193	0.000264	20.898159
2716.735075	-2.990000	2.678000	-8.006100	28.600597	0.000263	20.873684
2717.740729	-3.029500	2.672600	-8.096300	28.623767	0.000264	20.895121
2718.736737	-3.013200	2.667100	-8.036300	28.645463	0.000264	20.895635
2719.734683	-3.043400	2.662400	-8.101600	28.660998	0.000263	20.867188
2720.737684	-3.012400	2.660100	-8.011200	28.631912	0.000263	20.893841
2721.735066	-2.993700	2.655800	-7.949800	28.658351	0.000264	20.883487
2722.739418	-3.006300	2.652100	-7.972400	28.691431	0.000264	20.880770
2723.734946	-3.008200	2.647900	-7.964600	28.727638	0.000264	20.881204
2724.735256	-3.011200	2.643400	-7.959400	28.775945	0.000263	20.884344
2725.738187	-2.999000	2.640800	-7.919100	28.819427	0.000264	20.880730
2726.736172	-2.986200	2.635300	-7.869300	28.866279	0.000263	20.883356
2727.739832	-2.969300	2.631800	-7.813000	28.889023	0.000264	20.881613
2728.736711	-2.988500	2.625600	-7.844800	28.860949	0.000264	20.893633
2729.738431	-3.007500	2.621800	-7.883900	28.818714	0.000265	20.876693
2730.738658	-3.013400	2.616700	-7.884500	28.804326	0.000265	20.883061
2731.739618	-3.013100	2.612000	-7.869900	28.795346	0.000264	20.865956
2732.737650	-3.019400	2.607800	-7.873200	28.797214	0.000265	20.869260
2733.742123	-3.021100	2.600800	-7.854700	28.821231	0.000263	20.874013
2734.739778	-2.991600	2.596300	-7.766500	28.782481	0.000264	20.891402
2735.742595	-3.007700	2.592200	-7.796000	28.780664	0.000263	20.879140
2736.740381	-2.983300	2.588800	-7.722200	28.794669	0.000263	20.865274
2737.739311	-3.010200	2.580100	-7.765600	28.792736	0.000262	20.878498
2738.743961	-2.974400	2.575700	-7.660800	28.774479	0.000264	20.889031
2739.743517	-3.030600	2.570000	-7.786100	28.821130	0.000264	20.888608
2740.746988	-2.974200	2.566500	-7.632500	28.844052	0.000264	20.866183
2741.749664	-3.010300	2.558700	-7.701400	28.882586	0.000262	20.859008
2742.743820	-2.983600	2.555700	-7.623900	28.944480	0.000261	20.863991
2743.742895	-3.005900	2.546900	-7.655200	28.981761	0.000265	20.862197
2744.746201	-2.960800	2.542800	-7.527100	29.062846	0.000264	20.854752
2745.747465	-3.013600	2.535200	-7.639200	29.091041	0.000264	20.873678
2746.743043	-2.977800	2.531000	-7.536000	29.066673	0.000264	20.851496
2747.749171	-3.012300	2.524500	-7.603600	29.088421	0.000264	20.885235
2748.744453	-3.015200	2.517200	-7.589100	29.090545	0.000265	20.870807
2749.745604	-3.015800	2.511000	-7.571800	29.082278	0.000264	20.865796
2750.747676	-2.995800	2.505500	-7.504900	29.110563	0.000263	20.855417
2751.743991	-2.970500	2.500800	-7.426200	29.080063	0.000263	20.879211
2752.749076	-2.996400	2.493500	-7.470500	29.043549	0.000264	20.857120
