LabVIEW Measurement	
Writer_Version	2
Reader_Version	2
Separator	Tab
Decimal_Separator	.
Multi_Headings	No
X_Columns	One
Time_Pref	Absolute
Operator	admin
Description	Clolumns are: time, Current, Voltage, Power, Battery Temp, and Chamber Temp
Date	2024/08/16
Time	13:06:06.104549407958984375
***End_of_Header***	
	
Channels	6						
Samples	1	1	1	1	1	1	
Date	2024/09/10	2024/09/10	2024/09/10	2024/09/10	2024/09/10	2024/09/10	
Time	18:02:40.3308262825012207031	18:02:40.3437414169311523437	18:02:40.3510375022888183594	18:02:40.3107199668884277344	18:02:40.3107199668884277344	18:02:40.3107199668884277344	
X_Dimension	Time	Time	Time	Time	Time	Time	
X0	0.0000000000000000E+0	0.0000000000000000E+0	0.0000000000000000E+0	0.0000000000000000E+0	0.0000000000000000E+0	0.0000000000000000E+0	
Delta_X	1.000000	1.000000	1.000000	1.000000	1.000000	1.000000	
***End_of_Header***							
X_Value	Untitled	Untitled 1	Untitled 2	Untitled 3	Untitled 4	Untitled 5	Comment
0.000000	0.022100	4.096500	0.090414	20.967131	0.000915	20.767999
1.000907	-3.017100	3.919400	-11.825000	20.964356	0.000916	20.753843
1.997871	-2.986000	3.913300	-11.685000	20.975802	0.000912	20.771930
2.999953	-3.008700	3.908700	-11.760000	20.970651	0.000916	20.763933
4.006898	-3.010300	3.903600	-11.749000	20.962112	0.000915	20.763453
4.996757	-3.004800	3.900800	-11.720000	20.981490	0.000912	20.773825
6.000182	-3.003300	3.897100	-11.702000	20.977569	0.000912	20.761843
6.999969	-3.002700	3.895000	-11.694000	20.969104	0.000909	20.776611
7.998880	-3.014200	3.892800	-11.732000	20.976665	0.000907	20.755248
9.004699	-2.973500	3.892800	-11.574000	20.984758	0.000908	20.766662
10.000247	-2.993200	3.890200	-11.643000	20.992615	0.000907	20.763615
10.999433	-3.021300	3.887600	-11.744000	20.998274	0.000907	20.775913
12.003246	-2.971900	3.888000	-11.553000	20.981202	0.000906	20.780650
13.002118	-2.995300	3.886400	-11.639000	20.997666	0.000905	20.781944
14.001377	-2.993500	3.884100	-11.625000	21.010412	0.000904	20.771932
15.001893	-2.999700	3.882200	-11.644000	21.003794	0.000903	20.761046
16.010308	-2.998800	3.881400	-11.638000	21.020140	0.000899	20.785929
17.014103	-3.016400	3.879900	-11.703000	21.028342	0.000902	20.781331
18.005942	-3.014600	3.878800	-11.691000	21.026416	0.000902	20.778456
19.004420	-3.037100	3.876800	-11.773000	21.038040	0.000899	20.802411
20.005910	-2.996100	3.876700	-11.614000	21.037665	0.000898	20.785440
21.004219	-3.015200	3.875300	-11.684000	21.039457	0.000899	20.782965
22.010259	-2.996400	3.876500	-11.615000	21.065727	0.000900	20.785534
23.013586	-2.996800	3.875300	-11.612000	21.075282	0.000897	20.784185
24.003766	-3.018700	3.873000	-11.689000	21.074803	0.000900	20.780387
25.008927	-2.998000	3.872000	-11.608000	21.067268	0.000898	20.786126
26.005049	-3.011700	3.871200	-11.658000	21.064221	0.000899	20.781656
27.007926	-2.985100	3.872100	-11.557000	21.092490	0.000897	20.784328
28.013307	-2.987200	3.872400	-11.567000	21.074225	0.000898	20.796878
29.018488	-2.974300	3.871800	-11.515000	21.071455	0.000897	20.786521
30.003495	-2.994200	3.870100	-11.587000	21.108326	0.000897	20.778357
31.015849	-3.011000	3.868300	-11.645000	21.097571	0.000897	20.787988
32.011786	-2.968300	3.870400	-11.488000	21.099917	0.000897	20.761884
33.010725	-2.992400	3.868800	-11.575000	21.116503	0.000897	20.764250
34.010538	-3.007500	3.868300	-11.633000	21.127301	0.000898	20.779319
35.013849	-3.000300	3.867000	-11.601000	21.120497	0.000896	20.767298
36.008353	-3.011700	3.865500	-11.641000	21.128101	0.000897	20.800982
37.010114	-2.975400	3.868000	-11.508000	21.140850	0.000896	20.796666
38.007888	-2.980900	3.867500	-11.528000	21.139171	0.000895	20.792615
39.006470	-3.006200	3.865800	-11.620000	21.151017	0.000895	20.798774
40.009637	-2.983600	3.865400	-11.530000	21.185964	0.000896	20.756920
41.011273	-3.012600	3.864800	-11.643000	21.155198	0.000896	20.784940
42.008074	-2.992000	3.865300	-11.563000	21.190645	0.000895	20.803802
43.017186	-3.016900	3.862700	-11.651000	21.178390	0.000894	20.801975
44.016978	-2.996500	3.863700	-11.577000	21.184502	0.000895	20.796235
45.010174	-3.001700	3.862800	-11.592000	21.192851	0.000896	20.793682
46.012431	-2.966000	3.863600	-11.458000	21.198090	0.000897	20.781378
47.013074	-2.987900	3.863100	-11.540000	21.211031	0.000896	20.793375
48.012631	-2.985200	3.863000	-11.530000	21.202647	0.000896	20.768867
49.018794	-2.970400	3.862300	-11.472000	21.213114	0.000895	20.785976
50.009564	-2.989000	3.860400	-11.539000	21.223364	0.000895	20.812825
51.012643	-2.979000	3.859700	-11.496000	21.237603	0.000895	20.764955
52.018100	-2.995700	3.860000	-11.562000	21.239765	0.000895	20.781817
53.013511	-2.980900	3.860000	-11.505000	21.257643	0.000896	20.797805
54.015318	-2.995300	3.858700	-11.557000	21.262575	0.000895	20.801317
55.019771	-2.999000	3.858300	-11.569000	21.267759	0.000896	20.783743
56.022069	-2.991700	3.859000	-11.543000	21.250316	0.000894	20.804700
57.018566	-3.024100	3.856800	-11.662000	21.290543	0.000894	20.803218
58.018775	-2.994300	3.857500	-11.549000	21.275322	0.000895	20.786094
59.016186	-3.000900	3.857100	-11.572000	21.288963	0.000895	20.809224
60.018145	-2.985700	3.856200	-11.512000	21.305463	0.000894	20.794436
61.017952	-3.002000	3.857900	-11.581000	21.296704	0.000896	20.822658
62.017681	-3.011000	3.854000	-11.603000	21.293476	0.000895	20.804255
63.030729	-2.998300	3.856400	-11.561000	21.303996	0.000894	20.807194
64.022876	-3.026200	3.855100	-11.664000	21.318106	0.000896	20.798077
65.025446	-2.988100	3.856100	-11.520000	21.324134	0.000895	20.806478
66.018421	-2.998800	3.854800	-11.558000	21.338999	0.000897	20.799064
67.025246	-2.985200	3.854500	-11.506000	21.341882	0.000895	20.820915
68.025557	-3.019200	3.852900	-11.632000	21.369760	0.000895	20.802813
69.030335	-2.988500	3.856200	-11.522000	21.374840	0.000897	20.820698
70.023388	-3.018300	3.854100	-11.632000	21.387152	0.000895	20.814050
71.026229	-2.987400	3.855200	-11.515000	21.366043	0.000896	20.808103
72.025671	-3.018200	3.853400	-11.627000	21.397193	0.000894	20.823622
73.024814	-2.995300	3.852400	-11.537000	21.392271	0.000895	20.808267
74.026974	-2.990400	3.852900	-11.520000	21.399020	0.000896	20.824501
75.031584	-2.969800	3.855200	-11.448000	21.396463	0.000894	20.824788
76.029706	-2.996800	3.852900	-11.545000	21.407086	0.000894	20.817874
77.027294	-3.008400	3.851700	-11.585000	21.410320	0.000894	20.815419
78.029007	-3.002500	3.851000	-11.561000	21.431389	0.000895	20.798567
79.027570	-3.024100	3.849800	-11.641000	21.438112	0.000893	20.822838
80.026610	-2.995000	3.850300	-11.530000	21.441400	0.000895	20.827076
81.025959	-3.002500	3.850500	-11.559000	21.457858	0.000893	20.828844
82.027265	-2.992600	3.850500	-11.522000	21.451214	0.000893	20.820774
83.032843	-2.993400	3.849400	-11.522000	21.485407	0.000893	20.812314
84.030089	-3.011100	3.849000	-11.587000	21.478290	0.000894	20.836485
85.029556	-2.967700	3.850000	-11.425000	21.488759	0.000892	20.850280
86.030096	-2.987600	3.849800	-11.500000	21.506860	0.000893	20.824296
87.038338	-2.998800	3.849000	-11.541000	21.503316	0.000893	20.817431
88.033055	-3.001400	3.847700	-11.547000	21.491115	0.000894	20.819921
89.028045	-2.986200	3.849600	-11.495000	21.510143	0.000894	20.824262
90.027420	-3.011200	3.848200	-11.586000	21.523905	0.000894	20.834713
91.033938	-3.022200	3.848100	-11.629000	21.535282	0.000895	20.838511
92.033511	-2.973700	3.847700	-11.440000	21.544676	0.000894	20.837479
93.030560	-2.986700	3.847400	-11.490000	21.562603	0.000893	20.853047
94.031420	-2.980500	3.847600	-11.466000	21.557638	0.000893	20.836225
95.029879	-3.007500	3.846900	-11.569000	21.538111	0.000895	20.837074
96.031015	-3.023200	3.846200	-11.626000	21.565668	0.000897	20.829088
97.029948	-3.003500	3.847000	-11.554000	21.560229	0.000897	20.833128
98.030125	-2.987700	3.847800	-11.495000	21.575515	0.000895	20.826614
99.028303	-3.002600	3.846600	-11.548000	21.575866	0.000896	20.824594
100.028312	-3.008500	3.846800	-11.572000	21.624694	0.000897	20.832679
101.027966	-2.986800	3.847200	-11.490000	21.598230	0.000897	20.835593
102.030425	-2.989200	3.847000	-11.498000	21.629127	0.000896	20.825261
103.030622	-3.003200	3.844000	-11.544000	21.641194	0.000897	20.847293
104.028502	-3.002300	3.844600	-11.540000	21.646327	0.000894	20.851008
105.030752	-2.991000	3.844900	-11.499000	21.651741	0.000895	20.857374
106.030595	-2.982700	3.845100	-11.466000	21.681635	0.000898	20.841298
107.031208	-2.995300	3.843100	-11.511000	21.693850	0.000894	20.823177
108.030498	-2.995900	3.843500	-11.513000	21.684350	0.000897	20.865350
109.030505	-3.011100	3.843300	-11.571000	21.704249	0.000897	20.836428
110.031716	-2.999600	3.843800	-11.528000	21.702250	0.000897	20.827790
111.030751	-2.999000	3.844100	-11.527000	21.679730	0.000900	20.828487
112.034266	-3.008600	3.843300	-11.562000	21.711000	0.000899	20.851245
113.029771	-3.020900	3.842000	-11.605000	21.719903	0.000898	20.847828
114.035248	-3.012800	3.841600	-11.573000	21.734413	0.000901	20.854762
115.027913	-3.014600	3.841900	-11.580000	21.717678	0.000901	20.852712
116.034337	-2.995600	3.841900	-11.507000	21.745660	0.000901	20.824768
117.030634	-2.975400	3.841700	-11.430000	21.734359	0.000901	20.825311
118.030291	-3.004300	3.842800	-11.545000	21.750590	0.000900	20.856728
119.035046	-3.001800	3.842300	-11.533000	21.764102	0.000900	20.851759
120.034630	-3.008700	3.840600	-11.554000	21.790233	0.000903	20.838084
121.033915	-3.022600	3.841600	-11.611000	21.772428	0.000900	20.878108
122.036875	-3.024700	3.840700	-11.615000	21.765898	0.000899	20.853557
123.035987	-3.014000	3.839700	-11.571000	21.779035	0.000902	20.842524
124.030155	-3.019400	3.838400	-11.589000	21.801445	0.000903	20.836029
125.037828	-2.988000	3.840700	-11.474000	21.797778	0.000900	20.850851
126.037725	-3.018900	3.839900	-11.592000	21.806256	0.000903	20.861707
127.029954	-3.008800	3.839800	-11.552000	21.844426	0.000902	20.849177
128.037370	-3.010700	3.839500	-11.560000	21.849336	0.000903	20.846031
129.036882	-3.006700	3.839500	-11.543000	21.839936	0.000904	20.866019
130.031412	-3.025500	3.839300	-11.614000	21.852401	0.000905	20.849572
131.035672	-3.000200	3.839100	-11.517000	21.877330	0.000903	20.863144
132.040059	-3.014900	3.837200	-11.568000	21.912083	0.000904	20.884179
133.031578	-3.008100	3.837700	-11.543000	21.897646	0.000905	20.859297
134.038928	-2.998300	3.837700	-11.505000	21.908516	0.000908	20.871600
135.049829	-3.002000	3.837100	-11.518000	21.900710	0.000907	20.874218
136.036545	-3.016300	3.837200	-11.573000	21.921272	0.000908	20.858764
137.039340	-3.008100	3.836700	-11.540000	21.925239	0.000908	20.875062
138.035545	-3.007300	3.836500	-11.535000	21.922298	0.000908	20.868326
139.043954	-3.004000	3.836200	-11.523000	21.926709	0.000907	20.870845
140.042572	-2.973000	3.837400	-11.408000	21.928199	0.000910	20.867595
141.035335	-2.972300	3.837100	-11.404000	21.944823	0.000908	20.867166
142.034783	-2.989500	3.835900	-11.466000	21.959108	0.000908	20.843059
143.040365	-3.015200	3.836100	-11.566000	21.949708	0.000911	20.870159
144.037666	-2.969800	3.836900	-11.392000	21.942796	0.000909	20.860395
145.039146	-3.026700	3.836100	-11.609000	21.961916	0.000911	20.852508
146.038294	-2.998400	3.835500	-11.499000	21.965177	0.000911	20.873790
147.035355	-3.002200	3.835700	-11.514000	21.986937	0.000912	20.864752
148.037979	-2.996500	3.836200	-11.494000	21.997501	0.000913	20.863947
149.037625	-3.017200	3.833400	-11.565000	22.009115	0.000913	20.885056
150.034883	-2.997200	3.834200	-11.491000	21.998443	0.000914	20.873899
151.037505	-3.026200	3.833200	-11.598000	22.028999	0.000912	20.876512
152.036174	-3.022500	3.831900	-11.580000	22.035749	0.000914	20.880424
153.036990	-3.010700	3.831800	-11.535000	22.029686	0.000912	20.880993
154.037511	-2.977900	3.834900	-11.419000	22.020435	0.000913	20.879793
155.040166	-2.997300	3.834100	-11.489000	22.021748	0.000913	20.867357
156.040199	-3.024300	3.832800	-11.591000	22.043511	0.000914	20.876341
157.041544	-3.003600	3.833700	-11.513000	22.031513	0.000914	20.872865
158.045809	-3.013800	3.832500	-11.549000	22.028045	0.000914	20.884565
159.041515	-3.022500	3.833000	-11.584000	22.061644	0.000914	20.888328
160.042010	-2.988100	3.832800	-11.451000	22.089904	0.000917	20.870629
161.038823	-2.985200	3.833100	-11.441000	22.087457	0.000915	20.887144
162.041370	-2.986700	3.833100	-11.446000	22.088277	0.000918	20.881801
163.043719	-3.000100	3.832200	-11.495000	22.097843	0.000915	20.879050
164.040970	-3.005500	3.830700	-11.511000	22.115935	0.000917	20.910436
165.047747	-3.014100	3.830900	-11.545000	22.125304	0.000917	20.892316
166.045187	-2.982300	3.830700	-11.423000	22.126576	0.000916	20.886953
167.043867	-2.981200	3.831100	-11.420000	22.138383	0.000919	20.912995
168.045046	-2.999900	3.830100	-11.488000	22.136937	0.000919	20.903488
169.045465	-2.998300	3.830100	-11.482000	22.156000	0.000919	20.884643
170.043115	-2.988700	3.829400	-11.444000	22.133958	0.000920	20.902877
171.047174	-3.023900	3.828700	-11.576000	22.159310	0.000921	20.887483
172.042477	-2.995300	3.830400	-11.472000	22.177895	0.000922	20.891864
173.042188	-3.006700	3.828400	-11.510000	22.161669	0.000922	20.895534
174.046680	-3.024100	3.827000	-11.572000	22.165651	0.000920	20.913269
175.049559	-2.991000	3.828500	-11.450000	22.178458	0.000923	20.903333
176.046035	-3.010100	3.828400	-11.523000	22.185656	0.000924	20.906272
177.051025	-2.989000	3.829600	-11.445000	22.188345	0.000924	20.910860
178.048372	-3.000700	3.828700	-11.487000	22.186722	0.000925	20.887901
179.046535	-3.016100	3.828300	-11.544000	22.183180	0.000923	20.896682
180.052731	-2.987100	3.828700	-11.436000	22.187009	0.000925	20.900989
181.047441	-2.993100	3.827400	-11.453000	22.190345	0.000924	20.898639
182.046300	-2.996000	3.827500	-11.465000	22.203329	0.000925	20.893621
183.047479	-3.005400	3.827600	-11.502000	22.213842	0.000926	20.925007
184.049812	-3.012400	3.825200	-11.522000	22.217823	0.000927	20.915244
185.059158	-3.004800	3.826800	-11.498000	22.227710	0.000927	20.910919
186.048767	-2.995000	3.827000	-11.460000	22.262798	0.000927	20.925661
187.047468	-2.984100	3.827200	-11.420000	22.241986	0.000928	20.900558
188.045782	-2.990600	3.825800	-11.441000	22.275101	0.000928	20.939875
189.048342	-3.009800	3.825900	-11.514000	22.293141	0.000927	20.911000
190.049678	-2.988900	3.826900	-11.437000	22.291044	0.000929	20.925969
191.048686	-2.978700	3.825200	-11.393000	22.302923	0.000929	20.912260
192.047794	-2.998800	3.825600	-11.470000	22.306510	0.000931	20.916325
193.053739	-3.002500	3.824000	-11.480000	22.319834	0.000931	20.919235
194.052081	-2.979800	3.826000	-11.399000	22.319957	0.000930	20.908454
195.053109	-3.004500	3.823100	-11.485000	22.317605	0.000932	20.921745
196.052538	-3.007200	3.824300	-11.499000	22.341252	0.000932	20.931198
197.052688	-2.987500	3.823700	-11.422000	22.344838	0.000932	20.921988
198.050687	-3.018700	3.823800	-11.542000	22.335438	0.000931	20.913050
199.053682	-2.983800	3.823500	-11.407000	22.351454	0.000933	20.946628
200.053878	-2.977900	3.823200	-11.385000	22.366203	0.000932	20.922045
201.052536	-2.996400	3.824500	-11.459000	22.373795	0.000933	20.931068
202.051829	-3.008000	3.823600	-11.500000	22.383940	0.000933	20.922263
203.052743	-3.007000	3.821700	-11.489000	22.377826	0.000934	20.919459
204.055727	-3.029800	3.821800	-11.579000	22.402221	0.000932	20.932507
205.056062	-2.997600	3.822300	-11.457000	22.429209	0.000934	20.928714
206.061234	-2.996400	3.822600	-11.453000	22.416264	0.000936	20.917648
207.055912	-3.018500	3.821800	-11.534000	22.399494	0.000936	20.928829
208.059209	-3.006900	3.821900	-11.491000	22.430637	0.000937	20.927299
209.058243	-3.016500	3.819700	-11.521000	22.418228	0.000937	20.928148
210.056156	-3.009800	3.822100	-11.502000	22.420735	0.000939	20.943933
211.053751	-3.002800	3.820700	-11.471000	22.437800	0.000939	20.915033
212.055080	-3.001900	3.819900	-11.466000	22.441736	0.000941	20.919923
213.059782	-2.998700	3.820800	-11.457000	22.428050	0.000939	20.929924
214.058340	-2.988700	3.819900	-11.416000	22.458027	0.000940	20.911108
215.057749	-3.016100	3.818700	-11.516000	22.445486	0.000941	20.911825
216.055398	-2.992000	3.820500	-11.430000	22.436935	0.000942	20.916537
217.057942	-3.006900	3.819000	-11.481000	22.409917	0.000942	20.899915
218.061683	-3.008000	3.819600	-11.489000	22.410588	0.000944	20.922395
219.059662	-2.996000	3.818900	-11.440000	22.432632	0.000943	20.916495
220.061408	-3.012100	3.818900	-11.502000	22.407286	0.000946	20.906288
221.054708	-2.984300	3.819600	-11.397000	22.468533	0.000944	20.922576
222.058471	-2.998100	3.819700	-11.452000	22.467384	0.000946	20.919055
223.058021	-3.023700	3.817400	-11.541000	22.476371	0.000945	20.922840
224.059396	-3.018500	3.816800	-11.519000	22.463756	0.000945	20.915897
225.056465	-2.996100	3.819000	-11.440000	22.483539	0.000948	20.892562
226.061708	-3.001700	3.817200	-11.456000	22.498084	0.000947	20.909498
227.061448	-2.995200	3.816100	-11.429000	22.508718	0.000948	20.895967
228.059593	-2.995000	3.815700	-11.427000	22.492538	0.000947	20.921012
229.061390	-3.007900	3.815700	-11.476000	22.512966	0.000950	20.903066
230.058237	-2.999100	3.817100	-11.447000	22.515827	0.000949	20.914939
231.057303	-2.999800	3.816500	-11.448000	22.539915	0.000949	20.903029
232.060433	-3.001200	3.815600	-11.450000	22.545394	0.000950	20.901404
233.066362	-2.997800	3.816500	-11.440000	22.573791	0.000950	20.898077
234.061695	-3.005500	3.814400	-11.463000	22.582782	0.000951	20.916089
235.062969	-2.981000	3.815300	-11.372000	22.582798	0.000950	20.914683
236.059675	-2.996000	3.815300	-11.429000	22.594254	0.000953	20.906244
237.061162	-3.029100	3.813700	-11.551000	22.595843	0.000952	20.911154
238.065043	-3.003000	3.815100	-11.456000	22.569229	0.000955	20.900620
239.061283	-3.009500	3.814400	-11.479000	22.580583	0.000951	20.907724
240.065057	-3.002000	3.814500	-11.450000	22.604101	0.000954	20.896667
241.061512	-2.995000	3.812900	-11.419000	22.613487	0.000953	20.903222
242.065344	-2.998300	3.813500	-11.433000	22.642310	0.000954	20.887996
243.059412	-3.006600	3.811900	-11.459000	22.645842	0.000955	20.891060
244.065197	-3.008400	3.813500	-11.471000	22.630640	0.000955	20.900962
245.064075	-3.009400	3.812000	-11.471000	22.622786	0.000956	20.912535
246.060019	-3.003900	3.812700	-11.453000	22.618126	0.000954	20.905023
247.062337	-2.984400	3.812600	-11.377000	22.630253	0.000954	20.896308
248.066400	-2.986400	3.812600	-11.385000	22.620411	0.000956	20.915371
249.057683	-3.032400	3.810400	-11.554000	22.622848	0.000956	20.888417
250.061191	-2.979000	3.812900	-11.358000	22.640586	0.000958	20.885321
251.064019	-2.996200	3.812300	-11.421000	22.629496	0.000958	20.895075
252.062884	-2.975600	3.812200	-11.342000	22.669581	0.000958	20.890656
253.064424	-2.983000	3.813700	-11.375000	22.669800	0.000957	20.890400
254.065697	-3.006200	3.811100	-11.456000	22.693863	0.000958	20.907864
255.068646	-3.018500	3.809700	-11.497000	22.708587	0.000958	20.895586
256.063137	-3.036200	3.809400	-11.565000	22.721487	0.000961	20.913248
257.069133	-2.961800	3.811600	-11.288000	22.717248	0.000960	20.897149
258.065486	-2.993200	3.809400	-11.402000	22.714329	0.000960	20.887588
259.066841	-2.986100	3.810000	-11.376000	22.706657	0.000961	20.878481
260.066659	-2.978400	3.810800	-11.348000	22.726883	0.000963	20.900637
261.065629	-2.993300	3.810000	-11.403000	22.751522	0.000962	20.884542
262.070039	-2.982700	3.809800	-11.363000	22.730370	0.000963	20.891802
263.069286	-3.013100	3.809000	-11.476000	22.752115	0.000964	20.885610
264.068254	-2.992700	3.808400	-11.397000	22.768332	0.000963	20.887630
265.067348	-3.017700	3.807800	-11.489000	22.756746	0.000963	20.877921
266.077687	-2.981700	3.807600	-11.353000	22.769452	0.000964	20.889225
267.071235	-2.983500	3.810600	-11.366000	22.771592	0.000964	20.880464
268.067843	-3.004200	3.807700	-11.438000	22.780211	0.000965	20.880089
269.072825	-2.998100	3.806200	-11.410000	22.777099	0.000965	20.895463
270.071076	-3.010800	3.805700	-11.457000	22.785936	0.000966	20.875394
271.067200	-3.026500	3.805100	-11.514000	22.804569	0.000968	20.880308
272.074900	-3.005900	3.804700	-11.435000	22.795279	0.000966	20.882856
273.072391	-2.995000	3.806300	-11.398000	22.788751	0.000968	20.876317
274.069887	-3.020400	3.805800	-11.494000	22.759302	0.000967	20.865783
275.079271	-2.980700	3.806000	-11.344000	22.775317	0.000970	20.901264
276.073423	-3.016600	3.805200	-11.478000	22.768867	0.000970	20.881528
277.073301	-2.993800	3.804500	-11.389000	22.801449	0.000969	20.901363
278.079500	-3.001200	3.804400	-11.417000	22.811833	0.000970	20.883792
279.074108	-2.966900	3.805700	-11.291000	22.808697	0.000970	20.874961
280.070124	-2.989400	3.804500	-11.372000	22.829844	0.000970	20.888558
281.080276	-3.011600	3.804000	-11.455000	22.832334	0.000970	20.891052
282.079989	-2.999000	3.804300	-11.408000	22.853382	0.000973	20.862827
283.072477	-3.022000	3.804600	-11.496000	22.860090	0.000971	20.868599
284.078939	-2.986800	3.804100	-11.361000	22.838586	0.000973	20.857488
285.081033	-2.988500	3.803800	-11.367000	22.868679	0.000973	20.875307
286.078923	-3.001100	3.804000	-11.415000	22.865687	0.000974	20.880370
287.082005	-2.969600	3.803900	-11.295000	22.873684	0.000972	20.877476
288.078153	-2.994900	3.803600	-11.390000	22.889047	0.000971	20.868212
289.077415	-3.007700	3.801800	-11.434000	22.879734	0.000975	20.872157
290.079346	-3.013800	3.801800	-11.456000	22.864687	0.000976	20.868463
291.079250	-3.016500	3.801600	-11.467000	22.904793	0.000973	20.869288
292.080077	-3.007400	3.800700	-11.430000	22.894356	0.000974	20.873056
293.088935	-3.000800	3.800700	-11.403000	22.917946	0.000976	20.869663
294.077510	-2.993000	3.801000	-11.375000	22.939074	0.000976	20.842469
295.081011	-3.002600	3.799300	-11.407000	22.930774	0.000976	20.884884
296.081371	-3.002400	3.799400	-11.406000	22.912822	0.000978	20.860737
297.080849	-3.000000	3.798900	-11.396000	22.942535	0.000979	20.867746
298.076163	-2.999200	3.800200	-11.396000	22.924350	0.000980	20.878923
299.082083	-3.006700	3.798900	-11.421000	22.916781	0.000978	20.874186
300.086456	-3.015000	3.800300	-11.457000	22.931527	0.000980	20.879475
301.080187	-3.009400	3.798500	-11.431000	22.919522	0.000980	20.848010
302.081482	-3.012200	3.797700	-11.439000	22.947050	0.000981	20.877484
303.078347	-3.016200	3.797800	-11.454000	22.942148	0.000979	20.844126
304.082603	-2.989700	3.799300	-11.358000	22.948070	0.000982	20.844843
305.080906	-2.992600	3.798300	-11.367000	22.930164	0.000983	20.848241
306.081039	-2.992200	3.797300	-11.362000	22.963198	0.000982	20.866637
307.085944	-2.995100	3.799100	-11.377000	22.952934	0.000984	20.838337
308.083570	-3.003500	3.798700	-11.409000	22.948700	0.000984	20.847845
309.079342	-3.012200	3.796900	-11.436000	22.975749	0.000983	20.853608
310.079478	-2.999600	3.796700	-11.388000	22.967609	0.000984	20.840712
311.086006	-2.996200	3.797200	-11.376000	22.992070	0.000985	20.844831
312.084799	-3.008200	3.795100	-11.415000	22.996379	0.000986	20.856734
313.085184	-3.014700	3.796600	-11.444000	22.976778	0.000984	20.850372
314.087960	-2.996900	3.795800	-11.374000	23.011098	0.000985	20.858205
315.085968	-3.006600	3.795400	-11.410000	23.018794	0.000986	20.841734
316.081993	-3.016300	3.795300	-11.446000	23.047142	0.000987	20.835999
317.085215	-2.982600	3.796000	-11.321000	23.012543	0.000989	20.833575
318.083349	-2.998200	3.794500	-11.376000	23.026024	0.000987	20.850401
319.087073	-2.989300	3.794200	-11.342000	23.045203	0.000988	20.839747
320.088478	-2.997900	3.794800	-11.375000	23.050133	0.000987	20.817186
321.088202	-2.992400	3.794200	-11.353000	23.041043	0.000987	20.846484
322.088199	-2.996600	3.794600	-11.370000	23.032031	0.000988	20.824653
323.088494	-3.008300	3.792400	-11.407000	23.066325	0.000989	20.832462
324.090746	-3.001000	3.791900	-11.377000	23.078855	0.000989	20.830318
325.087697	-3.012200	3.793100	-11.424000	23.064383	0.000989	20.828619
326.087586	-3.000300	3.792000	-11.375000	23.084011	0.000990	20.803716
327.088422	-2.989000	3.793600	-11.338000	23.066975	0.000989	20.826001
328.090339	-3.000900	3.791900	-11.379000	23.063667	0.000990	20.816522
329.088655	-2.977100	3.791700	-11.287000	23.050590	0.000990	20.823808
330.091123	-2.987600	3.791100	-11.323000	23.044339	0.000991	20.847416
331.089278	-2.998500	3.792100	-11.370000	23.044845	0.000991	20.817104
332.088071	-2.987900	3.792800	-11.332000	23.042525	0.000992	20.815727
333.090403	-3.005400	3.791400	-11.394000	23.045018	0.000991	20.819648
334.089219	-3.000100	3.790700	-11.372000	23.056951	0.000992	20.809319
335.088862	-2.978800	3.791400	-11.291000	23.058992	0.000994	20.809942
336.092478	-3.020100	3.789800	-11.444000	23.027986	0.000992	20.830083
337.091548	-3.012700	3.789400	-11.414000	23.069658	0.000992	20.811146
338.086942	-2.983800	3.789700	-11.306000	23.065650	0.000993	20.816613
339.088906	-2.983400	3.790500	-11.307000	23.061943	0.000993	20.822381
340.088137	-3.008700	3.788400	-11.396000	23.056939	0.000994	20.805988
341.086769	-3.005800	3.789400	-11.388000	23.056470	0.000994	20.801251
342.092170	-2.999100	3.788700	-11.362000	23.064370	0.000994	20.811538
343.090203	-2.995500	3.788100	-11.346000	23.085764	0.000996	20.797886
344.091111	-3.003300	3.787600	-11.372000	23.116007	0.000996	20.794526
345.090081	-3.001200	3.786600	-11.362000	23.126664	0.000997	20.820851
346.090279	-3.002000	3.787100	-11.368000	23.120270	0.000997	20.822031
347.092166	-2.986600	3.786500	-11.308000	23.129960	0.000997	20.807085
348.094849	-3.029100	3.786800	-11.469000	23.133622	0.000996	20.822608
349.090853	-3.008600	3.786200	-11.389000	23.152977	0.000998	20.796010
350.094993	-3.006400	3.786100	-11.382000	23.129293	0.000997	20.792192
351.100508	-2.979800	3.787200	-11.284000	23.168620	0.000998	20.808367
352.095222	-3.000400	3.785600	-11.357000	23.172360	0.000999	20.797416
353.098536	-2.989100	3.786100	-11.315000	23.193850	0.000997	20.789553
354.091682	-2.997700	3.786000	-11.348000	23.173064	0.000999	20.801440
355.094491	-2.983600	3.785700	-11.293000	23.179906	0.001000	20.802607
356.093978	-3.007900	3.784200	-11.381000	23.151771	0.000999	20.792431
357.094519	-3.017300	3.784000	-11.416000	23.135786	0.001000	20.777361
358.091996	-3.006400	3.783400	-11.374000	23.144682	0.001000	20.781534
359.093370	-2.993300	3.784500	-11.328000	23.163383	0.000999	20.790316
360.094081	-2.994100	3.782900	-11.325000	23.171229	0.001001	20.792489
361.094689	-2.991100	3.783800	-11.317000	23.172402	0.001002	20.799354
362.095561	-3.030000	3.781100	-11.454000	23.181968	0.001001	20.796612
363.092031	-3.004800	3.782600	-11.365000	23.198878	0.001002	20.790325
364.096365	-2.985300	3.783300	-11.294000	23.208222	0.001002	20.780722
365.095699	-2.994200	3.781000	-11.321000	23.206255	0.001001	20.776855
366.099299	-3.004000	3.781500	-11.359000	23.186012	0.001002	20.785018
367.094122	-2.990000	3.781600	-11.305000	23.199084	0.001002	20.786738
368.096419	-3.002100	3.780300	-11.348000	23.225983	0.001003	20.788564
369.098962	-2.986700	3.780800	-11.292000	23.245407	0.001003	20.783373
370.100913	-3.002300	3.780300	-11.347000	23.258136	0.001004	20.781431
371.096943	-2.995600	3.780200	-11.323000	23.258115	0.001006	20.777143
372.098306	-2.999000	3.779900	-11.335000	23.248328	0.001003	20.793413
373.100883	-3.010300	3.779400	-11.376000	23.260831	0.001004	20.756631
374.101908	-3.005700	3.779600	-11.358000	23.258716	0.001006	20.782961
375.107376	-2.998100	3.779300	-11.329000	23.271968	0.001004	20.756886
376.105256	-3.013600	3.778300	-11.385000	23.264472	0.001007	20.790152
377.101651	-3.026800	3.778300	-11.435000	23.312483	0.001007	20.784215
378.105169	-2.996300	3.778800	-11.322000	23.304440	0.001007	20.765722
379.105927	-3.032900	3.776300	-11.452000	23.300857	0.001006	20.773037
380.107458	-2.979900	3.779400	-11.261000	23.318366	0.001006	20.783947
381.104617	-2.989700	3.777500	-11.292000	23.323895	0.001005	20.790437
382.107298	-3.000100	3.776300	-11.329000	23.337241	0.001008	20.772043
383.107907	-3.005000	3.777000	-11.348000	23.330996	0.001007	20.771000
384.109847	-3.008100	3.776200	-11.359000	23.334435	0.001009	20.773025
385.118522	-2.988400	3.777800	-11.288000	23.316861	0.001009	20.770110
386.110535	-3.007100	3.776900	-11.357000	23.351569	0.001009	20.772654
387.107692	-2.979500	3.776000	-11.250000	23.331556	0.001007	20.758285
388.109065	-3.008000	3.775100	-11.355000	23.318362	0.001008	20.742217
389.110242	-2.979800	3.775500	-11.249000	23.319362	0.001008	20.774988
390.111313	-2.989200	3.774600	-11.283000	23.323571	0.001008	20.758343
391.114886	-3.006000	3.775900	-11.348000	23.373151	0.001008	20.766783
392.108411	-2.993100	3.774000	-11.295000	23.382711	0.001010	20.763089
393.111856	-3.012600	3.774300	-11.369000	23.372583	0.001009	20.764317
394.114101	-3.005100	3.773600	-11.339000	23.379811	0.001010	20.738370
395.111175	-3.002400	3.774400	-11.332000	23.390194	0.001010	20.746406
396.109889	-2.996900	3.775300	-11.313000	23.389326	0.001010	20.776357
397.113182	-2.999000	3.773500	-11.316000	23.390001	0.001010	20.749058
398.110003	-2.995400	3.772500	-11.299000	23.399841	0.001011	20.740428
399.109601	-2.995600	3.773400	-11.302000	23.374847	0.001012	20.748093
400.117918	-3.004900	3.772000	-11.334000	23.379429	0.001011	20.753635
401.112909	-2.990800	3.771500	-11.279000	23.396538	0.001012	20.730953
402.113421	-3.002200	3.772100	-11.324000	23.382523	0.001013	20.731605
403.114944	-3.004500	3.770600	-11.328000	23.398739	0.001012	20.764929
404.113955	-2.990700	3.771700	-11.279000	23.416539	0.001015	20.750052
405.114487	-3.004200	3.771400	-11.329000	23.404791	0.001014	20.752502
406.119950	-2.995000	3.769700	-11.288000	23.433055	0.001015	20.744796
407.110717	-3.005500	3.769900	-11.329000	23.461664	0.001014	20.747393
408.112511	-3.022300	3.769900	-11.393000	23.488652	0.001017	20.769704
409.117568	-2.994800	3.769100	-11.286000	23.492037	0.001016	20.739905
410.113770	-3.011300	3.768000	-11.345000	23.499137	0.001017	20.729004
411.114363	-3.016600	3.768100	-11.366000	23.489331	0.001015	20.750944
412.118007	-3.006100	3.768500	-11.328000	23.466099	0.001019	20.737139
413.114214	-3.004300	3.768100	-11.320000	23.490104	0.001016	20.747926
414.115099	-3.003700	3.767800	-11.316000	23.487266	0.001018	20.733700
415.114003	-2.989200	3.767700	-11.261000	23.488986	0.001019	20.727363
416.112315	-2.983600	3.767600	-11.239000	23.506517	0.001019	20.749204
417.111930	-2.992500	3.766100	-11.270000	23.507010	0.001019	20.722671
418.115147	-2.998800	3.766200	-11.293000	23.477983	0.001019	20.732929
419.116036	-3.025600	3.765900	-11.393000	23.500092	0.001019	20.734702
420.118868	-3.006400	3.764900	-11.317000	23.509207	0.001019	20.730563
421.114783	-3.005400	3.766300	-11.318000	23.507812	0.001018	20.748132
422.116675	-3.034600	3.764800	-11.422000	23.497155	0.001020	20.744561
423.116654	-3.008400	3.765300	-11.326000	23.534647	0.001020	20.729037
424.117189	-2.995200	3.764800	-11.275000	23.559173	0.001020	20.729441
425.119586	-3.008500	3.765300	-11.326000	23.540751	0.001019	20.749382
426.115670	-3.018700	3.764200	-11.362000	23.501737	0.001018	20.722601
427.117468	-3.019400	3.763200	-11.361000	23.537794	0.001018	20.737882
428.121014	-2.996600	3.765000	-11.280000	23.544313	0.001021	20.730666
429.120028	-2.999300	3.762700	-11.282000	23.553004	0.001021	20.736059
430.126557	-2.989700	3.762800	-11.248000	23.540060	0.001020	20.742525
431.122730	-3.014700	3.763000	-11.343000	23.572450	0.001020	20.737536
432.118530	-3.007100	3.763100	-11.316000	23.572775	0.001020	20.757303
433.123239	-3.015700	3.760400	-11.339000	23.600336	0.001020	20.746051
434.123471	-3.017700	3.761400	-11.349000	23.617393	0.001024	20.732328
435.121667	-3.014400	3.760600	-11.334000	23.612067	0.001023	20.729360
436.119227	-3.009800	3.761200	-11.319000	23.621230	0.001022	20.730960
437.121630	-2.977600	3.761800	-11.199000	23.629522	0.001022	20.733582
438.120135	-3.004700	3.760800	-11.299000	23.640124	0.001023	20.738522
439.124694	-3.006900	3.759700	-11.303000	23.633384	0.001023	20.736032
440.122146	-2.992000	3.760800	-11.251000	23.663378	0.001026	20.757093
441.119956	-3.013100	3.760000	-11.328000	23.656460	0.001025	20.731191
442.127422	-2.996500	3.758800	-11.262000	23.664850	0.001023	20.734861
443.124478	-3.007600	3.759000	-11.304000	23.646035	0.001025	20.755828
444.122758	-2.987000	3.758800	-11.226000	23.647577	0.001025	20.723233
445.128847	-2.993000	3.758400	-11.249000	23.607522	0.001026	20.734762
446.124254	-3.015900	3.757600	-11.331000	23.663810	0.001025	20.734292
447.120382	-3.021200	3.756700	-11.348000	23.675358	0.001027	20.755828
448.124364	-2.987300	3.757800	-11.225000	23.657637	0.001026	20.746596
449.124070	-3.005800	3.757500	-11.293000	23.654499	0.001029	20.746769
450.126892	-3.009200	3.756600	-11.302000	23.634433	0.001026	20.737558
451.125409	-3.001600	3.757100	-11.276000	23.610611	0.001028	20.737859
452.125308	-3.030600	3.755600	-11.381000	23.589899	0.001028	20.716619
453.125527	-2.992600	3.754700	-11.234000	23.593308	0.001027	20.736160
454.125545	-2.996300	3.754900	-11.249000	23.616061	0.001027	20.732890
455.125336	-3.002300	3.753500	-11.268000	23.611158	0.001027	20.730346
456.121105	-3.015200	3.754300	-11.319000	23.646705	0.001028	20.740378
457.126582	-2.987700	3.755300	-11.219000	23.656238	0.001029	20.719588
458.122706	-3.001900	3.755000	-11.270000	23.708262	0.001028	20.730020
459.125775	-3.014900	3.752400	-11.312000	23.686182	0.001031	20.737755
460.130519	-2.994800	3.753000	-11.238000	23.748383	0.001029	20.732312
461.122320	-2.999100	3.753400	-11.255000	23.733122	0.001029	20.737875
462.126500	-2.973800	3.755300	-11.166000	23.701686	0.001029	20.744765
463.126099	-2.974800	3.754800	-11.168000	23.661013	0.001029	20.746187
464.130562	-3.006500	3.753400	-11.283000	23.671841	0.001028	20.743293
465.128434	-2.984500	3.753000	-11.200000	23.682843	0.001030	20.725398
466.131291	-2.989000	3.751900	-11.214000	23.676567	0.001030	20.734753
467.123795	-2.998500	3.751600	-11.248000	23.670640	0.001030	20.725018
468.127135	-2.999100	3.751600	-11.249000	23.684154	0.001030	20.724816
469.131799	-3.016200	3.749600	-11.308000	23.687263	0.001031	20.731252
470.128408	-3.021400	3.750000	-11.330000	23.706205	0.001031	20.727958
471.133715	-3.000600	3.750400	-11.251000	23.739031	0.001031	20.758024
472.131446	-2.964600	3.752200	-11.122000	23.745125	0.001030	20.743271
473.132636	-2.990700	3.749700	-11.212000	23.776062	0.001032	20.733037
474.133253	-2.995700	3.749100	-11.231000	23.771904	0.001031	20.746887
475.137178	-3.021600	3.749500	-11.329000	23.785018	0.001030	20.726369
476.130046	-3.014000	3.748500	-11.298000	23.781806	0.001031	20.752548
477.129079	-2.990300	3.748400	-11.207000	23.784709	0.001031	20.749769
478.134624	-3.024700	3.747600	-11.334000	23.802202	0.001030	20.747868
479.135097	-2.991200	3.748600	-11.211000	23.797300	0.001032	20.732047
480.131924	-2.993300	3.747900	-11.218000	23.818876	0.001030	20.759845
481.131032	-3.012200	3.748100	-11.289000	23.829699	0.001031	20.738928
482.143883	-2.987900	3.747200	-11.195000	23.819863	0.001032	20.750403
483.144513	-2.991100	3.747100	-11.207000	23.806519	0.001033	20.754567
484.137007	-2.981400	3.747400	-11.170000	23.813436	0.001032	20.744432
485.135725	-3.001600	3.746400	-11.243000	23.797250	0.001031	20.746696
486.136598	-2.995300	3.745400	-11.217000	23.757476	0.001032	20.770355
487.135942	-3.017400	3.744900	-11.299000	23.738531	0.001032	20.746617
488.141061	-2.989200	3.746300	-11.197000	23.716949	0.001031	20.755325
489.138313	-2.998000	3.745300	-11.227000	23.745192	0.001032	20.749977
490.136902	-2.997200	3.745500	-11.225000	23.739912	0.001031	20.753218
491.137913	-2.999400	3.743900	-11.228000	23.769878	0.001032	20.748175
492.135798	-3.015900	3.742700	-11.287000	23.801386	0.001033	20.740411
493.135190	-3.011700	3.744600	-11.276000	23.812065	0.001032	20.730730
494.134858	-3.020300	3.743700	-11.306000	23.785003	0.001033	20.754331
495.136166	-3.004200	3.742600	-11.242000	23.770935	0.001033	20.760140
496.132677	-3.025000	3.743100	-11.321000	23.770733	0.001034	20.749032
497.137722	-3.006900	3.740500	-11.247000	23.795020	0.001033	20.759633
498.136209	-3.008600	3.741200	-11.255000	23.809635	0.001032	20.764329
499.137495	-3.027000	3.740500	-11.321000	23.817069	0.001033	20.748076
500.138026	-2.989300	3.741000	-11.183000	23.837872	0.001033	20.762296
501.135545	-3.018000	3.740800	-11.289000	23.845709	0.001031	20.736963
502.138724	-2.982200	3.741400	-11.157000	23.874575	0.001032	20.755951
503.138531	-2.991300	3.740100	-11.187000	23.875520	0.001033	20.762115
504.140384	-2.994900	3.740700	-11.201000	23.890475	0.001031	20.758144
505.136668	-3.020100	3.739900	-11.293000	23.892757	0.001032	20.766596
506.140169	-3.028000	3.739200	-11.321000	23.848780	0.001033	20.748578
507.134965	-3.013400	3.738900	-11.266000	23.867469	0.001033	20.768740
508.138923	-3.022600	3.738100	-11.298000	23.872420	0.001033	20.783662
509.139761	-3.025300	3.737900	-11.308000	23.894961	0.001032	20.756478
510.137369	-3.026400	3.736900	-11.307000	23.890878	0.001031	20.781782
511.140914	-3.000700	3.737700	-11.215000	23.927238	0.001034	20.767033
512.141232	-2.975200	3.738900	-11.123000	23.929125	0.001033	20.754227
513.146329	-2.984400	3.737200	-11.151000	23.939967	0.001032	20.766048
514.142309	-2.973800	3.737800	-11.115000	23.938125	0.001033	20.791228
515.143863	-2.972600	3.737100	-11.108000	23.947084	0.001034	20.794996
516.143593	-2.980300	3.737000	-11.136000	23.962034	0.001033	20.769684
517.143341	-2.990300	3.735900	-11.170000	23.963300	0.001033	20.771902
518.139711	-2.995100	3.736300	-11.189000	23.994182	0.001033	20.780586
519.142445	-3.014900	3.734200	-11.257000	23.984775	0.001033	20.784903
520.142186	-3.012100	3.734800	-11.249000	23.968695	0.001035	20.777312
521.147907	-2.996800	3.734700	-11.191000	23.955102	0.001035	20.780751
522.142678	-2.986900	3.735300	-11.156000	23.941238	0.001032	20.780124
523.143496	-3.015800	3.733100	-11.257000	23.925457	0.001033	20.792749
524.147286	-2.990000	3.734900	-11.167000	23.948326	0.001034	20.773481
525.148470	-2.988100	3.734000	-11.156000	23.946249	0.001034	20.778986
526.142689	-2.993500	3.734400	-11.177000	23.968871	0.001034	20.796930
527.143372	-2.987500	3.732600	-11.150000	23.978476	0.001032	20.787121
528.145498	-2.982600	3.733200	-11.132000	23.982526	0.001032	20.794975
529.146847	-2.992600	3.733600	-11.171000	23.988072	0.001034	20.790106
530.152516	-3.008700	3.732300	-11.228000	23.980030	0.001034	20.805749
531.150484	-2.992700	3.730700	-11.164000	23.965372	0.001034	20.787257
532.149545	-3.005800	3.731800	-11.215000	23.968707	0.001034	20.782066
533.149366	-2.989900	3.732300	-11.158000	23.965019	0.001036	20.776471
534.149862	-3.002400	3.729400	-11.196000	23.963123	0.001033	20.786898
535.149046	-2.986300	3.730700	-11.140000	23.980544	0.001037	20.788246
536.151480	-2.986200	3.730200	-11.139000	24.000768	0.001034	20.773440
537.152143	-2.990300	3.730800	-11.155000	23.970508	0.001034	20.781501
538.146440	-3.007900	3.729300	-11.217000	23.954353	0.001035	20.789009
539.149740	-2.975400	3.729700	-11.096000	23.983619	0.001034	20.783270
540.151446	-3.000300	3.728600	-11.186000	23.987821	0.001038	20.785113
541.150744	-2.986400	3.729800	-11.136000	24.005060	0.001033	20.802875
542.153299	-2.989100	3.729400	-11.146000	23.999629	0.001035	20.784626
543.154197	-2.992600	3.729400	-11.159000	23.994728	0.001034	20.796781
544.151775	-2.994400	3.727100	-11.159000	24.018439	0.001034	20.797800
545.159932	-2.997700	3.727200	-11.171000	24.006886	0.001033	20.799964
546.152577	-3.005400	3.726400	-11.198000	23.988319	0.001034	20.818328
547.152416	-3.000200	3.727600	-11.183000	24.019919	0.001037	20.813983
548.152961	-2.995400	3.725700	-11.158000	24.021506	0.001035	20.809885
549.158007	-3.004400	3.726700	-11.196000	24.043925	0.001036	20.799177
550.151053	-2.995900	3.725800	-11.161000	24.036179	0.001033	20.819384
551.155623	-3.004800	3.725500	-11.193000	24.014106	0.001036	20.801515
552.152145	-3.010800	3.725400	-11.215000	24.043641	0.001034	20.795100
553.149818	-3.003300	3.724500	-11.184000	24.038363	0.001034	20.809720
554.154402	-2.970000	3.726200	-11.065000	24.108203	0.001034	20.808640
555.154888	-3.002700	3.722400	-11.177000	24.116877	0.001037	20.824452
556.150892	-3.010500	3.723200	-11.208000	24.122924	0.001035	20.803016
557.153923	-2.996000	3.724200	-11.157000	24.159643	0.001033	20.809024
558.150153	-3.024400	3.721600	-11.253000	24.140955	0.001032	20.826790
559.150328	-3.017900	3.723100	-11.235000	24.160958	0.001034	20.798015
560.153897	-3.015700	3.721700	-11.222000	24.130148	0.001035	20.805045
561.153340	-3.002300	3.722000	-11.174000	24.130172	0.001034	20.810760
562.155252	-3.010100	3.722600	-11.205000	24.122925	0.001032	20.817716
563.155900	-3.014100	3.720900	-11.213000	24.141584	0.001032	20.826473
564.152925	-3.002000	3.720900	-11.169000	24.146086	0.001034	20.799694
565.152015	-3.014100	3.721500	-11.216000	24.168001	0.001034	20.817881
566.154142	-3.003700	3.721500	-11.178000	24.150682	0.001031	20.813313
567.151019	-2.993900	3.721200	-11.140000	24.168322	0.001032	20.812513
568.150158	-2.996300	3.721600	-11.150000	24.221193	0.001032	20.824766
569.160915	-2.981900	3.720500	-11.093000	24.206284	0.001033	20.818821
570.156867	-2.997500	3.720300	-11.150000	24.184637	0.001031	20.818920
571.157131	-3.003500	3.720400	-11.173000	24.189044	0.001032	20.828555
572.155497	-2.989100	3.719100	-11.115000	24.169033	0.001031	20.822709
573.154675	-3.023100	3.718700	-11.240000	24.162616	0.001032	20.826230
574.157018	-3.005400	3.718400	-11.174000	24.123427	0.001029	20.809211
575.159452	-2.998600	3.717700	-11.147000	24.112603	0.001032	20.820165
576.158498	-3.010100	3.716600	-11.186000	24.074958	0.001032	20.825558
577.153678	-3.010900	3.716500	-11.187000	24.079238	0.001032	20.824161
578.155591	-2.981000	3.718100	-11.083000	24.082498	0.001030	20.816051
579.161261	-2.992600	3.717200	-11.123000	24.120693	0.001030	20.815952
580.158195	-3.001700	3.716500	-11.155000	24.115316	0.001030	20.836162
581.159754	-3.007800	3.716200	-11.177000	24.129976	0.001030	20.831899
582.159375	-2.986400	3.717100	-11.099000	24.167598	0.001029	20.813210
583.165158	-3.025000	3.716200	-11.240000	24.169464	0.001030	20.842582
584.163761	-3.015500	3.716200	-11.205000	24.156154	0.001031	20.827335
585.158198	-3.018300	3.714100	-11.208000	24.144286	0.001030	20.805475
586.160366	-3.010200	3.716600	-11.186000	24.186261	0.001029	20.819600
587.158928	-3.012600	3.714200	-11.187000	24.192632	0.001031	20.822672
588.158080	-3.003300	3.712800	-11.150000	24.219429	0.001029	20.826316
589.160518	-3.025000	3.712700	-11.229000	24.231823	0.001028	20.822152
590.161946	-3.000200	3.713800	-11.141000	24.265089	0.001029	20.839398
591.161004	-3.004800	3.712900	-11.156000	24.273868	0.001028	20.843464
592.158834	-2.999900	3.713700	-11.138000	24.264965	0.001029	20.838326
593.163443	-2.992900	3.712700	-11.110000	24.264620	0.001030	20.836558
594.161436	-3.019500	3.711500	-11.205000	24.235415	0.001027	20.842824
595.164283	-3.017700	3.711600	-11.200000	24.250940	0.001028	20.829948
596.164229	-3.009500	3.712000	-11.170000	24.197873	0.001027	20.848790
597.159993	-2.986600	3.712000	-11.085000	24.180929	0.001028	20.853131
598.160337	-3.011400	3.710400	-11.172000	24.170134	0.001026	20.833296
599.166226	-3.005700	3.710100	-11.151000	24.180633	0.001027	20.844774
600.164146	-3.006800	3.711000	-11.157000	24.224727	0.001026	20.847751
601.162971	-3.014300	3.709300	-11.180000	24.190716	0.001027	20.846827
602.163529	-2.992500	3.710900	-11.104000	24.188032	0.001025	20.834178
603.160356	-2.988400	3.711100	-11.089000	24.182762	0.001027	20.848806
604.161934	-3.021600	3.709000	-11.206000	24.158578	0.001026	20.855370
605.165859	-3.020900	3.707600	-11.199000	24.161640	0.001029	20.844217
606.162555	-3.007800	3.709500	-11.156000	24.147310	0.001025	20.839327
607.163690	-3.001500	3.709300	-11.132000	24.119820	0.001026	20.840680
608.168726	-3.005600	3.707300	-11.142000	24.149653	0.001025	20.833617
609.167035	-2.978600	3.708100	-11.044000	24.136272	0.001027	20.828731
610.166492	-3.005000	3.706800	-11.138000	24.163523	0.001026	20.839467
611.170112	-2.982600	3.707600	-11.057000	24.176209	0.001028	20.840811
612.170245	-3.001000	3.707300	-11.125000	24.187336	0.001027	20.848179
613.176589	-2.982200	3.707500	-11.055000	24.202139	0.001026	20.829362
614.163934	-3.025100	3.705400	-11.208000	24.213513	0.001026	20.845985
615.166463	-2.990600	3.705700	-11.081000	24.235032	0.001026	20.828690
616.167126	-3.008500	3.705800	-11.146000	24.258872	0.001026	20.845965
617.166670	-3.007300	3.705700	-11.143000	24.276835	0.001027	20.854025
618.164928	-2.982900	3.705600	-11.052000	24.297563	0.001026	20.834989
619.169098	-3.013400	3.704200	-11.160000	24.302138	0.001026	20.851906
620.168550	-2.987200	3.705000	-11.066000	24.308953	0.001027	20.861112
621.170138	-3.003700	3.703900	-11.123000	24.305048	0.001027	20.852928
622.167756	-2.988700	3.703600	-11.068000	24.275943	0.001026	20.853604
623.169850	-3.016400	3.701500	-11.163000	24.246286	0.001026	20.846616
624.169511	-3.019300	3.702600	-11.178000	24.236877	0.001026	20.859463
625.171497	-2.998400	3.702900	-11.101000	24.250088	0.001026	20.851852
626.168245	-3.005100	3.702100	-11.124000	24.279917	0.001027	20.862333
627.164340	-3.012500	3.701700	-11.150000	24.307255	0.001026	20.857513
628.169498	-3.024900	3.700400	-11.192000	24.304168	0.001026	20.838296
629.175813	-2.999100	3.700700	-11.098000	24.323449	0.001028	20.856214
630.170131	-2.982200	3.701800	-11.038000	24.353696	0.001029	20.857159
631.169754	-2.998700	3.702100	-11.100000	24.341953	0.001028	20.854388
632.171862	-2.983300	3.701200	-11.041000	24.310309	0.001027	20.843508
633.173526	-3.005400	3.701000	-11.122000	24.342644	0.001027	20.847021
634.172374	-3.009900	3.700000	-11.134000	24.359656	0.001026	20.863611
635.171824	-3.000000	3.699200	-11.096000	24.373235	0.001025	20.862061
636.171031	-2.977000	3.701000	-11.017000	24.387485	0.001024	20.867347
637.184735	-2.983900	3.699400	-11.037000	24.396642	0.001026	20.859938
638.167922	-2.981900	3.700000	-11.031000	24.407706	0.001025	20.865347
639.172216	-3.003100	3.698700	-11.106000	24.419394	0.001026	20.846254
640.171069	-2.979900	3.698300	-11.018000	24.438497	0.001026	20.870159
641.170893	-3.018300	3.698300	-11.162000	24.433417	0.001026	20.875020
642.173114	-2.997500	3.698900	-11.086000	24.446054	0.001025	20.884378
643.172287	-2.989200	3.697800	-11.052000	24.444259	0.001026	20.871198
644.171898	-3.008400	3.697600	-11.122000	24.463755	0.001025	20.873688
645.170442	-2.991000	3.696500	-11.055000	24.446515	0.001026	20.859712
646.169795	-3.006600	3.696900	-11.113000	24.428030	0.001025	20.884313
647.170619	-2.996100	3.698000	-11.078000	24.422428	0.001025	20.878694
648.174039	-2.982900	3.697900	-11.028000	24.388370	0.001025	20.890992
649.174150	-3.006000	3.696600	-11.111000	24.402940	0.001025	20.857247
650.173345	-2.998900	3.695400	-11.080000	24.434281	0.001027	20.874938
651.174809	-2.992000	3.695600	-11.057000	24.446241	0.001026	20.873660
652.175688	-3.011300	3.692700	-11.118000	24.430266	0.001025	20.886082
653.173292	-3.008900	3.694300	-11.115000	24.437623	0.001024	20.873075
654.175414	-2.984200	3.695900	-11.028000	24.416351	0.001025	20.879235
655.174497	-3.000700	3.695100	-11.086000	24.410827	0.001023	20.879383
656.176398	-2.998700	3.694600	-11.076000	24.443353	0.001026	20.877401
657.175690	-2.999100	3.693100	-11.075000	24.464025	0.001026	20.880596
658.175776	-3.004000	3.693500	-11.095000	24.431657	0.001027	20.905494
659.177377	-3.018400	3.692200	-11.144000	24.422246	0.001026	20.879933
660.182483	-2.997700	3.691500	-11.065000	24.398861	0.001025	20.894404
661.182268	-3.001200	3.691900	-11.079000	24.421441	0.001025	20.911839
662.181022	-2.978700	3.691700	-10.995000	24.431884	0.001023	20.900506
663.179377	-3.006000	3.691600	-11.096000	24.428498	0.001025	20.887627
664.176256	-3.010600	3.691400	-11.113000	24.434786	0.001024	20.898676
665.179577	-2.991600	3.690900	-11.041000	24.458314	0.001027	20.914693
666.191267	-2.989800	3.690800	-11.034000	24.499649	0.001024	20.903059
667.176265	-3.014200	3.690600	-11.123000	24.508945	0.001025	20.880620
668.180442	-3.000300	3.690200	-11.070000	24.488250	0.001023	20.903950
669.178371	-3.010000	3.689000	-11.103000	24.499038	0.001023	20.896757
670.179772	-3.010500	3.689100	-11.104000	24.496868	0.001024	20.907855
671.179878	-2.985000	3.690000	-11.014000	24.528052	0.001021	20.906425
672.185102	-2.991600	3.688000	-11.032000	24.542850	0.001021	20.887609
673.183783	-3.003100	3.688900	-11.077000	24.512227	0.001023	20.911410
674.181850	-2.989100	3.687500	-11.021000	24.516497	0.001021	20.918539
675.181052	-2.995700	3.687400	-11.044000	24.519279	0.001022	20.903314
676.183543	-2.964600	3.688000	-10.932000	24.539995	0.001022	20.905607
677.179369	-3.011300	3.686100	-11.098000	24.565457	0.001021	20.893222
678.181135	-3.008100	3.687200	-11.091000	24.589850	0.001020	20.928126
679.182599	-3.003600	3.686300	-11.071000	24.593080	0.001020	20.915247
680.178663	-2.993100	3.686300	-11.033000	24.590960	0.001018	20.930188
681.183522	-2.983500	3.686300	-10.997000	24.579668	0.001019	20.914592
682.184365	-2.991400	3.686000	-11.025000	24.586404	0.001019	20.918505
683.183408	-2.999800	3.684800	-11.051000	24.601349	0.001018	20.927810
684.183910	-3.016100	3.684500	-11.112000	24.598309	0.001017	20.924759
685.188511	-3.019300	3.684300	-11.122000	24.578334	0.001015	20.931743
686.182425	-3.021500	3.684300	-11.131000	24.564207	0.001017	20.898131
687.187356	-2.993100	3.683400	-11.023000	24.567733	0.001017	20.935331
688.188457	-2.999700	3.684200	-11.050000	24.597130	0.001015	20.917888
689.184237	-3.016300	3.682600	-11.106000	24.614188	0.001015	20.927890
690.186872	-2.990000	3.683100	-11.011000	24.647939	0.001014	20.921454
691.187110	-3.001500	3.683500	-11.055000	24.650400	0.001014	20.904011
692.185517	-2.988500	3.683600	-11.006000	24.610827	0.001014	20.920725
693.189079	-3.003500	3.682900	-11.060000	24.585408	0.001015	20.924143
694.187753	-2.998500	3.683100	-11.043000	24.537206	0.001012	20.908971
695.182623	-2.980200	3.682900	-10.973000	24.528847	0.001013	20.924765
696.184591	-3.007100	3.681300	-11.068000	24.511358	0.001012	20.902005
697.196835	-2.988500	3.681800	-11.002000	24.483902	0.001011	20.900062
698.182875	-2.998200	3.681300	-11.037000	24.442953	0.001011	20.887905
699.188542	-2.988000	3.680500	-10.996000	24.451016	0.001011	20.898364
700.186827	-3.002900	3.681000	-11.052000	24.438749	0.001010	20.885110
701.186811	-2.984500	3.679400	-10.980000	24.434866	0.001010	20.906816
702.182790	-3.009700	3.679200	-11.071000	24.465787	0.001011	20.901329
703.187499	-2.997400	3.678600	-11.026000	24.501652	0.001011	20.899853
704.186708	-2.978400	3.681000	-10.963000	24.525285	0.001011	20.892745
705.188952	-2.999100	3.678200	-11.030000	24.537572	0.001011	20.908865
706.185160	-2.988600	3.679800	-10.996000	24.542396	0.001009	20.914653
707.185672	-2.989600	3.679400	-10.999000	24.565330	0.001010	20.904474
708.186501	-2.993600	3.679400	-11.013000	24.584056	0.001010	20.908090
709.187216	-2.986000	3.677700	-10.981000	24.588235	0.001010	20.889051
710.188772	-2.995300	3.677700	-11.015000	24.599425	0.001010	20.893640
711.187741	-3.001100	3.678000	-11.037000	24.603234	0.001011	20.890824
712.191178	-2.966700	3.678000	-10.910000	24.619819	0.001009	20.874750
713.188269	-2.958400	3.677200	-10.878000	24.668687	0.001009	20.892490
714.187559	-3.019100	3.675700	-11.096000	24.665429	0.001010	20.874523
715.184319	-3.001700	3.676600	-11.035000	24.688984	0.001009	20.891047
716.186470	-3.002000	3.677000	-11.038000	24.692288	0.001009	20.892465
717.187107	-3.028300	3.674100	-11.125000	24.698953	0.001009	20.900575
718.191927	-2.999400	3.674100	-11.019000	24.702609	0.001009	20.889072
719.190573	-3.004400	3.674400	-11.038000	24.689802	0.001009	20.895660
720.187517	-3.003000	3.673800	-11.031000	24.682439	0.001009	20.895858
721.190115	-2.989600	3.673900	-10.982000	24.710519	0.001009	20.888948
722.190504	-2.991400	3.674100	-10.990000	24.694950	0.001006	20.904145
723.195608	-3.010600	3.674500	-11.060000	24.727948	0.001008	20.911653
724.187738	-3.001400	3.673300	-11.024000	24.683557	0.001007	20.890816
725.191872	-3.033600	3.672500	-11.140000	24.710596	0.001007	20.870062
726.194453	-3.025600	3.671800	-11.108000	24.685775	0.001006	20.896361
727.191218	-2.996400	3.672700	-11.004000	24.708925	0.001005	20.861272
728.191339	-3.006100	3.671800	-11.036000	24.695300	0.001007	20.869885
729.192546	-3.040000	3.670000	-11.155000	24.701541	0.001009	20.883259
730.191211	-3.006800	3.671400	-11.038000	24.689330	0.001007	20.878118
731.189478	-2.990400	3.671500	-10.978000	24.711488	0.001005	20.870957
732.195551	-3.021400	3.669900	-11.086000	24.716107	0.001008	20.880333
733.187669	-2.990200	3.670600	-10.973000	24.709591	0.001005	20.869527
734.190032	-3.022100	3.669300	-11.086000	24.729090	0.001007	20.854008
735.192417	-2.998000	3.670800	-11.004000	24.771438	0.001005	20.878960
736.188147	-3.012400	3.668200	-11.048000	24.753430	0.001006	20.873691
737.190006	-2.987600	3.670000	-10.964000	24.782597	0.001005	20.883994
738.193632	-3.001600	3.670100	-11.015000	24.735574	0.001004	20.869997
739.192650	-2.996100	3.669100	-10.991000	24.734153	0.001005	20.869045
740.190810	-3.007300	3.668500	-11.031000	24.733603	0.001004	20.865174
741.196177	-3.012800	3.668600	-11.052000	24.738328	0.001004	20.879398
742.193406	-2.998100	3.669400	-11.000000	24.754491	0.001003	20.844886
743.190304	-2.997300	3.669100	-10.995000	24.753440	0.001003	20.860426
744.191255	-2.990300	3.667300	-10.964000	24.763264	0.001002	20.877869
745.195142	-3.014700	3.666500	-11.051000	24.791411	0.001001	20.861547
746.193696	-2.995300	3.667300	-10.984000	24.787307	0.001002	20.862644
747.202179	-2.999400	3.667100	-10.998000	24.791259	0.001001	20.853335
748.196971	-3.013700	3.666200	-11.048000	24.782311	0.000999	20.873751
749.194839	-3.007200	3.666300	-11.025000	24.774994	0.000998	20.857400
750.199111	-2.992400	3.666100	-10.969000	24.729981	0.000999	20.855850
751.193543	-3.003200	3.666400	-11.010000	24.708447	0.000999	20.874069
752.205215	-3.003800	3.664300	-11.006000	24.724286	0.000998	20.844920
753.200117	-2.985400	3.666300	-10.945000	24.734903	0.001000	20.860315
754.197930	-3.031500	3.663700	-11.104000	24.748437	0.001000	20.862991
755.197836	-3.009900	3.663200	-11.025000	24.773199	0.001000	20.857021
756.198524	-3.001000	3.663100	-10.992000	24.779116	0.000999	20.842571
757.198442	-3.021700	3.664100	-11.071000	24.795106	0.000999	20.865729
758.198665	-3.008700	3.663300	-11.020000	24.788213	0.000999	20.853596
759.197338	-3.006900	3.662500	-11.012000	24.768270	0.000999	20.842118
760.201134	-3.020800	3.663200	-11.064000	24.759741	0.000999	20.857739
761.203659	-2.996700	3.663800	-10.978000	24.756902	0.001001	20.857262
762.196394	-3.007600	3.661700	-11.012000	24.785074	0.001001	20.851869
763.200495	-3.022600	3.661400	-11.065000	24.769006	0.000999	20.837167
764.207386	-3.004900	3.662400	-11.003000	24.729166	0.001000	20.844127
765.201922	-3.000900	3.662800	-10.991000	24.718073	0.000998	20.866185
766.206360	-2.996700	3.662000	-10.973000	24.724561	0.000999	20.832394
767.204334	-2.967000	3.661700	-10.863000	24.739479	0.000998	20.856373
768.206514	-2.986300	3.660300	-10.930000	24.784510	0.000999	20.863156
769.206151	-3.015400	3.659500	-11.035000	24.761256	0.000997	20.845984
770.207489	-2.966800	3.662000	-10.864000	24.728273	0.000999	20.851292
771.201801	-2.990200	3.660100	-10.944000	24.741104	0.000999	20.850418
772.210293	-2.993300	3.660600	-10.956000	24.751915	0.000998	20.850835
773.208123	-2.975500	3.660500	-10.891000	24.712123	0.001000	20.830344
774.203243	-3.002200	3.659400	-10.985000	24.738452	0.000996	20.846334
775.206200	-3.005300	3.658200	-10.993000	24.768293	0.000995	20.834555
776.206656	-2.979900	3.660400	-10.907000	24.814292	0.000997	20.851793
777.202957	-2.977700	3.659100	-10.895000	24.841838	0.000997	20.843878
778.204690	-2.994200	3.658000	-10.952000	24.829625	0.000995	20.844423
779.206782	-2.994600	3.657600	-10.952000	24.843323	0.000994	20.834463
780.203179	-2.984900	3.658600	-10.919000	24.833447	0.000995	20.831190
781.209690	-3.006700	3.656700	-10.993000	24.827206	0.000994	20.836780
782.208728	-2.991400	3.658800	-10.944000	24.851943	0.000997	20.844062
783.205387	-2.984800	3.658000	-10.916000	24.845650	0.000993	20.860030
784.216806	-2.999300	3.656800	-10.967000	24.839726	0.000992	20.833698
785.212542	-3.012800	3.655900	-11.013000	24.881943	0.000996	20.839083
786.216391	-3.005400	3.655700	-10.986000	24.891740	0.000992	20.842279
787.207496	-2.995000	3.656100	-10.948000	24.866444	0.000993	20.851029
788.212057	-2.976400	3.657300	-10.884000	24.887580	0.000992	20.851853
789.212365	-3.033900	3.654600	-11.086000	24.902095	0.000992	20.855989
790.213177	-3.036000	3.653700	-11.091000	24.888941	0.000991	20.839943
791.209718	-3.019800	3.652400	-11.027000	24.893489	0.000990	20.840240
792.210991	-2.992000	3.655000	-10.934000	24.902609	0.000991	20.829006
793.212697	-3.020500	3.653300	-11.034000	24.898234	0.000992	20.825089
794.212293	-3.001700	3.653300	-10.965000	24.904647	0.000989	20.846224
795.209853	-3.011700	3.652800	-11.000000	24.919489	0.000990	20.834094
796.211641	-3.017100	3.653000	-11.020000	24.910760	0.000988	20.838609
797.209483	-3.001500	3.652300	-10.961000	24.940346	0.000988	20.837484
798.212589	-3.009700	3.652000	-10.990000	24.945366	0.000988	20.835885
799.214630	-2.992600	3.653700	-10.933000	24.943773	0.000990	20.824803
800.212735	-2.993900	3.652200	-10.934000	24.951652	0.000988	20.828444
801.214355	-2.988700	3.650400	-10.909000	24.941777	0.000988	20.827067
802.219919	-3.006000	3.651700	-10.976000	24.931483	0.000989	20.857511
803.221455	-3.003200	3.651700	-10.966000	24.930986	0.000988	20.843736
804.218751	-2.999900	3.652300	-10.955000	24.925490	0.000987	20.808823
805.219271	-3.013700	3.649200	-10.995000	24.928670	0.000986	20.836670
806.221784	-2.989900	3.650900	-10.915000	24.927052	0.000984	20.822719
807.218236	-3.017600	3.648800	-11.010000	24.908155	0.000985	20.823193
808.222071	-2.998300	3.651100	-10.946000	24.893334	0.000985	20.830602
809.222762	-3.007900	3.648700	-10.973000	24.880755	0.000985	20.818451
810.220725	-3.011700	3.649800	-10.991000	24.881375	0.000985	20.836143
811.224588	-3.003600	3.648300	-10.957000	24.865584	0.000984	20.834519
812.225030	-3.012600	3.648800	-10.991000	24.877716	0.000984	20.823462
813.223158	-2.988000	3.649600	-10.903000	24.904073	0.000984	20.833320
814.222288	-2.993600	3.648800	-10.923000	24.901933	0.000983	20.805568
815.227454	-2.986500	3.648100	-10.895000	24.908497	0.000981	20.815950
816.223878	-2.974300	3.649000	-10.851000	24.927619	0.000981	20.816176
817.227289	-3.013200	3.646000	-10.985000	24.891338	0.000981	20.805841
818.224871	-2.991100	3.646700	-10.906000	24.871422	0.000981	20.807189
819.223889	-2.993800	3.647000	-10.917000	24.888007	0.000981	20.835213
820.226242	-3.027200	3.645200	-11.034000	24.922024	0.000980	20.820518
821.223910	-2.989300	3.647400	-10.903000	24.888010	0.000979	20.818147
822.224298	-2.996200	3.647300	-10.926000	24.901485	0.000979	20.825033
823.224103	-2.997400	3.644600	-10.923000	24.915908	0.000980	20.806792
824.226452	-3.005200	3.645300	-10.954000	24.926773	0.000979	20.821965
825.223771	-3.010400	3.644400	-10.970000	24.927246	0.000979	20.833344
826.232249	-3.012800	3.643700	-10.977000	24.918844	0.000980	20.832973
827.223883	-2.986000	3.644900	-10.883000	24.925462	0.000978	20.808795
828.223196	-2.985400	3.645200	-10.882000	24.947538	0.000977	20.811038
829.228924	-2.998400	3.644800	-10.927000	24.935851	0.000978	20.823016
830.225598	-3.014900	3.642600	-10.981000	24.950326	0.000976	20.798190
831.234931	-2.973300	3.643900	-10.833000	24.943833	0.000979	20.807794
832.231604	-3.006200	3.642500	-10.949000	24.963973	0.000977	20.800982
833.231091	-2.966800	3.644300	-10.811000	24.965715	0.000977	20.806049
834.227470	-2.992400	3.643100	-10.901000	24.969247	0.000977	20.807698
835.229014	-2.989400	3.641700	-10.885000	24.992218	0.000976	20.808944
836.226546	-2.985400	3.642300	-10.873000	24.994259	0.000977	20.821424
837.228525	-3.004900	3.641400	-10.942000	25.002836	0.000976	20.793523
838.225927	-2.987400	3.641300	-10.877000	24.954229	0.000974	20.823918
839.229373	-2.991400	3.641500	-10.891000	24.922606	0.000974	20.800239
840.230204	-3.010300	3.638800	-10.951000	24.943963	0.000972	20.796071
841.231799	-2.993700	3.640800	-10.899000	24.908585	0.000973	20.794227
842.232292	-2.991700	3.641700	-10.895000	24.915745	0.000972	20.790034
843.229259	-3.017300	3.639800	-10.982000	24.898389	0.000972	20.820029
844.229943	-2.995200	3.640300	-10.901000	24.915428	0.000973	20.790190
845.227981	-2.990600	3.639400	-10.883000	24.926565	0.000972	20.811799
846.228130	-3.013200	3.638300	-10.961000	24.910454	0.000971	20.803215
847.231695	-3.006400	3.639200	-10.940000	24.880148	0.000972	20.772798
848.227424	-3.004200	3.637800	-10.927000	24.901855	0.000971	20.792214
849.232840	-3.015500	3.638300	-10.970000	24.902578	0.000972	20.776344
850.228548	-2.986900	3.638400	-10.867000	24.887386	0.000970	20.762993
851.235890	-3.005400	3.637800	-10.933000	24.895445	0.000972	20.805695
852.230845	-2.997800	3.638200	-10.905000	24.899697	0.000968	20.792419
853.228047	-2.983300	3.637300	-10.850000	24.894106	0.000969	20.783962
854.231153	-3.012800	3.635400	-10.952000	24.887167	0.000970	20.795490
855.226052	-2.987800	3.637200	-10.866000	24.860891	0.000967	20.798990
856.231257	-2.995500	3.637300	-10.895000	24.847761	0.000969	20.778226
857.231051	-2.982300	3.637100	-10.846000	24.859029	0.000968	20.795225
858.229908	-2.979400	3.635900	-10.833000	24.867981	0.000968	20.789985
859.236011	-2.994800	3.635800	-10.887000	24.900258	0.000969	20.780654
860.232206	-3.013100	3.635500	-10.953000	24.908867	0.000967	20.780760
861.235992	-3.006300	3.635400	-10.928000	24.942288	0.000967	20.769260
862.236342	-2.993100	3.634200	-10.877000	24.977468	0.000967	20.769482
863.233730	-2.985000	3.634300	-10.847000	24.983785	0.000966	20.778194
864.231172	-2.998000	3.634600	-10.895000	24.978667	0.000965	20.764521
865.238206	-2.996200	3.633500	-10.886000	24.978719	0.000965	20.774058
866.231747	-2.990900	3.634400	-10.868000	24.978649	0.000964	20.786315
867.235144	-2.990300	3.632600	-10.861000	24.984043	0.000965	20.781772
868.237366	-2.981200	3.632400	-10.828000	24.987998	0.000965	20.808027
869.231829	-2.989800	3.631900	-10.857000	25.026391	0.000962	20.780183
870.235739	-3.005400	3.631500	-10.914000	25.043752	0.000964	20.784334
871.236491	-2.988500	3.632600	-10.855000	25.038013	0.000962	20.772409
872.236476	-3.015100	3.630500	-10.945000	25.030582	0.000961	20.773011
873.231185	-3.008600	3.631500	-10.924000	24.984762	0.000961	20.782968
874.239726	-2.997900	3.631800	-10.887000	24.958090	0.000962	20.757144
875.237198	-2.992700	3.631800	-10.868000	24.945807	0.000962	20.779904
876.241871	-2.975400	3.630900	-10.802000	24.970478	0.000960	20.761044
877.233923	-3.001300	3.629600	-10.892000	24.991908	0.000960	20.731818
878.235744	-3.008300	3.629600	-10.917000	25.013518	0.000962	20.748294
879.238290	-2.997500	3.628800	-10.876000	25.004595	0.000960	20.733174
880.238372	-2.985900	3.628800	-10.834000	25.021724	0.000961	20.757006
881.233464	-3.010000	3.628800	-10.921000	25.061381	0.000960	20.733276
882.239793	-2.993600	3.629000	-10.863000	25.044056	0.000961	20.763776
883.236876	-3.005600	3.628700	-10.906000	25.044356	0.000961	20.766447
884.236975	-3.012400	3.627400	-10.926000	25.005794	0.000959	20.737222
885.238284	-3.005300	3.629000	-10.904000	24.993015	0.000959	20.744784
886.240300	-2.993800	3.628900	-10.863000	24.979098	0.000961	20.740771
887.239814	-3.001900	3.626800	-10.886000	25.002368	0.000962	20.757017
888.238091	-2.976300	3.628100	-10.796000	25.004130	0.000958	20.748355
889.243915	-3.019400	3.625000	-10.944000	25.020787	0.000959	20.761755
890.241226	-2.989800	3.626000	-10.840000	25.022877	0.000958	20.769069
891.238358	-2.985100	3.626100	-10.823000	25.071756	0.000959	20.757916
892.242959	-2.976000	3.627400	-10.794000	25.047859	0.000959	20.768068
893.237878	-3.001300	3.625300	-10.880000	25.071304	0.000960	20.751299
894.241326	-2.990200	3.626100	-10.842000	25.052953	0.000961	20.768914
895.243536	-2.996300	3.625400	-10.862000	25.073335	0.000958	20.767562
896.241855	-3.010000	3.624400	-10.908000	25.061949	0.000958	20.752813
897.243689	-3.007800	3.625800	-10.903000	25.054314	0.000958	20.746097
898.245030	-2.999200	3.624500	-10.869000	25.063560	0.000957	20.760594
899.239435	-2.985800	3.623800	-10.818000	25.069055	0.000955	20.767533
900.241392	-3.019900	3.622900	-10.938000	25.048169	0.000958	20.755577
901.246360	-3.015300	3.623000	-10.922000	25.083218	0.000956	20.764681
902.241916	-2.997100	3.623100	-10.857000	25.103307	0.000956	20.761139
903.248354	-2.986200	3.623800	-10.819000	25.110187	0.000956	20.760460
904.242677	-2.997600	3.622700	-10.859000	25.104244	0.000954	20.743588
905.246255	-2.975500	3.623400	-10.780000	25.068667	0.000953	20.751022
906.253713	-3.013500	3.621500	-10.912000	25.067719	0.000955	20.751493
907.248595	-3.019100	3.621200	-10.930000	25.101830	0.000953	20.748750
908.243606	-2.995200	3.621300	-10.845000	25.129545	0.000955	20.755236
909.246120	-3.006600	3.620300	-10.884000	25.142294	0.000952	20.759500
910.247697	-2.991800	3.622100	-10.835000	25.161310	0.000954	20.738761
911.246719	-3.005600	3.620700	-10.881000	25.163795	0.000952	20.755481
912.247618	-2.972200	3.621100	-10.761000	25.167648	0.000951	20.763142
913.255506	-2.999500	3.620400	-10.859000	25.157673	0.000951	20.756447
914.250250	-2.996700	3.618900	-10.844000	25.150814	0.000950	20.762837
915.248114	-2.990200	3.621100	-10.827000	25.165677	0.000950	20.757844
916.251708	-2.994000	3.619000	-10.834000	25.145837	0.000949	20.770169
917.249760	-3.028900	3.616300	-10.951000	25.147677	0.000949	20.768697
918.250666	-3.007100	3.616500	-10.873000	25.148096	0.000949	20.781920
919.250196	-3.012700	3.618700	-10.901000	25.125125	0.000948	20.752696
920.251565	-3.015400	3.616600	-10.905000	25.114610	0.000948	20.743088
921.251626	-2.990400	3.618300	-10.819000	25.094797	0.000947	20.750700
922.252209	-3.016000	3.618200	-10.910000	25.058575	0.000948	20.760806
923.249362	-3.027300	3.615800	-10.944000	25.058850	0.000945	20.751124
924.250536	-2.984600	3.617600	-10.796000	25.058920	0.000947	20.772533
925.254694	-3.028700	3.616300	-10.951000	25.058624	0.000944	20.760855
926.253564	-3.009300	3.616900	-10.882000	25.111843	0.000946	20.754061
927.253165	-2.982200	3.616800	-10.785000	25.140186	0.000945	20.754065
928.264330	-3.012500	3.615500	-10.891000	25.107716	0.000943	20.751340
929.256273	-3.007300	3.615200	-10.870000	25.107871	0.000944	20.768566
930.258055	-2.976900	3.616800	-10.766000	25.130613	0.000942	20.779068
931.254221	-3.001800	3.615400	-10.852000	25.127832	0.000945	20.771061
932.258229	-2.993300	3.615100	-10.821000	25.163601	0.000942	20.776623
933.256238	-2.995600	3.614600	-10.827000	25.186645	0.000944	20.767515
934.253704	-2.975600	3.612900	-10.749000	25.207352	0.000943	20.777398
935.251912	-3.006800	3.613800	-10.866000	25.217245	0.000941	20.773106
936.258556	-2.990100	3.613200	-10.801000	25.243249	0.000941	20.762228
937.256534	-3.001900	3.612200	-10.842000	25.228510	0.000941	20.762604
938.256702	-3.000200	3.612200	-10.837000	25.225151	0.000942	20.754490
939.260849	-2.987200	3.613400	-10.793000	25.220453	0.000941	20.766843
940.257337	-2.993500	3.611800	-10.811000	25.196440	0.000941	20.767391
941.259858	-2.988400	3.611300	-10.791000	25.194103	0.000940	20.749398
942.257977	-3.017000	3.610500	-10.892000	25.181919	0.000941	20.758028
943.259067	-3.001200	3.610100	-10.833000	25.153436	0.000939	20.764047
944.254395	-3.002400	3.609900	-10.838000	25.120617	0.000939	20.764766
945.255609	-2.984900	3.610900	-10.776000	25.127007	0.000938	20.767388
946.253570	-3.007700	3.609200	-10.854000	25.143584	0.000938	20.759847
947.261526	-3.018100	3.608400	-10.889000	25.146136	0.000937	20.752451
948.256263	-3.011500	3.609200	-10.869000	25.172194	0.000938	20.760119
949.259110	-3.003300	3.607400	-10.833000	25.178680	0.000936	20.751931
950.257846	-3.010300	3.610100	-10.866000	25.193863	0.000936	20.775710
951.264398	-3.029000	3.607000	-10.924000	25.155554	0.000936	20.778976
952.257760	-3.016300	3.607400	-10.880000	25.151702	0.000937	20.790756
953.262190	-3.007600	3.606500	-10.846000	25.161366	0.000935	20.772957
954.262624	-2.986000	3.607700	-10.771000	25.186596	0.000935	20.774104
955.257135	-3.007300	3.606700	-10.843000	25.187413	0.000935	20.759277
956.270203	-2.996700	3.607400	-10.809000	25.185172	0.000935	20.769355
957.264779	-2.987000	3.606700	-10.773000	25.164955	0.000933	20.770395
958.260722	-2.995600	3.606700	-10.804000	25.209054	0.000934	20.773891
959.262752	-2.995700	3.607200	-10.804000	25.201871	0.000933	20.765732
960.263070	-2.985300	3.605200	-10.761000	25.227992	0.000934	20.793378
961.264761	-2.991900	3.605700	-10.787000	25.244218	0.000931	20.757512
962.263954	-2.987700	3.604400	-10.768000	25.271208	0.000930	20.791248
963.261585	-2.987500	3.605000	-10.769000	25.292357	0.000934	20.768860
964.258355	-3.011000	3.603700	-10.850000	25.305108	0.000932	20.787826
965.261875	-3.009600	3.604000	-10.845000	25.305298	0.000931	20.788492
966.262421	-2.990600	3.603900	-10.776000	25.269086	0.000929	20.768729
967.263921	-3.002900	3.603100	-10.819000	25.273707	0.000930	20.777635
968.269184	-2.989400	3.602600	-10.769000	25.269696	0.000929	20.780247
969.274386	-2.992600	3.603800	-10.783000	25.299720	0.000929	20.782890
970.264396	-2.995400	3.601300	-10.786000	25.313436	0.000929	20.795714
971.266830	-2.997900	3.602800	-10.799000	25.308217	0.000926	20.788103
972.267378	-2.982000	3.602600	-10.743000	25.310275	0.000928	20.799178
973.261231	-3.023200	3.600700	-10.885000	25.303234	0.000928	20.795902
974.265018	-2.986600	3.601200	-10.754000	25.297690	0.000925	20.798871
975.266829	-2.985700	3.601800	-10.753000	25.337802	0.000926	20.781299
976.267613	-2.988200	3.600900	-10.760000	25.354278	0.000925	20.779349
977.272744	-3.021500	3.601100	-10.879000	25.362626	0.000927	20.781093
978.267380	-2.980500	3.601200	-10.730000	25.385184	0.000926	20.802795
979.266173	-2.992300	3.600300	-10.772000	25.408921	0.000926	20.791069
980.266184	-2.990100	3.599800	-10.763000	25.384662	0.000925	20.801797
981.273110	-3.005100	3.599900	-10.817000	25.321507	0.000924	20.777265
982.269744	-3.006600	3.599000	-10.820000	25.274702	0.000924	20.802342
983.274808	-2.987600	3.598900	-10.750000	25.239550	0.000924	20.786016
984.267234	-2.978400	3.598600	-10.717000	25.224035	0.000922	20.787984
985.270875	-3.023700	3.597400	-10.876000	25.233781	0.000924	20.800612
986.268645	-3.006400	3.597600	-10.814000	25.242525	0.000922	20.809391
987.271451	-2.987000	3.598200	-10.747000	25.227236	0.000924	20.791197
988.273277	-2.990800	3.596700	-10.756000	25.232128	0.000925	20.792315
989.270974	-3.001800	3.596900	-10.796000	25.246268	0.000922	20.817417
990.273429	-2.995700	3.596900	-10.774000	25.228618	0.000923	20.822930
991.269342	-2.988000	3.596100	-10.744000	25.216956	0.000920	20.785143
992.273375	-2.992900	3.597100	-10.765000	25.248098	0.000920	20.806926
993.284461	-2.992000	3.594500	-10.753000	25.267634	0.000921	20.810893
994.269662	-3.003800	3.595000	-10.798000	25.273794	0.000919	20.775353
995.271846	-3.001500	3.594400	-10.787000	25.291539	0.000920	20.819721
996.284894	-2.989500	3.595500	-10.746000	25.279257	0.000919	20.801226
997.273430	-3.010300	3.595500	-10.822000	25.255715	0.000917	20.805090
998.272731	-2.997200	3.594600	-10.773000	25.229042	0.000917	20.804390
999.272154	-3.007300	3.592700	-10.802000	25.236641	0.000917	20.812493
1000.270733	-2.992700	3.593500	-10.753000	25.258563	0.000916	20.803209
1001.272297	-3.005400	3.593300	-10.798000	25.252470	0.000915	20.806574
1002.269404	-3.001200	3.593200	-10.783000	25.247472	0.000913	20.814833
1003.269339	-3.013800	3.591700	-10.824000	25.266585	0.000914	20.799883
1004.273051	-3.012900	3.592500	-10.823000	25.267875	0.000915	20.816825
1005.269067	-2.982700	3.593000	-10.715000	25.287932	0.000913	20.813729
1006.273042	-3.001200	3.592200	-10.780000	25.326677	0.000915	20.812328
1007.274993	-2.990200	3.591800	-10.739000	25.312905	0.000912	20.816518
1008.273428	-2.996500	3.592000	-10.761000	25.344644	0.000913	20.795280
1009.272540	-2.992600	3.590800	-10.744000	25.349785	0.000911	20.823676
1010.272307	-3.009300	3.589300	-10.801000	25.376727	0.000911	20.812796
1011.269108	-3.025500	3.589500	-10.859000	25.361687	0.000908	20.796271
1012.274621	-3.011300	3.590500	-10.810000	25.357955	0.000908	20.824292
1013.277676	-3.010500	3.590400	-10.807000	25.369115	0.000909	20.836921
1014.269951	-3.003700	3.590500	-10.784000	25.383306	0.000909	20.817031
1015.273934	-3.019800	3.588800	-10.836000	25.395778	0.000908	20.817701
1016.269922	-3.009900	3.589600	-10.803000	25.369186	0.000907	20.839837
1017.274981	-3.006400	3.589600	-10.791000	25.321315	0.000907	20.821168
1018.271464	-3.014400	3.588300	-10.814000	25.313114	0.000906	20.816253
1019.272204	-3.017700	3.587300	-10.825000	25.309185	0.000906	20.825110
1020.274864	-3.011500	3.587400	-10.801000	25.318055	0.000906	20.814577
1021.275886	-3.000200	3.586500	-10.758000	25.300533	0.000905	20.839656
1022.274582	-3.011100	3.585100	-10.794000	25.325411	0.000904	20.818168
1023.280027	-2.995800	3.586900	-10.744000	25.322728	0.000905	20.824484
1024.273823	-3.017600	3.584500	-10.815000	25.352204	0.000904	20.832269
1025.277697	-3.011500	3.585400	-10.796000	25.343652	0.000904	20.816095
1026.279984	-3.017800	3.584600	-10.817000	25.314324	0.000904	20.834063
1027.275507	-3.001500	3.584400	-10.757000	25.307117	0.000902	20.809757
1028.277162	-3.022700	3.584100	-10.833000	25.311438	0.000904	20.818363
1029.280677	-3.005500	3.584800	-10.773000	25.287430	0.000902	20.813699
1030.277370	-2.983900	3.583900	-10.694000	25.302736	0.000903	20.824800
1031.274402	-3.000500	3.584700	-10.754000	25.310391	0.000901	20.826795
1032.295897	-3.003900	3.583000	-10.762000	25.330447	0.000902	20.818484
1033.278644	-2.999500	3.583500	-10.748000	25.384929	0.000902	20.842368
1034.274179	-2.981800	3.583300	-10.683000	25.430680	0.000902	20.818608
1035.279229	-2.998600	3.582600	-10.742000	25.449218	0.000900	20.822051
1036.274686	-2.965900	3.583700	-10.628000	25.445416	0.000899	20.817284
1037.278479	-2.996400	3.581900	-10.732000	25.454088	0.000899	20.840217
1038.294520	-2.981500	3.582400	-10.679000	25.468973	0.000901	20.833352
1039.275923	-2.970600	3.580600	-10.635000	25.481845	0.000899	20.820675
1040.276483	-3.029300	3.580000	-10.844000	25.475929	0.000898	20.832751
1041.291206	-2.992300	3.582200	-10.719000	25.457285	0.000900	20.838685
1042.278678	-3.002300	3.579900	-10.747000	25.488526	0.000898	20.841134
1043.278264	-2.985200	3.578900	-10.682000	25.481363	0.000898	20.821613
1044.281907	-3.002500	3.579800	-10.748000	25.487272	0.000896	20.837978
1045.282280	-3.010200	3.580100	-10.776000	25.487053	0.000897	20.856250
1046.279083	-3.011700	3.577800	-10.774000	25.487223	0.000895	20.829868
1047.279163	-2.991900	3.578300	-10.706000	25.505409	0.000895	20.844811
1048.281562	-3.009800	3.577200	-10.765000	25.503270	0.000895	20.845983
1049.278010	-2.995300	3.577900	-10.716000	25.480853	0.000895	20.848601
1050.284576	-3.002100	3.576800	-10.737000	25.435817	0.000896	20.837990
1051.282467	-3.011300	3.576900	-10.769000	25.438026	0.000893	20.842106
1052.280556	-3.000200	3.577200	-10.731000	25.438397	0.000895	20.839158
1053.287421	-3.004900	3.576300	-10.745000	25.440356	0.000892	20.822635
1054.281829	-3.001000	3.575900	-10.729000	25.435582	0.000892	20.847237
1055.282563	-3.009200	3.575400	-10.758000	25.433665	0.000893	20.840571
1056.284397	-2.997800	3.575500	-10.718000	25.448201	0.000893	20.845684
1057.284398	-2.984500	3.575100	-10.669000	25.445241	0.000892	20.841764
1058.280828	-2.990600	3.574300	-10.688000	25.465539	0.000891	20.846973
1059.292445	-2.997600	3.575700	-10.718000	25.429103	0.000892	20.844999
1060.286413	-3.003900	3.573200	-10.733000	25.406833	0.000891	20.855353
1061.284323	-2.985900	3.575200	-10.673000	25.413345	0.000890	20.843874
1062.292732	-2.992100	3.574000	-10.692000	25.388661	0.000888	20.834735
1063.290288	-2.994700	3.572500	-10.696000	25.400237	0.000888	20.849678
1064.286242	-2.987300	3.573700	-10.675000	25.397426	0.000889	20.850174
1065.289375	-2.995800	3.573500	-10.704000	25.413724	0.000889	20.855634
1066.290328	-3.016600	3.571300	-10.772000	25.391080	0.000889	20.849966
1067.288311	-2.996600	3.573000	-10.706000	25.404799	0.000888	20.869904
1068.294248	-3.002400	3.571900	-10.722000	25.434714	0.000888	20.877184
1069.291254	-3.029700	3.571200	-10.818000	25.446469	0.000886	20.857221
1070.293919	-3.029900	3.569400	-10.814000	25.476784	0.000887	20.860162
1071.295115	-2.992000	3.570200	-10.682000	25.473374	0.000885	20.867168
1072.291201	-2.985600	3.569900	-10.657000	25.461295	0.000885	20.870211
1073.290831	-2.984700	3.570200	-10.654000	25.499982	0.000886	20.872077
1074.294162	-2.998500	3.571200	-10.707000	25.492322	0.000884	20.880031
1075.295157	-3.020900	3.568700	-10.778000	25.504299	0.000884	20.863136
1076.290227	-2.998500	3.569600	-10.703000	25.524225	0.000883	20.886939
1077.296002	-3.018900	3.567700	-10.769000	25.520244	0.000884	20.891001
1078.294361	-3.001200	3.567600	-10.704000	25.554035	0.000882	20.856660
1079.291893	-2.985700	3.568000	-10.652000	25.562978	0.000883	20.865166
1080.291262	-3.016500	3.567300	-10.760000	25.572313	0.000882	20.880230
1081.293571	-2.991800	3.567900	-10.674000	25.590651	0.000881	20.878259
1082.292968	-3.000200	3.567500	-10.701000	25.599341	0.000881	20.883667
1083.293564	-3.000800	3.567000	-10.703000	25.640112	0.000879	20.890001
1084.294726	-3.007600	3.565600	-10.723000	25.641103	0.000878	20.875824
1085.289376	-2.974400	3.568200	-10.611000	25.626588	0.000877	20.886375
1086.311283	-2.989600	3.566700	-10.662000	25.652054	0.000878	20.867857
1087.295376	-2.986800	3.568100	-10.656000	25.658283	0.000876	20.887389
1088.294939	-2.988300	3.566000	-10.654000	25.661783	0.000877	20.876679
1089.300259	-2.999900	3.565100	-10.693000	25.650125	0.000876	20.873506
1090.302925	-2.988700	3.565000	-10.652000	25.651193	0.000877	20.873630
1091.300528	-2.996700	3.566400	-10.686000	25.650366	0.000876	20.886549
1092.296035	-2.990000	3.564500	-10.657000	25.652999	0.000877	20.897253
1093.306687	-2.979000	3.565400	-10.619000	25.651302	0.000875	20.881325
1094.293938	-2.992400	3.564200	-10.665000	25.678779	0.000874	20.900386
1095.297807	-3.014700	3.561700	-10.737000	25.684367	0.000873	20.900309
1096.299071	-2.989800	3.563800	-10.653000	25.680436	0.000873	20.900628
1097.299658	-2.982300	3.562800	-10.624000	25.686943	0.000873	20.882035
1098.301805	-2.986200	3.562300	-10.636000	25.693000	0.000874	20.909454
1099.296248	-3.000700	3.561800	-10.686000	25.703679	0.000871	20.882250
1100.298871	-3.033100	3.561400	-10.800000	25.673238	0.000870	20.899089
1101.301171	-3.016700	3.560700	-10.739000	25.687373	0.000872	20.908069
1102.298783	-2.988500	3.561400	-10.642000	25.662473	0.000869	20.891596
1103.297124	-3.008100	3.560600	-10.710000	25.683143	0.000871	20.903821
1104.301473	-3.020600	3.559600	-10.750000	25.714742	0.000871	20.881981
1105.298036	-3.001700	3.559600	-10.683000	25.699855	0.000870	20.906382
1106.300052	-2.987400	3.560800	-10.637000	25.666578	0.000869	20.897616
1107.297577	-2.995200	3.559900	-10.662000	25.633356	0.000869	20.913085
1108.300828	-2.978200	3.560200	-10.602000	25.593172	0.000866	20.907340
1109.301774	-2.994000	3.559500	-10.656000	25.608350	0.000869	20.908360
1110.298219	-2.994600	3.557700	-10.652000	25.623754	0.000868	20.893960
1111.298085	-2.983100	3.558800	-10.615000	25.649813	0.000866	20.902113
1112.300918	-2.990300	3.557500	-10.637000	25.665016	0.000866	20.907899
1113.300202	-2.987000	3.558500	-10.628000	25.674279	0.000865	20.910090
1114.301046	-2.976100	3.557100	-10.585000	25.673305	0.000866	20.936136
1115.300135	-2.989100	3.557200	-10.632000	25.683191	0.000865	20.937530
1116.303883	-2.991200	3.555800	-10.635000	25.683709	0.000865	20.912924
1117.302138	-3.003000	3.556600	-10.680000	25.682389	0.000865	20.918709
1118.301964	-3.005500	3.556600	-10.686000	25.674858	0.000864	20.913516
1119.305210	-3.017600	3.555900	-10.729000	25.700270	0.000865	20.912488
1120.309217	-2.999900	3.555100	-10.664000	25.664140	0.000861	20.934043
1121.305212	-3.008100	3.553900	-10.690000	25.653378	0.000862	20.921813
1122.306723	-3.006700	3.554500	-10.686000	25.661675	0.000862	20.931094
1123.305308	-3.012200	3.553100	-10.701000	25.662043	0.000860	20.932411
1124.301365	-2.995900	3.553400	-10.644000	25.666582	0.000860	20.924169
1125.305776	-2.998900	3.553500	-10.654000	25.650806	0.000858	20.930608
1126.306197	-2.989800	3.552700	-10.621000	25.661806	0.000858	20.926959
1127.305703	-2.994200	3.551600	-10.633000	25.654920	0.000856	20.926206
1128.304876	-2.971300	3.552800	-10.555000	25.621596	0.000857	20.932566
1129.304119	-3.010700	3.550400	-10.688000	25.612672	0.000856	20.945413
1130.304751	-3.006200	3.551200	-10.675000	25.615302	0.000857	20.937624
1131.309353	-2.985400	3.552000	-10.604000	25.620567	0.000856	20.925369
1132.306667	-3.015400	3.550900	-10.706000	25.602769	0.000854	20.947321
1133.309053	-3.002900	3.551500	-10.665000	25.562762	0.000854	20.958823
1134.307805	-3.000400	3.551000	-10.654000	25.532614	0.000855	20.947514
1135.313070	-3.024700	3.549200	-10.734000	25.508257	0.000854	20.946287
1136.311163	-3.010800	3.552000	-10.693000	25.549084	0.000853	20.933236
1137.309506	-2.994400	3.550000	-10.629000	25.578527	0.000853	20.953793
1138.309932	-2.996100	3.549300	-10.633000	25.597233	0.000851	20.958829
1139.311839	-3.022000	3.549400	-10.725000	25.611243	0.000850	20.952511
1140.306149	-2.988400	3.549400	-10.606000	25.642001	0.000851	20.936938
1141.307827	-3.003000	3.548500	-10.655000	25.668584	0.000851	20.947514
1142.308118	-2.995500	3.547300	-10.625000	25.682099	0.000850	20.941175
1143.306374	-2.971800	3.548700	-10.545000	25.691063	0.000850	20.948755
1144.311287	-2.995000	3.546900	-10.622000	25.718043	0.000849	20.941715
1145.310807	-2.985000	3.546600	-10.586000	25.724698	0.000847	20.940814
1146.310833	-2.997900	3.546300	-10.631000	25.702682	0.000848	20.954260
1147.311936	-2.964200	3.548800	-10.518000	25.686379	0.000849	20.963488
1148.311659	-3.004100	3.546300	-10.652000	25.687172	0.000848	20.949114
1149.310821	-2.978300	3.547100	-10.563000	25.672834	0.000849	20.966479
1150.309158	-2.996300	3.546200	-10.622000	25.648703	0.000848	20.950305
1151.307582	-2.977900	3.546500	-10.559000	25.636077	0.000847	20.958012
1152.334002	-2.964100	3.546300	-10.511000	25.591298	0.000847	20.967566
1153.316201	-2.999500	3.543900	-10.629000	25.579268	0.000844	20.953114
1154.310153	-3.009300	3.544400	-10.665000	25.597678	0.000844	20.965438
1155.310307	-3.009600	3.542800	-10.661000	25.584604	0.000842	20.950888
1156.312959	-3.000300	3.543300	-10.630000	25.610716	0.000842	20.964309
1157.311042	-2.959900	3.543800	-10.488000	25.630172	0.000841	20.961089
1158.314790	-2.980800	3.542500	-10.558000	25.633370	0.000839	20.958612
1159.310210	-3.000500	3.542400	-10.628000	25.615902	0.000837	20.940122
1160.309036	-3.006100	3.541200	-10.644000	25.629588	0.000838	20.950073
1161.313364	-2.973800	3.543300	-10.536000	25.634729	0.000837	20.940065
1162.310560	-3.003100	3.539800	-10.629000	25.624664	0.000838	20.947025
1163.310426	-3.007600	3.540400	-10.648000	25.664466	0.000839	20.944327
1164.309010	-3.012400	3.539100	-10.660000	25.673436	0.000837	20.972298
1165.312496	-3.022400	3.538500	-10.693000	25.707398	0.000834	20.929128
1166.310423	-3.004100	3.540300	-10.635000	25.731547	0.000834	20.936314
1167.314091	-2.993600	3.539400	-10.595000	25.740983	0.000833	20.930620
1168.313150	-3.012200	3.539600	-10.661000	25.762720	0.000835	20.937754
1169.316012	-2.992000	3.539100	-10.588000	25.754745	0.000832	20.934011
1170.323915	-2.973100	3.540100	-10.524000	25.751564	0.000834	20.935083
1171.317419	-2.966700	3.540100	-10.501000	25.749923	0.000829	20.950028
1172.314235	-3.009700	3.539600	-10.651000	25.776083	0.000829	20.934107
1173.320465	-3.003400	3.539000	-10.628000	25.748754	0.000828	20.949802
1174.319271	-2.967800	3.537900	-10.499000	25.742765	0.000827	20.925772
1175.314676	-3.019700	3.535200	-10.674000	25.724901	0.000825	20.924899
1176.318845	-3.000000	3.537100	-10.611000	25.731260	0.000828	20.925596
1177.318844	-2.977000	3.536100	-10.526000	25.754092	0.000825	20.939519
1178.320175	-2.974900	3.537400	-10.522000	25.748230	0.000824	20.921304
1179.319167	-2.977400	3.537100	-10.530000	25.781471	0.000825	20.953267
1180.316650	-3.011200	3.533600	-10.639000	25.805893	0.000824	20.931335
1181.317514	-2.988500	3.535500	-10.564000	25.796054	0.000822	20.930461
1182.319823	-3.007000	3.533600	-10.623000	25.782689	0.000822	20.901392
1183.316776	-2.966800	3.534900	-10.486000	25.782343	0.000823	20.920009
1184.316366	-2.993700	3.534300	-10.579000	25.793968	0.000822	20.917462
1185.317128	-2.990000	3.534700	-10.567000	25.782716	0.000820	20.926547
1186.316509	-2.979400	3.533400	-10.525000	25.793919	0.000822	20.915990
1187.321382	-3.019900	3.532200	-10.665000	25.778095	0.000820	20.914793
1188.322441	-3.018200	3.532300	-10.660000	25.759040	0.000820	20.912249
1189.321759	-3.010800	3.531900	-10.632000	25.763217	0.000819	20.912651
1190.320692	-3.010700	3.530800	-10.627000	25.766771	0.000818	20.915747
1191.324500	-2.990900	3.531400	-10.562000	25.761902	0.000818	20.908960
1192.316350	-2.977900	3.531100	-10.513000	25.777974	0.000817	20.903767
1193.319709	-2.976700	3.531000	-10.509000	25.781654	0.000815	20.904145
1194.322285	-2.999300	3.531500	-10.591000	25.767544	0.000817	20.904197
1195.317087	-2.997300	3.530300	-10.579000	25.755397	0.000814	20.900056
1196.321714	-3.033700	3.529700	-10.706000	25.762555	0.000814	20.893022
1197.323430	-3.017600	3.528800	-10.649000	25.780144	0.000813	20.904050
1198.321527	-3.006100	3.530100	-10.610000	25.778928	0.000813	20.888132
1199.323424	-3.008600	3.528400	-10.615000	25.762831	0.000813	20.888085
1200.322425	-3.008300	3.526700	-10.608000	25.733441	0.000814	20.911192
1201.323014	-3.004900	3.528400	-10.601000	25.760375	0.000813	20.892255
1202.321425	-3.011200	3.527700	-10.621000	25.757073	0.000811	20.885620
1203.323398	-2.972100	3.529700	-10.490000	25.732156	0.000812	20.906108
1204.326255	-3.012100	3.526300	-10.621000	25.762018	0.000810	20.882527
1205.323758	-3.001900	3.526600	-10.586000	25.764033	0.000810	20.896877
1206.340345	-3.000500	3.527600	-10.584000	25.744086	0.000810	20.890118
1207.321252	-3.017700	3.525800	-10.639000	25.757555	0.000811	20.882785
1208.325876	-2.997500	3.526000	-10.568000	25.786622	0.000807	20.880688
1209.324159	-3.005000	3.524800	-10.590000	25.798625	0.000807	20.886107
1210.326142	-3.004700	3.525100	-10.590000	25.823917	0.000807	20.875478
1211.332351	-2.991200	3.525100	-10.543000	25.833955	0.000806	20.877027
1212.328950	-3.012600	3.525000	-10.619000	25.812665	0.000806	20.889304
1213.327026	-3.004900	3.524500	-10.589000	25.778605	0.000806	20.875006
1214.330369	-3.013300	3.522100	-10.611000	25.749390	0.000805	20.883118
1215.328701	-2.994500	3.524100	-10.551000	25.750213	0.000805	20.887738
1216.324967	-2.990000	3.522500	-10.531000	25.706833	0.000805	20.885417
1217.330741	-2.977600	3.522700	-10.488000	25.678165	0.000804	20.868004
1218.326927	-2.974300	3.523300	-10.478000	25.620273	0.000803	20.867232
1219.325623	-3.010600	3.521300	-10.600000	25.621939	0.000802	20.881232
1220.330177	-2.999800	3.521300	-10.560000	25.643957	0.000803	20.850243
1221.328572	-2.994300	3.522000	-10.545000	25.644929	0.000802	20.879666
1222.329732	-2.995200	3.520100	-10.542000	25.679792	0.000802	20.880542
1223.327612	-2.997700	3.520600	-10.553000	25.674676	0.000801	20.866870
1224.331619	-3.017200	3.520500	-10.621000	25.700094	0.000801	20.866796
1225.327881	-3.001600	3.520500	-10.567000	25.706658	0.000802	20.874811
1226.331088	-2.995200	3.520300	-10.543000	25.725390	0.000802	20.862332
1227.332778	-3.009300	3.519200	-10.589000	25.721915	0.000799	20.864058
1228.332353	-2.991000	3.518400	-10.522000	25.688250	0.000799	20.872917
1229.334908	-2.986800	3.518200	-10.506000	25.690512	0.000800	20.852431
1230.334736	-2.990100	3.518200	-10.519000	25.707858	0.000800	20.852309
1231.331336	-3.002300	3.517500	-10.560000	25.704084	0.000800	20.865587
1232.332579	-2.984100	3.517100	-10.495000	25.699336	0.000799	20.849914
1233.337804	-3.011600	3.515700	-10.587000	25.693179	0.000798	20.852265
1234.329932	-2.984800	3.516400	-10.495000	25.701624	0.000798	20.858850
1235.335558	-2.987900	3.517300	-10.508000	25.744931	0.000797	20.853511
1236.332162	-3.006500	3.514900	-10.566000	25.726048	0.000796	20.850666
1237.335082	-2.992700	3.515500	-10.519000	25.761183	0.000796	20.865568
1238.332245	-3.012400	3.514700	-10.586000	25.736288	0.000796	20.846253
1239.338923	-3.017000	3.514900	-10.602000	25.757503	0.000798	20.882733
1240.334230	-2.988200	3.515300	-10.504000	25.767940	0.000795	20.854338
1241.333076	-2.997700	3.513900	-10.531000	25.750746	0.000796	20.863619
1242.337437	-2.998800	3.515800	-10.541000	25.726175	0.000795	20.822345
1243.336913	-3.015600	3.512300	-10.591000	25.729353	0.000794	20.861097
1244.351233	-3.010300	3.512500	-10.572000	25.738223	0.000793	20.859575
1245.343894	-3.016000	3.512500	-10.593000	25.776410	0.000792	20.835819
1246.342278	-3.021800	3.512400	-10.611000	25.783268	0.000791	20.858354
1247.337512	-3.015000	3.512200	-10.588000	25.797056	0.000792	20.858453
1248.338559	-2.977700	3.511400	-10.453000	25.806941	0.000793	20.846099
1249.337146	-3.007500	3.510100	-10.556000	25.838119	0.000791	20.856554
1250.352487	-2.999500	3.510700	-10.529000	25.845199	0.000790	20.857028
1251.340865	-3.004300	3.509800	-10.542000	25.757676	0.000792	20.846873
1252.341092	-2.976000	3.511700	-10.449000	25.719064	0.000790	20.835590
1253.344416	-2.985200	3.511100	-10.480000	25.694044	0.000790	20.863090
1254.341261	-2.993100	3.508800	-10.501000	25.696056	0.000787	20.852783
1255.341116	-2.999600	3.510300	-10.529000	25.731112	0.000787	20.844847
1256.344638	-3.002700	3.509800	-10.538000	25.731260	0.000787	20.848789
1257.340939	-3.007700	3.507000	-10.546000	25.689518	0.000786	20.852381
1258.343438	-3.017300	3.507200	-10.580000	25.721493	0.000785	20.839927
1259.339589	-3.019600	3.507300	-10.588000	25.683230	0.000785	20.848436
1260.340424	-3.013300	3.507500	-10.568000	25.651773	0.000786	20.859515
1261.342703	-3.003000	3.507600	-10.532000	25.652369	0.000784	20.858691
1262.344532	-2.990300	3.506600	-10.484000	25.639548	0.000782	20.820686
1263.344753	-2.982200	3.507200	-10.457000	25.629162	0.000784	20.830643
1264.341723	-2.986900	3.506000	-10.470000	25.602623	0.000783	20.845713
1265.344316	-2.968500	3.506800	-10.409000	25.614601	0.000782	20.842570
1266.345873	-2.999900	3.504800	-10.513000	25.654977	0.000782	20.845189
1267.346492	-2.990200	3.505700	-10.481000	25.679080	0.000782	20.847113
1268.343820	-3.006100	3.504200	-10.533000	25.711654	0.000782	20.855648
1269.342702	-2.990300	3.504700	-10.479000	25.754463	0.000781	20.843645
1270.346634	-3.025000	3.502700	-10.594000	25.781292	0.000779	20.851629
1271.349878	-3.014000	3.503200	-10.557000	25.779009	0.000778	20.832266
1272.349396	-3.004800	3.502400	-10.523000	25.794460	0.000777	20.838777
1273.346967	-3.000900	3.503200	-10.511000	25.779009	0.000778	20.836059
1274.347706	-3.006600	3.501700	-10.527000	25.760775	0.000777	20.835287
1275.352530	-3.007100	3.502300	-10.530000	25.766338	0.000775	20.809582
1276.349335	-2.987500	3.502500	-10.460000	25.763283	0.000776	20.851083
1277.347968	-2.999500	3.501300	-10.501000	25.713918	0.000774	20.819991
1278.346081	-3.005500	3.501400	-10.522000	25.719459	0.000774	20.823660
1279.347523	-3.007300	3.500600	-10.526000	25.728705	0.000773	20.831998
1280.347556	-3.016600	3.500200	-10.559000	25.753076	0.000771	20.823288
1281.348684	-2.991700	3.499800	-10.469000	25.794169	0.000773	20.813830
1282.344381	-2.984100	3.500400	-10.445000	25.813774	0.000773	20.831152
1283.348027	-2.995900	3.498600	-10.480000	25.839263	0.000774	20.832575
1284.345957	-2.990200	3.499300	-10.463000	25.832732	0.000772	20.842134
1285.349673	-2.999900	3.498200	-10.492000	25.811987	0.000771	20.828409
1286.349374	-2.986900	3.499900	-10.453000	25.773207	0.000769	20.812214
1287.349444	-2.981300	3.497700	-10.427000	25.767918	0.000772	20.820178
1288.351043	-3.007600	3.496800	-10.516000	25.727099	0.000770	20.811420
1289.351626	-3.000000	3.497200	-10.490000	25.705112	0.000771	20.813992
1290.352751	-3.012300	3.495800	-10.528000	25.676266	0.000769	20.831011
1291.356441	-2.990300	3.495800	-10.453000	25.683224	0.000768	20.811447
1292.353175	-3.008500	3.495000	-10.514000	25.711823	0.000768	20.815042
1293.356005	-2.990600	3.496300	-10.455000	25.728521	0.000767	20.806209
1294.352983	-3.004200	3.494200	-10.496000	25.759877	0.000768	20.817316
1295.351069	-3.011200	3.494200	-10.520000	25.736946	0.000767	20.817043
1296.353334	-2.983200	3.494500	-10.424000	25.733540	0.000766	20.807932
1297.352867	-2.992900	3.493300	-10.454000	25.741395	0.000767	20.824831
1298.350891	-2.984300	3.494300	-10.427000	25.752971	0.000765	20.822708
1299.354069	-2.999100	3.492800	-10.475000	25.766812	0.000766	20.825704
1300.352676	-2.963100	3.493000	-10.349000	25.769943	0.000763	20.804194
1301.353812	-2.990700	3.493100	-10.446000	25.807280	0.000764	20.799974
1302.356662	-3.010600	3.491200	-10.509000	25.795507	0.000762	20.805217
1303.358857	-2.989700	3.492300	-10.440000	25.825670	0.000761	20.809437
1304.356387	-3.000100	3.490600	-10.472000	25.835409	0.000760	20.810686
1305.356682	-3.004100	3.491100	-10.487000	25.832926	0.000761	20.808665
1306.357502	-2.999600	3.491200	-10.472000	25.848502	0.000759	20.803450
1307.361201	-3.021500	3.490100	-10.544000	25.840182	0.000759	20.828282
1308.359163	-3.009700	3.489400	-10.502000	25.853922	0.000759	20.819799
1309.356303	-2.969600	3.491500	-10.367000	25.856905	0.000758	20.795295
1310.358106	-3.006200	3.488400	-10.485000	25.863688	0.000757	20.815386
1311.363985	-2.990900	3.488700	-10.433000	25.858398	0.000758	20.810071
1312.358307	-3.005500	3.486700	-10.479000	25.850972	0.000755	20.813043
1313.360507	-3.008800	3.486300	-10.489000	25.880389	0.000755	20.796128
1314.357900	-3.013600	3.486800	-10.507000	25.857783	0.000754	20.800445
1315.363872	-2.999200	3.486600	-10.455000	25.835280	0.000754	20.797754
1316.363880	-3.001800	3.487000	-10.467000	25.840000	0.000753	20.805815
1317.361169	-2.979000	3.485900	-10.383000	25.868076	0.000753	20.799405
1318.361198	-2.986400	3.485800	-10.409000	25.845148	0.000751	20.799606
1319.363206	-2.989300	3.485300	-10.418000	25.893221	0.000751	20.772982
1320.360741	-2.998500	3.485000	-10.449000	25.902663	0.000752	20.784365
1321.364349	-2.996900	3.484600	-10.442000	25.861976	0.000751	20.796596
1322.360990	-3.003400	3.483500	-10.461000	25.848562	0.000749	20.812993
1323.361105	-3.004000	3.484000	-10.465000	25.791900	0.000750	20.799223
1324.361836	-3.018200	3.483000	-10.511000	25.763704	0.000750	20.784177
1325.360312	-2.996700	3.484700	-10.441000	25.779704	0.000750	20.785550
1326.374479	-2.987500	3.482800	-10.403000	25.752902	0.000749	20.800354
1327.362597	-2.998800	3.482100	-10.441000	25.746348	0.000749	20.784287
1328.363804	-2.994800	3.482700	-10.428000	25.757329	0.000745	20.777773
1329.364090	-2.992000	3.481700	-10.417000	25.773560	0.000747	20.761834
1330.374458	-2.983800	3.480900	-10.384000	25.790430	0.000748	20.800591
1331.369198	-2.986100	3.481700	-10.396000	25.793888	0.000748	20.786046
1332.367917	-3.004600	3.480100	-10.455000	25.829641	0.000745	20.794934
1333.367781	-2.986700	3.480300	-10.394000	25.844847	0.000745	20.778915
1334.367665	-2.998900	3.479500	-10.432000	25.839957	0.000746	20.785382
1335.367600	-2.984000	3.479900	-10.383000	25.837328	0.000746	20.786535
1336.367705	-2.998100	3.478100	-10.427000	25.856661	0.000742	20.783196
1337.370415	-2.964000	3.479400	-10.311000	25.868985	0.000743	20.770446
1338.369794	-2.989300	3.478200	-10.396000	25.877462	0.000744	20.796506
1339.371027	-2.995200	3.479000	-10.419000	25.902055	0.000745	20.772848
1340.372061	-3.025700	3.476000	-10.515000	25.910109	0.000740	20.772878
1341.372793	-3.029000	3.476600	-10.530000	25.903732	0.000742	20.747979
1342.369792	-3.008200	3.477100	-10.458000	25.933864	0.000741	20.793899
1343.372145	-2.993800	3.475800	-10.405000	25.932926	0.000740	20.768774
1344.369270	-2.989500	3.476300	-10.391000	25.929527	0.000741	20.767255
1345.369114	-2.991700	3.475500	-10.396000	25.944139	0.000740	20.773874
1346.371480	-3.003300	3.475300	-10.436000	25.917859	0.000739	20.764543
1347.374046	-2.994500	3.475400	-10.406000	25.915401	0.000738	20.769185
1348.370650	-3.026200	3.472400	-10.507000	25.895756	0.000737	20.780270
1349.373867	-3.011600	3.473300	-10.459000	25.896728	0.000737	20.779350
1350.371929	-3.018000	3.472400	-10.478000	25.893207	0.000738	20.770598
1351.373281	-3.014700	3.472300	-10.468000	25.877508	0.000737	20.764784
1352.371534	-3.000100	3.472300	-10.415000	25.922874	0.000736	20.743975
1353.372385	-2.998600	3.471300	-10.408000	25.932443	0.000734	20.752166
1354.369884	-2.996900	3.471400	-10.402000	25.969533	0.000734	20.774257
1355.376453	-2.981600	3.472500	-10.352000	25.994898	0.000734	20.763704
1356.373480	-2.991300	3.470400	-10.380000	26.011718	0.000734	20.776336
1357.370417	-2.983800	3.470200	-10.352000	26.017807	0.000733	20.768228
1358.375960	-2.995200	3.470000	-10.392000	26.046872	0.000733	20.746695
1359.369893	-2.983700	3.470700	-10.354000	26.050153	0.000732	20.750467
1360.372547	-2.973800	3.470600	-10.319000	26.037763	0.000731	20.738966
1361.378603	-3.004000	3.468600	-10.418000	26.004832	0.000729	20.761357
1362.373450	-3.008500	3.468000	-10.432000	26.007864	0.000731	20.771042
1363.374677	-2.997600	3.467900	-10.395000	25.978110	0.000730	20.774339
1364.376891	-3.014800	3.467400	-10.452000	25.932410	0.000729	20.763040
1365.369598	-2.988700	3.468000	-10.363000	25.949333	0.000728	20.765342
1366.372340	-2.996000	3.467700	-10.388000	25.957535	0.000729	20.763625
1367.377784	-2.994300	3.468200	-10.384000	25.993033	0.000729	20.751873
1368.371811	-3.009800	3.466700	-10.433000	25.966533	0.000726	20.759388
1369.373773	-2.982700	3.466500	-10.339000	25.939338	0.000727	20.773319
1370.380603	-3.009200	3.464400	-10.424000	25.953148	0.000726	20.761589
1371.372809	-2.961200	3.465200	-10.260000	25.971437	0.000725	20.748194
1372.372607	-2.980900	3.464800	-10.327000	25.938875	0.000725	20.756258
1373.378380	-2.989300	3.464000	-10.354000	25.929639	0.000727	20.745082
1374.377926	-2.985600	3.465600	-10.346000	25.962951	0.000725	20.759583
1375.378318	-2.995800	3.464500	-10.378000	25.966582	0.000723	20.757067
1376.377791	-2.989300	3.463500	-10.353000	25.963503	0.000723	20.766302
1377.373910	-2.994800	3.464000	-10.372000	25.965249	0.000723	20.758573
1378.378518	-2.997500	3.461400	-10.375000	25.962572	0.000723	20.747822
1379.378722	-3.013200	3.462500	-10.432000	25.952960	0.000720	20.758554
1380.377487	-3.011500	3.461700	-10.424000	25.905889	0.000723	20.757733
1381.378872	-3.025300	3.460700	-10.467000	25.891757	0.000720	20.763451
1382.376250	-2.988200	3.461200	-10.342000	25.850002	0.000721	20.748532
1383.381986	-2.987300	3.461100	-10.338000	25.870055	0.000720	20.759193
1384.374498	-2.999100	3.461100	-10.379000	25.888565	0.000719	20.777313
1385.378306	-2.996000	3.460600	-10.367000	25.913907	0.000718	20.741131
1386.377346	-2.974900	3.462700	-10.299000	25.900966	0.000717	20.743303
1387.378055	-2.987600	3.459600	-10.335000	25.894460	0.000718	20.749570
1388.379871	-2.999200	3.458200	-10.370000	25.881624	0.000718	20.739045
1389.382217	-3.008800	3.457800	-10.403000	25.829460	0.000718	20.753500
1390.374925	-3.000100	3.457000	-10.370000	25.820917	0.000716	20.750134
1391.380808	-2.995100	3.458400	-10.357000	25.825788	0.000715	20.751709
1392.379763	-2.987900	3.456500	-10.326000	25.843901	0.000715	20.761369
1393.375297	-2.984000	3.456200	-10.312000	25.857197	0.000717	20.728731
1394.379345	-2.983900	3.457600	-10.315000	25.882337	0.000717	20.751142
1395.383211	-2.998200	3.454800	-10.357000	25.932521	0.000716	20.746555
1396.378764	-2.994000	3.455200	-10.343000	25.962332	0.000714	20.745210
1397.382051	-3.018700	3.454900	-10.429000	25.954463	0.000716	20.751055
1398.381402	-2.965400	3.455700	-10.247000	25.949771	0.000715	20.747764
1399.378998	-2.996700	3.455200	-10.354000	25.992821	0.000714	20.765411
1400.377264	-2.974100	3.454300	-10.272000	26.009987	0.000714	20.750414
1401.379353	-3.000100	3.452700	-10.358000	26.030477	0.000715	20.725481
1402.378167	-3.010900	3.452800	-10.395000	26.046853	0.000713	20.760428
1403.383924	-3.010300	3.452000	-10.391000	26.041612	0.000714	20.759430
1404.382692	-3.003300	3.451200	-10.364000	26.066251	0.000712	20.758580
1405.383004	-3.024300	3.450800	-10.436000	26.109617	0.000712	20.752367
1406.376566	-3.013800	3.451900	-10.402000	26.121167	0.000712	20.744532
1407.385932	-3.040700	3.449700	-10.488000	26.115733	0.000713	20.750452
1408.385497	-3.000100	3.451600	-10.355000	26.139478	0.000712	20.745862
1409.379251	-3.022000	3.449000	-10.422000	26.124375	0.000712	20.740643
1410.386244	-3.003900	3.451300	-10.366000	26.115036	0.000712	20.740268
1411.378825	-2.980300	3.449800	-10.280000	26.131823	0.000712	20.756188
1412.381041	-3.023100	3.449100	-10.426000	26.115955	0.000713	20.757313
1413.384174	-3.011200	3.448300	-10.382000	26.165502	0.000710	20.757313
1414.387382	-3.019100	3.447300	-10.406000	26.158618	0.000709	20.740912
1415.387411	-2.999200	3.448000	-10.340000	26.169622	0.000709	20.762876
1416.386133	-3.006200	3.447800	-10.364000	26.169721	0.000710	20.764872
1417.384991	-3.030400	3.446800	-10.443000	26.153132	0.000708	20.761478
1418.383170	-2.991500	3.446900	-10.310000	26.100453	0.000708	20.772083
1419.388775	-3.015200	3.445900	-10.389000	26.098291	0.000708	20.768963
1420.381741	-3.009200	3.444200	-10.362000	26.059271	0.000707	20.758205
1421.384799	-2.999500	3.445600	-10.334000	26.054376	0.000707	20.759925
1422.383949	-3.006800	3.445000	-10.358000	26.040169	0.000707	20.757031
1423.387117	-2.987000	3.444300	-10.286000	26.032294	0.000706	20.772353
1424.384332	-3.005500	3.444800	-10.352000	25.979388	0.000707	20.777519
1425.389928	-2.970400	3.444600	-10.231000	25.948633	0.000707	20.765113
1426.384348	-2.991900	3.443900	-10.303000	25.909062	0.000707	20.779887
1427.387292	-3.009700	3.442400	-10.359000	25.937179	0.000704	20.757874
1428.396301	-2.985500	3.442400	-10.276000	25.956107	0.000704	20.780683
1429.384331	-2.985900	3.442800	-10.278000	25.981294	0.000704	20.766158
1430.387284	-2.996700	3.442400	-10.315000	26.005014	0.000705	20.764385
1431.384924	-3.004800	3.442700	-10.344000	26.017781	0.000702	20.756823
1432.387438	-3.001000	3.442100	-10.329000	26.009635	0.000704	20.766656
1433.384431	-3.005000	3.440500	-10.337000	26.048129	0.000702	20.763607
1434.387619	-3.015000	3.439600	-10.370000	26.049292	0.000701	20.773784
1435.390442	-3.000000	3.439700	-10.318000	26.017053	0.000700	20.776955
1436.392045	-2.991000	3.439300	-10.284000	26.004234	0.000701	20.773084
1437.392490	-3.014700	3.440200	-10.370000	25.995591	0.000700	20.743062
1438.391874	-2.992600	3.439000	-10.291000	25.997028	0.000700	20.781491
1439.388263	-2.989300	3.438500	-10.278000	26.031479	0.000701	20.782914
1440.387305	-2.992700	3.439600	-10.292000	26.028247	0.000700	20.778244
1441.387253	-3.006900	3.438000	-10.337000	26.014187	0.000698	20.802999
1442.391717	-3.011000	3.438600	-10.353000	26.031078	0.000697	20.775873
1443.391338	-2.993300	3.437900	-10.290000	26.048638	0.000697	20.778817
1444.391435	-3.013200	3.436200	-10.353000	26.067064	0.000697	20.763665
1445.391922	-2.976200	3.438100	-10.231000	26.069047	0.000698	20.792685
1446.408508	-3.009000	3.436000	-10.337000	26.066910	0.000696	20.774416
1447.395271	-3.010300	3.435900	-10.342000	26.024289	0.000694	20.808881
1448.391449	-2.981700	3.436100	-10.245000	26.010948	0.000695	20.802590
1449.390363	-3.008900	3.433800	-10.330000	26.016809	0.000695	20.783347
1450.393841	-2.997600	3.434300	-10.294000	26.055976	0.000695	20.782870
1451.394727	-2.991200	3.435400	-10.275000	26.090474	0.000694	20.786713
1452.394343	-2.981300	3.435500	-10.242000	26.083769	0.000694	20.795149
1453.392657	-3.006300	3.432500	-10.318000	26.070309	0.000692	20.793952
1454.396482	-2.981100	3.433700	-10.235000	26.059202	0.000692	20.780422
1455.395230	-2.993000	3.432500	-10.272000	26.010270	0.000692	20.801433
1456.392823	-3.003900	3.431400	-10.306000	25.957334	0.000692	20.806097
1457.399866	-2.992600	3.431900	-10.269000	25.913265	0.000691	20.813033
1458.397015	-3.005500	3.431200	-10.311000	25.895524	0.000690	20.794736
1459.399515	-2.999900	3.430500	-10.290000	25.892192	0.000690	20.773845
1460.396821	-2.986900	3.430100	-10.244000	25.881660	0.000690	20.793611
1461.402270	-2.981500	3.431100	-10.229000	25.912710	0.000689	20.792087
1462.399059	-2.982200	3.431700	-10.233000	25.923041	0.000692	20.784922
1463.398769	-2.976200	3.428400	-10.202000	25.928779	0.000690	20.784522
1464.403888	-2.993600	3.430500	-10.268000	25.949193	0.000688	20.805031
1465.396099	-3.009900	3.429600	-10.321000	25.977958	0.000688	20.799317
1466.395716	-3.001300	3.428500	-10.289000	26.007114	0.000689	20.801582
1467.397140	-3.002800	3.429000	-10.294000	26.027928	0.000689	20.808744
1468.395531	-3.005300	3.427500	-10.300000	26.056864	0.000686	20.802729
1469.398728	-3.003200	3.428200	-10.294000	26.072138	0.000688	20.802902
1470.401783	-2.991000	3.427800	-10.251000	26.060164	0.000687	20.818847
1471.400918	-3.012300	3.426400	-10.320000	26.056460	0.000686	20.802797
1472.400905	-3.012000	3.426600	-10.320000	26.071659	0.000686	20.818543
1473.403721	-3.016100	3.425300	-10.329000	26.078291	0.000684	20.822835
1474.401820	-3.019600	3.423900	-10.338000	26.088392	0.000685	20.810699
1475.398559	-2.995300	3.425400	-10.258000	26.102373	0.000685	20.797721
1476.399490	-2.990300	3.424900	-10.241000	26.131578	0.000682	20.818056
1477.406756	-3.021100	3.424100	-10.342000	26.151348	0.000682	20.806627
1478.400602	-2.995700	3.424500	-10.258000	26.107805	0.000681	20.817877
1479.402505	-3.004900	3.422900	-10.284000	26.088306	0.000682	20.831001
1480.403544	-3.003700	3.422500	-10.279000	26.105640	0.000683	20.807167
1481.399579	-2.994400	3.421700	-10.245000	26.077150	0.000681	20.836861
1482.402765	-2.987400	3.422800	-10.224000	26.106877	0.000681	20.821685
1483.400219	-3.011900	3.420200	-10.299000	26.101337	0.000680	20.836982
1484.402161	-2.998700	3.421700	-10.260000	26.120580	0.000681	20.834980
1485.403631	-2.990400	3.420400	-10.228000	26.118816	0.000679	20.827518
1486.405622	-3.004800	3.419900	-10.275000	26.101550	0.000679	20.832929
1487.403420	-2.999600	3.420700	-10.260000	26.109394	0.000679	20.838913
1488.403454	-2.993100	3.419500	-10.234000	26.114979	0.000678	20.824611
1489.406991	-3.005600	3.417600	-10.271000	26.144856	0.000676	20.829976
1490.403602	-2.974200	3.420800	-10.173000	26.165838	0.000676	20.825454
1491.406081	-2.978800	3.420200	-10.187000	26.185977	0.000675	20.816294
1492.406271	-3.019400	3.417500	-10.318000	26.203257	0.000676	20.833183
1493.421035	-3.006700	3.418500	-10.276000	26.224040	0.000673	20.835576
1494.402263	-3.003000	3.418200	-10.264000	26.232955	0.000674	20.832207
1495.402211	-2.993000	3.416900	-10.225000	26.246410	0.000675	20.847625
1496.404071	-3.011200	3.415300	-10.282000	26.274739	0.000674	20.817773
1497.406068	-3.013400	3.415900	-10.291000	26.258869	0.000672	20.812731
1498.410174	-3.020600	3.415300	-10.314000	26.270835	0.000673	20.838505
1499.406031	-3.016600	3.415800	-10.304000	26.249325	0.000672	20.843442
1500.402864	-2.979000	3.414400	-10.169000	26.234769	0.000670	20.843513
1501.413696	-2.995200	3.415200	-10.229000	26.206977	0.000671	20.855887
1502.408158	-2.996900	3.413300	-10.228000	26.185367	0.000670	20.869259
1503.402676	-3.000800	3.413700	-10.242000	26.169022	0.000667	20.866111
1504.406466	-2.988100	3.413100	-10.199000	26.145675	0.000668	20.849764
1505.405383	-3.006600	3.414700	-10.265000	26.158561	0.000668	20.857970
1506.406912	-3.022400	3.410900	-10.307000	26.177309	0.000669	20.849783
1507.405164	-2.999600	3.411400	-10.232000	26.174374	0.000665	20.869591
1508.406150	-2.993500	3.413600	-10.218000	26.192952	0.000664	20.842743
1509.402796	-2.998300	3.411800	-10.229000	26.188675	0.000666	20.853143
1510.409787	-2.964700	3.412700	-10.116000	26.224363	0.000665	20.859607
1511.410364	-2.986200	3.411500	-10.187000	26.232680	0.000665	20.838095
1512.405514	-3.001600	3.410300	-10.235000	26.245263	0.000664	20.855006
1513.415099	-3.015500	3.410100	-10.281000	26.279857	0.000664	20.847572
1514.412705	-3.010000	3.409500	-10.261000	26.295452	0.000663	20.860872
1515.410676	-2.999800	3.409200	-10.225000	26.317479	0.000662	20.847448
1516.408438	-3.003900	3.409600	-10.241000	26.314447	0.000663	20.857677
1517.413064	-3.011900	3.407800	-10.263000	26.330288	0.000660	20.856053
1518.411518	-2.987000	3.407900	-10.178000	26.340840	0.000660	20.878037
1519.409555	-2.994800	3.407600	-10.204000	26.324950	0.000658	20.850689
1520.407983	-2.991200	3.406300	-10.188000	26.294629	0.000660	20.865260
1521.408375	-3.009800	3.406500	-10.252000	26.248763	0.000659	20.876066
1522.409871	-2.982300	3.406900	-10.159000	26.188864	0.000657	20.871824
1523.408700	-2.981600	3.407300	-10.158000	26.158220	0.000657	20.869481
1524.408039	-2.981900	3.406700	-10.157000	26.133038	0.000656	20.871678
1525.412671	-3.021300	3.405600	-10.288000	26.124044	0.000657	20.861219
1526.412683	-3.011600	3.404200	-10.251000	26.126829	0.000657	20.886301
1527.412139	-3.003100	3.405300	-10.225000	26.137411	0.000658	20.868012
1528.406738	-3.004100	3.405300	-10.229000	26.172826	0.000655	20.874674
1529.410151	-2.999700	3.403300	-10.207000	26.191626	0.000655	20.855161
1530.411006	-3.002800	3.404100	-10.220000	26.194186	0.000655	20.861526
1531.411090	-3.004000	3.402800	-10.221000	26.221729	0.000654	20.883038
1532.411840	-3.016700	3.402300	-10.262000	26.233127	0.000654	20.872681
1533.414652	-3.005000	3.401700	-10.220000	26.244550	0.000652	20.880366
1534.411639	-3.018800	3.402200	-10.268000	26.245944	0.000652	20.875129
1535.415918	-2.987700	3.403600	-10.168000	26.261166	0.000649	20.866245
1536.417253	-3.010100	3.402500	-10.241000	26.307305	0.000653	20.899808
1537.413622	-3.024000	3.401300	-10.284000	26.327842	0.000652	20.873034
1538.417231	-2.989200	3.401200	-10.166000	26.337451	0.000653	20.867993
1539.415506	-2.995100	3.401500	-10.187000	26.339289	0.000651	20.884537
1540.413061	-2.992300	3.400900	-10.176000	26.287689	0.000651	20.883415
1541.414508	-3.007100	3.399600	-10.222000	26.240781	0.000648	20.899811
1542.419024	-3.021700	3.398600	-10.269000	26.215225	0.000647	20.892148
1543.419711	-3.005600	3.399800	-10.217000	26.192135	0.000647	20.881748
1544.417318	-3.013600	3.399100	-10.243000	26.164168	0.000646	20.881621
1545.414540	-2.975200	3.399000	-10.112000	26.125178	0.000647	20.875160
1546.417753	-3.003100	3.397800	-10.202000	26.128309	0.000647	20.901537
1547.423200	-2.994900	3.397900	-10.175000	26.054248	0.000648	20.882600
1548.415284	-2.992100	3.396900	-10.163000	26.050198	0.000645	20.874738
1549.419105	-2.997400	3.396900	-10.181000	26.036567	0.000646	20.887595
1550.417286	-3.017200	3.396400	-10.246000	26.055790	0.000644	20.874667
1551.418304	-3.005600	3.395500	-10.204000	26.100204	0.000644	20.867610
1552.423494	-2.980100	3.397000	-10.123000	26.103656	0.000644	20.865389
1553.419545	-2.983500	3.396100	-10.131000	26.112723	0.000643	20.877818
1554.421451	-3.026300	3.394800	-10.271000	26.136046	0.000641	20.887976
1555.424807	-2.988700	3.395100	-10.146000	26.152238	0.000641	20.892392
1556.420962	-2.994500	3.395800	-10.167000	26.185472	0.000643	20.883588
1557.416975	-3.013200	3.393500	-10.225000	26.200547	0.000641	20.890675
1558.426145	-2.972000	3.394800	-10.089000	26.181626	0.000642	20.891576
1559.422600	-2.997900	3.393000	-10.171000	26.177080	0.000641	20.898862
1560.420451	-3.012600	3.392100	-10.218000	26.190742	0.000640	20.901210
1561.425281	-3.015100	3.392300	-10.227000	26.209394	0.000638	20.882497
1562.422685	-3.006300	3.391900	-10.194000	26.253673	0.000638	20.892379
1563.423202	-2.984600	3.391800	-10.123000	26.260775	0.000637	20.893826
1564.426759	-3.009800	3.389900	-10.201000	26.308534	0.000638	20.883975
1565.421906	-3.026800	3.390200	-10.261000	26.313477	0.000636	20.902217
1566.418433	-3.012300	3.389900	-10.210000	26.353875	0.000635	20.900618
1567.427949	-3.005100	3.390600	-10.188000	26.360289	0.000636	20.915597
1568.420919	-3.007200	3.389000	-10.190000	26.374094	0.000636	20.903394
1569.421004	-3.018600	3.388700	-10.229000	26.383480	0.000638	20.892914
1570.426095	-2.973600	3.390800	-10.082000	26.393267	0.000633	20.916499
1571.427079	-2.991400	3.388900	-10.137000	26.390908	0.000634	20.882837
1572.425942	-2.996700	3.388700	-10.153000	26.406106	0.000632	20.904748
1573.430959	-3.015400	3.387800	-10.215000	26.411844	0.000634	20.898662
1574.428335	-3.016800	3.387500	-10.218000	26.420163	0.000635	20.922668
1575.422007	-3.000500	3.387900	-10.163000	26.419966	0.000633	20.902083
1576.431933	-2.993400	3.387100	-10.138000	26.386723	0.000632	20.921776
1577.424088	-2.994400	3.387100	-10.142000	26.370035	0.000631	20.914013
1578.424882	-3.010700	3.386100	-10.194000	26.336939	0.000631	20.907779
1579.430494	-2.996200	3.386000	-10.144000	26.335900	0.000630	20.905312
1580.428988	-3.007800	3.384600	-10.178000	26.323612	0.000628	20.893437
1581.425453	-2.980000	3.386300	-10.090000	26.296472	0.000629	20.897930
1582.430703	-3.002100	3.385200	-10.163000	26.225825	0.000628	20.913229
1583.430159	-2.992500	3.384800	-10.127000	26.227638	0.000628	20.896087
1584.427283	-3.003600	3.383600	-10.162000	26.215968	0.000627	20.911859
1585.432321	-2.996200	3.384100	-10.139000	26.206957	0.000626	20.930303
1586.426178	-3.023300	3.382400	-10.225000	26.244756	0.000626	20.914236
1587.428659	-3.009700	3.382200	-10.179000	26.257147	0.000625	20.904878
1588.430882	-2.998500	3.381800	-10.139000	26.243322	0.000625	20.916114
1589.426548	-2.994000	3.382400	-10.126000	26.225741	0.000624	20.917886
1590.431243	-3.004800	3.382200	-10.161000	26.207444	0.000622	20.905665
1591.430399	-2.998100	3.382400	-10.140000	26.199422	0.000626	20.915147
1592.428165	-2.995800	3.380500	-10.126000	26.163638	0.000623	20.903846
1593.433649	-3.009300	3.379800	-10.170000	26.226796	0.000623	20.907093
1594.438985	-3.009400	3.379400	-10.169000	26.218059	0.000623	20.927235
1595.431746	-3.028900	3.379300	-10.235000	26.253844	0.000622	20.888758
1596.430330	-3.022500	3.379600	-10.213000	26.255910	0.000624	20.920703
1597.436487	-3.011500	3.378700	-10.174000	26.281044	0.000622	20.912296
1598.438049	-3.013900	3.378900	-10.182000	26.309528	0.000622	20.914843
1599.437238	-3.006500	3.378400	-10.156000	26.333044	0.000622	20.914769
1600.437199	-3.001100	3.378200	-10.137000	26.331135	0.000621	20.888671
1601.435171	-2.978800	3.378900	-10.064000	26.298834	0.000618	20.913105
1602.433631	-2.977900	3.377500	-10.056000	26.267447	0.000621	20.908116
1603.440047	-3.022900	3.377200	-10.207000	26.245172	0.000618	20.924136
1604.432103	-3.003200	3.377600	-10.142000	26.251781	0.000620	20.894744
1605.438954	-2.995700	3.377400	-10.116000	26.245601	0.000618	20.897543
1606.434950	-3.021700	3.375900	-10.198000	26.238996	0.000615	20.907973
1607.433171	-2.986500	3.376500	-10.083000	26.251044	0.000614	20.912968
1608.436206	-3.029400	3.374600	-10.222000	26.279005	0.000617	20.914989
1609.445222	-2.992300	3.374000	-10.094000	26.321570	0.000616	20.897075
1610.434033	-3.004800	3.375100	-10.140000	26.361253	0.000615	20.890964
1611.432740	-2.996900	3.374700	-10.113000	26.379054	0.000616	20.886096
1612.438579	-3.009800	3.373300	-10.152000	26.376103	0.000615	20.884553
1613.434484	-3.005000	3.374300	-10.138000	26.388690	0.000615	20.898624
1614.436534	-3.016600	3.372400	-10.172000	26.431198	0.000615	20.883502
1615.444040	-2.996200	3.374000	-10.108000	26.422808	0.000611	20.898776
1616.436671	-3.015000	3.371900	-10.165000	26.410989	0.000614	20.893536
1617.438581	-3.014400	3.373600	-10.169000	26.401998	0.000613	20.875492
1618.440102	-3.009100	3.372200	-10.147000	26.348043	0.000611	20.885749
1619.441963	-3.003900	3.371600	-10.127000	26.299124	0.000611	20.874044
1620.435555	-3.009200	3.369800	-10.139000	26.307989	0.000612	20.889591
1621.447683	-3.010800	3.372200	-10.153000	26.287603	0.000613	20.908931
1622.442636	-3.019400	3.370000	-10.174000	26.303022	0.000612	20.892659
1623.437899	-3.012700	3.369500	-10.150000	26.317025	0.000610	20.897248
1624.448722	-3.022400	3.369900	-10.183000	26.324524	0.000610	20.893880
1625.440491	-2.986200	3.370400	-10.064000	26.369464	0.000610	20.902061
1626.441133	-3.011300	3.369400	-10.145000	26.315908	0.000610	20.889015
1627.439813	-2.990300	3.369200	-10.074000	26.322285	0.000608	20.884044
1628.446296	-2.980500	3.369100	-10.041000	26.257671	0.000609	20.891655
1629.439314	-2.987600	3.369000	-10.064000	26.203882	0.000608	20.912990
1630.447655	-3.010900	3.369200	-10.144000	26.197600	0.000608	20.889610
1631.444954	-3.001400	3.366800	-10.103000	26.233700	0.000608	20.880369
1632.440228	-2.989800	3.369000	-10.070000	26.263028	0.000608	20.882814
1633.461511	-2.995300	3.366400	-10.082000	26.275619	0.000608	20.893570
1634.445621	-3.013500	3.366100	-10.142000	26.302633	0.000608	20.869985
1635.443448	-2.995200	3.366800	-10.083000	26.324755	0.000605	20.877044
1636.444675	-2.994000	3.365900	-10.076000	26.318770	0.000606	20.878141
1637.445549	-3.016800	3.365300	-10.152000	26.310746	0.000608	20.883353
1638.445817	-2.987600	3.364700	-10.052000	26.294553	0.000604	20.877038
1639.448468	-3.003200	3.364900	-10.105000	26.259136	0.000605	20.877481
1640.446012	-2.997100	3.363700	-10.081000	26.234749	0.000605	20.879526
1641.443141	-2.999900	3.364200	-10.092000	26.248355	0.000605	20.883242
1642.452679	-2.993200	3.364200	-10.068000	26.265440	0.000602	20.877651
1643.444907	-3.014300	3.362500	-10.135000	26.271916	0.000603	20.887952
1644.439719	-2.978000	3.363300	-10.014000	26.252796	0.000604	20.876799
1645.446572	-2.991600	3.362300	-10.057000	26.228131	0.000601	20.881410
1646.445684	-3.005800	3.361800	-10.103000	26.227582	0.000601	20.885600
1647.442134	-2.969800	3.362800	-9.985800	26.204261	0.000602	20.875916
1648.451582	-2.991800	3.360800	-10.054000	26.183247	0.000599	20.886093
1649.448082	-2.981000	3.362600	-10.023000	26.160468	0.000598	20.863679
1650.448678	-2.972100	3.361900	-9.990600	26.159326	0.000597	20.891928
1651.450408	-2.998900	3.360500	-10.077000	26.182991	0.000598	20.864974
1652.446991	-2.990600	3.361500	-10.052000	26.183164	0.000595	20.873208
1653.443989	-2.961400	3.362000	-9.954200	26.233177	0.000597	20.869412
1654.444817	-3.002200	3.359900	-10.086000	26.247652	0.000597	20.883958
1655.448594	-3.017200	3.358100	-10.130000	26.300370	0.000597	20.875297
1656.446950	-3.019200	3.358600	-10.139000	26.325823	0.000595	20.874324
1657.448065	-3.014400	3.358500	-10.123000	26.365897	0.000596	20.882356
1658.450268	-2.975700	3.358800	-9.993300	26.361349	0.000594	20.867829
1659.446734	-2.995300	3.357700	-10.057000	26.344685	0.000594	20.880952
1660.452372	-2.999000	3.355900	-10.063000	26.326110	0.000593	20.884569
1661.452492	-2.994800	3.357300	-10.053000	26.306639	0.000593	20.867848
1662.447389	-3.004000	3.357900	-10.086000	26.338469	0.000593	20.890825
1663.449540	-3.008600	3.356300	-10.097000	26.373128	0.000592	20.876822
1664.452127	-3.015200	3.355400	-10.115000	26.361334	0.000589	20.855012
1665.451126	-2.982900	3.356600	-10.011000	26.360486	0.000591	20.881659
1666.453022	-3.009000	3.355500	-10.096000	26.351347	0.000590	20.863940
1667.452794	-2.994600	3.355400	-10.048000	26.374834	0.000589	20.874743
1668.450447	-2.999100	3.355200	-10.061000	26.391914	0.000591	20.877210
1669.457152	-2.998200	3.353000	-10.052000	26.425800	0.000590	20.874759
1670.450873	-3.003700	3.353700	-10.073000	26.437419	0.000587	20.882642
1671.451450	-2.993900	3.353900	-10.039000	26.454025	0.000587	20.873730
1672.447462	-3.017500	3.353300	-10.118000	26.492109	0.000587	20.860328
1673.452884	-2.988600	3.352500	-10.018000	26.504297	0.000586	20.874000
1674.451999	-3.011300	3.352700	-10.095000	26.547568	0.000587	20.891890
1675.452550	-3.001700	3.351900	-10.060000	26.526089	0.000585	20.867930
1676.452521	-2.994700	3.351400	-10.034000	26.519655	0.000583	20.871419
1677.453804	-2.990800	3.351300	-10.022000	26.498625	0.000584	20.879204
1678.453184	-2.997100	3.351400	-10.044000	26.491102	0.000585	20.865953
1679.452020	-3.000000	3.351300	-10.053000	26.474638	0.000583	20.877853
1680.454402	-2.989700	3.350200	-10.016000	26.482728	0.000582	20.868916
1681.450266	-2.996600	3.349900	-10.038000	26.474136	0.000585	20.895839
1682.453922	-3.010700	3.350400	-10.086000	26.441185	0.000582	20.868885
1683.451863	-3.015000	3.348700	-10.095000	26.432345	0.000579	20.878966
1684.454759	-3.011300	3.348300	-10.082000	26.444435	0.000581	20.865040
1685.461655	-2.991200	3.349000	-10.017000	26.456920	0.000579	20.886122
1686.452729	-3.010900	3.348200	-10.081000	26.461264	0.000577	20.871997
1687.457183	-2.995500	3.348200	-10.029000	26.476631	0.000577	20.882227
1688.455002	-2.990000	3.347300	-10.007000	26.476085	0.000576	20.877411
1689.458910	-3.003600	3.348400	-10.055000	26.482215	0.000576	20.885942
1690.455484	-3.003500	3.345700	-10.048000	26.478241	0.000576	20.892853
1691.460172	-3.010200	3.346100	-10.071000	26.485369	0.000574	20.875363
1692.456296	-2.987400	3.347000	-9.998000	26.470147	0.000575	20.872391
1693.460948	-3.008800	3.346500	-10.069000	26.505326	0.000575	20.871242
1694.461618	-2.988700	3.347800	-10.004000	26.508080	0.000573	20.860259
1695.465265	-2.994700	3.345800	-10.018000	26.511779	0.000573	20.873460
1696.463907	-2.990000	3.344000	-9.997600	26.528437	0.000573	20.871713
1697.463887	-3.006100	3.344500	-10.053000	26.518112	0.000569	20.865128
1698.461694	-3.003900	3.344200	-10.045000	26.543979	0.000572	20.851301
1699.460538	-2.980400	3.343300	-9.963800	26.552667	0.000569	20.862404
1700.464434	-2.983000	3.343200	-9.971300	26.581117	0.000570	20.849751
1701.458388	-2.986800	3.343500	-9.985000	26.580250	0.000570	20.854096
1702.461446	-2.995900	3.342400	-10.013000	26.565927	0.000569	20.855819
1703.462564	-2.987000	3.342900	-9.984100	26.615080	0.000567	20.856866
1704.462172	-2.996900	3.342200	-10.015000	26.608949	0.000569	20.850702
1705.464667	-2.986700	3.343400	-9.982900	26.633525	0.000567	20.852174
1706.465963	-2.987400	3.342700	-9.984800	26.635590	0.000566	20.852354
1707.462075	-3.005300	3.341100	-10.040000	26.634671	0.000566	20.867077
1708.459870	-2.998300	3.340000	-10.013000	26.630078	0.000565	20.855347
1709.463739	-3.015100	3.340700	-10.071000	26.621464	0.000564	20.858068
1710.461079	-2.999100	3.342000	-10.022000	26.591576	0.000566	20.845093
1711.464011	-2.995200	3.339700	-10.003000	26.617993	0.000565	20.865009
1712.460759	-3.008000	3.339100	-10.043000	26.614694	0.000564	20.850788
1713.464760	-3.029500	3.338200	-10.111000	26.600470	0.000565	20.856878
1714.463539	-3.019000	3.338600	-10.079000	26.629861	0.000564	20.860819
1715.464677	-3.023200	3.338300	-10.091000	26.649871	0.000562	20.860073
1716.463720	-3.010900	3.338100	-10.050000	26.614552	0.000561	20.852542
1717.463974	-2.991900	3.339200	-9.989700	26.592855	0.000560	20.852542
1718.471725	-3.014500	3.337200	-10.058000	26.594421	0.000559	20.824720
1719.464735	-2.991100	3.336700	-9.979100	26.561381	0.000560	20.860258
1720.464778	-2.990100	3.336800	-9.975600	26.593804	0.000560	20.849229
1721.468566	-2.984500	3.336200	-9.955300	26.606591	0.000559	20.836006
1722.468113	-3.014200	3.335400	-10.053000	26.625560	0.000559	20.850806
1723.464042	-3.013500	3.335900	-10.051000	26.619724	0.000559	20.854422
1724.465870	-3.004800	3.334800	-10.019000	26.569109	0.000559	20.841949
1725.463686	-3.001600	3.335500	-10.010000	26.579042	0.000558	20.853830
1726.463938	-3.025400	3.333700	-10.085000	26.574871	0.000558	20.830198
1727.465619	-2.979300	3.335100	-9.935400	26.574575	0.000556	20.837960
1728.463186	-3.001300	3.334900	-10.006000	26.555581	0.000555	20.839256
1729.486519	-3.014300	3.332700	-10.044000	26.537983	0.000556	20.840058
1730.467709	-2.996300	3.333400	-9.987100	26.548512	0.000556	20.850641
1731.470068	-2.998800	3.332200	-9.990700	26.550229	0.000554	20.821548
1732.473119	-3.004200	3.332700	-10.010000	26.584860	0.000553	20.846402
1733.470514	-3.029300	3.330800	-10.088000	26.597897	0.000553	20.838171
1734.469617	-3.006900	3.331600	-10.017000	26.589336	0.000552	20.832410
1735.468039	-2.973400	3.332000	-9.905300	26.600659	0.000549	20.836206
1736.469860	-2.998100	3.330300	-9.983600	26.608628	0.000549	20.820035
1737.470999	-3.000500	3.331300	-9.994600	26.609026	0.000549	20.830392
1738.472529	-3.023900	3.329000	-10.064000	26.640060	0.000549	20.823184
1739.474913	-2.994200	3.329900	-9.968500	26.658010	0.000548	20.829849
1740.468472	-2.977300	3.330100	-9.913500	26.660199	0.000547	20.836317
1741.469260	-2.993800	3.329400	-9.966400	26.686389	0.000546	20.810016
1742.470479	-3.002400	3.328500	-9.992600	26.699844	0.000545	20.827810
1743.476264	-3.004300	3.327900	-9.996300	26.699647	0.000545	20.837569
1744.472778	-2.996700	3.328900	-9.974000	26.731872	0.000544	20.836775
1745.472699	-3.001200	3.327800	-9.986300	26.731277	0.000544	20.822427
1746.473670	-2.999800	3.327600	-9.981000	26.765880	0.000545	20.842043
1747.469921	-2.976600	3.328400	-9.904100	26.760393	0.000544	20.833682
1748.474035	-2.996100	3.326400	-9.965000	26.773823	0.000542	20.815891
1749.471162	-2.995500	3.325600	-9.961400	26.747219	0.000542	20.819489
1750.471440	-2.981400	3.325300	-9.912500	26.690800	0.000541	20.820140
1751.472640	-2.990000	3.327600	-9.948000	26.649295	0.000541	20.823933
1752.470975	-2.984400	3.326100	-9.925100	26.614197	0.000540	20.812358
1753.475318	-3.002200	3.325300	-9.982000	26.605313	0.000540	20.821444
1754.474854	-2.997100	3.324400	-9.963200	26.609111	0.000539	20.819098
1755.477462	-2.999800	3.324100	-9.969800	26.600226	0.000540	20.821072
1756.478118	-2.992600	3.324500	-9.947800	26.558073	0.000541	20.804778
1757.478082	-3.021700	3.321800	-10.037000	26.555742	0.000540	20.801012
1758.479225	-3.006000	3.323700	-9.990200	26.565300	0.000541	20.813464
1759.474608	-3.004300	3.322900	-9.982400	26.582336	0.000537	20.816365
1760.476020	-3.004300	3.322400	-9.980200	26.560465	0.000537	20.803863
1761.476727	-3.007800	3.321900	-9.990000	26.535314	0.000538	20.807505
1762.478378	-3.019500	3.320700	-10.025000	26.534201	0.000538	20.812550
1763.479562	-3.004800	3.322000	-9.979700	26.495249	0.000539	20.822234
1764.482832	-2.988900	3.321500	-9.925300	26.499846	0.000535	20.800302
1765.479183	-3.033200	3.318900	-10.066000	26.542226	0.000535	20.816823
1766.477667	-3.009000	3.320600	-9.988900	26.575791	0.000536	20.812156
1767.480956	-3.003600	3.321000	-9.974100	26.593819	0.000534	20.807520
1768.481781	-2.999900	3.319200	-9.956400	26.623707	0.000534	20.813383
1769.482874	-2.991200	3.320100	-9.929300	26.666933	0.000533	20.826966
1770.478267	-3.009200	3.319300	-9.986800	26.642925	0.000532	20.781968
1771.484529	-3.010200	3.317800	-9.985500	26.639725	0.000535	20.810045
1772.480635	-2.991900	3.319000	-9.928800	26.584271	0.000533	20.786542
1773.482088	-2.987300	3.318200	-9.911500	26.586655	0.000532	20.800792
1774.482238	-2.990700	3.318300	-9.922100	26.601502	0.000529	20.778733
1775.482681	-3.018900	3.318000	-10.016000	26.627721	0.000528	20.786124
1776.484979	-2.990800	3.316300	-9.917400	26.625958	0.000531	20.764436
1777.482990	-3.006400	3.315400	-9.966400	26.620819	0.000528	20.814747
1778.482031	-3.019100	3.315400	-10.008000	26.620301	0.000529	20.786251
1779.485835	-2.995900	3.315700	-9.931700	26.609776	0.000528	20.813129
1780.479828	-3.009800	3.314900	-9.975700	26.640857	0.000528	20.803596
1781.483337	-3.001600	3.316100	-9.952700	26.659923	0.000526	20.793841
1782.480635	-3.011500	3.315400	-9.983100	26.640958	0.000525	20.796112
1783.483498	-2.992400	3.314500	-9.916700	26.639321	0.000529	20.775026
1784.481097	-3.010000	3.313600	-9.972600	26.615766	0.000526	20.764148
1785.487495	-3.030200	3.313700	-10.040000	26.645678	0.000526	20.782839
1786.484770	-2.994200	3.313300	-9.919300	26.608691	0.000522	20.796865
1787.480533	-3.009700	3.312400	-9.967000	26.589232	0.000523	20.788684
1788.486535	-3.017400	3.312000	-9.992200	26.589556	0.000525	20.785690
1789.484769	-3.008000	3.312200	-9.962000	26.600527	0.000522	20.797194
1790.482036	-2.987500	3.313100	-9.896400	26.629947	0.000523	20.787887
1791.482839	-2.986200	3.311400	-9.887800	26.644695	0.000520	20.771893
1792.484768	-2.992900	3.310800	-9.908000	26.675355	0.000521	20.797975
1793.484533	-3.003600	3.308900	-9.936000	26.701816	0.000520	20.772420
1794.489261	-3.007400	3.310200	-9.954100	26.727910	0.000520	20.774946
1795.482678	-2.995800	3.310400	-9.915600	26.738806	0.000519	20.784004
1796.484087	-2.972100	3.310000	-9.836100	26.735135	0.000519	20.780787
1797.486853	-2.981400	3.308200	-9.862000	26.735508	0.000520	20.784956
1798.487214	-2.980300	3.310500	-9.865500	26.746183	0.000519	20.791420
1799.480850	-2.988300	3.308700	-9.886800	26.767507	0.000517	20.779195
1800.485795	-2.984600	3.309100	-9.875300	26.790319	0.000518	20.758982
1801.485011	-2.972000	3.308800	-9.832800	26.836510	0.000518	20.772234
1802.480729	-2.991800	3.307900	-9.895300	26.827473	0.000515	20.777372
1803.489186	-2.990800	3.307500	-9.891000	26.819459	0.000516	20.785910
1804.484015	-2.960500	3.308700	-9.794500	26.821694	0.000514	20.780096
1805.486086	-2.986700	3.307100	-9.876900	26.808215	0.000513	20.779346
1806.484527	-2.980700	3.306100	-9.853500	26.824871	0.000514	20.765748
1807.487050	-3.001400	3.306400	-9.922700	26.830752	0.000513	20.774980
1808.483124	-2.975800	3.306500	-9.837900	26.853412	0.000511	20.770263
1809.496962	-2.992800	3.305500	-9.891800	26.805040	0.000512	20.769990
1810.483304	-3.011400	3.303900	-9.948200	26.798342	0.000512	20.778429
1811.483054	-2.996400	3.303800	-9.898300	26.762849	0.000510	20.751278
1812.484114	-2.988300	3.304400	-9.873300	26.770293	0.000509	20.769194
1813.481566	-2.989500	3.303500	-9.874000	26.796456	0.000510	20.756143
1814.485998	-2.974500	3.303600	-9.825300	26.815693	0.000508	20.758415
1815.486746	-2.981900	3.302900	-9.847100	26.808024	0.000508	20.760662
1816.486693	-3.006400	3.301700	-9.925200	26.800704	0.000508	20.773217
1817.491667	-2.978600	3.302300	-9.835500	26.806662	0.000506	20.756921
1818.488003	-2.998300	3.301200	-9.896700	26.840936	0.000505	20.758192
1819.484726	-3.004300	3.300800	-9.915600	26.794875	0.000506	20.762615
1820.488766	-3.016900	3.300200	-9.955300	26.743865	0.000507	20.770598
1821.497894	-3.003700	3.300000	-9.911400	26.718425	0.000505	20.780583
1822.486782	-3.004600	3.300900	-9.917200	26.697501	0.000505	20.773297
1823.490790	-2.990400	3.301100	-9.870800	26.656416	0.000502	20.779409
1824.489990	-2.990400	3.299400	-9.865700	26.652895	0.000503	20.760696
1825.489291	-2.997100	3.300600	-9.891100	26.679307	0.000504	20.756903
1826.491389	-2.981200	3.300000	-9.836500	26.699711	0.000501	20.754182
1827.496697	-2.996500	3.297900	-9.880500	26.747025	0.000503	20.768559
1828.493923	-3.000300	3.298000	-9.893400	26.766265	0.000502	20.740961
1829.491114	-3.025500	3.296100	-9.971700	26.795751	0.000502	20.757331
1830.497198	-2.988600	3.298500	-9.856100	26.816380	0.000501	20.749149
1831.491876	-3.025700	3.295300	-9.970300	26.774036	0.000501	20.755412
1832.496344	-3.008000	3.295300	-9.910900	26.788532	0.000500	20.755288
1833.490802	-3.002100	3.296200	-9.894600	26.785551	0.000500	20.742334
1834.492772	-3.014800	3.295800	-9.934900	26.736236	0.000497	20.773360
1835.494178	-2.997200	3.296100	-9.877900	26.749938	0.000498	20.768169
1836.497580	-3.011800	3.295000	-9.922500	26.758578	0.000497	20.746509
1837.493906	-3.028600	3.293300	-9.972400	26.766222	0.000498	20.763678
1838.495071	-3.013700	3.293900	-9.925200	26.759299	0.000496	20.754821
1839.495787	-2.989900	3.293800	-9.846500	26.802464	0.000494	20.732311
1840.497734	-2.980800	3.294900	-9.819900	26.829619	0.000495	20.765305
1841.498077	-3.001300	3.292500	-9.880900	26.821032	0.000493	20.752878
1842.496403	-2.980700	3.293300	-9.815600	26.833145	0.000494	20.751781
1843.502657	-2.993500	3.292900	-9.856000	26.843100	0.000492	20.742824
1844.497755	-3.003400	3.292700	-9.888600	26.840742	0.000491	20.768903
1845.502192	-3.018400	3.291600	-9.933600	26.844173	0.000490	20.741532
1846.503954	-2.983500	3.291200	-9.818600	26.815977	0.000491	20.730251
1847.502578	-2.987500	3.291200	-9.831500	26.776764	0.000489	20.742034
1848.500014	-2.984800	3.292000	-9.823700	26.765893	0.000490	20.768563
1849.504727	-2.979600	3.290900	-9.804900	26.713769	0.000491	20.739390
1850.503331	-3.004300	3.290200	-9.883900	26.676611	0.000488	20.751347
1851.505068	-2.982900	3.289900	-9.812700	26.655813	0.000487	20.736127
1852.502830	-3.015500	3.289200	-9.917700	26.669564	0.000485	20.746633
1853.499241	-2.983300	3.289700	-9.813300	26.670511	0.000484	20.738576
1854.507060	-3.013100	3.288200	-9.906800	26.722317	0.000484	20.742769
1855.501166	-3.006500	3.288900	-9.887000	26.753770	0.000483	20.755900
1856.503644	-3.010600	3.287400	-9.896200	26.733297	0.000484	20.714452
1857.501960	-3.013800	3.286700	-9.904700	26.707832	0.000484	20.758079
1858.505302	-3.007900	3.287300	-9.886500	26.711359	0.000481	20.749296
1859.507117	-3.027100	3.285800	-9.945100	26.729407	0.000482	20.733776
1860.503714	-3.001000	3.285600	-9.858000	26.744478	0.000482	20.733280
1861.506118	-3.002200	3.285600	-9.863100	26.753786	0.000481	20.748330
1862.506785	-3.026400	3.285500	-9.941800	26.754437	0.000481	20.730491
1863.504881	-2.998600	3.284800	-9.848400	26.739968	0.000479	20.749610
1864.505490	-3.010300	3.284400	-9.885400	26.787283	0.000478	20.770155
1865.507020	-3.008600	3.284100	-9.879300	26.788254	0.000478	20.763070
1866.501277	-3.012600	3.283400	-9.890500	26.824619	0.000479	20.761701
1867.508516	-3.001400	3.283900	-9.854800	26.788782	0.000477	20.737521
1868.507451	-2.993000	3.283600	-9.825100	26.812938	0.000477	20.735730
1869.505252	-3.015500	3.283000	-9.899000	26.833068	0.000477	20.746962
1870.505095	-3.016600	3.281700	-9.897200	26.831977	0.000475	20.762461
1871.509046	-2.992500	3.282500	-9.821800	26.876008	0.000475	20.740351
1872.507052	-2.998400	3.281700	-9.837500	26.887874	0.000474	20.736161
1873.508951	-3.008800	3.281000	-9.870200	26.882392	0.000473	20.753883
1874.509536	-3.001200	3.280700	-9.845200	26.893761	0.000470	20.747297
1875.506804	-3.009600	3.279200	-9.868300	26.897164	0.000472	20.741709
1876.512393	-3.005300	3.279600	-9.854800	26.894313	0.000472	20.742162
1877.510549	-3.000500	3.280700	-9.842700	26.867885	0.000470	20.752098
1878.504761	-3.009900	3.279900	-9.871000	26.874589	0.000470	20.745088
1879.508794	-3.014400	3.279000	-9.882900	26.887349	0.000469	20.719511
1880.507334	-2.993700	3.279700	-9.817700	26.877200	0.000470	20.756249
1881.509526	-3.007500	3.279200	-9.861600	26.903114	0.000470	20.744847
1882.510845	-2.969800	3.278900	-9.736900	26.928379	0.000468	20.733743
1883.507581	-3.014600	3.276500	-9.876200	26.904482	0.000465	20.743852
1884.507594	-3.008800	3.277500	-9.860900	26.885673	0.000467	20.741535
1885.514243	-2.982500	3.279300	-9.778000	26.903046	0.000467	20.744305
1886.522508	-3.006700	3.277100	-9.851800	26.907297	0.000467	20.741467
1887.511981	-2.982300	3.277000	-9.772400	26.889473	0.000468	20.749149
1888.518091	-2.997700	3.278300	-9.827200	26.908191	0.000465	20.731460
1889.511879	-3.000800	3.275500	-9.828300	26.918297	0.000465	20.737829
1890.513225	-2.982300	3.276000	-9.768300	26.905639	0.000463	20.730791
1891.515460	-2.997000	3.274600	-9.813300	26.937056	0.000465	20.725872
1892.515101	-2.997000	3.274500	-9.812700	26.941599	0.000463	20.756994
1893.507780	-3.023100	3.273500	-9.895100	26.925201	0.000461	20.762316
1894.512914	-2.972600	3.274100	-9.732000	26.927586	0.000460	20.753335
1895.512030	-2.997700	3.273700	-9.812800	26.880034	0.000459	20.748193
1896.510785	-3.026500	3.273300	-9.905700	26.857051	0.000462	20.730773
1897.515075	-2.977000	3.273800	-9.745000	26.799871	0.000458	20.735394
1898.513636	-3.015500	3.271200	-9.863300	26.725012	0.000459	20.747376
1899.512704	-3.008400	3.272200	-9.843000	26.680527	0.000458	20.745327
1900.516142	-2.991800	3.271600	-9.786300	26.625045	0.000459	20.741707
1901.515093	-3.008400	3.270700	-9.838600	26.642426	0.000457	20.750171
1902.515871	-2.992000	3.270700	-9.783700	26.663206	0.000457	20.731706
1903.513492	-2.974700	3.271000	-9.729200	26.714988	0.000457	20.740617
1904.511038	-2.977200	3.272000	-9.740600	26.744183	0.000454	20.760960
1905.515179	-2.981400	3.270500	-9.749200	26.776995	0.000452	20.755068
1906.521204	-3.005500	3.269300	-9.824700	26.824354	0.000452	20.738674
1907.517850	-3.001200	3.269400	-9.810200	26.851705	0.000454	20.749580
1908.518256	-2.990100	3.269200	-9.774400	26.855530	0.000453	20.747262
1909.520270	-3.015900	3.268400	-9.856100	26.869279	0.000452	20.744017
1910.517118	-2.997800	3.268800	-9.798900	26.881294	0.000449	20.753253
1911.516560	-2.982100	3.270100	-9.750000	26.914647	0.000450	20.737003
1912.516334	-3.010700	3.266700	-9.834000	26.952351	0.000449	20.744572
1913.514677	-3.013100	3.267800	-9.844400	26.987468	0.000449	20.738634
1914.519945	-2.992700	3.267200	-9.775500	27.011786	0.000448	20.746968
1915.522443	-2.994700	3.265700	-9.779000	26.991494	0.000448	20.760701
1916.518406	-3.008700	3.265400	-9.823900	26.993176	0.000447	20.748642
1917.520836	-3.000300	3.265600	-9.796600	27.014893	0.000446	20.736815
1918.521918	-3.001000	3.265100	-9.797000	27.016979	0.000445	20.763097
1919.527140	-3.013300	3.264600	-9.836200	26.993429	0.000444	20.731826
1920.517692	-3.002000	3.263000	-9.794000	26.931122	0.000445	20.745984
1921.520262	-2.995400	3.264800	-9.778200	26.909058	0.000443	20.742289
1922.515872	-2.987400	3.263600	-9.748900	26.935267	0.000443	20.768645
1923.518549	-2.995100	3.263300	-9.773300	26.986265	0.000442	20.770616
1924.527700	-2.997200	3.263500	-9.780000	27.014804	0.000442	20.745736
1925.522713	-3.001500	3.262300	-9.790300	27.016620	0.000441	20.776486
1926.517732	-3.015900	3.262300	-9.837100	27.055310	0.000439	20.752806
1927.526665	-2.980300	3.264100	-9.727600	27.040296	0.000440	20.750035
1928.525667	-3.013800	3.260800	-9.826900	27.020269	0.000438	20.755973
1929.520327	-3.005600	3.261400	-9.801800	27.042805	0.000438	20.756352
1930.525410	-2.995300	3.260300	-9.764500	27.036081	0.000438	20.756702
1931.528720	-3.024100	3.259700	-9.856100	27.047871	0.000438	20.760024
1932.522902	-3.039800	3.258000	-9.902300	27.062237	0.000437	20.757877
1933.525424	-2.996200	3.258800	-9.762800	27.058617	0.000436	20.756132
1934.522921	-3.003600	3.258200	-9.785600	27.061819	0.000438	20.750343
1935.525006	-3.014900	3.258700	-9.823200	27.093632	0.000436	20.770959
1936.521656	-2.979100	3.258200	-9.705000	27.079189	0.000434	20.770184
1937.524263	-3.004800	3.256300	-9.783400	27.088298	0.000433	20.750895
1938.521248	-3.005800	3.257300	-9.789500	27.095472	0.000433	20.749575
1939.528892	-2.999600	3.256700	-9.768000	27.103511	0.000432	20.758609
1940.521977	-3.009400	3.255500	-9.795500	27.107505	0.000431	20.781592
1941.521033	-2.978800	3.255000	-9.694300	27.130363	0.000432	20.751001
1942.524771	-2.965700	3.255700	-9.653800	27.115449	0.000430	20.761132
1943.524600	-2.966100	3.258200	-9.662700	27.088773	0.000430	20.754692
1944.525175	-2.988800	3.257200	-9.734000	27.065175	0.000428	20.744235
1945.531510	-3.002500	3.255700	-9.773900	27.046615	0.000428	20.785788
1946.527655	-2.989100	3.255700	-9.729300	27.021229	0.000428	20.760258
1947.525648	-2.983600	3.253500	-9.705900	26.981081	0.000426	20.777731
1948.527411	-3.007300	3.253200	-9.782400	27.003615	0.000427	20.779529
1949.523279	-3.006000	3.252300	-9.774800	27.035627	0.000425	20.774263
1950.526504	-2.993500	3.253200	-9.736700	27.042527	0.000425	20.770297
1951.524321	-3.004700	3.252400	-9.771600	27.025208	0.000425	20.762363
1952.527158	-3.009800	3.252200	-9.786800	27.045728	0.000427	20.764033
1953.527262	-2.997200	3.253800	-9.750500	27.017270	0.000422	20.755328
1954.522998	-3.004900	3.250700	-9.766700	27.051217	0.000421	20.774295
1955.526640	-3.014400	3.250900	-9.798200	27.036306	0.000422	20.773524
1956.527622	-3.018600	3.250700	-9.811600	27.055985	0.000422	20.780512
1957.531413	-3.016800	3.249100	-9.801000	27.054570	0.000420	20.773874
1958.526916	-3.002700	3.249200	-9.755300	27.083281	0.000419	20.763393
1959.528761	-3.010300	3.250200	-9.782600	27.114175	0.000419	20.778343
1960.526587	-3.003700	3.249000	-9.757800	27.146209	0.000420	20.771680
1961.525940	-3.006100	3.246900	-9.758600	27.139784	0.000416	20.779918
1962.530984	-2.999900	3.247000	-9.739300	27.126883	0.000418	20.774528
1963.529699	-3.000500	3.246100	-9.738700	27.108718	0.000417	20.772855
1964.528275	-2.967800	3.247400	-9.636700	27.089016	0.000414	20.782911
1965.531321	-2.985000	3.246600	-9.689800	27.104405	0.000415	20.773732
1966.533955	-2.983800	3.247300	-9.688900	27.103159	0.000414	20.784334
1967.527844	-3.048000	3.244300	-9.888200	27.118098	0.000415	20.786556
1968.532610	-2.988100	3.246300	-9.698700	27.158001	0.000415	20.776429
1969.529750	-2.988500	3.245600	-9.698300	27.173854	0.000412	20.778623
1970.535228	-2.981400	3.246000	-9.676800	27.163736	0.000413	20.788360
1971.536225	-2.969800	3.246300	-9.639900	27.165396	0.000409	20.767745
1972.531292	-2.981400	3.244100	-9.671200	27.167011	0.000407	20.781223
1973.532644	-2.979800	3.244300	-9.665300	27.196215	0.000409	20.781199
1974.535187	-3.010400	3.242200	-9.758500	27.230406	0.000407	20.787140
1975.532400	-3.021100	3.243500	-9.797400	27.244351	0.000407	20.795002
1976.533297	-3.002900	3.241600	-9.732900	27.214033	0.000405	20.778732
1977.536724	-3.016300	3.243300	-9.781400	27.213340	0.000405	20.777087
1978.532119	-3.028400	3.241400	-9.814900	27.214853	0.000406	20.780031
1979.536263	-2.995100	3.242300	-9.710700	27.235918	0.000404	20.791262
1980.537024	-2.996800	3.241300	-9.712900	27.257356	0.000404	20.806187
1981.536075	-3.005400	3.239600	-9.735600	27.276264	0.000404	20.781584
1982.536093	-2.991800	3.240400	-9.693900	27.294176	0.000403	20.764514
1983.536914	-3.014000	3.239300	-9.761500	27.297627	0.000401	20.775572
1984.536811	-3.006900	3.240400	-9.741300	27.266020	0.000401	20.792143
1985.536403	-2.991300	3.239700	-9.689700	27.272029	0.000400	20.783014
1986.538532	-2.991000	3.238400	-9.684900	27.292642	0.000399	20.779567
1987.532636	-2.974200	3.238400	-9.629800	27.272102	0.000396	20.789726
1988.535231	-3.012500	3.237800	-9.752100	27.265285	0.000397	20.809895
1989.535834	-3.004700	3.238300	-9.728600	27.275036	0.000394	20.796471
1990.534722	-2.980100	3.237600	-9.647600	27.293501	0.000396	20.799871
1991.536164	-2.976300	3.237600	-9.635200	27.306921	0.000394	20.813370
1992.537168	-3.001300	3.235200	-9.709000	27.293307	0.000394	20.784503
1993.546460	-2.996000	3.236600	-9.696200	27.296878	0.000393	20.774344
1994.540007	-2.986500	3.235800	-9.663000	27.320573	0.000391	20.808611
1995.539039	-3.016800	3.235600	-9.760400	27.327376	0.000391	20.803601
1996.534121	-2.994300	3.235900	-9.687900	27.342586	0.000391	20.793771
1997.537077	-3.021600	3.233600	-9.769700	27.353279	0.000390	20.790303
1998.533631	-2.986400	3.234900	-9.659500	27.328522	0.000388	20.785314
1999.539639	-3.003400	3.232900	-9.708400	27.368643	0.000388	20.797699
2000.537797	-3.002800	3.233300	-9.708300	27.366564	0.000389	20.805090
2001.537460	-3.023400	3.233000	-9.773400	27.384299	0.000387	20.783102
2002.538518	-3.007100	3.231100	-9.715100	27.394672	0.000388	20.812978
2003.539715	-2.994500	3.231500	-9.675600	27.380536	0.000388	20.790222
2004.534909	-3.019000	3.229700	-9.748400	27.363026	0.000386	20.815281
2005.537158	-3.008100	3.231100	-9.718700	27.351320	0.000385	20.812988
2006.539062	-3.004500	3.229800	-9.702900	27.346262	0.000384	20.773287
2007.535010	-3.002500	3.229300	-9.694400	27.391735	0.000384	20.814765
2008.535026	-2.975700	3.230900	-9.612900	27.420268	0.000383	20.779458
2009.537876	-2.977100	3.230100	-9.614800	27.447653	0.000383	20.825974
2010.539367	-2.992100	3.227300	-9.654300	27.467898	0.000383	20.805565
2011.541120	-3.002600	3.227000	-9.688800	27.477176	0.000382	20.805891
2012.542379	-2.980200	3.228100	-9.619400	27.457114	0.000380	20.826010
2013.540614	-3.004700	3.226800	-9.694300	27.408672	0.000380	20.814259
2014.538902	-2.981500	3.227200	-9.620900	27.386664	0.000382	20.804921
2015.536672	-2.997300	3.226200	-9.668400	27.359087	0.000378	20.794724
2016.539783	-3.006100	3.224400	-9.692200	27.323535	0.000378	20.809695
2017.540878	-3.005300	3.225700	-9.692500	27.297667	0.000377	20.802639
2018.549332	-3.023600	3.223600	-9.745100	27.310221	0.000375	20.813845
2019.540643	-2.981400	3.226000	-9.617000	27.322772	0.000374	20.811772
2020.539087	-3.005000	3.223900	-9.687200	27.344388	0.000374	20.798903
2021.540156	-2.984700	3.223800	-9.620600	27.355749	0.000372	20.808435
2022.540886	-2.979000	3.224300	-9.603500	27.380660	0.000373	20.796985
2023.540305	-3.004400	3.223200	-9.681200	27.362355	0.000372	20.811288
2024.540652	-3.000300	3.222100	-9.666300	27.365159	0.000372	20.823591
2025.544170	-3.000200	3.221000	-9.661900	27.377192	0.000373	20.820523
2026.541057	-3.005800	3.222900	-9.685800	27.350477	0.000369	20.813563
2027.542635	-3.002700	3.222400	-9.675100	27.324257	0.000370	20.818481
2028.547524	-2.999400	3.220400	-9.658800	27.272903	0.000369	20.802385
2029.545125	-3.021900	3.218600	-9.725500	27.214355	0.000368	20.821730
2030.552935	-2.989900	3.220800	-9.627000	27.198377	0.000368	20.824150
2031.547445	-3.004700	3.220600	-9.675800	27.184312	0.000368	20.822331
2032.546151	-2.983100	3.220000	-9.603500	27.192674	0.000368	20.823630
2033.550931	-3.010600	3.217900	-9.686100	27.205058	0.000368	20.813326
2034.545938	-2.992400	3.219600	-9.633400	27.204262	0.000366	20.821061
2035.545578	-2.999400	3.217800	-9.650600	27.210419	0.000366	20.813029
2036.544972	-2.991400	3.216900	-9.621400	27.183126	0.000365	20.816398
2037.547126	-2.996600	3.216300	-9.637200	27.212456	0.000363	20.840208
2038.547958	-2.995600	3.216500	-9.633900	27.213100	0.000365	20.819045
2039.545563	-2.978300	3.217600	-9.582500	27.258505	0.000361	20.815878
2040.546979	-2.999500	3.217100	-9.647400	27.314722	0.000363	20.837812
2041.548879	-3.005800	3.215700	-9.664300	27.358983	0.000360	20.826387
2042.544639	-3.049600	3.211900	-9.793700	27.412764	0.000359	20.827385
2043.547207	-3.026600	3.213400	-9.724500	27.443723	0.000359	20.831978
2044.547052	-2.988600	3.214800	-9.606900	27.486139	0.000360	20.836719
2045.548709	-2.970600	3.214300	-9.547300	27.474509	0.000359	20.817906
2046.547696	-2.990100	3.214200	-9.609900	27.452505	0.000358	20.833227
2047.551895	-2.981000	3.213900	-9.579500	27.410067	0.000358	20.812818
2048.550536	-2.982300	3.212800	-9.579900	27.378955	0.000356	20.824193
2049.553551	-2.996600	3.212400	-9.625300	27.426854	0.000359	20.828284
2050.553695	-2.986200	3.212300	-9.591200	27.424821	0.000353	20.844730
2051.551345	-2.981000	3.211000	-9.571600	27.475824	0.000354	20.848626
2052.553857	-3.030500	3.209100	-9.723400	27.524464	0.000352	20.841613
2053.552248	-2.975000	3.210600	-9.549500	27.551470	0.000352	20.837964
2054.548982	-2.998900	3.209200	-9.622400	27.581978	0.000354	20.841634
2055.554931	-2.987400	3.208600	-9.584500	27.616674	0.000353	20.838138
2056.551239	-3.005100	3.206800	-9.635300	27.640903	0.000351	20.851612
2057.553501	-2.985900	3.209400	-9.581300	27.611761	0.000350	20.854531
2058.550190	-2.982300	3.208700	-9.568200	27.634158	0.000347	20.858575
2059.552467	-2.987200	3.206300	-9.576700	27.622399	0.000347	20.827303
2060.551142	-3.001500	3.206700	-9.624100	27.616948	0.000344	20.840784
2061.554744	-3.015000	3.205600	-9.664000	27.603599	0.000347	20.852482
2062.549681	-2.995400	3.205900	-9.601800	27.624505	0.000347	20.835586
2063.552691	-3.017800	3.207000	-9.676800	27.605311	0.000345	20.866058
2064.551295	-2.985900	3.206600	-9.573600	27.592490	0.000346	20.841779
2065.559552	-3.005700	3.204200	-9.629200	27.572099	0.000343	20.870099
2066.555127	-2.988800	3.204600	-9.576200	27.574283	0.000342	20.845745
2067.553488	-2.993200	3.204800	-9.592000	27.613519	0.000341	20.848714
2068.555906	-2.990400	3.202400	-9.575700	27.649705	0.000342	20.850511
2069.558947	-3.007000	3.203500	-9.632000	27.694022	0.000340	20.827777
2070.556706	-3.015300	3.202300	-9.655100	27.672818	0.000339	20.843424
2071.558287	-3.007100	3.201600	-9.625900	27.687450	0.000338	20.876163
2072.554925	-3.027000	3.200800	-9.688700	27.679763	0.000338	20.885497
2073.555417	-2.974200	3.202600	-9.523800	27.700623	0.000337	20.852910
2074.558012	-3.008800	3.201900	-9.632300	27.718053	0.000335	20.855277
2075.556415	-2.994700	3.201400	-9.586900	27.760360	0.000336	20.860868
2076.553223	-2.999600	3.202300	-9.603900	27.762343	0.000335	20.876613
2077.556023	-3.006300	3.198300	-9.613400	27.748732	0.000334	20.861968
2078.555861	-3.021300	3.198400	-9.662300	27.724899	0.000333	20.882553
2079.560278	-3.024800	3.197200	-9.669900	27.704937	0.000332	20.859148
2080.556291	-2.994100	3.198200	-9.574300	27.717040	0.000332	20.862793
2081.559935	-2.992200	3.198300	-9.567700	27.699807	0.000330	20.868684
2082.554879	-3.011100	3.198800	-9.631100	27.713595	0.000329	20.875445
2083.557113	-3.033800	3.194600	-9.690600	27.740951	0.000329	20.858405
2084.558786	-2.996400	3.197200	-9.577700	27.727410	0.000328	20.867063
2085.558769	-2.983200	3.195400	-9.531600	27.743057	0.000327	20.859576
2086.558664	-2.994800	3.195400	-9.568300	27.736092	0.000327	20.863946
2087.555725	-3.009100	3.194500	-9.611600	27.727565	0.000328	20.891874
2088.559737	-2.994200	3.194100	-9.563500	27.710799	0.000328	20.872633
2089.558961	-3.007700	3.193900	-9.605000	27.672116	0.000325	20.877802
2090.560962	-2.977700	3.193300	-9.507400	27.635312	0.000324	20.878701
2091.556223	-2.972700	3.193000	-9.490100	27.629559	0.000321	20.876706
2092.558959	-2.992600	3.193200	-9.554500	27.643675	0.000322	20.887115
2093.561309	-2.990500	3.191700	-9.544000	27.659847	0.000321	20.878733
2094.558968	-3.009300	3.190200	-9.599100	27.670435	0.000321	20.889861
2095.560224	-3.020200	3.191300	-9.636800	27.666789	0.000319	20.867701
2096.557371	-3.020000	3.190100	-9.632000	27.667809	0.000319	20.880106
2097.560161	-2.995400	3.190800	-9.556800	27.691622	0.000319	20.884628
2098.562005	-3.006500	3.188500	-9.585000	27.721905	0.000318	20.875747
2099.561543	-2.999900	3.188300	-9.563000	27.725973	0.000317	20.914451
2100.562674	-3.006900	3.190200	-9.592900	27.754022	0.000317	20.863972
2101.559915	-2.972100	3.188400	-9.475000	27.699963	0.000315	20.888280
2102.568341	-2.998100	3.188800	-9.559700	27.728161	0.000317	20.887732
2103.561378	-2.994600	3.186200	-9.540400	27.722236	0.000315	20.891252
2104.561651	-3.011700	3.186600	-9.596000	27.734269	0.000314	20.890085
2105.558451	-2.974000	3.186300	-9.475600	27.744933	0.000312	20.875688
2106.563168	-2.977800	3.185300	-9.482700	27.720482	0.000315	20.884272
2107.566447	-3.007600	3.184200	-9.575700	27.739951	0.000309	20.879683
2108.561243	-2.978600	3.185900	-9.488400	27.727381	0.000310	20.884102
2109.562412	-3.005400	3.184000	-9.568000	27.710074	0.000310	20.891341
2110.565254	-2.996600	3.182900	-9.536800	27.685551	0.000309	20.866666
2111.560743	-2.990800	3.183000	-9.518800	27.691406	0.000308	20.871135
2112.564217	-3.013600	3.181400	-9.586200	27.668964	0.000307	20.891225
2113.573446	-3.055100	3.178900	-9.710900	27.636008	0.000308	20.857117
2114.559852	-3.001000	3.181900	-9.548300	27.660785	0.000306	20.876358
2115.563591	-3.001200	3.180600	-9.544800	27.659917	0.000307	20.869795
2116.570289	-2.988700	3.182500	-9.509100	27.650996	0.000306	20.855603
2117.560714	-2.992900	3.183500	-9.526600	27.670934	0.000307	20.877561
2118.560921	-2.997200	3.179500	-9.527400	27.719323	0.000304	20.857029
2119.560011	-2.999700	3.178800	-9.534300	27.753969	0.000303	20.891417
2120.564739	-3.003200	3.178400	-9.544000	27.775720	0.000304	20.876798
2121.561349	-3.005300	3.176600	-9.545500	27.817926	0.000301	20.863324
2122.563943	-3.005200	3.177400	-9.547200	27.852667	0.000301	20.866519
2123.560534	-3.012400	3.176200	-9.566100	27.829213	0.000302	20.851924
2124.560638	-3.012200	3.175000	-9.562600	27.826091	0.000300	20.858739
2125.568203	-2.983900	3.177800	-9.480900	27.771564	0.000299	20.863608
2126.561193	-3.009900	3.176700	-9.560300	27.752472	0.000299	20.849611
2127.562031	-3.001000	3.176100	-9.531100	27.720981	0.000298	20.843525
2128.572462	-2.994900	3.177500	-9.515500	27.767655	0.000298	20.853036
2129.565039	-3.027900	3.173400	-9.607000	27.788656	0.000298	20.851412
2130.568449	-2.999700	3.173500	-9.518800	27.800066	0.000296	20.879488
2131.567290	-2.991500	3.172700	-9.489300	27.834533	0.000295	20.846848
2132.566260	-2.991200	3.174200	-9.493500	27.826503	0.000293	20.867689
2133.565627	-2.978500	3.171300	-9.443900	27.839895	0.000294	20.865994
2134.567758	-2.984600	3.172200	-9.466500	27.869527	0.000295	20.858833
2135.570353	-3.001100	3.174300	-9.524900	27.867273	0.000293	20.844237
2136.568501	-2.995600	3.170900	-9.498100	27.877093	0.000291	20.841792
2137.570333	-2.964400	3.171200	-9.399200	27.921950	0.000291	20.845688
2138.568079	-2.996900	3.171500	-9.503900	27.917141	0.000290	20.841322
2139.571208	-2.999900	3.169700	-9.507500	27.928598	0.000291	20.842423
2140.570326	-3.006200	3.168600	-9.524500	27.851414	0.000289	20.854354
2141.568087	-2.995800	3.168000	-9.489400	27.819304	0.000287	20.841004
2142.568892	-2.998900	3.168000	-9.500000	27.784070	0.000289	20.834943
2143.569783	-2.996000	3.166500	-9.485500	27.790744	0.000289	20.835495
2144.571342	-3.019500	3.165600	-9.557000	27.825953	0.000287	20.858600
2145.571426	-3.012200	3.165600	-9.534400	27.836846	0.000285	20.845382
2146.574629	-3.018800	3.164400	-9.551000	27.826108	0.000286	20.830309
2147.571124	-2.998400	3.165100	-9.489400	27.796844	0.000287	20.850169
2148.566865	-3.026700	3.163200	-9.573400	27.808602	0.000283	20.832605
2149.579144	-2.986400	3.163300	-9.446000	27.829832	0.000284	20.812245
2150.569360	-2.987700	3.164100	-9.452500	27.827972	0.000282	20.836926
2151.568705	-3.023700	3.161400	-9.558000	27.814980	0.000281	20.834757
2152.574517	-3.009500	3.161400	-9.513200	27.784409	0.000281	20.837655
2153.570219	-2.996400	3.161200	-9.471300	27.730024	0.000281	20.822281
2154.569483	-3.007300	3.160900	-9.504300	27.686704	0.000279	20.817094
2155.572471	-3.021600	3.158500	-9.542800	27.675915	0.000277	20.839902
2156.573519	-3.019300	3.159900	-9.539300	27.702457	0.000278	20.822041
2157.572630	-3.018800	3.157400	-9.529900	27.767005	0.000279	20.837684
2158.578851	-3.004700	3.159500	-9.492400	27.835173	0.000277	20.825682
2159.572209	-3.028400	3.156800	-9.558700	27.834558	0.000279	20.811787
2160.573936	-2.987800	3.158500	-9.435800	27.854469	0.000276	20.832299
2161.576471	-2.980600	3.156500	-9.406400	27.871826	0.000277	20.819423
2162.570662	-2.970700	3.157300	-9.378500	27.899330	0.000274	20.811069
2163.574449	-2.998000	3.155500	-9.459200	27.903984	0.000273	20.810063
2164.579054	-3.009600	3.155300	-9.495400	27.871732	0.000275	20.807948
2165.572210	-3.010200	3.157700	-9.504100	27.832854	0.000276	20.808175
2166.574811	-3.015700	3.154600	-9.511400	27.811898	0.000274	20.836871
2167.581354	-2.982800	3.153200	-9.404600	27.783531	0.000273	20.803582
2168.582601	-3.010200	3.152900	-9.488600	27.796137	0.000271	20.819587
2169.576294	-3.006100	3.152200	-9.474400	27.775058	0.000271	20.785572
2170.579617	-2.996400	3.153300	-9.446400	27.806429	0.000270	20.810978
2171.574036	-2.988200	3.151300	-9.415200	27.855472	0.000269	20.818136
2172.577705	-2.985000	3.151900	-9.407000	27.847667	0.000270	20.813126
2173.598458	-2.996200	3.149100	-9.434300	27.850789	0.000270	20.809630
2174.574483	-2.994300	3.149400	-9.429400	27.842095	0.000268	20.793768
2175.577153	-2.992200	3.149600	-9.423700	27.837478	0.000265	20.808087
2176.578947	-2.993000	3.148500	-9.421900	27.824811	0.000266	20.810037
2177.579426	-2.978100	3.148000	-9.374000	27.815834	0.000264	20.794366
2178.577085	-3.002200	3.147600	-9.449400	27.761332	0.000264	20.814432
2179.582812	-2.985200	3.147200	-9.394500	27.708016	0.000265	20.816255
2180.581525	-2.996500	3.145800	-9.424600	27.670099	0.000263	20.801807
2181.578339	-2.993800	3.145600	-9.416800	27.642023	0.000262	20.800583
2182.581663	-2.999900	3.144800	-9.433300	27.657327	0.000261	20.813138
2183.577799	-3.012300	3.142800	-9.465800	27.657851	0.000260	20.824570
2184.580625	-2.994600	3.143400	-9.412100	27.671516	0.000262	20.813665
2185.583765	-3.004900	3.141300	-9.437100	27.698030	0.000262	20.803362
2186.581124	-3.003500	3.142300	-9.437200	27.709515	0.000259	20.810177
2187.582158	-3.014600	3.141200	-9.468300	27.747852	0.000258	20.798970
2188.582366	-2.990500	3.140900	-9.391700	27.778457	0.000258	20.791363
2189.582561	-2.954500	3.140000	-9.275900	27.814019	0.000259	20.789219
2190.580478	-3.016400	3.138500	-9.466000	27.759738	0.000257	20.815672
2191.579841	-3.009700	3.138700	-9.445900	27.683456	0.000256	20.786325
2192.581674	-3.000900	3.138800	-9.418800	27.657171	0.000256	20.804920
2193.579994	-2.993800	3.138700	-9.395200	27.658932	0.000256	20.801951
2194.582188	-3.029800	3.136800	-9.502900	27.620792	0.000254	20.802928
2195.580549	-2.958100	3.137800	-9.280600	27.576820	0.000254	20.792348
2196.580604	-2.996600	3.135900	-9.395900	27.597554	0.000254	20.813685
2197.584067	-3.004500	3.135400	-9.419300	27.588904	0.000252	20.790282
2198.582780	-2.999600	3.134700	-9.402200	27.620968	0.000252	20.786035
2199.581228	-2.995600	3.134400	-9.388100	27.620849	0.000253	20.797295
2200.585807	-3.015100	3.132500	-9.444300	27.614228	0.000253	20.813866
2201.585961	-3.025300	3.133200	-9.477100	27.647934	0.000253	20.799419
2202.580906	-3.002500	3.132200	-9.402500	27.708006	0.000251	20.791115
2203.584712	-3.011100	3.131100	-9.424800	27.763203	0.000250	20.788814
2204.584183	-3.018000	3.131400	-9.449100	27.795369	0.000250	20.788942
2205.581886	-3.044700	3.129100	-9.526100	27.843375	0.000246	20.776090
2206.588298	-2.999700	3.129200	-9.385100	27.851163	0.000249	20.786299
2207.586205	-2.985100	3.129000	-9.338700	27.855551	0.000247	20.794982
2208.582580	-3.010200	3.127300	-9.412300	27.865842	0.000247	20.801546
2209.582782	-3.009300	3.126900	-9.409000	27.898377	0.000249	20.777867
2210.585676	-2.951200	3.127400	-9.228000	27.941246	0.000245	20.788298
2211.587188	-2.997200	3.125200	-9.366200	27.948984	0.000245	20.793242
2212.582603	-3.003200	3.124300	-9.382300	27.970478	0.000243	20.789746
2213.583498	-3.007800	3.124100	-9.394600	28.008863	0.000243	20.777174
2214.583390	-2.993200	3.122900	-9.346400	28.061865	0.000243	20.775525
2215.587606	-3.014400	3.122200	-9.410600	28.110679	0.000243	20.788628
2216.588408	-2.998400	3.122500	-9.360900	28.105801	0.000243	20.795097
2217.588043	-3.005900	3.121500	-9.382400	28.122135	0.000242	20.786410
2218.587233	-3.015400	3.121200	-9.410300	28.115741	0.000241	20.782344
2219.588054	-3.003900	3.119600	-9.369700	28.109639	0.000240	20.787581
2220.585186	-2.995100	3.118900	-9.338700	28.148908	0.000242	20.801508
2221.584140	-3.011900	3.118100	-9.390500	28.166760	0.000241	20.783919
2222.584491	-3.000100	3.118200	-9.353900	28.181115	0.000240	20.777033
2223.584628	-2.999700	3.117400	-9.350300	28.194200	0.000240	20.769818
2224.588165	-3.008400	3.116400	-9.374300	28.191849	0.000241	20.768400
2225.588455	-2.989100	3.117200	-9.315900	28.230836	0.000239	20.764977
2226.587447	-2.988300	3.115100	-9.307700	28.230120	0.000239	20.768997
2227.590209	-2.983400	3.114100	-9.289800	28.221741	0.000239	20.798494
2228.588193	-2.966900	3.114500	-9.238800	28.201764	0.000239	20.763683
2229.589895	-2.991600	3.112100	-9.308700	28.211384	0.000239	20.770049
2230.588840	-2.994400	3.111100	-9.314400	28.230316	0.000235	20.772515
2231.592538	-3.004600	3.110500	-9.344600	28.205732	0.000238	20.765307
2232.587931	-3.007100	3.109900	-9.350900	28.201764	0.000236	20.769373
2233.589781	-2.982000	3.110400	-9.274400	28.206748	0.000237	20.737405
2234.591379	-3.021300	3.108500	-9.390900	28.221843	0.000234	20.781053
2235.588266	-3.007300	3.108000	-9.345600	28.241496	0.000233	20.773813
2236.592102	-2.987400	3.109700	-9.288100	28.276497	0.000234	20.797199
2237.591426	-3.015700	3.106800	-9.368900	28.301829	0.000233	20.762013
2238.589081	-3.034200	3.105800	-9.421200	28.306268	0.000232	20.770750
2239.593366	-2.981600	3.106000	-9.258000	28.290380	0.000231	20.758545
2240.588703	-2.964600	3.104700	-9.203200	28.219017	0.000230	20.754974
2241.589288	-2.999800	3.103400	-9.308400	28.165699	0.000231	20.771945
2242.588962	-2.976400	3.103500	-9.236000	28.173780	0.000228	20.769175
2243.592175	-3.009200	3.101500	-9.331800	28.168353	0.000229	20.758970
2244.591130	-3.001500	3.102900	-9.312600	28.193216	0.000231	20.767406
2245.592172	-3.001300	3.100300	-9.302800	28.199712	0.000230	20.746917
2246.592035	-3.000500	3.099500	-9.299100	28.222343	0.000231	20.770176
2247.590602	-2.973000	3.100300	-9.215800	28.234092	0.000229	20.752133
2248.592183	-3.012000	3.097600	-9.329400	28.193392	0.000231	20.753832
2249.591371	-3.016500	3.096700	-9.339800	28.198327	0.000231	20.760223
2250.593833	-2.983800	3.098100	-9.243500	28.219173	0.000228	20.777417
2251.592851	-3.026400	3.094500	-9.362600	28.203811	0.000229	20.770960
2252.592474	-2.989500	3.095200	-9.252400	28.211715	0.000228	20.750941
2253.594495	-2.972700	3.096500	-9.203500	28.194093	0.000225	20.776823
2254.592101	-3.011200	3.093800	-9.315300	28.172653	0.000225	20.757134
2255.594410	-2.991600	3.092400	-9.250300	28.171338	0.000226	20.764820
2256.594510	-3.002800	3.090700	-9.278400	28.171469	0.000226	20.771590
2257.592725	-2.992300	3.090100	-9.246000	28.191500	0.000224	20.741495
2258.591864	-2.983300	3.089000	-9.213400	28.189219	0.000223	20.761010
2259.594900	-3.009500	3.088000	-9.292100	28.185926	0.000225	20.752005
2260.591709	-3.008900	3.086700	-9.286900	28.152638	0.000225	20.759744
2261.592999	-2.986400	3.087600	-9.220100	28.150680	0.000222	20.756825
2262.594573	-2.996700	3.085400	-9.244500	28.136280	0.000225	20.732844
2263.591958	-2.999600	3.085000	-9.252300	28.151454	0.000225	20.728679
2264.593123	-2.999900	3.084100	-9.251300	28.148382	0.000221	20.758305
2265.595455	-3.004200	3.082800	-9.259800	28.115191	0.000220	20.754289
2266.593463	-2.981600	3.083900	-9.194100	28.109690	0.000222	20.758709
2267.593703	-2.999200	3.081700	-9.240300	28.118443	0.000221	20.747605
2268.593504	-2.991800	3.081900	-9.218700	28.116067	0.000222	20.747110
2269.594892	-3.015300	3.079400	-9.284500	28.151589	0.000224	20.746360
2270.595963	-3.002500	3.078700	-9.243200	28.192867	0.000219	20.746665
2271.593634	-3.012100	3.077700	-9.269100	28.179586	0.000219	20.754157
2272.594368	-2.996400	3.077500	-9.219700	28.238259	0.000219	20.736888
2273.593898	-3.008500	3.075700	-9.252300	28.284117	0.000217	20.729953
2274.594606	-3.004800	3.075100	-9.239400	28.311357	0.000218	20.741733
2275.594555	-3.001600	3.075700	-9.230800	28.338838	0.000219	20.737160
2276.599000	-3.023200	3.074000	-9.291300	28.329702	0.000218	20.747877
2277.596247	-2.994100	3.073300	-9.199600	28.323211	0.000217	20.735177
2278.595840	-2.977700	3.072700	-9.148200	28.298875	0.000218	20.730114
2279.594417	-3.026900	3.070500	-9.293000	28.321975	0.000217	20.748157
2280.595049	-2.974800	3.071800	-9.135600	28.315931	0.000218	20.732587
2281.596105	-3.004100	3.068400	-9.216000	28.295882	0.000216	20.735635
2282.596834	-3.007300	3.068000	-9.224900	28.269538	0.000216	20.752259
2283.597228	-3.007700	3.066400	-9.222000	28.246486	0.000217	20.735214
2284.597902	-3.014300	3.065600	-9.239000	28.294502	0.000215	20.718123
2285.600812	-3.014200	3.064500	-9.235300	28.291823	0.000215	20.725384
2286.607996	-2.986600	3.065000	-9.151800	28.305558	0.000215	20.740162
2287.598563	-3.010100	3.061700	-9.215000	28.321692	0.000214	20.736966
2288.601682	-2.990600	3.062100	-9.155400	28.335574	0.000215	20.739090
2289.598411	-2.990000	3.060700	-9.150600	28.323137	0.000213	20.722300
2290.598941	-2.985100	3.060700	-9.134700	28.327601	0.000214	20.723949
2291.599499	-3.013200	3.057600	-9.211700	28.348468	0.000214	20.717933
2292.599809	-2.963500	3.059200	-9.065300	28.373430	0.000213	20.723153
2293.599849	-3.002900	3.056300	-9.177100	28.386369	0.000214	20.723854
2294.600808	-3.001100	3.056000	-9.170200	28.423990	0.000210	20.738030
2295.600246	-2.999500	3.053800	-9.158500	28.401118	0.000214	20.745345
2296.601276	-3.022000	3.053400	-9.226700	28.393932	0.000213	20.715822
2297.601790	-3.005200	3.052600	-9.172400	28.371579	0.000214	20.721289
2298.600511	-2.960200	3.053700	-9.037400	28.333235	0.000214	20.738632
2299.601041	-2.993500	3.050600	-9.130400	28.317949	0.000213	20.735094
2300.600881	-3.012400	3.049200	-9.183400	28.261516	0.000213	20.736595
2301.601035	-3.016800	3.046900	-9.190100	28.254402	0.000211	20.764048
2302.601847	-2.998200	3.046600	-9.133600	28.227955	0.000212	20.722246
2303.601038	-3.019800	3.044800	-9.194100	28.204035	0.000212	20.756960
2304.601597	-3.013000	3.045200	-9.173000	28.186392	0.000212	20.728765
2305.602931	-3.017000	3.043600	-9.181200	28.204608	0.000212	20.728612
2306.601721	-2.985400	3.043000	-9.084000	28.270766	0.000212	20.739271
2307.603040	-3.007100	3.042000	-9.145100	28.319198	0.000212	20.727342
2308.602495	-3.003300	3.040100	-9.128600	28.339103	0.000213	20.726522
2309.603246	-2.995400	3.040300	-9.106300	28.344881	0.000211	20.738978
2310.604287	-2.986900	3.038900	-9.076000	28.341040	0.000211	20.725627
2311.602127	-2.996600	3.037200	-9.100400	28.358242	0.000213	20.734414
2312.603089	-2.993600	3.038000	-9.093100	28.359332	0.000212	20.706585
2313.602738	-3.016800	3.034200	-9.152400	28.312912	0.000212	20.717694
2314.605245	-3.011000	3.033000	-9.131300	28.320771	0.000214	20.731297
2315.604937	-2.993300	3.033200	-9.079000	28.298093	0.000215	20.733593
2316.604927	-2.988600	3.032400	-9.061800	28.322707	0.000214	20.712383
2317.607067	-2.997600	3.030900	-9.085000	28.371698	0.000213	20.712874
2318.607316	-2.995100	3.028600	-9.069900	28.366968	0.000211	20.722811
2319.604118	-2.995200	3.028700	-9.071000	28.365973	0.000215	20.721809
2320.606374	-2.980100	3.027300	-9.020200	28.351502	0.000215	20.722885
2321.606466	-3.016700	3.026100	-9.127600	28.346994	0.000214	20.706016
2322.607980	-3.007500	3.024500	-9.095700	28.321934	0.000214	20.713026
2323.607179	-2.989600	3.024100	-9.040000	28.334693	0.000213	20.719710
2324.610692	-3.008800	3.022400	-9.092800	28.331991	0.000216	20.716040
2325.608366	-2.988600	3.021400	-9.028900	28.350577	0.000213	20.714840
2326.608521	-2.969200	3.021500	-8.970400	28.396376	0.000215	20.730612
2327.609965	-2.996600	3.018500	-9.044400	28.411371	0.000212	20.735280
2328.613343	-3.004400	3.018100	-9.067100	28.440163	0.000214	20.723969
2329.609358	-3.019400	3.015600	-9.104800	28.401400	0.000212	20.720498
2330.621663	-3.020000	3.014100	-9.100800	28.379314	0.000212	20.719595
2331.609125	-3.021000	3.013800	-9.103800	28.363455	0.000212	20.716902
2332.609698	-3.005400	3.013100	-9.054200	28.352792	0.000212	20.718494
2333.608765	-3.002300	3.012000	-9.042100	28.366772	0.000211	20.716923
2334.609529	-3.001000	3.011200	-9.036100	28.369593	0.000211	20.733989
2335.610883	-2.991700	3.009200	-9.001300	28.369196	0.000210	20.732641
2336.614894	-3.002600	3.007800	-9.030700	28.338063	0.000211	20.745864
2337.613367	-3.024100	3.005300	-9.087500	28.333923	0.000211	20.745963
2338.614266	-3.005900	3.005500	-9.032900	28.299919	0.000211	20.731639
2339.612230	-3.022600	3.003900	-9.078800	28.326114	0.000211	20.721030
2340.613230	-3.002300	3.002600	-9.013500	28.323956	0.000209	20.754420
2341.613017	-3.007000	3.001300	-9.024000	28.314661	0.000210	20.748379
2342.610713	-3.003900	3.000400	-9.012000	28.326237	0.000211	20.726844
2343.614163	-3.004800	2.999100	-9.011000	28.319546	0.000212	20.727693
2344.613014	-2.996400	2.999100	-8.985300	28.374711	0.000209	20.739618
2345.615894	-3.033400	2.995400	-9.084400	28.410277	0.000210	20.737498
2346.612543	-3.011100	2.995300	-9.018600	28.417635	0.000208	20.725941
2347.612165	-3.023100	2.992600	-9.045900	28.460537	0.000209	20.726468
2348.611844	-2.980600	2.992800	-8.919400	28.467452	0.000208	20.741019
2349.613143	-2.977200	2.993000	-8.909400	28.495056	0.000208	20.728513
2350.618597	-3.020400	2.989100	-9.027300	28.495748	0.000209	20.734426
2351.614663	-3.012100	2.989100	-9.002000	28.492403	0.000208	20.740067
2352.614031	-3.024400	2.986800	-9.031800	28.478949	0.000208	20.750227
2353.615079	-3.012300	2.985800	-8.993300	28.521423	0.000207	20.749377
2354.613307	-3.026300	2.984000	-9.029500	28.556660	0.000208	20.748355
2355.621241	-3.009600	2.982900	-8.976800	28.583525	0.000207	20.746013
2356.614635	-2.995200	2.981800	-8.930400	28.615514	0.000207	20.728443
2357.613679	-3.007100	2.981400	-8.963600	28.604510	0.000207	20.737275
2358.615079	-2.991300	2.978800	-8.908600	28.613180	0.000206	20.746009
2359.620502	-3.022300	2.976800	-8.995400	28.565188	0.000207	20.738451
2360.615979	-3.026000	2.975200	-9.000500	28.565286	0.000207	20.751352
2361.616928	-3.038900	2.972900	-9.032100	28.558670	0.000206	20.722403
2362.621564	-2.977700	2.974500	-8.856400	28.544325	0.000206	20.745889
2363.618779	-2.989400	2.972100	-8.883300	28.520141	0.000208	20.736232
2364.618813	-2.976300	2.970900	-8.842200	28.554212	0.000206	20.749208
2365.619797	-3.020200	2.968400	-8.964400	28.552853	0.000208	20.752581
2366.617329	-3.006400	2.966700	-8.918600	28.533525	0.000206	20.770100
2367.623671	-3.012200	2.965300	-8.931300	28.549508	0.000206	20.738306
2368.618770	-3.021400	2.964700	-8.956500	28.544456	0.000207	20.722312
2369.618480	-3.026300	2.962200	-8.964000	28.550151	0.000204	20.757446
2370.621447	-2.986900	2.961600	-8.844600	28.577040	0.000204	20.728575
2371.625762	-3.016100	2.960000	-8.926800	28.562670	0.000205	20.758201
2372.622037	-3.020600	2.957800	-8.934200	28.584126	0.000204	20.745196
2373.619625	-2.996300	2.957800	-8.861100	28.625584	0.000206	20.738112
2374.618488	-3.031100	2.954000	-8.953200	28.650806	0.000204	20.760671
2375.619566	-3.014600	2.953300	-8.901700	28.694070	0.000204	20.750668
2376.620661	-3.021400	2.951900	-8.917900	28.681786	0.000204	20.749200
2377.620355	-3.000900	2.949800	-8.850600	28.650490	0.000204	20.748499
2378.627438	-2.999900	2.950900	-8.850000	28.685404	0.000202	20.750474
2379.621315	-3.011300	2.947300	-8.874100	28.695912	0.000204	20.758213
2380.620446	-2.998400	2.946900	-8.835500	28.689891	0.000202	20.758786
2381.620667	-2.995500	2.944600	-8.819400	28.659419	0.000204	20.776932
2382.625226	-2.993900	2.942100	-8.806800	28.721979	0.000205	20.731363
2383.620099	-2.988800	2.942600	-8.793600	28.759613	0.000203	20.746037
2384.620417	-3.043400	2.938600	-8.941600	28.792047	0.000203	20.745518
2385.623134	-2.994800	2.937800	-8.797400	28.790189	0.000204	20.766406
2386.622822	-3.026100	2.935600	-8.881600	28.780529	0.000202	20.786073
2387.624682	-3.001100	2.934200	-8.805200	28.771909	0.000202	20.737086
2388.620879	-3.005500	2.933100	-8.813800	28.741091	0.000203	20.769581
2389.623227	-3.003200	2.930200	-8.798600	28.747284	0.000204	20.760646
2390.620136	-3.004400	2.930100	-8.801600	28.757223	0.000205	20.747897
2391.621056	-2.990200	2.929600	-8.758600	28.773452	0.000204	20.747175
2392.622138	-3.011200	2.925200	-8.807900	28.734734	0.000204	20.772661
2393.622173	-3.012200	2.925000	-8.809200	28.752294	0.000206	20.764270
2394.622878	-2.999100	2.924000	-8.768400	28.766248	0.000205	20.772162
2395.623784	-2.999800	2.922000	-8.763900	28.779404	0.000204	20.769767
2396.622818	-2.970200	2.921800	-8.676800	28.777795	0.000204	20.755344
2397.626616	-3.009400	2.919100	-8.783800	28.744476	0.000203	20.763982
2398.625633	-2.966700	2.918200	-8.656300	28.759912	0.000203	20.752503
2399.624629	-2.987000	2.915600	-8.707900	28.775544	0.000202	20.759714
2400.628013	-2.988400	2.914000	-8.707200	28.767198	0.000203	20.755575
2401.625056	-3.001300	2.912700	-8.741000	28.720449	0.000203	20.731243
2402.626245	-3.000300	2.910600	-8.732000	28.623673	0.000204	20.755628
2403.629324	-3.001500	2.910100	-8.733700	28.579795	0.000203	20.767388
2404.628930	-3.014900	2.906500	-8.761300	28.527138	0.000203	20.777419
2405.625342	-3.005500	2.906300	-8.733800	28.550708	0.000202	20.763697
2406.628030	-3.005500	2.904900	-8.730200	28.616992	0.000203	20.761702
2407.626970	-2.999500	2.902800	-8.706100	28.640687	0.000203	20.753798
2408.627805	-2.970700	2.901000	-8.616900	28.694280	0.000203	20.773164
2409.629478	-2.988700	2.897700	-8.658100	28.727899	0.000201	20.752499
2410.631111	-3.000500	2.896500	-8.689700	28.729319	0.000203	20.777164
2411.627598	-3.004500	2.894900	-8.697300	28.672633	0.000203	20.755154
2412.632748	-2.972700	2.892700	-8.598000	28.632221	0.000201	20.761393
2413.634850	-2.985200	2.891800	-8.631800	28.544285	0.000201	20.767186
2414.629772	-2.992700	2.888400	-8.643300	28.509477	0.000199	20.746356
2415.628695	-3.004900	2.886600	-8.672600	28.492301	0.000199	20.767466
2416.632680	-3.008500	2.885500	-8.679400	28.495434	0.000201	20.774414
2417.630010	-3.015300	2.883800	-8.694700	28.455854	0.000199	20.761583
2418.630015	-3.012500	2.880900	-8.678400	28.439951	0.000200	20.777812
2419.634370	-2.986000	2.879700	-8.598300	28.436238	0.000199	20.781185
2420.629806	-2.978400	2.877200	-8.568200	28.481837	0.000200	20.770679
2421.633227	-2.974200	2.876000	-8.552800	28.538120	0.000200	20.785159
2422.630836	-3.030200	2.873600	-8.706600	28.588152	0.000202	20.786236
2423.630177	-3.018400	2.870200	-8.662000	28.613702	0.000202	20.755543
2424.629710	-2.988900	2.870200	-8.577400	28.680854	0.000202	20.782876
2425.630028	-2.992500	2.867600	-8.580500	28.719210	0.000200	20.772197
2426.630270	-2.994900	2.867000	-8.585500	28.751891	0.000199	20.760070
2427.630794	-2.986200	2.864700	-8.553400	28.746545	0.000203	20.757057
2428.630937	-3.016400	2.860600	-8.628200	28.764580	0.000203	20.785655
2429.633681	-3.010400	2.858200	-8.603400	28.790723	0.000200	20.772160
2430.633524	-3.014900	2.855600	-8.608100	28.829795	0.000200	20.758413
2431.631245	-2.956400	2.856400	-8.443800	28.903789	0.000203	20.788859
2432.633427	-3.003100	2.853300	-8.567800	28.919942	0.000203	20.772416
2433.635778	-3.018000	2.850400	-8.602100	28.894404	0.000200	20.791733
2434.632164	-2.972500	2.851800	-8.475200	28.834682	0.000200	20.776139
2435.634524	-2.969500	2.849400	-8.460600	28.791501	0.000202	20.768202
2436.634372	-3.018200	2.845000	-8.585800	28.756353	0.000202	20.786377
2437.631630	-2.988000	2.843700	-8.496200	28.760688	0.000202	20.780786
2438.634534	-3.033300	2.840300	-8.614500	28.793814	0.000204	20.786653
2439.632164	-2.975500	2.839300	-8.447000	28.808881	0.000204	20.773855
2440.632235	-2.988900	2.837500	-8.479700	28.883940	0.000202	20.778820
2441.631407	-3.007000	2.834200	-8.521700	28.894839	0.000204	20.786006
2442.633786	-2.998600	2.833600	-8.495900	28.954267	0.000202	20.788031
2443.636502	-3.008800	2.829600	-8.512500	28.993873	0.000202	20.805649
2444.635176	-3.002900	2.827800	-8.490700	29.000286	0.000204	20.790298
2445.639870	-2.971600	2.827200	-8.400100	29.023394	0.000202	20.790348
2446.637223	-2.989700	2.824000	-8.441300	29.025105	0.000202	20.786381
2447.632764	-3.017400	2.820800	-8.510700	29.041944	0.000205	20.780114
2448.633409	-3.008800	2.818500	-8.477800	29.091855	0.000203	20.770660
2449.637835	-3.002500	2.817400	-8.457600	29.102350	0.000202	20.787874
2450.635353	-3.004400	2.814300	-8.455000	29.125907	0.000205	20.796438
2451.644599	-2.991300	2.813500	-8.414700	29.160895	0.000201	20.779063
2452.640875	-2.982100	2.812200	-8.384200	29.183530	0.000204	20.789544
2453.638737	-2.999600	2.808400	-8.422600	29.186848	0.000202	20.802845
2454.636797	-3.003100	2.805400	-8.423600	29.181349	0.000201	20.801096
2455.644039	-3.022000	2.802300	-8.467700	29.155666	0.000200	20.801768
2456.641717	-3.010300	2.799300	-8.425100	29.153411	0.000201	20.786220
2457.638165	-2.998600	2.797800	-8.388400	29.156406	0.000203	20.801092
2458.642547	-3.039100	2.793900	-8.489800	29.203337	0.000203	20.795279
2459.641177	-2.994800	2.793300	-8.364800	29.193877	0.000203	20.802816
2460.639732	-3.012400	2.789100	-8.401500	29.181050	0.000201	20.828770
2461.644261	-3.042200	2.787300	-8.478600	29.205964	0.000204	20.818314
2462.639911	-2.977400	2.786200	-8.294200	29.249770	0.000202	20.803191
2463.648196	-2.982700	2.782500	-8.298100	29.237762	0.000201	20.797254
2464.642047	-2.993400	2.780300	-8.321200	29.228892	0.000204	20.803962
2465.642299	-2.981900	2.777500	-8.281100	29.239341	0.000201	20.807854
2466.640300	-3.013200	2.772400	-8.352700	29.263018	0.000200	20.809429
2467.641063	-2.973500	2.772600	-8.243200	29.290159	0.000200	20.817341
2468.645596	-3.024100	2.767800	-8.369100	29.298877	0.000202	20.814748
2469.641112	-2.997300	2.765000	-8.286400	29.248976	0.000199	20.813770
2470.651832	-2.976100	2.764400	-8.226400	29.217898	0.000202	20.802840
2471.641898	-3.018000	2.758600	-8.324400	29.220255	0.000200	20.819914
2472.642363	-2.997600	2.757500	-8.265100	29.250044	0.000199	20.804415
2473.642842	-2.964200	2.754900	-8.164800	29.283253	0.000201	20.810856
2474.643642	-2.995500	2.750900	-8.239200	29.263767	0.000201	20.805916
2475.643157	-3.016900	2.747200	-8.286900	29.229616	0.000200	20.817968
2476.644162	-2.970900	2.745400	-8.155100	29.214760	0.000200	20.833343
2477.644166	-2.975500	2.742600	-8.158800	29.163154	0.000199	20.829228
2478.643915	-2.988100	2.738300	-8.181300	29.142102	0.000200	20.805644
2479.644980	-3.003200	2.736000	-8.215400	29.128632	0.000198	20.835693
2480.644020	-3.029600	2.730600	-8.271700	29.130588	0.000199	20.830551
2481.643950	-3.017300	2.728900	-8.233000	29.159193	0.000198	20.813857
2482.654539	-3.016800	2.723600	-8.216100	29.189827	0.000202	20.821493
2483.643627	-2.973700	2.724100	-8.099300	29.152115	0.000200	20.825217
2484.642671	-2.989800	2.719500	-8.129200	29.131382	0.000199	20.835144
2485.646878	-3.039600	2.715500	-8.253300	29.115436	0.000201	20.812913
2486.644959	-3.001600	2.712000	-8.139100	29.083311	0.000201	20.828906
2487.648015	-2.988900	2.709300	-8.096900	29.062163	0.000202	20.826091
2488.644754	-3.003500	2.704500	-8.121900	29.049752	0.000201	20.843456
2489.645931	-3.007100	2.701300	-8.121100	29.092252	0.000202	20.834596
2490.646272	-2.972400	2.698900	-8.021400	29.123730	0.000200	20.824590
2491.646674	-2.972500	2.693800	-8.006000	29.126230	0.000200	20.836117
2492.648737	-2.999900	2.688800	-8.065200	29.133984	0.000201	20.843930
2493.647120	-3.001700	2.685700	-8.060800	29.125563	0.000200	20.827859
2494.650859	-2.994500	2.682600	-8.031900	29.158997	0.000200	20.843056
2495.646974	-3.005200	2.678500	-8.048000	29.194066	0.000199	20.847101
2496.648521	-3.015900	2.673300	-8.061400	29.202212	0.000200	20.834922
2497.652961	-3.010300	2.670600	-8.037600	29.149561	0.000200	20.839713
2498.650755	-3.010600	2.666400	-8.025900	29.153101	0.000197	20.843279
2499.649734	-2.992700	2.662700	-7.965600	29.192008	0.000199	20.842182
2500.651270	-2.969300	2.659700	-7.896600	29.244358	0.000198	20.847047
2501.660508	-2.979900	2.656300	-7.913600	29.301512	0.000199	20.849645
2502.649247	-2.958300	2.653600	-7.849000	29.346477	0.000199	20.847072
2503.651196	-2.997900	2.645500	-7.930300	29.319537	0.000200	20.844104
2504.650556	-2.990100	2.642300	-7.899800	29.285471	0.000200	20.837272
2505.652047	-3.028900	2.636100	-7.983700	29.286903	0.000201	20.842508
2506.658803	-3.022300	2.633500	-7.957600	29.275930	0.000201	20.838562
2507.652635	-3.013400	2.627900	-7.918200	29.259933	0.000200	20.850890
2508.652344	-2.997600	2.624600	-7.866000	29.221180	0.000203	20.838389
2509.656535	-3.000400	2.620100	-7.858900	29.235713	0.000201	20.874369
2510.658578	-2.981700	2.614700	-7.795100	29.273181	0.000199	20.876093
2511.652956	-3.020700	2.608500	-7.878800	29.299352	0.000202	20.864536
2512.651298	-2.971700	2.604900	-7.740100	29.270358	0.000202	20.853335
2513.651659	-3.017600	2.598600	-7.839700	29.271221	0.000201	20.855153
2514.653519	-3.003200	2.595000	-7.792000	29.274416	0.000202	20.861217
2515.653023	-2.994500	2.589500	-7.752400	29.314202	0.000202	20.872864
2516.655717	-2.989600	2.583100	-7.721400	29.294913	0.000201	20.863856
2517.652225	-2.994000	2.577400	-7.715500	29.258485	0.000203	20.870766
2518.657120	-3.007900	2.572500	-7.737200	29.263120	0.000201	20.854101
2519.653135	-2.986900	2.567400	-7.667500	29.260587	0.000204	20.858187
2520.652429	-3.024500	2.560800	-7.743700	29.264552	0.000204	20.846061
2521.653592	-2.984600	2.557700	-7.631700	29.246444	0.000204	20.852468
2522.666454	-3.010100	2.549400	-7.672700	29.231956	0.000204	20.869162
2523.655104	-2.968800	2.544400	-7.552600	29.215009	0.000203	20.863464
2524.654244	-3.006200	2.538000	-7.628700	29.265627	0.000205	20.863266
2525.654753	-2.990700	2.531000	-7.567700	29.264854	0.000205	20.879081
2526.655465	-3.006100	2.526100	-7.592700	29.290903	0.000204	20.868823
2527.654943	-3.010000	2.519800	-7.583300	29.320514	0.000205	20.880173
2528.657590	-3.006800	2.512800	-7.554200	29.349163	0.000208	20.866848
2529.668555	-2.962400	2.507900	-7.427900	29.338465	0.000204	20.878351
2530.657659	-3.027300	2.500600	-7.568700	29.322608	0.000205	20.869956
2531.655578	-3.015500	2.493800	-7.518800	29.324736	0.000206	20.871152
