LabVIEW Measurement	
Writer_Version	2
Reader_Version	2
Separator	Tab
Decimal_Separator	.
Multi_Headings	No
X_Columns	One
Time_Pref	Absolute
Operator	admin
Description	Clolumns are: time, Current, Voltage, Power, Battery Temp, and Chamber Temp
Date	2024/08/16
Time	13:07:17.8513970375061035156
***End_of_Header***	
	
Channels	6						
Samples	1	1	1	1	1	1	
Date	2024/09/13	2024/09/13	2024/09/13	2024/09/13	2024/09/13	2024/09/13	
Time	09:51:22.7341175079345703125	09:51:22.7401823997497558594	09:51:22.7470669746398925781	09:51:22.7159295082092285156	09:51:22.7159295082092285156	09:51:22.7159295082092285156	
X_Dimension	Time	Time	Time	Time	Time	Time	
X0	0.0000000000000000E+0	0.0000000000000000E+0	0.0000000000000000E+0	0.0000000000000000E+0	0.0000000000000000E+0	0.0000000000000000E+0	
Delta_X	1.000000	1.000000	1.000000	1.000000	1.000000	1.000000	
***End_of_Header***							
X_Value	Untitled	Untitled 1	Untitled 2	Untitled 3	Untitled 4	Untitled 5	Comment
0.000000	0.008393	4.087300	0.034296	20.738106	0.000461	20.737158
1.001175	-3.009000	3.916400	-11.783000	20.723930	0.000461	20.732939
2.000091	-3.007400	3.911200	-11.761000	20.724583	0.000460	20.718892
3.000235	-2.990400	3.906200	-11.679000	20.729269	0.000461	20.701292
4.001500	-2.984000	3.902800	-11.645000	20.729565	0.000459	20.735255
5.001153	-2.985500	3.901400	-11.646000	20.742275	0.000459	20.729946
6.000948	-2.993700	3.898400	-11.670000	20.766353	0.000458	20.738377
7.006637	-2.990800	3.896800	-11.653000	20.752972	0.000457	20.719305
8.007416	-2.980000	3.893800	-11.602000	20.760238	0.000457	20.726098
9.003706	-2.981800	3.892400	-11.606000	20.790314	0.000457	20.712549
10.007069	-2.996500	3.890200	-11.656000	20.790535	0.000456	20.696649
11.016074	-2.984500	3.889900	-11.608000	20.788589	0.000454	20.722680
12.006026	-2.987400	3.888500	-11.616000	20.784519	0.000454	20.720032
13.003662	-2.988000	3.886200	-11.610000	20.791385	0.000454	20.726424
14.003674	-2.992200	3.884600	-11.622000	20.787413	0.000455	20.719607
15.006374	-3.001000	3.883700	-11.654000	20.812469	0.000453	20.730439
16.017200	-2.992300	3.884200	-11.621000	20.807198	0.000454	20.726590
17.006255	-3.000600	3.882600	-11.649000	20.815838	0.000452	20.720056
18.007418	-2.995900	3.881300	-11.627000	20.832907	0.000452	20.726695
19.009936	-3.003500	3.879500	-11.652000	20.841571	0.000449	20.724453
20.005016	-2.982600	3.880600	-11.573000	20.856884	0.000450	20.721276
21.005406	-2.992500	3.879200	-11.608000	20.841158	0.000451	20.734473
22.004575	-2.999700	3.878300	-11.633000	20.854113	0.000450	20.726565
23.006497	-2.993600	3.877600	-11.606000	20.872278	0.000450	20.718652
24.008693	-3.008000	3.877500	-11.663000	20.866829	0.000451	20.728850
25.006766	-3.013700	3.875900	-11.680000	20.886748	0.000448	20.710837
26.006375	-3.008300	3.876900	-11.661000	20.885892	0.000449	20.726104
27.007631	-2.991100	3.875000	-11.590000	20.916407	0.000449	20.723431
28.008966	-2.996500	3.875400	-11.612000	20.909419	0.000450	20.713122
29.008682	-2.996600	3.873600	-11.607000	20.926905	0.000449	20.742466
30.008379	-3.008600	3.873200	-11.651000	20.935963	0.000448	20.717383
31.010132	-2.993200	3.872600	-11.590000	20.934429	0.000447	20.724385
32.009302	-2.979600	3.873800	-11.541000	20.950450	0.000448	20.701526
33.007878	-2.982400	3.873900	-11.553000	20.957580	0.000447	20.722408
34.008415	-2.979500	3.871400	-11.534000	20.967456	0.000446	20.719009
35.009740	-2.993700	3.872000	-11.591000	20.964907	0.000445	20.741591
36.010732	-2.987000	3.870300	-11.560000	20.994521	0.000447	20.698662
37.010927	-2.998400	3.869600	-11.602000	20.969869	0.000445	20.730907
38.011090	-3.004100	3.870100	-11.626000	21.000105	0.000447	20.710886
39.016998	-3.005600	3.868200	-11.626000	21.005566	0.000446	20.735316
40.011407	-3.014800	3.868100	-11.661000	21.025545	0.000447	20.711200
41.009247	-3.001500	3.867200	-11.606000	21.036701	0.000446	20.713824
42.014091	-2.995700	3.867400	-11.584000	21.050011	0.000445	20.722396
43.012821	-3.001000	3.867400	-11.605000	21.063260	0.000444	20.714785
44.010392	-3.005200	3.867700	-11.622000	21.058913	0.000445	20.712808
45.012959	-2.990500	3.867200	-11.564000	21.065101	0.000445	20.726110
46.012131	-2.998600	3.867300	-11.596000	21.099225	0.000445	20.722310
47.012603	-3.006500	3.866100	-11.622000	21.094183	0.000442	20.723905
48.015519	-3.009200	3.866600	-11.635000	21.100142	0.000445	20.716115
49.010823	-3.008100	3.864700	-11.624000	21.103381	0.000444	20.733579
50.014338	-2.995400	3.866300	-11.581000	21.118623	0.000444	20.708047
51.016733	-2.994100	3.866200	-11.575000	21.120064	0.000444	20.747423
52.014769	-2.979600	3.866000	-11.517000	21.154661	0.000443	20.724182
53.013256	-2.969100	3.865800	-11.478000	21.142712	0.000446	20.735938
54.020205	-2.988600	3.865600	-11.552000	21.149342	0.000443	20.727871
55.017175	-2.990100	3.865900	-11.558000	21.163858	0.000444	20.730537
56.014149	-3.006900	3.863900	-11.618000	21.167096	0.000446	20.721448
57.020152	-3.012700	3.864700	-11.642000	21.168142	0.000445	20.750471
58.013595	-3.024500	3.864300	-11.686000	21.183033	0.000444	20.717002
59.014098	-3.000300	3.863300	-11.591000	21.183477	0.000443	20.735464
60.016801	-3.008000	3.863100	-11.620000	21.201790	0.000445	20.743353
61.015161	-2.998500	3.863500	-11.583000	21.205397	0.000443	20.744116
62.016390	-3.004200	3.863600	-11.607000	21.226800	0.000445	20.732336
63.018666	-3.002500	3.863600	-11.599000	21.217493	0.000443	20.739147
64.017345	-3.000600	3.863000	-11.590000	21.233454	0.000443	20.736148
65.023100	-2.999800	3.861600	-11.583000	21.240515	0.000444	20.728037
66.021132	-3.011000	3.861500	-11.626000	21.255903	0.000446	20.735372
67.015033	-3.010400	3.862400	-11.627000	21.263807	0.000445	20.740908
68.018193	-2.994100	3.861300	-11.561000	21.270436	0.000444	20.733789
69.019763	-2.991300	3.861300	-11.549000	21.314662	0.000443	20.746740
70.016276	-2.978400	3.861400	-11.500000	21.288120	0.000443	20.737731
71.016716	-2.986200	3.862800	-11.534000	21.312470	0.000445	20.742177
72.024567	-2.980000	3.862000	-11.508000	21.301760	0.000445	20.726246
73.017182	-3.005500	3.860100	-11.600000	21.327803	0.000444	20.735705
74.017821	-3.021100	3.861400	-11.666000	21.317708	0.000444	20.744572
75.017035	-3.022000	3.860100	-11.664000	21.347954	0.000445	20.731209
76.017303	-2.991100	3.860400	-11.547000	21.359101	0.000444	20.756113
77.019847	-2.983100	3.860800	-11.515000	21.351493	0.000443	20.751346
78.023154	-2.993000	3.859500	-11.550000	21.360719	0.000445	20.745404
79.020087	-3.003700	3.858500	-11.589000	21.377282	0.000444	20.752018
80.019000	-3.015800	3.860500	-11.641000	21.395235	0.000447	20.733944
81.023397	-3.004000	3.860600	-11.597000	21.381769	0.000443	20.734695
82.020023	-2.998900	3.860000	-11.575000	21.399094	0.000444	20.751082
83.019691	-3.013700	3.858500	-11.627000	21.428852	0.000444	20.730594
84.023574	-2.999000	3.858100	-11.569000	21.445715	0.000445	20.754105
85.027223	-2.985800	3.858900	-11.520000	21.443862	0.000445	20.746562
86.023775	-2.999200	3.857700	-11.570000	21.438532	0.000446	20.736013
87.021260	-3.008600	3.858300	-11.607000	21.462251	0.000444	20.737460
88.025794	-2.989500	3.857600	-11.531000	21.453118	0.000442	20.751082
89.024122	-3.015600	3.857200	-11.631000	21.485539	0.000446	20.738002
90.022740	-3.003100	3.858600	-11.587000	21.478856	0.000445	20.752178
91.026579	-3.005400	3.858000	-11.594000	21.490758	0.000445	20.752707
92.024606	-3.007000	3.856100	-11.595000	21.495540	0.000444	20.748957
93.026154	-3.022100	3.857000	-11.655000	21.493244	0.000447	20.746186
94.028612	-3.021300	3.856200	-11.649000	21.507762	0.000446	20.761187
95.026073	-3.019300	3.856100	-11.641000	21.540408	0.000445	20.771570
96.023123	-3.019200	3.855800	-11.639000	21.532451	0.000447	20.752227
97.030169	-3.006200	3.856700	-11.592000	21.552052	0.000447	20.756193
98.024845	-3.003600	3.856500	-11.583000	21.538655	0.000447	20.767918
99.029673	-3.031600	3.856300	-11.690000	21.554870	0.000447	20.773713
100.025292	-3.013400	3.854600	-11.615000	21.576193	0.000447	20.748582
101.027102	-3.018200	3.854400	-11.632000	21.608782	0.000446	20.760806
102.026671	-3.008500	3.854700	-11.595000	21.581048	0.000446	20.743009
103.028787	-2.999700	3.856100	-11.566000	21.605822	0.000447	20.756895
104.028773	-2.997000	3.856500	-11.556000	21.600580	0.000445	20.769193
105.025215	-2.993600	3.855000	-11.539000	21.612001	0.000446	20.755965
106.030438	-3.000300	3.854800	-11.565000	21.636534	0.000447	20.776250
107.026254	-2.998400	3.854500	-11.556000	21.632645	0.000449	20.756710
108.028308	-3.007500	3.854400	-11.590000	21.629630	0.000446	20.778824
109.026512	-3.010000	3.854400	-11.600000	21.637310	0.000448	20.769913
110.026326	-2.994700	3.853900	-11.539000	21.670433	0.000448	20.754222
111.031292	-3.015800	3.854200	-11.623000	21.662458	0.000448	20.758570
112.025982	-3.010300	3.855000	-11.603000	21.671977	0.000447	20.764777
113.029301	-3.012500	3.853300	-11.607000	21.684351	0.000449	20.761514
114.029577	-2.996600	3.853200	-11.545000	21.679742	0.000449	20.784877
115.030731	-3.004900	3.854100	-11.580000	21.698066	0.000448	20.756747
116.026131	-2.996900	3.853400	-11.547000	21.699863	0.000450	20.770874
117.030035	-2.968700	3.853600	-11.439000	21.717171	0.000449	20.775394
118.030570	-3.015100	3.852800	-11.615000	21.739143	0.000450	20.768934
119.029278	-3.008300	3.852400	-11.587000	21.732461	0.000450	20.766040
120.026599	-3.001100	3.853500	-11.564000	21.747172	0.000450	20.785979
121.030804	-3.004400	3.852300	-11.573000	21.735279	0.000450	20.764118
122.028725	-3.005300	3.851100	-11.572000	21.753061	0.000450	20.771009
123.029296	-2.999600	3.852000	-11.554000	21.769642	0.000451	20.755361
124.031410	-2.999000	3.852100	-11.552000	21.786599	0.000451	20.764746
125.029798	-3.010700	3.852500	-11.598000	21.793705	0.000451	20.760479
126.040752	-3.016200	3.851300	-11.615000	21.781467	0.000451	20.769568
127.031157	-3.000100	3.851200	-11.553000	21.801506	0.000453	20.786305
128.031279	-2.993500	3.851600	-11.529000	21.797642	0.000452	20.764420
129.031031	-3.019100	3.850800	-11.624000	21.803672	0.000454	20.787999
130.032319	-3.029000	3.850500	-11.662000	21.831604	0.000452	20.760953
131.035727	-2.989400	3.851600	-11.513000	21.821600	0.000453	20.771329
132.031823	-2.994400	3.850700	-11.529000	21.828035	0.000451	20.750269
133.034150	-2.988900	3.850600	-11.508000	21.828380	0.000454	20.756778
134.034223	-2.994700	3.850900	-11.531000	21.850467	0.000454	20.772247
135.032825	-3.008800	3.850500	-11.584000	21.848350	0.000454	20.777715
136.032905	-3.007200	3.850300	-11.577000	21.848024	0.000454	20.779760
137.032884	-2.992900	3.850300	-11.523000	21.885645	0.000455	20.772370
138.031423	-3.022100	3.848400	-11.628000	21.919529	0.000456	20.763139
139.033550	-2.962700	3.851700	-11.411000	21.931138	0.000457	20.800364
140.033243	-2.994200	3.849300	-11.525000	21.946868	0.000455	20.778651
141.036497	-3.002600	3.848300	-11.554000	21.939892	0.000456	20.790160
142.040366	-3.023600	3.848900	-11.637000	21.929692	0.000458	20.791805
143.037504	-2.989000	3.848400	-11.502000	21.952897	0.000456	20.801282
144.043691	-3.003900	3.849400	-11.562000	21.957627	0.000457	20.787999
145.044721	-3.009700	3.848900	-11.583000	21.947034	0.000459	20.795413
146.040097	-3.006300	3.847800	-11.567000	21.969746	0.000458	20.793966
147.037717	-3.005700	3.848200	-11.565000	21.989210	0.000459	20.787371
148.041926	-3.003900	3.848200	-11.559000	21.992697	0.000457	20.814570
149.042829	-2.998700	3.847500	-11.536000	21.983821	0.000459	20.800943
150.039866	-2.991900	3.848900	-11.514000	22.008451	0.000458	20.782925
151.046124	-2.998400	3.847200	-11.535000	21.986380	0.000459	20.792125
152.041371	-2.993400	3.847100	-11.515000	22.008242	0.000457	20.783190
153.043023	-3.031500	3.846700	-11.660000	22.018534	0.000460	20.790647
154.041946	-2.995800	3.847800	-11.527000	22.003303	0.000458	20.815229
155.041289	-3.009600	3.847400	-11.577000	22.026432	0.000457	20.792864
156.040945	-3.001800	3.846400	-11.544000	22.039712	0.000459	20.773443
157.048551	-2.987600	3.847100	-11.492000	22.071421	0.000461	20.768676
158.041287	-2.980600	3.845900	-11.462000	22.061426	0.000461	20.782378
159.042876	-2.996600	3.845100	-11.521000	22.074331	0.000459	20.798142
160.043853	-2.996200	3.845200	-11.520000	22.071034	0.000459	20.786307
161.044046	-2.996300	3.846500	-11.525000	22.076214	0.000461	20.788173
162.042457	-3.014700	3.845200	-11.591000	22.093362	0.000460	20.803444
163.041583	-2.985900	3.844700	-11.479000	22.101457	0.000461	20.811548
164.042783	-3.007800	3.844700	-11.563000	22.109330	0.000464	20.799516
165.042193	-3.012900	3.843800	-11.580000	22.136996	0.000462	20.803506
166.048405	-3.024800	3.843500	-11.625000	22.132525	0.000463	20.812306
167.046001	-2.996200	3.846000	-11.522000	22.151297	0.000463	20.794590
168.047235	-3.022000	3.843600	-11.614000	22.154704	0.000464	20.801320
169.050336	-2.988100	3.844500	-11.487000	22.160135	0.000464	20.811025
170.046124	-2.991800	3.843800	-11.498000	22.157245	0.000464	20.787268
171.049219	-3.020100	3.843500	-11.608000	22.185709	0.000463	20.806758
172.046591	-3.014700	3.844100	-11.588000	22.186749	0.000465	20.803057
173.045866	-3.014500	3.842700	-11.583000	22.184350	0.000465	20.817725
174.044526	-3.000100	3.844500	-11.534000	22.209204	0.000466	20.813686
175.046924	-3.005300	3.842800	-11.548000	22.202641	0.000464	20.828452
176.048188	-2.998200	3.843100	-11.521000	22.206276	0.000464	20.804117
177.046364	-2.996900	3.842600	-11.515000	22.247175	0.000465	20.807608
178.048501	-2.997900	3.843400	-11.521000	22.245447	0.000467	20.803033
179.046993	-3.006100	3.840900	-11.544000	22.248984	0.000467	20.813686
180.050613	-2.989800	3.842900	-11.489000	22.233854	0.000466	20.801383
181.051432	-3.035200	3.840700	-11.657000	22.269715	0.000469	20.813108
182.048914	-3.005900	3.841800	-11.547000	22.259267	0.000467	20.819241
183.046210	-3.009700	3.842500	-11.564000	22.265319	0.000466	20.803490
184.052066	-3.009300	3.841500	-11.559000	22.252360	0.000468	20.849309
185.045362	-3.009800	3.841800	-11.561000	22.263000	0.000469	20.820134
186.052757	-2.986600	3.840500	-11.469000	22.269704	0.000470	20.816415
187.049870	-3.018800	3.839500	-11.590000	22.279095	0.000469	20.821076
188.049726	-3.003000	3.841400	-11.535000	22.276168	0.000471	20.820991
189.054762	-3.004200	3.839300	-11.532000	22.275473	0.000470	20.844476
190.056045	-3.019900	3.840200	-11.596000	22.316837	0.000471	20.848910
191.051172	-2.998400	3.839200	-11.511000	22.314494	0.000469	20.831391
192.050004	-3.016000	3.840700	-11.583000	22.313694	0.000472	20.846237
193.055572	-2.985000	3.840200	-11.462000	22.344092	0.000469	20.830209
194.052017	-3.018000	3.839100	-11.586000	22.351115	0.000471	20.831552
195.056236	-3.004400	3.840500	-11.537000	22.338090	0.000470	20.835104
196.057142	-2.981500	3.839100	-11.445000	22.351238	0.000473	20.842106
197.055801	-2.981400	3.839800	-11.447000	22.341768	0.000471	20.830727
198.059910	-3.009300	3.838600	-11.550000	22.364988	0.000473	20.833116
199.064155	-2.993100	3.838400	-11.487000	22.361822	0.000472	20.835161
200.057443	-3.014400	3.837800	-11.568000	22.368979	0.000474	20.824311
201.057662	-2.997200	3.839500	-11.507000	22.389807	0.000478	20.829046
202.059832	-2.993200	3.838700	-11.489000	22.379790	0.000472	20.819015
203.055326	-3.014200	3.838300	-11.567000	22.418291	0.000473	20.846189
204.059274	-2.988700	3.838100	-11.470000	22.440741	0.000474	20.837378
205.058821	-3.002400	3.836200	-11.516000	22.455290	0.000473	20.840567
206.053331	-3.011400	3.837300	-11.555000	22.456759	0.000474	20.842513
207.059843	-2.997100	3.837600	-11.501000	22.480783	0.000473	20.846183
208.060899	-3.003800	3.835700	-11.520000	22.465903	0.000474	20.824644
209.058369	-2.982300	3.836200	-11.440000	22.481699	0.000474	20.841885
210.058037	-2.992700	3.835800	-11.478000	22.466973	0.000477	20.831405
211.058261	-3.002000	3.836100	-11.515000	22.489865	0.000475	20.843899
212.057905	-2.999900	3.835600	-11.506000	22.495018	0.000476	20.844792
213.060035	-2.986000	3.835600	-11.452000	22.459859	0.000475	20.863160
214.059210	-3.015500	3.835100	-11.564000	22.495995	0.000477	20.839133
215.061770	-2.988700	3.836200	-11.464000	22.481036	0.000477	20.847859
216.071451	-3.003100	3.835700	-11.517000	22.484276	0.000479	20.860586
217.062402	-3.007600	3.833900	-11.530000	22.531744	0.000480	20.853598
218.059906	-2.994900	3.834600	-11.483000	22.520836	0.000480	20.848364
219.061982	-3.027200	3.834400	-11.606000	22.533643	0.000476	20.846966
220.062097	-3.002100	3.834600	-11.511000	22.523652	0.000478	20.843123
221.060786	-2.996900	3.834800	-11.492000	22.559553	0.000479	20.833561
222.063879	-3.007800	3.833600	-11.530000	22.543457	0.000480	20.840673
223.063615	-2.999200	3.833500	-11.497000	22.573061	0.000480	20.839503
224.064319	-2.996900	3.833300	-11.487000	22.590731	0.000481	20.847717
225.063962	-3.004200	3.833700	-11.516000	22.590626	0.000481	20.842397
226.070959	-3.002600	3.833400	-11.509000	22.605050	0.000482	20.877704
227.070004	-3.014600	3.832500	-11.552000	22.606698	0.000479	20.847114
228.070234	-3.003700	3.833300	-11.513000	22.593098	0.000481	20.847717
229.067433	-2.996400	3.832900	-11.483000	22.589661	0.000482	20.865136
230.068180	-2.992900	3.834300	-11.474000	22.606876	0.000482	20.868628
231.065838	-2.994100	3.833500	-11.476000	22.626015	0.000482	20.849866
232.066881	-2.994900	3.831800	-11.475000	22.635931	0.000481	20.868332
233.064949	-2.991500	3.832300	-11.463000	22.663757	0.000482	20.876288
234.065595	-2.999100	3.831900	-11.491000	22.660166	0.000483	20.864158
235.065417	-2.992100	3.831900	-11.465000	22.648608	0.000482	20.872969
236.065930	-2.986800	3.830000	-11.438000	22.677460	0.000484	20.839755
237.066207	-2.990700	3.831800	-11.459000	22.664457	0.000485	20.862766
238.068762	-3.008600	3.831400	-11.526000	22.667894	0.000486	20.860044
239.064878	-3.009500	3.830400	-11.526000	22.704190	0.000485	20.869373
240.064238	-2.951300	3.832400	-11.310000	22.686153	0.000485	20.845143
241.070115	-2.992100	3.831200	-11.463000	22.692608	0.000486	20.843074
242.064313	-3.002900	3.830800	-11.502000	22.730126	0.000489	20.846042
243.071270	-2.998200	3.830200	-11.483000	22.714721	0.000486	20.841991
244.070794	-3.006900	3.830200	-11.515000	22.735450	0.000488	20.853746
245.069986	-3.000800	3.829800	-11.492000	22.729365	0.000485	20.863296
246.066831	-3.001900	3.828100	-11.491000	22.736637	0.000490	20.864891
247.068098	-3.018500	3.828500	-11.555000	22.760477	0.000490	20.835193
248.066527	-2.973400	3.829900	-11.387000	22.769790	0.000489	20.854005
249.066911	-2.980900	3.828500	-11.410000	22.792510	0.000492	20.848315
250.073695	-3.005100	3.828900	-11.504000	22.794551	0.000490	20.857946
251.069539	-2.997800	3.827300	-11.473000	22.775261	0.000492	20.852374
252.069998	-3.013100	3.827300	-11.531000	22.767633	0.000491	20.839991
253.070984	-3.002800	3.828300	-11.495000	22.782804	0.000491	20.859929
254.071504	-3.013600	3.827500	-11.534000	22.802714	0.000492	20.847632
255.069253	-3.017500	3.826700	-11.546000	22.825077	0.000493	20.864818
256.071926	-2.993600	3.827500	-11.457000	22.827862	0.000490	20.851013
257.072609	-2.948700	3.827700	-11.286000	22.835785	0.000492	20.831451
258.071370	-2.991900	3.827900	-11.450000	22.864780	0.000494	20.845324
259.073420	-2.987400	3.827100	-11.431000	22.840384	0.000492	20.846488
260.077530	-3.003500	3.825800	-11.491000	22.833733	0.000493	20.843619
261.079007	-2.992000	3.827100	-11.449000	22.852038	0.000492	20.842991
262.075119	-3.011500	3.825500	-11.520000	22.857792	0.000495	20.834530
263.079338	-3.002000	3.825300	-11.482000	22.860202	0.000496	20.834574
264.073674	-3.013500	3.825500	-11.527000	22.863159	0.000495	20.857924
265.078671	-2.993500	3.825300	-11.449000	22.857627	0.000497	20.839106
266.078666	-3.002100	3.825800	-11.485000	22.891359	0.000494	20.831175
267.078041	-2.993100	3.825000	-11.447000	22.879669	0.000494	20.828472
268.074938	-2.996300	3.824300	-11.458000	22.925030	0.000496	20.846415
269.080931	-3.000000	3.825500	-11.475000	22.913370	0.000495	20.828571
270.077217	-2.982400	3.825400	-11.408000	22.922964	0.000493	20.834864
271.076357	-2.993100	3.825100	-11.448000	22.908613	0.000496	20.837081
272.078990	-2.997700	3.822200	-11.457000	22.938294	0.000496	20.822722
273.073589	-2.993000	3.823700	-11.444000	22.972897	0.000496	20.831785
274.077225	-3.010300	3.824300	-11.511000	22.958177	0.000496	20.819883
275.079520	-2.995800	3.823000	-11.453000	22.932363	0.000498	20.831004
276.074989	-2.985200	3.824500	-11.416000	22.952043	0.000497	20.827962
277.075328	-2.994400	3.822600	-11.445000	22.961005	0.000499	20.817500
278.082767	-3.028600	3.821500	-11.572000	22.969769	0.000497	20.826281
279.079235	-2.988500	3.822000	-11.421000	22.992283	0.000499	20.827026
280.080218	-3.003300	3.821400	-11.476000	22.978012	0.000498	20.830272
281.081834	-3.020100	3.822300	-11.543000	22.994397	0.000498	20.825352
282.079130	-2.997700	3.823100	-11.459000	22.972431	0.000497	20.830370
283.078205	-3.018900	3.821200	-11.535000	22.967140	0.000499	20.806103
284.082827	-2.993200	3.821400	-11.436000	22.970538	0.000498	20.833689
285.079192	-3.004400	3.821700	-11.481000	23.006873	0.000501	20.820783
286.080445	-3.004600	3.819900	-11.477000	22.986199	0.000498	20.834681
287.083247	-3.012100	3.819900	-11.505000	22.985996	0.000500	20.821676
288.082527	-2.987100	3.821100	-11.414000	23.003260	0.000500	20.831861
289.083076	-3.006500	3.819500	-11.482000	23.005804	0.000499	20.810703
290.085236	-2.996700	3.819900	-11.447000	23.012724	0.000499	20.831861
291.082490	-3.015500	3.818900	-11.515000	23.021918	0.000502	20.787494
292.082846	-3.006600	3.820300	-11.486000	23.035341	0.000498	20.827495
293.089992	-3.000400	3.819500	-11.459000	23.069013	0.000502	20.797698
294.084367	-3.019500	3.817900	-11.528000	23.063808	0.000503	20.807655
295.081990	-2.990900	3.818800	-11.421000	23.084635	0.000500	20.802445
296.087334	-3.002200	3.818700	-11.463000	23.080745	0.000504	20.814194
297.080449	-2.982100	3.818100	-11.385000	23.090436	0.000503	20.787395
298.089740	-3.012400	3.816900	-11.497000	23.107416	0.000505	20.813893
299.085001	-3.022300	3.816800	-11.535000	23.106150	0.000504	20.798873
300.082638	-3.004000	3.817500	-11.467000	23.153266	0.000503	20.794403
301.091550	-3.007700	3.816100	-11.477000	23.150205	0.000506	20.796552
302.090021	-2.977100	3.818100	-11.366000	23.139519	0.000505	20.811448
303.088125	-3.024800	3.816900	-11.545000	23.169999	0.000506	20.805955
304.084919	-3.025100	3.816000	-11.543000	23.163429	0.000506	20.800321
305.086730	-3.002000	3.817000	-11.457000	23.155847	0.000508	20.830180
306.086156	-2.996000	3.816500	-11.433000	23.139390	0.000506	20.761058
307.093947	-3.004600	3.816100	-11.465000	23.144565	0.000506	20.800383
308.089271	-2.994200	3.815100	-11.422000	23.139311	0.000507	20.803179
309.089645	-3.000600	3.815700	-11.449000	23.135169	0.000509	20.782907
310.088596	-2.988700	3.815300	-11.402000	23.159947	0.000507	20.793511
311.090173	-3.005700	3.814200	-11.463000	23.185369	0.000508	20.796227
312.086690	-2.997700	3.814500	-11.434000	23.204043	0.000510	20.800242
313.089004	-2.981300	3.815300	-11.374000	23.198114	0.000509	20.790981
314.090825	-2.978400	3.814500	-11.360000	23.212702	0.000508	20.798014
315.090517	-2.997600	3.813400	-11.430000	23.179556	0.000509	20.799411
316.088575	-2.999100	3.813000	-11.435000	23.168686	0.000510	20.810804
317.094824	-3.003100	3.813200	-11.450000	23.170905	0.000511	20.801647
318.087591	-2.977700	3.814400	-11.357000	23.162708	0.000511	20.792959
319.088929	-2.989300	3.814000	-11.400000	23.194582	0.000509	20.797873
320.098390	-3.014800	3.812100	-11.491000	23.199786	0.000509	20.764682
321.090642	-2.988200	3.812200	-11.390000	23.240373	0.000512	20.777380
322.091493	-2.989900	3.812200	-11.397000	23.223137	0.000512	20.798040
323.100603	-3.014100	3.812200	-11.489000	23.239525	0.000513	20.768944
324.091838	-3.010200	3.811800	-11.474000	23.219130	0.000512	20.778852
325.094397	-3.003300	3.812500	-11.449000	23.253141	0.000512	20.800608
326.100391	-3.023600	3.810400	-11.520000	23.282174	0.000511	20.783237
327.094001	-3.008100	3.811500	-11.464000	23.286279	0.000513	20.794463
328.098382	-3.011700	3.810200	-11.474000	23.293947	0.000512	20.789346
329.100882	-2.982900	3.811200	-11.368000	23.307894	0.000514	20.798108
330.097738	-2.989400	3.810500	-11.390000	23.342351	0.000515	20.790916
331.094737	-3.001700	3.810200	-11.435000	23.336772	0.000514	20.782954
332.100015	-2.999000	3.809700	-11.424000	23.336097	0.000515	20.780380
333.095021	-2.978400	3.810700	-11.348000	23.342868	0.000514	20.775312
334.101079	-2.976400	3.811000	-11.343000	23.343937	0.000515	20.801040
335.106022	-2.992200	3.811000	-11.401000	23.293561	0.000515	20.783743
336.097848	-2.991300	3.808900	-11.393000	23.275933	0.000515	20.779352
337.101160	-3.001600	3.809900	-11.435000	23.280412	0.000515	20.785264
338.104870	-3.003600	3.809800	-11.443000	23.301524	0.000517	20.773706
339.098465	-2.996300	3.808500	-11.410000	23.300143	0.000516	20.769476
340.102102	-3.009400	3.806900	-11.456000	23.300302	0.000517	20.790024
341.099360	-2.985700	3.809200	-11.372000	23.329875	0.000515	20.767980
342.094256	-3.008800	3.809000	-11.460000	23.341972	0.000514	20.793856
343.097915	-2.998500	3.809500	-11.422000	23.342341	0.000516	20.783794
344.097098	-2.980600	3.808700	-11.352000	23.373368	0.000514	20.790709
345.095881	-3.006700	3.806300	-11.444000	23.402890	0.000515	20.767193
346.099623	-2.989900	3.806900	-11.381000	23.387254	0.000517	20.775229
347.097535	-2.983200	3.806200	-11.353000	23.383568	0.000516	20.772008
348.100615	-3.001800	3.806500	-11.425000	23.393097	0.000517	20.771602
349.105248	-2.993000	3.806800	-11.393000	23.421530	0.000517	20.771177
350.100421	-2.982200	3.806200	-11.349000	23.414533	0.000516	20.776018
351.100136	-2.978000	3.806700	-11.336000	23.422895	0.000516	20.795779
352.096639	-2.992200	3.805000	-11.385000	23.443616	0.000517	20.779090
353.101785	-2.994900	3.805400	-11.395000	23.447690	0.000517	20.766104
354.098019	-3.003200	3.803800	-11.423000	23.465365	0.000516	20.786665
355.114687	-2.994000	3.804700	-11.390000	23.467306	0.000518	20.754946
356.098008	-2.997100	3.804000	-11.400000	23.453834	0.000519	20.785065
357.098560	-2.984600	3.804000	-11.352000	23.457342	0.000516	20.780046
358.096612	-3.005500	3.803900	-11.432000	23.462232	0.000519	20.776886
359.101521	-2.969300	3.805500	-11.298000	23.468302	0.000517	20.779652
360.099135	-3.002800	3.802800	-11.418000	23.482818	0.000518	20.755321
361.097993	-2.999600	3.802300	-11.404000	23.463024	0.000517	20.764404
362.102413	-2.995300	3.803400	-11.392000	23.470022	0.000519	20.770470
363.100100	-2.978600	3.802600	-11.325000	23.469745	0.000519	20.777305
364.104120	-2.985400	3.803700	-11.355000	23.486381	0.000520	20.783549
365.102643	-2.993600	3.802000	-11.381000	23.472915	0.000519	20.774792
366.102483	-2.984300	3.801400	-11.344000	23.478413	0.000519	20.761337
367.103684	-2.995800	3.802000	-11.389000	23.488500	0.000520	20.758646
368.106680	-2.997900	3.802200	-11.397000	23.502212	0.000520	20.760537
369.115937	-3.015000	3.801400	-11.460000	23.536128	0.000520	20.754705
370.106205	-3.008800	3.801000	-11.435000	23.543789	0.000522	20.760962
371.110252	-3.011200	3.801100	-11.445000	23.497586	0.000521	20.749735
372.106042	-3.002200	3.800100	-11.408000	23.509978	0.000522	20.766424
373.109895	-2.994900	3.800000	-11.380000	23.525464	0.000523	20.771043
374.110449	-2.989900	3.800800	-11.363000	23.497138	0.000522	20.741225
375.114326	-2.986900	3.799400	-11.347000	23.515531	0.000522	20.750653
376.109465	-2.993500	3.799000	-11.371000	23.510850	0.000523	20.788636
377.110955	-3.000600	3.798900	-11.397000	23.511943	0.000523	20.749428
378.111929	-2.988600	3.799200	-11.353000	23.510475	0.000525	20.760759
379.109018	-2.979800	3.797800	-11.316000	23.497919	0.000524	20.770459
380.114387	-2.985000	3.799000	-11.339000	23.561850	0.000522	20.761997
381.107218	-3.010000	3.797900	-11.431000	23.557869	0.000524	20.747101
382.109865	-3.003300	3.797300	-11.403000	23.601728	0.000523	20.755033
383.112030	-3.000500	3.798000	-11.395000	23.575831	0.000523	20.747564
384.111476	-2.997200	3.797400	-11.380000	23.550867	0.000524	20.746246
385.114429	-2.986100	3.798000	-11.340000	23.581409	0.000527	20.756474
386.111751	-2.996000	3.797300	-11.376000	23.579137	0.000523	20.775534
387.114202	-3.012600	3.795900	-11.435000	23.579334	0.000523	20.754868
388.111826	-2.986500	3.796300	-11.337000	23.567651	0.000525	20.747898
389.112051	-2.997800	3.796300	-11.379000	23.558841	0.000523	20.752818
390.114553	-2.999600	3.795400	-11.384000	23.573627	0.000526	20.751044
391.111484	-3.000200	3.795700	-11.386000	23.622014	0.000525	20.759247
392.113605	-3.020300	3.794000	-11.457000	23.633039	0.000526	20.759869
393.114742	-3.007600	3.794400	-11.411000	23.629330	0.000526	20.762314
394.113976	-2.983000	3.795800	-11.322000	23.649809	0.000527	20.767672
395.120189	-3.015200	3.793800	-11.438000	23.616406	0.000525	20.738926
396.114275	-3.020200	3.794200	-11.458000	23.611971	0.000523	20.758663
397.113282	-2.998800	3.795700	-11.382000	23.636019	0.000526	20.745312
398.113966	-3.008100	3.794800	-11.414000	23.654312	0.000523	20.752746
399.114307	-2.988200	3.795200	-11.340000	23.666204	0.000527	20.746650
400.115824	-2.992200	3.794300	-11.352000	23.663918	0.000527	20.747203
401.122459	-3.005700	3.793400	-11.401000	23.682136	0.000527	20.751718
402.117840	-3.003100	3.792000	-11.386000	23.688905	0.000527	20.744279
403.119062	-3.011000	3.792300	-11.418000	23.691644	0.000526	20.750819
404.125041	-2.991200	3.792700	-11.343000	23.690491	0.000526	20.751558
405.121959	-3.008200	3.791800	-11.405000	23.725985	0.000528	20.766756
406.121962	-2.994800	3.791900	-11.355000	23.708039	0.000527	20.749237
407.120951	-3.000300	3.791200	-11.374000	23.757745	0.000527	20.733164
408.120671	-3.006100	3.790900	-11.395000	23.747606	0.000527	20.737223
409.121127	-2.996300	3.790700	-11.357000	23.767277	0.000528	20.746989
410.121645	-3.018500	3.790400	-11.440000	23.767345	0.000526	20.731884
411.124563	-3.001000	3.791100	-11.376000	23.749325	0.000528	20.739896
412.122129	-2.994500	3.790500	-11.350000	23.773162	0.000527	20.755261
413.120696	-3.012300	3.789900	-11.415000	23.792882	0.000529	20.741367
414.123356	-2.981300	3.790500	-11.300000	23.751463	0.000528	20.746307
415.119814	-2.991700	3.789100	-11.335000	23.762168	0.000528	20.738547
416.122042	-2.977900	3.789200	-11.282000	23.778965	0.000528	20.728362
417.121745	-3.007100	3.788600	-11.392000	23.789246	0.000527	20.729187
418.121718	-3.020800	3.786700	-11.437000	23.791089	0.000528	20.728663
419.123343	-3.004700	3.788400	-11.382000	23.785020	0.000529	20.742020
420.122523	-3.004500	3.789100	-11.383000	23.782749	0.000528	20.726465
421.125366	-2.975000	3.787200	-11.265000	23.751291	0.000528	20.734754
422.125465	-2.998000	3.787900	-11.355000	23.747734	0.000528	20.743042
423.121996	-2.992200	3.788400	-11.334000	23.781114	0.000530	20.750432
424.121939	-3.007800	3.786900	-11.389000	23.815715	0.000527	20.739605
425.123515	-2.998600	3.788300	-11.358000	23.816010	0.000531	20.750807
426.122577	-2.993800	3.787600	-11.338000	23.826537	0.000529	20.725325
427.125501	-3.019600	3.787100	-11.435000	23.842590	0.000530	20.721981
428.125679	-3.031300	3.786400	-11.476000	23.842872	0.000529	20.727480
429.122724	-3.003000	3.785300	-11.366000	23.831443	0.000529	20.717916
430.123875	-2.995400	3.786900	-11.343000	23.844561	0.000528	20.712103
431.128368	-2.978100	3.785800	-11.273000	23.798248	0.000531	20.724462
432.127031	-3.007600	3.784100	-11.380000	23.774825	0.000528	20.737013
433.126055	-2.992500	3.784900	-11.325000	23.792076	0.000532	20.727282
434.127767	-3.005800	3.785500	-11.377000	23.797511	0.000531	20.732257
435.127678	-2.993700	3.785500	-11.332000	23.809880	0.000533	20.712890
436.127442	-2.986600	3.784600	-11.302000	23.816224	0.000532	20.738219
437.124823	-3.002900	3.784700	-11.364000	23.813135	0.000531	20.734647
438.128973	-3.005800	3.783700	-11.372000	23.802565	0.000532	20.730687
439.139773	-2.974000	3.784800	-11.255000	23.824588	0.000533	20.719104
440.125294	-2.992700	3.782600	-11.319000	23.833770	0.000533	20.732578
441.129918	-3.019700	3.783700	-11.424000	23.814584	0.000532	20.714288
442.126996	-2.990400	3.783300	-11.313000	23.823894	0.000533	20.734530
443.128558	-3.005900	3.783500	-11.371000	23.843627	0.000530	20.729659
444.133467	-2.995400	3.782000	-11.327000	23.880166	0.000532	20.754445
445.126079	-2.988300	3.782100	-11.301000	23.916152	0.000530	20.718931
446.132603	-3.001800	3.783000	-11.354000	23.920556	0.000532	20.730459
447.146444	-2.995800	3.782200	-11.330000	23.943804	0.000533	20.720107
448.130490	-3.004600	3.781000	-11.359000	23.934839	0.000531	20.707323
449.128046	-2.971900	3.782400	-11.239000	23.912320	0.000533	20.719356
450.128131	-3.009300	3.780800	-11.376000	23.913088	0.000532	20.717281
451.125779	-3.004800	3.781100	-11.360000	23.927402	0.000532	20.736377
452.126713	-2.987000	3.781000	-11.293000	23.922630	0.000533	20.733963
453.127601	-2.996200	3.779200	-11.322000	23.937559	0.000533	20.709576
454.130046	-2.987200	3.781300	-11.294000	23.962594	0.000536	20.717613
455.139734	-2.983100	3.779100	-11.273000	23.930343	0.000534	20.725575
456.130078	-2.992300	3.778600	-11.306000	23.936067	0.000532	20.727047
457.131500	-2.998500	3.780300	-11.334000	23.958418	0.000533	20.716270
458.129694	-2.998700	3.779300	-11.332000	23.978001	0.000533	20.706983
459.134348	-2.995300	3.778500	-11.317000	24.014530	0.000533	20.701891
460.137799	-2.988600	3.779600	-11.294000	23.999308	0.000534	20.723136
461.137456	-2.995400	3.777100	-11.313000	24.006406	0.000533	20.721719
462.132849	-3.004800	3.777000	-11.349000	24.024582	0.000535	20.703436
463.137249	-3.004500	3.777800	-11.349000	24.026632	0.000533	20.718770
464.137473	-2.997500	3.776600	-11.318000	24.026055	0.000534	20.717243
465.141737	-2.987600	3.777300	-11.283000	24.015260	0.000533	20.711158
466.136235	-3.013800	3.774900	-11.376000	24.045470	0.000534	20.721067
467.133792	-3.012100	3.775500	-11.371000	24.059881	0.000534	20.727933
468.135822	-3.002000	3.776000	-11.334000	24.037611	0.000533	20.724090
469.138255	-2.959600	3.775800	-11.174000	24.022033	0.000535	20.709889
470.136657	-2.989600	3.775500	-11.287000	24.020786	0.000535	20.715278
471.141159	-3.003900	3.774400	-11.337000	24.025864	0.000534	20.709938
472.135967	-3.005600	3.773900	-11.342000	24.033951	0.000534	20.725636
473.138277	-3.007000	3.774300	-11.349000	24.035897	0.000534	20.721897
474.136876	-3.005400	3.775000	-11.345000	24.037985	0.000532	20.722095
475.141655	-2.999100	3.775100	-11.320000	24.005810	0.000535	20.704999
476.139099	-2.986500	3.774100	-11.271000	24.025545	0.000535	20.720998
477.141976	-2.988100	3.772800	-11.273000	24.035301	0.000536	20.733629
478.140740	-3.009900	3.772700	-11.355000	24.039587	0.000534	20.717063
479.144129	-2.993100	3.773300	-11.293000	24.025329	0.000534	20.722679
480.143947	-3.027800	3.771800	-11.419000	24.013662	0.000534	20.715246
481.143636	-3.006700	3.773600	-11.345000	24.059075	0.000534	20.700096
482.145351	-2.993700	3.773100	-11.295000	24.076648	0.000535	20.718195
483.142628	-3.004500	3.772100	-11.333000	24.054451	0.000537	20.716797
484.145260	-2.995700	3.770800	-11.295000	24.058540	0.000534	20.713785
485.143660	-2.982500	3.772700	-11.251000	24.067542	0.000535	20.717597
486.146377	-2.963900	3.772800	-11.181000	24.090063	0.000535	20.723115
487.147952	-2.990800	3.771200	-11.277000	24.105148	0.000535	20.727813
488.144380	-2.990000	3.770600	-11.274000	24.105799	0.000536	20.716137
489.148877	-3.002100	3.770400	-11.318000	24.065465	0.000536	20.721679
490.146782	-2.989300	3.769800	-11.269000	24.103011	0.000537	20.703383
491.150465	-2.983000	3.770500	-11.247000	24.104484	0.000533	20.710551
492.144195	-2.996200	3.770200	-11.296000	24.110428	0.000535	20.711771
493.145676	-3.014000	3.769100	-11.358000	24.111404	0.000535	20.713224
494.144950	-2.993200	3.769500	-11.282000	24.093720	0.000537	20.687900
495.149130	-3.011500	3.768900	-11.349000	24.095218	0.000535	20.716905
496.150555	-2.996600	3.767800	-11.290000	24.066901	0.000536	20.721222
497.153397	-3.004900	3.769100	-11.325000	24.057322	0.000538	20.708296
498.145782	-2.998900	3.767100	-11.297000	24.094702	0.000537	20.702162
499.147411	-3.007500	3.766800	-11.327000	24.105778	0.000536	20.709478
500.153504	-2.978600	3.767400	-11.221000	24.121330	0.000534	20.738353
501.150125	-2.997100	3.766400	-11.288000	24.117731	0.000535	20.720519
502.151308	-2.982700	3.767600	-11.237000	24.144648	0.000535	20.704366
503.147037	-3.008300	3.766900	-11.331000	24.135549	0.000537	20.708990
504.147590	-3.002900	3.767900	-11.313000	24.149578	0.000537	20.694137
505.147552	-3.004600	3.767600	-11.320000	24.137746	0.000536	20.716410
506.149750	-3.001700	3.765000	-11.301000	24.150111	0.000537	20.721700
507.147017	-3.025700	3.765100	-11.391000	24.157405	0.000538	20.717162
508.150907	-3.001700	3.765600	-11.301000	24.189827	0.000538	20.737828
509.147171	-3.006100	3.763700	-11.314000	24.143952	0.000534	20.722636
510.152270	-2.997600	3.764200	-11.282000	24.110141	0.000538	20.716699
511.148379	-2.997000	3.763700	-11.278000	24.103571	0.000539	20.707739
512.149059	-2.974600	3.764100	-11.196000	24.079712	0.000540	20.728381
513.150683	-3.000800	3.765500	-11.298000	24.130801	0.000536	20.749749
514.151374	-2.994300	3.763200	-11.268000	24.121818	0.000536	20.709918
515.151852	-2.969800	3.764000	-11.177000	24.151380	0.000536	20.719180
516.155496	-2.996100	3.764100	-11.276000	24.182262	0.000536	20.696098
517.152357	-2.982900	3.763400	-11.225000	24.208188	0.000537	20.749133
518.153801	-3.006500	3.762700	-11.312000	24.205923	0.000537	20.714142
519.158980	-2.999100	3.763200	-11.285000	24.216716	0.000536	20.716433
520.150268	-3.003800	3.762100	-11.300000	24.248743	0.000536	20.716316
521.149846	-3.010000	3.761500	-11.321000	24.207396	0.000538	20.712775
522.149931	-3.015800	3.762500	-11.345000	24.168785	0.000536	20.717196
523.157322	-3.012400	3.761500	-11.330000	24.185282	0.000537	20.718569
524.152372	-3.002900	3.761400	-11.295000	24.212724	0.000538	20.719542
525.153141	-3.009000	3.760200	-11.313000	24.215855	0.000536	20.725054
526.152753	-3.034400	3.760000	-11.407000	24.213167	0.000537	20.733737
527.156045	-2.993200	3.760100	-11.253000	24.216678	0.000536	20.725405
528.150162	-3.011700	3.759500	-11.322000	24.221485	0.000538	20.706043
529.157811	-3.029100	3.758400	-11.383000	24.247208	0.000538	20.748443
530.151726	-2.981600	3.760500	-11.211000	24.266239	0.000537	20.725805
531.153660	-2.984600	3.760800	-11.223000	24.274274	0.000537	20.733866
532.156458	-2.992000	3.759000	-11.247000	24.273526	0.000537	20.732167
533.152022	-2.998500	3.759500	-11.272000	24.299406	0.000537	20.729204
534.159052	-3.003000	3.757800	-11.284000	24.291095	0.000535	20.736040
535.152617	-2.980900	3.758700	-11.204000	24.279665	0.000535	20.724100
536.152320	-3.001600	3.757800	-11.279000	24.332242	0.000535	20.719468
537.151649	-2.993500	3.758000	-11.248000	24.336564	0.000537	20.713846
538.149567	-3.005000	3.758000	-11.291000	24.349105	0.000537	20.724057
539.156135	-3.015500	3.756300	-11.326000	24.354703	0.000535	20.720189
540.156028	-2.956900	3.758800	-11.113000	24.330174	0.000538	20.729722
541.154108	-2.997500	3.756300	-11.257000	24.303827	0.000538	20.718939
542.153891	-3.011100	3.754900	-11.306000	24.280960	0.000537	20.745789
543.155482	-2.974100	3.757800	-11.176000	24.286165	0.000537	20.743898
544.159012	-2.992100	3.756600	-11.239000	24.282777	0.000538	20.727222
545.161245	-3.013300	3.755300	-11.314000	24.266454	0.000537	20.735031
546.153245	-2.994300	3.756100	-11.246000	24.263673	0.000536	20.753579
547.156713	-2.991700	3.756000	-11.236000	24.266970	0.000535	20.748351
548.157269	-3.006400	3.755900	-11.291000	24.279886	0.000537	20.745660
549.155574	-2.990100	3.754500	-11.226000	24.280703	0.000536	20.728461
550.154933	-3.004800	3.755100	-11.283000	24.306523	0.000537	20.742508
551.170195	-3.002200	3.753700	-11.268000	24.315233	0.000535	20.744607
552.163361	-2.991100	3.754600	-11.229000	24.317266	0.000537	20.729576
553.159133	-3.008600	3.753600	-11.292000	24.265546	0.000538	20.722266
554.159503	-3.004400	3.752500	-11.273000	24.312735	0.000538	20.753008
555.155311	-2.974700	3.754300	-11.167000	24.340372	0.000537	20.751333
556.155824	-2.986600	3.753400	-11.209000	24.364925	0.000535	20.723806
557.156369	-2.997600	3.753200	-11.249000	24.326137	0.000538	20.727569
558.159746	-2.990600	3.753700	-11.226000	24.341833	0.000538	20.749480
559.161122	-3.002900	3.752000	-11.266000	24.339685	0.000536	20.730255
560.159632	-2.997200	3.752100	-11.245000	24.360384	0.000538	20.735372
561.160396	-3.002800	3.752300	-11.266000	24.359960	0.000536	20.744905
562.158938	-3.001300	3.751600	-11.258000	24.386054	0.000538	20.744529
563.158988	-3.003300	3.751000	-11.265000	24.357536	0.000537	20.754327
564.157198	-3.016000	3.751200	-11.313000	24.329570	0.000535	20.726271
565.163981	-3.011100	3.750700	-11.293000	24.308256	0.000537	20.749937
566.163556	-3.005300	3.749700	-11.267000	24.312308	0.000536	20.751630
567.158370	-3.001800	3.750500	-11.257000	24.342460	0.000537	20.754851
568.162761	-2.987800	3.749900	-11.203000	24.377431	0.000538	20.761484
569.158988	-2.997600	3.748300	-11.235000	24.379819	0.000540	20.757241
570.163989	-3.008200	3.749100	-11.276000	24.358279	0.000538	20.751279
571.162216	-2.995900	3.749800	-11.233000	24.371005	0.000535	20.762623
572.160533	-3.015100	3.749400	-11.302000	24.381059	0.000536	20.757062
573.161117	-2.995700	3.749400	-11.231000	24.408006	0.000535	20.750430
574.164734	-3.008500	3.747100	-11.272000	24.432902	0.000536	20.743638
575.162178	-3.013400	3.747000	-11.291000	24.431735	0.000535	20.766176
576.166580	-2.972400	3.748100	-11.140000	24.409921	0.000537	20.757567
577.160141	-3.018400	3.746600	-11.308000	24.398148	0.000536	20.766620
578.161384	-2.994900	3.747300	-11.222000	24.411541	0.000536	20.769150
579.162214	-3.006600	3.747000	-11.265000	24.409423	0.000535	20.779828
580.161400	-3.009900	3.747000	-11.277000	24.432178	0.000536	20.774206
581.160770	-3.001600	3.747700	-11.248000	24.420239	0.000538	20.747056
582.164999	-2.996600	3.746300	-11.226000	24.394974	0.000536	20.769599
583.161871	-3.015200	3.746600	-11.296000	24.428998	0.000536	20.780974
584.164137	-3.004600	3.745300	-11.253000	24.406692	0.000536	20.760966
585.169649	-3.010300	3.745400	-11.274000	24.437186	0.000537	20.749832
586.169040	-3.000400	3.744800	-11.236000	24.411087	0.000536	20.757315
587.170838	-3.001100	3.744800	-11.238000	24.445196	0.000536	20.764033
588.167480	-2.992200	3.744600	-11.204000	24.508721	0.000536	20.782722
589.170989	-2.997200	3.744600	-11.222000	24.521058	0.000535	20.765228
590.166415	-2.998400	3.743500	-11.224000	24.486381	0.000537	20.768843
591.165300	-3.001300	3.743300	-11.234000	24.483668	0.000536	20.758534
592.169450	-3.010600	3.742800	-11.267000	24.487498	0.000534	20.753368
593.170928	-2.990300	3.744900	-11.198000	24.444441	0.000536	20.771811
594.169012	-2.999600	3.744500	-11.232000	24.468023	0.000534	20.758485
595.170772	-3.006400	3.742400	-11.250000	24.452151	0.000536	20.766743
596.169126	-2.993500	3.744000	-11.207000	24.494912	0.000537	20.752271
597.170215	-2.998800	3.741600	-11.219000	24.495630	0.000537	20.783339
598.174244	-3.001600	3.741700	-11.230000	24.498392	0.000534	20.769514
599.172674	-3.001400	3.741600	-11.230000	24.517916	0.000536	20.771559
600.168873	-2.985200	3.742000	-11.169000	24.504708	0.000534	20.779170
601.171575	-3.013000	3.741300	-11.271000	24.492366	0.000537	20.770580
602.175198	-3.005000	3.740400	-11.238000	24.469932	0.000537	20.777470
603.177817	-2.999200	3.740700	-11.219000	24.447873	0.000535	20.790426
604.174541	-3.012400	3.740800	-11.268000	24.475726	0.000535	20.781387
605.173470	-2.982700	3.741200	-11.158000	24.501818	0.000536	20.776744
606.171294	-3.010100	3.739400	-11.255000	24.498933	0.000536	20.773850
607.175380	-3.010800	3.738900	-11.256000	24.524201	0.000534	20.776442
608.175901	-3.002200	3.740600	-11.229000	24.536808	0.000535	20.770125
609.175044	-3.001700	3.739200	-11.223000	24.515290	0.000537	20.777933
610.174663	-3.002100	3.739200	-11.225000	24.503697	0.000534	20.780052
611.174826	-3.002900	3.738700	-11.226000	24.541381	0.000533	20.794627
612.175994	-2.989800	3.739700	-11.180000	24.517850	0.000535	20.793304
613.183354	-3.016500	3.737600	-11.274000	24.548690	0.000536	20.781099
614.179121	-3.031600	3.737800	-11.330000	24.580131	0.000533	20.784670
615.176190	-2.983500	3.739700	-11.157000	24.615622	0.000534	20.797522
616.176548	-2.990100	3.738300	-11.177000	24.605778	0.000535	20.784325
617.180209	-2.980600	3.738500	-11.142000	24.589809	0.000535	20.779208
618.179241	-2.990300	3.737600	-11.176000	24.586827	0.000536	20.774318
619.179358	-3.009100	3.736400	-11.242000	24.559718	0.000534	20.790741
620.175961	-2.975200	3.736900	-11.117000	24.555613	0.000533	20.778087
621.178178	-2.970200	3.736600	-11.097000	24.559694	0.000534	20.802570
622.179500	-2.963500	3.737500	-11.076000	24.604513	0.000533	20.792539
623.178792	-2.985400	3.737400	-11.156000	24.625852	0.000533	20.797355
624.186015	-3.019000	3.736500	-11.279000	24.653608	0.000531	20.793438
625.181023	-2.995500	3.737200	-11.194000	24.647932	0.000533	20.801967
626.185236	-3.008300	3.734600	-11.234000	24.656493	0.000534	20.810083
627.181842	-2.999400	3.735400	-11.203000	24.644606	0.000533	20.786301
628.181791	-2.999000	3.735600	-11.202000	24.628785	0.000532	20.797453
629.190337	-3.007900	3.736000	-11.236000	24.619285	0.000533	20.809258
630.185878	-2.999800	3.736000	-11.206000	24.644403	0.000532	20.794159
631.179077	-3.034600	3.732500	-11.326000	24.655621	0.000532	20.798777
632.181737	-3.023000	3.732900	-11.283000	24.642439	0.000533	20.816370
633.183836	-3.007400	3.733800	-11.227000	24.647637	0.000531	20.813999
634.181992	-2.982700	3.734300	-11.137000	24.617346	0.000532	20.817743
635.185641	-2.983200	3.734100	-11.139000	24.602893	0.000531	20.820785
636.183249	-3.003400	3.732600	-11.209000	24.581058	0.000531	20.829221
637.186871	-3.013600	3.733100	-11.249000	24.596559	0.000533	20.798783
638.186574	-3.008700	3.732300	-11.228000	24.641347	0.000531	20.804368
639.189403	-2.983200	3.733000	-11.136000	24.614909	0.000534	20.803445
640.188425	-3.013300	3.731900	-11.245000	24.605109	0.000532	20.816370
641.188162	-3.013700	3.731700	-11.245000	24.595032	0.000532	20.801044
642.185177	-3.001100	3.731100	-11.196000	24.581432	0.000533	20.828648
643.188221	-2.998000	3.731300	-11.186000	24.564764	0.000532	20.790588
644.189692	-3.013600	3.730500	-11.241000	24.594909	0.000531	20.823205
645.186201	-2.997600	3.731300	-11.184000	24.613713	0.000532	20.806512
646.198011	-3.005200	3.731700	-11.214000	24.620574	0.000532	20.799646
647.188650	-2.983300	3.731300	-11.131000	24.630050	0.000532	20.814369
648.189793	-2.999900	3.730200	-11.190000	24.663127	0.000529	20.796351
649.191948	-2.985900	3.728800	-11.132000	24.639648	0.000530	20.817836
650.186272	-2.984600	3.729600	-11.129000	24.646515	0.000531	20.820459
651.190949	-3.023900	3.727900	-11.272000	24.626638	0.000530	20.825644
652.191445	-2.998600	3.727100	-11.175000	24.639427	0.000529	20.788691
653.188356	-3.000600	3.729100	-11.189000	24.679334	0.000531	20.814511
654.190908	-2.990700	3.729500	-11.153000	24.610823	0.000530	20.835379
655.195743	-2.984100	3.729600	-11.128000	24.641090	0.000530	20.816912
656.193552	-3.005800	3.727300	-11.203000	24.660592	0.000530	20.830317
657.197066	-3.014500	3.727100	-11.234000	24.665041	0.000531	20.810601
658.193793	-3.006900	3.727500	-11.206000	24.691459	0.000529	20.820040
659.196208	-2.978500	3.726500	-11.098000	24.705438	0.000530	20.819843
660.191595	-3.007100	3.725500	-11.202000	24.675664	0.000528	20.833113
661.191806	-2.983400	3.726600	-11.117000	24.674154	0.000530	20.827330
662.192967	-3.019800	3.725400	-11.249000	24.729235	0.000528	20.822860
663.190773	-2.936200	3.728800	-10.948000	24.705511	0.000528	20.813753
664.192377	-2.978800	3.726800	-11.100000	24.710403	0.000529	20.835730
665.194918	-3.037100	3.725300	-11.313000	24.695436	0.000528	20.811228
666.196720	-3.013300	3.724900	-11.222000	24.695914	0.000528	20.813131
667.200692	-2.999500	3.725300	-11.173000	24.672436	0.000528	20.828451
668.197264	-3.004900	3.724100	-11.189000	24.706929	0.000529	20.819442
669.194424	-3.032000	3.722700	-11.286000	24.698571	0.000528	20.833815
670.199225	-2.996200	3.725900	-11.163000	24.718993	0.000530	20.839134
671.193598	-3.020500	3.724000	-11.247000	24.733138	0.000529	20.827251
672.197370	-3.023700	3.722700	-11.255000	24.737341	0.000530	20.854227
673.194493	-3.011000	3.723100	-11.209000	24.758026	0.000528	20.827097
674.201447	-2.992200	3.724600	-11.144000	24.752682	0.000526	20.844018
675.195488	-3.018200	3.722400	-11.234000	24.759996	0.000527	20.857995
676.195726	-3.008800	3.723300	-11.202000	24.718938	0.000526	20.835761
677.207574	-3.000700	3.722600	-11.170000	24.741416	0.000528	20.838877
678.195254	-2.992200	3.722400	-11.137000	24.780755	0.000527	20.836629
679.195806	-3.021200	3.722700	-11.246000	24.824000	0.000528	20.833088
680.196838	-2.977200	3.722700	-11.082000	24.813183	0.000527	20.844991
681.200405	-2.995400	3.721900	-11.147000	24.818675	0.000527	20.846709
682.198397	-2.977600	3.721700	-11.081000	24.795002	0.000528	20.839548
683.199650	-2.977300	3.720700	-11.077000	24.786369	0.000525	20.847479
684.195583	-2.990900	3.721700	-11.130000	24.779116	0.000527	20.825976
685.199619	-2.998200	3.719900	-11.152000	24.770207	0.000528	20.843113
686.199543	-2.982200	3.722200	-11.099000	24.772299	0.000525	20.842842
687.203699	-3.002400	3.720400	-11.169000	24.752903	0.000527	20.859412
688.200405	-2.985400	3.720100	-11.105000	24.699511	0.000524	20.851826
689.200099	-3.000900	3.720800	-11.164000	24.708469	0.000529	20.857497
690.197892	-3.000400	3.719400	-11.159000	24.727762	0.000525	20.846038
691.200912	-2.983400	3.719900	-11.097000	24.758283	0.000526	20.830674
692.204685	-3.003800	3.718700	-11.169000	24.792026	0.000525	20.831345
693.202513	-3.009800	3.718800	-11.192000	24.776410	0.000525	20.866881
694.206970	-2.995600	3.718800	-11.140000	24.757645	0.000525	20.858007
695.200640	-3.001300	3.718700	-11.161000	24.761001	0.000525	20.854737
696.202889	-2.972800	3.720400	-11.058000	24.787558	0.000525	20.862422
697.201938	-2.985000	3.716800	-11.094000	24.773838	0.000526	20.856239
698.209170	-3.004100	3.717800	-11.167000	24.793553	0.000523	20.841412
699.207786	-2.991400	3.717100	-11.118000	24.788361	0.000523	20.866547
700.200705	-3.015800	3.716500	-11.207000	24.801241	0.000528	20.857188
701.205650	-2.973500	3.718600	-11.057000	24.812414	0.000524	20.854650
702.203747	-3.001700	3.717800	-11.159000	24.784814	0.000524	20.868677
703.204566	-2.984200	3.716500	-11.090000	24.791306	0.000525	20.858123
704.200253	-3.003800	3.716500	-11.163000	24.832877	0.000521	20.880401
705.202217	-2.991000	3.716400	-11.115000	24.868346	0.000523	20.851515
706.200870	-3.014700	3.715200	-11.199000	24.893532	0.000523	20.872525
707.205108	-3.004300	3.715000	-11.161000	24.842932	0.000524	20.868208
708.204474	-2.996700	3.715300	-11.133000	24.812450	0.000523	20.839988
709.205895	-2.991000	3.716200	-11.115000	24.809842	0.000522	20.879094
710.204371	-2.990600	3.715000	-11.109000	24.827372	0.000523	20.855437
711.199551	-2.989000	3.715200	-11.104000	24.855394	0.000522	20.866964
712.205009	-2.992700	3.714000	-11.114000	24.906367	0.000522	20.856010
713.202903	-3.035600	3.712700	-11.269000	24.904207	0.000524	20.859532
714.208226	-3.020600	3.713400	-11.215000	24.912085	0.000521	20.869335
715.203264	-3.020100	3.714300	-11.217000	24.889261	0.000521	20.878669
716.205271	-3.000700	3.713000	-11.141000	24.909458	0.000522	20.858639
717.212934	-2.993500	3.712900	-11.113000	24.889617	0.000520	20.864328
718.206492	-2.981300	3.714300	-11.073000	24.873063	0.000520	20.864783
719.209567	-2.991200	3.712900	-11.105000	24.855473	0.000520	20.863725
720.208512	-2.985300	3.712900	-11.083000	24.862117	0.000524	20.861859
721.205961	-2.978800	3.713200	-11.060000	24.850386	0.000522	20.869051
722.208083	-3.005600	3.712500	-11.157000	24.843894	0.000519	20.867277
723.207211	-2.981200	3.713800	-11.071000	24.875302	0.000521	20.856126
724.205416	-2.997700	3.710900	-11.123000	24.898770	0.000522	20.849334
725.206532	-2.994500	3.711900	-11.114000	24.922440	0.000519	20.844168
726.205203	-2.990100	3.709700	-11.092000	24.932618	0.000522	20.833047
727.208205	-3.016400	3.710600	-11.191000	24.918268	0.000522	20.867954
728.206474	-3.007900	3.710600	-11.160000	24.954190	0.000520	20.834784
729.204991	-3.003900	3.711000	-11.146000	24.967589	0.000520	20.830689
730.209594	-3.009100	3.710800	-11.165000	24.942380	0.000523	20.854698
731.204810	-3.001800	3.708700	-11.132000	24.905262	0.000522	20.847789
732.207439	-3.000900	3.710000	-11.132000	24.890960	0.000521	20.847660
733.205300	-3.027600	3.708300	-11.226000	24.958963	0.000518	20.848583
734.205163	-2.995700	3.709600	-11.111000	24.929551	0.000520	20.852253
735.210060	-2.988800	3.709000	-11.085000	24.925239	0.000520	20.828960
736.212996	-2.968300	3.708800	-11.008000	24.925122	0.000520	20.834532
737.206622	-2.977800	3.710800	-11.049000	24.874076	0.000519	20.843990
738.209982	-3.006800	3.709100	-11.151000	24.839637	0.000518	20.835979
739.209689	-2.996900	3.709200	-11.115000	24.861265	0.000520	20.846780
740.212582	-2.990100	3.709800	-11.091000	24.866762	0.000519	20.847555
741.212196	-3.004700	3.707900	-11.139000	24.897992	0.000518	20.844286
742.210903	-2.997800	3.708300	-11.115000	24.895360	0.000520	20.842118
743.206992	-3.001400	3.707200	-11.125000	24.892500	0.000519	20.831188
744.207910	-3.018300	3.706200	-11.185000	24.886004	0.000518	20.836521
745.210201	-3.008800	3.706900	-11.152000	24.904256	0.000516	20.835875
746.212197	-3.000700	3.706200	-11.121000	24.905379	0.000515	20.824199
747.225155	-3.021800	3.705600	-11.197000	24.923994	0.000518	20.831029
748.206485	-3.000900	3.706600	-11.121000	24.891501	0.000514	20.835875
749.213838	-3.008700	3.706700	-11.151000	24.924220	0.000518	20.827937
750.212595	-2.993200	3.705200	-11.089000	24.968006	0.000514	20.818307
751.211987	-3.024900	3.705000	-11.206000	24.976976	0.000516	20.823517
752.209634	-3.012700	3.705700	-11.164000	24.960221	0.000514	20.832777
753.209301	-3.011100	3.703600	-11.151000	24.938994	0.000514	20.824747
754.208769	-2.972400	3.705400	-11.012000	24.921987	0.000513	20.835179
755.211459	-2.998300	3.702900	-11.102000	24.910643	0.000513	20.829957
756.212010	-3.014500	3.703100	-11.162000	24.866039	0.000513	20.838769
757.211283	-2.990300	3.704100	-11.076000	24.886378	0.000514	20.822673
758.208807	-3.007000	3.704300	-11.137000	24.886457	0.000513	20.821330
759.213994	-2.990900	3.704400	-11.079000	24.897348	0.000514	20.818035
760.215065	-3.008000	3.703500	-11.139000	24.922514	0.000513	20.824803
761.211947	-3.018100	3.702300	-11.173000	24.965227	0.000513	20.835431
762.212959	-3.012700	3.702800	-11.155000	24.974773	0.000514	20.822253
763.211121	-2.985500	3.703400	-11.056000	24.950331	0.000511	20.821903
764.213460	-3.019500	3.702000	-11.177000	24.988724	0.000510	20.821557
765.213558	-2.984200	3.703000	-11.050000	24.974386	0.000512	20.826606
766.211018	-2.988400	3.702500	-11.064000	25.000766	0.000510	20.815627
767.215267	-2.991700	3.701100	-11.072000	25.001759	0.000512	20.815202
768.214334	-2.969100	3.702400	-10.991000	24.957926	0.000511	20.829525
769.214633	-3.019100	3.700400	-11.171000	24.934434	0.000510	20.814481
770.213043	-3.005800	3.701200	-11.124000	24.932796	0.000509	20.813311
771.213727	-2.997400	3.699900	-11.089000	24.927894	0.000511	20.830202
772.212967	-3.003500	3.701400	-11.117000	24.939017	0.000510	20.820977
773.212849	-3.002800	3.700600	-11.110000	24.974992	0.000511	20.813465
774.219248	-3.016800	3.700300	-11.163000	24.985508	0.000510	20.827338
775.213065	-3.011100	3.698200	-11.135000	24.992526	0.000510	20.821106
776.216859	-3.026100	3.698800	-11.192000	25.035058	0.000513	20.827763
777.220157	-3.006800	3.700200	-11.126000	24.997268	0.000511	20.807849
778.217783	-3.004600	3.699000	-11.113000	25.015126	0.000509	20.812024
779.214402	-3.005300	3.698800	-11.116000	25.025701	0.000507	20.818846
780.214505	-3.003700	3.698900	-11.109000	25.011702	0.000510	20.804320
781.214426	-3.016500	3.698400	-11.156000	24.994353	0.000509	20.819147
782.215823	-2.973000	3.698200	-10.993000	24.959973	0.000512	20.815933
783.216387	-2.996800	3.698600	-11.082000	24.994850	0.000508	20.825810
784.219722	-3.012100	3.697000	-11.134000	24.976310	0.000508	20.806253
785.216745	-2.988300	3.697300	-11.047000	24.998064	0.000507	20.811493
786.217044	-3.006800	3.697900	-11.118000	25.004432	0.000508	20.793703
787.224600	-3.001100	3.696500	-11.093000	24.988395	0.000508	20.820280
788.219022	-3.003200	3.696400	-11.101000	25.047319	0.000509	20.813044
789.220966	-3.023500	3.696000	-11.174000	25.020198	0.000507	20.807631
790.219416	-3.004400	3.695900	-11.103000	25.074696	0.000506	20.812551
791.219775	-3.015000	3.695500	-11.141000	25.102472	0.000506	20.805820
792.224644	-2.997700	3.695600	-11.078000	25.061305	0.000507	20.812859
793.225183	-3.011300	3.695900	-11.128000	25.039251	0.000507	20.810162
794.226031	-3.009500	3.696100	-11.122000	25.063642	0.000508	20.801929
795.220616	-3.022000	3.695000	-11.166000	25.081070	0.000506	20.799034
796.222290	-3.004600	3.696100	-11.105000	25.095620	0.000506	20.811744
797.219868	-2.991000	3.695300	-11.052000	25.019098	0.000506	20.806528
798.221200	-2.992000	3.695300	-11.055000	25.037196	0.000506	20.793874
799.220790	-2.986000	3.695200	-11.034000	25.037895	0.000504	20.791731
800.225846	-3.005300	3.693600	-11.099000	25.068751	0.000505	20.793307
801.221182	-2.973600	3.694200	-10.984000	25.065144	0.000505	20.802962
802.220932	-3.004700	3.692900	-11.095000	25.057360	0.000504	20.777130
803.226521	-3.006000	3.693400	-11.102000	25.055145	0.000506	20.795296
804.223076	-2.996600	3.693000	-11.065000	25.044655	0.000504	20.786663
805.226406	-2.987300	3.692800	-11.031000	25.068144	0.000505	20.778947
806.223890	-3.024500	3.691900	-11.165000	25.083683	0.000506	20.808770
807.223578	-3.004700	3.693100	-11.096000	25.091608	0.000503	20.818148
808.226470	-2.986800	3.693500	-11.030000	25.110600	0.000506	20.813031
809.226315	-3.010600	3.692300	-11.115000	25.108282	0.000507	20.778936
810.230210	-2.991800	3.692500	-11.047000	25.096228	0.000505	20.797181
811.228932	-2.979100	3.691500	-10.997000	25.088867	0.000504	20.794059
812.225147	-2.975300	3.691800	-10.983000	25.077083	0.000503	20.815895
813.223102	-3.010000	3.688600	-11.102000	25.083321	0.000503	20.803666
814.230453	-3.011600	3.691400	-11.117000	25.071207	0.000504	20.785340
815.227578	-2.999400	3.690300	-11.068000	25.062704	0.000503	20.781073
816.224718	-2.985100	3.690700	-11.016000	25.043933	0.000502	20.803007
817.228644	-2.997600	3.691000	-11.063000	25.046761	0.000502	20.792096
818.226551	-3.007500	3.689100	-11.094000	24.986470	0.000500	20.779941
819.227582	-3.028600	3.688100	-11.168000	24.995175	0.000501	20.777299
820.226242	-2.975200	3.691700	-10.983000	25.006899	0.000504	20.792860
821.229270	-2.987800	3.690100	-11.024000	25.006525	0.000499	20.780157
822.228686	-3.002000	3.688400	-11.072000	25.052940	0.000502	20.787392
823.226300	-2.993000	3.689200	-11.041000	25.029690	0.000500	20.790133
824.228267	-3.032100	3.688200	-11.182000	25.043438	0.000501	20.780699
825.227772	-3.023100	3.687200	-11.146000	25.034684	0.000501	20.784714
826.235870	-2.996700	3.689400	-11.055000	25.052609	0.000501	20.786586
827.231170	-3.003300	3.688700	-11.077000	25.122332	0.000499	20.785928
828.230470	-3.005200	3.686100	-11.076000	25.149923	0.000501	20.805091
829.231103	-3.008200	3.687200	-11.091000	25.176268	0.000501	20.782228
830.233193	-3.010300	3.686200	-11.096000	25.118946	0.000499	20.794383
831.231123	-3.011300	3.686800	-11.101000	25.074694	0.000502	20.791212
832.235914	-2.965400	3.686800	-10.932000	25.098808	0.000499	20.789340
833.229990	-2.976100	3.687100	-10.972000	25.078418	0.000499	20.786415
834.231304	-3.002200	3.685400	-11.064000	25.093674	0.000501	20.776126
835.230286	-3.004700	3.686000	-11.075000	25.088596	0.000498	20.796158
836.233797	-2.968200	3.686000	-10.940000	25.065254	0.000498	20.779365
837.236808	-2.990400	3.684800	-11.018000	25.038969	0.000497	20.781903
838.233547	-2.991800	3.685800	-11.027000	25.064973	0.000497	20.784298
839.236062	-2.987600	3.684400	-11.006000	25.051514	0.000498	20.770314
840.238204	-3.013500	3.684800	-11.103000	25.046589	0.000498	20.779595
841.234795	-3.012100	3.683500	-11.094000	25.024161	0.000494	20.795488
842.238843	-3.012600	3.684700	-11.100000	24.985347	0.000495	20.798728
843.246271	-3.023400	3.682500	-11.132000	25.047295	0.000496	20.769872
844.236248	-2.984400	3.684400	-10.995000	25.031014	0.000497	20.774392
845.236835	-2.975000	3.683900	-10.959000	25.041130	0.000497	20.805884
846.233534	-3.003700	3.683300	-11.063000	25.035855	0.000496	20.772139
847.237396	-2.993400	3.682200	-11.021000	25.101781	0.000495	20.783790
848.239817	-3.006800	3.683900	-11.076000	25.055682	0.000496	20.781611
849.235602	-2.968400	3.683600	-10.934000	25.084490	0.000493	20.790614
850.236189	-2.983300	3.682300	-10.984000	25.078822	0.000493	20.779234
851.240148	-2.978900	3.682600	-10.970000	25.108549	0.000494	20.778256
852.236183	-2.980800	3.681400	-10.972000	25.128209	0.000495	20.796569
853.237143	-3.011800	3.680300	-11.083000	25.183513	0.000494	20.780018
854.238808	-2.980000	3.682400	-10.971000	25.191536	0.000493	20.791866
855.235580	-2.973600	3.681000	-10.945000	25.207913	0.000493	20.786971
856.239079	-2.992000	3.681000	-11.013000	25.200204	0.000491	20.762635
857.238546	-2.986800	3.679600	-10.989000	25.204252	0.000492	20.773812
858.239850	-3.016600	3.679900	-11.100000	25.156471	0.000492	20.781793
859.238187	-2.991200	3.680700	-11.009000	25.109411	0.000492	20.781017
860.236586	-2.986600	3.680300	-10.990000	25.076268	0.000492	20.799430
861.237251	-2.977700	3.680900	-10.960000	25.098817	0.000490	20.786030
862.237618	-2.985800	3.678600	-10.982000	25.117822	0.000490	20.794677
863.238506	-2.995800	3.679700	-11.022000	25.115239	0.000489	20.784972
864.239558	-2.984100	3.678400	-10.976000	25.106008	0.000489	20.784714
865.242996	-2.997200	3.678200	-11.024000	25.110450	0.000489	20.791070
866.236968	-2.994200	3.678900	-11.015000	25.092029	0.000490	20.756456
867.244585	-2.985900	3.678700	-10.983000	25.103905	0.000491	20.764585
868.241671	-3.001700	3.677700	-11.038000	25.103482	0.000489	20.771747
869.245909	-3.005900	3.676700	-11.051000	25.103673	0.000489	20.775732
870.238372	-2.988000	3.678100	-10.989000	25.113414	0.000488	20.777924
871.238634	-3.003000	3.678000	-11.044000	25.088209	0.000490	20.767320
872.245288	-3.008100	3.675600	-11.056000	25.118334	0.000490	20.771009
873.240084	-3.007400	3.676500	-11.055000	25.160936	0.000490	20.783905
874.240571	-2.993100	3.676800	-11.003000	25.167971	0.000490	20.780062
875.247283	-2.978300	3.676200	-10.948000	25.156354	0.000488	20.766977
876.242816	-2.986500	3.675700	-10.976000	25.185036	0.000489	20.769219
877.241710	-3.000000	3.676400	-11.028000	25.190950	0.000488	20.750025
878.243281	-2.988700	3.675400	-10.983000	25.199175	0.000489	20.774405
879.241763	-2.990600	3.676400	-10.994000	25.218853	0.000487	20.769978
880.245772	-3.010500	3.673100	-11.056000	25.212044	0.000488	20.787325
881.243306	-2.997800	3.673800	-11.013000	25.184774	0.000487	20.786974
882.243898	-2.972300	3.674700	-10.922000	25.172268	0.000487	20.792436
883.244123	-2.995600	3.674000	-11.004000	25.211462	0.000487	20.774412
884.242893	-3.010000	3.673900	-11.057000	25.227938	0.000486	20.792850
885.246202	-3.009200	3.673800	-11.054000	25.228980	0.000484	20.775879
886.248775	-2.992600	3.673200	-10.992000	25.155125	0.000485	20.770011
887.246780	-3.009700	3.672400	-11.052000	25.143863	0.000485	20.762024
888.247069	-3.004900	3.672500	-11.034000	25.151224	0.000485	20.797863
889.246722	-3.012700	3.672400	-11.063000	25.174036	0.000484	20.771926
890.245727	-2.991900	3.673700	-10.989000	25.181667	0.000483	20.781483
891.247658	-2.991800	3.672400	-10.986000	25.164787	0.000484	20.765485
892.245213	-3.007100	3.670100	-11.035000	25.188672	0.000483	20.760067
893.247627	-3.014400	3.671300	-11.066000	25.230301	0.000481	20.768670
894.246763	-3.001400	3.671700	-11.020000	25.201645	0.000481	20.775936
895.247004	-3.030200	3.670800	-11.122000	25.223266	0.000482	20.778203
896.248882	-2.989300	3.669900	-10.969000	25.239176	0.000482	20.767149
897.250675	-3.005600	3.669300	-11.027000	25.245630	0.000481	20.777895
898.248182	-3.017400	3.668200	-11.068000	25.224053	0.000482	20.759077
899.249609	-3.011200	3.669500	-11.048000	25.248911	0.000481	20.781190
900.247474	-3.012200	3.669000	-11.051000	25.250273	0.000479	20.742727
901.259931	-3.009600	3.670900	-11.048000	25.256787	0.000480	20.776769
902.256550	-3.010200	3.668200	-11.041000	25.278776	0.000481	20.750481
903.252789	-3.015400	3.667700	-11.059000	25.246097	0.000477	20.746595
904.251839	-2.999600	3.668500	-11.003000	25.256033	0.000479	20.785970
905.252903	-3.006400	3.668400	-11.027000	25.241215	0.000478	20.755445
906.250492	-2.969100	3.668400	-10.890000	25.205917	0.000481	20.760784
907.253791	-3.015700	3.667700	-11.060000	25.206463	0.000478	20.746633
908.251519	-3.005800	3.668600	-11.025000	25.182297	0.000477	20.749873
909.251321	-2.996600	3.666800	-10.987000	25.214093	0.000475	20.758561
910.253601	-2.994200	3.667600	-10.981000	25.251447	0.000476	20.763347
911.252347	-2.983900	3.666300	-10.939000	25.246724	0.000475	20.749122
912.255750	-3.010000	3.665800	-11.032000	25.217443	0.000475	20.754812
913.255911	-2.970800	3.668000	-10.895000	25.243339	0.000476	20.762319
914.254209	-2.976400	3.667900	-10.916000	25.289670	0.000475	20.747669
915.254836	-2.997300	3.666100	-10.988000	25.294619	0.000476	20.741732
916.253356	-3.000700	3.665600	-10.998000	25.263922	0.000475	20.739361
917.257465	-2.988100	3.664700	-10.950000	25.217964	0.000473	20.743955
918.255761	-3.010000	3.664100	-11.027000	25.207604	0.000473	20.750624
919.257109	-3.019600	3.663900	-11.061000	25.235960	0.000473	20.740685
920.254619	-3.012400	3.665000	-11.040000	25.244240	0.000472	20.753740
921.255713	-2.984700	3.664900	-10.937000	25.283143	0.000474	20.728787
922.254718	-2.990600	3.663700	-10.956000	25.315704	0.000472	20.733978
923.257122	-2.987900	3.664700	-10.949000	25.280310	0.000473	20.752022
924.260126	-3.002500	3.663900	-11.000000	25.219381	0.000473	20.761500
925.255103	-2.987200	3.664600	-10.946000	25.162490	0.000473	20.723349
926.260357	-2.995000	3.662800	-10.970000	25.195423	0.000471	20.753568
927.255377	-3.001600	3.662600	-10.993000	25.199876	0.000471	20.738123
928.257537	-2.995000	3.663300	-10.970000	25.208819	0.000470	20.759430
929.260005	-3.005400	3.662700	-11.007000	25.245908	0.000471	20.742612
930.255977	-3.000200	3.662800	-10.989000	25.253961	0.000470	20.748327
931.255814	-3.010400	3.660500	-11.018000	25.290601	0.000470	20.737698
932.262644	-3.021900	3.660500	-11.061000	25.296789	0.000469	20.741066
933.260199	-2.989700	3.662600	-10.949000	25.254513	0.000471	20.730388
934.261038	-3.011100	3.660300	-11.021000	25.235444	0.000469	20.752496
935.259484	-3.001000	3.659700	-10.981000	25.230825	0.000470	20.755445
936.258361	-3.005600	3.659800	-10.998000	25.273029	0.000469	20.741393
937.259264	-2.981300	3.660400	-10.912000	25.287443	0.000466	20.756339
938.258303	-3.013100	3.658900	-11.024000	25.295348	0.000466	20.734403
939.262591	-3.000600	3.660200	-10.982000	25.263486	0.000469	20.747932
940.259862	-3.022500	3.658100	-11.056000	25.241712	0.000469	20.742193
941.261085	-2.979900	3.659800	-10.905000	25.220558	0.000469	20.737550
942.263002	-3.004900	3.658300	-10.992000	25.203733	0.000469	20.737254
943.260312	-2.999300	3.659200	-10.975000	25.171169	0.000467	20.740598
944.270446	-2.992600	3.658000	-10.946000	25.202881	0.000469	20.742563
945.261024	-2.993700	3.658700	-10.952000	25.289755	0.000466	20.740167
946.262636	-3.003700	3.658600	-10.988000	25.306584	0.000467	20.722924
947.264165	-3.002300	3.658000	-10.982000	25.308172	0.000465	20.732580
948.263402	-3.017200	3.656100	-11.030000	25.280408	0.000467	20.727463
949.264668	-3.014000	3.657300	-11.022000	25.269019	0.000465	20.731202
950.262642	-3.010800	3.657300	-11.011000	25.250074	0.000465	20.742053
951.262095	-2.979200	3.656000	-10.891000	25.279065	0.000464	20.748875
952.264929	-3.012400	3.656200	-11.013000	25.293797	0.000467	20.739485
953.271612	-3.000400	3.656900	-10.971000	25.255766	0.000465	20.755829
954.262240	-2.980500	3.654900	-10.893000	25.220940	0.000463	20.723708
955.265193	-3.021500	3.653600	-11.038000	25.244879	0.000464	20.717396
956.262073	-2.995200	3.654700	-10.945000	25.257502	0.000463	20.752830
957.265275	-2.966600	3.656400	-10.846000	25.245640	0.000462	20.714841
958.263507	-3.014000	3.655100	-11.016000	25.265304	0.000464	20.727471
959.264611	-3.006800	3.654300	-10.987000	25.274050	0.000464	20.721079
960.265625	-3.020600	3.653300	-11.034000	25.259533	0.000461	20.727841
961.275167	-2.983600	3.655400	-10.905000	25.250093	0.000461	20.731166
962.265104	-2.990100	3.653800	-10.925000	25.275344	0.000463	20.717637
963.269665	-3.015100	3.652300	-11.011000	25.299178	0.000464	20.734455
964.270620	-2.993200	3.651400	-10.929000	25.268978	0.000461	20.735428
965.269536	-3.004800	3.652100	-10.973000	25.279693	0.000460	20.726271
966.266548	-2.992600	3.653500	-10.932000	25.308923	0.000459	20.705357
967.266449	-2.986800	3.653800	-10.912000	25.281808	0.000460	20.714644
968.266516	-2.994000	3.651900	-10.932000	25.316509	0.000458	20.725303
969.272436	-3.011500	3.652100	-10.998000	25.282979	0.000457	20.725777
970.267034	-2.977200	3.651400	-10.869000	25.261334	0.000457	20.722063
971.274772	-3.020700	3.651000	-11.027000	25.265407	0.000458	20.721885
972.269143	-3.008600	3.649000	-10.978000	25.264346	0.000457	20.735993
973.270477	-3.040300	3.649800	-11.095000	25.318010	0.000457	20.721595
974.274827	-3.012000	3.651100	-10.996000	25.263204	0.000456	20.728209
975.273989	-3.019900	3.649300	-11.019000	25.254753	0.000458	20.738690
976.279437	-2.974800	3.651000	-10.860000	25.250158	0.000455	20.736922
977.270044	-3.003600	3.648900	-10.959000	25.272778	0.000455	20.726441
978.269367	-2.994500	3.648800	-10.925000	25.260426	0.000456	20.736799
979.274320	-2.998100	3.648300	-10.936000	25.293967	0.000454	20.715946
980.270205	-2.981700	3.648700	-10.878000	25.286681	0.000456	20.726649
981.284416	-3.001200	3.648400	-10.948000	25.233050	0.000453	20.717374
982.278243	-2.996000	3.649400	-10.932000	25.278688	0.000454	20.703924
983.274100	-2.989500	3.648800	-10.907000	25.278836	0.000456	20.705495
984.275156	-3.001600	3.647900	-10.949000	25.298154	0.000455	20.722996
985.283327	-2.983200	3.648500	-10.883000	25.268678	0.000454	20.724221
986.287138	-3.014000	3.646000	-10.989000	25.280711	0.000455	20.711171
987.271682	-2.980700	3.648200	-10.873000	25.280760	0.000453	20.739672
988.272123	-3.000600	3.646400	-10.941000	25.287451	0.000453	20.729319
989.283145	-3.002400	3.646200	-10.946000	25.340544	0.000455	20.728574
990.276731	-3.017200	3.645600	-10.998000	25.370300	0.000456	20.697283
991.278642	-3.005200	3.645900	-10.956000	25.392346	0.000454	20.721319
992.276147	-3.035300	3.645100	-11.063000	25.340457	0.000452	20.736073
993.276889	-3.006500	3.644300	-10.956000	25.330731	0.000452	20.724884
994.275167	-3.008600	3.644100	-10.963000	25.339518	0.000453	20.733234
995.278450	-2.998100	3.645400	-10.929000	25.330417	0.000453	20.728363
996.274018	-2.982600	3.645300	-10.872000	25.309295	0.000452	20.727069
997.291903	-2.999100	3.645200	-10.931000	25.372972	0.000452	20.730314
998.275886	-2.999500	3.643100	-10.927000	25.384881	0.000450	20.715719
999.282990	-3.000800	3.644000	-10.934000	25.359461	0.000451	20.721015
1000.275687	-2.993700	3.644400	-10.909000	25.336016	0.000450	20.708853
1001.278658	-3.007000	3.643500	-10.955000	25.324860	0.000451	20.723257
1002.286067	-2.985500	3.642300	-10.873000	25.331496	0.000449	20.722333
1003.276916	-2.982200	3.642300	-10.861000	25.330276	0.000450	20.736756
1004.275940	-2.992100	3.641900	-10.896000	25.323763	0.000448	20.741122
1005.277564	-3.013200	3.641700	-10.971000	25.309074	0.000448	20.728270
1006.278849	-3.008500	3.641700	-10.955000	25.287872	0.000449	20.738277
1007.281731	-3.001800	3.640400	-10.927000	25.332931	0.000446	20.730887
1008.290505	-3.007900	3.640500	-10.950000	25.379209	0.000445	20.751277
1009.289379	-2.983700	3.640000	-10.859000	25.385048	0.000445	20.751450
1010.280833	-2.980500	3.640800	-10.851000	25.407192	0.000448	20.727217
1011.288038	-2.992800	3.641100	-10.896000	25.444097	0.000444	20.732507
1012.286799	-3.011900	3.639200	-10.960000	25.470042	0.000446	20.741966
1013.285433	-3.013500	3.638300	-10.963000	25.429233	0.000444	20.733702
1014.284114	-3.029800	3.638300	-11.023000	25.372440	0.000443	20.737367
1015.280146	-3.006600	3.636900	-10.934000	25.356709	0.000444	20.733425
1016.284110	-3.017400	3.638000	-10.976000	25.340703	0.000444	20.739639
1017.285587	-3.009200	3.638300	-10.948000	25.333767	0.000443	20.735993
1018.281369	-2.994700	3.638400	-10.894000	25.337949	0.000442	20.743038
1019.285237	-2.994700	3.638600	-10.896000	25.329817	0.000444	20.747675
1020.282498	-2.993100	3.638200	-10.889000	25.332036	0.000442	20.729514
1021.281979	-3.026700	3.636200	-11.005000	25.351245	0.000441	20.717506
1022.285896	-3.016400	3.637100	-10.970000	25.362622	0.000441	20.733672
1023.282954	-3.028500	3.635800	-11.010000	25.323536	0.000441	20.721453
1024.286088	-2.970100	3.636900	-10.800000	25.309393	0.000442	20.736651
1025.285207	-2.974700	3.635500	-10.814000	25.320200	0.000441	20.747503
1026.288202	-2.993900	3.637100	-10.888000	25.292619	0.000439	20.750630
1027.285566	-2.989800	3.635100	-10.867000	25.251502	0.000441	20.742539
1028.286119	-3.009200	3.635400	-10.939000	25.299869	0.000438	20.727088
1029.297023	-3.001700	3.635300	-10.911000	25.324199	0.000441	20.743457
1030.287253	-3.019700	3.634000	-10.973000	25.358249	0.000438	20.751567
1031.287613	-3.021600	3.632600	-10.974000	25.364663	0.000439	20.743309
1032.287037	-2.989100	3.634100	-10.862000	25.403679	0.000437	20.745976
1033.288153	-2.978400	3.634300	-10.823000	25.413123	0.000437	20.745502
1034.287950	-2.995000	3.633700	-10.882000	25.390709	0.000436	20.759031
1035.288214	-2.992800	3.633400	-10.873000	25.336005	0.000437	20.741086
1036.287182	-3.009600	3.632700	-10.932000	25.297723	0.000435	20.738685
1037.289761	-2.988800	3.632700	-10.857000	25.269615	0.000436	20.737490
1038.289714	-3.007600	3.632600	-10.924000	25.306254	0.000434	20.745828
1039.287903	-3.009300	3.631700	-10.928000	25.363762	0.000436	20.758052
1040.289464	-3.005300	3.631500	-10.913000	25.454283	0.000435	20.728511
1041.287061	-2.994700	3.631200	-10.874000	25.451622	0.000436	20.731054
1042.286695	-3.018500	3.631000	-10.958000	25.420660	0.000433	20.757811
1043.287622	-2.992500	3.631400	-10.866000	25.360959	0.000435	20.742909
1044.288621	-2.992400	3.631100	-10.864000	25.370404	0.000434	20.754289
1045.291490	-3.008100	3.630100	-10.919000	25.407089	0.000433	20.758409
1046.297850	-2.985700	3.629800	-10.837000	25.431446	0.000433	20.758685
1047.295412	-3.016200	3.628200	-10.943000	25.398644	0.000433	20.748032
1048.289991	-3.000900	3.629800	-10.892000	25.323034	0.000431	20.750822
1049.294937	-3.009900	3.628300	-10.919000	25.296514	0.000432	20.737945
1050.290758	-3.012000	3.627800	-10.925000	25.332656	0.000431	20.747207
1051.292676	-2.983200	3.627800	-10.822000	25.354900	0.000430	20.758162
1052.290483	-2.979300	3.628400	-10.810000	25.351747	0.000430	20.751203
1053.291830	-2.977900	3.628700	-10.805000	25.385471	0.000432	20.726269
1054.295136	-3.015300	3.626300	-10.933000	25.420837	0.000431	20.736177
1055.291467	-2.987700	3.629000	-10.842000	25.456901	0.000430	20.763858
1056.291824	-2.999100	3.626000	-10.874000	25.470392	0.000427	20.737575
1057.292179	-3.003000	3.626700	-10.890000	25.476186	0.000428	20.750033
1058.293215	-2.986200	3.627500	-10.831000	25.471243	0.000428	20.759768
1059.294967	-2.994500	3.626300	-10.858000	25.500248	0.000428	20.748117
1060.293509	-3.020100	3.624600	-10.946000	25.507183	0.000430	20.758875
1061.294543	-3.006600	3.625800	-10.900000	25.546267	0.000427	20.756874
1062.301247	-3.003400	3.625900	-10.889000	25.482832	0.000427	20.758129
1063.295590	-3.011000	3.624700	-10.913000	25.482404	0.000429	20.747267
1064.294758	-3.007800	3.625100	-10.902000	25.453557	0.000427	20.772828
1065.296327	-3.001300	3.625700	-10.881000	25.435645	0.000428	20.771436
1066.298415	-3.015600	3.622900	-10.925000	25.414341	0.000428	20.750044
1067.297065	-3.011500	3.622800	-10.910000	25.388223	0.000426	20.770759
1068.295795	-3.011100	3.623700	-10.910000	25.401223	0.000425	20.762476
1069.296235	-3.028200	3.622300	-10.968000	25.383274	0.000426	20.765790
1070.296102	-3.001800	3.623000	-10.875000	25.405621	0.000426	20.753615
1071.295362	-3.017200	3.621600	-10.927000	25.399727	0.000424	20.751491
1072.298921	-2.980400	3.622300	-10.795000	25.393613	0.000422	20.753412
1073.299422	-3.005100	3.621400	-10.882000	25.393215	0.000426	20.771030
1074.296017	-3.014900	3.621200	-10.917000	25.390952	0.000424	20.748843
1075.297452	-2.986100	3.622400	-10.816000	25.370126	0.000425	20.769657
1076.298177	-2.975600	3.622300	-10.778000	25.376092	0.000423	20.780390
1077.307647	-2.979900	3.620400	-10.787000	25.376737	0.000423	20.763967
1078.299383	-2.997900	3.619700	-10.851000	25.429170	0.000424	20.783901
1079.299299	-2.997600	3.620600	-10.852000	25.432899	0.000423	20.774843
1080.299556	-2.991000	3.619600	-10.825000	25.425019	0.000422	20.763137
1081.302582	-2.994000	3.619800	-10.837000	25.397656	0.000421	20.764584
1082.299104	-3.000800	3.618500	-10.858000	25.415667	0.000420	20.759436
1083.308061	-2.988100	3.620200	-10.816000	25.428013	0.000422	20.765195
1084.301726	-3.010700	3.619400	-10.896000	25.409149	0.000418	20.768539
1085.303722	-2.991200	3.620400	-10.828000	25.373679	0.000420	20.759000
1086.302567	-3.008100	3.617300	-10.881000	25.345223	0.000418	20.772154
1087.300326	-3.002000	3.618500	-10.862000	25.357121	0.000418	20.769876
1088.303507	-3.003400	3.617200	-10.863000	25.379763	0.000419	20.774119
1089.305085	-3.007500	3.616000	-10.874000	25.443603	0.000421	20.789859
1090.302826	-3.012300	3.617800	-10.897000	25.443180	0.000419	20.760510
1091.302543	-3.018300	3.615300	-10.912000	25.475937	0.000420	20.774914
1092.304078	-3.044100	3.616100	-11.007000	25.480501	0.000419	20.781867
1093.301044	-3.023800	3.614900	-10.930000	25.461939	0.000417	20.775081
1094.304679	-3.022500	3.615400	-10.927000	25.466453	0.000417	20.786252
1095.300974	-3.003700	3.614600	-10.857000	25.462105	0.000417	20.789947
1096.302883	-3.015200	3.615500	-10.900000	25.424147	0.000415	20.784073
1097.302942	-3.001600	3.614200	-10.848000	25.459629	0.000414	20.779400
1098.303523	-3.008700	3.614300	-10.873000	25.458415	0.000414	20.786241
1099.305886	-2.998100	3.614000	-10.834000	25.450903	0.000416	20.779172
1100.303267	-3.007000	3.615200	-10.869000	25.495140	0.000416	20.788982
1101.303454	-2.993400	3.614300	-10.818000	25.457263	0.000416	20.783188
1102.302544	-2.999900	3.613600	-10.839000	25.401697	0.000415	20.785238
1103.303158	-3.019900	3.613200	-10.911000	25.400024	0.000415	20.774075
1104.304187	-3.029500	3.611200	-10.939000	25.400515	0.000415	20.796853
1105.305327	-3.011900	3.612400	-10.879000	25.411278	0.000413	20.786797
1106.304258	-2.983300	3.612100	-10.775000	25.441026	0.000414	20.799599
1107.306550	-2.995200	3.612700	-10.819000	25.417662	0.000413	20.771871
1108.307110	-3.012900	3.609900	-10.876000	25.486497	0.000414	20.784095
1109.309413	-2.996100	3.612900	-10.824000	25.500288	0.000415	20.784668
1110.309315	-3.019600	3.609700	-10.897000	25.516095	0.000411	20.811922
1111.309237	-2.992700	3.609700	-10.802000	25.495566	0.000411	20.802686
1112.306118	-2.999700	3.609900	-10.829000	25.465593	0.000412	20.792975
1113.307755	-3.002700	3.609300	-10.837000	25.462091	0.000412	20.804631
1114.307783	-3.034000	3.608000	-10.945000	25.461269	0.000411	20.784366
1115.310114	-2.997900	3.609600	-10.821000	25.470192	0.000408	20.789058
1116.307599	-3.022500	3.608300	-10.905000	25.514772	0.000410	20.808696
1117.309741	-3.011100	3.608500	-10.865000	25.507536	0.000410	20.785783
1118.307085	-3.013600	3.608000	-10.872000	25.522812	0.000409	20.804442
1119.309380	-2.999600	3.607500	-10.820000	25.575598	0.000409	20.792021
1120.310598	-3.003600	3.608300	-10.837000	25.589890	0.000408	20.788357
1121.312383	-2.980200	3.607000	-10.749000	25.558130	0.000408	20.820470
1122.307141	-3.004900	3.607300	-10.839000	25.518500	0.000408	20.800586
1123.306952	-3.018100	3.607200	-10.886000	25.514398	0.000407	20.794096
1124.312250	-3.001600	3.607200	-10.826000	25.502943	0.000406	20.811516
1125.308914	-3.006700	3.607400	-10.846000	25.505874	0.000406	20.795020
1126.312874	-2.983200	3.606200	-10.756000	25.473399	0.000407	20.791805
1127.309169	-2.989800	3.604700	-10.777000	25.439948	0.000405	20.801836
1128.310689	-2.975500	3.606400	-10.730000	25.428296	0.000405	20.799619
1129.311879	-3.020200	3.604400	-10.885000	25.472411	0.000407	20.818313
1130.310698	-3.013600	3.604700	-10.862000	25.512888	0.000406	20.808701
1131.313859	-2.989700	3.605000	-10.777000	25.543534	0.000405	20.814822
1132.310250	-2.991600	3.605200	-10.785000	25.590153	0.000404	20.806164
1133.311360	-3.015300	3.603500	-10.863000	25.606731	0.000404	20.801477
1134.311873	-2.980500	3.605000	-10.744000	25.558465	0.000403	20.807531
1135.311374	-3.001500	3.603600	-10.816000	25.534269	0.000403	20.813103
1136.311553	-3.016800	3.603000	-10.868000	25.468491	0.000403	20.807265
1137.336617	-3.012000	3.602400	-10.849000	25.446452	0.000404	20.819273
1138.312174	-2.985500	3.602100	-10.753000	25.399049	0.000402	20.815296
1139.313111	-2.999800	3.602700	-10.807000	25.427436	0.000402	20.822463
1140.318355	-2.981500	3.601700	-10.736000	25.440461	0.000402	20.813731
1141.317499	-3.002300	3.600800	-10.810000	25.483999	0.000402	20.825683
1142.316158	-3.004200	3.600300	-10.815000	25.537727	0.000401	20.805196
1143.315886	-2.995600	3.600200	-10.784000	25.601956	0.000402	20.814698
1144.313210	-2.977800	3.600700	-10.721000	25.580912	0.000400	20.825332
1145.317690	-3.006600	3.600000	-10.822000	25.566650	0.000399	20.817647
1146.313260	-2.995200	3.600600	-10.784000	25.562873	0.000400	20.846096
1147.314133	-3.002500	3.599000	-10.804000	25.531540	0.000400	20.832647
1148.313779	-2.992700	3.600000	-10.773000	25.548684	0.000401	20.814778
1149.313954	-3.005200	3.599400	-10.816000	25.499280	0.000396	20.814476
1150.330918	-3.003400	3.599100	-10.809000	25.529823	0.000397	20.826182
1151.315012	-3.007700	3.598200	-10.822000	25.557311	0.000397	20.830079
1152.313660	-3.007200	3.597800	-10.819000	25.504455	0.000399	20.821095
1153.314122	-3.000000	3.598300	-10.794000	25.542877	0.000398	20.818903
1154.313282	-2.996100	3.597600	-10.778000	25.551419	0.000396	20.830326
1155.313003	-3.022400	3.597000	-10.871000	25.498366	0.000396	20.809291
1156.313753	-2.983300	3.597100	-10.731000	25.493448	0.000395	20.823792
1157.316348	-2.967000	3.597000	-10.672000	25.494515	0.000395	20.813010
1158.315315	-2.989500	3.596200	-10.750000	25.562363	0.000396	20.839894
1159.312559	-3.007700	3.595600	-10.812000	25.560223	0.000393	20.814512
1160.313131	-3.006300	3.596100	-10.810000	25.560995	0.000396	20.815762
1161.315287	-3.015000	3.595100	-10.838000	25.569371	0.000394	20.826544
1162.313872	-3.002300	3.595100	-10.793000	25.558389	0.000392	20.833058
1163.316594	-3.013600	3.595000	-10.833000	25.598146	0.000392	20.821304
1164.313300	-3.012300	3.594200	-10.826000	25.586496	0.000394	20.833311
1165.313198	-2.975200	3.594800	-10.694000	25.593253	0.000393	20.825872
1166.312159	-3.014000	3.593400	-10.829000	25.579444	0.000393	20.821961
1167.312959	-3.011000	3.593700	-10.819000	25.499824	0.000393	20.816918
1168.316543	-2.973600	3.594300	-10.687000	25.482703	0.000392	20.848088
1169.312499	-3.032000	3.591400	-10.888000	25.536897	0.000393	20.827122
1170.314453	-2.994400	3.592300	-10.756000	25.578249	0.000391	20.848261
1171.316079	-2.998700	3.591000	-10.768000	25.591094	0.000391	20.858316
1172.315724	-3.003100	3.592300	-10.787000	25.537320	0.000392	20.833711
1173.320088	-3.020900	3.591300	-10.848000	25.543213	0.000390	20.815447
1174.315577	-2.991500	3.591100	-10.742000	25.549804	0.000390	20.837238
1175.315689	-2.986400	3.591800	-10.726000	25.563293	0.000390	20.827078
1176.317283	-3.015000	3.589800	-10.823000	25.535069	0.000391	20.859424
1177.331797	-2.991100	3.589600	-10.737000	25.581504	0.000391	20.830669
1178.317552	-2.999500	3.589500	-10.765000	25.590647	0.000388	20.827522
1179.318153	-2.993000	3.588900	-10.741000	25.622284	0.000390	20.846493
1180.316688	-3.009500	3.589000	-10.799000	25.615197	0.000388	20.854548
1181.316937	-2.994800	3.588900	-10.747000	25.625141	0.000388	20.847466
1182.322362	-2.978400	3.589800	-10.691000	25.590205	0.000389	20.849363
1183.318078	-2.990100	3.588300	-10.729000	25.557426	0.000387	20.849634
1184.321943	-3.007700	3.587800	-10.790000	25.542544	0.000387	20.843698
1185.320338	-3.022100	3.587500	-10.841000	25.555046	0.000385	20.850563
1186.322014	-2.996500	3.587200	-10.748000	25.571418	0.000386	20.858470
1187.325279	-3.010500	3.586800	-10.797000	25.586605	0.000386	20.854756
1188.321529	-3.007700	3.586700	-10.787000	25.617317	0.000385	20.836290
1189.322595	-2.993400	3.586500	-10.735000	25.586550	0.000386	20.839055
1190.325963	-3.000000	3.586600	-10.759000	25.617691	0.000383	20.834769
1191.323423	-2.996500	3.587200	-10.748000	25.618237	0.000386	20.864713
1192.325865	-2.996900	3.586400	-10.747000	25.613123	0.000384	20.853888
1193.323766	-3.002200	3.585700	-10.763000	25.577837	0.000383	20.844528
1194.327175	-2.991600	3.585600	-10.726000	25.577886	0.000384	20.858802
1195.324932	-2.993700	3.585400	-10.733000	25.649800	0.000383	20.843309
1196.324643	-2.997300	3.584200	-10.742000	25.659064	0.000382	20.843605
1197.324298	-3.015300	3.583100	-10.803000	25.664887	0.000382	20.853246
1198.322354	-2.969500	3.584000	-10.642000	25.639051	0.000383	20.843893
1199.330266	-3.016100	3.584000	-10.808000	25.625059	0.000379	20.861608
1200.330019	-3.009600	3.582800	-10.781000	25.641485	0.000382	20.859139
1201.323282	-3.013500	3.582400	-10.795000	25.678510	0.000381	20.841325
1202.324898	-3.007800	3.582200	-10.773000	25.712150	0.000379	20.871792
1203.328831	-3.017100	3.583100	-10.809000	25.716625	0.000380	20.859693
1204.325390	-3.006300	3.582300	-10.768000	25.692162	0.000379	20.864993
1205.330538	-3.009800	3.580400	-10.776000	25.705055	0.000378	20.858503
1206.325809	-3.007300	3.582800	-10.773000	25.701402	0.000379	20.869531
1207.327162	-3.009400	3.580300	-10.774000	25.687417	0.000379	20.860227
1208.325807	-2.998000	3.580200	-10.732000	25.619416	0.000378	20.856415
1209.327143	-2.999600	3.579900	-10.737000	25.561916	0.000378	20.866470
1210.327699	-2.998600	3.580900	-10.737000	25.575981	0.000379	20.886285
1211.325951	-3.002600	3.580300	-10.749000	25.633304	0.000379	20.866095
1212.328654	-2.982200	3.579900	-10.676000	25.672095	0.000378	20.854321
1213.326283	-3.003700	3.580000	-10.753000	25.673094	0.000377	20.866703
1214.328183	-2.987800	3.578900	-10.692000	25.652818	0.000378	20.871469
1215.328696	-2.965800	3.578500	-10.612000	25.621512	0.000376	20.869425
1216.330162	-2.982800	3.578500	-10.673000	25.581653	0.000375	20.854524
1217.328572	-2.980900	3.579500	-10.669000	25.570897	0.000377	20.873593
1218.326982	-2.986600	3.577700	-10.685000	25.620238	0.000374	20.872412
1219.328364	-2.985100	3.578300	-10.681000	25.631353	0.000374	20.880730
1220.331751	-2.986400	3.577200	-10.682000	25.620145	0.000376	20.873741
1221.334376	-3.021600	3.575500	-10.803000	25.612837	0.000374	20.867350
1222.328742	-3.004600	3.576800	-10.745000	25.609611	0.000373	20.868852
1223.337530	-3.009100	3.574800	-10.756000	25.605491	0.000374	20.883205
1224.331944	-2.984600	3.575900	-10.671000	25.638459	0.000373	20.888814
1225.329938	-2.980000	3.576600	-10.658000	25.640495	0.000374	20.869998
1226.334438	-2.999500	3.574400	-10.721000	25.628820	0.000372	20.870127
1227.335582	-2.980600	3.576800	-10.660000	25.623878	0.000372	20.874172
1228.339252	-3.007800	3.574400	-10.750000	25.654087	0.000372	20.867528
1229.331879	-2.977300	3.574700	-10.642000	25.680131	0.000373	20.904589
1230.334960	-2.989300	3.575100	-10.686000	25.661695	0.000370	20.867109
1231.331699	-2.986200	3.573700	-10.670000	25.689646	0.000372	20.889491
1232.336898	-3.005500	3.572600	-10.736000	25.679285	0.000372	20.889990
1233.331972	-2.993300	3.573100	-10.694000	25.660751	0.000369	20.878014
1234.333519	-2.996000	3.572700	-10.703000	25.651162	0.000368	20.875970
1235.335511	-3.014800	3.572600	-10.770000	25.651009	0.000368	20.872497
1236.333576	-3.008600	3.572600	-10.747000	25.697721	0.000369	20.890015
1237.336404	-2.973500	3.572800	-10.623000	25.716726	0.000367	20.871173
1238.337603	-2.980900	3.572500	-10.648000	25.721998	0.000368	20.876468
1239.334599	-3.007900	3.571300	-10.741000	25.720410	0.000366	20.863968
1240.336548	-3.026100	3.570300	-10.803000	25.710246	0.000366	20.874147
1241.334571	-3.015700	3.570700	-10.767000	25.699039	0.000368	20.876167
1242.334559	-2.998900	3.570400	-10.706000	25.701429	0.000366	20.858180
1243.337819	-3.005600	3.570500	-10.730000	25.675067	0.000366	20.864892
1244.334206	-2.991800	3.570800	-10.681000	25.677078	0.000366	20.855533
1245.333679	-3.021700	3.568800	-10.784000	25.652829	0.000365	20.852515
1246.339777	-3.000400	3.568400	-10.705000	25.618912	0.000365	20.863494
1247.336237	-3.001000	3.569500	-10.711000	25.617520	0.000366	20.857830
1248.337915	-3.008600	3.567700	-10.733000	25.662099	0.000366	20.863248
1249.337199	-3.016100	3.567900	-10.761000	25.696610	0.000366	20.855237
1250.338030	-3.019300	3.566500	-10.768000	25.708014	0.000365	20.850095
1251.339310	-3.031600	3.567300	-10.813000	25.736982	0.000366	20.846949
1252.338807	-2.994600	3.567900	-10.683000	25.696138	0.000363	20.847651
1253.335517	-2.997200	3.567300	-10.691000	25.665453	0.000365	20.843858
1254.337499	-3.013300	3.567500	-10.749000	25.678254	0.000364	20.853869
1255.338442	-3.004300	3.565900	-10.712000	25.676838	0.000362	20.837749
1256.338159	-3.034100	3.565400	-10.817000	25.731151	0.000362	20.859110
1257.338197	-2.998000	3.566200	-10.691000	25.730065	0.000361	20.854226
1258.339490	-2.996700	3.565500	-10.683000	25.735601	0.000360	20.863580
1259.336980	-3.019900	3.565300	-10.766000	25.751779	0.000362	20.830045
1260.338667	-3.025100	3.565700	-10.785000	25.752625	0.000362	20.846067
1261.339851	-3.011900	3.564300	-10.735000	25.731383	0.000361	20.849860
1262.340641	-3.012600	3.563600	-10.734000	25.674158	0.000358	20.856868
1263.353605	-3.013900	3.564000	-10.740000	25.668793	0.000359	20.854799
1264.340405	-2.980300	3.564200	-10.622000	25.626930	0.000360	20.839780
1265.341103	-2.995800	3.563500	-10.675000	25.645666	0.000357	20.829675
1266.341194	-2.993300	3.562900	-10.663000	25.621314	0.000359	20.837459
1267.340930	-2.996100	3.563800	-10.676000	25.665770	0.000359	20.835167
1268.342787	-2.992800	3.563200	-10.663000	25.688351	0.000359	20.835562
1269.346399	-3.026700	3.560300	-10.775000	25.688326	0.000357	20.817520
1270.342330	-2.997300	3.561500	-10.674000	25.680306	0.000357	20.843129
1271.343252	-2.993500	3.560300	-10.657000	25.656377	0.000358	20.838062
1272.341602	-3.012600	3.562700	-10.732000	25.647211	0.000356	20.846399
1273.343335	-3.020600	3.561500	-10.757000	25.629419	0.000355	20.831374
1274.341612	-3.000400	3.559400	-10.678000	25.608247	0.000358	20.847569
1275.342378	-2.993200	3.560700	-10.657000	25.625721	0.000356	20.842359
1276.344025	-3.010500	3.559000	-10.714000	25.669301	0.000354	20.832076
1277.343878	-3.016600	3.560000	-10.738000	25.660632	0.000355	20.834274
1278.344988	-3.011400	3.559600	-10.718000	25.659707	0.000353	20.844250
1279.347278	-3.010400	3.559600	-10.715000	25.691434	0.000355	20.830599
1280.345090	-3.014000	3.558700	-10.725000	25.720212	0.000353	20.815407
1281.342846	-2.993400	3.557500	-10.648000	25.756830	0.000353	20.827058
1282.345572	-2.986500	3.558700	-10.627000	25.754740	0.000352	20.845820
1283.347335	-2.994900	3.557900	-10.654000	25.705223	0.000351	20.829275
1284.346418	-3.011600	3.557000	-10.712000	25.707730	0.000351	20.836535
1285.346550	-3.004500	3.557100	-10.686000	25.677971	0.000353	20.832249
1286.347462	-3.002800	3.557200	-10.680000	25.686610	0.000351	20.821960
1287.345718	-2.965800	3.556500	-10.547000	25.696818	0.000353	20.830790
1288.347682	-2.992800	3.556900	-10.645000	25.708025	0.000351	20.825926
1289.361530	-3.002500	3.556000	-10.676000	25.719128	0.000352	20.834707
1290.351970	-2.998600	3.555400	-10.661000	25.694654	0.000351	20.824350
1291.350702	-3.001200	3.554600	-10.667000	25.706548	0.000351	20.824443
1292.354671	-3.013500	3.555600	-10.714000	25.708510	0.000350	20.832577
1293.350153	-2.996000	3.554900	-10.649000	25.710025	0.000349	20.809443
1294.351411	-3.016100	3.555000	-10.721000	25.724812	0.000351	20.819553
1295.354284	-2.996100	3.553300	-10.645000	25.727791	0.000349	20.818753
1296.350922	-3.000300	3.553500	-10.661000	25.741732	0.000350	20.821376
1297.357618	-3.024000	3.552900	-10.742000	25.753154	0.000348	20.826685
1298.353069	-3.006600	3.552100	-10.679000	25.698168	0.000349	20.814603
1299.350566	-3.019200	3.551900	-10.723000	25.724279	0.000347	20.818545
1300.357453	-3.006900	3.551700	-10.679000	25.684552	0.000348	20.824634
1301.355034	-3.000100	3.553600	-10.660000	25.664320	0.000348	20.820910
1302.353083	-3.006900	3.552400	-10.681000	25.669090	0.000346	20.824278
1303.351899	-3.006600	3.550100	-10.674000	25.688765	0.000346	20.799943
1304.350775	-3.010600	3.550200	-10.687000	25.718923	0.000348	20.814113
1305.353115	-3.004300	3.550200	-10.666000	25.740790	0.000347	20.821378
1306.355545	-3.011900	3.549600	-10.690000	25.768537	0.000345	20.805153
1307.350703	-3.031300	3.548300	-10.755000	25.766374	0.000347	20.811514
1308.355888	-3.013300	3.550100	-10.696000	25.764486	0.000344	20.803928
1309.358799	-2.999300	3.548600	-10.643000	25.792134	0.000347	20.819846
1310.353542	-3.014400	3.548000	-10.695000	25.806516	0.000344	20.808688
1311.355247	-3.021000	3.548600	-10.720000	25.768447	0.000346	20.816916
1312.353043	-3.002800	3.548700	-10.655000	25.791228	0.000343	20.814194
1313.354199	-3.021500	3.547800	-10.719000	25.774455	0.000345	20.800192
1314.354835	-2.990800	3.549800	-10.616000	25.793405	0.000344	20.832502
1315.355382	-2.992400	3.548400	-10.617000	25.806180	0.000343	20.825420
1316.360112	-2.986100	3.548200	-10.594000	25.790818	0.000343	20.830852
1317.356640	-3.003300	3.546300	-10.649000	25.732978	0.000343	20.822066
1318.356327	-2.997700	3.546500	-10.630000	25.708553	0.000341	20.824086
1319.358987	-3.018800	3.545600	-10.703000	25.727283	0.000342	20.808759
1320.354141	-2.987700	3.545200	-10.591000	25.744479	0.000342	20.801376
1321.354914	-2.997900	3.546000	-10.629000	25.783702	0.000340	20.817066
1322.357754	-2.986200	3.545300	-10.586000	25.797318	0.000341	20.801346
1323.355350	-2.979200	3.544900	-10.560000	25.806281	0.000341	20.818884
1324.356916	-3.001300	3.544800	-10.638000	25.791225	0.000341	20.808027
1325.359076	-2.992900	3.544900	-10.608000	25.781852	0.000337	20.811415
1326.357793	-2.994200	3.544900	-10.613000	25.735095	0.000340	20.803330
1327.365628	-3.016400	3.543400	-10.688000	25.739234	0.000339	20.809384
1328.367755	-2.980400	3.544400	-10.562000	25.729277	0.000338	20.813608
1329.360182	-2.995100	3.544000	-10.614000	25.701616	0.000338	20.821860
1330.361187	-3.010700	3.541700	-10.661000	25.729487	0.000340	20.817137
1331.360546	-3.012800	3.542800	-10.672000	25.749265	0.000336	20.815192
1332.358849	-2.999100	3.542200	-10.622000	25.738899	0.000335	20.828013
1333.363606	-3.013000	3.541800	-10.671000	25.724712	0.000336	20.822772
1334.359868	-2.997500	3.541600	-10.616000	25.755016	0.000336	20.811012
1335.361475	-3.038400	3.538600	-10.751000	25.752386	0.000334	20.803154
1336.367379	-2.976300	3.541100	-10.538000	25.752381	0.000336	20.802675
1337.361235	-3.006500	3.539300	-10.639000	25.737919	0.000336	20.807115
1338.364729	-3.005600	3.540000	-10.638000	25.775756	0.000335	20.823309
1339.361563	-2.999900	3.540400	-10.620000	25.762037	0.000337	20.824702
1340.362041	-3.007200	3.539800	-10.644000	25.761289	0.000335	20.800718
1341.363607	-3.013700	3.538600	-10.664000	25.683123	0.000333	20.806131
1342.363753	-2.992200	3.538700	-10.588000	25.685252	0.000335	20.813958
1343.361509	-3.008300	3.538100	-10.642000	25.667460	0.000331	20.806520
1344.363010	-3.014000	3.537000	-10.660000	25.669147	0.000336	20.814852
1345.363613	-3.020800	3.536800	-10.683000	25.683535	0.000332	20.800380
1346.362963	-3.005300	3.537300	-10.630000	25.741963	0.000332	20.803116
1347.363955	-3.003100	3.536500	-10.619000	25.765688	0.000331	20.789014
1348.368079	-2.983500	3.536400	-10.550000	25.720837	0.000330	20.813191
1349.369794	-2.978200	3.538400	-10.537000	25.687762	0.000329	20.779970
1350.366231	-3.015600	3.535800	-10.662000	25.632400	0.000330	20.804023
1351.371305	-3.016600	3.537300	-10.670000	25.621388	0.000330	20.801973
1352.368083	-3.000300	3.536000	-10.607000	25.626827	0.000329	20.819289
1353.371946	-2.997900	3.535600	-10.599000	25.645651	0.000329	20.789357
1354.367607	-2.967500	3.535800	-10.491000	25.701032	0.000330	20.820799
1355.366509	-2.973700	3.535900	-10.514000	25.766427	0.000327	20.806827
1356.364895	-2.978100	3.534200	-10.525000	25.766146	0.000328	20.800855
1357.363914	-2.978000	3.534300	-10.525000	25.784330	0.000327	20.802524
1358.367118	-2.982300	3.533800	-10.538000	25.818065	0.000326	20.792789
1359.364598	-2.973200	3.533200	-10.504000	25.775061	0.000325	20.814550
1360.366011	-2.980900	3.533300	-10.531000	25.745011	0.000326	20.807126
1361.366914	-2.985700	3.533300	-10.548000	25.704763	0.000326	20.806054
1362.368556	-2.989100	3.531900	-10.556000	25.672588	0.000325	20.804558
1363.366752	-2.977200	3.532000	-10.514000	25.631584	0.000323	20.782341
1364.374626	-3.009300	3.532200	-10.629000	25.658873	0.000325	20.794576
1365.368697	-2.989700	3.532400	-10.560000	25.728262	0.000325	20.790777
1366.368453	-2.993300	3.531900	-10.571000	25.750351	0.000325	20.790678
1367.370551	-2.980900	3.531200	-10.525000	25.730623	0.000324	20.797415
1368.367180	-3.004100	3.528900	-10.599000	25.741431	0.000324	20.782667
1369.375394	-3.015900	3.529500	-10.644000	25.739837	0.000323	20.805723
1370.368186	-3.010200	3.530200	-10.626000	25.733602	0.000322	20.785235
1371.373222	-3.016200	3.529000	-10.644000	25.739818	0.000322	20.788160
1372.371911	-3.002100	3.529300	-10.595000	25.737458	0.000322	20.788160
1373.375435	-2.987900	3.528000	-10.540000	25.714051	0.000321	20.791676
1374.373292	-3.023300	3.527400	-10.664000	25.694647	0.000321	20.794946
1375.376449	-2.978200	3.527600	-10.506000	25.750007	0.000320	20.783221
1376.373450	-3.001900	3.526500	-10.586000	25.791424	0.000320	20.787839
1377.373847	-2.987800	3.526900	-10.536000	25.825238	0.000320	20.801891
1378.374566	-3.000900	3.526600	-10.582000	25.833060	0.000319	20.790308
1379.373187	-3.000800	3.527300	-10.584000	25.804125	0.000321	20.784950
1380.373046	-3.014600	3.524600	-10.624000	25.787205	0.000321	20.790714
1381.374796	-3.011400	3.524800	-10.613000	25.795004	0.000319	20.800918
1382.376265	-2.991800	3.525700	-10.548000	25.787953	0.000320	20.766809
1383.377310	-2.991700	3.525300	-10.546000	25.806613	0.000319	20.777966
1384.373991	-2.997100	3.525200	-10.565000	25.804750	0.000319	20.788897
1385.378550	-2.989200	3.525700	-10.538000	25.823557	0.000319	20.767011
1386.374106	-2.994600	3.524700	-10.553000	25.850830	0.000317	20.795831
1387.377925	-2.978300	3.524900	-10.497000	25.833371	0.000318	20.762171
1388.375577	-3.007600	3.523600	-10.596000	25.808158	0.000318	20.785682
1389.377268	-3.007600	3.524300	-10.598000	25.760777	0.000316	20.783133
1390.391708	-2.996200	3.522800	-10.554000	25.716005	0.000316	20.792216
1391.376687	-3.002700	3.522900	-10.577000	25.659448	0.000317	20.772394
1392.375189	-3.011500	3.522200	-10.607000	25.692549	0.000313	20.768182
1393.376431	-3.024200	3.521000	-10.648000	25.683200	0.000317	20.789612
1394.375292	-2.975200	3.521700	-10.477000	25.707650	0.000316	20.780504
1395.380452	-2.986800	3.521800	-10.518000	25.731370	0.000316	20.778726
1396.377182	-2.995600	3.521100	-10.547000	25.759025	0.000315	20.766200
1397.375509	-2.999300	3.520400	-10.557000	25.748886	0.000314	20.782568
1398.378510	-3.000700	3.519600	-10.560000	25.709527	0.000313	20.773855
1399.380147	-2.996000	3.519400	-10.543000	25.665698	0.000313	20.770136
1400.375873	-3.001300	3.519300	-10.562000	25.662038	0.000314	20.796807
1401.384320	-2.980600	3.519500	-10.489000	25.645245	0.000314	20.778043
1402.376739	-2.988800	3.518700	-10.516000	25.664399	0.000313	20.768832
1403.390551	-2.999600	3.519000	-10.555000	25.712373	0.000311	20.772447
1404.382161	-2.983500	3.518500	-10.497000	25.737284	0.000312	20.774708
1405.377638	-2.993900	3.517900	-10.531000	25.768120	0.000312	20.777232
1406.379983	-3.005000	3.516800	-10.567000	25.808985	0.000311	20.808324
1407.382151	-3.001600	3.517500	-10.558000	25.819236	0.000312	20.767412
1408.378677	-3.009100	3.515800	-10.578000	25.779340	0.000311	20.799882
1409.379599	-2.987100	3.515900	-10.502000	25.752551	0.000311	20.776767
1410.379507	-2.974100	3.515700	-10.454000	25.715283	0.000308	20.780585
1411.380478	-2.989500	3.516800	-10.512000	25.709569	0.000309	20.766310
1412.381825	-3.004200	3.515500	-10.560000	25.750952	0.000307	20.778480
1413.378342	-2.991600	3.515000	-10.514000	25.754846	0.000309	20.782391
1414.379928	-2.998000	3.515700	-10.539000	25.775296	0.000308	20.764526
1415.384928	-2.994000	3.513700	-10.520000	25.810044	0.000307	20.781413
1416.381051	-2.997800	3.512800	-10.529000	25.766366	0.000308	20.768358
1417.384644	-3.003700	3.512800	-10.551000	25.734989	0.000306	20.770033
1418.384713	-2.977700	3.514700	-10.465000	25.695748	0.000307	20.760963
1419.382315	-3.003000	3.512000	-10.546000	25.731423	0.000308	20.758390
1420.384909	-2.977500	3.513000	-10.459000	25.772590	0.000306	20.765127
1421.384363	-2.993300	3.512700	-10.514000	25.771321	0.000308	20.766697
1422.390038	-2.988200	3.511600	-10.492000	25.745266	0.000303	20.760440
1423.387757	-2.986900	3.512600	-10.491000	25.771395	0.000306	20.780996
1424.386644	-2.988400	3.511100	-10.492000	25.789859	0.000306	20.773465
1425.384621	-2.994400	3.510100	-10.510000	25.810972	0.000305	20.771913
1426.391068	-2.992700	3.509900	-10.503000	25.793035	0.000304	20.769068
1427.389024	-3.007600	3.509300	-10.554000	25.803867	0.000302	20.769044
1428.385902	-2.998900	3.510600	-10.527000	25.811395	0.000303	20.754794
1429.383670	-2.983600	3.509800	-10.471000	25.845129	0.000304	20.751223
1430.385566	-3.008600	3.508700	-10.556000	25.833181	0.000302	20.746807
1431.389447	-3.001100	3.509900	-10.533000	25.818082	0.000303	20.749657
1432.387884	-3.013500	3.509000	-10.574000	25.798871	0.000301	20.753593
1433.390349	-3.015200	3.509200	-10.580000	25.746278	0.000301	20.755767
1434.395259	-3.002100	3.506700	-10.526000	25.713067	0.000302	20.753703
1435.388775	-2.994500	3.507400	-10.502000	25.676737	0.000299	20.767473
1436.390496	-2.989400	3.508700	-10.488000	25.696411	0.000302	20.747879
1437.387997	-3.007500	3.506200	-10.544000	25.772964	0.000299	20.769770
1438.389693	-3.017700	3.506200	-10.580000	25.826278	0.000299	20.759788
1439.391071	-2.993600	3.505600	-10.493000	25.829754	0.000298	20.740994
1440.390872	-2.983900	3.506600	-10.462000	25.856119	0.000298	20.775539
1441.390330	-3.008600	3.504900	-10.544000	25.873877	0.000298	20.747859
1442.391180	-3.000900	3.505500	-10.519000	25.846078	0.000299	20.755496
1443.391046	-2.962900	3.505300	-10.385000	25.803523	0.000299	20.745464
1444.397621	-3.000600	3.504500	-10.514000	25.801610	0.000297	20.760613
1445.393193	-3.011300	3.503000	-10.548000	25.811597	0.000297	20.754997
1446.392964	-2.990300	3.505300	-10.481000	25.795474	0.000299	20.742120
1447.391783	-2.999500	3.502400	-10.505000	25.812786	0.000299	20.747182
1448.391918	-2.985100	3.503500	-10.457000	25.826033	0.000297	20.747213
1449.390876	-2.991900	3.503400	-10.481000	25.818377	0.000297	20.740470
1450.396295	-3.001300	3.502400	-10.510000	25.818175	0.000296	20.755441
1451.393371	-3.001600	3.502000	-10.511000	25.805259	0.000296	20.722076
1452.394534	-3.018600	3.500100	-10.565000	25.766429	0.000297	20.739023
1453.396053	-3.004600	3.502700	-10.524000	25.757804	0.000294	20.759758
1454.394136	-2.999500	3.500500	-10.499000	25.738395	0.000295	20.754013
1455.397554	-2.975600	3.500800	-10.416000	25.741926	0.000295	20.745231
1456.394485	-3.011200	3.499000	-10.535000	25.728861	0.000295	20.737798
1457.395066	-3.034700	3.498800	-10.616000	25.744109	0.000296	20.747898
1458.394513	-3.015600	3.499900	-10.553000	25.781371	0.000296	20.745497
1459.395044	-3.002500	3.499200	-10.505000	25.804156	0.000293	20.731875
1460.398066	-3.008300	3.498600	-10.524000	25.851211	0.000293	20.729356
1461.399284	-3.012100	3.497200	-10.533000	25.875327	0.000294	20.755005
1462.395734	-3.001400	3.498400	-10.499000	25.888671	0.000293	20.748496
1463.395867	-2.985600	3.499600	-10.448000	25.891074	0.000292	20.742375
1464.396612	-3.000900	3.498400	-10.497000	25.887672	0.000292	20.738483
1465.395041	-2.981900	3.498700	-10.432000	25.860517	0.000291	20.735860
1466.398985	-3.010900	3.497300	-10.529000	25.771581	0.000292	20.727128
1467.395555	-2.974500	3.497100	-10.401000	25.723328	0.000292	20.749784
1468.401221	-2.985800	3.496400	-10.438000	25.744595	0.000291	20.737480
1469.397935	-3.001200	3.495700	-10.489000	25.734185	0.000289	20.718962
1470.399863	-2.966900	3.496800	-10.374000	25.732027	0.000290	20.732442
1471.403422	-2.975200	3.495600	-10.398000	25.769766	0.000289	20.736211
1472.401702	-2.999500	3.496000	-10.485000	25.773965	0.000289	20.742800
1473.398570	-2.964100	3.495500	-10.360000	25.745146	0.000287	20.742775
1474.401436	-2.983400	3.495600	-10.428000	25.751062	0.000288	20.736389
1475.397075	-3.013800	3.494100	-10.529000	25.770686	0.000285	20.731445
1476.400091	-2.985300	3.494200	-10.429000	25.783087	0.000287	20.733470
1477.399321	-2.995600	3.494000	-10.465000	25.789646	0.000287	20.724411
1478.397913	-3.001200	3.492500	-10.480000	25.768252	0.000286	20.741802
1479.406343	-2.977200	3.494400	-10.402000	25.830167	0.000286	20.736192
1480.400090	-3.007700	3.492500	-10.504000	25.862563	0.000286	20.736493
1481.400187	-2.989800	3.493100	-10.443000	25.828461	0.000285	20.734004
1482.399634	-2.978300	3.491900	-10.398000	25.836284	0.000285	20.742811
1483.399237	-2.996100	3.491400	-10.459000	25.827768	0.000285	20.720505
1484.398386	-2.985000	3.490200	-10.417000	25.801065	0.000283	20.737778
1485.400271	-2.992600	3.491900	-10.449000	25.804167	0.000284	20.729989
1486.400578	-2.984300	3.490900	-10.417000	25.800151	0.000284	20.728325
1487.401541	-2.995600	3.489900	-10.453000	25.739503	0.000285	20.739004
1488.401126	-2.993600	3.489600	-10.445000	25.773245	0.000283	20.739231
1489.402348	-2.966900	3.490400	-10.355000	25.776082	0.000283	20.749668
1490.403350	-2.996600	3.489700	-10.456000	25.767266	0.000283	20.730380
1491.408388	-3.004200	3.487800	-10.477000	25.737153	0.000284	20.739488
1492.402335	-2.983600	3.489000	-10.409000	25.784516	0.000282	20.730638
1493.402339	-2.999600	3.487500	-10.460000	25.806824	0.000281	20.725071
1494.402205	-2.995400	3.486700	-10.444000	25.829978	0.000282	20.713241
1495.402462	-2.985300	3.487800	-10.412000	25.815124	0.000283	20.736254
1496.402424	-2.986300	3.487400	-10.412000	25.839767	0.000281	20.710747
1497.407100	-3.006300	3.486600	-10.480000	25.854994	0.000283	20.736476
1498.400545	-2.983200	3.487800	-10.404000	25.865256	0.000284	20.731137
1499.404077	-2.982900	3.487500	-10.403000	25.850004	0.000281	20.745688
1500.406950	-2.977800	3.485500	-10.379000	25.859174	0.000280	20.747313
1501.403852	-3.008600	3.484900	-10.484000	25.815075	0.000279	20.743317
1502.409133	-2.993400	3.485600	-10.432000	25.781236	0.000280	20.729240
1503.405211	-2.984300	3.485300	-10.400000	25.742509	0.000279	20.732540
1504.405330	-3.011800	3.484200	-10.493000	25.779304	0.000279	20.729196
1505.404809	-2.994200	3.484400	-10.433000	25.822799	0.000278	20.730687
1506.405815	-3.000000	3.484200	-10.452000	25.845486	0.000277	20.748736
1507.410655	-2.989800	3.484500	-10.417000	25.801318	0.000279	20.714324
1508.404910	-2.988800	3.483800	-10.412000	25.735330	0.000278	20.717267
1509.404745	-2.985900	3.483200	-10.399000	25.701115	0.000278	20.730317
1510.405531	-2.984300	3.483400	-10.394000	25.749639	0.000278	20.759617
1511.406967	-2.987700	3.481300	-10.399000	25.849930	0.000279	20.728070
1512.406723	-2.986000	3.482900	-10.399000	25.857704	0.000277	20.737775
1513.407817	-2.996000	3.480400	-10.426000	25.872415	0.000277	20.752554
1514.407495	-3.003500	3.480700	-10.454000	25.897577	0.000276	20.733735
1515.414210	-2.972700	3.481800	-10.349000	25.890571	0.000277	20.746612
1516.409278	-2.980700	3.481800	-10.377000	25.826955	0.000275	20.734387
1517.406516	-2.981600	3.480600	-10.376000	25.835224	0.000274	20.728944
1518.408847	-3.004500	3.479100	-10.451000	25.871814	0.000275	20.743890
1519.407945	-2.988300	3.479800	-10.397000	25.832540	0.000274	20.739998
1520.406607	-2.993100	3.479100	-10.412000	25.818532	0.000274	20.738729
1521.408094	-3.015600	3.479100	-10.491000	25.840520	0.000273	20.753231
1522.408042	-2.994800	3.478800	-10.417000	25.770237	0.000272	20.765135
1523.410431	-2.999400	3.479400	-10.435000	25.760551	0.000274	20.751137
1524.409867	-2.983800	3.479300	-10.380000	25.816226	0.000272	20.737361
1525.408351	-3.014800	3.476700	-10.481000	25.819781	0.000271	20.731449
1526.408161	-3.021300	3.477400	-10.506000	25.788235	0.000271	20.736270
1527.410787	-3.022400	3.477000	-10.508000	25.772922	0.000274	20.747916
1528.407171	-2.995200	3.477500	-10.415000	25.764425	0.000271	20.729898
1529.411571	-3.034400	3.475000	-10.544000	25.770365	0.000270	20.741555
1530.410751	-3.018500	3.475300	-10.490000	25.810537	0.000272	20.734017
1531.409897	-3.004300	3.476000	-10.442000	25.827800	0.000272	20.740927
1532.412864	-3.035100	3.475700	-10.548000	25.874804	0.000273	20.734565
1533.416217	-3.007600	3.475600	-10.452000	25.934446	0.000270	20.748489
1534.418305	-2.993300	3.474000	-10.397000	25.903449	0.000267	20.757652
1535.410911	-2.996600	3.475200	-10.412000	25.906359	0.000269	20.744455
1536.414074	-3.017100	3.474000	-10.480000	25.944756	0.000270	20.746519
1537.410496	-2.983300	3.474400	-10.365000	25.904073	0.000268	20.760650
1538.421375	-3.001500	3.473700	-10.425000	25.913011	0.000268	20.770578
1539.412586	-3.016300	3.473300	-10.476000	25.879623	0.000269	20.745570
1540.426183	-3.007600	3.473300	-10.445000	25.898955	0.000268	20.743180
1541.416747	-3.015000	3.472900	-10.470000	25.862410	0.000265	20.745348
1542.415315	-3.003600	3.472600	-10.429000	25.865817	0.000265	20.755884
1543.419851	-3.007300	3.471400	-10.439000	25.887003	0.000268	20.734966
1544.415761	-2.993800	3.470700	-10.390000	25.950449	0.000268	20.757929
1545.415564	-2.987200	3.471800	-10.370000	25.921226	0.000268	20.754174
1546.414227	-2.996700	3.470900	-10.401000	25.897981	0.000266	20.763539
1547.417050	-3.009300	3.470300	-10.443000	25.856844	0.000263	20.742128
1548.414085	-3.007400	3.470100	-10.435000	25.858585	0.000263	20.755256
1549.416189	-3.014800	3.469000	-10.457000	25.874646	0.000263	20.766650
1550.416740	-2.996100	3.470000	-10.396000	25.910400	0.000267	20.759894
1551.418302	-3.025300	3.469100	-10.494000	25.912332	0.000264	20.748558
1552.416252	-2.993100	3.468000	-10.378000	25.962955	0.000261	20.754845
1553.426312	-2.983900	3.469400	-10.352000	25.921899	0.000263	20.774292
1554.415171	-2.991800	3.468200	-10.375000	25.899165	0.000264	20.747185
1555.414597	-2.977700	3.467600	-10.324000	25.923531	0.000262	20.768818
1556.414926	-2.996200	3.466600	-10.386000	25.943649	0.000263	20.768640
1557.414547	-2.987600	3.466500	-10.355000	25.905920	0.000261	20.777205
1558.414729	-2.972800	3.466900	-10.306000	25.864061	0.000261	20.756490
1559.414132	-2.983700	3.467200	-10.344000	25.902336	0.000262	20.743731
1560.417914	-2.984900	3.465300	-10.343000	25.939052	0.000261	20.765445
1561.419633	-2.956900	3.468000	-10.253000	25.956962	0.000258	20.763049
1562.414643	-2.976100	3.466800	-10.317000	25.913049	0.000259	20.764452
1563.419853	-2.971800	3.465000	-10.296000	25.861297	0.000260	20.771258
1564.415531	-2.980200	3.465600	-10.327000	25.828286	0.000259	20.765598
1565.416192	-2.996200	3.464200	-10.378000	25.814047	0.000258	20.773579
1566.422508	-3.005100	3.463200	-10.406000	25.853873	0.000259	20.777551
1567.416842	-2.986200	3.463300	-10.342000	25.855687	0.000260	20.773209
1568.417636	-2.972600	3.464500	-10.297000	25.884111	0.000258	20.779952
1569.417963	-3.007900	3.463700	-10.417000	25.906289	0.000259	20.759083
1570.416345	-2.971400	3.463700	-10.291000	25.904854	0.000257	20.776134
1571.420681	-3.008700	3.461900	-10.415000	25.956471	0.000257	20.752598
1572.421078	-2.974100	3.463400	-10.299000	25.942061	0.000258	20.764200
1573.418395	-2.992200	3.461600	-10.356000	25.911254	0.000256	20.774977
1574.423007	-2.998600	3.462000	-10.380000	25.940099	0.000258	20.792102
1575.420299	-2.995800	3.461700	-10.369000	25.920950	0.000256	20.770967
1576.419863	-3.009200	3.460700	-10.413000	25.943054	0.000255	20.787009
1577.424811	-2.999900	3.460400	-10.380000	25.956918	0.000257	20.768695
1578.419482	-2.983600	3.460800	-10.324000	25.940418	0.000255	20.785310
1579.419133	-3.006600	3.459300	-10.400000	25.936967	0.000255	20.784214
1580.420623	-2.991700	3.459300	-10.348000	25.925414	0.000254	20.782090
1581.418991	-2.998100	3.459200	-10.371000	25.877503	0.000253	20.770942
1582.421993	-2.974300	3.458200	-10.285000	25.885399	0.000255	20.768917
1583.420698	-2.985500	3.457900	-10.323000	25.869228	0.000254	20.768320
1584.419394	-2.982300	3.459600	-10.316000	25.878122	0.000250	20.780574
1585.419734	-2.998400	3.458500	-10.369000	25.876161	0.000251	20.805630
1586.420326	-3.002000	3.457500	-10.379000	25.891521	0.000255	20.773645
1587.419767	-2.982500	3.458900	-10.315000	25.915311	0.000252	20.765302
1588.422898	-2.994700	3.457600	-10.354000	25.921373	0.000251	20.784668
1589.421062	-3.006200	3.456300	-10.390000	25.923959	0.000252	20.776835
1590.421520	-3.011000	3.456200	-10.406000	25.992093	0.000251	20.787914
1591.426293	-3.000700	3.456400	-10.371000	25.975384	0.000250	20.781083
1592.423357	-3.011000	3.455600	-10.404000	25.972724	0.000252	20.792636
1593.427131	-3.012000	3.456200	-10.408000	25.983800	0.000250	20.779581
1594.423400	-2.993100	3.455600	-10.342000	25.981544	0.000250	20.793910
1595.423688	-3.024100	3.454000	-10.444000	25.980281	0.000250	20.762769
1596.422907	-2.993900	3.455900	-10.345000	25.963138	0.000249	20.772099
1597.422698	-2.986200	3.454400	-10.315000	25.926840	0.000249	20.782574
1598.426247	-3.012900	3.452900	-10.402000	25.896039	0.000248	20.790512
1599.423138	-3.011600	3.453700	-10.400000	25.876466	0.000249	20.782229
1600.427041	-3.014100	3.453100	-10.407000	25.891226	0.000247	20.804169
1601.427446	-3.004600	3.454400	-10.378000	25.924033	0.000247	20.788763
1602.427718	-2.997600	3.453200	-10.350000	25.937401	0.000249	20.793184
1603.427157	-3.013300	3.452800	-10.404000	25.923733	0.000248	20.778504
1604.428543	-3.018700	3.452000	-10.420000	25.892012	0.000246	20.789786
1605.428944	-2.992600	3.452400	-10.331000	25.934515	0.000248	20.790759
1606.426837	-3.004400	3.451400	-10.368000	25.950611	0.000245	20.797920
1607.429494	-3.009600	3.449600	-10.381000	25.915006	0.000247	20.796290
1608.425637	-3.021000	3.449600	-10.420000	25.887287	0.000244	20.814436
1609.431162	-3.008800	3.450400	-10.381000	25.895109	0.000244	20.802854
1610.426477	-3.002000	3.449600	-10.355000	25.904076	0.000246	20.811388
1611.429397	-2.993900	3.449400	-10.326000	25.953658	0.000245	20.806197
1612.428703	-2.978000	3.450400	-10.274000	25.959543	0.000245	20.792195
1613.428557	-3.032400	3.447500	-10.454000	25.934970	0.000245	20.805915
1614.434575	-3.025500	3.449100	-10.435000	25.991330	0.000246	20.789991
1615.429767	-3.014600	3.449200	-10.396000	26.001958	0.000242	20.797825
1616.429359	-3.003300	3.448500	-10.356000	25.973101	0.000242	20.791118
1617.429463	-2.973600	3.448500	-10.253000	25.937478	0.000243	20.800373
1618.431399	-2.989700	3.446500	-10.303000	25.898249	0.000244	20.808853
1619.429590	-3.001300	3.447000	-10.345000	25.855971	0.000242	20.790564
1620.433036	-2.987300	3.447300	-10.297000	25.880161	0.000243	20.791156
1621.429509	-2.988100	3.447400	-10.300000	25.910643	0.000243	20.813718
1622.436046	-3.015200	3.445600	-10.388000	25.897073	0.000240	20.792974
1623.431499	-2.995300	3.444800	-10.317000	25.913740	0.000241	20.808769
1624.430113	-2.986100	3.444800	-10.286000	25.923204	0.000242	20.806423
1625.432459	-3.005300	3.444500	-10.351000	25.965190	0.000242	20.799291
1626.430142	-2.992500	3.445100	-10.309000	25.936223	0.000239	20.825191
1627.432450	-2.988800	3.444500	-10.294000	25.934463	0.000240	20.827691
1628.431909	-3.008600	3.443200	-10.359000	25.950726	0.000242	20.804674
1629.434067	-2.990800	3.444500	-10.301000	25.960588	0.000241	20.807470
1630.430454	-3.010400	3.442900	-10.364000	25.974324	0.000240	20.818899
1631.434120	-2.996200	3.443500	-10.316000	26.012606	0.000242	20.828910
1632.432687	-2.996700	3.442300	-10.314000	26.062551	0.000240	20.820296
1633.431677	-3.023600	3.441900	-10.405000	26.072957	0.000241	20.826011
1634.432728	-2.992000	3.442300	-10.299000	26.012227	0.000240	20.816676
1635.431572	-2.994900	3.442600	-10.310000	25.992779	0.000238	20.815155
1636.436208	-2.997300	3.440900	-10.312000	25.979412	0.000239	20.824010
1637.433765	-2.998300	3.440600	-10.314000	25.981594	0.000238	20.818142
1638.434498	-2.986200	3.441100	-10.275000	25.964506	0.000238	20.814250
1639.435764	-3.006700	3.441500	-10.347000	25.923445	0.000236	20.823259
1640.446182	-2.995300	3.440100	-10.303000	25.908538	0.000237	20.820138
1641.438830	-2.980300	3.439800	-10.251000	25.918032	0.000238	20.810709
1642.444253	-2.990000	3.441300	-10.289000	25.924610	0.000237	20.824429
1643.436152	-3.022600	3.439300	-10.394000	25.879231	0.000235	20.834792
1644.437873	-3.016300	3.438000	-10.369000	25.932761	0.000237	20.809386
1645.438643	-3.008100	3.437900	-10.341000	25.973497	0.000237	20.830396
1646.438838	-2.996600	3.439200	-10.305000	25.989347	0.000236	20.833043
1647.436053	-2.996500	3.438300	-10.302000	25.999007	0.000235	20.821886
1648.435079	-2.987600	3.438000	-10.270000	26.019049	0.000237	20.828272
1649.438314	-3.003700	3.437900	-10.324000	26.028420	0.000234	20.813979
1650.434756	-3.010700	3.437300	-10.348000	26.029363	0.000233	20.843850
1651.442911	-3.001400	3.436700	-10.314000	26.009218	0.000232	20.838308
1652.435170	-3.036500	3.436100	-10.433000	25.983138	0.000232	20.835814
1653.436126	-3.020300	3.435500	-10.375000	25.945485	0.000233	20.841134
1654.435837	-2.992400	3.434700	-10.276000	25.926104	0.000234	20.835414
1655.436184	-2.971000	3.436400	-10.207000	25.965681	0.000232	20.834397
1656.435846	-3.008400	3.435300	-10.333000	25.987680	0.000233	20.833740
1657.445447	-3.002500	3.434700	-10.311000	26.022004	0.000229	20.854473
1658.435637	-3.014800	3.432800	-10.348000	25.992105	0.000231	20.838659
1659.436859	-3.011400	3.434300	-10.342000	25.969122	0.000230	20.835957
1660.439679	-3.014200	3.434200	-10.350000	25.999553	0.000229	20.828598
1661.437354	-3.011100	3.431600	-10.333000	26.030223	0.000229	20.842343
1662.439808	-2.998600	3.433800	-10.296000	26.042542	0.000230	20.850452
1663.437966	-3.011900	3.433100	-10.339000	26.044051	0.000230	20.827313
1664.438121	-2.999200	3.432800	-10.295000	26.023114	0.000230	20.841364
1665.438997	-2.996900	3.432800	-10.287000	26.044872	0.000230	20.851371
1666.437954	-3.003000	3.431400	-10.303000	26.036102	0.000230	20.846827
1667.442544	-2.981400	3.431600	-10.230000	26.063547	0.000229	20.838366
1668.441490	-3.017800	3.430600	-10.352000	26.112098	0.000229	20.842579
1669.442841	-3.010000	3.429100	-10.321000	26.089796	0.000229	20.840085
1670.438306	-2.998600	3.430200	-10.285000	26.059319	0.000229	20.842179
1671.441214	-3.003400	3.430200	-10.301000	26.013561	0.000228	20.855474
1672.443857	-3.011900	3.429400	-10.328000	26.058571	0.000228	20.851859
1673.440218	-3.014100	3.429200	-10.334000	26.062396	0.000228	20.851908
1674.439394	-2.996300	3.430300	-10.277000	26.055882	0.000228	20.840622
1675.437534	-3.014400	3.428400	-10.334000	26.024539	0.000227	20.859390
1676.440793	-3.035000	3.427000	-10.399000	26.070138	0.000228	20.854945
1677.456969	-3.014800	3.427000	-10.330000	26.040328	0.000224	20.862452
1678.443223	-2.989900	3.428000	-10.249000	26.030167	0.000226	20.864570
1679.439814	-2.998800	3.426900	-10.275000	25.972988	0.000226	20.870186
1680.440532	-3.011200	3.427700	-10.320000	25.978450	0.000225	20.855285
1681.440999	-2.980700	3.426600	-10.213000	25.957738	0.000227	20.863874
1682.440589	-3.015100	3.426200	-10.329000	25.973779	0.000224	20.858653
1683.439520	-3.008800	3.424900	-10.304000	25.960894	0.000225	20.865622
1684.444128	-3.001600	3.425900	-10.282000	25.944592	0.000222	20.877218
1685.452133	-3.019800	3.425400	-10.343000	25.936293	0.000221	20.872674
1686.440514	-3.019100	3.425300	-10.340000	25.940167	0.000224	20.869928
1687.446931	-3.000200	3.424700	-10.274000	25.966247	0.000223	20.872896
1688.443769	-3.006000	3.424000	-10.292000	25.995778	0.000223	20.859418
1689.447975	-2.979300	3.425500	-10.204000	26.059863	0.000223	20.860742
1690.443255	-3.001500	3.424400	-10.277000	26.036861	0.000222	20.853279
1691.444425	-2.984900	3.423700	-10.219000	26.041924	0.000223	20.859788
1692.445457	-2.998100	3.424200	-10.266000	26.028361	0.000220	20.878877
1693.444190	-2.997300	3.423300	-10.260000	26.062173	0.000221	20.863063
1694.445562	-3.006900	3.422100	-10.289000	26.034993	0.000220	20.885065
1695.447042	-3.018900	3.422000	-10.330000	26.046128	0.000219	20.877761
1696.445573	-3.005700	3.423200	-10.288000	26.041084	0.000220	20.861789
1697.445884	-3.014000	3.423000	-10.316000	26.018431	0.000219	20.858470
1698.446226	-3.002900	3.422000	-10.275000	25.989820	0.000219	20.875242
1699.446150	-2.996700	3.421700	-10.252000	25.979413	0.000217	20.883278
1700.450370	-2.990900	3.420900	-10.231000	26.031921	0.000217	20.868703
1701.446959	-3.031600	3.420900	-10.370000	26.044687	0.000219	20.871573
1702.446439	-3.012100	3.420600	-10.302000	26.061603	0.000219	20.866283
1703.448885	-2.990900	3.420400	-10.229000	26.015831	0.000218	20.900425
1704.445948	-2.986600	3.419900	-10.213000	26.018712	0.000215	20.876295
1705.453028	-2.989200	3.419200	-10.220000	26.039551	0.000218	20.873524
1706.446858	-3.017400	3.418000	-10.312000	26.033642	0.000216	20.864269
1707.448118	-2.994700	3.418900	-10.238000	26.030663	0.000216	20.877870
1708.448683	-2.979200	3.418700	-10.183000	26.025202	0.000217	20.872384
1709.451571	-3.006700	3.417400	-10.274000	26.019882	0.000216	20.885056
1710.450674	-2.988400	3.418900	-10.216000	26.071897	0.000214	20.873307
1711.448955	-2.992200	3.418300	-10.228000	26.067925	0.000216	20.875954
1712.449220	-2.984000	3.416900	-10.195000	26.138557	0.000215	20.889076
1713.453183	-2.973100	3.417800	-10.160000	26.125295	0.000213	20.869588
1714.450758	-3.005000	3.417100	-10.267000	26.110519	0.000215	20.871811
1715.452363	-3.003700	3.415800	-10.259000	26.132674	0.000212	20.872734
1716.453187	-2.988100	3.415100	-10.204000	26.104404	0.000214	20.872304
1717.458055	-2.999400	3.416200	-10.246000	26.084019	0.000213	20.872211
1718.450068	-3.012200	3.413600	-10.281000	26.129248	0.000213	20.861706
1719.451280	-3.015200	3.415400	-10.297000	26.102718	0.000213	20.864447
1720.455330	-2.974900	3.415700	-10.160000	26.135873	0.000210	20.868837
1721.451451	-2.994900	3.414500	-10.226000	26.183439	0.000214	20.854520
1722.451194	-3.010600	3.414100	-10.278000	26.182845	0.000210	20.850130
1723.451198	-2.986000	3.414600	-10.195000	26.120582	0.000211	20.870542
1724.451187	-2.980900	3.412000	-10.170000	26.123738	0.000212	20.855222
1725.451239	-3.004200	3.413400	-10.254000	26.178372	0.000210	20.853221
1726.455042	-2.981100	3.413500	-10.175000	26.120557	0.000211	20.854397
1727.452021	-2.987500	3.412300	-10.193000	26.171367	0.000209	20.871312
1728.451328	-3.019400	3.411600	-10.301000	26.175039	0.000211	20.842286
1729.454204	-3.002600	3.411800	-10.243000	26.153240	0.000209	20.853572
1730.451658	-3.015500	3.411000	-10.285000	26.133538	0.000206	20.876922
1731.456838	-3.004300	3.411300	-10.247000	26.118064	0.000211	20.853789
1732.453555	-3.000800	3.409900	-10.231000	26.154645	0.000209	20.842656
1733.454069	-2.991900	3.409800	-10.201000	26.157874	0.000210	20.836893
1734.454234	-2.991600	3.410300	-10.202000	26.090866	0.000209	20.844953
1735.454018	-2.994300	3.410400	-10.211000	26.106139	0.000209	20.842755
1736.455767	-3.024100	3.408100	-10.305000	26.135121	0.000209	20.845323
1737.454546	-2.980000	3.409600	-10.160000	26.174433	0.000207	20.834092
1738.454093	-3.002100	3.407900	-10.230000	26.159230	0.000208	20.851057
1739.453825	-3.002000	3.408700	-10.232000	26.175568	0.000207	20.837603
1740.454028	-3.000800	3.408800	-10.229000	26.136177	0.000209	20.846384
1741.453746	-3.021900	3.407000	-10.295000	26.163319	0.000206	20.846157
1742.454722	-3.016900	3.408300	-10.282000	26.137685	0.000207	20.832727
1743.455462	-2.994500	3.406900	-10.201000	26.113510	0.000207	20.842101
1744.456224	-2.999200	3.406500	-10.216000	26.042277	0.000205	20.861565
1745.455705	-2.999400	3.406100	-10.215000	26.078516	0.000206	20.831596
1746.455892	-2.980900	3.406100	-10.151000	26.114400	0.000206	20.839201
1747.458167	-2.995000	3.405800	-10.199000	26.140329	0.000205	20.823530
1748.455875	-2.993100	3.404500	-10.189000	26.158923	0.000206	20.828464
1749.456962	-3.003500	3.406000	-10.229000	26.141164	0.000206	20.830533
1750.456038	-3.010000	3.405900	-10.250000	26.124274	0.000205	20.838218
1751.457879	-3.000900	3.404900	-10.217000	26.113789	0.000206	20.823416
1752.460378	-3.018900	3.404800	-10.278000	26.080402	0.000203	20.837284
1753.461653	-3.015500	3.403500	-10.262000	26.060208	0.000203	20.829796
1754.457626	-2.990000	3.403400	-10.175000	26.033903	0.000202	20.848885
1755.458534	-2.965400	3.403800	-10.092000	26.012735	0.000202	20.827144
1756.462100	-3.007700	3.403700	-10.237000	26.073908	0.000200	20.822224
1757.457830	-2.973500	3.403400	-10.119000	26.113616	0.000203	20.834621
1758.461785	-2.996100	3.402300	-10.193000	26.176921	0.000199	20.816203
1759.458228	-2.992600	3.402800	-10.183000	26.178803	0.000201	20.829000
1760.458260	-2.979500	3.402100	-10.135000	26.180729	0.000199	20.851797
1761.459007	-3.010100	3.402000	-10.240000	26.153489	0.000198	20.825848
1762.458683	-2.989000	3.402100	-10.168000	26.166745	0.000199	20.838694
1763.459386	-2.983900	3.400800	-10.146000	26.147792	0.000199	20.831029
1764.459165	-3.019300	3.400900	-10.267000	26.221623	0.000200	20.833147
1765.460632	-2.990800	3.399700	-10.166000	26.184440	0.000200	20.820913
1766.463036	-2.984800	3.400400	-10.149000	26.205791	0.000201	20.818661
1767.460176	-3.009200	3.398600	-10.226000	26.226006	0.000200	20.829018
1768.460913	-3.017600	3.398300	-10.254000	26.233477	0.000197	20.799067
1769.464639	-2.991600	3.399100	-10.168000	26.234833	0.000199	20.821292
1770.461437	-2.998500	3.400000	-10.194000	26.272825	0.000199	20.816798
1771.462995	-3.020800	3.398200	-10.265000	26.259314	0.000199	20.823134
1772.465395	-3.020800	3.397700	-10.262000	26.243070	0.000197	20.809656
1773.464096	-2.961400	3.397800	-10.061000	26.183519	0.000197	20.825678
1774.466826	-2.989900	3.397800	-10.159000	26.169181	0.000197	20.817908
1775.464775	-2.998100	3.396900	-10.183000	26.170916	0.000198	20.826290
1776.463927	-2.999800	3.395900	-10.186000	26.185838	0.000196	20.827534
1777.462966	-2.993600	3.397100	-10.169000	26.201355	0.000195	20.826057
1778.466693	-2.993100	3.396800	-10.166000	26.217319	0.000195	20.824556
1779.465950	-2.999300	3.396400	-10.186000	26.187912	0.000197	20.814919
1780.466570	-3.003000	3.396000	-10.197000	26.196504	0.000196	20.807906
1781.464458	-3.006700	3.396700	-10.212000	26.139260	0.000194	20.825775
1782.465474	-3.002300	3.395200	-10.192000	26.169027	0.000195	20.831504
1783.470562	-3.012000	3.393400	-10.220000	26.098068	0.000193	20.797188
1784.464919	-2.997600	3.394600	-10.175000	26.142224	0.000194	20.795088
1785.466609	-3.021200	3.393000	-10.249000	26.148456	0.000193	20.804196
1786.464571	-2.989200	3.393800	-10.144000	26.190167	0.000193	20.807702
1787.464542	-3.019700	3.392300	-10.243000	26.226180	0.000192	20.803588
1788.465724	-2.994200	3.392700	-10.158000	26.265283	0.000193	20.822020
1789.465359	-2.992000	3.394100	-10.153000	26.257286	0.000191	20.805924
1790.467752	-2.984300	3.392700	-10.123000	26.279835	0.000192	20.820524
1791.464693	-3.003700	3.391500	-10.187000	26.310100	0.000192	20.819644
1792.464976	-2.993500	3.391800	-10.153000	26.280872	0.000188	20.816350
1793.466366	-2.982700	3.390900	-10.113000	26.243814	0.000191	20.804239
1794.466910	-3.010300	3.391400	-10.208000	26.181677	0.000188	20.813396
1795.466247	-3.008200	3.390500	-10.198000	26.126488	0.000187	20.839968
1796.468244	-2.984100	3.391000	-10.118000	26.140453	0.000189	20.806585
1797.467001	-3.009800	3.389600	-10.201000	26.197843	0.000189	20.806407
1798.467538	-3.030300	3.387600	-10.264000	26.206509	0.000187	20.820805
1799.470429	-3.000700	3.390000	-10.172000	26.262186	0.000188	20.813218
1800.466381	-2.980200	3.388700	-10.099000	26.258657	0.000188	20.816310
1801.469542	-2.984600	3.388500	-10.113000	26.279343	0.000187	20.837098
1802.468375	-3.007200	3.387300	-10.185000	26.272462	0.000187	20.822123
1803.469252	-2.996300	3.387200	-10.148000	26.258735	0.000187	20.822079
1804.469758	-2.988400	3.387700	-10.122000	26.281083	0.000187	20.836002
1805.469173	-3.012200	3.388000	-10.204000	26.305494	0.000187	20.799843
1806.471745	-2.999600	3.387700	-10.161000	26.298295	0.000187	20.806358
1807.469738	-2.970400	3.387200	-10.061000	26.299081	0.000186	20.794346
1808.469713	-3.004100	3.385900	-10.171000	26.236530	0.000185	20.796445
1809.469603	-3.002400	3.386800	-10.168000	26.202085	0.000185	20.802135
1810.470486	-2.988300	3.385900	-10.117000	26.173326	0.000185	20.798366
1811.470942	-2.995200	3.386500	-10.141000	26.140418	0.000185	20.784739
1812.473143	-3.006200	3.385800	-10.177000	26.107214	0.000184	20.802584
1813.472922	-3.000100	3.385100	-10.155000	26.139597	0.000183	20.804777
1814.474223	-3.022900	3.384200	-10.229000	26.161431	0.000183	20.814389
1815.474726	-2.985500	3.384700	-10.105000	26.244649	0.000184	20.788957
1816.473884	-3.009200	3.382600	-10.177000	26.258425	0.000184	20.810862
1817.476840	-3.013700	3.383000	-10.194000	26.265876	0.000185	20.807444
1818.474895	-3.001600	3.382700	-10.153000	26.275558	0.000183	20.809114
1819.475662	-2.979500	3.384000	-10.082000	26.290509	0.000184	20.790473
1820.478261	-2.994700	3.382000	-10.127000	26.329467	0.000181	20.782684
1821.476333	-2.998700	3.382000	-10.141000	26.349272	0.000183	20.800692
1822.477355	-2.974500	3.383000	-10.062000	26.362709	0.000180	20.778634
1823.474856	-2.989600	3.381600	-10.109000	26.350363	0.000181	20.798944
1824.475439	-2.997200	3.382700	-10.138000	26.323545	0.000180	20.799018
1825.475334	-3.012000	3.380100	-10.180000	26.313062	0.000182	20.794646
1826.474790	-3.004300	3.381700	-10.159000	26.295654	0.000180	20.795644
1827.475543	-2.983600	3.381800	-10.088000	26.311420	0.000181	20.796316
1828.478961	-3.011700	3.379700	-10.177000	26.320286	0.000179	20.782941
1829.474599	-3.014200	3.379600	-10.186000	26.370714	0.000179	20.799956
1830.475211	-2.983300	3.380500	-10.084000	26.412052	0.000178	20.805942
1831.478411	-3.003500	3.379900	-10.150000	26.337261	0.000178	20.784827
1832.475991	-3.005300	3.378300	-10.152000	26.364025	0.000180	20.790863
1833.479356	-3.012000	3.378600	-10.176000	26.346073	0.000178	20.758121
1834.477683	-3.011700	3.378600	-10.175000	26.354186	0.000177	20.783345
1835.477035	-2.995000	3.377100	-10.114000	26.379284	0.000177	20.796241
1836.477431	-3.032000	3.377200	-10.239000	26.393859	0.000176	20.789553
1837.477003	-2.974700	3.377900	-10.047000	26.327682	0.000177	20.796063
1838.480986	-3.003000	3.376600	-10.139000	26.349232	0.000176	20.789746
1839.480972	-3.023700	3.374800	-10.203000	26.387544	0.000176	20.796009
1840.478952	-3.000400	3.377100	-10.132000	26.334651	0.000175	20.808282
1841.479048	-3.019400	3.376100	-10.192000	26.342671	0.000176	20.781255
1842.480607	-3.000600	3.376200	-10.130000	26.370978	0.000173	20.793583
1843.480616	-3.003400	3.375700	-10.138000	26.404194	0.000174	20.780499
1844.483503	-3.012300	3.374000	-10.163000	26.423039	0.000174	20.810347
1845.482078	-3.010000	3.375100	-10.159000	26.410621	0.000173	20.806874
1846.481716	-3.007500	3.373800	-10.146000	26.436273	0.000173	20.785241
1847.483570	-3.015900	3.373100	-10.171000	26.406646	0.000173	20.790076
1848.482804	-3.025400	3.373200	-10.204000	26.345433	0.000170	20.797781
1849.484758	-3.027300	3.372200	-10.208000	26.296164	0.000172	20.794734
1850.482334	-2.985300	3.372500	-10.067000	26.274239	0.000171	20.794512
1851.483922	-3.005300	3.371800	-10.132000	26.292493	0.000170	20.771604
1852.483628	-3.001400	3.372100	-10.120000	26.309925	0.000170	20.795761
1853.482351	-2.989700	3.372300	-10.081000	26.252255	0.000170	20.766729
1854.485483	-2.993200	3.371700	-10.091000	26.246028	0.000170	20.787024
1855.485281	-2.998800	3.371200	-10.108000	26.276564	0.000170	20.793054
1856.483545	-2.994000	3.371000	-10.093000	26.327426	0.000170	20.792961
1857.484831	-2.989500	3.371100	-10.076000	26.297279	0.000169	20.768828
1858.487243	-3.006000	3.369400	-10.128000	26.273138	0.000168	20.782025
1859.484187	-2.983000	3.370200	-10.053000	26.232905	0.000168	20.768146
1860.486611	-3.016500	3.370000	-10.164000	26.224018	0.000167	20.762535
1861.484958	-2.977000	3.369800	-10.031000	26.273433	0.000167	20.784218
1862.486918	-3.014300	3.368000	-10.151000	26.288585	0.000169	20.749659
1863.489221	-3.001400	3.368400	-10.110000	26.290173	0.000167	20.778756
1864.487782	-3.013700	3.369700	-10.154000	26.326325	0.000166	20.767198
1865.490914	-3.008100	3.368600	-10.132000	26.314407	0.000167	20.763281
1866.487476	-3.011000	3.367800	-10.139000	26.372560	0.000167	20.778578
1867.487442	-2.997400	3.368300	-10.095000	26.392969	0.000165	20.776330
1868.487078	-3.032400	3.366500	-10.207000	26.392994	0.000165	20.785364
1869.486949	-3.009200	3.365800	-10.128000	26.359699	0.000166	20.766600
1870.486398	-2.985200	3.367600	-10.052000	26.361906	0.000165	20.781620
1871.490060	-2.977800	3.366900	-10.025000	26.363144	0.000166	20.765795
1872.487650	-3.002800	3.367000	-10.110000	26.339904	0.000166	20.790328
1873.486637	-3.000700	3.367000	-10.103000	26.391824	0.000167	20.768067
1874.488553	-3.020000	3.364800	-10.161000	26.379779	0.000162	20.775402
1875.487759	-3.016500	3.365000	-10.149000	26.381342	0.000164	20.774127
1876.490177	-2.969700	3.366000	-9.995600	26.350823	0.000166	20.782336
1877.487386	-3.012400	3.365000	-10.136000	26.277124	0.000163	20.759003
1878.486935	-3.009100	3.365200	-10.125000	26.299869	0.000165	20.769534
1879.487049	-3.007600	3.363400	-10.114000	26.317296	0.000163	20.760495
1880.486924	-3.010700	3.362500	-10.122000	26.351885	0.000162	20.760643
1881.489403	-3.002700	3.364400	-10.101000	26.360519	0.000163	20.767899
1882.491047	-3.007200	3.363700	-10.114000	26.388507	0.000161	20.767104
1883.488238	-2.994500	3.362800	-10.069000	26.388104	0.000159	20.754844
1884.488482	-2.999400	3.362600	-10.084000	26.367252	0.000162	20.749060
1885.492206	-3.007300	3.362400	-10.110000	26.363094	0.000162	20.761952
1886.489474	-2.997400	3.361500	-10.075000	26.415196	0.000160	20.761211
1887.492994	-3.012900	3.361200	-10.126000	26.468302	0.000160	20.766224
1888.490427	-2.989600	3.362400	-10.051000	26.465147	0.000159	20.765424
1889.491497	-3.020700	3.360500	-10.150000	26.472911	0.000159	20.782711
1890.491503	-3.009300	3.360100	-10.110000	26.481603	0.000161	20.761102
1891.491970	-3.000700	3.359600	-10.080000	26.519513	0.000157	20.759853
1892.495114	-3.008700	3.360300	-10.109000	26.448503	0.000158	20.762920
1893.491286	-3.002300	3.360700	-10.089000	26.430552	0.000157	20.774749
1894.492320	-3.007700	3.358500	-10.101000	26.378206	0.000157	20.777614
1895.491302	-3.031900	3.357000	-10.176000	26.390177	0.000158	20.755506
1896.492290	-2.990900	3.360300	-10.049000	26.418979	0.000158	20.763117
1897.491699	-2.986900	3.358100	-10.030000	26.415677	0.000157	20.778765
1898.495403	-2.991500	3.357800	-10.044000	26.434891	0.000156	20.756351
1899.491780	-2.971800	3.359200	-9.982200	26.438415	0.000154	20.746141
1900.492089	-2.992600	3.357300	-10.047000	26.412370	0.000155	20.737507
1901.495014	-3.012200	3.357400	-10.112000	26.414576	0.000156	20.730715
1902.493336	-3.011000	3.356900	-10.107000	26.420237	0.000155	20.755373
1903.495436	-2.989600	3.355800	-10.032000	26.399922	0.000154	20.747756
1904.493484	-3.004800	3.354900	-10.081000	26.379287	0.000154	20.735551
1905.492857	-3.004100	3.354400	-10.076000	26.401416	0.000154	20.739300
1906.493131	-2.973800	3.356900	-9.980800	26.421726	0.000154	20.745015
1907.493842	-2.996600	3.355300	-10.054000	26.431456	0.000156	20.749579
1908.496370	-3.001200	3.355000	-10.068000	26.450100	0.000153	20.754093
1909.495129	-3.011300	3.356100	-10.105000	26.500423	0.000154	20.762001
1910.495075	-2.998800	3.354600	-10.059000	26.509238	0.000153	20.756637
1911.495394	-3.021500	3.352200	-10.128000	26.496723	0.000152	20.726038
1912.496525	-3.014000	3.353800	-10.107000	26.524156	0.000154	20.748872
1913.497156	-3.022500	3.351500	-10.129000	26.488576	0.000150	20.737290
1914.498641	-3.004900	3.352300	-10.072000	26.515990	0.000151	20.763423
1915.495904	-3.030700	3.350900	-10.155000	26.518093	0.000150	20.763167
1916.496511	-3.014900	3.351800	-10.104000	26.494305	0.000150	20.774818
1917.499116	-3.006300	3.352300	-10.077000	26.471790	0.000150	20.750764
1918.496863	-3.030800	3.349300	-10.149000	26.452871	0.000149	20.753560
1919.498171	-2.985000	3.352400	-10.005000	26.403583	0.000150	20.747168
1920.496912	-2.993500	3.352100	-10.034000	26.454979	0.000150	20.749040
1921.496494	-2.988700	3.349800	-10.011000	26.503917	0.000149	20.756504
1922.496480	-3.014400	3.349400	-10.095000	26.556198	0.000148	20.753105
1923.496035	-2.980900	3.350800	-9.987500	26.578642	0.000147	20.754330
1924.494541	-3.002400	3.348100	-10.052000	26.566501	0.000145	20.745919
1925.498142	-2.983900	3.349700	-9.994200	26.521596	0.000146	20.751041
1926.497740	-2.984900	3.349900	-9.997400	26.518387	0.000144	20.746867
1927.498647	-3.019100	3.348400	-10.108000	26.523036	0.000145	20.744901
1928.502213	-2.985000	3.348300	-9.993200	26.535374	0.000144	20.748769
1929.496830	-3.024200	3.346700	-10.120000	26.531851	0.000143	20.749021
1930.504282	-3.004900	3.348100	-10.060000	26.491460	0.000144	20.748250
1931.499766	-3.002900	3.346200	-10.046000	26.520260	0.000143	20.753491
1932.498155	-3.004900	3.347400	-10.058000	26.531035	0.000144	20.726388
1933.505331	-2.980900	3.348300	-9.980100	26.518997	0.000144	20.721400
1934.500407	-2.998100	3.345700	-10.030000	26.489180	0.000144	20.743113
1935.502605	-3.007200	3.346300	-10.063000	26.530372	0.000141	20.750379
1936.500857	-2.980200	3.345700	-9.970000	26.536755	0.000142	20.731190
1937.502313	-3.016700	3.345800	-10.092000	26.496408	0.000143	20.729989
1938.501081	-3.003600	3.345600	-10.048000	26.429766	0.000139	20.751199
1939.500359	-3.015500	3.344600	-10.085000	26.400246	0.000141	20.748082
1940.501556	-2.987600	3.344700	-9.991700	26.458007	0.000140	20.748764
1941.503162	-2.991600	3.344600	-10.005000	26.433820	0.000140	20.726823
1942.501792	-3.002700	3.344600	-10.042000	26.431112	0.000140	20.753026
1943.502500	-3.018400	3.342300	-10.087000	26.449805	0.000140	20.738623
1944.502346	-2.999800	3.344100	-10.031000	26.440798	0.000141	20.749011
1945.502172	-2.997000	3.344100	-10.021000	26.426493	0.000139	20.730365
1946.505172	-3.038400	3.341200	-10.151000	26.474640	0.000137	20.738455
1947.502914	-3.036500	3.341800	-10.147000	26.530033	0.000138	20.752883
1948.503499	-3.017300	3.342300	-10.083000	26.549766	0.000140	20.758494
1949.506024	-2.983300	3.343200	-9.972800	26.574245	0.000138	20.747065
1950.503242	-3.052300	3.341400	-10.197000	26.635165	0.000137	20.725801
1951.505788	-3.037700	3.340300	-10.146000	26.625633	0.000137	20.755101
1952.503152	-3.008900	3.340300	-10.050000	26.604880	0.000137	20.728547
1953.504730	-3.003900	3.340200	-10.033000	26.537325	0.000134	20.746936
1954.504399	-3.000100	3.340400	-10.021000	26.527119	0.000138	20.757541
1955.504594	-2.985000	3.339500	-9.967800	26.557952	0.000137	20.754395
1956.507862	-2.987600	3.339300	-9.975500	26.551574	0.000137	20.752251
1957.508839	-2.993900	3.339700	-9.998000	26.565867	0.000135	20.755239
1958.506660	-3.006300	3.338100	-10.034000	26.575547	0.000134	20.742683
1959.506636	-2.980800	3.339600	-9.954000	26.586297	0.000136	20.765819
1960.506851	-2.992100	3.339400	-9.991100	26.627058	0.000134	20.746101
1961.505420	-2.963300	3.338800	-9.892600	26.667296	0.000132	20.742930
1962.508283	-2.984900	3.338900	-9.965200	26.651953	0.000133	20.760697
1963.508034	-3.024200	3.336200	-10.088000	26.625687	0.000133	20.739033
1964.506483	-3.006400	3.335800	-10.027000	26.582244	0.000131	20.757002
1965.508598	-2.995100	3.336600	-9.992500	26.584828	0.000134	20.736840
1966.508862	-2.987000	3.336700	-9.966000	26.547461	0.000131	20.766135
1967.511072	-2.982300	3.335000	-9.944900	26.564988	0.000131	20.763364
1968.507986	-3.002000	3.335200	-10.012000	26.612156	0.000131	20.753881
1969.508819	-3.005900	3.335800	-10.026000	26.665630	0.000131	20.750739
1970.508286	-2.997100	3.335400	-9.995000	26.638790	0.000129	20.762638
1971.508500	-2.994500	3.334200	-9.983800	26.656419	0.000131	20.765187
1972.510979	-3.006200	3.334800	-10.024000	26.611886	0.000130	20.767834
1973.513309	-3.002200	3.333700	-10.007000	26.582367	0.000128	20.776093
1974.510767	-3.000600	3.333100	-10.001000	26.609955	0.000129	20.764945
1975.511769	-2.997400	3.333800	-9.992300	26.668588	0.000128	20.745178
1976.516099	-3.013200	3.333100	-10.042000	26.675461	0.000128	20.770106
1977.511456	-3.000700	3.333000	-10.000000	26.653446	0.000126	20.763147
1978.513622	-3.020500	3.332300	-10.064000	26.640289	0.000127	20.748971
1979.510181	-3.010300	3.332200	-10.030000	26.626169	0.000127	20.785037
1980.511918	-2.986600	3.332700	-9.952200	26.580421	0.000127	20.749480
1981.513150	-2.999900	3.330000	-9.989000	26.591289	0.000127	20.763725
1982.513109	-2.998900	3.331400	-9.989100	26.580219	0.000125	20.752122
1983.515144	-2.982200	3.330700	-9.931800	26.613163	0.000127	20.752523
1984.511751	-3.012100	3.329200	-10.027000	26.669065	0.000125	20.767943
1985.512150	-2.993500	3.331300	-9.971500	26.710814	0.000127	20.772931
1986.512910	-2.990500	3.330600	-9.959400	26.743214	0.000126	20.773262
1987.514482	-2.998100	3.329900	-9.982600	26.771304	0.000124	20.770210
1988.514338	-2.989300	3.329900	-9.953400	26.780888	0.000122	20.763725
1989.516647	-3.004800	3.328400	-10.000000	26.778604	0.000125	20.768541
1990.512676	-3.010700	3.329400	-10.023000	26.770262	0.000124	20.763947
1991.514039	-3.033500	3.326700	-10.091000	26.793616	0.000125	20.761823
1992.515069	-3.006100	3.327300	-10.001000	26.758870	0.000123	20.745854
1993.514712	-2.984700	3.329400	-9.936000	26.716793	0.000123	20.757605
1994.517726	-2.992900	3.328200	-9.960100	26.741121	0.000121	20.757882
1995.513113	-2.995200	3.326800	-9.963800	26.784410	0.000120	20.773430
1996.514946	-2.999000	3.326100	-9.974400	26.717908	0.000121	20.772951
1997.515071	-2.988400	3.326100	-9.938900	26.746181	0.000120	20.765340
1998.514197	-2.972100	3.326900	-9.886900	26.766558	0.000120	20.755007
1999.516074	-2.994600	3.326300	-9.959800	26.760280	0.000121	20.757704
2000.517289	-3.011200	3.324800	-10.011000	26.716027	0.000121	20.762525
2001.517807	-3.006400	3.324100	-9.992600	26.744845	0.000120	20.790549
2002.515095	-3.000100	3.324300	-9.972500	26.767507	0.000120	20.781091
2003.514194	-2.998800	3.324400	-9.968500	26.772473	0.000119	20.781343
2004.513572	-3.003700	3.324900	-9.986800	26.809208	0.000118	20.768965
2005.514684	-3.018300	3.321800	-10.025000	26.792108	0.000118	20.774532
2006.513992	-2.979500	3.323700	-9.902400	26.737554	0.000118	20.778004
2007.515894	-3.019900	3.322700	-10.033000	26.691261	0.000117	20.757067
2008.518301	-3.001200	3.322200	-9.969200	26.690018	0.000117	20.761981
2009.515862	-3.006300	3.321800	-9.985800	26.657873	0.000115	20.777080
2010.517283	-3.033500	3.320800	-10.073000	26.633352	0.000115	20.773292
2011.516091	-3.009000	3.320700	-9.991400	26.604703	0.000115	20.771045
2012.516010	-3.014100	3.320600	-10.008000	26.561234	0.000116	20.792782
2013.517313	-3.005400	3.320700	-9.979000	26.617222	0.000113	20.753758
2014.517144	-3.004900	3.319900	-9.975500	26.639336	0.000118	20.766980
2015.518785	-2.986200	3.321100	-9.916000	26.711399	0.000115	20.777787
2016.522271	-3.008000	3.321100	-9.989400	26.750750	0.000115	20.799331
2017.520851	-3.012000	3.319500	-9.997100	26.796392	0.000113	20.788322
2018.519280	-3.010900	3.319200	-9.992900	26.795208	0.000113	20.760105
2019.520774	-3.001200	3.319800	-9.962400	26.751526	0.000114	20.764076
2020.520473	-3.001900	3.319000	-9.962400	26.741819	0.000113	20.780869
2021.522664	-2.983100	3.318100	-9.897100	26.773372	0.000112	20.788885
2022.520185	-2.981500	3.318700	-9.894100	26.727950	0.000110	20.779728
2023.519624	-2.998300	3.316900	-9.944900	26.761170	0.000113	20.761443
2024.520645	-3.008100	3.316900	-9.976700	26.797483	0.000113	20.784677
2025.520918	-3.011300	3.315500	-9.982700	26.775298	0.000110	20.794615
2026.522883	-3.004500	3.315300	-9.960100	26.783787	0.000109	20.775174
2027.523138	-3.003400	3.316000	-9.958300	26.789495	0.000111	20.787552
2028.528756	-2.993000	3.316600	-9.924600	26.785310	0.000110	20.772912
2029.523582	-2.998900	3.317000	-9.946100	26.815590	0.000110	20.779649
2030.524551	-2.989800	3.315500	-9.911500	26.788960	0.000108	20.813092
2031.524140	-2.998900	3.315900	-9.943100	26.778167	0.000108	20.787542
2032.523914	-2.988500	3.315600	-9.907900	26.739918	0.000107	20.803614
2033.523536	-2.997200	3.314700	-9.934200	26.697600	0.000107	20.785251
2034.524947	-3.002500	3.314100	-9.949500	26.705146	0.000108	20.789992
2035.526845	-2.981900	3.314300	-9.882500	26.726742	0.000109	20.787049
2036.524817	-3.024200	3.313100	-10.018000	26.768966	0.000106	20.796784
2037.527940	-3.019300	3.311900	-9.998900	26.802779	0.000107	20.789054
2038.525607	-3.019100	3.312800	-10.001000	26.804120	0.000107	20.787083
2039.527034	-2.984900	3.313300	-9.888000	26.773049	0.000106	20.785715
2040.524655	-2.992100	3.311200	-9.905700	26.786627	0.000105	20.793677
2041.527535	-2.991800	3.311200	-9.905300	26.801699	0.000104	20.778959
2042.524650	-3.005400	3.312100	-9.953500	26.822674	0.000106	20.796256
2043.529971	-2.977400	3.311400	-9.857600	26.884651	0.000104	20.787923
2044.526289	-3.009800	3.310000	-9.962000	26.889641	0.000104	20.795786
2045.524611	-2.993800	3.310700	-9.911100	26.886493	0.000103	20.788827
2046.529214	-2.983300	3.309400	-9.871800	26.902771	0.000102	20.784807
2047.526595	-3.011800	3.310000	-9.968100	26.902874	0.000102	20.801980
2048.532067	-3.022700	3.308200	-9.999000	26.958913	0.000103	20.781043
2049.527220	-3.005900	3.307900	-9.942100	26.951142	0.000104	20.789351
2050.527424	-2.999400	3.308000	-9.921800	26.927468	0.000101	20.805847
2051.526399	-3.013000	3.308100	-9.965900	26.974920	0.000101	20.790976
2052.528276	-3.005800	3.307500	-9.940500	26.904692	9.998083E-5	20.783893
2053.531314	-2.980100	3.308300	-9.857500	26.841803	0.000102	20.809325
2054.528518	-2.989300	3.307400	-9.885600	26.829321	0.000101	20.792033
2055.527634	-2.980700	3.306900	-9.855600	26.832175	9.925478E-5	20.802489
2056.531571	-3.006900	3.306200	-9.939300	26.817802	9.823170E-5	20.805581
2057.530677	-3.011600	3.306000	-9.954900	26.807329	9.892475E-5	20.809275
2058.537882	-2.996500	3.305800	-9.904900	26.883870	9.849572E-5	20.798992
2059.531942	-2.993900	3.305100	-9.894700	26.921942	9.908977E-5	20.803136
2060.532797	-3.022800	3.305000	-9.988800	26.863696	9.826471E-5	20.786294
2061.534519	-3.018000	3.304500	-9.971700	26.909034	9.859473E-5	20.786363
2062.535287	-2.986100	3.304700	-9.866900	26.941594	9.664759E-5	20.787810
2063.534319	-2.984700	3.305500	-9.865100	26.939070	9.767066E-5	20.804712
2064.537438	-2.999200	3.304500	-9.910000	26.925120	9.747265E-5	20.805383
2065.534826	-2.999800	3.304300	-9.911200	26.905438	9.687860E-5	20.810248
2066.535033	-3.019300	3.302900	-9.971600	26.849795	9.476645E-5	20.807403
2067.539662	-2.999400	3.302700	-9.905000	26.829247	9.661458E-5	20.805235
2068.536617	-3.020700	3.301200	-9.970900	26.768535	9.334735E-5	20.797298
2069.538611	-2.991800	3.303700	-9.883000	26.806135	9.489846E-5	20.812817
2070.537099	-3.000900	3.301600	-9.906400	26.845472	9.658158E-5	20.792151
2071.537763	-2.989700	3.301500	-9.868700	26.916628	9.470045E-5	20.802059
2072.536959	-2.992300	3.301600	-9.878200	26.920552	9.496446E-5	20.826394
2073.537652	-2.995800	3.301500	-9.889000	26.869178	9.321534E-5	20.816936
2074.537326	-2.988300	3.300600	-9.862000	26.899799	9.440342E-5	20.816432
2075.538390	-3.015300	3.300300	-9.950600	26.917969	9.394139E-5	20.818106
2076.539434	-2.992100	3.299700	-9.872300	26.973039	9.334735E-5	20.820378
2077.536355	-2.994500	3.300200	-9.881300	26.956187	9.324834E-5	20.824295
2078.538411	-3.015900	3.298800	-9.948400	26.938269	9.344635E-5	20.811493
2079.538483	-3.016700	3.298800	-9.950300	26.956162	8.981609E-5	20.800563
2080.542859	-3.007800	3.298900	-9.921600	26.984399	9.199425E-5	20.812362
2081.541420	-3.004000	3.297600	-9.905100	27.013730	9.074016E-5	20.824314
2082.541051	-2.978500	3.298200	-9.822400	27.053684	9.196124E-5	20.807596
2083.542975	-3.004700	3.297800	-9.908000	27.033111	8.961807E-5	20.809665
2084.543623	-2.997700	3.296200	-9.880000	27.031072	9.123519E-5	20.817098
2085.547059	-3.020600	3.295000	-9.951400	26.982592	9.100417E-5	20.829985
2086.543218	-3.015900	3.295500	-9.936800	27.009885	8.961807E-5	20.830878
2087.544185	-2.993000	3.295200	-9.861400	26.978834	8.737391E-5	20.836163
2088.544913	-2.993000	3.295700	-9.862500	27.009114	8.852899E-5	20.818249
2089.544587	-2.989200	3.294700	-9.847600	26.998525	9.074016E-5	20.822300
2090.548142	-3.016900	3.293700	-9.936000	26.989463	8.720890E-5	20.826463
2091.548550	-3.001700	3.293400	-9.884900	26.924044	8.605381E-5	20.813785
2092.544749	-2.998800	3.294600	-9.879100	26.904515	8.496473E-5	20.832553
2093.544754	-2.987400	3.294500	-9.840600	26.845644	8.684587E-5	20.817454
2094.548647	-2.988900	3.294000	-9.844500	26.839273	8.575679E-5	20.830963
2095.546813	-2.983100	3.294400	-9.826200	26.834037	8.555878E-5	20.824275
2096.548766	-2.993400	3.291900	-9.852900	26.915041	8.503074E-5	20.820378
2097.546076	-2.999400	3.293000	-9.876400	26.914403	8.572379E-5	20.840124
2098.546568	-2.997000	3.292400	-9.866700	26.924747	8.545977E-5	20.840095
2099.547273	-2.961400	3.291800	-9.747700	26.959449	8.684587E-5	20.831842
2100.545910	-3.035000	3.289500	-9.982000	26.940018	8.776994E-5	20.836010
2101.549854	-3.013800	3.290700	-9.917100	26.952076	8.674686E-5	20.818739
2102.546603	-3.006700	3.290800	-9.894000	27.013028	8.324861E-5	20.830721
2103.546550	-3.027200	3.290200	-9.959100	27.054716	8.390866E-5	20.844668
2104.548717	-3.010600	3.290200	-9.904500	27.125086	8.473372E-5	20.829145
2105.548586	-2.987400	3.289100	-9.824700	27.127129	8.450270E-5	20.821243
2106.547994	-2.990600	3.289400	-9.836100	27.087778	8.272057E-5	20.830504
2107.551103	-2.982000	3.287600	-9.803100	27.098984	8.278657E-5	20.830869
2108.547549	-2.993000	3.288000	-9.839600	27.092792	8.318260E-5	20.834598
2109.548254	-2.985100	3.289000	-9.816500	27.142643	8.232454E-5	20.829733
2110.550313	-3.011500	3.288000	-9.900900	27.224841	8.252256E-5	20.841285
2111.550195	-2.991400	3.287500	-9.833300	27.210233	8.351263E-5	20.846980
2112.548972	-2.992100	3.287100	-9.833900	27.170929	8.225854E-5	20.838742
2113.550421	-3.001400	3.285600	-9.859700	27.169863	8.212653E-5	20.816808
2114.551723	-3.010800	3.286400	-9.893900	27.154532	8.057541E-5	20.832208
2115.551258	-2.994300	3.286400	-9.839500	27.186142	7.932132E-5	20.820853
2116.552782	-3.003800	3.285300	-9.867800	27.154728	8.001437E-5	20.841414
2117.556212	-3.002100	3.284400	-9.858200	27.139770	8.070742E-5	20.848654
2118.551810	-3.022200	3.283800	-9.923300	27.115726	7.790222E-5	20.836801
2119.552637	-3.032200	3.282300	-9.950600	27.112750	7.902430E-5	20.844239
2120.552450	-2.997100	3.284300	-9.842000	27.024536	7.813323E-5	20.842767
2121.552473	-3.006800	3.284200	-9.873500	27.038455	7.932132E-5	20.861031
2122.552994	-3.000800	3.283500	-9.851300	27.038386	7.674713E-5	20.850057
2123.552608	-2.995900	3.283900	-9.837700	27.045930	7.786921E-5	20.831092
2124.553519	-2.993600	3.283300	-9.828400	27.012730	7.800122E-5	20.852230
2125.554255	-3.016900	3.281500	-9.899400	27.070319	7.866127E-5	20.848980
2126.557359	-2.987200	3.283000	-9.806400	27.116227	7.724217E-5	20.864331
2127.554221	-2.998400	3.280900	-9.836900	27.210513	7.704415E-5	20.852951
2128.557654	-3.016000	3.280900	-9.894600	27.222573	7.684614E-5	20.846116
2129.554839	-3.017200	3.280100	-9.896100	27.237457	7.757219E-5	20.866301
2130.555737	-2.989100	3.281600	-9.808000	27.283014	7.625210E-5	20.845746
2131.555206	-2.983000	3.281400	-9.787100	27.261208	7.704415E-5	20.873596
2132.554856	-2.992000	3.280200	-9.813500	27.203648	7.463498E-5	20.876865
2133.556712	-2.999500	3.279900	-9.837300	27.157106	7.466798E-5	20.881735
2134.562212	-2.981600	3.279800	-9.778000	27.117357	7.314987E-5	20.845079
2135.556286	-2.990500	3.277900	-9.801400	27.129438	7.371091E-5	20.852962
2136.555754	-2.999200	3.278200	-9.829900	27.117456	7.239081E-5	20.848971
2137.561747	-3.012800	3.278300	-9.876000	27.126609	7.239081E-5	20.884254
2138.556513	-2.980700	3.279300	-9.773300	27.115275	7.275384E-5	20.870011
2139.560574	-3.001700	3.277100	-9.835700	27.132822	7.182977E-5	20.867744
2140.556772	-2.994800	3.277800	-9.815000	27.177780	7.262183E-5	20.866494
2141.556662	-2.990000	3.276900	-9.797300	27.165503	7.272084E-5	20.866475
2142.556993	-3.001900	3.274800	-9.830200	27.209021	7.196178E-5	20.887010
2143.555604	-3.016000	3.274600	-9.874700	27.227877	7.248982E-5	20.868993
2144.556901	-2.997000	3.275200	-9.814500	27.271864	7.050968E-5	20.873883
2145.555622	-3.014600	3.273800	-9.868000	27.273258	7.067469E-5	20.875286
2146.556367	-2.994300	3.274200	-9.803500	27.292707	7.060868E-5	20.859763
2147.558506	-2.985400	3.275200	-9.776500	27.337192	6.961861E-5	20.859941
2148.556499	-2.986600	3.274200	-9.777400	27.262839	6.724244E-5	20.873340
2149.559759	-2.996600	3.272000	-9.803600	27.165160	7.011365E-5	20.871819
2150.557299	-2.972900	3.272800	-9.729100	27.182681	6.909057E-5	20.866682
2151.558372	-2.993600	3.271800	-9.794100	27.222874	6.951960E-5	20.868228
2152.557164	-3.019000	3.271800	-9.876700	27.186801	6.882655E-5	20.873197
2153.563554	-3.002100	3.272200	-9.822600	27.225535	6.803450E-5	20.860475
2154.560151	-2.982500	3.272900	-9.760700	27.174917	6.786948E-5	20.888744
2155.566357	-2.999500	3.270500	-9.808900	27.149117	6.856253E-5	20.885080
2156.560399	-2.995700	3.272100	-9.801400	27.214570	6.777048E-5	20.887850
2157.560563	-2.986000	3.270900	-9.766000	27.274933	6.770447E-5	20.861324
2158.563573	-2.987100	3.269700	-9.765200	27.344572	6.658239E-5	20.886329
2159.559540	-2.996600	3.268700	-9.793800	27.341150	6.658239E-5	20.878620
2160.564247	-3.008400	3.268100	-9.831000	27.348073	6.813350E-5	20.877998
2161.561295	-3.006700	3.267700	-9.824300	27.365243	6.684641E-5	20.901432
2162.561742	-3.003700	3.267900	-9.814400	27.400102	6.440423E-5	20.872965
2163.561539	-3.014400	3.266700	-9.846400	27.347828	6.555931E-5	20.863053
2164.560456	-2.989900	3.268500	-9.771600	27.342368	6.509728E-5	20.883164
2165.563006	-3.006500	3.267100	-9.821000	27.361674	6.750646E-5	20.873662
2166.560846	-2.985200	3.266500	-9.750600	27.310763	6.559232E-5	20.901629
2167.561298	-3.029900	3.266300	-9.896000	27.329347	6.605435E-5	20.882393
2168.561389	-3.011300	3.265500	-9.832600	27.365793	6.390919E-5	20.911467
2169.562303	-2.993000	3.265000	-9.771600	27.347008	6.417321E-5	20.880245
2170.561652	-3.003700	3.264500	-9.805100	27.310051	6.338115E-5	20.883845
2171.570674	-3.002700	3.264000	-9.799800	27.315285	6.295212E-5	20.878680
2172.561938	-3.023700	3.263500	-9.867100	27.371346	6.390919E-5	20.880546
2173.561359	-3.013300	3.262600	-9.830000	27.390523	6.295212E-5	20.885613
2174.564153	-2.980100	3.264100	-9.726800	27.397151	6.176404E-5	20.897022
2175.562599	-3.013900	3.262900	-9.832900	27.311966	6.090597E-5	20.886720
2176.567306	-3.004900	3.261700	-9.799800	27.308642	6.044394E-5	20.884325
2177.564708	-2.972400	3.262800	-9.697800	27.360815	6.041094E-5	20.878487
2178.565138	-3.004000	3.262300	-9.799000	27.380812	6.282011E-5	20.883431
2179.565724	-2.975300	3.261200	-9.700700	27.451834	6.239108E-5	20.884705
2180.567551	-2.985600	3.261900	-9.737900	27.493975	6.169803E-5	20.884429
2181.573377	-3.017000	3.259700	-9.833400	27.535330	6.037793E-5	20.874354
2182.572362	-2.992900	3.260300	-9.756900	27.553885	6.126900E-5	20.882592
2183.568551	-3.025200	3.260800	-9.863700	27.521374	5.988290E-5	20.891605
2184.569357	-2.985100	3.259000	-9.727500	27.502242	6.225907E-5	20.868092
2185.573062	-3.013400	3.259600	-9.821400	27.514800	6.047694E-5	20.875510
2186.571083	-3.016600	3.258000	-9.826600	27.506519	5.575760E-5	20.860541
2187.573757	-2.989300	3.258100	-9.739100	27.538565	5.833178E-5	20.856747
2188.571156	-3.004000	3.257400	-9.783900	27.504187	5.819977E-5	20.878582
2189.571082	-3.030800	3.255500	-9.865700	27.433665	5.826578E-5	20.861686
2190.575122	-2.995200	3.256600	-9.753800	27.402961	5.645065E-5	20.867307
2191.572803	-3.005100	3.255500	-9.782300	27.452797	5.549358E-5	20.861968
2192.579585	-2.981900	3.256300	-9.709700	27.477574	5.697869E-5	20.874093
2193.575855	-2.994500	3.255900	-9.749300	27.511315	5.496554E-5	20.896184
2194.575158	-2.998900	3.255900	-9.762800	27.510226	5.608762E-5	20.871856
2195.575181	-3.006700	3.254300	-9.783800	27.507147	5.440450E-5	20.864018
2196.575959	-3.003600	3.254000	-9.773000	27.503756	5.473452E-5	20.865821
2197.577339	-2.968200	3.254300	-9.657600	27.489912	5.420648E-5	20.858057
2198.580003	-2.999900	3.254000	-9.760400	27.520073	5.463551E-5	20.867065
2199.576661	-2.987400	3.252600	-9.715600	27.517692	5.486653E-5	20.853291
2200.581099	-3.011100	3.251900	-9.790600	27.506455	5.427249E-5	20.860477
2201.579630	-3.003400	3.252600	-9.768300	27.448168	5.245735E-5	20.827915
2202.577045	-2.995100	3.251800	-9.738600	27.418598	5.397547E-5	20.883511
2203.579743	-2.997100	3.251300	-9.743900	27.469725	5.232534E-5	20.876153
2204.578340	-2.962600	3.252600	-9.635400	27.482499	5.371145E-5	20.846332
2205.578666	-2.981700	3.250500	-9.691000	27.557755	5.285338E-5	20.858037
2206.579412	-2.992100	3.249900	-9.723800	27.550809	5.483353E-5	20.861954
2207.579085	-2.996000	3.251300	-9.740600	27.512342	5.390946E-5	20.868769
2208.578553	-3.000900	3.248600	-9.748400	27.512838	5.107125E-5	20.858838
2209.581451	-2.979000	3.249700	-9.679400	27.475710	5.232534E-5	20.851829
2210.579466	-2.993300	3.249000	-9.724800	27.532533	5.173130E-5	20.846886
2211.580345	-2.974900	3.249200	-9.665400	27.560067	4.889309E-5	20.866527
2212.582658	-3.011000	3.246900	-9.775200	27.513859	5.209433E-5	20.835684
2213.581233	-2.977400	3.248200	-9.670000	27.542110	5.222634E-5	20.869323
2214.585839	-3.029900	3.245300	-9.831800	27.553372	4.879409E-5	20.852679
2215.581638	-3.003800	3.245800	-9.748900	27.589290	4.945413E-5	20.839033
2216.582092	-2.989700	3.247900	-9.708600	27.673118	5.120326E-5	20.853208
2217.581862	-3.039000	3.246200	-9.864800	27.690827	5.031220E-5	20.844002
2218.583305	-2.999500	3.246300	-9.736300	27.682596	5.202832E-5	20.868908
2219.586081	-3.002300	3.245000	-9.741900	27.618884	4.793602E-5	20.864543
2220.583904	-3.010700	3.244600	-9.767400	27.564771	4.895910E-5	20.840441
2221.584097	-3.007500	3.243300	-9.753500	27.591062	4.862907E-5	20.855041
2222.584169	-2.986200	3.244100	-9.686000	27.537413	4.998217E-5	20.860804
2223.587033	-3.013400	3.243000	-9.770700	27.524100	4.879409E-5	20.843617
2224.585402	-3.010800	3.242600	-9.762000	27.565773	4.942113E-5	20.846665
2225.587050	-2.980100	3.243100	-9.663700	27.528146	4.853007E-5	20.844368
2226.585647	-3.002500	3.243000	-9.736500	27.524754	4.714396E-5	20.835740
2227.585307	-3.006500	3.242900	-9.749000	27.476364	4.737498E-5	20.841109
2228.585537	-3.003600	3.242600	-9.739000	27.519992	4.843106E-5	20.832846
2229.584889	-3.006800	3.241300	-9.745500	27.560550	4.625290E-5	20.841410
2230.586915	-3.025100	3.240700	-9.802600	27.650727	4.800203E-5	20.855333
2231.586174	-3.000300	3.241200	-9.724200	27.634166	4.615389E-5	20.839618
2232.585376	-3.003000	3.240300	-9.729800	27.669188	4.542784E-5	20.841668
2233.596803	-3.010100	3.238900	-9.748700	27.598113	4.631890E-5	20.832738
2234.585639	-3.029300	3.237500	-9.806600	27.584030	4.915711E-5	20.832793
2235.587640	-3.000700	3.237600	-9.713300	27.589410	4.615389E-5	20.833939
2236.588363	-2.992500	3.239000	-9.691800	27.563693	4.354670E-5	20.839357
2237.585874	-3.009200	3.238400	-9.744500	27.585149	4.598888E-5	20.841979
2238.587402	-2.999400	3.236300	-9.706600	27.583913	4.595588E-5	20.841683
2239.590354	-2.989700	3.237900	-9.679500	27.558539	4.456978E-5	20.838438
2240.586625	-2.998900	3.237200	-9.707500	27.565779	4.466878E-5	20.829603
2241.589465	-2.990900	3.236500	-9.679500	27.572131	4.562585E-5	20.833149
2242.586224	-3.005100	3.235400	-9.722300	27.537662	4.404174E-5	20.831184
2243.586667	-3.001200	3.235800	-9.710100	27.502542	4.374472E-5	20.830463
2244.586245	-3.018200	3.234200	-9.760500	27.465286	4.387672E-5	20.838972
2245.586995	-2.987700	3.236400	-9.668500	27.494487	4.463578E-5	20.825203
2246.588790	-2.990300	3.233600	-9.668900	27.536675	4.354670E-5	20.838726
2247.586730	-3.025600	3.233000	-9.780400	27.604559	4.443777E-5	20.846336
2248.587415	-3.009400	3.232500	-9.726600	27.603916	4.486680E-5	20.826724
2249.587554	-2.981800	3.235200	-9.645300	27.577900	4.433876E-5	20.819513
2250.587542	-3.013200	3.232400	-9.738900	27.551216	4.361271E-5	20.843872
2251.586810	-3.008100	3.232400	-9.722600	27.611461	4.503181E-5	20.813453
2252.591084	-3.000200	3.230200	-9.690000	27.603500	4.400873E-5	20.827727
2253.587604	-2.981900	3.231400	-9.634500	27.652703	4.433876E-5	20.829821
2254.595839	-3.000900	3.229700	-9.691100	27.695136	4.437176E-5	20.844544
2255.590605	-2.979700	3.231000	-9.626700	27.737812	4.206159E-5	20.818738
2256.590375	-3.005200	3.229200	-9.704200	27.777267	4.252363E-5	20.843744
2257.594049	-2.993300	3.229300	-9.665100	27.796364	4.397573E-5	20.830246
2258.592879	-3.009600	3.227400	-9.712000	27.802317	4.156656E-5	20.815375
2259.592970	-3.024000	3.227100	-9.757900	27.795495	4.291965E-5	20.836009
2260.591753	-3.009600	3.227000	-9.710700	27.721846	4.245762E-5	20.832068
2261.592331	-3.015400	3.226700	-9.728600	27.701133	4.074149E-5	20.827346
2262.593182	-3.010600	3.226800	-9.713000	27.709045	4.166556E-5	20.829144
2263.591101	-2.994400	3.225900	-9.658500	27.648707	4.067549E-5	20.809680
2264.592358	-3.005500	3.226400	-9.695900	27.634644	4.037847E-5	20.808331
2265.599595	-2.985000	3.226100	-9.629000	27.687145	4.093951E-5	20.838874
2266.592169	-2.991300	3.224400	-9.644200	27.671944	3.938840E-5	20.816466
2267.595298	-2.988400	3.224500	-9.635600	27.638237	4.219360E-5	20.832809
2268.592006	-3.006900	3.223800	-9.692800	27.698252	4.031246E-5	20.830137
2269.591948	-3.015500	3.222500	-9.717000	27.685235	3.661619E-5	20.816090
2270.594678	-2.994400	3.223000	-9.650700	27.703857	4.130254E-5	20.822975
2271.593493	-2.987900	3.223400	-9.630500	27.678687	3.958641E-5	20.828467
2272.597788	-2.987600	3.222000	-9.624500	27.682948	3.942140E-5	20.810469
2273.593627	-3.002300	3.221900	-9.672000	27.635527	3.961941E-5	20.830082
2274.593724	-2.990100	3.221300	-9.629900	27.651799	3.935539E-5	20.826067
2275.597566	-3.010200	3.221500	-9.696500	27.662539	3.839832E-5	20.813166
2276.596419	-3.010600	3.219900	-9.693200	27.704475	3.968542E-5	20.826916
2277.596504	-3.018600	3.219900	-9.719200	27.703233	3.932239E-5	20.826141
2278.599873	-3.002000	3.219800	-9.665200	27.685127	3.853033E-5	20.801757
2279.596721	-2.973100	3.220000	-9.572800	27.699788	3.711123E-5	20.812242
2280.596717	-2.986700	3.218700	-9.611500	27.762969	3.661619E-5	20.825088
2281.604760	-2.972900	3.219100	-9.568900	27.831836	3.961941E-5	20.808573
2282.597250	-2.985800	3.217600	-9.606500	27.885293	3.681421E-5	20.823967
2283.600484	-3.004700	3.217800	-9.667600	27.869251	3.796929E-5	20.829632
2284.598519	-3.006400	3.216300	-9.668700	27.813235	3.460304E-5	20.807871
2285.598232	-2.987200	3.215200	-9.603300	27.822506	3.763927E-5	20.822891
2286.598727	-2.993700	3.215400	-9.625000	27.864510	3.816731E-5	20.829128
2287.599174	-2.984900	3.216300	-9.600200	27.893444	3.582413E-5	20.812257
2288.600325	-2.971700	3.216800	-9.557500	27.854047	3.463605E-5	20.829504
2289.600619	-3.013100	3.214300	-9.684500	27.847451	3.374498E-5	20.829504
2290.601346	-3.002900	3.215000	-9.653700	27.823051	3.430602E-5	20.816801
2291.601578	-3.011400	3.214100	-9.677100	27.811125	3.760626E-5	20.810489
2292.604396	-2.984200	3.213800	-9.588400	27.780642	3.443803E-5	20.819640
2293.602679	-3.024700	3.211800	-9.714000	27.798968	3.539510E-5	20.820065
2294.605289	-2.991700	3.211300	-9.606600	27.785653	3.374498E-5	20.811881
2295.602620	-2.976000	3.211400	-9.556500	27.777045	3.265590E-5	20.810804
2296.602781	-3.004800	3.210500	-9.646100	27.731862	3.443803E-5	20.817492
2297.604375	-3.005600	3.210700	-9.649700	27.767047	3.384399E-5	20.809278
2298.602229	-2.967300	3.212100	-9.530900	27.782816	3.282091E-5	20.825147
2299.604327	-2.967400	3.210900	-9.527500	27.813617	3.252389E-5	20.800669
2300.603753	-2.982600	3.208900	-9.570100	27.854900	3.351396E-5	20.813767
2301.603633	-2.991200	3.209500	-9.599300	27.831570	3.153382E-5	20.796925
2302.605615	-3.005100	3.208900	-9.642000	27.837144	3.278791E-5	20.825295
2303.605936	-3.005100	3.211100	-9.648600	27.825342	3.120379E-5	20.816261
2304.607900	-3.013800	3.206800	-9.663700	27.806810	3.110479E-5	20.827956
2305.608541	-3.013800	3.207300	-9.666000	27.810530	3.166583E-5	20.810364
2306.607231	-2.994800	3.206000	-9.600700	27.827662	3.110479E-5	20.818597
2307.607363	-3.022500	3.205000	-9.686300	27.858163	3.018072E-5	20.819422
2308.609703	-2.976800	3.206100	-9.543500	27.856695	3.041174E-5	20.820316
2309.606252	-3.008500	3.205500	-9.642800	27.830882	2.839859E-5	20.826578
2310.608308	-3.003300	3.205600	-9.626200	27.851856	2.813457E-5	20.808333
2311.607906	-3.009600	3.203100	-9.639100	27.931773	3.070876E-5	20.797729
2312.607278	-2.997300	3.203500	-9.600900	27.950537	2.902563E-5	20.806659
2313.611434	-2.997800	3.201700	-9.596700	27.962363	2.882762E-5	20.814295
2314.607833	-3.004900	3.202300	-9.622100	27.972727	2.925665E-5	20.805286
2315.609928	-2.998400	3.202800	-9.602500	27.917433	2.823358E-5	20.803685
2316.609325	-3.009500	3.201600	-9.634300	27.966078	2.628643E-5	20.801912
2317.609071	-2.999500	3.201300	-9.601100	28.007207	3.021372E-5	20.803957
2318.611882	-3.014000	3.199300	-9.641500	28.006167	2.714450E-5	20.823298
2319.610210	-3.002900	3.199400	-9.606600	28.002472	2.707849E-5	20.822424
2320.611068	-2.988200	3.200900	-9.564200	27.951401	2.631944E-5	20.822701
2321.613675	-3.006300	3.197800	-9.612100	27.934687	2.618743E-5	20.805404
2322.611668	-3.003900	3.198700	-9.607100	27.936179	2.668246E-5	20.811173
2323.612326	-2.999800	3.198600	-9.594200	27.983384	2.559338E-5	20.810323
2324.615627	-2.967500	3.198000	-9.489600	28.042065	2.704549E-5	20.813440
2325.614689	-2.997000	3.196600	-9.578900	28.086273	2.598941E-5	20.803414
2326.618647	-3.021700	3.195500	-9.655400	28.071725	2.664946E-5	20.802046
2327.613939	-3.004300	3.196500	-9.602000	28.055980	2.506534E-5	20.817016
2328.614841	-2.985700	3.197000	-9.544800	28.044901	2.595641E-5	20.780260
2329.615509	-2.995800	3.194400	-9.569400	28.032905	2.367924E-5	20.810857
2330.615750	-2.997300	3.195100	-9.576900	28.009720	2.443830E-5	20.807434
2331.617208	-3.004600	3.194200	-9.596000	28.007689	2.499934E-5	20.816769
2332.616891	-3.003200	3.193100	-9.588700	27.920447	2.529636E-5	20.804822
2333.616883	-2.982100	3.193000	-9.521400	27.843627	2.354723E-5	20.799577
2334.617463	-3.002100	3.193000	-9.584400	27.900043	2.358023E-5	20.796613
2335.615450	-3.023100	3.192100	-9.648800	27.925978	2.318421E-5	20.811811
2336.620855	-2.993000	3.193000	-9.555400	27.915069	2.414128E-5	20.794667
2337.616276	-3.018600	3.192400	-9.635200	27.865976	2.169910E-5	20.812586
2338.624987	-2.984100	3.191100	-9.521200	27.938005	2.513135E-5	20.792149
2339.617612	-2.972400	3.190500	-9.482300	28.008028	2.295319E-5	20.798145
2340.618737	-2.986300	3.188800	-9.521900	28.023671	2.338222E-5	20.805830
2341.616366	-3.008400	3.188200	-9.589800	27.958689	2.278818E-5	20.789260
2342.619744	-2.982100	3.187300	-9.503800	27.902281	2.156709E-5	20.804082
2343.616993	-3.016900	3.187500	-9.616100	27.965480	2.308520E-5	20.795621
2344.617648	-3.008400	3.184900	-9.579200	28.032847	2.067602E-5	20.781876
2345.618301	-3.019100	3.184600	-9.613800	28.056521	2.387726E-5	20.794327
2346.617776	-3.003200	3.185600	-9.565900	28.068939	2.391026E-5	20.797819
2347.620874	-2.983800	3.185300	-9.503200	28.091132	2.295319E-5	20.771321
2348.618529	-3.017300	3.182700	-9.602000	28.036841	2.311820E-5	20.796802
2349.617404	-3.030400	3.181900	-9.641300	27.987361	2.094004E-5	20.780661
2350.618803	-3.024100	3.181600	-9.620600	28.057866	2.146808E-5	20.793310
2351.620430	-3.006600	3.182600	-9.567700	28.091058	2.437229E-5	20.782627
2352.620885	-2.974500	3.182400	-9.465200	28.028166	2.100605E-5	20.794234
2353.619318	-2.989300	3.180700	-9.507100	28.018127	2.209513E-5	20.787922
2354.620382	-3.028500	3.179400	-9.627600	27.986958	1.925692E-5	20.770773
2355.620210	-3.008800	3.179400	-9.564800	28.003347	2.011498E-5	20.798649
2356.622057	-2.980400	3.179800	-9.476100	28.004766	2.037900E-5	20.783481
2357.621144	-3.001600	3.178700	-9.540200	28.071231	2.166609E-5	20.789221
2358.621567	-2.986200	3.177500	-9.487900	28.091750	2.080803E-5	20.777159
2359.620784	-2.998600	3.177000	-9.525300	28.150508	2.146808E-5	20.782731
2360.620430	-2.972800	3.178500	-9.448300	28.212279	2.057701E-5	20.781856
2361.624469	-3.007300	3.177200	-9.554200	28.100007	2.136907E-5	20.771247
2362.622659	-2.999400	3.176400	-9.525600	28.053253	2.090704E-5	20.768278
2363.624754	-3.014900	3.173500	-9.567200	28.050373	2.259016E-5	20.766801
2364.623610	-2.998800	3.174000	-9.517100	28.012665	2.011498E-5	20.771992
2365.623343	-2.991300	3.175800	-9.499300	27.961712	2.255716E-5	20.787086
2366.623051	-3.023800	3.172400	-9.592100	27.953605	2.027999E-5	20.775608
2367.622669	-3.015000	3.172600	-9.563900	28.006487	1.856387E-5	20.757239
2368.626439	-3.026000	3.173100	-9.601300	28.042036	2.047801E-5	20.784014
2369.625506	-3.016300	3.171500	-9.565200	28.059759	1.876188E-5	20.774353
2370.623348	-2.996900	3.171800	-9.503600	27.989028	1.955394E-5	20.794667
2371.623975	-3.011800	3.170000	-9.545500	28.003974	1.945493E-5	20.753761
2372.627742	-3.018400	3.169500	-9.565900	28.007689	2.014798E-5	20.770302
2373.624665	-2.986900	3.169600	-9.466700	27.984876	1.892689E-5	20.761564
2374.628635	-2.971100	3.168400	-9.412800	28.037158	1.853086E-5	20.780052
2375.625731	-2.990600	3.168300	-9.474700	28.096140	1.767280E-5	20.773517
2376.628518	-2.999100	3.167000	-9.497300	28.171690	1.925692E-5	20.759010
2377.625126	-2.980300	3.167500	-9.439000	28.158998	1.909190E-5	20.779898
2378.625650	-2.990100	3.166100	-9.466000	28.110682	1.664973E-5	20.783889
2379.630789	-2.989600	3.165700	-9.463400	28.146796	1.876188E-5	20.760976
2380.625574	-3.011800	3.163400	-9.526300	28.158046	1.833285E-5	20.767086
2381.627471	-3.002200	3.164100	-9.498400	28.143794	1.823384E-5	20.782135
2382.628289	-2.986500	3.163400	-9.446500	28.153042	1.529663E-5	20.775798
2383.627579	-3.005700	3.162900	-9.506100	28.186501	1.790382E-5	20.773447
2384.626770	-3.021900	3.160500	-9.549600	28.206507	1.645171E-5	20.769407
2385.630726	-2.964300	3.160100	-9.365700	28.173289	1.595667E-5	20.771526
2386.628768	-2.987900	3.160600	-9.441500	28.157374	1.427355E-5	20.759296
2387.627972	-2.994900	3.159400	-9.461000	28.130424	1.773881E-5	20.760141
2388.628967	-2.999500	3.159600	-9.475900	28.111118	1.417454E-5	20.761568
2389.629229	-3.003900	3.157400	-9.484000	28.142400	1.503261E-5	20.760817
2390.631506	-3.014700	3.156800	-9.515200	28.185534	1.410854E-5	20.745921
2391.628879	-3.001500	3.156900	-9.474300	28.260142	1.321747E-5	20.768878
2392.629286	-3.014400	3.155900	-9.511500	28.194159	1.420755E-5	20.754130
2393.630327	-3.000100	3.154800	-9.464100	28.183106	1.503261E-5	20.752485
2394.629645	-3.002700	3.155200	-9.473200	28.165606	1.407554E-5	20.766636
2395.633712	-3.010600	3.152600	-9.489300	28.164193	1.344849E-5	20.772326
2396.633056	-2.996100	3.154100	-9.449300	28.205688	1.526362E-5	20.760995
2397.631889	-3.006200	3.152500	-9.476200	28.275884	1.556064E-5	20.754856
2398.629822	-2.962500	3.152200	-9.337800	28.299289	1.463658E-5	20.755187
2399.633572	-2.985100	3.150100	-9.402700	28.311106	1.341549E-5	20.758076
2400.632356	-2.968600	3.151900	-9.356100	28.232783	1.565965E-5	20.750816
2401.636331	-3.009800	3.149400	-9.478400	28.204997	1.341549E-5	20.751290
2402.633205	-2.999100	3.148600	-9.442100	28.210378	1.433956E-5	20.760502
2403.633356	-3.007500	3.147100	-9.463200	28.266269	1.635270E-5	20.748494
2404.633225	-2.997600	3.148000	-9.436000	28.270606	1.295345E-5	20.759499
2405.633879	-2.983000	3.147400	-9.387600	28.272416	1.094031E-5	20.748045
2406.635163	-2.962700	3.144800	-9.316300	28.297052	1.259043E-5	20.753409
2407.633621	-2.991400	3.145700	-9.409100	28.314304	1.377851E-5	20.753710
2408.632766	-2.994600	3.143700	-9.412700	28.331998	1.067629E-5	20.740705
2409.633858	-3.003300	3.142000	-9.435500	28.357053	1.160035E-5	20.742226
2410.633823	-3.023400	3.141700	-9.497400	28.347434	1.232641E-5	20.738704
2411.633999	-3.003900	3.141800	-9.436500	28.350064	1.176537E-5	20.740403
2412.636356	-2.998700	3.139900	-9.415100	28.275511	1.252442E-5	20.757800
2413.634806	-3.000600	3.140500	-9.422900	28.225782	1.004924E-5	20.753724
2414.634817	-3.004700	3.137700	-9.426300	28.172116	1.008224E-5	20.758491
2415.644230	-2.996400	3.138300	-9.401900	28.220087	8.432121E-6	20.752258
2416.634293	-2.998100	3.137600	-9.406200	28.278155	1.008224E-5	20.753823
2417.640570	-2.983900	3.136300	-9.358200	28.338757	1.057728E-5	20.737079
2418.637506	-2.974900	3.136800	-9.331200	28.289139	9.356189E-6	20.736906
2419.638504	-3.010800	3.134000	-9.435100	28.243673	9.158174E-6	20.745184
2420.637977	-3.005600	3.133400	-9.416100	28.209293	8.267109E-6	20.759883
2421.637879	-2.990900	3.133100	-9.369800	28.266431	7.706067E-6	20.744863
2422.640680	-2.981800	3.132700	-9.340100	28.289359	7.706067E-6	20.743767
2423.640833	-3.033400	3.130600	-9.495800	28.290914	6.187956E-6	20.751971
2424.637294	-3.006300	3.130100	-9.409000	28.319292	6.881007E-6	20.736920
2425.638096	-3.013100	3.129000	-9.427100	28.294681	8.300111E-6	20.739168
2426.639846	-3.012100	3.127200	-9.418900	28.284964	6.748997E-6	20.749298
2427.638133	-2.992700	3.128700	-9.362900	28.308112	6.682992E-6	20.748898
2428.641804	-2.985900	3.128100	-9.339400	28.322215	8.861152E-6	20.758831
2429.641928	-3.011000	3.126600	-9.412600	28.323329	9.290184E-6	20.745253
2430.641052	-2.998100	3.125900	-9.370900	28.323304	8.564130E-6	20.731951
2431.642882	-2.999000	3.124900	-9.369900	28.370144	6.947011E-6	20.745925
2432.642144	-2.993200	3.123400	-9.347700	28.337378	8.861152E-6	20.746596
2433.646414	-2.978700	3.123100	-9.301100	28.299111	8.894155E-6	20.735093
2434.644354	-2.979800	3.122800	-9.304100	28.346692	8.234106E-6	20.726103
2435.644849	-2.983600	3.122600	-9.315500	28.312365	8.498126E-6	20.733739
2436.645113	-2.994900	3.119700	-9.342800	28.309314	6.154953E-6	20.741573
2437.646348	-3.017100	3.120100	-9.411900	28.335042	6.781999E-6	20.754677
2438.643677	-3.034500	3.116300	-9.455300	28.380322	5.758924E-6	20.721084
2439.646493	-3.011800	3.117900	-9.390000	28.345196	9.092169E-6	20.750201
2440.645935	-2.979400	3.118900	-9.292000	28.325369	7.046019E-6	20.756316
2441.646138	-2.999200	3.115700	-9.344100	28.321101	6.352968E-6	20.743958
2442.648309	-3.012000	3.113700	-9.377200	28.387552	5.230885E-6	20.733581
2443.645298	-3.023100	3.114000	-9.411600	28.406681	7.079021E-6	20.739567
2444.647931	-3.011100	3.113400	-9.374200	28.395051	5.791926E-6	20.736391
2445.644906	-3.018900	3.112100	-9.394700	28.422245	5.098875E-6	20.748127
2446.647261	-2.986000	3.112100	-9.291500	28.349655	3.514759E-6	20.750898
2447.647080	-2.985800	3.108700	-9.281500	28.354432	4.834856E-6	20.732000
2448.646362	-3.005200	3.108300	-9.340000	28.401325	5.131878E-6	20.746502
2449.646821	-3.008500	3.107600	-9.348300	28.462856	4.735849E-6	20.747297
2450.649276	-2.999900	3.106900	-9.319500	28.550009	3.019722E-6	20.726956
2451.646691	-2.990100	3.106100	-9.286700	28.572112	4.735849E-6	20.744950
2452.648433	-3.029200	3.103800	-9.401300	28.490960	4.768851E-6	20.759003
2453.650899	-3.008100	3.104300	-9.337100	28.500867	2.953717E-6	20.748116
2454.646866	-2.980700	3.104300	-9.252100	28.467461	4.240812E-6	20.716371
2455.651102	-2.985300	3.103400	-9.263700	28.454332	2.656696E-6	20.739186
2456.648188	-3.012100	3.100100	-9.337000	28.402463	2.425679E-6	20.725361
2457.648623	-2.993300	3.099600	-9.277400	28.484687	3.151732E-6	20.731822
2458.651591	-3.001500	3.098700	-9.299700	28.531819	2.689698E-6	20.729974
2459.648389	-2.990600	3.098200	-9.264300	28.574986	2.359674E-6	20.738361
2460.650730	-3.004000	3.098300	-9.306100	28.530284	3.118730E-6	20.734593
2461.650845	-3.009100	3.096900	-9.317900	28.508375	3.976793E-6	20.750937
2462.650474	-3.014000	3.094900	-9.327000	28.476211	2.326671E-6	20.747944
2463.654234	-3.022700	3.094300	-9.352700	28.393290	9.735717E-7	20.749317
2464.650386	-3.024500	3.092500	-9.352600	28.352416	1.138584E-6	20.754152
2465.657564	-3.014600	3.091900	-9.319900	28.391009	1.039577E-6	20.747020
2466.651025	-2.974600	3.092300	-9.198100	28.383622	1.435606E-6	20.745746
2467.650860	-3.003100	3.090000	-9.277400	28.431156	1.600618E-6	20.726754
2468.654263	-2.975900	3.089600	-9.193300	28.512093	2.854710E-6	20.737136
2469.653159	-3.008000	3.088200	-9.287700	28.607294	2.458681E-6	20.727277
2470.652379	-2.996500	3.087300	-9.250200	28.607226	1.369601E-6	20.754236
2471.656547	-3.034800	3.084000	-9.358600	28.602268	1.369601E-6	20.752562
2472.653970	-2.986900	3.084500	-9.211800	28.609457	-6.765498E-7	20.729930
2473.653563	-2.999000	3.083000	-9.244700	28.551593	1.864637E-6	20.746570
2474.659440	-3.004300	3.082100	-9.258000	28.600983	8.415620E-7	20.718550
2475.655462	-3.020400	3.080200	-9.302800	28.614508	1.996647E-6	20.749243
2476.661304	-3.008300	3.080700	-9.266500	28.624626	1.237591E-6	20.744259
2477.654403	-2.977300	3.079000	-9.166900	28.567380	1.402603E-6	20.745400
2478.657602	-3.002200	3.079600	-9.245300	28.582426	3.795279E-7	20.745380
2479.659081	-3.021500	3.075900	-9.292900	28.614543	-5.445401E-7	20.762080
2480.658676	-2.980900	3.076600	-9.169600	28.634566	3.580764E-6	20.755694
2481.659406	-2.966700	3.074600	-9.119600	28.566375	-2.145158E-7	20.751975
2482.660056	-3.012400	3.073400	-9.257100	28.561294	-4.455328E-7	20.770092
2483.658768	-2.992500	3.072800	-9.194800	28.543830	1.204589E-6	20.751081
2484.658975	-2.994200	3.072000	-9.197000	28.589749	2.475182E-7	20.740901
2485.658640	-3.009400	3.070900	-9.240500	28.635140	9.405693E-7	20.745366
2486.659760	-3.000400	3.070000	-9.210400	28.667206	1.138584E-6	20.753482
2487.660666	-2.979200	3.069900	-9.144300	28.624641	-1.369601E-6	20.763716
2488.659695	-3.027600	3.066400	-9.282600	28.582275	1.650122E-8	20.747125
2489.659753	-3.002300	3.067600	-9.209200	28.609282	1.765630E-6	20.752039
2490.659916	-3.018900	3.064300	-9.250000	28.650063	-3.465255E-7	20.766087
2491.658407	-3.021600	3.063700	-9.256100	28.671600	-5.445401E-7	20.734199
2492.661438	-3.026800	3.063100	-9.270000	28.715184	-1.138584E-6	20.723569
2493.658882	-2.998300	3.062000	-9.179700	28.755397	-1.006574E-6	20.759335
2494.658679	-3.007100	3.060100	-9.201200	28.805391	-5.115377E-7	20.757063
2495.658852	-2.988100	3.058800	-9.139300	28.772898	-1.039577E-6	20.761790
2496.658333	-2.965400	3.058100	-9.066900	28.689946	-1.864637E-6	20.766428
2497.662658	-2.984000	3.056900	-9.119900	28.604938	-8.745644E-7	20.755725
2498.663635	-2.963900	3.055800	-9.056500	28.556921	-1.699625E-6	20.755256
2499.660054	-2.999400	3.053300	-9.156900	28.556181	-7.755571E-7	20.766365
2500.663750	-3.013500	3.053300	-9.199900	28.595905	-2.920715E-6	20.755637
2501.661689	-3.011200	3.051700	-9.188500	28.609166	-1.270594E-6	20.761406
2502.660933	-2.989200	3.050300	-9.116800	28.572743	-4.785352E-7	20.757914
2503.663268	-2.998800	3.049300	-9.143500	28.576509	-1.303596E-6	20.757440
2504.661621	-3.015200	3.049200	-9.193200	28.610804	-2.293669E-6	20.774436
2505.661592	-3.012000	3.046800	-9.176100	28.647402	-2.194662E-6	20.752501
2506.663508	-2.977700	3.047000	-9.071700	28.619087	-3.415752E-6	20.750535
2507.662817	-3.003700	3.045200	-9.146000	28.660049	-9.075668E-7	20.754334
2508.666094	-3.021100	3.043200	-9.192700	28.683146	-8.085595E-7	20.761476
2509.668429	-2.983100	3.043300	-9.076700	28.786163	-1.815134E-7	20.769463
2510.663847	-3.014300	3.039600	-9.161300	28.823348	-3.465255E-7	20.758083
2511.661941	-3.008800	3.038700	-9.142300	28.776803	-2.557688E-6	20.746283
2512.664507	-2.979000	3.038200	-9.049100	28.741431	-1.600618E-6	20.756172
2513.664184	-3.001400	3.037100	-9.115200	28.762917	-2.029649E-6	20.749366
2514.666990	-3.006300	3.034400	-9.121300	28.732124	-2.062652E-6	20.755333
2515.664343	-3.001300	3.035100	-9.108200	28.672511	-2.392676E-6	20.752186
2516.664523	-2.986400	3.033200	-9.057100	28.695284	-1.963645E-6	20.774176
2517.666778	-3.013700	3.032400	-9.137000	28.669324	-1.996647E-6	20.752770
2518.663249	-2.984200	3.030700	-9.042600	28.665014	-1.831635E-6	20.763602
2519.666533	-3.005100	3.029000	-9.102000	28.746306	-2.821708E-6	20.765824
2520.662827	-3.028400	3.027700	-9.168200	28.752906	-3.910788E-6	20.747817
2521.664149	-2.993400	3.028100	-9.063100	28.848415	-1.864637E-6	20.775274
2522.664899	-3.018200	3.024100	-9.126600	28.906184	-3.184735E-6	20.759503
2523.664962	-3.011900	3.023900	-9.106500	28.934497	-2.953718E-6	20.783760
2524.666326	-3.014700	3.022200	-9.109700	28.834618	-3.811781E-6	20.740512
2525.667311	-3.028700	3.021600	-9.150200	28.783396	-3.712773E-6	20.742967
2526.664436	-3.010200	3.019300	-9.087600	28.743654	-3.349747E-6	20.778801
2527.664290	-3.016200	3.017500	-9.100300	28.724732	-2.227664E-6	20.769225
2528.668789	-3.002600	3.018400	-9.062300	28.693835	-3.349747E-6	20.776510
2529.664534	-3.011200	3.017000	-9.084200	28.749142	-2.788705E-6	20.746870
2530.671638	-3.010200	3.014200	-9.072400	28.735736	-3.118730E-6	20.755652
2531.663461	-2.992800	3.014600	-9.021400	28.793865	-2.524686E-6	20.777222
2532.664215	-2.989500	3.013200	-9.007400	28.849730	-4.273815E-6	20.760478
2533.666171	-3.016900	3.010200	-9.080400	28.834620	-4.108803E-6	20.781766
2534.664928	-3.007300	3.007600	-9.043700	28.796621	-2.194662E-6	20.766247
2535.670070	-3.007300	3.008400	-9.045700	28.798509	-4.504832E-6	20.747286
2536.665843	-2.999800	3.006200	-9.017500	28.780024	-3.547761E-6	20.758537
2537.667198	-2.984100	3.004900	-8.966300	28.809860	-3.646769E-6	20.762988
2538.666730	-2.967400	3.004200	-8.914000	28.873231	-3.019722E-6	20.770876
2539.667293	-2.996600	3.002700	-8.997500	28.898475	-2.293669E-6	20.759798
2540.668777	-3.008600	3.000900	-9.027300	28.932210	-3.349747E-6	20.761067
2541.672870	-3.013000	2.998000	-9.032100	28.895847	-3.481756E-6	20.759995
2542.668239	-3.007100	2.999100	-9.017600	28.885694	-2.392676E-6	20.764940
2543.669464	-3.008300	2.997300	-9.015600	28.852801	-3.481756E-6	20.788228
2544.672844	-2.993700	2.995600	-8.967000	28.858871	-2.590691E-6	20.766841
2545.670665	-2.997600	2.993400	-8.971900	28.929367	-1.105581E-6	20.766263
2546.673981	-2.986400	2.992300	-8.935200	28.986362	-1.534613E-6	20.790969
2547.671991	-3.006300	2.990700	-8.990300	28.994314	-3.019722E-6	20.757728
2548.672247	-3.013800	2.987900	-9.004900	28.961326	-1.567615E-6	20.762900
2549.672478	-3.004700	2.989100	-8.980800	28.979425	-3.580764E-6	20.776393
2550.672364	-2.976300	2.988000	-8.892000	28.960723	-1.864637E-6	20.762292
2551.675075	-3.013000	2.984400	-8.990800	28.894789	-4.009795E-6	20.770783
2552.673575	-3.001900	2.984100	-8.957100	28.886312	-3.844783E-6	20.768881
2553.671881	-2.998100	2.982000	-8.939400	28.872564	-1.666623E-6	20.780636
2554.674590	-2.993900	2.981900	-8.925600	28.936323	-2.227664E-6	20.787497
2555.674108	-2.989200	2.980500	-8.908400	28.988416	-3.052725E-6	20.773124
2556.675476	-3.028300	2.976900	-9.014100	29.079413	-4.240812E-6	20.777090
2557.678646	-3.019300	2.976100	-8.984600	29.060119	-4.207810E-6	20.775193
2558.676364	-3.003300	2.975500	-8.935600	29.039933	-2.458681E-6	20.767656
2559.677238	-2.994100	2.974300	-8.904600	29.008976	-3.877786E-6	20.808063
2560.679260	-2.985600	2.972500	-8.874100	28.923567	-5.395897E-6	20.785551
2561.676994	-2.987500	2.971400	-8.876100	28.951957	-3.580764E-6	20.781437
2562.677555	-2.987400	2.969000	-8.868900	28.937564	-4.537834E-6	20.757926
2563.677817	-2.955200	2.969200	-8.773400	28.990990	-3.514759E-6	20.771923
2564.675426	-2.968300	2.967500	-8.807400	29.025648	-3.415752E-6	20.788351
2565.677038	-2.996700	2.964700	-8.882900	29.088261	-6.435474E-7	20.782212
2566.678043	-2.988000	2.963700	-8.854400	29.033056	-3.151732E-6	20.790125
2567.678836	-2.996700	2.961900	-8.875100	28.976136	-4.438827E-6	20.793468
2568.687981	-2.952700	2.962400	-8.745200	29.026119	-4.174807E-6	20.782187
2569.679557	-2.987100	2.960200	-8.840800	28.959243	-2.821708E-6	20.776448
2570.679036	-3.000000	2.956900	-8.869300	28.956400	-5.362895E-6	20.785912
2571.685642	-2.991300	2.955700	-8.840500	28.978666	-5.428900E-6	20.788431
2572.681194	-3.026800	2.954600	-8.942400	28.985774	-5.428900E-6	20.792273
2573.684435	-2.991100	2.951800	-8.827700	28.955959	-3.646769E-6	20.788787
2574.680651	-3.036100	2.949700	-8.954600	28.923039	-2.293669E-6	20.764629
2575.680482	-3.005200	2.949100	-8.861800	28.947542	-4.108803E-6	20.802592
2576.680569	-2.978500	2.948900	-8.782500	28.997099	-4.801854E-6	20.800838
2577.681997	-3.008400	2.946200	-8.862600	29.046493	-3.745776E-6	20.795129
2578.683473	-3.027000	2.944300	-8.911500	29.063880	-5.362895E-6	20.793682
2579.683277	-3.010800	2.943400	-8.861200	29.123966	-1.732628E-6	20.775990
2580.684241	-2.994700	2.941700	-8.807700	29.163590	-4.933863E-6	20.792210
2581.683277	-3.011300	2.940800	-8.854800	29.107693	-4.636841E-6	20.794680
2582.683302	-3.038100	2.938300	-8.926000	29.112012	-6.616987E-6	20.806144
2583.683431	-3.023100	2.937500	-8.879700	29.063053	-3.679771E-6	20.791900
2584.682582	-3.016800	2.935200	-8.853800	28.957191	-4.570837E-6	20.791925
2585.685773	-3.007400	2.933400	-8.821000	28.921368	-5.098876E-6	20.798034
2586.683416	-2.988200	2.932300	-8.761900	28.905714	-6.319965E-6	20.793643
2587.685053	-3.007000	2.930300	-8.811200	28.899699	-5.857931E-6	20.805127
2588.683869	-3.001900	2.928300	-8.789900	28.981894	-3.712773E-6	20.806382
2589.687728	-3.002800	2.926000	-8.785100	29.066896	-4.867859E-6	20.806204
2590.684277	-3.003900	2.926400	-8.789300	29.138232	-3.481756E-6	20.790365
2591.684149	-3.013100	2.924800	-8.811500	29.130929	-5.131878E-6	20.806239
2592.683771	-2.995500	2.922900	-8.754700	29.131649	-3.283742E-6	20.829250
2593.688278	-3.021700	2.919200	-8.819600	29.110175	-5.692919E-6	20.807612
2594.687652	-3.018600	2.918700	-8.808900	29.085931	-5.725922E-6	20.814952
2595.684578	-3.018900	2.915600	-8.800700	29.084917	-5.131878E-6	20.812981
2596.687612	-3.028000	2.914000	-8.822600	29.106965	-2.293669E-6	20.805800
2597.687395	-3.013400	2.914000	-8.779300	29.077374	-6.253961E-6	20.816286
2598.685010	-2.986800	2.912700	-8.699200	29.110882	-2.557688E-6	20.798367
2599.685052	-2.982100	2.911800	-8.681700	29.100138	-4.801854E-6	20.796076
2600.685740	-3.016500	2.909200	-8.774500	29.082629	-4.735849E-6	20.814469
2601.685739	-2.985800	2.906700	-8.678000	29.112280	-1.501611E-6	20.803569
2602.686765	-3.018200	2.905200	-8.767600	29.103883	-5.527907E-6	20.815023
2603.685894	-2.994200	2.903100	-8.690900	29.161767	-5.428900E-6	20.811709
2604.691945	-3.032900	2.900300	-8.795500	29.153272	-2.227664E-6	20.805995
2605.687990	-2.995700	2.900100	-8.686400	29.108227	-2.590691E-6	20.817029
2606.689337	-3.011400	2.896800	-8.722500	29.137725	-3.712773E-6	20.805975
2607.690070	-2.987800	2.895400	-8.650000	29.155081	-3.844783E-6	20.803550
2608.689723	-2.982400	2.894900	-8.632800	29.118996	-3.019722E-6	20.795163
2609.690341	-2.966600	2.892900	-8.581300	29.142431	-4.306817E-6	20.820674
2610.693135	-2.990000	2.889700	-8.639800	29.170486	-4.240812E-6	20.798211
2611.690553	-2.998300	2.887600	-8.657400	29.123614	-3.811781E-6	20.815938
2612.689483	-3.001800	2.886000	-8.661900	29.097007	-3.679771E-6	20.816629
2613.691354	-2.989200	2.884800	-8.622700	29.149293	-4.768851E-6	20.813839
2614.690584	-2.979500	2.883400	-8.590500	29.154145	-2.359674E-6	20.812564
2615.693569	-3.033900	2.880200	-8.737000	29.161057	-2.128657E-6	20.816683
2616.689517	-3.021800	2.877300	-8.693700	29.143818	-3.811781E-6	20.804054
2617.689803	-3.015700	2.876900	-8.674200	29.156052	-3.547761E-6	20.819701
2618.689680	-2.981700	2.876200	-8.573800	29.123853	-4.933863E-6	20.813808
2619.697478	-2.993700	2.873800	-8.602900	29.137200	-2.623693E-6	20.821567
2620.691147	-3.020400	2.871300	-8.671000	29.156871	-6.253961E-6	20.820052
2621.690642	-3.006000	2.868600	-8.622600	29.125863	-4.075800E-6	20.825317
2622.692879	-2.992200	2.868400	-8.581600	29.158821	-4.405824E-6	20.824862
2623.692694	-2.995800	2.865500	-8.582900	29.121985	-3.184735E-6	20.814297
2624.693599	-3.007800	2.864000	-8.612600	29.151831	-5.329893E-6	20.833465
2625.692290	-2.991900	2.862700	-8.563700	29.220547	-1.699625E-6	20.828269
2626.694238	-3.006000	2.859000	-8.593200	29.210794	-5.098876E-6	20.830294
2627.696655	-2.999900	2.858500	-8.574700	29.179661	-6.253961E-6	20.812671
2628.696281	-3.010800	2.855400	-8.596500	29.189365	-4.570837E-6	20.833356
2629.694749	-2.974800	2.855300	-8.492500	29.205980	-3.448754E-6	20.841090
2630.695165	-2.974700	2.852500	-8.484200	29.264544	-3.811781E-6	20.810018
2631.697162	-2.993100	2.850800	-8.532300	29.184429	-4.108803E-6	20.833123
2632.694016	-3.014300	2.846900	-8.580700	29.205755	-5.494905E-6	20.843233
2633.694072	-3.002300	2.844800	-8.540200	29.279624	-4.273815E-6	20.831380
2634.694833	-3.012900	2.843200	-8.565400	29.225041	-5.263888E-6	20.829004
2635.694798	-3.031800	2.841500	-8.613600	29.187144	-5.890934E-6	20.819263
2636.698091	-3.006400	2.840300	-8.538700	29.094573	-5.626914E-6	20.839306
2637.697428	-2.963500	2.837600	-8.408000	29.082044	-4.471829E-6	20.815303
2638.694879	-2.963600	2.835700	-8.402500	29.120356	-4.306817E-6	20.833043
2639.695919	-2.972800	2.832500	-8.418500	29.202627	-5.065873E-6	20.826806
2640.699493	-2.969900	2.831000	-8.407000	29.228549	-3.613766E-6	20.836806
2641.696092	-3.025200	2.827200	-8.552500	29.186874	-5.593912E-6	20.848388
2642.699957	-3.010400	2.826300	-8.507900	29.262279	-4.999868E-6	20.816270
2643.697234	-3.017000	2.823400	-8.517600	29.323069	-2.491683E-6	20.839602
2644.696989	-3.008100	2.821400	-8.486300	29.346866	-4.702846E-6	20.837034
2645.696295	-2.992700	2.818600	-8.433300	29.341441	-4.801854E-6	20.825877
2646.697775	-2.982000	2.816900	-8.398700	29.343666	-2.920715E-6	20.848981
2647.698104	-3.020900	2.812600	-8.495500	29.411861	-2.854710E-6	20.858918
2648.699321	-2.986500	2.811800	-8.395800	29.429512	-5.428900E-6	20.853475
2649.698357	-2.977700	2.808800	-8.363000	29.471604	-3.844783E-6	20.838056
2650.698649	-2.992600	2.806600	-8.396600	29.442223	-4.603839E-6	20.840210
2651.700169	-2.983700	2.804300	-8.366500	29.450471	-5.131878E-6	20.830505
2652.699902	-3.018000	2.801200	-8.453400	29.523749	-5.197883E-6	20.848893
2653.702161	-2.962100	2.798800	-8.288900	29.556680	-4.537834E-6	20.867863
2654.701759	-2.978400	2.797500	-8.331200	29.559032	-3.910788E-6	20.855536
2655.701190	-2.999800	2.792200	-8.375200	29.558043	-4.108803E-6	20.846004
2656.704314	-3.001600	2.790500	-8.375200	29.455479	-5.593912E-6	20.841243
2657.700605	-2.991000	2.788700	-8.339100	29.430920	-3.415752E-6	20.855843
2658.703613	-3.019600	2.784800	-8.408600	29.444910	-4.174807E-6	20.860461
2659.700571	-3.008100	2.782700	-8.370000	29.422060	-5.857931E-6	20.858293
2660.700233	-2.972700	2.780000	-8.262600	29.428225	-3.613766E-6	20.859290
2661.703638	-2.990300	2.776600	-8.301900	29.415955	-4.999868E-6	20.845028
2662.702526	-2.979700	2.773800	-8.265100	29.409840	-5.131878E-6	20.865415
2663.704165	-2.996800	2.769800	-8.299400	29.411006	-5.461902E-6	20.880340
2664.705101	-2.977600	2.767900	-8.240900	29.377752	-4.603839E-6	20.852515
2665.703089	-3.029900	2.763200	-8.370300	29.386549	-4.900861E-6	20.841942
2666.704082	-3.002700	2.760100	-8.287300	29.365287	-6.154953E-6	20.838055
2667.705479	-3.026200	2.757100	-8.341900	29.378753	-3.877786E-6	20.857317
2668.702371	-3.023600	2.754500	-8.327900	29.434818	-3.547761E-6	20.850764
2669.708690	-3.024100	2.751800	-8.320900	29.477356	-4.339820E-6	20.849544
2670.703601	-3.040700	2.747500	-8.352800	29.461240	-4.339820E-6	20.858903
2671.703908	-3.012900	2.745200	-8.270100	29.485358	-2.821708E-6	20.873730
2672.703742	-2.969100	2.743200	-8.143000	29.527032	-5.164880E-6	20.861211
2673.704252	-2.976200	2.740000	-8.153800	29.583030	-4.372822E-6	20.856020
2674.708808	-2.991000	2.735200	-8.180300	29.580831	-3.580764E-6	20.882250
2675.705025	-2.997800	2.731300	-8.186700	29.547563	-4.273815E-6	20.863414
2676.704749	-2.990100	2.729500	-8.159900	29.536695	-4.009795E-6	20.860520
2677.704486	-2.963500	2.726300	-8.078600	29.539273	-4.834856E-6	20.860747
2678.704815	-2.991400	2.722300	-8.142000	29.608415	-5.230885E-6	20.878290
2679.705661	-3.016400	2.718000	-8.196500	29.624687	-3.382749E-6	20.859607
2680.705953	-2.995200	2.713800	-8.127400	29.628112	-2.788705E-6	20.879655
2681.705464	-2.984600	2.712100	-8.093600	29.669476	-5.263888E-6	20.856872
2682.705137	-2.993700	2.707300	-8.103600	29.605732	-5.791927E-6	20.866102
2683.706147	-3.022600	2.701400	-8.164300	29.573906	-4.933863E-6	20.863416
2684.705186	-3.013800	2.698400	-8.131800	29.491962	-6.187956E-6	20.867111
2685.706524	-3.029700	2.693200	-8.158700	29.502708	-5.560910E-6	20.876045
2686.704839	-3.008200	2.690900	-8.094100	29.488156	-6.220958E-6	20.878920
2687.704385	-2.985900	2.687200	-8.022500	29.461367	-5.362895E-6	20.883686
2688.705174	-3.031600	2.681900	-8.129400	29.451470	-4.768851E-6	20.866598
2689.706829	-2.963600	2.679200	-7.939100	29.484673	-5.065873E-6	20.871142
2690.708568	-3.010500	2.673500	-8.047700	29.523641	-5.395897E-6	20.874387
2691.709130	-3.022600	2.668300	-8.063700	29.636282	-6.385970E-6	20.866080
2692.708979	-2.995500	2.665300	-7.982700	29.682775	-5.296890E-6	20.872175
2693.709555	-2.999300	2.661000	-7.980700	29.690471	-4.306817E-6	20.851012
2694.714475	-3.010500	2.655300	-7.992800	29.809805	-3.465255E-7	20.875075
2695.708830	-3.009800	2.651000	-7.978300	29.891851	-2.359674E-6	20.853967
2696.715798	-3.025900	2.646400	-8.006200	29.956587	-2.953718E-6	20.869933
2697.709614	-3.000600	2.641800	-7.926200	29.984827	-1.930642E-6	20.865696
2698.711385	-3.019500	2.636500	-7.960400	29.924820	-3.613766E-6	20.855444
2699.711805	-3.028400	2.631300	-7.967700	29.863222	-3.052725E-6	20.853547
2700.712658	-2.995600	2.629100	-7.874500	29.812387	-3.778778E-6	20.872463
2701.715165	-2.976400	2.624100	-7.809200	29.772171	-2.590691E-6	20.864156
2702.711773	-3.012300	2.616900	-7.881100	29.799813	-3.811781E-6	20.876379
2703.712287	-3.008600	2.612400	-7.858600	29.878324	-4.042798E-6	20.848861
2704.713369	-3.013600	2.605600	-7.851400	29.893743	-3.250739E-6	20.871994
2705.714849	-2.990700	2.600900	-7.777400	29.973157	-2.854710E-6	20.849187
2706.714157	-2.968500	2.596500	-7.706000	30.000976	-2.458681E-6	20.868232
2707.719542	-2.990200	2.591500	-7.748000	29.967050	-5.560910E-6	20.842555
2708.718757	-3.021700	2.583900	-7.807100	29.958318	-5.824929E-6	20.851292
2709.715467	-2.968200	2.579500	-7.655400	29.966091	-4.009795E-6	20.858182
2710.717876	-3.017900	2.572100	-7.761100	30.065912	-4.768851E-6	20.855485
2711.719437	-3.002000	2.567700	-7.706800	30.109639	-6.914009E-6	20.855016
2712.719602	-3.017700	2.559300	-7.722700	30.115511	-3.151732E-6	20.848137
2713.715462	-2.962100	2.555300	-7.567300	30.141367	-2.095654E-6	20.832491
2714.715843	-3.031200	2.547800	-7.722600	30.169549	-5.164880E-6	20.852854
2715.716858	-3.012300	2.541000	-7.653900	30.141202	-2.821708E-6	20.826634
2716.716606	-3.000700	2.535700	-7.608100	30.164139	-4.570837E-6	20.833647
2717.719285	-2.978100	2.530300	-7.534600	30.105704	-2.392676E-6	20.860056
2718.719125	-3.003000	2.523500	-7.576700	30.053593	-4.372822E-6	20.842588
2719.716799	-3.027600	2.517000	-7.619200	30.063050	-5.461902E-6	20.848806
2720.718037	-3.002200	2.512000	-7.541000	30.110807	-4.372822E-6	20.845764
2721.718734	-2.972100	2.506300	-7.447800	30.139087	-4.339820E-6	20.849631
2722.717387	-3.011300	2.500000	-7.527500	30.159424	-4.768851E-6	20.834108
