LabVIEW Measurement	
Writer_Version	2
Reader_Version	2
Separator	Tab
Decimal_Separator	.
Multi_Headings	No
X_Columns	One
Time_Pref	Absolute
Operator	admin
Description	Clolumns are: time, Current, Voltage, Power, Battery Temp, and Chamber Temp
Date	2024/08/16
Time	13:07:17.8513970375061035156
***End_of_Header***	
	
Channels	6						
Samples	1	1	1	1	1	1	
Date	2024/09/14	2024/09/14	2024/09/14	2024/09/14	2024/09/14	2024/09/14	
Time	11:50:43.3667430877685546875	11:50:43.3707423210144042969	11:50:43.3757414817810058594	11:50:43.3512086868286132812	11:50:43.3512086868286132812	11:50:43.3512086868286132812	
X_Dimension	Time	Time	Time	Time	Time	Time	
X0	0.0000000000000000E+0	0.0000000000000000E+0	0.0000000000000000E+0	0.0000000000000000E+0	0.0000000000000000E+0	0.0000000000000000E+0	
Delta_X	1.000000	1.000000	1.000000	1.000000	1.000000	1.000000	
***End_of_Header***							
X_Value	Untitled	Untitled 1	Untitled 2	Untitled 3	Untitled 4	Untitled 5	Comment
0.000000	0.016018	4.086700	0.065607	20.825875	0.000473	20.803116
1.001888	-2.988300	3.916900	-11.703000	20.790140	0.000470	20.826650
2.002270	-3.002000	3.910600	-11.739000	20.812546	0.000470	20.788364
3.004594	-2.972500	3.908000	-11.615000	20.830486	0.000470	20.793976
4.001107	-2.985500	3.902100	-11.648000	20.822248	0.000470	20.809446
5.009971	-2.980400	3.901400	-11.627000	20.810094	0.000470	20.811991
6.004182	-2.998600	3.897500	-11.686000	20.847027	0.000467	20.810044
7.009835	-3.013800	3.894500	-11.737000	20.840761	0.000467	20.814209
8.005008	-2.984900	3.894100	-11.623000	20.847070	0.000469	20.803923
9.004663	-2.970900	3.892100	-11.562000	20.833242	0.000468	20.821389
10.002489	-2.984600	3.890200	-11.609000	20.860915	0.000466	20.804019
11.002276	-3.003700	3.887300	-11.675000	20.858467	0.000463	20.810579
12.005453	-3.005500	3.885800	-11.677000	20.865377	0.000464	20.800894
13.011858	-2.991700	3.884900	-11.622000	20.869917	0.000464	20.804012
14.001830	-3.012500	3.884000	-11.699000	20.876749	0.000464	20.808948
15.005225	-2.991400	3.882700	-11.614000	20.896864	0.000462	20.791606
16.005658	-3.004300	3.881300	-11.660000	20.905617	0.000462	20.799412
17.003559	-3.004700	3.881600	-11.663000	20.912276	0.000461	20.812710
18.004953	-3.002100	3.880400	-11.649000	20.900349	0.000459	20.802204
19.003356	-2.971100	3.879400	-11.526000	20.933533	0.000459	20.790347
20.006166	-2.994500	3.877900	-11.612000	20.929464	0.000460	20.790071
21.005372	-3.007000	3.878800	-11.662000	20.935324	0.000459	20.806836
22.005395	-3.001400	3.877600	-11.637000	20.954581	0.000459	20.777732
23.004814	-2.999900	3.878000	-11.633000	20.955604	0.000459	20.775910
24.009198	-3.028800	3.875200	-11.736000	20.974065	0.000460	20.808599
25.005860	-3.012300	3.875400	-11.672000	20.977705	0.000459	20.785213
26.005458	-3.015400	3.874800	-11.684000	20.987010	0.000457	20.791674
27.004420	-3.004300	3.873500	-11.636000	20.983964	0.000460	20.783886
28.004959	-3.004300	3.872700	-11.634000	20.987053	0.000458	20.800726
29.006071	-3.004400	3.872400	-11.633000	21.030338	0.000458	20.789966
30.004750	-3.007800	3.872400	-11.647000	21.021154	0.000457	20.795479
31.007380	-3.007800	3.872500	-11.645000	21.018455	0.000456	20.782822
32.006497	-3.010600	3.871500	-11.655000	21.018604	0.000454	20.791980
33.005106	-3.006300	3.871000	-11.637000	21.034319	0.000456	20.790154
34.007136	-3.002900	3.872300	-11.627000	21.049637	0.000457	20.792199
35.006161	-3.001600	3.870500	-11.617000	21.033866	0.000456	20.785908
36.007159	-3.011500	3.870100	-11.653000	21.067018	0.000455	20.790618
37.007158	-3.028600	3.869900	-11.720000	21.060605	0.000455	20.798428
38.008884	-3.018800	3.867900	-11.676000	21.086698	0.000454	20.810777
39.009209	-2.975000	3.870200	-11.513000	21.083203	0.000453	20.789263
40.010646	-2.981700	3.868400	-11.534000	21.096349	0.000453	20.790558
41.007788	-2.987400	3.868400	-11.555000	21.100064	0.000453	20.768669
42.008728	-2.973200	3.869400	-11.503000	21.132244	0.000454	20.791376
43.008516	-3.000200	3.867000	-11.601000	21.116697	0.000453	20.794791
44.009715	-2.999300	3.866700	-11.596000	21.144962	0.000453	20.796511
45.008285	-2.965000	3.867500	-11.466000	21.148874	0.000453	20.782407
46.008499	-2.975300	3.867400	-11.505000	21.189536	0.000452	20.771873
47.007977	-2.985000	3.865900	-11.538000	21.165486	0.000452	20.770100
48.011306	-2.999800	3.865500	-11.595000	21.160870	0.000453	20.779233
49.011228	-3.000300	3.865100	-11.595000	21.173640	0.000451	20.810025
50.009797	-2.999800	3.864600	-11.592000	21.179749	0.000452	20.786739
51.011170	-2.993300	3.865700	-11.570000	21.199657	0.000453	20.760660
52.010312	-2.989400	3.865900	-11.555000	21.211878	0.000452	20.768618
53.010588	-3.031600	3.864400	-11.714000	21.234378	0.000452	20.790653
54.010567	-2.996100	3.865100	-11.579000	21.215493	0.000455	20.786459
55.011305	-3.004900	3.862800	-11.606000	21.217039	0.000455	20.778523
56.010616	-2.987100	3.863500	-11.539000	21.252754	0.000452	20.771103
57.012229	-3.001400	3.863100	-11.594000	21.237590	0.000452	20.778219
58.009619	-2.968800	3.863900	-11.470000	21.268915	0.000454	20.784426
59.018229	-3.008700	3.863300	-11.623000	21.273354	0.000450	20.771797
60.016740	-3.003000	3.863200	-11.600000	21.263125	0.000450	20.775788
61.011294	-2.993900	3.862700	-11.563000	21.283102	0.000452	20.775860
62.020504	-2.998200	3.862400	-11.579000	21.308872	0.000451	20.777933
63.015575	-3.003600	3.862500	-11.600000	21.324856	0.000454	20.783492
64.014660	-2.994700	3.861200	-11.562000	21.320658	0.000454	20.801104
65.017350	-2.988900	3.862400	-11.543000	21.307961	0.000453	20.785556
66.016037	-2.993200	3.861900	-11.558000	21.336273	0.000451	20.786855
67.016455	-2.999900	3.860400	-11.580000	21.335647	0.000451	20.783384
68.020882	-2.989600	3.861600	-11.543000	21.343206	0.000452	20.774350
69.014883	-2.997400	3.860500	-11.570000	21.344175	0.000452	20.796183
70.017452	-3.018200	3.860200	-11.650000	21.356819	0.000453	20.764262
71.023632	-3.020400	3.860000	-11.658000	21.362531	0.000453	20.771873
72.013852	-3.019000	3.860200	-11.653000	21.378114	0.000448	20.768498
73.015918	-3.030600	3.860100	-11.697000	21.389018	0.000452	20.795054
74.023075	-2.996700	3.860100	-11.566000	21.389863	0.000453	20.756545
75.019121	-2.983600	3.858700	-11.512000	21.416674	0.000451	20.778629
76.016127	-2.987700	3.860000	-11.531000	21.431913	0.000452	20.786764
77.018680	-2.986700	3.859700	-11.527000	21.434407	0.000453	20.783569
78.019306	-2.986800	3.859500	-11.526000	21.441261	0.000453	20.767667
79.020642	-3.000900	3.859600	-11.581000	21.447121	0.000454	20.775427
80.020083	-2.991900	3.859500	-11.546000	21.472063	0.000455	20.777150
81.020059	-3.017000	3.858600	-11.640000	21.456595	0.000456	20.769260
82.019816	-2.996900	3.860000	-11.567000	21.485205	0.000453	20.749047
83.023779	-3.033300	3.858200	-11.702000	21.467343	0.000453	20.796609
84.022308	-2.989900	3.857900	-11.534000	21.485675	0.000452	20.780813
85.019941	-3.000000	3.858400	-11.574000	21.494329	0.000454	20.782834
86.028046	-3.005500	3.857200	-11.592000	21.502335	0.000452	20.760973
87.022171	-2.995400	3.858600	-11.557000	21.533009	0.000450	20.779338
88.025366	-3.017000	3.857700	-11.638000	21.513432	0.000452	20.771603
89.029509	-3.011400	3.856600	-11.613000	21.535601	0.000454	20.762491
90.025855	-3.009400	3.857500	-11.607000	21.543982	0.000452	20.754282
91.026595	-3.009000	3.856000	-11.601000	21.574007	0.000452	20.783853
92.029127	-3.000700	3.855600	-11.569000	21.579293	0.000453	20.748840
93.024662	-3.009500	3.856000	-11.604000	21.574180	0.000451	20.767431
94.031875	-2.994300	3.856000	-11.545000	21.581743	0.000451	20.771680
95.032271	-2.977000	3.858400	-11.486000	21.597702	0.000450	20.765364
96.022454	-2.993600	3.856600	-11.545000	21.610523	0.000452	20.784359
97.032220	-3.012400	3.855600	-11.614000	21.634514	0.000451	20.786556
98.026384	-3.019600	3.856300	-11.644000	21.622421	0.000452	20.786782
99.029554	-3.000700	3.855900	-11.570000	21.616686	0.000451	20.772982
100.028415	-2.997100	3.855700	-11.554000	21.596538	0.000454	20.773683
101.032085	-3.015900	3.855600	-11.627000	21.626190	0.000455	20.773010
102.030694	-3.024500	3.854300	-11.657000	21.630108	0.000454	20.759861
103.032073	-2.997900	3.855500	-11.557000	21.629411	0.000451	20.764853
104.034387	-3.021800	3.855100	-11.648000	21.663001	0.000455	20.759114
105.031467	-2.997100	3.856400	-11.557000	21.663005	0.000454	20.757220
106.030211	-2.992100	3.854400	-11.532000	21.672382	0.000456	20.785097
107.033558	-2.993100	3.854700	-11.537000	21.683208	0.000455	20.787871
108.031754	-3.006200	3.854300	-11.586000	21.709065	0.000453	20.771548
109.031465	-3.002100	3.854700	-11.572000	21.696976	0.000456	20.779364
110.033517	-3.003000	3.852600	-11.569000	21.720516	0.000455	20.785853
111.033051	-3.014200	3.853300	-11.613000	21.702119	0.000453	20.768390
112.035663	-3.012900	3.852900	-11.607000	21.733565	0.000457	20.772360
113.035087	-3.006900	3.853700	-11.587000	21.743617	0.000452	20.772937
114.033336	-2.993700	3.852800	-11.533000	21.759003	0.000454	20.770792
115.036310	-3.002600	3.852600	-11.567000	21.751352	0.000456	20.754126
116.038093	-2.978900	3.853700	-11.479000	21.764918	0.000456	20.759168
117.036416	-2.992700	3.851500	-11.525000	21.768541	0.000457	20.764691
118.035631	-3.006900	3.852600	-11.583000	21.801356	0.000456	20.775250
119.052975	-3.011000	3.852300	-11.598000	21.793504	0.000455	20.778296
120.034000	-2.999900	3.852700	-11.556000	21.786776	0.000456	20.767769
121.040926	-2.991400	3.851800	-11.522000	21.788699	0.000456	20.776332
122.035252	-3.005800	3.850100	-11.572000	21.797654	0.000457	20.762535
123.037199	-2.997100	3.851600	-11.543000	21.825958	0.000456	20.771898
124.037518	-2.982600	3.850700	-11.484000	21.814567	0.000456	20.779463
125.038718	-3.005900	3.851300	-11.576000	21.832278	0.000458	20.762576
126.034895	-3.010700	3.850400	-11.592000	21.828789	0.000456	20.762403
127.040203	-2.992500	3.852200	-11.527000	21.842480	0.000457	20.777530
128.040154	-3.012400	3.851900	-11.602000	21.834310	0.000459	20.774568
129.034426	-2.983600	3.851100	-11.489000	21.862062	0.000458	20.759196
130.039669	-3.000100	3.850700	-11.552000	21.851448	0.000457	20.749521
131.040762	-2.988000	3.850900	-11.505000	21.912836	0.000459	20.760232
132.038667	-2.991900	3.850100	-11.518000	21.876364	0.000458	20.757391
133.041215	-2.996000	3.851400	-11.538000	21.906313	0.000458	20.772670
134.039228	-2.982200	3.851200	-11.484000	21.911877	0.000459	20.772549
135.040029	-3.004500	3.850100	-11.566000	21.906595	0.000459	20.763469
136.040799	-3.005700	3.848800	-11.568000	21.946364	0.000459	20.756809
137.042010	-3.018500	3.848900	-11.617000	21.932510	0.000461	20.744364
138.036721	-2.993100	3.850200	-11.522000	21.938922	0.000460	20.765008
139.040428	-2.997600	3.849300	-11.539000	21.942737	0.000460	20.756972
140.043559	-3.015000	3.848800	-11.603000	21.958997	0.000459	20.773249
141.042234	-2.992900	3.849200	-11.520000	21.966279	0.000461	20.760623
142.041219	-3.009000	3.848900	-11.581000	21.965162	0.000461	20.749547
143.040944	-3.003300	3.848400	-11.557000	21.972797	0.000461	20.778528
144.039848	-3.008100	3.849000	-11.577000	21.983695	0.000463	20.749133
145.044993	-3.006400	3.847200	-11.566000	21.985289	0.000463	20.737452
146.043319	-2.984200	3.847800	-11.481000	21.997286	0.000462	20.766058
147.040357	-2.998400	3.847900	-11.536000	21.998834	0.000464	20.762392
148.052476	-3.001100	3.847600	-11.545000	22.017582	0.000462	20.773574
149.041395	-2.993500	3.847600	-11.517000	22.025118	0.000464	20.762151
150.045099	-2.990200	3.847800	-11.505000	22.024393	0.000464	20.756210
151.042882	-2.995900	3.847000	-11.524000	22.051147	0.000463	20.735102
152.041967	-2.998000	3.846400	-11.530000	22.048832	0.000466	20.762183
153.042758	-2.991500	3.846100	-11.505000	22.048337	0.000464	20.767851
154.044780	-3.009000	3.847100	-11.575000	22.042657	0.000467	20.742724
155.050212	-3.013500	3.846000	-11.589000	22.070580	0.000467	20.752660
156.042873	-3.013600	3.845100	-11.586000	22.074998	0.000465	20.765618
157.047994	-3.010800	3.845300	-11.577000	22.068296	0.000467	20.757487
158.044098	-3.008800	3.845200	-11.569000	22.078766	0.000465	20.749475
159.050646	-3.002300	3.845900	-11.546000	22.072287	0.000467	20.754843
160.046437	-3.007200	3.845700	-11.563000	22.101881	0.000467	20.763134
161.046754	-3.009900	3.844500	-11.571000	22.094978	0.000467	20.770448
162.050908	-3.001000	3.844800	-11.538000	22.105850	0.000466	20.782755
163.050467	-3.005400	3.844200	-11.553000	22.141650	0.000468	20.768336
164.050847	-3.006000	3.845600	-11.559000	22.168899	0.000466	20.766220
165.049862	-3.034300	3.843800	-11.663000	22.179993	0.000468	20.765473
166.051334	-2.991700	3.844700	-11.501000	22.174314	0.000467	20.783495
167.052779	-2.993700	3.844000	-11.507000	22.184358	0.000468	20.764153
168.055319	-2.992100	3.843300	-11.498000	22.183867	0.000466	20.775990
169.050732	-2.997400	3.844500	-11.522000	22.203213	0.000469	20.778290
170.050754	-2.988600	3.843800	-11.487000	22.192024	0.000469	20.760448
171.062460	-2.999100	3.843700	-11.527000	22.201025	0.000470	20.756185
172.052814	-2.998900	3.843400	-11.525000	22.179343	0.000472	20.773357
173.054663	-2.998000	3.842400	-11.518000	22.191458	0.000471	20.766995
174.060355	-2.991900	3.841700	-11.493000	22.206810	0.000473	20.752968
175.055246	-2.998200	3.843400	-11.523000	22.204100	0.000472	20.772540
176.055199	-3.005200	3.844500	-11.553000	22.206768	0.000470	20.774737
177.058212	-3.006200	3.842900	-11.551000	22.242738	0.000475	20.756224
178.052958	-3.012200	3.840700	-11.568000	22.243385	0.000472	20.746439
179.053270	-3.004800	3.841300	-11.540000	22.254980	0.000473	20.780809
180.055690	-2.981100	3.841700	-11.452000	22.264200	0.000473	20.768704
181.058383	-3.017000	3.841400	-11.589000	22.289121	0.000473	20.777536
182.059225	-2.997700	3.841700	-11.514000	22.291789	0.000476	20.785898
183.057167	-3.004000	3.842300	-11.541000	22.308285	0.000475	20.762586
184.055441	-2.998800	3.839500	-11.513000	22.282368	0.000478	20.775042
185.056640	-3.003700	3.841000	-11.536000	22.278233	0.000478	20.770427
186.059944	-3.011400	3.842000	-11.568000	22.273473	0.000476	20.775144
187.054163	-2.973100	3.840900	-11.419000	22.310409	0.000477	20.762816
188.054502	-2.992400	3.840400	-11.491000	22.309359	0.000478	20.783577
189.059338	-3.005000	3.839200	-11.536000	22.334753	0.000478	20.796202
190.058342	-2.991600	3.840200	-11.487000	22.318854	0.000477	20.768428
191.060212	-3.027700	3.838600	-11.621000	22.334707	0.000478	20.776715
192.062025	-3.008800	3.838900	-11.549000	22.309981	0.000479	20.773768
193.060769	-3.009100	3.838700	-11.551000	22.327554	0.000477	20.767183
194.058073	-3.014000	3.839000	-11.569000	22.351601	0.000480	20.777512
195.061505	-3.019000	3.838900	-11.589000	22.381531	0.000480	20.786145
196.060664	-2.990100	3.839000	-11.478000	22.397379	0.000480	20.776411
197.060452	-3.007300	3.837000	-11.538000	22.401093	0.000478	20.780604
198.060256	-2.993000	3.839200	-11.490000	22.394163	0.000478	20.779829
199.061144	-2.979600	3.839100	-11.438000	22.405552	0.000480	20.786492
200.058247	-2.993100	3.837900	-11.486000	22.452077	0.000481	20.783771
201.064858	-2.997100	3.836800	-11.498000	22.434558	0.000480	20.779504
202.066756	-3.010400	3.837300	-11.551000	22.438395	0.000480	20.786666
203.063832	-3.006600	3.836600	-11.535000	22.466037	0.000481	20.791114
204.070345	-3.005500	3.837000	-11.531000	22.433643	0.000483	20.818416
205.064336	-3.000400	3.835800	-11.508000	22.447473	0.000480	20.788170
206.067317	-3.017200	3.835700	-11.572000	22.424993	0.000478	20.772296
207.071958	-2.990400	3.838000	-11.476000	22.469902	0.000478	20.802097
208.066214	-2.989300	3.836300	-11.467000	22.452133	0.000481	20.788095
209.063964	-2.987900	3.836600	-11.462000	22.469878	0.000480	20.775519
210.072714	-2.997300	3.835600	-11.495000	22.500677	0.000480	20.787872
211.064810	-3.002800	3.836100	-11.518000	22.530952	0.000481	20.794960
212.067557	-3.009400	3.835100	-11.540000	22.506938	0.000481	20.756210
213.065970	-2.987100	3.835500	-11.456000	22.517378	0.000481	20.792271
214.064855	-3.007600	3.834800	-11.532000	22.531157	0.000481	20.781889
215.065820	-2.993400	3.835100	-11.479000	22.536542	0.000482	20.799610
216.067814	-3.016400	3.834500	-11.565000	22.514789	0.000484	20.785884
217.067907	-3.018200	3.833700	-11.570000	22.511082	0.000482	20.797345
218.064439	-3.016000	3.833400	-11.560000	22.534500	0.000481	20.800883
219.068762	-2.999000	3.833900	-11.497000	22.554589	0.000488	20.795399
220.064307	-3.025100	3.833100	-11.594000	22.550176	0.000483	20.796669
221.070105	-2.990400	3.834600	-11.465000	22.550604	0.000484	20.803736
222.070314	-3.005700	3.833400	-11.521000	22.587357	0.000487	20.801191
223.070383	-2.994600	3.834600	-11.482000	22.588279	0.000486	20.812546
224.069998	-3.005100	3.833000	-11.518000	22.584916	0.000487	20.783573
225.076746	-3.003000	3.833000	-11.509000	22.596430	0.000487	20.785622
226.069791	-3.007100	3.832400	-11.524000	22.623863	0.000487	20.792236
227.068537	-3.001900	3.832800	-11.504000	22.602181	0.000491	20.803237
228.074757	-3.020000	3.832100	-11.572000	22.608163	0.000487	20.795003
229.067902	-2.992700	3.833600	-11.471000	22.620397	0.000488	20.823851
230.073928	-2.991900	3.831900	-11.464000	22.599489	0.000493	20.791057
231.074465	-3.006000	3.832200	-11.519000	22.634471	0.000490	20.798120
232.072974	-2.997600	3.831400	-11.484000	22.637114	0.000492	20.791758
233.071600	-3.019700	3.829900	-11.564000	22.651789	0.000493	20.810250
234.073029	-3.000800	3.829600	-11.491000	22.645483	0.000492	20.803459
235.073544	-3.007200	3.830600	-11.519000	22.696134	0.000494	20.806779
236.071243	-2.996300	3.829800	-11.475000	22.683527	0.000494	20.816909
237.076157	-3.007300	3.829400	-11.515000	22.709360	0.000491	20.810069
238.069083	-2.990500	3.831000	-11.456000	22.717482	0.000494	20.803980
239.077593	-3.006300	3.830900	-11.516000	22.721268	0.000493	20.787384
240.080323	-2.999300	3.829500	-11.485000	22.750934	0.000494	20.808565
241.074394	-2.998000	3.829600	-11.480000	22.734717	0.000494	20.808441
242.071856	-2.996300	3.829400	-11.474000	22.709851	0.000495	20.811983
243.078566	-2.974700	3.830900	-11.395000	22.710770	0.000495	20.827602
244.073103	-3.008900	3.828400	-11.518000	22.744851	0.000496	20.812429
245.074747	-2.988200	3.828600	-11.440000	22.790090	0.000494	20.818865
246.077275	-2.982500	3.829900	-11.422000	22.789444	0.000494	20.831020
247.071167	-3.002700	3.828200	-11.493000	22.792852	0.000495	20.816891
248.073302	-3.009300	3.828000	-11.518000	22.792404	0.000498	20.829243
249.080060	-3.000400	3.828400	-11.485000	22.810736	0.000497	20.814418
250.076112	-2.996000	3.827200	-11.465000	22.798030	0.000497	20.801216
251.077569	-2.988700	3.827100	-11.437000	22.815893	0.000498	20.818635
252.080163	-3.009000	3.828000	-11.517000	22.809634	0.000496	20.822322
253.075137	-3.021900	3.826400	-11.563000	22.820195	0.000496	20.838118
254.079271	-2.994800	3.826300	-11.457000	22.849487	0.000498	20.832375
255.079642	-2.993000	3.826200	-11.450000	22.844581	0.000496	20.824615
256.076015	-2.971800	3.826500	-11.370000	22.839297	0.000497	20.849192
257.081495	-3.007000	3.826000	-11.503000	22.841685	0.000497	20.841153
258.082215	-2.997000	3.824900	-11.463000	22.827832	0.000499	20.846241
259.081147	-2.993700	3.825100	-11.451000	22.818736	0.000498	20.834760
260.079462	-2.995000	3.826000	-11.458000	22.863976	0.000500	20.845467
261.082028	-3.026600	3.824500	-11.573000	22.871771	0.000500	20.821034
262.077094	-2.990600	3.824700	-11.437000	22.873113	0.000499	20.840870
263.079914	-3.016600	3.826100	-11.541000	22.855499	0.000502	20.846457
264.082473	-2.986300	3.825100	-11.422000	22.887831	0.000501	20.848502
265.078886	-3.010800	3.825100	-11.515000	22.861772	0.000503	20.841836
266.081767	-3.007000	3.824100	-11.498000	22.873382	0.000503	20.830234
267.084006	-2.980500	3.824600	-11.397000	22.902549	0.000503	20.832428
268.082108	-3.005100	3.823700	-11.490000	22.889742	0.000505	20.828606
269.084436	-2.995500	3.823500	-11.452000	22.913702	0.000503	20.851188
270.087771	-3.006800	3.823800	-11.496000	22.910389	0.000503	20.848343
271.083009	-3.005900	3.823900	-11.493000	22.906600	0.000503	20.851184
272.084207	-3.002000	3.823300	-11.476000	22.949240	0.000504	20.827524
273.088664	-2.963100	3.822900	-11.327000	22.949190	0.000505	20.860189
274.081158	-2.986800	3.822800	-11.418000	22.921787	0.000503	20.877778
275.086236	-3.000000	3.821600	-11.464000	22.970805	0.000507	20.859560
276.089187	-2.995600	3.823500	-11.453000	22.977554	0.000505	20.846882
277.084396	-3.000100	3.821900	-11.465000	22.980316	0.000507	20.832580
278.083018	-3.010500	3.821700	-11.503000	22.990247	0.000507	20.847745
279.085562	-3.017400	3.821000	-11.529000	23.012312	0.000507	20.830025
280.084951	-2.999200	3.821400	-11.460000	23.040582	0.000506	20.842229
281.087661	-3.023300	3.820700	-11.550000	23.060253	0.000509	20.854351
282.084540	-3.003100	3.820200	-11.471000	23.070861	0.000508	20.843645
283.092793	-3.004000	3.820300	-11.475000	23.058381	0.000507	20.855795
284.082818	-2.992300	3.820300	-11.430000	23.063858	0.000507	20.861283
285.083937	-2.984700	3.819000	-11.398000	23.074841	0.000508	20.846684
286.090684	-3.010400	3.820700	-11.500000	23.070607	0.000510	20.850028
287.091623	-3.013500	3.819000	-11.508000	23.085993	0.000508	20.840789
288.088228	-2.997900	3.819200	-11.448000	23.088681	0.000508	20.860551
289.085847	-2.968600	3.820900	-11.342000	23.091594	0.000509	20.870108
290.087757	-3.016300	3.818200	-11.516000	23.077967	0.000512	20.866884
291.089902	-2.999100	3.819100	-11.453000	23.061627	0.000511	20.842927
292.087817	-3.017200	3.818700	-11.521000	23.087078	0.000510	20.861789
293.084177	-3.024300	3.817800	-11.545000	23.085284	0.000510	20.881328
294.084545	-3.004000	3.816700	-11.464000	23.088271	0.000509	20.859192
295.088673	-2.986300	3.819000	-11.404000	23.075318	0.000510	20.854274
296.090753	-2.983100	3.818200	-11.389000	23.057340	0.000511	20.892682
297.089589	-2.970300	3.817800	-11.339000	23.071879	0.000510	20.865052
298.089643	-2.983200	3.816600	-11.385000	23.068616	0.000511	20.876006
299.088532	-2.994200	3.818100	-11.431000	23.072899	0.000511	20.883143
300.088745	-2.985400	3.816400	-11.393000	23.095783	0.000513	20.877623
301.088187	-2.989100	3.817600	-11.411000	23.155605	0.000511	20.869291
302.085107	-2.998400	3.816000	-11.440000	23.158243	0.000514	20.882839
303.086094	-3.001500	3.815200	-11.450000	23.161407	0.000512	20.877949
304.085349	-2.994200	3.815600	-11.423000	23.188773	0.000514	20.868863
305.089910	-3.018400	3.816300	-11.518000	23.215820	0.000513	20.865622
306.087543	-2.989100	3.816700	-11.407000	23.220626	0.000514	20.886557
307.089676	-2.996500	3.815000	-11.431000	23.215273	0.000516	20.877874
308.088310	-2.997500	3.815100	-11.435000	23.187583	0.000512	20.902755
309.090534	-3.005200	3.814400	-11.461000	23.167982	0.000515	20.873158
310.090241	-3.018700	3.815200	-11.515000	23.187537	0.000515	20.881374
311.091782	-2.988900	3.814500	-11.401000	23.228673	0.000515	20.886087
312.088561	-2.997200	3.815400	-11.435000	23.257463	0.000514	20.873689
313.087489	-2.992700	3.814200	-11.414000	23.254225	0.000513	20.887038
314.088581	-2.997100	3.813900	-11.429000	23.289791	0.000513	20.887594
315.095887	-3.013700	3.812700	-11.490000	23.298006	0.000512	20.898672
316.092973	-3.012300	3.813300	-11.486000	23.273955	0.000515	20.875044
317.094793	-3.016200	3.812300	-11.497000	23.269372	0.000515	20.888942
318.091930	-3.001300	3.812000	-11.440000	23.285487	0.000513	20.904616
319.094113	-2.994600	3.812200	-11.415000	23.287954	0.000517	20.889547
320.094147	-3.020800	3.812000	-11.514000	23.287361	0.000514	20.903175
321.091383	-3.005500	3.812900	-11.458000	23.296972	0.000514	20.893368
322.092589	-3.009600	3.810900	-11.469000	23.295231	0.000515	20.909640
323.091106	-2.995400	3.810400	-11.413000	23.296753	0.000516	20.878925
324.091028	-3.002800	3.812300	-11.447000	23.313439	0.000516	20.880474
325.095830	-3.002500	3.812400	-11.445000	23.326265	0.000516	20.906130
326.094799	-3.016000	3.810300	-11.490000	23.283537	0.000514	20.888913
327.100345	-3.018000	3.809000	-11.493000	23.316037	0.000516	20.904414
328.095347	-2.989600	3.811500	-11.394000	23.333739	0.000513	20.879484
329.095171	-3.013000	3.810000	-11.479000	23.335261	0.000516	20.902818
330.095802	-3.013000	3.809400	-11.476000	23.383795	0.000517	20.901675
331.095124	-2.996100	3.810500	-11.415000	23.375830	0.000516	20.928777
332.102572	-3.005900	3.809100	-11.448000	23.371103	0.000517	20.884688
333.093994	-2.995300	3.808800	-11.408000	23.391523	0.000515	20.893774
334.099021	-2.993600	3.809200	-11.403000	23.376811	0.000516	20.891832
335.095437	-2.958000	3.809200	-11.267000	23.392225	0.000517	20.912494
336.098656	-2.983300	3.809100	-11.363000	23.396013	0.000517	20.901119
337.100407	-3.008500	3.807800	-11.455000	23.384342	0.000517	20.902223
338.098401	-3.002700	3.807500	-11.432000	23.405828	0.000517	20.898154
339.096726	-3.005300	3.807800	-11.442000	23.369482	0.000518	20.907718
340.099966	-2.999200	3.806500	-11.415000	23.379643	0.000519	20.915530
341.100502	-3.014700	3.806700	-11.475000	23.373246	0.000522	20.900585
342.099550	-2.989600	3.807200	-11.380000	23.385998	0.000520	20.892504
343.096146	-2.981600	3.808000	-11.353000	23.393295	0.000522	20.891757
344.097605	-2.992100	3.807800	-11.393000	23.401814	0.000521	20.895554
345.101167	-2.997600	3.807000	-11.411000	23.438864	0.000520	20.889068
346.101900	-3.008100	3.807000	-11.451000	23.407321	0.000521	20.892065
347.101631	-3.012200	3.806600	-11.465000	23.455746	0.000522	20.883230
348.102081	-3.018000	3.804400	-11.480000	23.496310	0.000523	20.891174
349.098110	-3.002100	3.805000	-11.422000	23.479705	0.000521	20.870263
350.100055	-3.012600	3.805600	-11.464000	23.498827	0.000524	20.888007
351.102896	-3.019500	3.803500	-11.484000	23.474155	0.000521	20.906897
352.105330	-3.006600	3.804700	-11.438000	23.486536	0.000522	20.888488
353.101750	-3.003900	3.804300	-11.427000	23.489074	0.000524	20.862111
354.097754	-2.997400	3.803500	-11.400000	23.510911	0.000524	20.884947
355.101054	-3.011000	3.804200	-11.454000	23.534664	0.000522	20.887420
356.100695	-3.013300	3.803400	-11.459000	23.532969	0.000523	20.874343
357.101263	-2.999800	3.803100	-11.407000	23.546390	0.000524	20.871201
358.102704	-2.999700	3.804000	-11.410000	23.543210	0.000524	20.878444
359.103877	-3.009400	3.804400	-11.447000	23.575843	0.000524	20.889345
360.100995	-3.010600	3.804500	-11.452000	23.544032	0.000526	20.869786
361.098454	-2.986200	3.804600	-11.360000	23.529715	0.000527	20.870606
362.104376	-2.991200	3.801800	-11.372000	23.532853	0.000525	20.863321
363.102058	-3.002100	3.803400	-11.417000	23.550580	0.000525	20.873978
364.108551	-2.982700	3.803300	-11.343000	23.534131	0.000522	20.875033
365.100132	-3.023800	3.799700	-11.489000	23.556662	0.000524	20.878178
366.099987	-2.994300	3.802100	-11.383000	23.597834	0.000524	20.882941
367.102371	-2.991700	3.801900	-11.373000	23.598487	0.000524	20.869846
368.105290	-3.006300	3.801800	-11.428000	23.613075	0.000525	20.850807
369.101983	-3.000700	3.799700	-11.401000	23.611586	0.000526	20.865908
370.104571	-3.008300	3.799300	-11.429000	23.626174	0.000526	20.855403
371.109218	-2.991600	3.800800	-11.368000	23.597548	0.000527	20.858000
372.101399	-2.984400	3.800500	-11.341000	23.585332	0.000526	20.866142
373.105329	-2.990000	3.800500	-11.363000	23.590658	0.000529	20.848723
374.107611	-3.009100	3.799800	-11.434000	23.576719	0.000527	20.860827
375.104613	-2.993800	3.799500	-11.375000	23.582971	0.000528	20.853344
376.109958	-3.020900	3.798800	-11.475000	23.612345	0.000527	20.843911
377.116735	-3.014100	3.798000	-11.447000	23.584764	0.000529	20.838073
378.107633	-3.004300	3.798200	-11.410000	23.624773	0.000530	20.848783
379.105568	-2.993900	3.799400	-11.374000	23.653624	0.000530	20.853525
380.113953	-3.008100	3.798200	-11.424000	23.634607	0.000529	20.838253
381.105660	-2.987800	3.798200	-11.347000	23.602741	0.000528	20.843766
382.110054	-2.992200	3.797600	-11.362000	23.629580	0.000532	20.860240
383.113297	-3.003200	3.796800	-11.402000	23.651181	0.000531	20.843490
384.107338	-3.014400	3.796700	-11.444000	23.652897	0.000532	20.857063
385.112137	-3.025500	3.796000	-11.483000	23.629051	0.000531	20.846908
386.109760	-3.016200	3.796100	-11.448000	23.634006	0.000531	20.835755
387.112173	-3.003500	3.796200	-11.401000	23.658897	0.000531	20.845535
388.114217	-3.010000	3.796500	-11.426000	23.638683	0.000531	20.858460
389.114697	-3.009100	3.795700	-11.421000	23.628578	0.000530	20.851649
390.112129	-3.007800	3.795100	-11.414000	23.610153	0.000532	20.846929
391.113461	-2.997500	3.795900	-11.376000	23.613464	0.000530	20.847403
392.111231	-3.005800	3.793400	-11.401000	23.638305	0.000533	20.868038
393.115087	-2.984300	3.795900	-11.327000	23.639897	0.000533	20.845453
394.113035	-2.984700	3.795200	-11.325000	23.670092	0.000533	20.847276
395.111667	-2.996900	3.794400	-11.370000	23.703421	0.000535	20.849395
396.114311	-3.011100	3.794100	-11.424000	23.704215	0.000533	20.824588
397.114573	-3.019100	3.792800	-11.450000	23.740606	0.000535	20.843528
398.119071	-2.989400	3.794500	-11.342000	23.730272	0.000535	20.835065
399.112619	-3.005900	3.792800	-11.400000	23.693552	0.000536	20.833812
400.113460	-3.024300	3.792500	-11.468000	23.695349	0.000536	20.851734
401.110092	-2.991100	3.792800	-11.343000	23.703784	0.000534	20.836009
402.114807	-3.009700	3.792100	-11.412000	23.718643	0.000536	20.847587
403.113904	-2.997000	3.791500	-11.362000	23.708764	0.000534	20.834364
404.110212	-3.001700	3.792200	-11.382000	23.713140	0.000536	20.844441
405.113750	-2.999900	3.791000	-11.371000	23.732954	0.000535	20.831116
406.112063	-3.008900	3.790200	-11.404000	23.765981	0.000538	20.831986
407.111500	-3.020100	3.790000	-11.446000	23.779896	0.000536	20.839774
408.111929	-3.009200	3.791600	-11.408000	23.744625	0.000534	20.838550
409.113114	-2.996200	3.790600	-11.356000	23.752065	0.000537	20.831784
410.114264	-2.985600	3.791300	-11.318000	23.777475	0.000538	20.853941
411.114874	-2.986100	3.790400	-11.318000	23.773639	0.000534	20.836819
412.115483	-3.008000	3.790600	-11.401000	23.755224	0.000536	20.824046
413.113425	-3.007600	3.788300	-11.393000	23.770452	0.000535	20.831728
414.114996	-2.992800	3.788500	-11.338000	23.759924	0.000534	20.826862
415.113062	-2.987100	3.789900	-11.320000	23.753028	0.000534	20.839388
416.120813	-2.999200	3.787900	-11.360000	23.764830	0.000536	20.833203
417.114428	-2.976000	3.788200	-11.273000	23.799472	0.000536	20.820047
418.121652	-2.988600	3.788700	-11.322000	23.840913	0.000534	20.822719
419.119258	-3.010200	3.788800	-11.404000	23.852559	0.000535	20.828232
420.116063	-2.993300	3.787300	-11.335000	23.829935	0.000537	20.837315
421.113203	-2.985500	3.787500	-11.307000	23.848328	0.000537	20.832050
422.120341	-3.011100	3.786400	-11.400000	23.867444	0.000534	20.820398
423.119081	-3.022900	3.786500	-11.445000	23.879438	0.000534	20.834321
424.120775	-3.011800	3.786300	-11.403000	23.869557	0.000537	20.836741
425.124310	-3.004500	3.785600	-11.372000	23.893423	0.000537	20.817050
426.121750	-2.992400	3.785500	-11.327000	23.902379	0.000537	20.832669
427.119598	-3.010100	3.786400	-11.396000	23.892975	0.000537	20.820394
428.122277	-3.005600	3.787200	-11.383000	23.912139	0.000539	20.826335
429.122106	-3.029300	3.785300	-11.466000	23.867288	0.000536	20.826406
430.125207	-3.008000	3.784700	-11.383000	23.909722	0.000540	20.820592
431.124749	-2.979100	3.785200	-11.275000	23.913900	0.000538	20.820989
432.122262	-2.989100	3.784900	-11.312000	23.901129	0.000537	20.830468
433.120956	-2.989500	3.784700	-11.313000	23.900508	0.000539	20.814198
434.125047	-2.997300	3.785200	-11.345000	23.914595	0.000537	20.822634
435.124607	-3.008700	3.783600	-11.382000	23.906356	0.000537	20.824329
436.121264	-2.986700	3.783400	-11.298000	23.913699	0.000539	20.816045
437.121624	-2.993000	3.783800	-11.324000	23.873453	0.000539	20.822630
438.124894	-2.985900	3.784600	-11.299000	23.889382	0.000540	20.807309
439.119383	-3.012300	3.782300	-11.393000	23.917577	0.000542	20.825624
440.123711	-3.009000	3.782100	-11.378000	23.943089	0.000539	20.814223
441.128712	-3.005200	3.782800	-11.367000	23.941889	0.000541	20.831512
442.124827	-3.003900	3.781900	-11.359000	23.914863	0.000542	20.806308
443.124662	-2.999100	3.781200	-11.339000	23.935541	0.000538	20.819930
444.126807	-3.009300	3.782500	-11.382000	23.944772	0.000541	20.821126
445.124259	-2.988000	3.782200	-11.300000	23.932701	0.000539	20.829410
446.121267	-2.987900	3.781100	-11.296000	23.970898	0.000541	20.824092
447.127375	-3.004500	3.781900	-11.362000	23.988741	0.000542	20.806898
448.124332	-2.998200	3.780000	-11.332000	23.984853	0.000541	20.826232
449.124630	-2.984100	3.780300	-11.280000	23.962757	0.000542	20.829204
450.125460	-2.991400	3.779600	-11.305000	23.998240	0.000542	20.813105
451.126838	-2.987700	3.780500	-11.293000	24.024294	0.000541	20.818370
452.136503	-3.005800	3.779100	-11.358000	24.036061	0.000541	20.816894
453.130179	-2.995300	3.779300	-11.319000	24.035934	0.000542	20.840474
454.126517	-2.999400	3.780200	-11.336000	24.025306	0.000541	20.832187
455.126864	-2.999400	3.779500	-11.335000	24.034314	0.000543	20.805186
456.130941	-2.988400	3.779100	-11.292000	24.005396	0.000539	20.831660
457.123748	-2.989800	3.778800	-11.297000	24.003032	0.000541	20.809375
458.127486	-2.997500	3.777600	-11.322000	23.999073	0.000541	20.828164
459.130338	-2.988000	3.777500	-11.286000	23.971748	0.000541	20.815461
460.127531	-3.007300	3.777900	-11.360000	24.000191	0.000543	20.805578
461.128952	-2.993900	3.776500	-11.305000	24.024057	0.000542	20.815762
462.130889	-3.006500	3.776900	-11.354000	24.049532	0.000542	20.811912
463.128467	-3.017200	3.777500	-11.396000	24.082330	0.000540	20.828684
464.126275	-2.995100	3.776400	-11.310000	24.096736	0.000540	20.813735
465.130358	-2.972000	3.776800	-11.224000	24.088748	0.000542	20.813310
466.132154	-2.997800	3.775800	-11.318000	24.023902	0.000542	20.801856
467.131282	-2.981100	3.776100	-11.256000	24.045876	0.000542	20.815359
468.130161	-2.966000	3.775800	-11.197000	24.033033	0.000542	20.811488
469.130300	-2.986100	3.776300	-11.275000	24.054757	0.000545	20.800083
470.130023	-2.996600	3.775000	-11.311000	24.120571	0.000544	20.816303
471.134331	-2.990500	3.774800	-11.286000	24.134130	0.000542	20.799082
472.131433	-2.982300	3.774800	-11.257000	24.133562	0.000543	20.799461
473.128158	-3.015700	3.774400	-11.382000	24.170908	0.000543	20.801831
474.135484	-3.027400	3.773500	-11.423000	24.201114	0.000543	20.800833
475.128971	-3.011700	3.774000	-11.366000	24.181157	0.000543	20.797886
476.134512	-2.991500	3.774300	-11.289000	24.197653	0.000544	20.795466
477.137815	-3.015700	3.773000	-11.377000	24.192450	0.000543	20.798307
478.133875	-3.004400	3.772600	-11.333000	24.197822	0.000546	20.786627
479.136374	-3.012100	3.772200	-11.361000	24.167642	0.000544	20.801400
480.130438	-3.011600	3.773000	-11.362000	24.162142	0.000547	20.780236
481.132212	-2.998500	3.771800	-11.309000	24.143454	0.000544	20.790890
482.132479	-2.990000	3.773100	-11.281000	24.144922	0.000544	20.810380
483.138269	-2.988000	3.772900	-11.273000	24.184357	0.000546	20.812001
484.131832	-3.009800	3.770900	-11.349000	24.164876	0.000544	20.810005
485.136735	-3.010800	3.770600	-11.352000	24.159873	0.000546	20.807358
486.138983	-3.006700	3.771600	-11.338000	24.174902	0.000545	20.787345
487.130002	-3.003200	3.771700	-11.326000	24.175721	0.000543	20.804287
488.135175	-2.995300	3.769600	-11.290000	24.154797	0.000543	20.815543
489.138499	-2.999100	3.769300	-11.303000	24.179749	0.000544	20.803586
490.136167	-2.992900	3.769600	-11.281000	24.201569	0.000543	20.808876
491.131649	-2.997300	3.768900	-11.295000	24.207517	0.000545	20.814842
492.141036	-2.993100	3.767500	-11.276000	24.220552	0.000543	20.798994
493.136583	-2.969600	3.769000	-11.192000	24.204878	0.000543	20.805557
494.139046	-2.989900	3.769300	-11.268000	24.189800	0.000544	20.800391
495.143785	-3.005900	3.768400	-11.326000	24.216671	0.000543	20.814067
496.138134	-3.011800	3.767100	-11.345000	24.234261	0.000545	20.790459
497.137046	-2.976500	3.768200	-11.215000	24.224439	0.000543	20.805738
498.145448	-2.995900	3.767900	-11.287000	24.207122	0.000546	20.800221
499.141177	-2.988600	3.767900	-11.260000	24.179277	0.000543	20.812121
500.142591	-2.993300	3.767200	-11.275000	24.168432	0.000543	20.789864
501.145192	-3.008300	3.767300	-11.332000	24.174179	0.000545	20.790887
502.140215	-3.021400	3.766700	-11.380000	24.223667	0.000543	20.786471
503.146122	-3.007600	3.765200	-11.323000	24.254767	0.000546	20.788743
504.143416	-3.010600	3.765300	-11.334000	24.244889	0.000545	20.795904
505.145230	-3.015400	3.766500	-11.356000	24.255934	0.000543	20.798923
506.143029	-2.985700	3.766500	-11.245000	24.239912	0.000545	20.798972
507.152303	-3.021700	3.764100	-11.373000	24.277379	0.000544	20.794355
508.145081	-2.993200	3.765600	-11.271000	24.263893	0.000545	20.768499
509.144402	-2.975200	3.766200	-11.204000	24.259695	0.000546	20.783728
510.149299	-3.010600	3.763600	-11.329000	24.271262	0.000543	20.802443
511.144228	-3.009000	3.764800	-11.326000	24.276733	0.000545	20.793707
512.148464	-3.024200	3.762900	-11.379000	24.326739	0.000542	20.781754
513.154109	-3.024500	3.763000	-11.381000	24.329529	0.000543	20.784079
514.151207	-3.017500	3.763100	-11.353000	24.357687	0.000544	20.773446
515.153964	-2.989500	3.762900	-11.248000	24.349155	0.000543	20.781482
516.149172	-3.003600	3.763300	-11.302000	24.348908	0.000544	20.787872
517.146976	-2.988400	3.762200	-11.242000	24.360075	0.000543	20.789118
518.151973	-3.011800	3.762100	-11.329000	24.322213	0.000543	20.788594
519.150146	-2.995300	3.762000	-11.267000	24.381747	0.000544	20.775296
520.145370	-3.007500	3.761200	-11.311000	24.370033	0.000543	20.794839
521.152691	-2.997400	3.761300	-11.273000	24.347345	0.000542	20.789149
522.156610	-2.990500	3.762100	-11.250000	24.319461	0.000545	20.757858
523.148796	-2.999000	3.761200	-11.279000	24.324414	0.000540	20.780845
524.153938	-2.973300	3.761200	-11.182000	24.313415	0.000541	20.765070
525.149765	-3.002400	3.760200	-11.289000	24.315782	0.000544	20.759383
526.146246	-3.014800	3.759700	-11.334000	24.321359	0.000544	20.769719
527.152137	-3.007700	3.760500	-11.310000	24.349120	0.000542	20.780498
528.151987	-3.001600	3.759400	-11.283000	24.356040	0.000544	20.780802
529.150630	-2.987900	3.760000	-11.234000	24.353007	0.000545	20.769224
530.152933	-3.002500	3.759000	-11.286000	24.375024	0.000543	20.796053
531.151367	-3.017500	3.758400	-11.340000	24.386170	0.000542	20.776414
532.154500	-2.999200	3.757400	-11.269000	24.384734	0.000545	20.768336
533.154146	-3.010600	3.757900	-11.312000	24.392314	0.000545	20.781630
534.155850	-3.026700	3.757000	-11.371000	24.391644	0.000543	20.770526
535.152077	-2.992700	3.757700	-11.244000	24.395951	0.000545	20.764889
536.154895	-3.007700	3.757400	-11.300000	24.418814	0.000544	20.763644
537.152955	-3.003600	3.757100	-11.284000	24.417967	0.000544	20.766588
538.149222	-3.000600	3.756900	-11.272000	24.418390	0.000545	20.758003
539.153805	-3.003900	3.756900	-11.284000	24.464016	0.000547	20.769638
540.153356	-2.994100	3.757100	-11.248000	24.408194	0.000545	20.781439
541.154243	-3.009600	3.756000	-11.303000	24.387648	0.000543	20.764146
542.156073	-3.007500	3.756300	-11.296000	24.350509	0.000543	20.759132
543.154441	-2.999700	3.755900	-11.266000	24.374717	0.000545	20.769192
544.152886	-2.997300	3.756600	-11.259000	24.393101	0.000546	20.760134
545.155973	-3.008800	3.755400	-11.299000	24.425392	0.000543	20.746061
546.153579	-2.999900	3.755500	-11.264000	24.386265	0.000543	20.757543
547.153406	-3.028700	3.754600	-11.371000	24.378132	0.000543	20.746538
548.156673	-2.995200	3.754600	-11.245000	24.389553	0.000543	20.756100
549.156936	-3.007700	3.753500	-11.288000	24.413855	0.000543	20.745866
550.160749	-2.974400	3.755000	-11.169000	24.409153	0.000544	20.770548
551.158576	-2.985100	3.754400	-11.206000	24.443486	0.000543	20.749989
552.161520	-3.017800	3.753500	-11.326000	24.463685	0.000545	20.745597
553.158709	-2.992300	3.754200	-11.232000	24.492041	0.000543	20.746071
554.159232	-2.988600	3.754200	-11.219000	24.480575	0.000543	20.763492
555.162499	-3.000100	3.753400	-11.260000	24.483612	0.000542	20.739511
556.156192	-3.008000	3.753100	-11.289000	24.461547	0.000543	20.751988
557.158140	-2.993500	3.751800	-11.230000	24.479330	0.000542	20.744698
558.162219	-2.981900	3.752600	-11.189000	24.484282	0.000543	20.744925
559.163143	-3.009900	3.750300	-11.286000	24.439609	0.000543	20.737090
560.162778	-2.973900	3.751900	-11.157000	24.376971	0.000543	20.750590
561.164023	-2.974700	3.752000	-11.160000	24.399362	0.000543	20.752190
562.162710	-2.975000	3.752500	-11.162000	24.464485	0.000544	20.745926
563.166088	-2.996100	3.752300	-11.241000	24.483559	0.000545	20.743251
564.161511	-3.007600	3.750500	-11.279000	24.468636	0.000542	20.730176
565.160067	-3.028500	3.750300	-11.356000	24.437719	0.000542	20.743255
566.160893	-3.012800	3.750100	-11.297000	24.446974	0.000545	20.758230
567.159744	-3.018400	3.749900	-11.318000	24.484084	0.000543	20.740933
568.160582	-3.016300	3.749900	-11.310000	24.489131	0.000545	20.748368
569.161683	-2.979300	3.748900	-11.167000	24.452021	0.000543	20.747172
570.161058	-3.011600	3.748600	-11.288000	24.453591	0.000543	20.762972
571.162133	-2.983200	3.749100	-11.183000	24.420458	0.000542	20.753439
572.160124	-3.000100	3.749200	-11.247000	24.366252	0.000545	20.734620
573.160707	-2.987700	3.748500	-11.198000	24.375984	0.000543	20.731107
574.160673	-3.010000	3.748700	-11.282000	24.386625	0.000543	20.740360
575.160412	-3.003000	3.746900	-11.251000	24.423671	0.000542	20.758559
576.160872	-2.994300	3.747600	-11.220000	24.440417	0.000542	20.751178
577.159417	-3.003500	3.746000	-11.250000	24.492330	0.000543	20.755845
578.160128	-2.998600	3.746200	-11.233000	24.518323	0.000545	20.753000
579.160998	-2.998100	3.746400	-11.231000	24.526907	0.000543	20.753552
580.162911	-3.014900	3.746200	-11.293000	24.499328	0.000544	20.728251
581.160289	-3.007300	3.746300	-11.265000	24.511591	0.000545	20.735339
582.160877	-3.015100	3.746400	-11.294000	24.476343	0.000543	20.742650
583.161523	-3.012500	3.744600	-11.280000	24.483309	0.000546	20.735888
584.164213	-2.989900	3.745100	-11.196000	24.475853	0.000541	20.742158
585.168215	-3.016600	3.745000	-11.296000	24.498111	0.000544	20.747420
586.164061	-3.010100	3.744500	-11.270000	24.458786	0.000544	20.761072
587.162018	-3.006900	3.744600	-11.258000	24.460624	0.000545	20.722611
588.163324	-3.003900	3.744400	-11.247000	24.471769	0.000547	20.746596
589.167825	-3.009100	3.743500	-11.263000	24.530000	0.000544	20.743379
590.167043	-3.001600	3.743600	-11.236000	24.534204	0.000544	20.740010
591.166800	-2.990600	3.743600	-11.195000	24.525726	0.000546	20.722494
592.167494	-2.985700	3.743000	-11.175000	24.531323	0.000544	20.731903
593.162033	-3.029400	3.742200	-11.336000	24.517322	0.000544	20.761005
594.164005	-2.991000	3.742900	-11.194000	24.544957	0.000544	20.739894
595.168162	-2.984000	3.743300	-11.169000	24.587189	0.000545	20.733903
596.167925	-2.996000	3.742300	-11.211000	24.586917	0.000545	20.736475
597.169452	-2.994800	3.741600	-11.205000	24.622034	0.000545	20.738995
598.172655	-3.014800	3.741500	-11.279000	24.628448	0.000545	20.739267
599.165945	-3.011300	3.741000	-11.263000	24.617115	0.000543	20.743542
600.170516	-2.995700	3.741300	-11.207000	24.612837	0.000545	20.736879
601.169922	-2.995700	3.741000	-11.206000	24.596717	0.000543	20.722126
602.168955	-3.016600	3.739900	-11.281000	24.583909	0.000544	20.744363
603.170959	-2.991100	3.739600	-11.184000	24.570131	0.000544	20.724373
604.170496	-3.013500	3.738900	-11.265000	24.587862	0.000544	20.734579
605.166735	-2.992200	3.739700	-11.190000	24.551327	0.000543	20.727317
606.171977	-3.012400	3.740300	-11.266000	24.547571	0.000543	20.714065
607.177358	-2.996100	3.739600	-11.203000	24.558856	0.000545	20.746253
608.168481	-3.022700	3.738300	-11.300000	24.588134	0.000544	20.742438
609.166855	-3.000700	3.738800	-11.218000	24.590221	0.000545	20.744533
610.169700	-3.003400	3.739300	-11.230000	24.579529	0.000545	20.719578
611.171371	-3.006300	3.739100	-11.240000	24.580915	0.000545	20.733772
612.170232	-2.992400	3.739200	-11.188000	24.591656	0.000545	20.763043
613.175250	-2.999400	3.738200	-11.211000	24.603100	0.000546	20.733747
614.168183	-3.009700	3.736900	-11.245000	24.630631	0.000545	20.747148
615.171206	-3.008100	3.737100	-11.241000	24.614261	0.000544	20.737360
616.168273	-2.995000	3.737300	-11.192000	24.630077	0.000543	20.732841
617.171122	-2.974700	3.737400	-11.116000	24.658006	0.000543	20.736210
618.171758	-3.000500	3.736400	-11.209000	24.683074	0.000542	20.760417
619.171821	-3.005500	3.736300	-11.229000	24.654670	0.000543	20.741871
620.169579	-3.008800	3.736000	-11.240000	24.663398	0.000542	20.742094
621.177950	-2.993000	3.737300	-11.185000	24.659741	0.000543	20.737951
622.180040	-2.984900	3.736500	-11.152000	24.629220	0.000542	20.738145
623.172168	-2.988200	3.737400	-11.168000	24.614173	0.000543	20.739642
624.174259	-2.999300	3.734700	-11.200000	24.642398	0.000542	20.733350
625.179018	-3.007400	3.735800	-11.235000	24.654955	0.000543	20.762073
626.174526	-3.005900	3.736500	-11.231000	24.618073	0.000542	20.762048
627.175324	-3.017400	3.734100	-11.267000	24.646348	0.000541	20.741107
628.175995	-3.015500	3.733400	-11.257000	24.647737	0.000543	20.767632
629.173102	-3.010400	3.733000	-11.236000	24.650995	0.000542	20.755728
630.171575	-2.998000	3.734600	-11.196000	24.663348	0.000543	20.755795
631.178191	-2.994600	3.733100	-11.178000	24.657649	0.000541	20.734903
632.173208	-3.033500	3.732000	-11.320000	24.648379	0.000542	20.767328
633.179965	-3.011900	3.732900	-11.243000	24.658894	0.000542	20.748955
634.177548	-2.995500	3.732700	-11.180000	24.657177	0.000540	20.769992
635.179059	-3.002500	3.731200	-11.202000	24.669660	0.000542	20.750275
636.180618	-3.011800	3.731600	-11.238000	24.660358	0.000541	20.752320
637.181701	-2.990200	3.733100	-11.162000	24.672615	0.000542	20.778371
638.178646	-3.017700	3.731200	-11.259000	24.702383	0.000539	20.757034
639.178654	-2.995800	3.732300	-11.180000	24.713875	0.000539	20.758134
640.181523	-3.009600	3.730700	-11.227000	24.761717	0.000539	20.756832
641.179022	-3.000500	3.730500	-11.192000	24.784276	0.000538	20.759083
642.182646	-2.994400	3.732400	-11.176000	24.801898	0.000538	20.758276
643.182076	-3.001500	3.730500	-11.196000	24.764552	0.000538	20.730278
644.185781	-3.015300	3.729200	-11.243000	24.687333	0.000537	20.737663
645.183540	-3.006300	3.730900	-11.215000	24.648960	0.000538	20.744677
646.183731	-3.014200	3.730600	-11.244000	24.645230	0.000538	20.750417
647.183074	-2.987900	3.731000	-11.147000	24.644112	0.000537	20.763520
648.183953	-3.014000	3.729000	-11.238000	24.674724	0.000536	20.760572
649.186103	-2.993700	3.730100	-11.166000	24.696660	0.000537	20.774525
650.182804	-3.003900	3.728700	-11.200000	24.748311	0.000538	20.737688
651.185093	-3.011500	3.729300	-11.230000	24.781487	0.000533	20.769560
652.191579	-3.022800	3.727900	-11.268000	24.788070	0.000536	20.758623
653.191024	-3.018700	3.727300	-11.251000	24.777457	0.000535	20.734695
654.190910	-3.012700	3.728800	-11.233000	24.763730	0.000536	20.758853
655.190089	-3.011500	3.727200	-11.223000	24.741872	0.000533	20.767738
656.186406	-2.996300	3.727100	-11.166000	24.766523	0.000534	20.766871
657.190254	-3.020300	3.726700	-11.255000	24.760500	0.000536	20.768888
658.193864	-2.990100	3.726900	-11.143000	24.745434	0.000534	20.756613
659.192820	-3.000000	3.726800	-11.179000	24.753639	0.000536	20.766744
660.189781	-2.981600	3.726900	-11.110000	24.751304	0.000535	20.748279
661.189900	-2.979500	3.726900	-11.103000	24.748117	0.000533	20.768315
662.189999	-3.007000	3.725200	-11.201000	24.734168	0.000535	20.769964
663.190914	-2.973100	3.725100	-11.073000	24.711389	0.000534	20.754691
664.194690	-2.993600	3.725400	-11.151000	24.729595	0.000533	20.755417
665.190826	-2.993700	3.724700	-11.150000	24.768790	0.000534	20.764879
666.188900	-2.988900	3.724700	-11.132000	24.799201	0.000534	20.759362
667.192371	-2.995300	3.725100	-11.157000	24.815963	0.000534	20.768124
668.190336	-2.994700	3.723500	-11.149000	24.794656	0.000534	20.765707
669.194026	-2.984300	3.724100	-11.113000	24.781127	0.000533	20.769674
670.188659	-2.997600	3.724400	-11.164000	24.822362	0.000534	20.760796
671.192281	-2.979300	3.725600	-11.099000	24.820247	0.000534	20.794709
672.194601	-3.000300	3.723000	-11.169000	24.803809	0.000534	20.785799
673.196043	-3.026700	3.721700	-11.263000	24.784438	0.000534	20.768729
674.194453	-3.005600	3.723400	-11.190000	24.798242	0.000534	20.761719
675.194723	-2.991600	3.723200	-11.137000	24.791902	0.000534	20.768159
676.194855	-2.995400	3.722300	-11.149000	24.799416	0.000535	20.792770
677.193948	-3.002900	3.723200	-11.179000	24.769626	0.000532	20.778520
678.195895	-2.997400	3.722600	-11.157000	24.746724	0.000534	20.769288
679.196175	-3.004000	3.722600	-11.182000	24.781716	0.000536	20.776903
680.198852	-3.011900	3.721300	-11.207000	24.789029	0.000535	20.773336
681.197966	-2.998500	3.721700	-11.158000	24.781692	0.000531	20.771188
682.197072	-3.003700	3.721100	-11.175000	24.785969	0.000532	20.777851
683.193696	-3.006100	3.719500	-11.180000	24.768240	0.000534	20.782345
684.197906	-3.015600	3.720700	-11.219000	24.817204	0.000533	20.778853
685.198887	-3.004500	3.720100	-11.176000	24.809920	0.000535	20.781026
686.197762	-2.990100	3.720100	-11.122000	24.841525	0.000534	20.785718
687.198091	-3.019300	3.720300	-11.232000	24.800672	0.000534	20.771744
688.193441	-2.989700	3.720800	-11.123000	24.838144	0.000534	20.805084
689.201515	-3.030900	3.718600	-11.270000	24.815663	0.000533	20.777781
690.196134	-3.028000	3.717600	-11.256000	24.863508	0.000533	20.778857
691.196178	-3.010300	3.719400	-11.196000	24.850304	0.000535	20.773666
692.197643	-2.977500	3.720300	-11.075000	24.858709	0.000536	20.780679
693.199303	-3.007200	3.719200	-11.183000	24.856047	0.000534	20.777059
694.198830	-2.980300	3.717600	-11.078000	24.842219	0.000534	20.789260
695.200490	-2.979000	3.718600	-11.077000	24.838962	0.000531	20.788835
696.196669	-3.005700	3.717100	-11.171000	24.817278	0.000534	20.788885
697.195130	-2.994400	3.716900	-11.129000	24.847935	0.000532	20.774607
698.196447	-3.004800	3.717300	-11.169000	24.850149	0.000534	20.765923
699.198744	-2.989200	3.717400	-11.110000	24.830080	0.000533	20.783715
700.196051	-3.004600	3.716500	-11.165000	24.865760	0.000533	20.766893
701.199525	-3.002300	3.716100	-11.156000	24.874440	0.000532	20.797416
702.198990	-2.980000	3.716700	-11.074000	24.901714	0.000533	20.775477
703.200631	-2.992400	3.716100	-11.119000	24.894772	0.000531	20.792692
704.199362	-2.994200	3.715200	-11.124000	24.908025	0.000533	20.786078
705.195416	-2.986600	3.716500	-11.098000	24.926453	0.000530	20.789875
706.195776	-3.000600	3.715800	-11.149000	24.931222	0.000532	20.802249
707.202242	-3.003000	3.714700	-11.155000	24.926519	0.000532	20.779985
708.200055	-2.991600	3.716000	-11.116000	24.906304	0.000530	20.801895
709.202373	-3.029200	3.713400	-11.248000	24.912076	0.000531	20.794886
710.203483	-2.991700	3.715200	-11.113000	24.865351	0.000528	20.793983
711.199698	-3.011800	3.714800	-11.187000	24.837953	0.000531	20.778340
712.203202	-3.018400	3.713000	-11.206000	24.892156	0.000530	20.794808
713.202878	-2.964000	3.715400	-11.011000	24.904217	0.000531	20.805964
714.203146	-2.984800	3.712700	-11.080000	24.927912	0.000530	20.793237
715.203701	-2.984400	3.714600	-11.085000	24.902652	0.000529	20.799652
716.207565	-3.016400	3.713500	-11.200000	24.874750	0.000530	20.786821
717.203816	-2.997900	3.712600	-11.129000	24.858638	0.000527	20.817117
718.209201	-2.979400	3.712000	-11.059000	24.887806	0.000528	20.787122
719.208855	-3.004500	3.712400	-11.153000	24.918735	0.000529	20.794457
720.208084	-3.024400	3.710400	-11.221000	24.894741	0.000528	20.783651
721.210518	-3.003900	3.711800	-11.149000	24.892731	0.000527	20.786850
722.211578	-2.996800	3.711700	-11.121000	24.935421	0.000526	20.801722
723.207809	-2.976700	3.711800	-11.048000	24.931096	0.000528	20.783630
724.207984	-2.989700	3.710700	-11.092000	24.953944	0.000527	20.818890
725.211738	-2.958600	3.711000	-10.978000	24.992309	0.000527	20.818519
726.205298	-2.998900	3.711600	-11.129000	24.982985	0.000524	20.803470
727.205376	-2.996900	3.710100	-11.118000	24.954991	0.000526	20.799553
728.212067	-3.000400	3.710700	-11.133000	24.951934	0.000525	20.796959
729.207100	-3.002100	3.709600	-11.135000	24.920459	0.000524	20.801878
730.210791	-2.998300	3.709200	-11.120000	24.925427	0.000525	20.797380
731.207172	-3.000200	3.710100	-11.130000	24.902158	0.000525	20.793941
732.210380	-3.025800	3.708200	-11.219000	24.900117	0.000524	20.818444
733.210858	-3.038300	3.708900	-11.268000	24.904697	0.000525	20.797911
734.221265	-2.997100	3.709000	-11.115000	24.890898	0.000524	20.820571
735.207526	-3.013100	3.707300	-11.169000	24.881749	0.000523	20.815656
736.214598	-3.009100	3.706700	-11.153000	24.866434	0.000525	20.805975
737.209006	-2.998800	3.709100	-11.121000	24.875932	0.000524	20.802232
738.214003	-3.013800	3.706700	-11.170000	24.903583	0.000524	20.815759
739.208166	-2.981200	3.708100	-11.054000	24.915266	0.000523	20.807097
740.216487	-3.000700	3.706700	-11.122000	24.903459	0.000524	20.801411
741.211443	-2.991500	3.707000	-11.088000	24.873996	0.000524	20.807401
742.207047	-2.985400	3.706700	-11.065000	24.894434	0.000525	20.809422
743.213403	-2.990900	3.706800	-11.086000	24.890084	0.000525	20.818331
744.212109	-3.024600	3.705900	-11.208000	24.915274	0.000524	20.801414
745.212447	-3.004000	3.705400	-11.130000	24.905254	0.000523	20.813643
746.210214	-3.007600	3.705500	-11.144000	24.910972	0.000523	20.835503
747.215456	-3.019300	3.705300	-11.187000	24.936560	0.000524	20.822305
748.223380	-2.965000	3.705600	-10.985000	24.956673	0.000524	20.814991
749.215962	-2.985900	3.704700	-11.062000	24.958368	0.000524	20.801046
750.211382	-2.984000	3.705300	-11.056000	24.965895	0.000523	20.818084
751.215064	-2.990000	3.704300	-11.075000	24.965232	0.000523	20.805091
752.216273	-2.994400	3.703500	-11.089000	24.975297	0.000524	20.814245
753.214229	-2.983400	3.703600	-11.049000	24.970450	0.000525	20.813173
754.212503	-2.982500	3.704700	-11.049000	24.996928	0.000525	20.826948
755.212846	-2.991700	3.703200	-11.078000	24.995905	0.000524	20.811223
756.214050	-2.981600	3.704300	-11.043000	24.930768	0.000522	20.811750
757.211766	-2.999200	3.703300	-11.106000	24.929922	0.000524	20.835556
758.215172	-3.023300	3.701700	-11.189000	24.917163	0.000522	20.836501
759.212105	-2.996800	3.701800	-11.093000	24.877903	0.000522	20.805632
760.215935	-3.003400	3.701900	-11.117000	24.877554	0.000523	20.812394
761.216447	-3.004000	3.700200	-11.114000	24.905649	0.000523	20.804082
762.213862	-2.999900	3.702000	-11.105000	24.892766	0.000521	20.827662
763.215551	-2.995100	3.701500	-11.086000	24.934064	0.000524	20.821222
764.211997	-2.995800	3.702300	-11.091000	24.943731	0.000522	20.827131
765.217167	-2.997400	3.701400	-11.094000	24.923022	0.000521	20.842856
766.215531	-2.991800	3.700200	-11.069000	24.906065	0.000520	20.826310
767.212690	-3.001000	3.701400	-11.107000	24.902455	0.000520	20.817946
768.213894	-3.012700	3.700200	-11.147000	24.917223	0.000520	20.845095
769.214220	-3.011100	3.699200	-11.137000	24.956658	0.000519	20.830149
770.220967	-2.988800	3.699200	-11.055000	24.981120	0.000518	20.831943
771.220706	-2.977400	3.701200	-11.019000	24.999494	0.000519	20.834264
772.219428	-3.012400	3.699000	-11.142000	24.938231	0.000520	20.839154
773.215775	-2.988200	3.700300	-11.056000	24.930570	0.000520	20.861810
774.217550	-2.982200	3.699000	-11.029000	24.977412	0.000519	20.820635
775.216849	-2.999900	3.699800	-11.098000	25.035739	0.000518	20.849309
776.220403	-3.010700	3.697400	-11.131000	25.045010	0.000515	20.840598
777.220959	-3.005800	3.697800	-11.113000	25.038722	0.000517	20.831915
778.229794	-3.007800	3.698100	-11.122000	25.035888	0.000516	20.870794
779.222567	-3.009900	3.697300	-11.127000	25.074272	0.000518	20.844366
780.224634	-2.974900	3.698300	-11.001000	25.057567	0.000515	20.845615
781.223167	-2.987700	3.698200	-11.049000	25.092344	0.000516	20.827895
782.218956	-2.988100	3.696900	-11.046000	25.102686	0.000517	20.854872
783.227127	-3.006800	3.696900	-11.115000	25.116010	0.000517	20.843117
784.219174	-2.992000	3.696900	-11.060000	25.147581	0.000516	20.842095
785.224557	-3.001500	3.697200	-11.096000	25.117103	0.000516	20.851326
786.225474	-3.001100	3.696300	-11.092000	25.093757	0.000519	20.849702
787.224152	-2.999100	3.696600	-11.086000	25.095322	0.000517	20.852695
788.223510	-2.997400	3.695100	-11.075000	25.070909	0.000516	20.846680
789.219558	-3.023500	3.695700	-11.173000	25.085699	0.000517	20.860579
790.224565	-2.981000	3.695200	-11.015000	25.064144	0.000515	20.846528
791.221571	-3.002700	3.696000	-11.097000	25.072869	0.000515	20.844380
792.224625	-2.997500	3.694000	-11.071000	25.053054	0.000518	20.865267
793.221163	-2.993100	3.695700	-11.060000	25.065209	0.000515	20.853760
794.224218	-2.990900	3.695000	-11.050000	25.074677	0.000516	20.849989
795.229220	-3.010000	3.693700	-11.117000	25.049071	0.000514	20.857001
796.225166	-3.005900	3.694000	-11.102000	25.053766	0.000517	20.866930
797.226696	-2.998800	3.695100	-11.080000	25.074673	0.000514	20.854726
798.229108	-2.991000	3.695300	-11.051000	25.065646	0.000514	20.857992
799.223858	-3.012300	3.693000	-11.123000	25.100747	0.000514	20.865727
800.228665	-3.007700	3.692600	-11.105000	25.082125	0.000513	20.874533
801.227843	-3.017800	3.691800	-11.140000	25.140197	0.000514	20.859337
802.228899	-3.007400	3.692300	-11.103000	25.139224	0.000514	20.872110
803.230144	-2.992200	3.692000	-11.046000	25.155780	0.000515	20.880195
804.228804	-2.974900	3.693100	-10.985000	25.144888	0.000514	20.878744
805.230176	-2.990000	3.692900	-11.041000	25.072745	0.000514	20.854213
806.241679	-3.009500	3.692200	-11.111000	25.021403	0.000513	20.854358
807.237823	-3.010300	3.691100	-11.111000	25.022372	0.000515	20.868133
808.235748	-2.996500	3.690300	-11.058000	25.053548	0.000512	20.879512
809.235307	-3.001500	3.690400	-11.076000	25.045490	0.000514	20.864786
810.238655	-2.971700	3.691700	-10.969000	25.092746	0.000511	20.860066
811.233674	-2.995900	3.690100	-11.054000	25.093814	0.000512	20.881525
812.236917	-2.993200	3.690700	-11.046000	25.091477	0.000513	20.874438
813.239154	-3.010000	3.689800	-11.105000	25.091202	0.000511	20.869421
814.236341	-3.005400	3.689500	-11.087000	25.103059	0.000512	20.884168
815.235635	-3.005100	3.689800	-11.087000	25.131745	0.000513	20.879774
816.239779	-3.014500	3.689600	-11.121000	25.158614	0.000512	20.882565
817.233514	-3.001700	3.689000	-11.072000	25.142009	0.000509	20.875853
818.241149	-2.991600	3.688000	-11.032000	25.171465	0.000511	20.891673
819.242575	-2.977300	3.689300	-10.982000	25.174048	0.000511	20.890473
820.238791	-3.009300	3.688300	-11.099000	25.205121	0.000509	20.888478
821.241589	-3.016900	3.688500	-11.127000	25.213471	0.000511	20.893541
822.239292	-2.995300	3.689500	-11.051000	25.202457	0.000510	20.891492
823.240410	-3.005700	3.688000	-11.084000	25.204469	0.000507	20.902521
824.237970	-2.981100	3.688700	-10.996000	25.182243	0.000509	20.873571
825.241913	-3.000100	3.686100	-11.057000	25.163203	0.000508	20.875793
826.236724	-2.979800	3.687200	-10.985000	25.156763	0.000509	20.882130
827.237014	-2.970300	3.687100	-10.951000	25.171225	0.000508	20.897121
828.238955	-2.987600	3.686900	-11.014000	25.148406	0.000505	20.890809
829.241262	-2.987500	3.686000	-11.011000	25.128766	0.000509	20.882948
830.239305	-3.002900	3.685700	-11.067000	25.132270	0.000508	20.861810
831.244788	-2.993800	3.685400	-11.032000	25.164557	0.000510	20.884264
832.239415	-2.984600	3.687100	-11.004000	25.181158	0.000509	20.888128
833.242119	-3.013300	3.684800	-11.103000	25.207433	0.000508	20.899333
834.243050	-3.000600	3.685000	-11.056000	25.230921	0.000509	20.904895
835.235839	-3.016000	3.685000	-11.113000	25.210193	0.000507	20.871286
836.239969	-3.000300	3.684600	-11.053000	25.226445	0.000508	20.900876
837.244816	-2.976600	3.684100	-10.964000	25.260498	0.000508	20.884331
838.239284	-3.003800	3.683700	-11.065000	25.244462	0.000506	20.911851
839.239407	-2.991200	3.683500	-11.017000	25.226240	0.000508	20.913472
840.244339	-2.980500	3.683700	-10.978000	25.207300	0.000506	20.916267
841.241110	-2.976400	3.683300	-10.962000	25.197325	0.000507	20.886815
842.241179	-2.998000	3.682600	-11.039000	25.191334	0.000506	20.891231
843.240251	-3.014600	3.681500	-11.097000	25.208534	0.000508	20.882895
844.237773	-2.995300	3.682100	-11.028000	25.187302	0.000507	20.910889
845.239212	-3.010800	3.682600	-11.087000	25.215294	0.000507	20.888733
846.238979	-3.012800	3.682100	-11.092000	25.198510	0.000505	20.883263
847.241251	-3.001200	3.682100	-11.050000	25.209944	0.000503	20.866294
848.242939	-3.028000	3.680600	-11.143000	25.183414	0.000501	20.889445
849.244289	-3.016600	3.680300	-11.101000	25.149084	0.000504	20.883430
850.244642	-3.003900	3.680600	-11.056000	25.161065	0.000503	20.892137
851.239231	-2.991700	3.681500	-11.013000	25.116265	0.000504	20.881303
852.242074	-2.992700	3.681400	-11.017000	25.124118	0.000502	20.883023
853.240319	-2.996100	3.680200	-11.025000	25.113752	0.000501	20.885418
854.239189	-2.983200	3.681100	-10.980000	25.125803	0.000501	20.868594
855.241022	-2.981300	3.680200	-10.971000	25.123118	0.000502	20.886286
856.245543	-3.003500	3.680200	-11.052000	25.133657	0.000502	20.868418
857.243594	-3.016700	3.678500	-11.096000	25.144146	0.000503	20.881792
858.244059	-3.018500	3.678800	-11.103000	25.216927	0.000501	20.875675
859.248923	-2.994900	3.678400	-11.015000	25.241414	0.000501	20.865173
860.243190	-2.985400	3.679300	-10.984000	25.209441	0.000500	20.865789
861.244174	-2.999900	3.677200	-11.030000	25.187419	0.000500	20.859802
862.242856	-2.979900	3.677900	-10.959000	25.165097	0.000499	20.879117
863.242692	-2.972600	3.679500	-10.937000	25.211851	0.000500	20.862520
864.241573	-3.012400	3.677200	-11.077000	25.243769	0.000499	20.889346
865.251315	-2.998100	3.676000	-11.020000	25.220053	0.000500	20.866960
866.246267	-2.981300	3.677100	-10.962000	25.168848	0.000499	20.873874
867.247012	-3.011500	3.676600	-11.070000	25.176278	0.000497	20.853833
868.246319	-2.997100	3.677400	-11.021000	25.217096	0.000499	20.861621
869.245422	-2.989800	3.675600	-10.989000	25.217741	0.000497	20.860372
870.247903	-3.006200	3.676700	-11.051000	25.235934	0.000497	20.868206
871.245649	-2.982300	3.675300	-10.961000	25.253881	0.000497	20.863465
872.247711	-3.001200	3.676200	-11.032000	25.227606	0.000498	20.864112
873.245421	-3.008200	3.675600	-11.056000	25.232082	0.000497	20.844899
874.252174	-2.987800	3.675700	-10.980000	25.214604	0.000497	20.857223
875.250260	-2.984200	3.675100	-10.966000	25.215898	0.000497	20.848565
876.249529	-2.996100	3.673600	-11.005000	25.217738	0.000494	20.867481
877.253182	-2.983900	3.674300	-10.961000	25.239713	0.000495	20.859197
878.249122	-3.003900	3.673900	-11.036000	25.226239	0.000495	20.854679
879.249123	-2.982200	3.675200	-10.959000	25.223479	0.000493	20.841952
880.252175	-2.986000	3.674900	-10.973000	25.249824	0.000492	20.856073
881.248679	-3.011700	3.673000	-11.061000	25.281096	0.000493	20.856176
882.246772	-2.989000	3.673900	-10.980000	25.302921	0.000492	20.850589
883.260679	-3.022400	3.673000	-11.100000	25.311894	0.000492	20.860071
884.252170	-3.010300	3.671800	-11.052000	25.306026	0.000493	20.838060
885.253516	-2.997600	3.672300	-11.008000	25.284377	0.000490	20.842401
886.255701	-3.020900	3.671900	-11.092000	25.274339	0.000492	20.827582
887.252099	-2.999400	3.672600	-11.015000	25.257236	0.000492	20.845023
888.251878	-2.989500	3.671300	-10.974000	25.234542	0.000491	20.849265
889.251374	-3.008000	3.672400	-11.046000	25.241503	0.000491	20.831124
890.253424	-3.006100	3.671100	-11.034000	25.261860	0.000489	20.843027
891.250178	-2.990700	3.671100	-10.978000	25.272824	0.000492	20.858776
892.257630	-3.000800	3.669400	-11.010000	25.244312	0.000490	20.833944
893.252118	-2.998300	3.671300	-11.007000	25.255248	0.000489	20.830226
894.251276	-3.003100	3.669500	-11.018000	25.289949	0.000489	20.839461
895.256770	-3.005800	3.670500	-11.032000	25.293226	0.000489	20.842277
896.257488	-3.003500	3.669300	-11.020000	25.235610	0.000490	20.819519
897.251640	-2.974000	3.670100	-10.913000	25.249560	0.000490	20.808868
898.255949	-2.981800	3.670600	-10.944000	25.230147	0.000489	20.843905
899.251574	-3.002600	3.669400	-11.017000	25.193732	0.000488	20.844803
900.255371	-2.996700	3.668200	-10.992000	25.264422	0.000486	20.816677
901.256910	-2.989900	3.670400	-10.973000	25.274216	0.000490	20.830778
902.252462	-2.998400	3.669200	-11.000000	25.314477	0.000488	20.832795
903.255143	-2.970800	3.668000	-10.895000	25.294844	0.000487	20.828729
904.257024	-2.971600	3.667700	-10.898000	25.247392	0.000486	20.845097
905.256454	-3.041600	3.666800	-11.152000	25.224899	0.000485	20.845748
906.254187	-2.988600	3.667900	-10.961000	25.252016	0.000487	20.829826
907.258591	-3.008500	3.667300	-11.032000	25.296853	0.000488	20.822686
908.255249	-2.983800	3.668100	-10.944000	25.287979	0.000487	20.819940
909.256445	-3.019700	3.665900	-11.070000	25.278558	0.000487	20.820913
910.261182	-3.001100	3.666500	-11.003000	25.263393	0.000487	20.825127
911.253664	-2.969400	3.666800	-10.887000	25.258544	0.000485	20.825948
912.257010	-3.006900	3.665200	-11.019000	25.207038	0.000488	20.808377
913.258359	-3.005000	3.665500	-11.013000	25.193070	0.000487	20.832760
914.258335	-2.979200	3.666400	-10.920000	25.207087	0.000487	20.810797
915.257889	-3.005200	3.664600	-11.012000	25.242628	0.000487	20.825616
916.265062	-3.006600	3.665600	-11.020000	25.265343	0.000485	20.794368
917.258571	-3.016100	3.664100	-11.051000	25.320001	0.000484	20.838340
918.256846	-3.005700	3.663500	-11.010000	25.328896	0.000485	20.817400
919.258032	-2.994800	3.663800	-10.972000	25.326609	0.000484	20.812259
920.264011	-3.001500	3.663200	-10.994000	25.303913	0.000483	20.812231
921.258484	-3.001100	3.663200	-10.993000	25.294144	0.000484	20.826604
922.263799	-3.032500	3.663300	-11.109000	25.329164	0.000482	20.828575
923.260278	-2.992900	3.663100	-10.962000	25.300777	0.000482	20.818565
924.261790	-3.010800	3.663300	-11.029000	25.302045	0.000483	20.815571
925.259689	-2.999400	3.662500	-10.984000	25.292921	0.000484	20.815419
926.261932	-3.007400	3.662000	-11.013000	25.309524	0.000481	20.826873
927.258958	-2.987800	3.661700	-10.940000	25.347824	0.000481	20.822181
928.266933	-2.992900	3.660700	-10.955000	25.338182	0.000481	20.811078
929.261306	-2.997900	3.661900	-10.977000	25.337562	0.000480	20.798127
930.261681	-2.995600	3.661300	-10.967000	25.321281	0.000480	20.825875
931.265782	-3.013000	3.660400	-11.028000	25.314049	0.000482	20.821459
932.263278	-3.001300	3.661400	-10.988000	25.287924	0.000479	20.807083
933.264432	-3.001300	3.661700	-10.989000	25.274278	0.000480	20.824202
934.262741	-3.004900	3.659700	-10.996000	25.317281	0.000479	20.826600
935.265566	-2.998600	3.660700	-10.976000	25.355355	0.000480	20.817415
936.259219	-3.001100	3.660500	-10.984000	25.362713	0.000477	20.815320
937.268003	-3.017700	3.660100	-11.044000	25.383516	0.000477	20.805388
938.259768	-3.008600	3.659000	-11.008000	25.356997	0.000478	20.825228
939.264570	-2.980300	3.659300	-10.904000	25.356402	0.000476	20.797129
940.267334	-2.973200	3.659200	-10.879000	25.344621	0.000477	20.796205
941.262942	-2.991500	3.658000	-10.942000	25.348578	0.000476	20.793067
942.264425	-2.990800	3.658900	-10.942000	25.336522	0.000478	20.806566
943.266413	-2.986200	3.657900	-10.923000	25.363735	0.000476	20.803544
944.264982	-2.997000	3.657400	-10.960000	25.363883	0.000476	20.818865
945.261575	-2.982400	3.656800	-10.904000	25.331324	0.000475	20.795657
946.267894	-3.030300	3.655700	-11.077000	25.353991	0.000476	20.801347
947.263759	-3.012000	3.656100	-11.011000	25.389111	0.000476	20.797256
948.266075	-3.033800	3.656300	-11.091000	25.413663	0.000474	20.806736
949.266687	-3.010200	3.656200	-11.005000	25.400420	0.000473	20.794861
950.265450	-3.012500	3.656100	-11.013000	25.369275	0.000474	20.780657
951.265352	-2.992200	3.655200	-10.936000	25.353491	0.000473	20.799896
952.272378	-3.027100	3.653900	-11.060000	25.318997	0.000475	20.794185
953.268372	-3.003400	3.655600	-10.979000	25.288720	0.000473	20.819262
954.265177	-2.996100	3.655100	-10.950000	25.300255	0.000473	20.803817
955.272569	-3.006300	3.655700	-10.990000	25.349861	0.000472	20.799571
956.265399	-3.004800	3.653300	-10.977000	25.417388	0.000472	20.786294
957.268318	-2.997200	3.655500	-10.956000	25.452157	0.000473	20.794182
958.274559	-3.007900	3.654200	-10.990000	25.419724	0.000471	20.809029
959.270056	-2.983600	3.653300	-10.899000	25.360895	0.000471	20.804012
960.270162	-3.007700	3.653400	-10.988000	25.334080	0.000468	20.810278
961.271944	-2.969200	3.654600	-10.850000	25.351426	0.000468	20.808728
962.266719	-3.009900	3.653200	-10.995000	25.372080	0.000470	20.794854
963.270283	-3.001600	3.651700	-10.960000	25.343253	0.000470	20.793884
964.271975	-2.981500	3.652400	-10.889000	25.393932	0.000471	20.780286
965.267086	-2.982200	3.652400	-10.892000	25.330750	0.000469	20.809305
966.270300	-2.984400	3.652200	-10.898000	25.338806	0.000470	20.790367
967.291339	-2.994700	3.651500	-10.934000	25.343155	0.000470	20.793785
968.269231	-2.990300	3.651700	-10.918000	25.346358	0.000468	20.797476
969.269838	-3.008700	3.649600	-10.980000	25.365871	0.000467	20.793361
970.273451	-2.997800	3.650000	-10.942000	25.388586	0.000468	20.786298
971.267315	-2.982800	3.650900	-10.889000	25.407249	0.000465	20.813572
972.270766	-3.024800	3.648600	-11.035000	25.415971	0.000468	20.788191
973.270554	-2.997600	3.649700	-10.939000	25.415277	0.000467	20.775166
974.273207	-2.983000	3.650000	-10.887000	25.438192	0.000467	20.781107
975.269163	-3.000800	3.648100	-10.947000	25.403101	0.000467	20.786174
976.270956	-2.994100	3.649700	-10.927000	25.371287	0.000465	20.778410
977.269955	-2.999900	3.648700	-10.944000	25.376133	0.000465	20.799397
978.268927	-3.003700	3.648800	-10.959000	25.428149	0.000465	20.780505
979.272226	-3.008200	3.648300	-10.974000	25.434316	0.000466	20.781956
980.270785	-3.015200	3.648900	-11.001000	25.475938	0.000465	20.790562
981.270984	-2.997800	3.647500	-10.933000	25.439108	0.000465	20.780604
982.271040	-3.007400	3.648000	-10.970000	25.416792	0.000464	20.780955
983.271945	-3.013700	3.646900	-10.989000	25.395370	0.000462	20.793109
984.268334	-2.982600	3.646800	-10.876000	25.381275	0.000463	20.798870
985.271514	-3.010100	3.646600	-10.976000	25.401333	0.000464	20.798622
986.273444	-2.999000	3.645600	-10.933000	25.431825	0.000464	20.787515
987.273332	-2.998700	3.645600	-10.932000	25.422733	0.000465	20.779808
988.273910	-3.004300	3.645300	-10.951000	25.415696	0.000463	20.782225
989.274814	-2.987000	3.645700	-10.889000	25.445994	0.000462	20.776139
990.276539	-2.991900	3.646000	-10.907000	25.484360	0.000463	20.782423
991.274401	-2.983600	3.645600	-10.876000	25.488211	0.000462	20.788188
992.276982	-2.999300	3.644400	-10.929000	25.507647	0.000463	20.795378
993.271888	-2.993700	3.644100	-10.907000	25.509187	0.000461	20.759465
994.275437	-2.985900	3.644300	-10.880000	25.506425	0.000461	20.791779
995.275463	-3.004000	3.643900	-10.945000	25.492387	0.000464	20.787639
996.274779	-3.006100	3.644300	-10.954000	25.487017	0.000460	20.795997
997.275410	-2.988800	3.643400	-10.888000	25.477549	0.000460	20.774635
998.277957	-3.009800	3.642300	-10.962000	25.470068	0.000460	20.772339
999.280160	-2.993500	3.642600	-10.904000	25.462017	0.000458	20.782271
1000.278213	-2.990400	3.643500	-10.895000	25.486295	0.000457	20.777254
1001.276903	-2.997700	3.641900	-10.915000	25.452450	0.000457	20.767448
1002.279711	-3.017100	3.642100	-10.987000	25.419643	0.000456	20.793775
1003.278824	-2.987100	3.641500	-10.877000	25.394320	0.000458	20.787788
1004.276471	-2.980100	3.641400	-10.851000	25.429788	0.000456	20.777409
1005.275384	-2.998100	3.640700	-10.914000	25.393379	0.000457	20.776411
1006.279024	-3.024900	3.639200	-11.008000	25.388058	0.000457	20.792406
1007.278417	-2.990800	3.639500	-10.884000	25.355454	0.000456	20.776737
1008.281107	-3.016200	3.640300	-10.979000	25.341488	0.000455	20.756075
1009.278275	-3.005800	3.640200	-10.941000	25.360176	0.000455	20.781953
1010.279734	-3.004300	3.638700	-10.931000	25.393555	0.000456	20.785123
1011.282150	-3.010800	3.637600	-10.951000	25.404395	0.000454	20.768506
1012.280972	-3.013900	3.638500	-10.965000	25.425668	0.000453	20.762367
1013.278934	-2.981500	3.638600	-10.847000	25.454324	0.000455	20.782133
1014.280783	-3.011000	3.638400	-10.955000	25.475349	0.000454	20.769107
1015.280491	-3.013500	3.638000	-10.963000	25.515230	0.000456	20.758421
1016.284523	-2.983400	3.637500	-10.851000	25.528623	0.000454	20.764285
1017.280330	-3.006900	3.638700	-10.940000	25.481389	0.000454	20.774224
1018.283400	-3.009600	3.636400	-10.943000	25.441226	0.000452	20.743849
1019.279490	-3.014900	3.637600	-10.967000	25.438939	0.000453	20.747717
1020.283349	-3.006900	3.636200	-10.933000	25.416249	0.000454	20.742002
1021.283193	-2.986000	3.637500	-10.860000	25.459912	0.000453	20.767830
1022.281766	-2.976100	3.635400	-10.818000	25.414956	0.000451	20.746868
1023.281522	-3.003800	3.636200	-10.921000	25.390324	0.000451	20.769076
1024.280042	-3.030800	3.633600	-11.011000	25.413264	0.000451	20.778835
1025.286973	-3.011500	3.635000	-10.946000	25.422610	0.000452	20.757399
1026.285446	-2.999300	3.636400	-10.906000	25.397111	0.000450	20.767830
1027.283598	-3.011900	3.633900	-10.943000	25.396456	0.000450	20.760534
1028.286010	-3.005500	3.634700	-10.924000	25.425736	0.000450	20.757218
1029.280803	-2.990300	3.635000	-10.869000	25.416711	0.000449	20.760485
1030.285482	-3.025700	3.633000	-10.992000	25.431198	0.000450	20.773135
1031.285436	-3.011900	3.632900	-10.941000	25.426525	0.000447	20.741415
1032.284637	-2.967300	3.633600	-10.780000	25.398912	0.000447	20.763475
1033.284802	-2.991600	3.634000	-10.871000	25.372691	0.000444	20.741412
1034.284747	-3.000800	3.631500	-10.896000	25.415736	0.000446	20.745754
1035.288895	-2.983500	3.631300	-10.833000	25.387428	0.000445	20.754788
1036.287533	-2.994300	3.631600	-10.873000	25.398828	0.000443	20.766236
1037.286651	-3.013600	3.631400	-10.942000	25.362721	0.000445	20.765542
1038.288227	-3.006200	3.631700	-10.917000	25.342687	0.000446	20.770556
1039.284461	-3.005900	3.631200	-10.913000	25.356132	0.000445	20.755132
1040.288758	-2.973800	3.631200	-10.798000	25.378298	0.000444	20.765535
1041.289311	-3.020800	3.629600	-10.963000	25.396217	0.000444	20.774045
1042.283706	-3.000000	3.629300	-10.887000	25.381057	0.000440	20.749339
1043.285954	-3.017500	3.630300	-10.954000	25.392020	0.000443	20.753235
1044.286436	-3.002000	3.630200	-10.897000	25.402035	0.000444	20.738635
1045.291792	-2.994700	3.630700	-10.872000	25.409936	0.000441	20.744198
1046.285226	-3.011800	3.628200	-10.927000	25.436879	0.000439	20.748967
1047.288510	-2.976200	3.629700	-10.801000	25.442891	0.000441	20.762591
1048.290675	-2.990500	3.628600	-10.850000	25.431237	0.000440	20.734293
1049.289814	-3.005800	3.628700	-10.906000	25.441925	0.000440	20.738387
1050.289371	-2.999400	3.629000	-10.884000	25.461929	0.000440	20.752786
1051.291664	-2.987900	3.627700	-10.838000	25.470802	0.000439	20.749367
1052.288133	-2.989300	3.627000	-10.841000	25.479456	0.000442	20.759006
1053.291473	-3.027300	3.626200	-10.976000	25.536633	0.000441	20.752414
1054.295719	-2.972400	3.627300	-10.780000	25.558404	0.000438	20.746777
1055.289806	-3.002000	3.626500	-10.885000	25.485844	0.000438	20.752619
1056.292179	-2.991500	3.625400	-10.844000	25.424855	0.000438	20.754912
1057.292473	-3.003600	3.626200	-10.891000	25.420087	0.000439	20.747279
1058.295187	-2.987200	3.626100	-10.831000	25.447326	0.000437	20.744759
1059.292949	-2.988300	3.626200	-10.835000	25.496806	0.000438	20.759360
1060.296131	-2.993600	3.625300	-10.852000	25.512538	0.000438	20.765676
1061.292441	-2.982600	3.624500	-10.809000	25.484279	0.000438	20.760057
1062.302223	-3.002600	3.624500	-10.882000	25.479212	0.000439	20.753546
1063.292211	-2.999300	3.624200	-10.869000	25.448721	0.000437	20.770343
1064.297783	-3.006000	3.623300	-10.890000	25.427526	0.000436	20.773241
1065.297630	-3.005600	3.623600	-10.890000	25.443404	0.000437	20.745562
1066.295474	-2.995400	3.622800	-10.851000	25.480410	0.000437	20.737678
1067.294241	-2.984400	3.622900	-10.812000	25.467665	0.000436	20.746217
1068.295908	-2.995100	3.623100	-10.851000	25.489064	0.000434	20.753007
1069.297668	-2.992400	3.623100	-10.841000	25.504747	0.000436	20.745997
1070.298005	-2.998700	3.622000	-10.860000	25.547709	0.000435	20.750261
1071.299890	-3.001300	3.622600	-10.872000	25.544157	0.000433	20.757600
1072.294015	-2.980900	3.620700	-10.792000	25.596860	0.000434	20.753630
1073.297651	-3.009300	3.620500	-10.895000	25.541571	0.000435	20.743623
1074.297426	-2.994600	3.620200	-10.840000	25.529444	0.000434	20.750884
1075.297554	-2.985700	3.619800	-10.807000	25.511379	0.000433	20.756450
1076.300176	-2.993900	3.620800	-10.839000	25.526935	0.000431	20.754055
1077.296576	-3.001700	3.618900	-10.862000	25.476389	0.000431	20.754030
1078.299198	-3.003200	3.619200	-10.868000	25.507182	0.000431	20.766935
1079.299226	-2.990200	3.620700	-10.826000	25.542368	0.000430	20.758173
1080.300704	-3.000600	3.618700	-10.857000	25.541124	0.000431	20.756450
1081.300580	-2.995400	3.619100	-10.838000	25.564185	0.000430	20.766808
1082.301909	-2.983300	3.618500	-10.794000	25.531684	0.000429	20.755505
1083.297270	-2.985100	3.619500	-10.803000	25.482975	0.000427	20.743099
1084.300380	-2.986700	3.619300	-10.808000	25.510244	0.000427	20.764320
1085.302759	-3.016800	3.617500	-10.912000	25.477266	0.000429	20.763920
1086.297976	-2.988300	3.617800	-10.811000	25.479130	0.000428	20.760102
1087.304275	-3.000000	3.616900	-10.849000	25.483260	0.000424	20.765671
1088.314694	-2.999500	3.617600	-10.850000	25.521184	0.000426	20.782419
1089.301667	-3.011700	3.614000	-10.883000	25.486667	0.000423	20.742065
1090.302628	-2.991400	3.616100	-10.817000	25.465895	0.000423	20.744913
1091.309347	-2.994100	3.615800	-10.826000	25.467333	0.000425	20.777178
1092.300062	-2.983500	3.613900	-10.780000	25.512318	0.000423	20.755023
1093.301758	-2.998400	3.613700	-10.835000	25.536775	0.000424	20.769627
1094.306414	-2.999800	3.614600	-10.842000	25.540154	0.000424	20.760692
1095.301719	-2.983400	3.615600	-10.786000	25.502286	0.000423	20.779563
1096.300441	-2.994600	3.615200	-10.825000	25.452039	0.000423	20.757079
1097.308391	-2.992600	3.613100	-10.812000	25.519266	0.000423	20.764371
1098.305762	-2.988800	3.614400	-10.802000	25.559648	0.000422	20.757510
1099.306198	-2.995400	3.612700	-10.821000	25.603454	0.000422	20.790125
1100.311403	-2.999100	3.613000	-10.835000	25.557960	0.000423	20.745857
1101.305202	-2.999900	3.614200	-10.840000	25.526056	0.000421	20.750801
1102.309443	-3.021300	3.613700	-10.916000	25.535227	0.000421	20.778030
1103.314670	-3.005700	3.613300	-10.860000	25.504065	0.000420	20.765227
1104.307240	-3.000700	3.612600	-10.839000	25.553271	0.000422	20.759166
1105.308678	-2.987000	3.611400	-10.787000	25.507000	0.000421	20.770072
1106.310248	-3.009900	3.611000	-10.869000	25.520199	0.000421	20.762463
1107.309880	-2.986700	3.611300	-10.785000	25.540304	0.000420	20.765110
1108.308886	-3.007800	3.609600	-10.855000	25.507402	0.000419	20.764311
1109.313358	-2.995900	3.609800	-10.814000	25.500249	0.000421	20.751911
1110.307682	-3.002000	3.609300	-10.834000	25.516922	0.000418	20.756802
1111.310754	-3.012600	3.608900	-10.871000	25.565109	0.000421	20.757778
1112.308172	-3.009800	3.608900	-10.861000	25.554447	0.000421	20.761296
1113.308470	-2.999000	3.609900	-10.826000	25.507881	0.000418	20.754360
1114.310659	-2.999900	3.608500	-10.824000	25.524159	0.000417	20.762173
1115.313045	-3.024400	3.607600	-10.910000	25.513099	0.000417	20.756281
1116.313419	-2.999800	3.608200	-10.823000	25.521126	0.000419	20.785680
1117.309387	-2.990500	3.607300	-10.786000	25.480915	0.000417	20.772325
1118.318522	-3.029100	3.608500	-10.929000	25.492772	0.000418	20.764792
1119.314366	-3.009900	3.607700	-10.858000	25.538570	0.000418	20.787551
1120.314922	-2.990400	3.606900	-10.784000	25.548038	0.000417	20.764342
1121.312702	-3.004100	3.608400	-10.839000	25.608245	0.000417	20.778341
1122.314674	-2.997200	3.607600	-10.812000	25.645340	0.000417	20.771975
1123.316782	-2.998700	3.606500	-10.814000	25.643998	0.000417	20.770153
1124.319001	-3.011200	3.606100	-10.858000	25.580612	0.000417	20.783779
1125.316799	-2.986300	3.605000	-10.765000	25.552781	0.000416	20.758199
1126.321550	-2.998000	3.605400	-10.808000	25.530315	0.000416	20.762191
1127.319576	-2.996100	3.604500	-10.798000	25.561300	0.000416	20.768652
1128.314258	-3.016900	3.604200	-10.873000	25.525738	0.000415	20.775613
1129.318073	-3.001500	3.603800	-10.816000	25.564528	0.000416	20.760514
1130.319164	-2.990100	3.604700	-10.778000	25.575958	0.000415	20.765355
1131.321362	-2.996800	3.603200	-10.798000	25.602442	0.000414	20.781522
1132.314274	-3.002500	3.602800	-10.815000	25.586390	0.000414	20.749279
1133.319925	-2.971400	3.604800	-10.710000	25.583931	0.000417	20.780475
1134.317130	-2.991700	3.602200	-10.776000	25.575053	0.000413	20.781990
1135.314356	-2.988600	3.602200	-10.764000	25.501895	0.000417	20.780118
1136.321218	-2.999500	3.601900	-10.803000	25.529054	0.000413	20.771357
1137.315944	-2.987400	3.602600	-10.762000	25.487008	0.000412	20.794566
1138.317970	-2.997300	3.602800	-10.798000	25.508875	0.000414	20.784757
1139.324297	-2.987100	3.602600	-10.761000	25.503653	0.000412	20.797057
1140.318315	-3.003900	3.600600	-10.815000	25.484619	0.000412	20.772726
1141.317408	-2.991000	3.600900	-10.769000	25.537969	0.000412	20.781732
1142.323902	-2.990600	3.600800	-10.767000	25.510905	0.000411	20.804339
1143.320354	-2.992800	3.599900	-10.773000	25.562714	0.000412	20.795203
1144.317292	-3.001400	3.599400	-10.802000	25.530359	0.000409	20.805857
1145.323643	-3.001600	3.598700	-10.800000	25.554339	0.000408	20.782999
1146.320494	-2.987700	3.599100	-10.753000	25.624259	0.000412	20.808649
1147.320798	-3.005400	3.598500	-10.814000	25.574017	0.000409	20.793752
1148.317144	-2.986300	3.599000	-10.747000	25.566411	0.000408	20.784690
1149.318447	-2.993200	3.598100	-10.769000	25.559551	0.000408	20.782069
1150.319375	-3.034700	3.596600	-10.914000	25.536613	0.000410	20.791750
1151.323823	-3.010000	3.597700	-10.828000	25.580843	0.000409	20.768838
1152.320853	-3.003700	3.596000	-10.801000	25.571502	0.000408	20.795019
1153.317375	-3.004400	3.597300	-10.807000	25.550573	0.000406	20.794864
1154.323630	-2.989900	3.597500	-10.755000	25.569138	0.000410	20.802602
1155.318036	-2.997100	3.594900	-10.774000	25.556369	0.000408	20.800210
1156.323691	-2.985400	3.594900	-10.731000	25.506537	0.000405	20.814177
1157.320795	-3.013200	3.595100	-10.832000	25.540782	0.000406	20.791195
1158.320263	-3.014900	3.594100	-10.834000	25.560763	0.000405	20.789450
1159.318098	-2.991900	3.595400	-10.756000	25.577182	0.000407	20.806414
1160.328012	-3.005100	3.594500	-10.801000	25.556733	0.000405	20.788721
1161.324003	-3.013000	3.594400	-10.829000	25.587072	0.000404	20.808286
1162.324532	-3.014700	3.593100	-10.832000	25.562447	0.000402	20.799202
1163.327016	-3.009200	3.593600	-10.813000	25.599943	0.000404	20.797978
1164.323685	-2.989600	3.594200	-10.744000	25.623971	0.000403	20.810731
1165.323222	-2.997800	3.593500	-10.771000	25.624863	0.000406	20.779384
1166.325834	-2.997900	3.592300	-10.768000	25.612443	0.000404	20.789670
1167.326124	-2.970200	3.593200	-10.672000	25.624813	0.000403	20.805887
1168.324307	-3.005600	3.592500	-10.797000	25.606225	0.000401	20.802865
1169.328153	-3.004200	3.592000	-10.790000	25.582270	0.000401	20.802515
1170.327109	-2.995400	3.591900	-10.759000	25.606370	0.000403	20.819606
1171.326490	-3.015400	3.591100	-10.828000	25.660665	0.000403	20.801117
1172.330214	-2.997600	3.591400	-10.765000	25.639868	0.000400	20.792083
1173.321272	-3.011100	3.590600	-10.811000	25.597696	0.000398	20.812791
1174.325412	-3.006900	3.591300	-10.797000	25.583930	0.000401	20.817458
1175.328619	-3.020500	3.589200	-10.840000	25.607881	0.000402	20.804054
1176.325054	-3.031600	3.589600	-10.881000	25.595310	0.000400	20.824145
1177.324434	-3.009900	3.588500	-10.800000	25.573092	0.000400	20.813212
1178.330140	-3.014500	3.589400	-10.819000	25.583553	0.000396	20.812812
1179.325062	-3.001100	3.588800	-10.770000	25.580967	0.000397	20.800258
1180.325328	-2.989700	3.589300	-10.730000	25.582732	0.000398	20.794444
1181.331179	-3.024100	3.588700	-10.852000	25.608594	0.000398	20.811408
1182.321899	-3.003100	3.588300	-10.775000	25.600716	0.000397	20.830522
1183.326690	-2.998600	3.587000	-10.755000	25.567741	0.000399	20.817321
1184.329103	-2.998700	3.586700	-10.754000	25.601407	0.000397	20.799448
1185.324667	-2.987100	3.586600	-10.712000	25.589255	0.000398	20.823280
1186.322534	-3.014000	3.587300	-10.811000	25.656689	0.000397	20.802339
1187.329347	-3.001700	3.587000	-10.766000	25.660268	0.000395	20.819211
1188.331991	-3.014400	3.585500	-10.808000	25.654226	0.000394	20.822625
1189.327907	-3.005700	3.586800	-10.781000	25.687818	0.000395	20.818907
1190.325738	-2.995900	3.584700	-10.739000	25.711243	0.000394	20.829632
1191.324683	-2.998000	3.586400	-10.751000	25.678170	0.000392	20.806845
1192.327796	-2.983900	3.586500	-10.701000	25.642689	0.000394	20.820995
1193.328921	-3.004900	3.585200	-10.772000	25.645296	0.000392	20.806544
1194.333653	-3.005400	3.584400	-10.771000	25.651828	0.000391	20.839182
1195.333566	-2.993100	3.583100	-10.724000	25.702190	0.000392	20.839030
1196.329904	-2.992300	3.583900	-10.723000	25.681640	0.000390	20.822659
1197.332777	-2.997300	3.584900	-10.743000	25.658039	0.000392	20.844946
1198.327966	-3.002000	3.582900	-10.754000	25.678462	0.000393	20.837958
1199.330838	-2.996900	3.583300	-10.738000	25.659276	0.000389	20.824378
1200.331069	-2.993300	3.581800	-10.719000	25.641460	0.000388	20.857692
1201.331967	-2.989200	3.582400	-10.708000	25.647224	0.000390	20.825076
1202.334414	-2.994100	3.582000	-10.723000	25.601208	0.000389	20.844766
1203.333723	-3.007000	3.581300	-10.768000	25.610252	0.000391	20.818289
1204.334321	-3.009200	3.580400	-10.773000	25.570097	0.000391	20.842919
1205.340195	-2.993300	3.580200	-10.716000	25.571936	0.000390	20.844766
1206.334103	-3.004800	3.581400	-10.760000	25.549496	0.000388	20.843567
1207.328347	-3.009400	3.579200	-10.771000	25.552230	0.000388	20.840149
1208.336948	-3.008900	3.581200	-10.774000	25.566989	0.000391	20.848807
1209.335805	-2.995000	3.580300	-10.722000	25.567736	0.000387	20.832488
1210.332154	-3.015700	3.579600	-10.794000	25.586050	0.000387	20.848984
1211.335476	-3.009200	3.579700	-10.771000	25.631793	0.000389	20.825224
1212.331050	-2.978700	3.579600	-10.662000	25.642774	0.000388	20.846684
1213.331382	-3.005300	3.577800	-10.751000	25.645857	0.000385	20.851203
1214.332007	-3.007900	3.578700	-10.763000	25.624591	0.000384	20.846440
1215.332979	-3.009700	3.578800	-10.771000	25.640513	0.000385	20.841094
1216.331719	-3.009900	3.577600	-10.767000	25.679869	0.000385	20.846483
1217.336291	-3.024400	3.577600	-10.819000	25.734382	0.000383	20.849080
1218.329618	-3.001700	3.577300	-10.737000	25.775848	0.000381	20.855643
1219.331539	-3.003900	3.577000	-10.744000	25.745212	0.000383	20.868965
1220.333072	-2.991000	3.576700	-10.697000	25.749016	0.000382	20.838175
1221.333314	-2.996700	3.576000	-10.715000	25.699992	0.000380	20.859582
1222.334725	-2.996500	3.575500	-10.713000	25.692911	0.000378	20.855315
1223.336770	-3.007100	3.575000	-10.749000	25.649029	0.000381	20.854862
1224.331015	-2.986100	3.575900	-10.677000	25.628559	0.000380	20.854692
1225.329734	-3.007500	3.574000	-10.747000	25.627266	0.000380	20.855764
1226.334854	-3.020000	3.574600	-10.795000	25.640679	0.000378	20.852640
1227.332515	-2.991500	3.575200	-10.695000	25.676089	0.000377	20.856910
1228.335412	-2.997900	3.573600	-10.712000	25.690153	0.000378	20.850173
1229.335371	-2.983100	3.573500	-10.659000	25.709356	0.000376	20.862349
1230.335130	-2.999100	3.573300	-10.716000	25.681877	0.000377	20.857034
1231.335184	-3.008200	3.572200	-10.744000	25.665506	0.000375	20.858135
1232.333972	-2.989800	3.573100	-10.682000	25.675765	0.000376	20.884558
1233.337520	-2.992500	3.572700	-10.691000	25.700440	0.000374	20.862876
1234.332184	-2.987500	3.573100	-10.674000	25.649976	0.000374	20.839693
1235.336087	-3.013700	3.571600	-10.763000	25.584152	0.000373	20.870784
1236.335034	-2.999100	3.572000	-10.713000	25.587858	0.000375	20.844162
1237.339556	-3.002200	3.571600	-10.722000	25.574938	0.000374	20.861531
1238.336218	-3.003400	3.570400	-10.723000	25.562046	0.000373	20.839576
1239.336214	-3.014900	3.570300	-10.763000	25.621431	0.000372	20.857964
1240.340004	-3.006700	3.571000	-10.736000	25.626973	0.000373	20.872064
1241.337258	-2.995300	3.570500	-10.694000	25.618799	0.000372	20.889458
1242.337990	-3.005200	3.570100	-10.728000	25.695926	0.000372	20.877308
1243.344144	-3.002400	3.568800	-10.714000	25.688549	0.000374	20.870847
1244.343856	-3.018800	3.568100	-10.771000	25.711184	0.000372	20.866081
1245.339044	-3.000600	3.567900	-10.705000	25.732602	0.000372	20.867206
1246.334846	-2.979700	3.568600	-10.632000	25.753327	0.000371	20.881857
1247.338886	-2.988000	3.567200	-10.658000	25.740236	0.000370	20.864916
1248.334665	-2.990200	3.567400	-10.666000	25.673621	0.000372	20.873871
1249.337578	-2.986800	3.568100	-10.656000	25.696109	0.000369	20.881758
1250.337726	-2.983800	3.566800	-10.642000	25.702548	0.000369	20.874950
1251.337460	-3.004100	3.565400	-10.710000	25.733208	0.000368	20.896735
1252.337315	-2.979900	3.567300	-10.629000	25.769608	0.000368	20.892046
1253.338343	-3.001200	3.566000	-10.701000	25.801583	0.000365	20.877699
1254.340155	-2.982600	3.566500	-10.637000	25.770133	0.000367	20.889729
1255.340001	-2.974900	3.567300	-10.611000	25.737339	0.000367	20.881446
1256.342511	-3.001300	3.565600	-10.701000	25.713490	0.000367	20.873612
1257.342217	-2.997300	3.563700	-10.680000	25.721888	0.000366	20.884418
1258.342898	-3.005300	3.564000	-10.710000	25.696449	0.000366	20.877833
1259.340324	-3.001100	3.563000	-10.692000	25.709244	0.000367	20.877408
1260.339644	-3.021800	3.562600	-10.764000	25.741619	0.000365	20.886218
1261.338097	-3.015500	3.563500	-10.746000	25.762220	0.000365	20.889367
1262.338374	-2.995400	3.562700	-10.670000	25.762047	0.000365	20.872599
1263.342171	-2.989600	3.562900	-10.651000	25.729877	0.000366	20.892441
1264.343045	-2.985700	3.562900	-10.638000	25.701926	0.000365	20.867688
1265.341004	-2.988400	3.562900	-10.647000	25.715444	0.000364	20.883161
1266.343472	-2.995500	3.562200	-10.670000	25.741456	0.000362	20.896485
1267.339991	-2.977800	3.563100	-10.609000	25.774429	0.000363	20.897837
1268.345784	-2.989100	3.561500	-10.645000	25.790207	0.000363	20.868643
1269.342811	-2.981400	3.559700	-10.611000	25.803652	0.000364	20.876933
1270.346106	-2.993800	3.561300	-10.661000	25.768450	0.000361	20.869074
1271.344769	-3.007200	3.560700	-10.707000	25.761299	0.000361	20.873270
1272.343328	-2.994900	3.560000	-10.661000	25.739856	0.000361	20.887766
1273.344903	-3.008500	3.559800	-10.709000	25.769049	0.000364	20.886270
1274.343627	-3.015500	3.559600	-10.733000	25.760133	0.000360	20.875418
1275.348116	-3.013100	3.559400	-10.724000	25.757033	0.000360	20.883209
1276.343649	-3.010800	3.558400	-10.713000	25.762873	0.000359	20.888601
1277.347800	-3.017100	3.558300	-10.735000	25.775122	0.000359	20.887154
1278.350749	-3.004000	3.558300	-10.688000	25.760217	0.000359	20.889252
1279.343105	-3.013800	3.557900	-10.722000	25.741462	0.000360	20.887957
1280.346923	-3.001200	3.557700	-10.677000	25.717834	0.000359	20.889354
1281.344268	-2.999100	3.557600	-10.669000	25.740123	0.000359	20.888508
1282.347503	-3.006900	3.556100	-10.692000	25.745340	0.000360	20.899438
1283.343571	-2.987700	3.556900	-10.626000	25.700152	0.000358	20.886767
1284.347764	-3.007300	3.556300	-10.693000	25.687160	0.000359	20.889364
1285.344954	-3.005800	3.556200	-10.689000	25.668572	0.000356	20.892032
1286.346410	-2.997200	3.556400	-10.659000	25.690763	0.000357	20.895829
1287.350302	-2.985500	3.556400	-10.616000	25.706145	0.000356	20.904638
1288.349132	-2.984100	3.555300	-10.609000	25.704432	0.000356	20.888221
1289.348205	-2.994000	3.555400	-10.644000	25.758744	0.000354	20.906737
1290.347188	-2.994500	3.555000	-10.644000	25.795838	0.000356	20.893737
1291.348804	-3.003500	3.554300	-10.675000	25.770943	0.000355	20.889120
1292.350188	-2.999600	3.554200	-10.661000	25.800737	0.000354	20.910985
1293.355366	-3.005500	3.553500	-10.680000	25.756662	0.000356	20.914127
1294.351130	-2.986700	3.552300	-10.609000	25.752889	0.000355	20.878572
1295.351704	-3.001000	3.552600	-10.661000	25.780817	0.000357	20.884814
1296.349327	-3.002600	3.551800	-10.664000	25.747203	0.000355	20.875706
1297.349606	-3.000900	3.552900	-10.661000	25.765912	0.000355	20.875059
1298.351057	-3.010200	3.551700	-10.690000	25.756422	0.000355	20.892552
1299.352952	-3.007100	3.550900	-10.678000	25.741242	0.000354	20.894374
1300.350442	-3.024100	3.552100	-10.740000	25.726809	0.000354	20.876085
1301.352041	-2.984100	3.552300	-10.599000	25.738660	0.000353	20.896047
1302.350876	-3.001000	3.550900	-10.656000	25.752226	0.000355	20.882648
1303.349501	-3.010600	3.550500	-10.688000	25.748175	0.000354	20.870045
1304.353241	-3.002200	3.549900	-10.657000	25.765841	0.000353	20.874040
1305.356553	-3.001400	3.549000	-10.651000	25.755379	0.000353	20.896719
1306.347687	-3.013300	3.548900	-10.693000	25.730811	0.000352	20.873466
1307.352040	-3.004700	3.548700	-10.662000	25.718361	0.000353	20.869022
1308.352388	-3.010200	3.547600	-10.677000	25.771756	0.000352	20.863860
1309.349596	-2.994100	3.549000	-10.625000	25.766613	0.000353	20.885245
1310.352919	-3.014600	3.547400	-10.694000	25.794861	0.000353	20.869999
1311.352609	-3.003400	3.548700	-10.656000	25.757123	0.000349	20.871446
1312.351052	-2.979500	3.548100	-10.570000	25.774486	0.000350	20.880352
1313.350359	-2.985700	3.547800	-10.592000	25.805890	0.000350	20.875388
1314.351617	-2.995300	3.546600	-10.622000	25.818385	0.000352	20.863283
1315.352470	-3.010600	3.546100	-10.675000	25.873684	0.000351	20.870470
1316.354583	-3.015900	3.546000	-10.693000	25.867351	0.000350	20.868375
1317.354492	-3.008700	3.544900	-10.665000	25.869038	0.000350	20.874811
1318.351219	-2.995800	3.546200	-10.623000	25.817688	0.000350	20.883918
1319.355073	-2.985100	3.546700	-10.587000	25.841362	0.000348	20.865028
1320.350623	-3.013200	3.545400	-10.682000	25.830629	0.000350	20.863255
1321.350361	-2.982100	3.544700	-10.570000	25.865033	0.000350	20.854668
1322.354970	-2.998800	3.544000	-10.627000	25.858073	0.000349	20.868064
1323.352060	-3.015200	3.543500	-10.683000	25.854671	0.000348	20.870335
1324.353594	-3.015100	3.543000	-10.681000	25.880954	0.000348	20.863549
1325.353763	-2.999000	3.544700	-10.629000	25.845403	0.000349	20.853914
1326.353931	-2.992400	3.543900	-10.604000	25.788514	0.000345	20.856986
1327.353682	-2.991700	3.542700	-10.597000	25.776861	0.000343	20.854764
1328.364808	-2.996700	3.542500	-10.615000	25.792660	0.000344	20.852616
1329.353077	-3.002800	3.541900	-10.635000	25.773233	0.000345	20.868188
1330.357761	-2.993100	3.542600	-10.601000	25.830894	0.000345	20.854038
1331.355791	-3.006000	3.540700	-10.643000	25.803566	0.000345	20.852665
1332.355187	-3.016600	3.540100	-10.677000	25.792857	0.000344	20.877943
1333.354029	-2.973600	3.541500	-10.530000	25.805725	0.000345	20.854360
1334.352863	-3.007900	3.540300	-10.648000	25.820108	0.000343	20.852213
1335.357844	-3.019600	3.539500	-10.686000	25.856900	0.000343	20.854084
1336.354688	-2.998600	3.539700	-10.613000	25.827882	0.000342	20.860496
1337.354577	-3.011200	3.539900	-10.658000	25.836474	0.000340	20.850635
1338.357655	-3.001900	3.537900	-10.620000	25.863554	0.000343	20.867406
1339.356472	-3.027700	3.537800	-10.710000	25.876767	0.000344	20.854127
1340.350499	-2.985600	3.539000	-10.566000	25.886478	0.000344	20.854874
1341.355315	-3.016900	3.537500	-10.671000	25.883150	0.000342	20.868599
1342.357318	-2.999500	3.537300	-10.610000	25.864988	0.000343	20.859838
1343.357028	-3.014100	3.536100	-10.657000	25.854030	0.000341	20.871589
1344.361563	-2.982200	3.536900	-10.546000	25.837556	0.000341	20.859308
1345.357719	-2.990600	3.536900	-10.576000	25.811817	0.000341	20.850048
1346.365323	-3.017800	3.536600	-10.672000	25.804208	0.000339	20.857104
1347.361943	-3.003900	3.536700	-10.623000	25.824879	0.000339	20.849419
1348.361722	-3.014400	3.535300	-10.656000	25.758964	0.000339	20.837261
1349.361834	-2.995400	3.536000	-10.590000	25.743090	0.000340	20.864464
1350.360444	-3.011200	3.535900	-10.647000	25.756551	0.000338	20.855699
1351.367678	-3.005400	3.534200	-10.621000	25.735407	0.000341	20.864807
1352.364068	-2.993700	3.534700	-10.581000	25.775651	0.000341	20.835531
1353.363659	-3.008200	3.534100	-10.630000	25.802082	0.000340	20.838373
1354.362689	-3.002000	3.533600	-10.607000	25.836663	0.000339	20.836126
1355.363997	-2.992500	3.533200	-10.572000	25.800588	0.000338	20.840666
1356.359497	-3.003500	3.533000	-10.609000	25.829974	0.000336	20.848847
1357.371986	-2.993000	3.533400	-10.575000	25.831263	0.000336	20.852513
1358.375278	-2.991600	3.534200	-10.572000	25.803809	0.000337	20.841530
1359.363732	-2.994600	3.533500	-10.580000	25.767357	0.000334	20.848536
1360.365167	-3.006400	3.532200	-10.618000	25.752128	0.000334	20.835136
1361.365550	-2.995800	3.530800	-10.576000	25.804271	0.000335	20.840572
1362.362066	-3.002600	3.532100	-10.605000	25.812323	0.000332	20.840126
1363.373005	-3.011400	3.531300	-10.634000	25.768069	0.000333	20.838820
1364.367242	-2.990500	3.531200	-10.559000	25.727916	0.000330	20.844008
1365.364086	-3.012200	3.530200	-10.633000	25.725482	0.000330	20.847727
1366.370029	-3.013900	3.529600	-10.637000	25.723989	0.000330	20.842908
1367.366790	-3.001700	3.530100	-10.595000	25.760830	0.000330	20.856205
1368.368766	-3.002800	3.529100	-10.596000	25.775171	0.000332	20.841687
1369.372302	-2.997000	3.530000	-10.579000	25.802690	0.000329	20.856053
1370.371345	-3.008300	3.530000	-10.618000	25.836926	0.000329	20.857252
1371.368958	-3.007600	3.528500	-10.611000	25.852326	0.000330	20.833843
1372.370566	-3.008900	3.528400	-10.616000	25.859209	0.000328	20.842179
1373.368783	-3.010800	3.527300	-10.619000	25.829521	0.000328	20.846022
1374.364919	-2.981000	3.527800	-10.515000	25.820106	0.000328	20.839883
1375.371148	-2.996900	3.527000	-10.570000	25.767263	0.000325	20.846545
1376.366990	-2.974700	3.527400	-10.491000	25.756205	0.000326	20.837335
1377.371279	-3.005900	3.526600	-10.599000	25.693523	0.000325	20.848343
1378.372006	-2.972100	3.528300	-10.486000	25.684578	0.000325	20.842678
1379.375655	-2.980100	3.525900	-10.506000	25.703285	0.000324	20.851510
1380.372297	-3.004600	3.526400	-10.594000	25.751361	0.000325	20.849065
1381.371279	-2.985500	3.525600	-10.525000	25.752929	0.000323	20.839734
1382.375152	-3.007800	3.525100	-10.601000	25.781875	0.000326	20.828981
1383.370264	-2.991700	3.525500	-10.546000	25.828704	0.000323	20.850890
1384.371575	-3.018900	3.524400	-10.639000	25.873495	0.000323	20.841358
1385.390881	-2.987400	3.524500	-10.528000	25.848454	0.000323	20.855083
1386.375282	-3.022800	3.522400	-10.647000	25.857898	0.000324	20.834224
1387.376942	-3.005900	3.522800	-10.589000	25.826174	0.000324	20.829858
1388.368398	-3.001000	3.522700	-10.571000	25.812063	0.000321	20.836546
1389.371572	-2.993800	3.523200	-10.546000	25.779222	0.000325	20.841489
1390.370145	-2.991900	3.520600	-10.533000	25.690228	0.000322	20.824172
1391.372889	-2.999800	3.521400	-10.563000	25.728987	0.000320	20.846980
1392.371994	-3.009500	3.521500	-10.597000	25.722431	0.000321	20.860308
1393.375478	-3.010700	3.521200	-10.600000	25.733810	0.000320	20.835229
1394.375238	-3.010200	3.519600	-10.594000	25.728744	0.000321	20.844839
1395.371296	-2.953100	3.521800	-10.399000	25.731403	0.000319	20.825700
1396.376270	-3.007900	3.520400	-10.589000	25.797070	0.000319	20.840451
1397.372508	-2.989800	3.519400	-10.522000	25.795009	0.000320	20.818467
1398.378198	-2.994200	3.519500	-10.536000	25.854635	0.000319	20.829524
1399.376230	-2.992600	3.518000	-10.526000	25.878858	0.000319	20.848168
1400.369546	-3.010100	3.518600	-10.590000	25.866984	0.000321	20.831973
1401.370847	-2.996200	3.518700	-10.541000	25.814042	0.000320	20.832369
1402.374814	-3.002500	3.517800	-10.561000	25.798743	0.000317	20.838338
1403.371940	-3.024300	3.517100	-10.635000	25.838146	0.000319	20.828608
1404.377688	-3.003800	3.516300	-10.561000	25.830319	0.000318	20.812685
1405.378954	-3.019100	3.517800	-10.619000	25.818343	0.000317	20.821517
1406.372435	-2.976700	3.517300	-10.469000	25.782919	0.000317	20.834771
1407.375990	-2.984400	3.517700	-10.497000	25.781503	0.000318	20.811538
1408.379999	-3.003400	3.515900	-10.559000	25.770149	0.000319	20.812462
1409.378222	-2.993500	3.514800	-10.521000	25.794967	0.000318	20.826959
1410.379670	-2.996500	3.514700	-10.531000	25.846219	0.000319	20.820597
1411.378887	-3.003000	3.515100	-10.555000	25.870538	0.000315	20.822741
1412.376361	-2.995600	3.516000	-10.531000	25.845473	0.000317	20.825536
1413.379448	-3.013900	3.513800	-10.588000	25.777353	0.000317	20.833448
1414.382223	-3.002600	3.513200	-10.548000	25.769998	0.000315	20.824638
1415.381044	-2.997700	3.512700	-10.529000	25.827906	0.000314	20.828279
1416.381228	-3.009700	3.512900	-10.571000	25.810315	0.000316	20.813453
1417.376169	-3.006300	3.512000	-10.557000	25.799832	0.000313	20.819518
1418.379596	-3.003600	3.511800	-10.548000	25.813147	0.000314	20.821514
1419.388885	-2.989600	3.512100	-10.499000	25.818935	0.000314	20.825905
1420.380701	-2.993800	3.512600	-10.515000	25.822063	0.000311	20.801072
1421.378063	-2.994700	3.511500	-10.515000	25.799060	0.000311	20.823484
1422.378097	-3.003400	3.510800	-10.543000	25.821344	0.000314	20.788497
1423.379982	-2.989800	3.511600	-10.497000	25.843677	0.000313	20.803818
1424.382397	-3.000400	3.510900	-10.533000	25.813369	0.000312	20.815573
1425.382081	-3.027200	3.510300	-10.626000	25.811302	0.000312	20.808280
1426.379822	-2.990900	3.509300	-10.494000	25.809861	0.000313	20.811101
1427.389294	-3.017300	3.509000	-10.587000	25.790384	0.000310	20.833261
1428.382545	-3.016200	3.508800	-10.583000	25.819671	0.000311	20.817162
1429.381962	-3.011500	3.507900	-10.563000	25.835347	0.000311	20.833856
1430.381538	-2.977000	3.509100	-10.445000	25.829433	0.000310	20.798044
1431.382752	-2.982700	3.509100	-10.466000	25.801284	0.000308	20.818606
1432.386006	-2.987900	3.507700	-10.480000	25.799744	0.000310	20.824172
1433.383290	-2.989800	3.508300	-10.488000	25.784982	0.000309	20.812188
1434.384703	-2.972100	3.508400	-10.426000	25.806970	0.000309	20.806300
1435.383896	-3.009200	3.506900	-10.551000	25.845672	0.000308	20.806296
1436.391162	-3.006900	3.506700	-10.544000	25.842667	0.000309	20.822244
1437.387044	-2.981600	3.507700	-10.457000	25.828380	0.000309	20.818798
1438.385859	-3.009900	3.506300	-10.553000	25.855929	0.000308	20.812333
1439.386300	-2.984900	3.506000	-10.465000	25.875503	0.000309	20.807815
1440.390179	-2.995100	3.505100	-10.497000	25.881685	0.000306	20.800274
1441.391018	-2.985800	3.505700	-10.467000	25.874581	0.000309	20.806414
1442.387417	-3.002200	3.505000	-10.522000	25.892294	0.000308	20.820415
1443.389764	-2.996900	3.503200	-10.498000	25.917781	0.000306	20.797182
1444.384075	-2.992700	3.503600	-10.484000	25.936827	0.000307	20.814418
1445.389391	-3.015700	3.502900	-10.563000	25.937101	0.000307	20.798573
1446.386459	-2.980300	3.504300	-10.443000	25.934245	0.000307	20.810876
1447.386166	-2.989700	3.503200	-10.473000	25.925647	0.000307	20.808403
1448.389886	-2.979600	3.502100	-10.434000	25.883243	0.000305	20.791882
1449.384647	-2.980000	3.502500	-10.436000	25.869277	0.000304	20.811517
1450.384408	-2.972300	3.503700	-10.413000	25.868558	0.000304	20.812218
1451.388770	-2.995700	3.502100	-10.491000	25.885399	0.000304	20.798789
1452.383654	-3.007300	3.501700	-10.529000	25.904824	0.000304	20.797915
1453.383981	-2.998200	3.500900	-10.495000	25.909294	0.000304	20.809518
1454.389478	-3.010200	3.499800	-10.533000	25.916149	0.000302	20.802180
1455.387971	-3.035000	3.499200	-10.619000	25.969234	0.000301	20.806199
1456.385403	-3.022000	3.498500	-10.572000	25.914983	0.000303	20.808595
1457.387694	-3.002600	3.499200	-10.507000	25.888672	0.000302	20.813931
1458.384684	-3.000200	3.499500	-10.498000	25.916892	0.000303	20.807668
1459.389470	-3.012100	3.498500	-10.537000	25.941783	0.000300	20.803277
1460.387779	-3.001300	3.498100	-10.498000	26.004652	0.000300	20.796738
1461.393749	-2.994900	3.497600	-10.474000	26.003560	0.000302	20.811762
1462.387304	-2.998700	3.497300	-10.487000	25.963444	0.000301	20.814607
1463.391835	-3.008300	3.497100	-10.519000	25.975092	0.000300	20.795963
1464.383362	-2.972800	3.497800	-10.397000	25.971788	0.000299	20.794066
1465.388796	-2.991000	3.497000	-10.458000	25.989698	0.000300	20.799731
1466.389654	-2.999000	3.495300	-10.481000	26.012992	0.000298	20.801324
1467.385939	-2.979000	3.497200	-10.417000	25.946496	0.000297	20.794261
1468.391490	-3.010300	3.495300	-10.521000	25.884223	0.000298	20.796660
1469.389270	-3.003800	3.494500	-10.496000	25.892170	0.000297	20.806539
1470.386393	-3.011700	3.494900	-10.525000	25.871751	0.000300	20.786501
1471.386967	-3.011800	3.494200	-10.522000	25.809417	0.000296	20.780783
1472.388656	-2.997400	3.493900	-10.471000	25.769220	0.000297	20.786873
1473.386590	-2.970100	3.494900	-10.379000	25.810312	0.000298	20.780734
1474.390541	-2.985300	3.495000	-10.433000	25.835773	0.000296	20.791611
1475.388392	-2.981100	3.493300	-10.413000	25.834086	0.000296	20.788494
1476.388396	-2.975000	3.494700	-10.396000	25.851346	0.000293	20.798246
1477.390995	-3.005800	3.493500	-10.501000	25.859346	0.000295	20.784945
1478.394273	-3.000900	3.492200	-10.479000	25.860638	0.000296	20.791933
1479.389213	-3.019000	3.492500	-10.543000	25.896189	0.000294	20.780706
1480.390815	-3.018500	3.489900	-10.533000	25.916157	0.000295	20.769471
1481.393821	-3.002200	3.492100	-10.483000	25.906573	0.000294	20.782128
1482.389285	-2.991700	3.492700	-10.448000	25.911860	0.000293	20.775112
1483.392828	-3.013100	3.491300	-10.519000	25.896806	0.000293	20.779903
1484.396152	-3.019700	3.489200	-10.535000	25.901924	0.000291	20.780303
1485.390001	-3.024000	3.488400	-10.548000	25.889307	0.000290	20.775214
1486.392114	-3.001200	3.489500	-10.471000	25.907341	0.000289	20.786219
1487.393612	-3.003700	3.489600	-10.481000	25.891839	0.000289	20.775387
1488.392327	-3.019300	3.489500	-10.534000	25.874724	0.000291	20.775264
1489.389630	-2.994900	3.489700	-10.449000	25.804771	0.000288	20.790341
1490.401371	-2.976200	3.489000	-10.383000	25.820866	0.000287	20.765731
1491.396464	-2.985700	3.488300	-10.415000	25.796796	0.000290	20.763837
1492.398038	-3.000800	3.488200	-10.467000	25.824226	0.000288	20.773373
1493.400806	-3.003200	3.487800	-10.473000	25.842884	0.000288	20.773624
1494.391150	-2.981300	3.488600	-10.399000	25.864273	0.000288	20.771402
1495.394095	-2.989400	3.487000	-10.422000	25.868996	0.000287	20.772828
1496.396239	-3.012100	3.486900	-10.502000	25.897340	0.000286	20.781388
1497.391179	-3.024900	3.485400	-10.542000	25.939445	0.000287	20.771055
1498.399455	-2.996200	3.487000	-10.446000	25.903279	0.000288	20.751317
1499.396154	-3.000300	3.485600	-10.457000	25.898615	0.000287	20.754692
1500.390862	-3.024300	3.484600	-10.538000	25.874043	0.000287	20.754190
1501.395245	-2.993500	3.485300	-10.432000	25.871063	0.000289	20.767792
1502.401809	-2.979200	3.485400	-10.383000	25.921344	0.000288	20.758086
1503.397058	-2.986500	3.484600	-10.405000	25.951497	0.000288	20.747601
1504.397745	-2.984900	3.483600	-10.396000	25.943128	0.000287	20.769066
1505.398646	-3.012100	3.482800	-10.490000	25.909224	0.000286	20.745909
1506.396871	-3.006500	3.483300	-10.471000	25.909967	0.000287	20.753295
1507.401218	-3.009200	3.481500	-10.476000	25.917842	0.000284	20.766423
1508.398051	-2.994600	3.482100	-10.426000	25.890412	0.000285	20.756409
1509.393163	-3.012200	3.482400	-10.488000	25.912398	0.000286	20.738192
1510.402068	-2.986600	3.483500	-10.403000	25.902588	0.000287	20.759632
1511.406086	-3.033200	3.481500	-10.559000	25.931224	0.000282	20.764219
1512.398025	-3.024600	3.479600	-10.524000	25.921390	0.000286	20.751494
1513.403625	-2.975600	3.481800	-10.360000	25.952293	0.000285	20.751246
1514.404206	-2.997500	3.480500	-10.432000	25.969404	0.000284	20.746625
1515.400868	-2.987300	3.481100	-10.398000	25.904642	0.000285	20.761696
1516.401660	-3.019200	3.479000	-10.502000	25.925363	0.000283	20.773978
1517.401846	-3.009000	3.479100	-10.468000	25.945404	0.000283	20.751438
1518.396372	-2.985500	3.479000	-10.386000	25.980382	0.000282	20.772828
1519.404374	-3.003700	3.478300	-10.447000	25.963286	0.000284	20.762765
1520.405416	-3.014100	3.476900	-10.478000	25.940262	0.000285	20.765238
1521.401794	-3.025500	3.477000	-10.519000	25.944855	0.000281	20.776491
1522.404039	-3.032600	3.476900	-10.542000	25.936603	0.000282	20.768201
1523.402706	-3.015100	3.476200	-10.480000	25.951978	0.000283	20.764680
1524.405471	-2.968100	3.477500	-10.321000	25.975227	0.000283	20.745363
1525.404922	-2.976700	3.477200	-10.349000	25.928947	0.000279	20.749602
1526.408803	-3.019500	3.475900	-10.493000	25.942955	0.000281	20.738070
1527.400403	-3.006700	3.475800	-10.450000	25.935301	0.000284	20.765944
1528.406833	-3.005600	3.475200	-10.443000	25.912995	0.000280	20.755388
1529.410455	-3.020000	3.474500	-10.492000	25.950324	0.000281	20.753061
1530.405403	-2.990500	3.475400	-10.393000	25.993046	0.000281	20.729600
1531.403255	-3.000000	3.474300	-10.421000	26.006905	0.000281	20.751111
1532.409065	-3.003300	3.473700	-10.432000	25.969523	0.000278	20.739158
1533.405851	-3.014600	3.474400	-10.473000	25.877012	0.000281	20.771398
1534.404147	-2.995300	3.474000	-10.405000	25.829608	0.000279	20.750330
1535.408824	-3.005500	3.474300	-10.441000	25.834032	0.000279	20.750033
1536.405812	-2.992700	3.474500	-10.397000	25.796785	0.000279	20.757663
1537.406432	-2.996700	3.472900	-10.406000	25.873076	0.000279	20.752744
1538.407929	-2.999000	3.472800	-10.413000	25.896055	0.000276	20.751173
1539.407043	-3.005700	3.473100	-10.438000	25.889691	0.000276	20.745727
1540.403638	-3.009900	3.470800	-10.446000	25.855408	0.000274	20.734995
1541.409444	-3.008300	3.471500	-10.442000	25.828155	0.000275	20.732274
1542.409314	-2.992600	3.471500	-10.388000	25.847057	0.000274	20.756478
1543.414600	-3.021700	3.470800	-10.486000	25.815083	0.000274	20.731945
1544.409380	-2.965000	3.471500	-10.292000	25.754514	0.000274	20.736538
1545.414021	-2.994100	3.472200	-10.395000	25.783158	0.000274	20.754879
1546.410166	-3.016000	3.470200	-10.464000	25.790411	0.000273	20.754104
1547.411554	-3.003600	3.469300	-10.419000	25.794536	0.000274	20.748290
1548.415020	-3.000900	3.469900	-10.412000	25.824844	0.000275	20.754080
1549.412482	-3.001000	3.470600	-10.415000	25.836666	0.000274	20.756472
1550.410697	-2.998100	3.469200	-10.400000	25.826479	0.000274	20.740074
1551.415001	-2.987700	3.469500	-10.365000	25.846103	0.000273	20.741770
1552.414218	-2.987100	3.469400	-10.362000	25.888389	0.000275	20.742997
1553.410769	-3.011100	3.467200	-10.439000	25.915958	0.000272	20.764056
1554.415646	-3.008700	3.467800	-10.433000	25.880982	0.000273	20.745513
1555.412539	-3.003400	3.466800	-10.411000	25.841207	0.000272	20.741593
1556.414235	-3.019900	3.465800	-10.465000	25.866076	0.000272	20.736702
1557.414262	-3.013500	3.466100	-10.443000	25.865776	0.000269	20.747782
1558.418689	-3.024200	3.464900	-10.477000	25.900429	0.000270	20.749403
1559.414813	-2.993400	3.465700	-10.373000	25.943400	0.000271	20.731880
1560.415842	-2.997100	3.464800	-10.382000	25.999066	0.000272	20.747977
1561.415079	-3.011800	3.465400	-10.437000	26.023755	0.000272	20.736271
1562.416182	-3.003600	3.463500	-10.402000	26.018237	0.000271	20.752065
1563.414643	-3.010500	3.464400	-10.428000	26.004723	0.000269	20.742281
1564.412850	-2.982400	3.463600	-10.329000	26.027225	0.000268	20.743551
1565.422195	-2.987500	3.465100	-10.351000	26.056262	0.000268	20.743802
1566.415232	-2.988300	3.464500	-10.352000	26.048508	0.000270	20.733166
1567.416924	-3.009500	3.461900	-10.417000	26.052135	0.000268	20.733491
1568.417148	-3.017000	3.462200	-10.444000	26.058267	0.000270	20.747713
1569.421326	-2.977800	3.462400	-10.310000	26.020461	0.000268	20.736281
1570.417398	-2.982200	3.463800	-10.329000	26.022570	0.000266	20.738875
1571.416924	-2.995500	3.461600	-10.368000	26.034242	0.000268	20.761508
1572.419558	-2.970000	3.462000	-10.281000	25.999122	0.000264	20.766525
1573.415558	-2.977500	3.462300	-10.307000	25.974975	0.000267	20.748429
1574.426596	-3.009800	3.460800	-10.415000	25.972764	0.000265	20.756165
1575.417946	-2.998300	3.461500	-10.377000	25.987912	0.000265	20.749573
1576.419282	-3.009500	3.460000	-10.412000	25.980858	0.000265	20.733002
1577.420651	-3.015500	3.459600	-10.432000	25.920471	0.000262	20.745355
1578.420069	-3.024500	3.459600	-10.463000	25.901536	0.000263	20.734867
1579.423363	-3.024300	3.458800	-10.460000	25.893988	0.000261	20.754312
1580.421690	-3.035200	3.457600	-10.494000	25.923099	0.000261	20.751315
1581.420695	-3.014400	3.457700	-10.422000	25.923991	0.000261	20.762642
1582.427132	-3.011200	3.456800	-10.408000	25.878906	0.000261	20.743901
1583.420387	-2.999700	3.458200	-10.373000	25.861417	0.000262	20.757153
1584.418878	-2.988700	3.456600	-10.330000	25.884792	0.000262	20.761195
1585.420444	-2.972400	3.457700	-10.276000	25.864767	0.000259	20.760993
1586.423977	-2.983600	3.458600	-10.317000	25.850132	0.000259	20.759568
1587.418611	-2.989100	3.457400	-10.333000	25.884394	0.000261	20.739457
1588.421459	-3.013500	3.455500	-10.412000	25.857289	0.000257	20.754429
1589.422815	-3.023700	3.454500	-10.444000	25.855923	0.000258	20.754953
1590.422516	-2.991500	3.456500	-10.339000	25.852418	0.000259	20.755226
1591.423162	-2.996200	3.455700	-10.353000	25.863546	0.000258	20.768301
1592.425666	-3.006900	3.453900	-10.384000	25.842580	0.000257	20.736333
1593.426397	-2.999600	3.454800	-10.362000	25.820543	0.000259	20.752604
1594.420235	-2.992700	3.454100	-10.336000	25.836546	0.000257	20.762989
1595.432140	-2.992000	3.454500	-10.335000	25.873559	0.000256	20.757972
1596.429323	-3.022800	3.452900	-10.437000	25.919737	0.000255	20.777809
1597.425735	-3.009500	3.453700	-10.393000	25.957195	0.000255	20.768974
1598.422193	-2.987600	3.454200	-10.319000	25.965496	0.000255	20.752182
1599.424665	-3.004600	3.452600	-10.373000	26.009757	0.000254	20.755399
1600.426685	-3.002000	3.453000	-10.365000	26.013234	0.000251	20.785445
1601.426126	-3.011400	3.451100	-10.392000	26.014079	0.000254	20.779656
1602.428183	-3.006300	3.451100	-10.375000	26.018675	0.000254	20.752031
1603.422366	-3.012100	3.452600	-10.398000	26.052829	0.000253	20.772596
1604.426521	-2.996000	3.451600	-10.340000	26.025828	0.000252	20.774391
1605.429770	-2.976200	3.452000	-10.273000	25.975006	0.000252	20.754150
1606.429667	-3.004500	3.451000	-10.368000	25.969192	0.000252	20.751154
1607.428304	-3.002800	3.450000	-10.359000	26.033999	0.000250	20.747512
1608.429035	-3.015700	3.449300	-10.401000	26.073837	0.000251	20.777583
1609.438103	-2.988700	3.450400	-10.311000	26.064402	0.000249	20.756723
1610.426627	-3.008600	3.449800	-10.378000	26.115666	0.000250	20.761291
1611.426939	-2.992300	3.448400	-10.318000	26.075703	0.000248	20.773294
1612.428076	-3.004100	3.449300	-10.361000	26.056108	0.000249	20.769727
1613.425205	-2.987200	3.450500	-10.306000	26.057502	0.000251	20.756428
1614.428458	-2.975100	3.450300	-10.264000	25.954792	0.000248	20.770353
1615.430796	-3.035700	3.447200	-10.463000	25.934353	0.000248	20.779216
1616.430118	-3.003100	3.446400	-10.349000	25.924889	0.000248	20.764018
1617.428903	-2.994000	3.447500	-10.321000	25.945109	0.000249	20.753986
1618.428823	-3.012700	3.445400	-10.379000	25.954925	0.000249	20.765270
1619.428977	-3.013200	3.447900	-10.389000	25.915850	0.000250	20.780542
1620.428040	-3.002300	3.446300	-10.346000	25.963642	0.000248	20.762648
1621.429210	-3.036200	3.444900	-10.457000	25.943968	0.000247	20.767539
1622.430867	-3.016900	3.444700	-10.392000	25.965530	0.000247	20.767864
1623.425788	-2.978900	3.445000	-10.261000	26.013150	0.000248	20.785362
1624.428498	-3.012000	3.443600	-10.372000	25.980558	0.000249	20.774428
1625.444089	-3.011900	3.445200	-10.376000	25.964438	0.000246	20.757758
1626.428421	-2.978300	3.445500	-10.260000	25.958728	0.000248	20.789954
1627.429593	-3.001000	3.444300	-10.336000	25.975518	0.000246	20.779796
1628.435083	-3.005700	3.443700	-10.350000	25.979988	0.000248	20.772432
1629.428782	-2.998300	3.443500	-10.324000	26.028326	0.000248	20.764099
1630.430012	-2.989400	3.443000	-10.291000	26.044097	0.000246	20.787531
1631.430539	-3.022300	3.442100	-10.402000	26.033638	0.000247	20.781764
1632.433896	-3.003800	3.441700	-10.336000	26.008875	0.000247	20.770635
1633.438677	-3.001600	3.441700	-10.330000	26.011506	0.000247	20.778494
1634.433331	-3.003200	3.441700	-10.336000	25.981700	0.000245	20.778420
1635.432319	-3.004600	3.441600	-10.340000	25.977033	0.000245	20.778946
1636.435695	-3.018900	3.440500	-10.385000	25.965925	0.000244	20.760674
1637.437947	-3.002700	3.439800	-10.328000	25.990667	0.000243	20.789325
1638.434189	-3.002500	3.440800	-10.330000	25.992231	0.000245	20.782836
1639.432798	-3.002800	3.440500	-10.330000	25.973997	0.000243	20.806717
1640.431130	-2.992700	3.440400	-10.296000	25.916766	0.000243	20.778144
1641.431882	-2.999700	3.438300	-10.313000	25.948860	0.000245	20.764393
1642.432312	-3.002400	3.439000	-10.324000	25.961079	0.000244	20.783781
1643.430315	-2.987200	3.439600	-10.273000	25.970540	0.000243	20.789967
1644.431213	-3.005000	3.437600	-10.329000	25.989368	0.000244	20.785176
1645.434074	-3.003700	3.437700	-10.325000	26.002407	0.000242	20.784051
1646.443765	-3.037200	3.436300	-10.436000	26.020566	0.000243	20.792338
1647.437190	-3.022000	3.437200	-10.385000	25.983726	0.000243	20.782352
1648.435033	-3.020600	3.436600	-10.380000	26.037351	0.000241	20.783124
1649.436187	-2.999900	3.436700	-10.309000	26.044159	0.000243	20.815094
1650.437751	-2.989300	3.437000	-10.274000	25.989313	0.000241	20.788439
1651.435755	-2.984200	3.436700	-10.254000	25.996142	0.000241	20.806680
1652.436483	-2.976900	3.435400	-10.226000	26.003866	0.000240	20.798793
1653.440526	-3.011800	3.435700	-10.347000	26.001306	0.000241	20.784367
1654.440886	-2.985400	3.435900	-10.256000	26.013376	0.000241	20.774208
1655.448599	-2.999700	3.435100	-10.304000	26.011340	0.000240	20.801086
1656.442215	-3.006000	3.434900	-10.324000	26.055349	0.000240	20.787457
1657.442942	-2.993100	3.434200	-10.278000	26.023755	0.000240	20.790326
1658.443722	-3.019100	3.432300	-10.361000	25.995238	0.000238	20.795341
1659.443709	-3.000200	3.434400	-10.303000	26.002216	0.000238	20.792393
1660.444628	-2.985600	3.433600	-10.249000	26.032790	0.000239	20.799878
1661.444246	-2.981700	3.432900	-10.236000	26.032392	0.000238	20.813228
1662.441774	-2.992100	3.434400	-10.275000	26.064103	0.000239	20.813796
1663.441995	-2.984600	3.432400	-10.243000	26.069448	0.000238	20.811105
1664.447729	-2.972600	3.432600	-10.202000	26.043215	0.000236	20.779532
1665.445179	-3.018800	3.431000	-10.356000	26.066410	0.000236	20.799044
1666.446945	-2.989500	3.430000	-10.253000	26.088417	0.000234	20.812147
1667.448974	-3.008800	3.430300	-10.320000	26.085959	0.000236	20.806832
1668.446703	-3.047600	3.428000	-10.447000	26.108385	0.000235	20.817511
1669.447615	-3.006000	3.429300	-10.307000	26.068896	0.000233	20.813870
1670.446254	-2.997700	3.429600	-10.279000	26.095594	0.000233	20.818410
1671.449955	-2.997800	3.428100	-10.276000	26.060898	0.000232	20.793032
1672.444482	-3.019100	3.427300	-10.346000	26.076172	0.000233	20.811223
1673.454016	-3.015000	3.429200	-10.338000	26.070241	0.000232	20.810005
1674.449362	-3.022100	3.426400	-10.354000	26.093411	0.000231	20.814319
1675.449042	-3.021500	3.427700	-10.355000	26.088843	0.000235	20.812574
1676.453148	-3.018100	3.427300	-10.342000	26.052160	0.000230	20.838305
1677.449541	-2.990300	3.427500	-10.249000	26.032043	0.000230	20.832792
1678.451466	-3.006400	3.426600	-10.301000	26.000846	0.000227	20.815673
1679.453771	-2.979900	3.427300	-10.212000	25.994560	0.000228	20.812677
1680.450607	-2.989400	3.427000	-10.244000	26.008200	0.000228	20.795087
1681.450144	-2.969200	3.427200	-10.175000	26.044838	0.000229	20.806293
1682.452984	-3.012200	3.424900	-10.315000	26.037984	0.000227	20.809364
1683.451250	-2.999400	3.425400	-10.273000	26.068683	0.000228	20.815078
1684.451503	-3.011100	3.425800	-10.315000	26.085376	0.000229	20.810039
1685.459963	-2.983300	3.424800	-10.216000	26.074398	0.000229	20.800432
1686.450688	-3.006200	3.424500	-10.294000	26.058727	0.000229	20.823092
1687.454294	-3.011700	3.424400	-10.311000	26.068739	0.000229	20.799487
1688.454440	-2.990900	3.424300	-10.241000	26.074380	0.000227	20.807052
1689.449686	-3.009600	3.423700	-10.302000	26.105624	0.000228	20.809048
1690.452038	-3.016100	3.422400	-10.322000	26.069337	0.000226	20.816209
1691.466151	-3.007800	3.421800	-10.291000	26.041275	0.000227	20.816938
1692.452609	-2.996200	3.423400	-10.256000	26.014520	0.000229	20.825144
1693.455283	-2.980700	3.424300	-10.206000	26.040902	0.000228	20.808976
1694.455916	-2.996200	3.421100	-10.248000	26.086603	0.000226	20.814118
1695.452534	-2.988500	3.421000	-10.223000	26.126295	0.000225	20.817015
1696.459385	-3.012100	3.421600	-10.305000	26.091797	0.000226	20.814595
1697.458254	-2.993900	3.421000	-10.241000	26.123784	0.000223	20.816389
1698.455610	-2.999600	3.420400	-10.259000	26.098203	0.000225	20.823876
1699.453862	-2.984900	3.419900	-10.207000	26.103095	0.000225	20.822153
1700.458488	-3.017900	3.418700	-10.316000	26.071724	0.000225	20.837099
1701.452991	-3.013200	3.417600	-10.297000	26.051435	0.000223	20.822878
1702.455321	-2.995400	3.420900	-10.245000	26.012589	0.000223	20.814195
1703.455988	-3.009400	3.418600	-10.287000	25.969963	0.000223	20.824474
1704.452504	-3.002600	3.418300	-10.262000	25.934417	0.000224	20.826696
1705.452534	-2.994400	3.417400	-10.233000	25.920681	0.000223	20.821905
1706.458026	-2.989100	3.419400	-10.219000	25.954508	0.000223	20.836923
1707.457598	-2.996600	3.416100	-10.236000	25.934985	0.000223	20.816361
1708.457351	-2.991900	3.418800	-10.228000	26.011716	0.000222	20.814266
1709.459116	-2.998100	3.417700	-10.246000	26.047135	0.000221	20.836576
1710.467066	-3.014400	3.416300	-10.297000	26.044945	0.000219	20.827263
1711.464437	-2.968100	3.417300	-10.142000	26.032182	0.000220	20.830561
1712.460599	-2.988800	3.415900	-10.209000	26.048397	0.000220	20.828360
1713.461907	-2.989100	3.416900	-10.213000	26.033471	0.000220	20.818580
1714.461015	-2.982600	3.415600	-10.186000	26.044618	0.000220	20.815556
1715.462725	-2.973700	3.415300	-10.155000	26.083491	0.000217	20.831853
1716.460718	-2.992300	3.416000	-10.220000	26.128744	0.000220	20.849821
1717.460059	-3.027200	3.413900	-10.333000	26.097398	0.000220	20.831128
1718.463183	-3.001600	3.413800	-10.246000	26.068982	0.000218	20.842405
1719.463242	-3.007900	3.413000	-10.265000	26.085845	0.000218	20.847019
1720.461241	-3.018200	3.414200	-10.304000	26.084407	0.000218	20.839411
1721.462373	-2.996600	3.413300	-10.227000	26.062422	0.000217	20.843400
1722.466300	-3.004300	3.412800	-10.252000	26.074568	0.000214	20.857500
1723.462032	-2.977000	3.412700	-10.159000	26.013440	0.000217	20.840654
1724.464201	-2.978000	3.412700	-10.162000	25.986787	0.000217	20.829997
1725.463847	-3.000100	3.411500	-10.233000	26.013885	0.000216	20.840152
1726.464232	-2.993400	3.412000	-10.211000	26.028388	0.000216	20.831491
1727.464706	-3.008700	3.412000	-10.265000	25.996546	0.000215	20.824155
1728.465808	-3.015900	3.409500	-10.282000	25.987154	0.000216	20.842219
1729.465668	-3.018100	3.409600	-10.289000	26.038795	0.000215	20.846688
1730.466990	-3.005300	3.409000	-10.244000	26.042219	0.000218	20.845860
1731.465731	-2.994900	3.410400	-10.213000	26.001806	0.000215	20.844612
1732.465674	-2.979800	3.409500	-10.159000	26.043339	0.000216	20.848408
1733.466987	-3.015700	3.409400	-10.281000	26.051605	0.000214	20.856239
1734.467357	-3.013500	3.408800	-10.272000	26.105452	0.000215	20.838745
1735.462422	-2.996000	3.409500	-10.214000	26.155074	0.000214	20.843087
1736.468771	-3.002000	3.407600	-10.229000	26.190636	0.000215	20.825243
1737.470094	-2.990900	3.409200	-10.195000	26.213060	0.000214	20.848250
1738.467439	-3.001200	3.409000	-10.230000	26.210426	0.000215	20.862198
1739.468720	-2.965200	3.407900	-10.103000	26.250434	0.000213	20.872529
1740.467144	-2.999500	3.407000	-10.218000	26.200835	0.000211	20.860147
1741.466730	-2.992300	3.406900	-10.193000	26.138228	0.000211	20.829954
1742.464748	-2.996800	3.406400	-10.207000	26.102389	0.000214	20.867435
1743.468948	-3.025500	3.405700	-10.303000	26.124639	0.000213	20.862765
1744.468788	-2.991200	3.405900	-10.187000	26.167830	0.000212	20.851637
1745.471510	-2.998600	3.406100	-10.213000	26.173887	0.000212	20.853456
1746.471516	-2.991000	3.405300	-10.184000	26.173289	0.000212	20.850484
1747.470939	-2.988800	3.404500	-10.175000	26.187371	0.000213	20.864160
1748.473315	-3.028000	3.404500	-10.308000	26.184462	0.000212	20.870720
1749.470969	-3.011500	3.403300	-10.248000	26.144924	0.000210	20.858018
1750.471646	-2.998000	3.404200	-10.205000	26.136254	0.000212	20.897193
1751.471032	-2.978700	3.403200	-10.136000	26.163546	0.000208	20.873410
1752.476361	-3.008000	3.402400	-10.233000	26.182371	0.000209	20.869093
1753.472948	-2.996200	3.402500	-10.194000	26.146583	0.000208	20.867745
1754.474412	-3.004200	3.402500	-10.220000	26.132575	0.000206	20.861256
1755.476178	-3.019800	3.402400	-10.273000	26.133019	0.000208	20.897736
1756.473727	-2.986900	3.403000	-10.163000	26.094972	0.000207	20.873258
1757.473258	-3.013000	3.400600	-10.246000	26.073881	0.000205	20.886205
1758.471846	-2.989000	3.400900	-10.165000	26.033546	0.000206	20.877922
1759.471558	-3.019900	3.399500	-10.265000	26.051902	0.000205	20.857485
1760.476910	-3.026500	3.399700	-10.289000	26.101523	0.000207	20.872254
1761.475232	-3.005500	3.400500	-10.219000	26.142877	0.000207	20.873029
1762.478793	-2.992500	3.400200	-10.174000	26.155642	0.000207	20.874002
1763.475510	-2.998800	3.399700	-10.193000	26.182440	0.000207	20.872006
1764.478254	-3.003400	3.400100	-10.211000	26.161699	0.000206	20.872502
1765.476902	-3.008200	3.399900	-10.226000	26.134679	0.000205	20.876646
1766.472344	-2.970400	3.399300	-10.096000	26.141535	0.000205	20.903447
1767.473964	-3.002800	3.397700	-10.201000	26.167112	0.000206	20.880312
1768.475552	-3.016000	3.398300	-10.247000	26.186458	0.000204	20.891216
1769.475284	-3.007800	3.397000	-10.217000	26.181391	0.000204	20.879013
1770.478918	-3.003900	3.398800	-10.209000	26.228626	0.000203	20.875744
1771.477303	-3.003900	3.396900	-10.203000	26.254277	0.000202	20.875443
1772.478736	-2.981700	3.398300	-10.133000	26.229915	0.000203	20.876565
1773.477002	-3.002000	3.396900	-10.196000	26.208731	0.000202	20.897950
1774.478827	-3.018200	3.396000	-10.249000	26.182875	0.000204	20.873392
1775.480078	-3.010100	3.395000	-10.218000	26.191467	0.000203	20.871121
1776.479870	-2.978500	3.396900	-10.116000	26.147957	0.000200	20.882400
1777.481387	-3.005300	3.394200	-10.200000	26.174304	0.000202	20.888487
1778.476990	-3.005100	3.393600	-10.198000	26.172444	0.000201	20.879980
1779.479812	-2.999700	3.393600	-10.179000	26.169983	0.000200	20.888886
1780.479960	-2.983300	3.395100	-10.127000	26.219427	0.000201	20.882146
1781.481931	-3.006100	3.393600	-10.201000	26.262836	0.000201	20.901585
1782.481767	-2.995100	3.392900	-10.161000	26.268075	0.000201	20.902109
1783.480641	-3.012400	3.393100	-10.220000	26.235145	0.000200	20.902682
1784.488621	-3.001000	3.393100	-10.182000	26.269068	0.000199	20.888883
1785.482872	-3.017200	3.392400	-10.235000	26.264769	0.000197	20.907795
1786.486062	-2.991400	3.392800	-10.149000	26.262907	0.000198	20.898338
1787.484332	-2.997300	3.392300	-10.166000	26.275821	0.000196	20.897566
1788.490036	-2.995500	3.391300	-10.158000	26.323496	0.000196	20.893321
1789.485853	-2.997100	3.392000	-10.164000	26.291163	0.000198	20.899708
1790.488630	-3.005800	3.391500	-10.194000	26.272093	0.000196	20.897613
1791.485999	-2.999200	3.389900	-10.166000	26.291833	0.000197	20.901328
1792.486242	-2.994600	3.390800	-10.153000	26.255132	0.000194	20.902379
1793.488643	-3.020400	3.389100	-10.236000	26.202829	0.000195	20.904347
1794.482994	-2.990500	3.391200	-10.140000	26.218101	0.000196	20.893616
1795.487196	-3.008100	3.389100	-10.194000	26.289970	0.000193	20.896612
1796.484574	-3.011500	3.390200	-10.208000	26.331165	0.000193	20.919992
1797.488259	-3.019400	3.387500	-10.227000	26.346710	0.000189	20.904796
1798.494790	-3.012500	3.388200	-10.206000	26.358406	0.000194	20.907067
1799.488283	-3.004500	3.387100	-10.176000	26.369901	0.000192	20.912456
1800.486986	-3.015500	3.387400	-10.214000	26.409332	0.000191	20.910361
1801.488629	-2.988400	3.388700	-10.126000	26.368214	0.000191	20.917398
1802.491294	-3.017800	3.388600	-10.225000	26.355575	0.000191	20.907541
1803.493595	-3.005900	3.386000	-10.177000	26.340481	0.000191	20.909441
1804.490622	-3.011200	3.386100	-10.195000	26.308078	0.000192	20.893473
1805.484804	-3.017800	3.386400	-10.218000	26.316194	0.000192	20.928653
1806.493544	-2.997200	3.386600	-10.149000	26.301398	0.000192	20.935120
1807.493244	-2.984400	3.387500	-10.109000	26.324665	0.000192	20.919149
1808.490870	-3.008600	3.384900	-10.183000	26.318284	0.000191	20.917005
1809.493819	-3.037100	3.384300	-10.277000	26.282997	0.000192	20.900510
1810.491065	-2.998700	3.385500	-10.151000	26.283793	0.000188	20.903680
1811.488655	-3.008800	3.384100	-10.181000	26.264994	0.000191	20.930778
1812.493188	-3.010100	3.385100	-10.188000	26.291913	0.000192	20.918477
1813.490525	-3.012000	3.384000	-10.192000	26.273364	0.000188	20.918328
1814.488513	-2.986500	3.384400	-10.106000	26.247611	0.000192	20.925638
1815.499269	-3.014000	3.383600	-10.196000	26.275054	0.000191	20.911492
1816.491742	-2.988900	3.384300	-10.114000	26.268346	0.000189	20.923716
1817.497750	-3.014700	3.382200	-10.195000	26.227473	0.000188	20.923893
1818.501247	-3.016900	3.381800	-10.201000	26.180858	0.000190	20.907873
1819.494781	-2.985700	3.381600	-10.096000	26.212395	0.000188	20.905899
1820.496055	-3.002700	3.380900	-10.150000	26.196106	0.000188	20.919874
1821.499886	-3.009100	3.382100	-10.177000	26.203430	0.000186	20.916329
1822.499662	-3.002700	3.380900	-10.151000	26.225160	0.000188	20.920147
1823.500547	-2.995900	3.382600	-10.132000	26.307011	0.000188	20.927010
1824.498352	-3.013800	3.380800	-10.188000	26.261414	0.000189	20.902053
1825.496646	-3.019700	3.380300	-10.206000	26.246488	0.000187	20.916924
1826.500218	-3.006400	3.380200	-10.161000	26.274548	0.000187	20.929000
1827.502051	-3.017100	3.378200	-10.191000	26.306755	0.000188	20.907315
1828.499231	-2.982400	3.377900	-10.073000	26.264535	0.000187	20.917516
1829.501019	-2.982900	3.380200	-10.082000	26.274746	0.000186	20.917820
1830.501382	-3.005500	3.379500	-10.157000	26.292647	0.000186	20.910681
1831.501525	-2.986200	3.379000	-10.089000	26.330065	0.000186	20.905611
1832.504811	-2.975100	3.378100	-10.049000	26.312485	0.000187	20.908806
1833.506406	-2.983900	3.377800	-10.078000	26.310795	0.000183	20.908530
1834.499956	-2.983500	3.377100	-10.074000	26.348363	0.000183	20.911673
1835.510814	-3.004300	3.377300	-10.146000	26.323577	0.000182	20.919953
1836.506625	-2.988100	3.378000	-10.092000	26.347096	0.000181	20.896650
1837.501898	-2.996000	3.376000	-10.114000	26.353448	0.000184	20.912042
1838.509994	-2.998700	3.376000	-10.122000	26.338820	0.000183	20.908246
1839.507767	-2.998500	3.376400	-10.123000	26.364176	0.000182	20.894850
1840.508087	-2.983600	3.374900	-10.069000	26.378055	0.000181	20.905004
1841.509076	-2.994300	3.375800	-10.108000	26.396802	0.000181	20.884019
1842.512489	-2.998800	3.375400	-10.121000	26.383096	0.000180	20.897744
1843.503247	-2.984100	3.373700	-10.067000	26.383346	0.000180	20.876660
1844.508870	-2.996800	3.374100	-10.111000	26.364968	0.000179	20.899439
1845.507207	-3.007300	3.373000	-10.142000	26.325464	0.000177	20.889135
1846.503966	-2.964100	3.373700	-9.999300	26.296114	0.000179	20.892355
1847.507382	-2.983900	3.373900	-10.066000	26.312177	0.000179	20.897592
1848.512563	-3.006200	3.372000	-10.135000	26.345354	0.000180	20.889684
1849.505990	-3.003100	3.372100	-10.126000	26.377731	0.000178	20.885715
1850.510509	-2.984700	3.372600	-10.065000	26.397749	0.000178	20.902039
1851.512446	-3.018300	3.372000	-10.176000	26.362535	0.000178	20.901261
1852.504833	-3.008600	3.371300	-10.141000	26.355434	0.000180	20.884642
1853.509487	-3.009500	3.372200	-10.147000	26.380290	0.000177	20.883545
1854.508885	-2.994400	3.371000	-10.093000	26.391613	0.000177	20.883545
1855.508896	-2.985900	3.372600	-10.070000	26.395461	0.000175	20.893102
1856.509735	-3.000200	3.369900	-10.110000	26.404625	0.000177	20.880028
1857.511234	-2.992700	3.370800	-10.086000	26.410804	0.000178	20.868696
1858.524729	-2.995200	3.370500	-10.095000	26.383491	0.000178	20.888184
1859.515018	-2.986600	3.369200	-10.061000	26.341950	0.000175	20.864453
1860.512933	-2.977300	3.370300	-10.033000	26.356498	0.000176	20.896142
1861.504705	-3.004500	3.368900	-10.120000	26.381650	0.000177	20.873059
1862.509942	-3.002000	3.368400	-10.110000	26.377130	0.000173	20.852870
1863.512681	-2.999100	3.369100	-10.103000	26.434136	0.000174	20.875551
1864.509197	-3.003500	3.367600	-10.114000	26.448788	0.000174	20.872734
1865.509589	-2.988000	3.368600	-10.064000	26.455217	0.000173	20.872557
1866.514177	-3.014100	3.367400	-10.149000	26.419910	0.000173	20.871683
1867.507787	-2.986700	3.367400	-10.057000	26.358752	0.000171	20.862375
1868.508999	-2.989600	3.366300	-10.063000	26.383087	0.000170	20.852219
1869.512619	-3.002200	3.365800	-10.104000	26.431978	0.000171	20.867218
1870.506279	-2.979800	3.366500	-10.030000	26.472622	0.000171	20.855439
1871.508689	-2.997200	3.365000	-10.085000	26.524163	0.000170	20.859830
1872.509947	-2.985000	3.365300	-10.045000	26.523543	0.000171	20.878172
1873.511781	-2.984400	3.365800	-10.044000	26.503161	0.000171	20.870013
1874.511655	-2.993300	3.363900	-10.068000	26.490421	0.000169	20.855786
1875.518048	-3.002000	3.364600	-10.099000	26.487196	0.000170	20.886208
1876.517462	-3.001800	3.363300	-10.095000	26.490199	0.000167	20.879744
1877.514735	-2.994400	3.362700	-10.067000	26.458470	0.000169	20.867766
1878.516989	-2.986700	3.363400	-10.045000	26.488935	0.000169	20.860456
1879.509893	-3.005500	3.362500	-10.105000	26.498761	0.000166	20.857531
1880.511094	-3.007500	3.363400	-10.115000	26.534115	0.000170	20.854662
1881.516548	-3.018600	3.360700	-10.144000	26.509586	0.000168	20.854662
1882.515095	-3.008800	3.362600	-10.116000	26.524336	0.000168	20.860952
1883.511940	-2.966800	3.362500	-9.974500	26.479544	0.000167	20.868560
1884.515503	-3.017900	3.360500	-10.141000	26.471475	0.000169	20.848597
1885.514370	-3.014000	3.361100	-10.129000	26.486743	0.000167	20.877218
1886.512634	-3.006000	3.360100	-10.100000	26.451338	0.000166	20.864866
1887.516038	-3.005000	3.359700	-10.095000	26.456500	0.000166	20.849666
1888.509902	-3.014900	3.358400	-10.125000	26.412232	0.000164	20.865390
1889.511490	-3.002000	3.359800	-10.085000	26.407515	0.000164	20.868235
1890.529895	-3.007300	3.358700	-10.099000	26.454141	0.000167	20.855356
1891.515721	-3.028400	3.357500	-10.167000	26.507447	0.000166	20.855356
1892.517414	-2.996800	3.358900	-10.065000	26.549651	0.000165	20.849416
1893.524329	-3.001500	3.358300	-10.078000	26.565365	0.000164	20.833918
1894.513330	-2.981800	3.358400	-10.013000	26.591656	0.000165	20.854182
1895.518801	-2.977200	3.360000	-10.002000	26.571796	0.000164	20.837063
1896.520107	-3.008700	3.357300	-10.101000	26.551710	0.000163	20.840581
1897.515541	-2.994500	3.356000	-10.049000	26.497242	0.000162	20.845099
1898.520503	-2.985200	3.356700	-10.019000	26.453244	0.000161	20.847817
1899.520436	-2.970400	3.357500	-9.972600	26.479736	0.000163	20.845520
1900.517028	-2.991000	3.356500	-10.039000	26.525693	0.000161	20.852834
1901.519142	-2.994400	3.356200	-10.048000	26.567745	0.000160	20.851483
1902.519892	-3.002200	3.356700	-10.076000	26.527876	0.000160	20.839856
1903.518125	-2.986900	3.355400	-10.021000	26.510866	0.000160	20.847888
1904.521563	-2.991100	3.356100	-10.037000	26.437899	0.000162	20.830971
1905.521225	-3.006500	3.355400	-10.086000	26.437699	0.000161	20.861114
1906.521086	-3.037600	3.352800	-10.183000	26.430897	0.000159	20.866131
1907.523147	-2.982200	3.353300	-9.998900	26.432435	0.000157	20.853454
1908.522325	-2.984800	3.353500	-10.008000	26.489442	0.000159	20.847690
1909.523223	-2.988000	3.353000	-10.018000	26.517421	0.000159	20.839304
1910.527428	-3.011000	3.353200	-10.096000	26.562631	0.000157	20.826902
1911.526367	-2.973700	3.353700	-9.972200	26.538648	0.000159	20.846890
1912.520814	-3.003300	3.351200	-10.064000	26.506794	0.000157	20.847588
1913.521534	-2.989000	3.353000	-10.021000	26.489664	0.000157	20.823258
1914.529220	-2.989200	3.353400	-10.023000	26.506846	0.000158	20.854278
1915.523781	-2.975100	3.353000	-9.974700	26.485917	0.000157	20.837510
1916.524423	-2.977900	3.351200	-9.978100	26.523606	0.000154	20.864011
1917.522479	-2.991700	3.351900	-10.027000	26.509929	0.000156	20.838411
1918.523832	-2.973700	3.351000	-9.963800	26.469755	0.000155	20.831696
1919.528618	-2.986600	3.351600	-10.008000	26.461014	0.000156	20.845195
1920.526286	-2.987700	3.349900	-10.007000	26.450466	0.000155	20.828430
1921.521637	-2.992400	3.350100	-10.024000	26.513653	0.000153	20.846896
1922.526858	-3.000000	3.349900	-10.049000	26.476066	0.000154	20.843255
1923.522977	-3.004400	3.349600	-10.063000	26.482125	0.000154	20.840810
1924.524343	-2.991100	3.349800	-10.019000	26.448406	0.000151	20.837265
1925.526556	-3.008100	3.347400	-10.069000	26.463804	0.000154	20.825240
1926.527767	-3.008900	3.348900	-10.076000	26.429515	0.000152	20.835346
1927.525026	-3.007600	3.347100	-10.066000	26.502116	0.000150	20.831980
1928.525651	-3.016700	3.346700	-10.095000	26.545313	0.000151	20.839365
1929.529731	-2.997500	3.348600	-10.036000	26.530243	0.000152	20.847925
1930.524567	-3.029400	3.346400	-10.136000	26.492037	0.000150	20.823746
1931.528674	-2.997500	3.347300	-10.032000	26.498422	0.000150	20.833009
1932.526556	-3.003000	3.347900	-10.052000	26.540799	0.000150	20.837673
1933.531828	-2.988500	3.347800	-10.003000	26.579354	0.000148	20.830437
1934.531190	-2.975900	3.346100	-9.957100	26.597454	0.000149	20.829191
1935.530590	-2.990400	3.345400	-10.003000	26.619823	0.000150	20.818013
1936.532518	-3.007300	3.344000	-10.056000	26.562179	0.000146	20.826922
1937.527035	-3.013700	3.343900	-10.077000	26.547655	0.000146	20.832237
1938.532068	-3.014900	3.343300	-10.079000	26.569032	0.000148	20.817691
1939.529244	-3.004900	3.343800	-10.047000	26.587132	0.000147	20.830669
1940.532782	-3.002300	3.344000	-10.039000	26.574246	0.000151	20.803965
1941.535422	-2.997100	3.342200	-10.016000	26.626383	0.000145	20.792839
1942.527872	-2.986700	3.342900	-9.983600	26.608456	0.000146	20.819389
1943.529510	-3.018900	3.342900	-10.090000	26.640453	0.000147	20.821208
1944.529752	-3.009400	3.341500	-10.054000	26.651153	0.000148	20.823430
1945.526872	-3.005900	3.342200	-10.046000	26.592863	0.000145	20.802292
1946.528937	-2.996500	3.341300	-10.011000	26.566477	0.000146	20.816070
1947.528762	-2.976200	3.340600	-9.941900	26.544600	0.000146	20.804037
1948.528970	-3.010200	3.340400	-10.054000	26.539562	0.000145	20.794705
1949.529364	-2.979600	3.340100	-9.951200	26.569674	0.000146	20.824025
1950.535212	-3.001900	3.340500	-10.027000	26.574789	0.000145	20.813520
1951.538184	-3.015000	3.339400	-10.067000	26.593903	0.000144	20.816138
1952.528809	-3.006800	3.339200	-10.040000	26.631686	0.000144	20.804808
1953.534511	-3.015800	3.338900	-10.068000	26.626100	0.000143	20.806305
1954.532901	-3.011600	3.338900	-10.055000	26.689696	0.000145	20.815711
1955.535308	-2.999300	3.337900	-10.010000	26.718413	0.000144	20.802382
1956.531379	-3.012300	3.338300	-10.055000	26.690661	0.000143	20.799137
1957.531443	-2.984800	3.339400	-9.965900	26.597569	0.000141	20.806547
1958.532766	-2.997500	3.338300	-10.005000	26.586769	0.000142	20.816554
1959.534504	-2.991700	3.337600	-9.984300	26.557201	0.000142	20.830927
1960.530560	-2.983900	3.338300	-9.961000	26.608590	0.000140	20.823316
1961.530927	-2.972600	3.338200	-9.922400	26.660421	0.000140	20.825634
1962.533735	-2.982800	3.336000	-9.950000	26.628323	0.000137	20.825610
1963.534733	-2.989600	3.335600	-9.970800	26.621868	0.000140	20.839508
1964.535658	-2.999200	3.336000	-10.004000	26.596496	0.000139	20.817797
1965.538107	-2.994800	3.337000	-9.992800	26.552086	0.000137	20.824838
1966.531680	-2.997600	3.334700	-9.995000	26.524053	0.000138	20.799978
1967.535240	-2.994100	3.334200	-9.981400	26.584306	0.000138	20.815501
1968.540350	-2.992000	3.334100	-9.974100	26.596894	0.000137	20.808240
1969.533343	-3.008600	3.333100	-10.027000	26.587907	0.000136	20.794939
1970.537997	-2.985500	3.334400	-9.953900	26.626510	0.000137	20.817149
1971.541951	-2.986600	3.333500	-9.955400	26.549256	0.000136	20.793544
1972.537342	-3.001500	3.334500	-10.008000	26.591311	0.000138	20.792670
1973.538527	-2.996800	3.332900	-9.986500	26.602258	0.000136	20.800830
1974.538746	-2.996100	3.334200	-9.988300	26.622866	0.000136	20.810167
1975.534511	-3.008400	3.331700	-10.022000	26.639597	0.000136	20.804226
1976.534907	-3.013600	3.332100	-10.040000	26.703617	0.000134	20.792723
1977.535372	-2.972400	3.331600	-9.902200	26.752191	0.000135	20.800306
1978.533991	-3.002500	3.332600	-10.005000	26.745591	0.000135	20.793197
1979.539667	-2.986600	3.331700	-9.948800	26.760683	0.000134	20.798887
1980.536359	-3.014200	3.330100	-10.037000	26.746957	0.000132	20.801682
1981.539560	-3.019700	3.329300	-10.053000	26.780243	0.000134	20.785362
1982.544833	-2.999000	3.329600	-9.984600	26.795208	0.000133	20.806572
1983.544230	-2.988400	3.329400	-9.948200	26.786643	0.000133	20.806969
1984.538538	-3.020100	3.328200	-10.051000	26.772720	0.000134	20.780642
1985.546159	-3.000800	3.329500	-9.989700	26.755048	0.000135	20.798911
1986.545665	-3.011700	3.328800	-10.024000	26.713472	0.000131	20.792199
1987.541805	-3.002300	3.327600	-9.989800	26.700886	0.000130	20.809891
1988.547603	-2.985500	3.328800	-9.937000	26.680902	0.000132	20.781740
1989.542331	-3.026200	3.327600	-10.069000	26.698251	0.000131	20.796336
1990.542090	-2.964200	3.326700	-9.860300	26.748890	0.000132	20.787504
1991.545529	-3.018200	3.326300	-10.038000	26.706194	0.000133	20.794839
1992.547208	-2.991800	3.327700	-9.955400	26.703685	0.000131	20.795636
1993.543601	-3.000000	3.325700	-9.976300	26.680871	0.000131	20.774597
1994.544639	-2.998100	3.325800	-9.969600	26.677545	0.000130	20.776468
1995.546284	-3.014300	3.325000	-10.021000	26.662872	0.000130	20.789692
1996.545811	-3.005500	3.325900	-9.994900	26.673942	0.000129	20.794657
1997.546949	-2.996400	3.324400	-9.960700	26.707104	0.000127	20.783426
1998.548569	-2.987100	3.324100	-9.928300	26.682228	0.000129	20.772168
1999.546385	-2.983500	3.324200	-9.917100	26.705909	0.000128	20.794552
2000.544857	-3.010200	3.323300	-10.003000	26.706035	0.000126	20.787567
2001.547647	-2.975300	3.324400	-9.890300	26.761979	0.000126	20.793077
2002.544306	-3.031000	3.322600	-10.069000	26.748379	0.000127	20.787465
2003.547387	-2.982800	3.323600	-9.911700	26.741900	0.000127	20.780950
2004.549010	-2.976200	3.322900	-9.888500	26.780720	0.000125	20.788212
2005.550785	-2.982800	3.322500	-9.909100	26.812440	0.000126	20.757989
2006.556991	-2.997800	3.321900	-9.957000	26.815269	0.000125	20.765102
2007.557407	-3.012200	3.321200	-10.003000	26.857859	0.000122	20.766199
2008.552804	-3.000100	3.322100	-9.965700	26.837877	0.000123	20.771238
2009.557339	-2.983700	3.322400	-9.912500	26.846489	0.000122	20.775156
2010.554198	-3.001800	3.319000	-9.961400	26.781435	0.000124	20.786086
2011.552137	-3.016500	3.319900	-10.014000	26.709451	0.000123	20.786734
2012.558687	-3.009200	3.319200	-9.987700	26.736679	0.000121	20.779969
2013.561723	-3.001300	3.319800	-9.962000	26.785106	0.000122	20.781242
2014.561931	-2.996000	3.319100	-9.942900	26.842042	0.000119	20.789650
2015.557956	-3.008100	3.318700	-9.981500	26.845364	0.000122	20.785879
2016.564379	-2.980400	3.318900	-9.890700	26.811762	0.000120	20.775326
2017.564911	-3.017400	3.318600	-10.013000	26.862371	0.000121	20.777375
2018.561125	-3.002200	3.318800	-9.963000	26.884013	0.000117	20.777799
2019.561407	-3.037500	3.318100	-10.078000	26.884781	0.000121	20.779994
2020.554250	-3.040200	3.316400	-10.081000	26.888529	0.000119	20.784710
2021.559494	-3.014000	3.316900	-9.996900	26.831001	0.000117	20.790877
2022.560918	-3.006600	3.317100	-9.971900	26.836210	0.000119	20.770036
2023.564248	-2.994400	3.317400	-9.932500	26.820429	0.000119	20.781196
2024.561574	-3.026500	3.313800	-10.028000	26.792208	0.000116	20.768942
2025.562228	-2.986200	3.316600	-9.903100	26.775655	0.000118	20.785491
2026.562830	-3.011400	3.315800	-9.984400	26.744927	0.000115	20.775459
2027.566766	-2.989900	3.314100	-9.907300	26.757713	0.000117	20.775037
2028.569476	-3.005500	3.314400	-9.960800	26.837609	0.000117	20.761011
2029.567995	-2.997300	3.314000	-9.932300	26.849922	0.000114	20.762486
2030.563844	-3.020900	3.313900	-10.010000	26.837661	0.000115	20.767227
2031.570178	-3.022900	3.313400	-10.015000	26.844016	0.000116	20.767454
2032.567544	-3.009200	3.312500	-9.967000	26.895021	0.000117	20.772273
2033.568079	-2.960200	3.313200	-9.806400	26.914727	0.000115	20.764587
2034.563089	-2.984600	3.314100	-9.890300	26.955455	0.000113	20.751486
2035.561325	-3.026500	3.311200	-10.021000	26.879586	0.000117	20.759123
2036.577940	-2.995100	3.311900	-9.918700	26.886287	0.000113	20.785301
2037.567669	-3.007700	3.312700	-9.963700	26.869237	0.000114	20.759622
2038.565242	-3.023200	3.311200	-10.010000	26.880579	0.000115	20.771501
2039.568038	-2.981500	3.311800	-9.873300	26.846010	0.000113	20.777993
2040.566568	-3.025900	3.309900	-10.014000	26.773185	0.000113	20.761196
2041.567407	-2.992900	3.311300	-9.908800	26.788696	0.000112	20.754979
2042.561880	-2.997900	3.310100	-9.922500	26.799222	0.000113	20.770304
2043.567713	-3.011200	3.309800	-9.966400	26.823741	0.000112	20.746119
2044.561854	-3.001000	3.309900	-9.932400	26.860699	0.000111	20.761943
2045.565701	-3.022400	3.309400	-10.001000	26.829751	0.000111	20.755955
2046.567238	-2.996800	3.308900	-9.915200	26.831188	0.000110	20.764986
2047.564602	-3.013700	3.307400	-9.966200	26.780479	0.000110	20.756200
2048.567246	-2.994700	3.308400	-9.906600	26.826941	0.000112	20.780631
2049.568157	-3.018800	3.307200	-9.982200	26.893755	0.000111	20.777163
2050.568500	-2.999600	3.307300	-9.919800	26.914500	0.000110	20.750133
2051.568631	-2.994700	3.307700	-9.904900	26.919739	0.000110	20.774842
2052.568971	-2.974600	3.308200	-9.839500	26.976916	0.000110	20.752680
2053.565152	-3.002100	3.306500	-9.925700	26.955498	0.000110	20.766229
2054.568825	-3.005800	3.306300	-9.936700	26.945917	0.000110	20.779829
2055.569918	-2.977800	3.305400	-9.841700	26.973018	0.000109	20.765356
2056.568666	-3.007500	3.305400	-9.939600	26.997509	0.000109	20.765328
2057.567495	-3.000700	3.305200	-9.916700	27.024831	0.000109	20.787589
2058.571224	-3.011800	3.305400	-9.954700	27.044307	0.000109	20.786786
2059.565786	-3.025500	3.304300	-9.995400	27.006985	0.000109	20.765849
2060.566352	-3.011300	3.302700	-9.943900	26.967774	0.000107	20.784264
2061.570143	-3.000600	3.303400	-9.911200	26.969309	0.000104	20.771583
2062.566216	-2.996600	3.303500	-9.898500	27.039488	0.000107	20.774827
2063.571367	-2.979000	3.303700	-9.839700	27.046412	0.000107	20.788903
2064.568940	-2.994200	3.303400	-9.890900	27.040055	0.000106	20.766389
2065.570758	-2.979000	3.302000	-9.835300	27.027649	0.000103	20.771456
2066.572787	-3.017800	3.300900	-9.960600	26.927365	0.000103	20.772553
2067.570892	-3.010600	3.300900	-9.937000	26.911453	0.000103	20.779787
2068.569967	-2.989700	3.300900	-9.867600	26.961386	0.000103	20.777366
2069.569804	-2.972800	3.301900	-9.815200	26.993353	0.000101	20.770631
2070.574271	-2.994600	3.301300	-9.885100	26.953222	0.000102	20.766786
2071.570426	-3.003800	3.300600	-9.912900	26.934904	0.000102	20.777289
2072.573625	-2.984600	3.300200	-9.849000	26.936170	0.000100	20.766234
2073.572644	-2.994000	3.298800	-9.876300	26.925396	9.826471E-5	20.767728
2074.574634	-2.963400	3.299300	-9.776600	26.943339	9.849572E-5	20.780555
2075.575068	-3.022800	3.298800	-9.969400	26.918671	9.793468E-5	20.776139
2076.571838	-2.997600	3.298200	-9.885100	26.903086	9.635057E-5	20.768528
2077.576120	-2.986300	3.297800	-9.847900	26.950661	9.677960E-5	20.757572
2078.576176	-3.001800	3.297800	-9.898200	26.997933	9.638357E-5	20.783773
2079.577149	-3.014200	3.297100	-9.937900	27.019400	9.747265E-5	20.773118
2080.577119	-2.984200	3.297900	-9.840300	27.026722	9.644957E-5	20.779059
2081.583353	-3.011000	3.296600	-9.925300	26.972924	9.450243E-5	20.774270
2082.587690	-3.002100	3.297000	-9.897200	26.969048	9.357836E-5	20.762311
2083.579322	-3.011200	3.296500	-9.924900	26.992725	9.542650E-5	20.764784
2084.578420	-3.031600	3.294200	-9.985100	27.056502	9.463444E-5	20.756850
2085.576825	-3.006200	3.295600	-9.906400	27.092904	9.476645E-5	20.782554
2086.577978	-3.025400	3.294200	-9.964500	27.120273	9.542650E-5	20.763138
2087.580632	-3.035600	3.293700	-9.997500	27.080621	9.423841E-5	20.768779
2088.580890	-3.006600	3.294900	-9.905700	27.108687	9.532749E-5	20.780410
2089.581115	-3.010300	3.294600	-9.915900	27.153846	9.463444E-5	20.790268
2090.582162	-3.005500	3.293800	-9.898600	27.188806	9.453543E-5	20.779436
2091.583549	-3.024800	3.292700	-9.959300	27.234455	9.493146E-5	20.758022
2092.578100	-3.017400	3.292800	-9.935400	27.230438	9.354536E-5	20.783378
2093.583651	-3.006100	3.291900	-9.895100	27.196518	9.466744E-5	20.772969
2094.583985	-3.000600	3.292300	-9.878400	27.159997	9.635057E-5	20.792660
2095.582363	-2.999200	3.291800	-9.871700	27.148556	9.146621E-5	20.775464
2096.581694	-3.011700	3.291200	-9.911200	27.148581	9.305032E-5	20.769799
2097.584427	-2.993800	3.293000	-9.857500	27.159396	9.351236E-5	20.778306
2098.584418	-2.988800	3.291400	-9.836400	27.187408	9.519548E-5	20.760012
2099.586524	-3.026400	3.289600	-9.954700	27.136493	9.225827E-5	20.784194
2100.584517	-3.010400	3.290800	-9.905900	27.083962	9.357836E-5	20.780200
2101.581781	-2.997000	3.290300	-9.860500	27.120311	9.060815E-5	20.783091
2102.585195	-3.010600	3.288300	-9.898500	27.128473	9.272030E-5	20.775180
2103.583061	-2.992300	3.287800	-9.837800	27.125195	9.278631E-5	20.778995
2104.583663	-3.000800	3.288400	-9.866800	27.121522	9.400739E-5	20.783361
2105.581200	-3.005800	3.286800	-9.878400	27.091297	9.206025E-5	20.781887
2106.588335	-2.977100	3.288700	-9.790300	27.032585	8.998110E-5	20.778791
2107.586755	-3.003300	3.288100	-9.874400	27.057420	8.988209E-5	20.782430
2108.584758	-2.992300	3.286000	-9.831400	27.030767	9.182924E-5	20.803041
2109.587415	-2.989400	3.286100	-9.822200	26.965876	9.136720E-5	20.790416
2110.584720	-2.998800	3.287100	-9.856700	26.941949	9.103718E-5	20.783899
2111.593959	-2.979800	3.286000	-9.790800	26.956116	9.001410E-5	20.795775
2112.582989	-2.999000	3.286100	-9.854400	26.947352	8.975008E-5	20.797867
2113.586900	-3.012600	3.284600	-9.893100	27.000211	9.044313E-5	20.785589
2114.583299	-2.990800	3.285300	-9.824200	26.978694	8.879301E-5	20.784340
2115.589869	-3.003300	3.284700	-9.864400	26.992938	8.730790E-5	20.784439
2116.587024	-3.005900	3.283300	-9.867700	26.992088	8.935405E-5	20.798757
2117.585510	-2.985400	3.285100	-9.805800	26.988516	8.697788E-5	20.801329
2118.587728	-3.017000	3.283000	-9.903500	26.989728	8.522875E-5	20.787375
2119.589130	-3.010400	3.283300	-9.883500	27.011343	8.625183E-5	20.791094
2120.585150	-3.026100	3.281600	-9.929700	27.047469	8.641684E-5	20.787121
2121.586345	-3.005400	3.282400	-9.863700	26.989947	8.486573E-5	20.789492
2122.594676	-3.013600	3.281700	-9.888200	27.053672	8.727490E-5	20.804739
2123.588251	-2.981100	3.282200	-9.784000	27.105257	8.496473E-5	20.805409
2124.589867	-2.992000	3.280600	-9.813700	27.151856	8.681287E-5	20.794429
2125.595315	-2.984600	3.281400	-9.792600	27.148109	8.585580E-5	20.794454
2126.592106	-2.991000	3.279900	-9.809400	27.194752	8.443669E-5	20.812918
2127.587859	-3.006300	3.278900	-9.856600	27.265311	8.060842E-5	20.800439
2128.597912	-2.989300	3.280900	-9.807100	27.228987	8.328161E-5	20.805627
2129.592435	-3.021000	3.278800	-9.904100	27.180607	8.291858E-5	20.799165
2130.595372	-3.025700	3.280900	-9.926300	27.177652	8.446970E-5	20.799039
2131.596783	-3.024900	3.278200	-9.914000	27.187350	8.103745E-5	20.814482
2132.588403	-3.020700	3.278300	-9.901200	27.212904	8.186251E-5	20.806046
2133.592287	-3.014700	3.278200	-9.882800	27.171395	8.311660E-5	20.818823
2134.597440	-2.998400	3.277300	-9.826000	27.117624	8.146648E-5	20.810735
2135.590267	-3.017000	3.277500	-9.887000	27.137945	8.331461E-5	20.806518
2136.598140	-2.975200	3.277900	-9.751200	27.151688	7.981636E-5	20.819391
2137.593475	-2.983900	3.277200	-9.777700	27.125110	8.295159E-5	20.813522
2138.591574	-3.000400	3.276800	-9.830900	27.118559	8.186251E-5	20.806934
2139.598271	-2.987400	3.275000	-9.783400	27.092678	8.044340E-5	20.815518
2140.602421	-2.979700	3.276100	-9.761700	27.123567	8.169749E-5	20.814815
2141.593784	-2.999100	3.274500	-9.819500	27.158823	8.014638E-5	20.809972
2142.597339	-3.004400	3.274200	-9.835100	27.172168	7.905730E-5	20.829084
2143.601874	-2.994900	3.273500	-9.802200	27.171376	7.902430E-5	20.815959
2144.597284	-2.984100	3.274500	-9.770700	27.142389	7.918931E-5	20.822366
2145.603815	-3.023000	3.272800	-9.892800	27.137028	8.054241E-5	20.802750
2146.600893	-2.989300	3.273100	-9.782900	27.207196	7.839725E-5	20.816425
2147.597509	-2.997900	3.273300	-9.812000	27.230289	8.093844E-5	20.820213
2148.600208	-2.985500	3.272500	-9.769300	27.199993	7.895829E-5	20.822457
2149.602718	-3.000000	3.271000	-9.812000	27.248323	7.889229E-5	20.839300
2150.594343	-3.010200	3.270600	-9.843200	27.292282	7.928832E-5	20.816189
2151.599936	-3.004300	3.270800	-9.825700	27.320339	7.932132E-5	20.819756
2152.599326	-2.972800	3.271100	-9.723400	27.392006	7.777021E-5	20.806976
2153.603314	-3.014200	3.270100	-9.855600	27.315944	7.846326E-5	20.834774
2154.602032	-3.012800	3.270200	-9.851400	27.280687	7.839725E-5	20.832500
2155.600628	-3.000800	3.269500	-9.809900	27.311104	7.862827E-5	20.827061
2156.608077	-2.979800	3.269100	-9.740300	27.324820	7.724217E-5	20.827582
2157.598655	-2.995700	3.268100	-9.789300	27.265104	7.499800E-5	20.837214
2158.600985	-3.012700	3.268700	-9.846500	27.245178	7.767120E-5	20.807688
2159.598415	-3.016800	3.267700	-9.857200	27.249765	7.638411E-5	20.821785
2160.601834	-2.988500	3.267700	-9.764800	27.200866	7.582307E-5	20.829973
2161.598334	-3.006000	3.267500	-9.821600	27.264650	7.592207E-5	20.837705
2162.608222	-3.006300	3.266300	-9.818800	27.261868	7.592207E-5	20.836804
2163.601999	-3.003200	3.265100	-9.804200	27.245194	7.519602E-5	20.832360
2164.606363	-3.016300	3.266600	-9.852300	27.269435	7.344689E-5	20.849156
2165.602574	-3.001400	3.266800	-9.803300	27.322149	7.420595E-5	20.825370
2166.601298	-3.006900	3.265500	-9.817700	27.267295	7.288585E-5	20.844159
2167.602799	-2.998500	3.265400	-9.789700	27.261438	7.347989E-5	20.847751
2168.601120	-3.018900	3.264400	-9.853100	27.266421	7.588907E-5	20.820995
2169.604915	-2.987100	3.263800	-9.748100	27.300360	7.262183E-5	20.820995
2170.598459	-2.995200	3.263500	-9.773300	27.282495	7.209379E-5	20.831473
2171.607203	-2.994300	3.265200	-9.776600	27.321640	7.390893E-5	20.843349
2172.604483	-3.005300	3.262100	-9.801200	27.387878	7.169776E-5	20.833643
2173.604001	-2.994700	3.262400	-9.769300	27.374628	7.225880E-5	20.835013
2174.600999	-3.005600	3.260700	-9.799800	27.372889	7.027866E-5	20.848435
2175.604097	-3.023000	3.262000	-9.859300	27.428280	7.130173E-5	20.866700
2176.609785	-2.995800	3.261700	-9.770800	27.429667	7.004764E-5	20.845811
2177.612675	-2.991200	3.261200	-9.754300	27.395855	6.958561E-5	20.860633
2178.610905	-3.002900	3.261100	-9.792500	27.370376	6.998164E-5	20.856813
2179.602458	-3.009800	3.259500	-9.809000	27.360204	6.806750E-5	20.827615
2180.607298	-2.991200	3.260100	-9.750100	27.408258	6.595534E-5	20.844188
2181.606702	-3.002400	3.260200	-9.787300	27.454816	6.819951E-5	20.845508
2182.604580	-2.996200	3.259600	-9.765900	27.477312	6.760546E-5	20.851071
2183.608905	-2.993200	3.258600	-9.753100	27.473838	6.569132E-5	20.854688
2184.608695	-2.990300	3.258100	-9.741500	27.455036	6.450324E-5	20.867539
2185.606522	-2.995400	3.259600	-9.763300	27.469024	6.608735E-5	20.821396
2186.608521	-3.010700	3.259200	-9.812200	27.476614	6.767147E-5	20.847998
2187.618407	-3.004600	3.257400	-9.785900	27.478924	6.635137E-5	20.838942
2188.606422	-2.994600	3.257300	-9.753100	27.523495	6.473425E-5	20.856284
2189.613008	-3.022200	3.255800	-9.838200	27.492862	6.140101E-5	20.840163
2190.612955	-2.978700	3.256400	-9.699100	27.479989	6.331515E-5	20.853290
2191.611434	-2.992000	3.254900	-9.737600	27.461557	6.262210E-5	20.838540
2192.615715	-3.006200	3.253200	-9.778400	27.426858	6.348016E-5	20.841564
2193.609672	-2.998300	3.254400	-9.755900	27.417506	6.156602E-5	20.851121
2194.610779	-2.986400	3.253800	-9.714900	27.425568	6.150002E-5	20.860653
2195.615076	-2.999700	3.252400	-9.755600	27.457419	6.295212E-5	20.879893
2196.612261	-2.990700	3.254200	-9.730500	27.488056	6.265510E-5	20.857612
2197.613879	-2.988500	3.253900	-9.723700	27.482650	6.344716E-5	20.854544
2198.611549	-2.995000	3.252800	-9.741600	27.540693	6.163203E-5	20.834233
2199.609643	-3.004500	3.251500	-9.766900	27.539893	6.255609E-5	20.870885
2200.609898	-3.021400	3.251600	-9.822300	27.509639	6.060895E-5	20.840447
2201.610025	-3.034000	3.251600	-9.864800	27.498131	6.183004E-5	20.851627
2202.612343	-2.995000	3.251200	-9.736300	27.510485	6.103798E-5	20.846988
2203.611080	-3.004200	3.250200	-9.763400	27.496991	5.994890E-5	20.864704
2204.614652	-3.005100	3.250600	-9.766600	27.482926	6.183004E-5	20.873787
2205.614195	-2.990500	3.250400	-9.718700	27.511353	5.846379E-5	20.868249
2206.613554	-3.017300	3.249500	-9.804000	27.576711	5.876082E-5	20.867152
2207.614383	-3.004100	3.249400	-9.760800	27.557064	5.958588E-5	20.859238
2208.613154	-3.011200	3.247700	-9.778700	27.558258	5.948687E-5	20.863759
2209.615916	-3.027500	3.247000	-9.829800	27.542580	5.968488E-5	20.858417
2210.616497	-3.017300	3.246900	-9.796000	27.539679	6.113699E-5	20.873040
2211.614528	-3.010900	3.247500	-9.777200	27.560908	5.882682E-5	20.853149
2212.612655	-2.999200	3.248100	-9.741100	27.624897	5.922285E-5	20.871541
2213.612005	-3.003600	3.245600	-9.748100	27.634494	5.671467E-5	20.850379
2214.615810	-3.012500	3.244900	-9.773900	27.618002	5.803476E-5	20.879775
2215.612513	-3.009500	3.246900	-9.770900	27.654707	5.948687E-5	20.872613
2216.614995	-3.002700	3.244900	-9.742900	27.685308	5.806777E-5	20.863103
2217.611578	-3.007700	3.244200	-9.756500	27.688059	5.909084E-5	20.873457
2218.614045	-3.014700	3.245200	-9.782100	27.642201	5.909084E-5	20.854340
2219.615326	-2.994800	3.243500	-9.712700	27.579429	5.674767E-5	20.859457
2220.617671	-3.007000	3.244800	-9.755300	27.560478	5.849680E-5	20.860303
2221.615500	-3.018300	3.241800	-9.783900	27.497424	5.819977E-5	20.847124
2222.616971	-3.020600	3.241400	-9.789900	27.550379	5.882682E-5	20.876220
2223.613672	-2.996100	3.242000	-9.710900	27.603208	5.823278E-5	20.873424
2224.616169	-2.996900	3.240700	-9.711000	27.622027	5.753973E-5	20.892833
2225.617039	-3.000300	3.241100	-9.723300	27.647720	5.720970E-5	20.873169
2226.615848	-2.988600	3.240500	-9.683500	27.704486	5.552658E-5	20.867228
2227.617065	-2.993300	3.240500	-9.699200	27.647046	5.526256E-5	20.880077
2228.614524	-2.976800	3.240700	-9.645900	27.552402	5.602162E-5	20.877781
2229.615701	-2.969500	3.240700	-9.622000	27.525461	5.542757E-5	20.898088
2230.615872	-2.990300	3.240000	-9.687700	27.585584	5.618663E-5	20.875606
2231.621410	-2.995700	3.240200	-9.705000	27.605253	5.585660E-5	20.883068
2232.620318	-2.996400	3.238000	-9.700900	27.587486	5.443750E-5	20.890795
2233.621219	-2.984000	3.238000	-9.661300	27.613678	5.443750E-5	20.874476
2234.621732	-3.000200	3.237000	-9.710700	27.640484	5.456951E-5	20.882008
2235.622590	-2.979300	3.236100	-9.640200	27.623298	5.565859E-5	20.877043
2236.623019	-2.975400	3.237400	-9.631100	27.652856	5.691268E-5	20.908206
2237.619414	-2.997700	3.236000	-9.699700	27.662576	5.232534E-5	20.876738
2238.623479	-3.005600	3.235400	-9.723700	27.725146	5.301840E-5	20.877113
2239.632987	-2.972300	3.235800	-9.617200	27.720257	5.397547E-5	20.884046
2240.622764	-2.982600	3.234200	-9.644000	27.674351	5.301840E-5	20.895223
2241.623771	-3.007900	3.233000	-9.724100	27.614798	5.328241E-5	20.879396
2242.621149	-3.011200	3.232400	-9.732500	27.600910	5.308440E-5	20.881543
2243.625985	-3.004000	3.234200	-9.714800	27.620848	5.222634E-5	20.878845
2244.627151	-3.023800	3.233000	-9.774400	27.627568	5.232534E-5	20.899356
2245.624104	-3.002900	3.233800	-9.710400	27.686664	5.143428E-5	20.880588
2246.631561	-2.997000	3.232300	-9.686400	27.693335	5.186331E-5	20.915272
2247.631865	-3.000700	3.230800	-9.694100	27.698614	5.291939E-5	20.874121
2248.632185	-2.984600	3.231800	-9.645000	27.678797	5.034520E-5	20.886421
2249.631180	-2.999900	3.229900	-9.688600	27.704612	5.123626E-5	20.879682
2250.628531	-2.995700	3.230600	-9.676600	27.669220	5.024619E-5	20.895276
2251.631059	-2.995700	3.231500	-9.679300	27.673310	4.948714E-5	20.927838
2252.629956	-3.010300	3.230200	-9.723600	27.738406	5.133527E-5	20.894248
2253.628726	-3.001200	3.229400	-9.690000	27.705295	4.919011E-5	20.890326
2254.627874	-2.976600	3.229400	-9.611900	27.728506	5.176430E-5	20.905622
2255.630468	-2.984400	3.227900	-9.631600	27.708741	5.090624E-5	20.908017
2256.634614	-3.003900	3.227200	-9.693700	27.683270	5.153329E-5	20.909886
2257.626873	-2.985700	3.228200	-9.637700	27.647555	4.965215E-5	20.892915
2258.629076	-2.997000	3.227100	-9.671100	27.655464	5.021319E-5	20.907037
2259.631147	-3.009700	3.226300	-9.708100	27.683808	5.239135E-5	20.931762
2260.627626	-3.015600	3.225400	-9.725200	27.700793	4.975116E-5	20.931785
2261.640491	-2.987200	3.225500	-9.634900	27.694268	5.070823E-5	20.916212
2262.627915	-2.991100	3.226300	-9.649600	27.679533	4.899210E-5	20.918927
2263.631349	-2.997300	3.224700	-9.664400	27.667033	4.770501E-5	20.917254
2264.633017	-3.013600	3.224300	-9.715800	27.653489	4.823304E-5	20.916902
2265.631772	-2.991700	3.223800	-9.644100	27.757000	4.928912E-5	20.927655
2266.628685	-2.996600	3.223300	-9.657500	27.810758	5.044421E-5	20.909212
2267.631152	-3.008900	3.222700	-9.695900	27.850531	5.027919E-5	20.920315
2268.637282	-2.997600	3.223900	-9.662600	27.863964	4.978416E-5	20.939049
2269.638062	-2.990400	3.223000	-9.637400	27.818982	4.905810E-5	20.913221
2270.635084	-3.010200	3.221400	-9.696800	27.840206	4.886009E-5	20.944060
2271.633947	-2.986900	3.222200	-9.622500	27.894554	4.869508E-5	20.919579
2272.638771	-3.014300	3.220300	-9.706700	27.914042	4.790302E-5	20.916908
2273.632839	-3.022900	3.219300	-9.729900	27.919567	4.572486E-5	20.922942
2274.637024	-2.977600	3.220700	-9.589400	27.868390	4.645091E-5	20.933546
2275.635699	-2.981500	3.221400	-9.603700	27.823732	4.450377E-5	20.931275
2276.634466	-3.025400	3.218600	-9.735900	27.817232	4.473479E-5	20.931372
2277.632910	-3.004700	3.218700	-9.670900	27.853159	4.381072E-5	20.923434
2278.636924	-3.015800	3.217600	-9.702500	27.850451	4.146755E-5	20.937777
2279.636727	-2.986100	3.218100	-9.608200	27.863615	4.324968E-5	20.939172
2280.637152	-3.003800	3.217100	-9.663000	27.912090	4.199559E-5	20.909254
2281.639929	-2.993600	3.216700	-9.629000	27.974818	4.318367E-5	20.953420
2282.633702	-2.998600	3.217000	-9.645400	27.983071	4.199559E-5	20.945606
2283.632419	-3.003100	3.217700	-9.662900	27.963263	4.202859E-5	20.937050
2284.638120	-2.968200	3.215600	-9.544000	27.935517	3.919038E-5	20.925245
2285.635713	-3.000300	3.214200	-9.642600	27.885331	4.011445E-5	20.933054
2286.637843	-2.997100	3.214700	-9.634100	27.877917	3.866234E-5	20.951668
2287.639433	-2.998400	3.214400	-9.637500	27.857610	3.935539E-5	20.944032
2288.636820	-3.004900	3.213900	-9.656200	27.905414	3.988343E-5	20.937145
2289.637013	-3.002000	3.213700	-9.647200	27.936457	4.100551E-5	20.952740
2290.642649	-3.000000	3.212100	-9.635000	27.928796	3.780428E-5	20.951194
2291.652099	-3.012900	3.211100	-9.673700	27.932688	3.915738E-5	20.933776
2292.639876	-3.003900	3.213200	-9.651300	27.916821	3.892636E-5	20.958106
2293.643891	-3.019200	3.209800	-9.690500	27.923863	3.754026E-5	20.954289
2294.646061	-2.994300	3.211500	-9.616200	27.911242	3.714423E-5	20.937321
2295.649819	-2.997800	3.210500	-9.623300	27.893540	3.750726E-5	20.937522
2296.652812	-3.003200	3.211600	-9.644100	27.881118	4.037847E-5	20.923599
2297.640684	-2.995100	3.209500	-9.611300	27.843577	3.899237E-5	20.948875
2298.646554	-3.002700	3.208900	-9.634000	27.887442	3.955341E-5	20.952720
2299.651387	-2.993000	3.207700	-9.600000	27.928056	3.895936E-5	20.931485
2300.645612	-2.996700	3.208300	-9.613500	27.996260	3.985043E-5	20.926642
2301.643870	-2.981400	3.207800	-9.563100	28.031367	3.965241E-5	20.938271
2302.641667	-2.997800	3.205700	-9.608100	28.004443	3.754026E-5	20.923974
2303.641094	-3.018400	3.206200	-9.676800	27.948857	3.892636E-5	20.930611
2304.643653	-3.015800	3.204800	-9.664500	27.991998	3.763927E-5	20.938946
2305.641638	-3.013200	3.204300	-9.654800	27.973750	3.651718E-5	20.936700
2306.651131	-2.987400	3.204300	-9.570700	27.961700	3.549411E-5	20.920305
2307.652662	-2.977500	3.205000	-9.542400	27.921931	3.645118E-5	20.931959
2308.644465	-3.000000	3.204800	-9.614100	27.907823	3.737525E-5	20.934354
2309.647866	-2.974700	3.203800	-9.529400	27.892795	3.645118E-5	20.910222
2310.645227	-3.002500	3.201400	-9.610800	27.831846	3.516409E-5	20.927114
2311.646705	-2.991900	3.202100	-9.579700	27.860584	3.562612E-5	20.910520
2312.649627	-2.996400	3.202200	-9.594700	27.865816	3.622016E-5	20.923845
2313.651255	-2.993500	3.201100	-9.581400	27.916994	3.655019E-5	20.913241
2314.644610	-3.000800	3.201200	-9.605900	27.930532	3.645118E-5	20.905057
2315.647369	-3.006100	3.202600	-9.627000	27.947267	3.575813E-5	20.925218
2316.649018	-2.993100	3.201100	-9.580500	28.015522	3.711123E-5	20.918056
2317.649029	-2.998800	3.199700	-9.594800	27.995341	3.202886E-5	20.918131
2318.653933	-3.025600	3.199500	-9.679200	27.985722	3.447103E-5	20.898494
2319.651930	-2.993400	3.199100	-9.575400	28.017855	3.539510E-5	20.907603
2320.648647	-2.981100	3.197600	-9.531400	28.074153	3.357997E-5	20.917332
2321.648680	-2.985400	3.197800	-9.545600	28.103432	3.242488E-5	20.910771
2322.651486	-2.975100	3.197900	-9.511900	28.164810	3.549411E-5	20.924195
2323.647352	-3.018400	3.195800	-9.645300	28.179437	3.443803E-5	20.903361
2324.656888	-3.003300	3.196800	-9.600400	28.155863	3.437203E-5	20.900018
2325.653903	-3.019000	3.194300	-9.642600	28.158342	3.305193E-5	20.921003
2326.653869	-3.003400	3.195000	-9.595300	28.157895	3.344796E-5	20.887840
2327.653854	-3.015400	3.193300	-9.628300	28.146047	3.311794E-5	20.901515
2328.656457	-3.011000	3.193400	-9.614700	28.114194	3.410801E-5	20.909751
2329.656760	-2.950800	3.194500	-9.425700	28.069896	3.225987E-5	20.897875
2330.657194	-3.015500	3.191200	-9.622500	27.991574	3.420702E-5	20.918133
2331.652195	-2.987700	3.192300	-9.536300	28.034292	3.592314E-5	20.888115
2332.653839	-2.974400	3.192200	-9.494100	28.097136	3.493307E-5	20.897796
2333.657010	-3.029100	3.189600	-9.660600	28.168082	3.572513E-5	20.902835
2334.652475	-2.989500	3.189900	-9.535500	28.179583	3.338195E-5	20.891181
2335.658951	-3.033700	3.188700	-9.672100	28.146959	3.133580E-5	20.898166
2336.656010	-2.986900	3.190100	-9.527700	28.097405	3.202886E-5	20.877206
2337.658878	-2.990400	3.190300	-9.539900	28.081640	3.262290E-5	20.900688
2338.657898	-3.007600	3.188400	-9.588600	28.014479	3.176484E-5	20.879552
2339.662294	-3.010000	3.187100	-9.592200	28.051144	3.196285E-5	20.882794
2340.657489	-3.013300	3.186700	-9.601400	28.082950	3.381099E-5	20.907222
2341.656161	-3.016200	3.186000	-9.608700	28.117010	3.110479E-5	20.888880
2342.659802	-2.991800	3.186600	-9.533100	28.128016	3.209486E-5	20.884313
2343.654804	-3.005500	3.186200	-9.575600	28.070281	3.186384E-5	20.882618
2344.657593	-3.022900	3.183500	-9.622200	28.089790	3.232588E-5	20.894195
2345.658604	-3.005800	3.183800	-9.569100	28.027810	3.070876E-5	20.895340
2346.660283	-3.007900	3.183400	-9.574600	28.018884	3.136881E-5	20.884934
2347.663254	-2.996900	3.183200	-9.538200	28.004008	3.196285E-5	20.898408
2348.659647	-3.003900	3.181500	-9.555900	28.019055	3.064275E-5	20.886054
2349.661351	-2.977600	3.182700	-9.476200	28.032836	3.060975E-5	20.877167
2350.659788	-3.013100	3.179500	-9.578900	27.966543	2.971869E-5	20.895784
2351.658846	-3.016000	3.180300	-9.591000	27.998351	2.935566E-5	20.877068
2352.658862	-3.008900	3.180300	-9.568700	28.032538	3.060975E-5	20.874971
2353.660958	-2.995200	3.178900	-9.520200	28.074709	2.790355E-5	20.881385
2354.663974	-2.980700	3.178400	-9.472000	28.137824	2.938866E-5	20.888497
2355.658812	-2.989300	3.178700	-9.500700	28.204701	3.024672E-5	20.864314
2356.673556	-2.982200	3.176900	-9.473500	28.141442	3.018072E-5	20.884078
2357.662798	-3.008600	3.175900	-9.554100	28.061096	2.724350E-5	20.879536
2358.663737	-2.982800	3.175900	-9.471600	28.078176	2.975169E-5	20.869229
2359.659181	-3.018100	3.176300	-9.585900	28.041436	2.998270E-5	20.877763
2360.662094	-2.999400	3.175800	-9.524800	28.043296	2.724350E-5	20.867782
2361.662638	-2.990800	3.174100	-9.492600	28.087076	2.688048E-5	20.879136
2362.662263	-2.996400	3.174300	-9.511000	28.102174	2.787055E-5	20.899548
2363.666315	-3.030400	3.172500	-9.612900	28.075128	2.783755E-5	20.881807
2364.664262	-2.979500	3.173700	-9.455500	28.101059	2.740852E-5	20.861919
2365.663084	-3.013400	3.172300	-9.558400	28.159413	2.859660E-5	20.862817
2366.664012	-3.016000	3.171500	-9.564400	28.195010	2.605542E-5	20.868782
2367.663642	-2.988700	3.171800	-9.477000	28.214047	2.701249E-5	20.874196
2368.662274	-3.014000	3.171300	-9.557100	28.255419	2.615442E-5	20.876969
2369.671319	-3.010200	3.169500	-9.539800	28.256262	2.513135E-5	20.889197
2370.663870	-2.981500	3.170000	-9.450800	28.271283	2.506534E-5	20.877768
2371.663862	-3.004100	3.169000	-9.518500	28.274803	2.565939E-5	20.861874
2372.671028	-2.981100	3.168000	-9.443200	28.168739	2.440530E-5	20.869360
2373.665354	-2.978100	3.166800	-9.430100	28.148536	2.509835E-5	20.872255
2374.664695	-2.977900	3.165800	-9.426200	28.211452	2.311820E-5	20.871584
2375.668406	-2.995100	3.167100	-9.484600	28.186986	2.212813E-5	20.856911
2376.664746	-2.993800	3.164800	-9.474200	28.176154	2.160009E-5	20.888203
2377.664483	-3.002600	3.163000	-9.496300	28.168421	2.268917E-5	20.879470
2378.668990	-3.001900	3.165100	-9.500000	28.238745	2.377825E-5	20.866346
2379.665802	-3.010000	3.163100	-9.520100	28.287676	2.371224E-5	20.852549
2380.666542	-3.001900	3.162400	-9.493000	28.249631	2.348123E-5	20.858340
2381.665775	-3.002100	3.161900	-9.491400	28.297718	2.496634E-5	20.852703
2382.667302	-2.994700	3.161000	-9.465700	28.281284	2.354723E-5	20.851330
2383.667407	-3.020700	3.158700	-9.540500	28.293134	2.354723E-5	20.859467
2384.668943	-3.013200	3.158800	-9.516200	28.320918	2.031299E-5	20.868949
2385.667807	-2.981600	3.158800	-9.417200	28.328009	2.113806E-5	20.866606
2386.666898	-3.003500	3.157500	-9.481700	28.337306	2.090704E-5	20.868855
2387.670579	-2.993700	3.158200	-9.453700	28.306946	2.212813E-5	20.846821
2388.669377	-2.995600	3.157200	-9.456900	28.281047	2.374525E-5	20.845401
2389.669062	-3.007600	3.156400	-9.493000	28.231475	2.169910E-5	20.837217
2390.669231	-3.001600	3.156000	-9.472400	28.273985	1.938893E-5	20.870532
2391.670204	-3.004200	3.153900	-9.473900	28.279217	2.245815E-5	20.852567
2392.674555	-2.988000	3.154700	-9.424700	28.292630	2.123706E-5	20.851373
2393.669181	-3.000300	3.153700	-9.461300	28.265190	2.061002E-5	20.867367
2394.670784	-3.005200	3.151400	-9.469900	28.243403	2.150108E-5	20.859183
2395.667730	-3.004300	3.151900	-9.468800	28.215272	2.077503E-5	20.832758
2396.671435	-2.996300	3.150600	-9.439500	28.205973	1.958694E-5	20.836673
2397.670213	-3.012900	3.149000	-9.486800	28.241273	2.110505E-5	20.860357
2398.681523	-3.013700	3.148600	-9.488300	28.296054	2.272217E-5	20.836330
2399.669297	-2.982800	3.149300	-9.392700	28.323267	2.103905E-5	20.861831
2400.672163	-2.982400	3.148000	-9.387400	28.344509	2.183111E-5	20.853823
2401.671292	-2.992000	3.145400	-9.410400	28.371523	1.783781E-5	20.858264
2402.673974	-2.997900	3.145400	-9.429000	28.374225	2.004897E-5	20.850554
2403.671253	-2.977300	3.145200	-9.362800	28.386147	1.968595E-5	20.830791
2404.675155	-2.991600	3.145300	-9.408500	28.405631	1.793682E-5	20.843297
2405.672267	-2.984400	3.143900	-9.381800	28.293455	1.853086E-5	20.844618
2406.673863	-2.987300	3.143900	-9.391200	28.295711	1.734278E-5	20.856372
2407.672280	-2.974400	3.143500	-9.348500	28.340253	1.648471E-5	20.850960
2408.672870	-2.990600	3.141000	-9.393000	28.367467	1.496660E-5	20.851809
2409.673561	-2.981800	3.139900	-9.361400	28.285304	1.694675E-5	20.860592
2410.673882	-2.999700	3.139800	-9.416600	28.234669	1.641871E-5	20.848967
2411.673684	-3.002300	3.138400	-9.421700	28.245649	1.826684E-5	20.835366
2412.675678	-2.985900	3.137700	-9.367500	28.225822	1.612169E-5	20.843853
2413.674933	-2.999200	3.137100	-9.408100	28.289897	1.658372E-5	20.826811
2414.676050	-2.995300	3.135000	-9.389500	28.371887	1.658372E-5	20.827338
2415.675743	-2.973200	3.136700	-9.325200	28.383090	1.635270E-5	20.841937
2416.680532	-2.989700	3.134700	-9.371100	28.393126	1.796982E-5	20.852042
2417.673900	-2.996600	3.133300	-9.388600	28.381159	1.526362E-5	20.852794
2418.676510	-2.990100	3.132600	-9.365700	28.395458	1.631970E-5	20.846330
2419.672799	-2.973700	3.132200	-9.313900	28.396476	1.615469E-5	20.829812
2420.675194	-3.007200	3.130700	-9.413200	28.453528	1.453757E-5	20.819932
2421.676215	-3.012400	3.129800	-9.427700	28.452835	1.658372E-5	20.812122
2422.674403	-2.990900	3.130300	-9.361400	28.424657	1.457057E-5	20.831163
2423.674239	-2.998300	3.129800	-9.382600	28.431819	1.407554E-5	20.846908
2424.678407	-3.014300	3.126700	-9.422500	28.395786	1.367951E-5	20.832910
2425.679333	-2.999500	3.127000	-9.379300	28.400423	1.391052E-5	20.821933
2426.676426	-2.992000	3.126500	-9.353300	28.308349	1.628670E-5	20.798923
2427.675443	-3.021900	3.124900	-9.442200	28.301063	1.615469E-5	20.830467
2428.676433	-2.987600	3.124200	-9.333100	28.308001	1.354750E-5	20.826074
2429.674493	-2.992300	3.124000	-9.346500	28.379778	1.374551E-5	20.811102
2430.676848	-3.012300	3.122000	-9.403600	28.409394	1.404253E-5	20.826699
2431.677576	-3.025700	3.120100	-9.439500	28.354522	1.252442E-5	20.830716
2432.675796	-3.010000	3.121200	-9.394400	28.317594	1.371251E-5	20.816767
2433.679629	-2.985000	3.120200	-9.313000	28.283860	1.232641E-5	20.831639
2434.675423	-3.024400	3.117400	-9.427300	28.269064	1.209539E-5	20.822432
2435.677666	-2.993500	3.116800	-9.329600	28.313354	1.199638E-5	20.820558
2436.677146	-3.013500	3.117500	-9.393600	28.330203	1.193038E-5	20.818557
2437.684134	-3.015700	3.116100	-9.396200	28.306463	1.163336E-5	20.820257
2438.678236	-2.987100	3.117000	-9.309600	28.316722	1.229340E-5	20.831061
2439.677497	-2.988500	3.115800	-9.310600	28.349959	1.440556E-5	20.812845
2440.677585	-2.970400	3.113700	-9.247300	28.372636	1.146834E-5	20.819083
2441.677440	-2.989900	3.114000	-9.309900	28.391050	1.117132E-5	20.820081
2442.677800	-2.982000	3.112700	-9.281700	28.368719	1.074229E-5	20.819406
2443.676864	-2.982800	3.112500	-9.283300	28.362871	1.037926E-5	20.801190
2444.679606	-3.015400	3.109800	-9.376300	28.337664	1.282144E-5	20.801413
2445.685185	-3.000200	3.109900	-9.329600	28.368147	1.199638E-5	20.784691
2446.682652	-2.984100	3.109200	-9.277100	28.423686	1.153435E-5	20.837771
2447.680795	-3.009300	3.106100	-9.346000	28.431913	1.328348E-5	20.808123
2448.680509	-2.991900	3.106400	-9.292600	28.455458	1.410854E-5	20.793427
2449.678123	-2.981200	3.106600	-9.260600	28.446036	1.120432E-5	20.807647
2450.682403	-2.977800	3.106200	-9.248600	28.486603	1.103931E-5	20.784014
2451.682495	-2.990000	3.104400	-9.281100	28.529200	1.024725E-5	20.826911
2452.680776	-2.978800	3.103200	-9.243100	28.569863	1.212839E-5	20.831352
2453.680675	-2.998400	3.101000	-9.297000	28.523920	1.080830E-5	20.821119
2454.680812	-2.998200	3.100400	-9.295000	28.527142	1.117132E-5	20.811562
2455.684003	-3.012600	3.100500	-9.339500	28.557025	1.077529E-5	20.804199
2456.682987	-2.991500	3.099600	-9.271900	28.609705	1.054428E-5	20.802727
2457.680973	-2.993500	3.097300	-9.271000	28.574391	1.031326E-5	20.819792
2458.680338	-3.004800	3.096800	-9.304400	28.611335	1.196338E-5	20.811006
2459.680316	-3.012100	3.095100	-9.322200	28.648255	1.143534E-5	20.821638
2460.682677	-2.991400	3.095200	-9.258200	28.549808	1.232641E-5	20.809733
2461.686203	-2.984200	3.094300	-9.232400	28.467013	1.034626E-5	20.798899
2462.681609	-3.002600	3.092000	-9.283100	28.417573	1.064328E-5	20.797477
2463.680035	-2.993800	3.091000	-9.252800	28.400619	1.084130E-5	20.804587
2464.683596	-3.005900	3.091200	-9.290800	28.398534	9.950232E-6	20.795849
2465.681351	-3.008400	3.089400	-9.293400	28.403787	1.113832E-5	20.839071
2466.680862	-2.980900	3.088100	-9.204600	28.325372	6.682992E-6	20.798046
2467.680343	-2.997900	3.086100	-9.251200	28.288515	8.927157E-6	20.785117
2468.681001	-2.979400	3.087000	-9.196200	28.379422	9.884227E-6	20.803632
2469.680894	-2.981100	3.086400	-9.200300	28.470026	9.455196E-6	20.831331
2470.682899	-3.011800	3.085000	-9.289900	28.494412	7.772072E-6	20.813688
2471.681326	-3.023300	3.083000	-9.320100	28.550240	8.465123E-6	20.800211
2472.684262	-2.992500	3.082300	-9.223000	28.587308	7.244033E-6	20.803404
2473.683432	-3.012100	3.080500	-9.278100	28.658051	8.399118E-6	20.813013
2474.681638	-3.018000	3.079100	-9.291800	28.618553	6.385970E-6	20.812586
2475.682086	-3.004600	3.079600	-9.252200	28.600739	8.102096E-6	20.786110
2476.682378	-2.986600	3.078100	-9.192700	28.652597	9.389191E-6	20.798037
2477.685181	-3.021000	3.076700	-9.293900	28.676953	6.385970E-6	20.808818
2478.680859	-3.025200	3.075200	-9.302500	28.612583	7.772072E-6	20.811789
2479.683818	-2.979100	3.075900	-9.162400	28.638054	7.310038E-6	20.786709
2480.679825	-3.004400	3.074300	-9.235900	28.634934	5.395897E-6	20.796368
2481.682024	-3.000300	3.073200	-9.219200	28.649055	6.418973E-6	20.789253
2482.683359	-2.985100	3.070900	-9.165600	28.703044	7.673065E-6	20.790053
2483.681196	-2.984000	3.070300	-9.160900	28.739017	1.041227E-5	20.801631
2484.682538	-2.997200	3.069100	-9.198000	28.778979	8.069094E-6	20.792098
2485.682436	-2.987700	3.067200	-9.163000	28.836973	6.748997E-6	20.795043
2486.682250	-3.010800	3.067300	-9.234300	28.779053	6.220958E-6	20.795018
2487.681927	-2.985900	3.065900	-9.154300	28.776502	1.011524E-5	20.795293
2488.687133	-2.995300	3.064300	-9.177000	28.764089	6.319965E-6	20.787056
2489.683236	-3.000300	3.062300	-9.186800	28.726256	9.158174E-6	20.794941
2490.683518	-3.021200	3.061100	-9.246700	28.686987	7.541055E-6	20.786682
2491.684712	-2.983400	3.062500	-9.136300	28.701084	6.748997E-6	20.792347
2492.686165	-3.042000	3.057800	-9.299500	28.694938	7.013016E-6	20.774776
2493.684614	-3.016100	3.058200	-9.223600	28.721250	8.333113E-6	20.791322
2494.685325	-3.039500	3.057200	-9.290700	28.739606	9.158174E-6	20.796535
2495.683618	-3.012700	3.055700	-9.205300	28.703261	8.003089E-6	20.786478
2496.683574	-3.019300	3.054200	-9.220600	28.756131	6.914009E-6	20.793266
2497.684219	-3.017400	3.053500	-9.213000	28.803720	6.947011E-6	20.794261
2498.685049	-3.001900	3.052200	-9.161600	28.785562	4.141805E-6	20.793514
2499.686760	-3.004300	3.051200	-9.164900	28.796632	9.521201E-6	20.796131
2500.694828	-2.979200	3.051000	-9.088400	28.804881	1.024725E-5	20.785473
2501.688522	-3.010700	3.049500	-9.178500	28.863369	7.475050E-6	20.781330
2502.690295	-3.002500	3.047700	-9.149500	28.799131	8.300111E-6	20.783001
2503.690676	-3.011500	3.046300	-9.173500	28.762936	6.517980E-6	20.783999
2504.689771	-3.011300	3.045300	-9.169400	28.798732	7.541055E-6	20.787341
2505.688875	-3.015300	3.042900	-9.174800	28.781413	6.286963E-6	20.778903
2506.692236	-3.004700	3.041900	-9.139200	28.787357	5.824929E-6	20.796271
2507.689754	-3.008100	3.040300	-9.144600	28.689744	8.300111E-6	20.786614
2508.690419	-3.016300	3.038200	-9.162200	28.659192	4.042798E-6	20.778600
2509.690471	-2.995500	3.037900	-9.098300	28.606386	7.607060E-6	20.773306
2510.688582	-2.990100	3.037100	-9.080400	28.536088	5.758924E-6	20.774105
2511.691850	-2.995300	3.036100	-9.093100	28.485705	6.781999E-6	20.780264
2512.690661	-3.016300	3.034200	-9.151400	28.471851	3.514759E-6	20.787176
2513.686657	-2.991500	3.034900	-9.078400	28.586234	4.834856E-6	20.773398
2514.689174	-2.977100	3.033600	-9.030900	28.613291	5.098875E-6	20.772199
2515.691773	-2.972200	3.031000	-9.007900	28.670452	4.570836E-6	20.801321
2516.689236	-2.985800	3.031000	-9.048700	28.761403	5.428900E-6	20.793360
2517.691198	-3.005600	3.029200	-9.103900	28.779833	2.689698E-6	20.793907
2518.691119	-2.979500	3.027300	-9.019400	28.723319	3.415751E-6	20.775387
2519.687135	-3.006000	3.025300	-9.092900	28.754761	2.953717E-6	20.784299
2520.687900	-2.987100	3.025600	-9.037500	28.755777	1.567615E-6	20.776313
2521.696582	-3.024500	3.021800	-9.138600	28.737714	3.580764E-6	20.779456
2522.690814	-3.002100	3.022900	-9.073600	28.820533	2.458681E-6	20.767101
2523.688887	-3.021500	3.020700	-9.125900	28.820087	1.765630E-6	20.788937
2524.697281	-3.002700	3.018600	-9.063300	28.739149	1.336598E-6	20.792281
2525.690118	-3.012700	3.017400	-9.090000	28.735928	2.755703E-6	20.779079
2526.694828	-2.993500	3.016800	-9.029300	28.743437	1.336598E-6	20.770996
2527.692366	-2.985200	3.015700	-9.000300	28.796899	-1.336598E-6	20.787865
2528.691909	-3.017200	3.014400	-9.093500	28.801111	-8.250608E-8	20.798271
2529.693035	-2.986400	3.013100	-8.997800	28.793059	1.468608E-6	20.765030
2530.696160	-3.026300	3.011100	-9.112000	28.788749	-4.455328E-7	20.798147
2531.688824	-3.012900	3.009800	-9.066700	28.846100	-1.204589E-6	20.782425
2532.691074	-3.008000	3.009100	-9.049800	28.913208	1.996647E-6	20.775114
2533.696355	-3.003200	3.006700	-9.028900	28.935604	1.798632E-6	20.770650
2534.689088	-3.025800	3.005300	-9.092700	28.959183	1.633620E-6	20.784923
2535.692660	-3.011800	3.004100	-9.046500	28.888117	3.448754E-6	20.790615
2536.691646	-3.014300	3.002400	-9.048700	28.875954	1.138584E-6	20.791637
2537.690254	-3.024800	3.001400	-9.077400	28.774211	1.765630E-6	20.782080
2538.693893	-2.981500	3.001600	-8.948200	28.762692	9.735717E-7	20.782805
2539.693347	-3.012300	2.999100	-9.033000	28.759101	3.151732E-6	20.782032
2540.690933	-2.996400	2.997000	-8.978700	28.769629	2.590691E-6	20.759446
2541.694143	-2.985400	2.996300	-8.944300	28.784519	6.435474E-7	20.809533
2542.700559	-2.982400	2.995200	-8.932000	28.814100	2.293669E-6	20.767259
2543.691895	-2.999900	2.993600	-8.979200	28.797699	3.151732E-6	20.794360
2544.696607	-2.993100	2.992300	-8.955600	28.734648	3.943790E-6	20.771151
2545.699883	-3.037200	2.989800	-9.080300	28.691810	2.755703E-6	20.793911
2546.697254	-2.993700	2.990500	-8.951900	28.708881	4.108802E-6	20.789294
2547.696882	-2.982000	2.989800	-8.914700	28.798614	6.319965E-6	20.794808
2548.700728	-3.033500	2.984700	-9.053800	28.852048	7.409045E-6	20.775615
2549.694116	-2.990300	2.985400	-8.926500	28.923463	4.966866E-6	20.774067
2550.697400	-3.033300	2.983500	-9.048300	28.964086	3.085727E-6	20.772793
2551.695665	-2.999200	2.982800	-8.944400	28.960296	4.834856E-6	20.790786
2552.696239	-2.966600	2.981800	-8.845000	28.950411	3.811781E-6	20.794103
2553.703483	-2.997300	2.979600	-8.929500	29.028533	3.382749E-6	20.779878
2554.697882	-2.999600	2.977800	-8.931400	29.055158	5.659917E-6	20.764978
2555.697981	-3.012600	2.977700	-8.969100	28.958853	3.580764E-6	20.781272
2556.697122	-2.993800	2.976300	-8.909700	28.868562	1.963645E-6	20.779449
2557.698393	-2.996600	2.972300	-8.906100	28.851690	3.646768E-6	20.781893
2558.694808	-2.991500	2.972800	-8.891400	28.850056	4.603839E-6	20.779772
2559.698724	-2.999900	2.970100	-8.909200	28.878193	5.098875E-6	20.774453
2560.701113	-3.010600	2.969900	-8.940200	28.881340	2.986720E-6	20.794218
2561.697687	-3.002100	2.967300	-8.907400	28.806053	3.085727E-6	20.793293
2562.701509	-2.999400	2.966800	-8.897800	28.799363	2.623693E-6	20.789872
2563.704460	-3.029700	2.962100	-8.973700	28.838753	4.537834E-6	20.783085
2564.702145	-3.026100	2.963000	-8.965300	28.910938	3.943790E-6	20.782310
2565.704234	-3.018100	2.960600	-8.934100	28.920198	4.966866E-6	20.779312
2566.706445	-2.988400	2.960500	-8.846400	28.955422	6.649990E-6	20.791092
2567.700778	-3.001100	2.958500	-8.877100	28.928991	4.801853E-6	20.789118
2568.704291	-3.003400	2.955500	-8.875900	28.956756	5.230885E-6	20.785797
2569.705286	-3.009900	2.953900	-8.889200	28.972013	4.570836E-6	20.799272
2570.702603	-3.000700	2.954900	-8.866000	28.997971	5.197883E-6	20.783225
2571.704335	-2.984400	2.952800	-8.811200	29.045227	5.758924E-6	20.759714
2572.707398	-2.982600	2.950600	-8.799900	29.076557	5.494905E-6	20.789385
2573.705414	-3.003200	2.948700	-8.855100	29.095306	4.768851E-6	20.802587
2574.708070	-3.017900	2.947900	-8.895600	29.048714	4.141805E-6	20.782194
2575.709369	-2.999900	2.945000	-8.834000	28.955804	4.141805E-6	20.800485
2576.709079	-2.997600	2.943400	-8.822500	28.936087	4.735849E-6	20.797690
2577.709062	-2.980000	2.943300	-8.769800	28.996894	4.504832E-6	20.794942
2578.710895	-2.992800	2.941500	-8.801900	29.003554	4.702846E-6	20.787428
2579.704903	-3.008600	2.940100	-8.845000	28.997286	4.537834E-6	20.803872
2580.707366	-2.995900	2.937700	-8.800000	29.039244	3.844783E-6	20.791619
2581.713326	-2.989400	2.936000	-8.776500	29.088824	5.956939E-6	20.788943
2582.704359	-2.993100	2.934200	-8.781600	29.048551	3.943790E-6	20.800048
2583.710187	-2.980200	2.933000	-8.739700	29.033171	5.065873E-6	20.800673
2584.712404	-2.962900	2.932500	-8.687100	28.994234	3.085727E-6	20.807435
2585.707055	-2.996700	2.929400	-8.777100	28.915536	3.349747E-6	20.803538
2586.708800	-3.007900	2.928000	-8.806600	28.851674	3.085727E-6	20.799420
2587.712998	-2.989600	2.927700	-8.751800	28.878746	1.831635E-6	20.803934
2588.711487	-3.007800	2.925100	-8.797000	28.858853	4.603839E-6	20.786264
2589.710927	-3.004500	2.924100	-8.783600	28.825262	3.976793E-6	20.806953
2590.712897	-2.990400	2.921700	-8.735900	28.816267	3.514759E-6	20.801685
2591.711805	-2.989200	2.919400	-8.725300	28.927565	2.161659E-6	20.805700
2592.714413	-2.992000	2.918200	-8.730700	29.007596	3.646768E-6	20.802880
2593.712805	-3.010100	2.916100	-8.776400	29.087817	4.966866E-6	20.799308
2594.712533	-2.984400	2.915500	-8.700000	29.064162	6.352968E-6	20.838536
2595.712911	-2.968500	2.913300	-8.647600	29.083651	4.405824E-6	20.820241
2596.715008	-2.995700	2.910900	-8.719300	29.125854	6.286963E-6	20.809187
2597.714604	-2.997200	2.908000	-8.715600	29.161392	5.725922E-6	20.817970
2598.714404	-2.978200	2.908600	-8.661600	29.103312	3.877785E-6	20.805913
2599.715448	-3.004700	2.904700	-8.726600	29.124907	4.174807E-6	20.799697
2600.713750	-2.993800	2.904100	-8.692800	29.108411	4.207810E-6	20.811524
2601.717134	-2.988600	2.901500	-8.669800	29.203333	3.514759E-6	20.811870
2602.716624	-2.969100	2.901100	-8.613100	29.240230	4.042798E-6	20.805431
2603.713546	-3.001300	2.898400	-8.698300	29.243723	6.980014E-6	20.810373
2604.715571	-2.993400	2.897100	-8.671400	29.216306	5.956939E-6	20.830159
2605.717136	-2.969400	2.894600	-8.594100	29.194584	4.108802E-6	20.811588
2606.714201	-3.026800	2.892100	-8.752700	29.095843	6.649990E-6	20.817353
2607.716927	-2.978300	2.892200	-8.612600	29.130414	3.778778E-6	20.809988
2608.720363	-2.998100	2.889200	-8.661300	29.193169	4.108802E-6	20.832447
2609.719638	-2.962600	2.889500	-8.559800	29.183411	4.207810E-6	20.819295
2610.714571	-3.021400	2.885500	-8.717400	29.250616	5.164880E-6	20.830122
2611.721769	-2.999900	2.885100	-8.653800	29.257994	3.250739E-6	20.804841
2612.719313	-2.995300	2.881600	-8.630100	29.206411	5.197883E-6	20.816868
2613.721490	-3.007700	2.880500	-8.663100	29.210668	4.042798E-6	20.806460
2614.720427	-2.976600	2.878500	-8.567200	29.204424	5.362895E-6	20.820556
2615.721198	-2.992800	2.877000	-8.609700	29.223962	6.583985E-6	20.831236
2616.720072	-2.989300	2.875400	-8.594700	29.196621	5.065873E-6	20.818382
2617.721214	-2.975700	2.873400	-8.549000	29.239288	2.590691E-6	20.830085
2618.721292	-3.006700	2.869700	-8.626900	29.332442	3.514759E-6	20.831505
2619.718401	-2.982400	2.868700	-8.555300	29.330979	1.963645E-6	20.835721
2620.727333	-2.995100	2.866100	-8.583300	29.379060	3.019722E-6	20.814480
2621.723805	-3.003100	2.864300	-8.601200	29.381164	3.844783E-6	20.841255
2622.720623	-3.018900	2.863300	-8.643200	29.381435	2.590691E-6	20.831098
2623.729817	-2.979800	2.861000	-8.524800	29.322230	1.633620E-6	20.845869
2624.720421	-3.015000	2.859900	-8.621400	29.269016	1.567615E-6	20.835862
2625.723596	-3.005200	2.856900	-8.584600	29.302988	1.468608E-6	20.829796
2626.728743	-2.987000	2.855200	-8.527700	29.352040	1.996647E-6	20.849834
2627.719944	-3.008500	2.853100	-8.582900	29.368331	1.501611E-6	20.845390
2628.726408	-3.043600	2.850700	-8.675300	29.291918	-4.785352E-7	20.834761
2629.728310	-3.005300	2.849200	-8.562200	29.260492	-1.468608E-6	20.841022
2630.723269	-3.021900	2.847300	-8.603100	29.268022	-1.171586E-6	20.853825
2631.725196	-3.008700	2.844000	-8.555500	29.253287	-8.250608E-8	20.826649
2632.724596	-2.981600	2.843900	-8.478700	29.312371	-2.475182E-7	20.845415
2633.719651	-2.993300	2.841300	-8.504000	29.345648	5.445401E-7	20.842918
2634.724142	-3.005900	2.838500	-8.531700	29.403885	2.425679E-6	20.868422
2635.726571	-2.991800	2.837300	-8.487900	29.426365	-2.145158E-7	20.827545
2636.721922	-2.998900	2.834000	-8.498000	29.383358	7.095522E-7	20.848208
2637.730405	-3.004700	2.831900	-8.508400	29.322992	1.600618E-6	20.841896
2638.727491	-3.014700	2.828300	-8.526000	29.257472	3.976793E-6	20.846039
2639.722791	-2.966000	2.828700	-8.388600	29.289564	2.161659E-6	20.829069
2640.731349	-2.983400	2.824900	-8.427100	29.280129	9.735717E-7	20.827622
2641.729801	-2.980300	2.823000	-8.411600	29.247641	1.996647E-6	20.863157
2642.722257	-2.986300	2.821600	-8.424800	29.239492	2.194662E-6	20.847834
2643.727648	-2.980700	2.817700	-8.397900	29.282753	1.534613E-6	20.851602
2644.728430	-2.984000	2.815100	-8.399100	29.374445	9.405693E-7	20.850604
2645.726933	-3.017300	2.812800	-8.486000	29.482666	1.963645E-6	20.849681
2646.726822	-2.994700	2.811000	-8.417300	29.432456	3.382749E-6	20.864977
2647.728050	-2.995800	2.807600	-8.409700	29.403067	1.567615E-6	20.862857
2648.727459	-2.997600	2.804500	-8.405700	29.351814	2.689698E-6	20.869519
2649.728554	-3.030600	2.800900	-8.487700	29.384347	1.006574E-6	20.864377
2650.732497	-2.997600	2.799500	-8.391200	29.449391	1.600618E-6	20.860710
2651.729702	-2.978800	2.797000	-8.330600	29.376820	-3.795279E-7	20.849679
2652.728900	-3.001000	2.794800	-8.386200	29.416683	8.415620E-7	20.866623
2653.729684	-2.987100	2.792100	-8.339300	29.433196	1.369601E-6	20.841542
2654.729475	-3.009000	2.788300	-8.389500	29.474939	1.534613E-6	20.850426
2655.730165	-3.014900	2.786800	-8.401000	29.503236	7.095522E-7	20.845285
2656.729239	-3.026700	2.782700	-8.421400	29.518163	3.795279E-7	20.853693
2657.730774	-2.972800	2.782900	-8.271800	29.508805	-1.815134E-7	20.873656
2658.732991	-3.002700	2.776300	-8.335700	29.504052	-2.805207E-7	20.838521
2659.732892	-2.980000	2.774500	-8.267800	29.473425	-4.125304E-7	20.855064
2660.731148	-2.984800	2.771800	-8.271600	29.513113	9.405693E-7	20.861404
2661.729907	-2.980900	2.769700	-8.255200	29.575275	3.135231E-7	20.858634
2662.736203	-2.981300	2.766000	-8.244600	29.570301	-6.765498E-7	20.875429
2663.735620	-2.984300	2.764000	-8.247600	29.551139	4.950364E-8	20.852321
2664.733039	-3.001600	2.760300	-8.284600	29.524500	-1.155085E-7	20.847279
2665.739968	-3.013300	2.756400	-8.305200	29.574608	-8.250608E-8	20.880719
2666.734786	-2.973500	2.754900	-8.190100	29.618449	1.732628E-6	20.877499
2667.736071	-2.972500	2.751000	-8.176900	29.644912	1.633620E-6	20.867669
2668.736687	-3.031600	2.746000	-8.323300	29.738279	2.145158E-7	20.863650
2669.736023	-2.992200	2.744000	-8.208800	29.778029	8.250607E-8	20.852045
2670.743966	-3.006600	2.740300	-8.237700	29.782633	-1.006574E-6	20.881816
2671.734668	-2.982000	2.738200	-8.164600	29.672536	8.250607E-8	20.858534
2672.737971	-2.994600	2.734400	-8.187600	29.619463	1.435606E-6	20.865246
2673.740220	-2.992200	2.731400	-8.172100	29.631322	1.600618E-6	20.870563
2674.738695	-3.046500	2.726700	-8.305800	29.678946	3.250739E-6	20.864996
2675.738981	-3.012000	2.723400	-8.202400	29.740136	2.128657E-6	20.879745
2676.743145	-3.007700	2.719500	-8.178200	29.690633	9.405693E-7	20.866348
2677.744480	-2.999100	2.716900	-8.147000	29.637089	-7.755571E-7	20.876377
2678.741460	-2.996600	2.713600	-8.130500	29.631470	8.085595E-7	20.885884
2679.743268	-2.999900	2.708600	-8.124200	29.564656	-5.775425E-7	20.871162
2680.740180	-3.013300	2.706400	-8.153600	29.634514	1.237591E-6	20.877574
2681.742714	-2.997000	2.701100	-8.094100	29.712957	1.534613E-6	20.870837
2682.744107	-3.015500	2.697300	-8.132600	29.798549	6.765498E-7	20.874157
2683.741322	-3.014400	2.693000	-8.117100	29.804117	1.402603E-6	20.865072
2684.744686	-3.004700	2.688300	-8.076500	29.720658	9.735717E-7	20.884290
2685.745035	-3.012100	2.684200	-8.084000	29.602658	7.095522E-7	20.880072
2686.741580	-3.015100	2.680100	-8.080300	29.636646	3.465255E-7	20.869292
2687.744851	-3.000800	2.677100	-8.033200	29.670609	9.405693E-7	20.885513
2688.743370	-3.003000	2.671900	-8.022700	29.617288	-1.435606E-6	20.859261
2689.747669	-2.978700	2.668200	-7.947000	29.618553	-1.534613E-6	20.893250
2690.749383	-3.007600	2.662900	-8.007700	29.616326	-1.600618E-6	20.874886
2691.747463	-3.020100	2.658500	-8.028100	29.663285	1.204589E-6	20.869596
2692.745595	-3.013500	2.654600	-7.998600	29.664842	8.415620E-7	20.866898
2693.746435	-2.976100	2.650100	-7.886100	29.663012	-1.567615E-6	20.864105
2694.747220	-3.006800	2.645200	-7.952800	29.626600	-3.135231E-7	20.874337
2695.747420	-2.993900	2.640800	-7.905600	29.653706	-7.425547E-7	20.893128
2696.745519	-2.973500	2.636400	-7.838700	29.628631	4.950364E-8	20.864532
2697.754660	-3.024000	2.631200	-7.955800	29.695716	8.250607E-8	20.881902
2698.751492	-3.001200	2.625800	-7.879600	29.691680	-5.775425E-7	20.874515
2699.747543	-3.015500	2.620000	-7.899800	29.670989	-4.125304E-7	20.884473
2700.747830	-2.989900	2.616400	-7.821700	29.707301	7.755571E-7	20.880306
2701.747519	-3.011500	2.610300	-7.860200	29.693740	-1.798632E-6	20.894608
2702.748345	-3.006800	2.605000	-7.831200	29.750421	-6.765498E-7	20.886322
2703.745844	-3.002000	2.599500	-7.802800	29.754284	8.415620E-7	20.887372
2704.752939	-3.018100	2.593500	-7.826800	29.755672	-2.161659E-6	20.873599
2705.747231	-3.022800	2.588300	-7.822600	29.764088	1.650122E-8	20.871179
2706.744990	-3.012500	2.583400	-7.781300	29.815669	1.006574E-6	20.881935
2707.750472	-2.992100	2.577200	-7.710200	29.938743	-6.435474E-7	20.882759
2708.751138	-3.004300	2.571300	-7.722500	29.971954	-5.115377E-7	20.903446
2709.750066	-3.023600	2.564600	-7.753600	29.977992	-3.283742E-6	20.889622
2710.752670	-2.988400	2.560200	-7.650600	29.956317	-1.402603E-6	20.890997
2711.750454	-3.025200	2.553600	-7.724000	29.872473	-3.151732E-6	20.884684
2712.747534	-3.007900	2.547900	-7.663000	29.836762	-2.689698E-6	20.901779
2713.755419	-3.014100	2.541100	-7.658000	29.871561	-1.798632E-6	20.900359
2714.752809	-2.992800	2.536200	-7.589600	29.828348	-8.415620E-7	20.884763
2715.750206	-2.983300	2.529600	-7.545800	29.879135	4.455328E-7	20.899936
2716.746318	-3.012300	2.521700	-7.595300	29.984039	-8.250608E-8	20.924640
2717.747455	-3.004300	2.516600	-7.559100	29.944422	1.567615E-6	20.905553
2718.752584	-2.979700	2.510700	-7.480400	29.985154	1.039577E-6	20.909644
2719.753354	-3.015100	2.503100	-7.546300	30.010446	5.445401E-7	20.879678
2720.751739	-3.014800	2.497400	-7.527800	30.040733	4.455328E-7	20.893152
