LabVIEW Measurement	
Writer_Version	2
Reader_Version	2
Separator	Tab
Decimal_Separator	.
Multi_Headings	No
X_Columns	One
Time_Pref	Absolute
Operator	admin
Description	Clolumns are: time, Current, Voltage, Power, Battery Temp, and Chamber Temp
Date	2024/08/16
Time	13:07:17.8513970375061035156
***End_of_Header***	
	
Channels	6						
Samples	1	1	1	1	1	1	
Date	2024/09/18	2024/09/18	2024/09/18	2024/09/18	2024/09/18	2024/09/18	
Time	01:19:12.6226096153259277344	01:19:12.6291208267211914062	01:19:12.6341152191162109375	01:19:12.5855593681335449219	01:19:12.5855593681335449219	01:19:12.5855593681335449219	
X_Dimension	Time	Time	Time	Time	Time	Time	
X0	0.0000000000000000E+0	0.0000000000000000E+0	0.0000000000000000E+0	0.0000000000000000E+0	0.0000000000000000E+0	0.0000000000000000E+0	
Delta_X	1.000000	1.000000	1.000000	1.000000	1.000000	1.000000	
***End_of_Header***							
X_Value	Untitled	Untitled 1	Untitled 2	Untitled 3	Untitled 4	Untitled 5	Comment
0.000000	-0.005682	4.085400	-0.023074	20.915404	0.000472	20.798769
0.984544	-2.980800	3.913700	-11.666000	20.930951	0.000466	20.801040
1.997872	-3.004800	3.908500	-11.743000	20.940857	0.000469	20.806680
2.995798	-2.973200	3.903700	-11.605000	20.926110	0.000465	20.793828
3.985797	-2.977900	3.899900	-11.612000	20.915032	0.000465	20.817837
4.997773	-2.991500	3.897100	-11.657000	20.934894	0.000467	20.797872
5.996694	-3.000400	3.893700	-11.682000	20.939136	0.000462	20.805434
6.985462	-2.987200	3.892800	-11.627000	20.948194	0.000466	20.797423
7.983174	-2.973200	3.891100	-11.568000	20.954532	0.000462	20.812771
8.994399	-2.994400	3.888000	-11.641000	20.945425	0.000464	20.788015
10.000508	-3.006000	3.885400	-11.679000	20.964289	0.000464	20.786968
10.985887	-3.002100	3.884200	-11.660000	20.968830	0.000460	20.793880
11.991311	-2.995700	3.884100	-11.635000	20.987195	0.000461	20.790911
12.983840	-2.997900	3.882800	-11.639000	20.991237	0.000460	20.796850
13.985941	-2.995600	3.880800	-11.624000	21.006981	0.000460	20.802640
14.991705	-3.014200	3.879900	-11.694000	21.021977	0.000459	20.787767
16.005442	-2.995300	3.881100	-11.624000	21.012596	0.000460	20.793083
16.993753	-2.996500	3.879500	-11.624000	21.034602	0.000459	20.808929
17.992649	-3.001600	3.878300	-11.640000	21.033079	0.000458	20.783699
18.997004	-3.007700	3.876200	-11.658000	21.048599	0.000457	20.795903
19.990538	-3.013500	3.876200	-11.680000	21.067163	0.000456	20.797401
20.993361	-2.984100	3.875200	-11.563000	21.051219	0.000456	20.793308
21.995391	-3.004900	3.875000	-11.643000	21.069756	0.000456	20.787667
22.992258	-2.979600	3.873600	-11.540000	21.058055	0.000458	20.795403
24.001567	-3.010000	3.872500	-11.655000	21.070804	0.000455	20.793931
24.996459	-3.013300	3.872600	-11.668000	21.082705	0.000456	20.775489
25.990389	-3.012900	3.871400	-11.663000	21.092336	0.000457	20.786544
26.995001	-3.000200	3.871100	-11.613000	21.121227	0.000455	20.786994
27.996672	-2.989100	3.872000	-11.573000	21.098223	0.000455	20.791959
28.994357	-2.988200	3.871700	-11.568000	21.121951	0.000457	20.791037
29.996377	-3.011700	3.869900	-11.654000	21.142532	0.000456	20.790288
30.997299	-3.028100	3.868200	-11.712000	21.152113	0.000453	20.780905
31.997118	-3.019300	3.867900	-11.677000	21.163290	0.000454	20.784499
33.008138	-2.978400	3.868200	-11.520000	21.155406	0.000455	20.779457
34.000343	-2.993200	3.868600	-11.578000	21.163539	0.000454	20.789489
34.999518	-2.992800	3.867100	-11.573000	21.171772	0.000453	20.793932
36.002686	-3.009700	3.867200	-11.638000	21.170574	0.000452	20.790363
37.003926	-2.987500	3.866400	-11.550000	21.191130	0.000450	20.775364
38.010808	-2.989200	3.866500	-11.557000	21.172370	0.000452	20.776038
39.002460	-2.980600	3.866800	-11.524000	21.196943	0.000451	20.779756
39.998572	-2.997700	3.866000	-11.589000	21.191006	0.000453	20.781404
40.998406	-2.990800	3.865600	-11.561000	21.228176	0.000451	20.791560
42.001129	-3.006400	3.863600	-11.615000	21.239850	0.000452	20.782376
43.005573	-2.977500	3.865000	-11.507000	21.242769	0.000449	20.771545
43.998028	-2.979900	3.866400	-11.521000	21.252597	0.000448	20.776636
45.004862	-2.986600	3.864300	-11.541000	21.274499	0.000450	20.774365
46.021091	-3.018600	3.862900	-11.660000	21.275771	0.000451	20.779431
47.005038	-3.005100	3.864100	-11.611000	21.282881	0.000451	20.789388
48.008276	-2.998300	3.861600	-11.577000	21.278216	0.000449	20.768126
49.019508	-2.992700	3.864100	-11.563000	21.286946	0.000451	20.774489
50.012007	-3.003100	3.863000	-11.601000	21.312290	0.000449	20.769499
51.003621	-2.995700	3.861800	-11.568000	21.321120	0.000451	20.787816
52.003803	-3.021900	3.861700	-11.669000	21.320222	0.000452	20.785969
53.007513	-3.029200	3.860800	-11.694000	21.320122	0.000452	20.776385
54.008162	-2.986100	3.862000	-11.531000	21.343520	0.000450	20.766604
55.000876	-3.010300	3.860300	-11.619000	21.343020	0.000448	20.789338
56.010530	-3.000300	3.862100	-11.586000	21.341998	0.000448	20.768399
57.008544	-2.999600	3.861700	-11.582000	21.358435	0.000451	20.780103
58.010357	-3.005000	3.860200	-11.598000	21.366193	0.000450	20.763683
59.004156	-3.000200	3.858300	-11.575000	21.383528	0.000450	20.776285
60.021114	-2.992100	3.861000	-11.552000	21.395376	0.000447	20.774389
61.006178	-3.023500	3.859700	-11.669000	21.397346	0.000450	20.758342
62.008009	-2.997000	3.859000	-11.565000	21.421165	0.000451	20.775536
63.020955	-3.002800	3.859500	-11.588000	21.433861	0.000450	20.775910
64.012435	-2.996400	3.859300	-11.564000	21.406249	0.000448	20.771043
65.014887	-2.997800	3.859700	-11.569000	21.428722	0.000450	20.776932
66.011688	-2.984800	3.859300	-11.518000	21.439621	0.000449	20.760337
67.011561	-2.999900	3.858500	-11.574000	21.444285	0.000449	20.766900
68.015230	-2.984800	3.858300	-11.515000	21.456781	0.000448	20.760911
69.012231	-3.007200	3.859700	-11.606000	21.462418	0.000450	20.758016
70.010330	-3.010000	3.858000	-11.611000	21.465560	0.000451	20.757367
71.008190	-3.005500	3.859200	-11.598000	21.487582	0.000451	20.754746
72.007793	-2.996900	3.858400	-11.562000	21.507735	0.000448	20.768273
73.011882	-2.991000	3.858200	-11.540000	21.501449	0.000450	20.783321
74.012781	-3.006400	3.856200	-11.592000	21.501448	0.000448	20.763879
75.017490	-2.993700	3.857800	-11.547000	21.519680	0.000449	20.771691
76.005675	-2.986400	3.856700	-11.517000	21.540130	0.000451	20.777929
77.005486	-2.989800	3.857600	-11.532000	21.560954	0.000448	20.754196
78.012209	-3.009200	3.856000	-11.602000	21.563049	0.000449	20.745386
79.016257	-3.001200	3.855600	-11.570000	21.553571	0.000449	20.767671
80.007760	-2.993700	3.857400	-11.547000	21.571877	0.000449	20.768920
81.006814	-3.015200	3.856300	-11.627000	21.574594	0.000451	20.766423
82.018146	-2.998600	3.856600	-11.564000	21.588162	0.000452	20.752972
83.003971	-3.009600	3.856100	-11.605000	21.603972	0.000449	20.767846
84.015624	-2.988300	3.857100	-11.525000	21.640979	0.000451	20.773111
85.020766	-2.998100	3.855600	-11.558000	21.618610	0.000449	20.763054
86.009706	-2.985000	3.855000	-11.507000	21.628112	0.000451	20.764028
87.018206	-2.997600	3.853400	-11.550000	21.643847	0.000452	20.763179
88.006855	-3.024000	3.853600	-11.652000	21.637288	0.000450	20.759934
89.010789	-3.002500	3.854400	-11.572000	21.653497	0.000450	20.779475
90.010638	-2.998800	3.854900	-11.559000	21.647114	0.000451	20.774509
91.021088	-3.017000	3.853200	-11.624000	21.662424	0.000451	20.760432
92.012918	-3.014500	3.854500	-11.619000	21.652599	0.000451	20.760557
93.019713	-2.975900	3.855500	-11.473000	21.678558	0.000452	20.773260
94.009445	-3.001300	3.853200	-11.564000	21.696437	0.000453	20.753695
95.016002	-2.993500	3.854200	-11.537000	21.703569	0.000450	20.755616
96.018168	-3.005900	3.853400	-11.582000	21.704317	0.000453	20.769167
97.023741	-2.992600	3.853800	-11.532000	21.717683	0.000454	20.785389
98.015317	-2.999800	3.853400	-11.558000	21.710352	0.000454	20.767621
99.012986	-3.009300	3.852500	-11.592000	21.728728	0.000454	20.756140
100.018364	-3.007500	3.852200	-11.584000	21.735013	0.000452	20.752946
101.011186	-3.001000	3.853600	-11.564000	21.737007	0.000454	20.763951
102.018918	-2.997800	3.852000	-11.547000	21.736882	0.000452	20.783741
103.020767	-2.988100	3.853300	-11.513000	21.756356	0.000453	20.751547
104.022191	-3.029800	3.850300	-11.665000	21.797847	0.000454	20.749925
105.023421	-3.008300	3.850900	-11.583000	21.769522	0.000453	20.750500
106.019458	-3.004300	3.852700	-11.574000	21.780393	0.000454	20.778450
107.024176	-3.010300	3.852400	-11.596000	21.794381	0.000453	20.775380
108.017203	-3.008200	3.852600	-11.589000	21.784681	0.000453	20.766620
109.019921	-2.982800	3.850800	-11.485000	21.819863	0.000456	20.762004
110.012533	-2.995500	3.851400	-11.536000	21.839560	0.000453	20.755166
111.020090	-2.986600	3.850500	-11.499000	21.822605	0.000457	20.773758
112.036219	-3.000400	3.851500	-11.555000	21.862148	0.000454	20.775404
113.024780	-3.003900	3.850600	-11.566000	21.868582	0.000453	20.784215
114.024077	-2.979100	3.850700	-11.470000	21.883640	0.000455	20.771786
115.024105	-2.998800	3.849600	-11.543000	21.879352	0.000457	20.803056
116.022666	-3.002900	3.849900	-11.560000	21.896480	0.000455	20.767569
117.035558	-3.000700	3.850100	-11.551000	21.888378	0.000455	20.777477
118.038976	-3.009300	3.849900	-11.585000	21.915453	0.000456	20.757162
119.016299	-2.997300	3.849700	-11.538000	21.916849	0.000457	20.767095
120.022453	-3.013000	3.849400	-11.597000	21.925252	0.000456	20.762703
121.015995	-2.993000	3.850200	-11.523000	21.933628	0.000456	20.780097
122.022016	-2.994400	3.849300	-11.525000	21.930687	0.000458	20.770515
123.015990	-2.998600	3.848300	-11.539000	21.942054	0.000456	20.774307
124.018919	-2.993500	3.848000	-11.518000	21.948437	0.000456	20.769790
125.022221	-3.009200	3.849000	-11.581000	21.972197	0.000457	20.783617
126.015794	-3.001900	3.849200	-11.555000	21.969777	0.000457	20.776454
127.020347	-3.000800	3.848300	-11.547000	21.989074	0.000459	20.787235
128.020342	-3.008000	3.848300	-11.574000	21.987478	0.000457	20.790379
129.026704	-3.013000	3.848400	-11.594000	21.976210	0.000458	20.793798
130.026129	-3.014500	3.846300	-11.593000	21.995954	0.000458	20.778950
131.023127	-3.009800	3.847100	-11.579000	21.995880	0.000460	20.779350
132.034965	-2.990000	3.847500	-11.504000	21.982393	0.000458	20.778650
133.025851	-2.990300	3.848100	-11.506000	22.016596	0.000460	20.779699
134.029760	-2.995400	3.847400	-11.524000	22.037661	0.000461	20.778027
135.031774	-3.022600	3.845900	-11.624000	22.042771	0.000460	20.772237
136.030166	-3.003900	3.847000	-11.555000	22.044516	0.000460	20.778725
137.023186	-2.980100	3.846600	-11.463000	22.047408	0.000458	20.787310
138.038894	-2.986600	3.847000	-11.488000	22.050549	0.000463	20.773860
139.019502	-2.998600	3.846100	-11.531000	22.063188	0.000461	20.804056
140.021308	-3.007700	3.844900	-11.563000	22.085049	0.000462	20.794174
141.030111	-2.989600	3.847100	-11.501000	22.075402	0.000461	20.791628
142.026727	-3.009900	3.844700	-11.571000	22.122689	0.000461	20.797717
143.031327	-2.991400	3.845600	-11.503000	22.122988	0.000463	20.788533
144.039349	-3.014200	3.846400	-11.593000	22.114588	0.000463	20.794348
145.031398	-3.024500	3.844500	-11.627000	22.127400	0.000463	20.805278
146.027858	-3.002600	3.845200	-11.545000	22.138518	0.000463	20.798865
147.032768	-2.977300	3.845100	-11.447000	22.150133	0.000463	20.791054
148.031408	-2.987900	3.843800	-11.484000	22.181341	0.000463	20.792901
149.035428	-3.011800	3.844300	-11.577000	22.192008	0.000464	20.778925
150.034671	-2.981500	3.845700	-11.465000	22.185203	0.000466	20.792501
151.026396	-2.999000	3.843900	-11.527000	22.201256	0.000463	20.795297
152.033550	-2.983300	3.845400	-11.471000	22.227875	0.000465	20.792077
153.055841	-2.969000	3.844700	-11.414000	22.214266	0.000466	20.795995
154.031065	-3.004400	3.844300	-11.549000	22.220671	0.000466	20.787709
155.032098	-2.994200	3.843600	-11.507000	22.217531	0.000465	20.780772
156.039535	-3.000300	3.843000	-11.529000	22.231215	0.000467	20.783093
157.033963	-3.007700	3.842900	-11.557000	22.235527	0.000466	20.799265
158.035467	-3.011700	3.842700	-11.572000	22.218953	0.000466	20.803058
159.025796	-2.982500	3.842900	-11.460000	22.225183	0.000468	20.808348
160.035056	-3.008300	3.842200	-11.558000	22.243577	0.000468	20.835299
161.029764	-3.007200	3.842900	-11.555000	22.255665	0.000467	20.808522
162.040523	-3.005200	3.840900	-11.542000	22.259180	0.000468	20.794973
163.035746	-2.981600	3.842200	-11.455000	22.289337	0.000466	20.802883
164.030067	-2.965700	3.843700	-11.399000	22.284427	0.000469	20.806027
165.041297	-2.981600	3.841400	-11.453000	22.296266	0.000469	20.815985
166.028792	-2.988100	3.842100	-11.480000	22.316056	0.000468	20.806403
167.029418	-3.002700	3.841800	-11.536000	22.317600	0.000468	20.819329
168.026751	-2.996000	3.841600	-11.509000	22.329115	0.000469	20.803833
169.034577	-3.007200	3.841200	-11.549000	22.330709	0.000470	20.810171
170.033558	-3.007700	3.842700	-11.556000	22.335543	0.000471	20.795097
171.030729	-3.003200	3.840500	-11.533000	22.343394	0.000470	20.806277
172.039267	-3.012400	3.839500	-11.564000	22.360142	0.000472	20.816409
173.032340	-2.998000	3.839500	-11.510000	22.381001	0.000470	20.801262
174.034045	-3.005700	3.840600	-11.544000	22.379232	0.000472	20.788585
175.030051	-3.012500	3.839200	-11.565000	22.376814	0.000470	20.809397
176.038208	-3.028400	3.838500	-11.623000	22.396204	0.000472	20.799890
177.029369	-2.991200	3.839100	-11.482000	22.389873	0.000469	20.810621
178.036138	-2.986400	3.839700	-11.466000	22.398820	0.000474	20.800613
179.029950	-3.011300	3.839400	-11.561000	22.405575	0.000472	20.829662
180.040513	-2.994300	3.840300	-11.498000	22.401187	0.000474	20.820054
181.031025	-2.994600	3.839000	-11.495000	22.442581	0.000471	20.830686
182.039904	-3.006800	3.837800	-11.539000	22.417212	0.000471	20.819505
183.031349	-2.995300	3.838700	-11.497000	22.438245	0.000474	20.822076
184.033412	-3.000300	3.838100	-11.514000	22.411955	0.000474	20.822301
185.034245	-2.986300	3.839000	-11.463000	22.442257	0.000475	20.821353
186.047419	-3.012200	3.838200	-11.559000	22.448762	0.000477	20.816013
187.036971	-3.010700	3.836500	-11.549000	22.460499	0.000473	20.824922
188.047577	-2.986500	3.837500	-11.459000	22.484845	0.000476	20.829389
189.044245	-3.006700	3.836600	-11.535000	22.503235	0.000476	20.812719
190.034688	-2.988300	3.838100	-11.469000	22.509365	0.000476	20.839720
191.038887	-2.980400	3.837000	-11.435000	22.525711	0.000477	20.800616
192.042678	-2.992800	3.837400	-11.483000	22.532639	0.000477	20.834106
193.042816	-3.018100	3.835200	-11.574000	22.555612	0.000475	20.804010
194.036877	-2.984700	3.837600	-11.454000	22.547864	0.000478	20.826121
195.038035	-3.006400	3.837100	-11.535000	22.551626	0.000477	20.801440
196.032096	-2.989300	3.836500	-11.468000	22.569344	0.000478	20.821556
197.050392	-3.001800	3.835400	-11.512000	22.558354	0.000479	20.838524
198.044266	-2.995300	3.835600	-11.488000	22.581676	0.000478	20.837700
199.053803	-2.988000	3.835500	-11.460000	22.579335	0.000478	20.842942
200.043558	-3.015000	3.834500	-11.560000	22.565357	0.000478	20.838900
201.047627	-3.007300	3.834400	-11.530000	22.586461	0.000481	20.843915
202.042895	-2.990400	3.835600	-11.468000	22.573581	0.000479	20.834334
203.049250	-3.000300	3.834300	-11.503000	22.572783	0.000483	20.830216
204.042772	-3.012600	3.834600	-11.551000	22.576471	0.000481	20.838651
205.049065	-3.010000	3.834200	-11.540000	22.585117	0.000481	20.834034
206.045982	-3.012200	3.834700	-11.548000	22.613745	0.000481	20.842319
207.045428	-2.984500	3.833400	-11.440000	22.613546	0.000481	20.824102
208.044525	-3.004800	3.833700	-11.519000	22.631261	0.000481	20.829043
209.055382	-2.998900	3.833700	-11.496000	22.614368	0.000483	20.858589
210.046708	-2.988500	3.834700	-11.459000	22.627000	0.000479	20.822405
211.057023	-3.004100	3.831900	-11.510000	22.675211	0.000481	20.848882
212.053648	-3.003500	3.832200	-11.509000	22.662156	0.000482	20.842918
213.046363	-2.994900	3.832400	-11.477000	22.694918	0.000481	20.843491
214.051151	-3.006900	3.832200	-11.522000	22.679521	0.000483	20.853199
215.044012	-3.026100	3.831000	-11.592000	22.694146	0.000484	20.844614
216.046354	-2.997700	3.832000	-11.486000	22.695541	0.000483	20.831314
217.051948	-2.989400	3.832500	-11.456000	22.684578	0.000481	20.838825
218.058645	-2.998700	3.830700	-11.487000	22.707747	0.000486	20.846385
219.045697	-3.009000	3.831500	-11.527000	22.707374	0.000485	20.858812
220.063107	-3.005200	3.832200	-11.516000	22.720728	0.000485	20.826671
221.057748	-2.998300	3.830700	-11.484000	22.738764	0.000486	20.843789
222.053895	-3.013800	3.830500	-11.543000	22.736897	0.000486	20.846186
223.052949	-3.015500	3.830400	-11.550000	22.742751	0.000486	20.844463
224.049798	-2.988500	3.831600	-11.450000	22.755306	0.000489	20.858936
225.045328	-2.981000	3.831500	-11.420000	22.742476	0.000487	20.852723
226.053741	-3.004400	3.830100	-11.506000	22.763178	0.000487	20.836003
227.047825	-3.004000	3.828700	-11.500000	22.742875	0.000487	20.861182
228.048186	-3.007700	3.828300	-11.513000	22.745690	0.000487	20.864476
229.045751	-2.997000	3.828800	-11.474000	22.759242	0.000487	20.859560
230.054249	-2.992200	3.829000	-11.456000	22.785101	0.000490	20.853695
231.058479	-3.004300	3.829400	-11.503000	22.805055	0.000488	20.850451
232.049635	-3.009800	3.828300	-11.522000	22.794343	0.000489	20.862479
233.055178	-3.017100	3.828700	-11.550000	22.795264	0.000491	20.857238
234.053088	-2.996700	3.827800	-11.470000	22.790456	0.000491	20.860956
235.049963	-2.998100	3.829100	-11.479000	22.796460	0.000491	20.856066
236.057874	-2.977800	3.828700	-11.401000	22.832258	0.000490	20.860158
237.055138	-2.982500	3.827900	-11.416000	22.851439	0.000493	20.861355
238.049447	-2.993500	3.827800	-11.458000	22.855750	0.000491	20.844812
239.054477	-2.991000	3.827900	-11.449000	22.866310	0.000491	20.861081
240.058060	-3.004000	3.825900	-11.492000	22.884420	0.000492	20.871637
241.056838	-3.005500	3.828100	-11.504000	22.888480	0.000495	20.866221
242.059958	-3.014900	3.826600	-11.536000	22.894583	0.000492	20.849103
243.058147	-2.991200	3.826600	-11.445000	22.919393	0.000491	20.869690
244.063664	-3.011400	3.825900	-11.520000	22.916952	0.000495	20.875779
245.057939	-2.986900	3.826400	-11.427000	22.933044	0.000492	20.868668
246.060582	-2.983100	3.825800	-11.412000	22.925022	0.000494	20.843563
247.060215	-2.999500	3.824600	-11.471000	22.915756	0.000494	20.871736
248.068103	-3.007200	3.825500	-11.503000	22.915981	0.000495	20.898038
249.072047	-3.008800	3.825200	-11.507000	22.932471	0.000495	20.847232
250.059710	-3.003400	3.825300	-11.488000	22.950504	0.000495	20.898487
251.062462	-3.012600	3.823500	-11.519000	22.958374	0.000497	20.869390
252.069684	-3.019200	3.824700	-11.546000	22.949059	0.000494	20.885660
253.063569	-2.994900	3.824000	-11.452000	22.947166	0.000496	20.877600
254.059856	-2.990300	3.824200	-11.435000	22.969983	0.000496	20.893347
255.059109	-2.987400	3.823700	-11.422000	22.990955	0.000495	20.893496
256.061662	-3.012500	3.823200	-11.516000	23.006970	0.000495	20.872086
257.062193	-2.988400	3.822100	-11.422000	23.006696	0.000499	20.877027
258.071548	-2.985000	3.823900	-11.414000	23.045226	0.000498	20.891924
259.064493	-2.977500	3.822500	-11.380000	23.016783	0.000496	20.884762
260.062231	-2.995600	3.823000	-11.451000	23.020046	0.000500	20.901780
261.061233	-3.013400	3.822500	-11.518000	23.028863	0.000498	20.893546
262.064421	-2.994300	3.822300	-11.444000	23.050058	0.000498	20.888705
263.064251	-2.993600	3.821600	-11.440000	23.055912	0.000499	20.869441
264.068504	-2.997600	3.821700	-11.455000	23.056882	0.000497	20.883215
265.070834	-2.996000	3.821400	-11.448000	23.045003	0.000499	20.894070
266.066208	-3.013200	3.821800	-11.515000	23.069809	0.000498	20.883839
267.069662	-3.010500	3.819800	-11.499000	23.066372	0.000501	20.900783
268.064126	-3.008100	3.820500	-11.492000	23.061391	0.000501	20.906222
269.062404	-3.000300	3.820600	-11.461000	23.083855	0.000502	20.894120
270.063520	-3.019800	3.820700	-11.537000	23.108612	0.000501	20.924613
271.068167	-3.008600	3.819000	-11.489000	23.095412	0.000503	20.902854
272.060334	-2.983200	3.821000	-11.398000	23.110205	0.000501	20.900134
273.066535	-2.994000	3.819900	-11.436000	23.109957	0.000502	20.901781
274.070960	-2.987700	3.819800	-11.412000	23.146341	0.000502	20.881817
275.069604	-2.994800	3.819700	-11.439000	23.147562	0.000502	20.898212
276.068165	-3.008200	3.818100	-11.484000	23.126070	0.000505	20.915081
277.063833	-2.987900	3.818600	-11.408000	23.147836	0.000502	20.892798
278.070806	-2.995000	3.818300	-11.435000	23.148931	0.000504	20.894844
279.070815	-3.018300	3.817400	-11.521000	23.166464	0.000504	20.891076
280.066264	-2.987200	3.818100	-11.405000	23.169054	0.000505	20.897938
281.079527	-3.012500	3.816700	-11.497000	23.174010	0.000503	20.900534
282.063995	-3.007700	3.817900	-11.482000	23.199038	0.000505	20.898587
283.083202	-2.984600	3.818500	-11.396000	23.200781	0.000504	20.902704
284.055963	-3.006300	3.818100	-11.478000	23.209472	0.000504	20.911888
285.058224	-2.992000	3.816500	-11.418000	23.229146	0.000507	20.903629
286.059474	-2.982500	3.818100	-11.387000	23.237462	0.000508	20.907696
287.057071	-3.000200	3.816600	-11.450000	23.224464	0.000508	20.904153
288.056926	-3.002300	3.817000	-11.459000	23.208925	0.000506	20.916080
289.078868	-2.973400	3.817200	-11.349000	23.215076	0.000507	20.896642
290.057215	-2.995600	3.816100	-11.431000	23.219609	0.000507	20.911140
291.093280	-3.000800	3.816300	-11.451000	23.184346	0.000505	20.895245
292.074377	-3.000400	3.816300	-11.450000	23.235123	0.000507	20.903929
293.056458	-2.992800	3.815200	-11.416000	23.236717	0.000507	20.902681
294.054399	-2.989900	3.815700	-11.408000	23.277804	0.000507	20.905451
295.085783	-3.011600	3.814000	-11.485000	23.270733	0.000508	20.882719
296.085965	-2.980800	3.816400	-11.375000	23.305047	0.000509	20.900512
297.061210	-3.013300	3.814700	-11.493000	23.332014	0.000508	20.906201
298.059548	-3.008600	3.814000	-11.474000	23.329897	0.000508	20.906450
299.064395	-3.004400	3.814700	-11.460000	23.334155	0.000510	20.887012
300.058168	-2.997100	3.813200	-11.428000	23.298823	0.000510	20.899489
301.060539	-3.000000	3.813300	-11.439000	23.304351	0.000511	20.905504
302.060762	-2.999900	3.812900	-11.438000	23.296830	0.000511	20.912190
303.058238	-3.001600	3.814200	-11.448000	23.332438	0.000510	20.896670
304.060669	-3.001700	3.813500	-11.446000	23.338788	0.000509	20.890706
305.062275	-2.993400	3.811900	-11.410000	23.342822	0.000511	20.877207
306.068533	-2.992400	3.811500	-11.404000	23.339286	0.000509	20.891205
307.061855	-2.975100	3.811200	-11.338000	23.360526	0.000511	20.914862
308.067308	-2.988500	3.812600	-11.393000	23.333560	0.000512	20.895423
309.089218	-3.019700	3.811600	-11.508000	23.338265	0.000510	20.893027
310.082070	-3.012400	3.811900	-11.482000	23.355820	0.000511	20.894974
311.063663	-2.990800	3.810800	-11.396000	23.356990	0.000513	20.889983
312.062801	-3.005900	3.812300	-11.459000	23.366278	0.000513	20.879853
313.089519	-2.991200	3.811300	-11.400000	23.361547	0.000511	20.875111
314.067086	-3.004200	3.811800	-11.450000	23.390280	0.000513	20.893003
315.088556	-3.031700	3.809600	-11.548000	23.365207	0.000514	20.881624
316.080885	-2.994300	3.811300	-11.410000	23.328854	0.000512	20.902560
317.069794	-3.014200	3.809600	-11.482000	23.365382	0.000514	20.875636
318.071434	-2.994600	3.810000	-11.409000	23.373798	0.000515	20.889286
319.076534	-3.012900	3.808700	-11.473000	23.396082	0.000514	20.882223
320.067756	-3.004400	3.809100	-11.443000	23.420656	0.000515	20.881250
321.094799	-2.992800	3.808700	-11.397000	23.407610	0.000515	20.893053
322.086020	-2.996500	3.809300	-11.413000	23.476998	0.000514	20.873714
323.084711	-3.000700	3.808000	-11.426000	23.469978	0.000513	20.883746
324.069707	-3.018400	3.807600	-11.492000	23.475231	0.000515	20.872990
325.085294	-3.004500	3.807700	-11.438000	23.422325	0.000516	20.887664
326.091216	-2.997400	3.808400	-11.415000	23.438409	0.000517	20.863958
327.088101	-3.031700	3.807100	-11.541000	23.439280	0.000515	20.883522
328.098746	-3.021900	3.807800	-11.506000	23.462932	0.000516	20.875261
329.089160	-2.991000	3.807200	-11.386000	23.474958	0.000517	20.878780
330.102174	-2.990500	3.807200	-11.384000	23.518899	0.000518	20.876834
331.090306	-2.984200	3.807000	-11.360000	23.504534	0.000517	20.865280
332.091380	-2.987900	3.806600	-11.373000	23.488824	0.000517	20.862809
333.070538	-3.005300	3.806000	-11.437000	23.486733	0.000518	20.862609
334.070960	-3.007500	3.805700	-11.445000	23.487280	0.000518	20.847986
335.076919	-2.999200	3.806400	-11.415000	23.515214	0.000517	20.852752
336.072299	-2.985500	3.806900	-11.364000	23.487878	0.000517	20.849534
337.074769	-2.984000	3.805800	-11.356000	23.500127	0.000520	20.877931
338.076881	-2.987300	3.804300	-11.364000	23.533735	0.000519	20.849982
339.075841	-3.012700	3.803800	-11.459000	23.533014	0.000519	20.881499
340.078006	-3.022200	3.804200	-11.496000	23.516906	0.000522	20.852078
341.077446	-2.995200	3.804700	-11.395000	23.525296	0.000519	20.846738
342.075192	-2.985300	3.804200	-11.356000	23.556987	0.000520	20.866651
343.110221	-2.999200	3.803800	-11.408000	23.571674	0.000520	20.856719
344.076576	-2.971400	3.804500	-11.303000	23.578795	0.000520	20.861486
345.077654	-2.996200	3.804500	-11.398000	23.582578	0.000518	20.854373
346.080486	-2.993500	3.803900	-11.386000	23.606650	0.000521	20.846737
347.083097	-3.019800	3.801800	-11.479000	23.600153	0.000520	20.845440
348.102245	-3.006400	3.801600	-11.428000	23.576180	0.000522	20.853649
349.113799	-2.988100	3.804000	-11.365000	23.584445	0.000521	20.880899
350.098866	-2.995400	3.802000	-11.387000	23.613048	0.000522	20.851253
351.083246	-3.005600	3.800300	-11.420000	23.597986	0.000520	20.865077
352.080786	-3.008500	3.800600	-11.433000	23.594725	0.000522	20.861334
353.078778	-3.030100	3.801000	-11.516000	23.589721	0.000520	20.854895
354.086750	-2.996300	3.801600	-11.390000	23.602342	0.000522	20.854745
355.108094	-2.992100	3.801500	-11.374000	23.611627	0.000524	20.844613
356.105995	-2.993300	3.801400	-11.377000	23.634429	0.000523	20.849455
357.103533	-2.987400	3.799400	-11.349000	23.629102	0.000523	20.847433
358.109253	-3.016000	3.801000	-11.463000	23.622355	0.000522	20.832609
359.103437	-3.016800	3.798600	-11.457000	23.655339	0.000523	20.841019
360.107203	-2.976300	3.799100	-11.305000	23.651281	0.000524	20.838848
361.116023	-2.994500	3.798500	-11.373000	23.662208	0.000523	20.857389
362.086829	-3.000400	3.799200	-11.398000	23.619069	0.000523	20.840220
363.085258	-3.001300	3.798600	-11.401000	23.662382	0.000525	20.843339
364.082519	-3.015800	3.798800	-11.456000	23.683342	0.000526	20.835429
365.082281	-3.008100	3.797200	-11.422000	23.686951	0.000526	20.854693
366.089365	-3.025000	3.796800	-11.484000	23.697430	0.000525	20.846708
367.086898	-2.998100	3.798200	-11.386000	23.720852	0.000527	20.828940
368.085302	-2.998800	3.798400	-11.389000	23.733821	0.000526	20.860433
369.082463	-2.997700	3.798200	-11.385000	23.719857	0.000524	20.850700
370.087099	-2.993300	3.797200	-11.365000	23.690584	0.000526	20.859759
371.083889	-2.975100	3.797600	-11.297000	23.697081	0.000525	20.836875
372.107306	-3.031500	3.795800	-11.506000	23.704274	0.000526	20.831759
373.102125	-3.012100	3.797000	-11.437000	23.733074	0.000526	20.849253
374.108605	-2.988400	3.795900	-11.343000	23.719980	0.000526	20.848928
375.085989	-2.986900	3.796000	-11.338000	23.718736	0.000527	20.838198
376.087201	-2.992600	3.795800	-11.358000	23.739022	0.000527	20.838622
377.089224	-3.005300	3.795900	-11.408000	23.750746	0.000528	20.830462
378.093569	-3.015400	3.794000	-11.438000	23.767397	0.000528	20.822975
379.118098	-3.005600	3.794400	-11.403000	23.781833	0.000529	20.810897
380.088433	-2.990000	3.794300	-11.344000	23.738300	0.000530	20.825096
381.106687	-3.009900	3.793500	-11.417000	23.750696	0.000525	20.849377
382.117151	-3.017000	3.793200	-11.443000	23.754877	0.000527	20.827966
383.102606	-3.019200	3.794500	-11.455000	23.764783	0.000531	20.831260
384.101913	-2.990100	3.795100	-11.347000	23.794925	0.000528	20.849152
385.104533	-2.984000	3.793200	-11.317000	23.799654	0.000529	20.821652
386.108992	-2.984600	3.793300	-11.321000	23.822402	0.000529	20.818857
387.094034	-2.991300	3.793500	-11.347000	23.813666	0.000530	20.824796
388.095926	-3.012200	3.792500	-11.422000	23.818270	0.000526	20.826093
389.096896	-3.014100	3.790800	-11.424000	23.806049	0.000529	20.827116
390.091115	-2.993000	3.791800	-11.348000	23.799654	0.000528	20.823548
391.093127	-3.012100	3.791600	-11.420000	23.806596	0.000529	20.835725
392.093061	-3.001400	3.791400	-11.379000	23.810952	0.000530	20.817334
393.091981	-2.993100	3.792300	-11.349000	23.800922	0.000530	20.827191
394.099612	-3.013900	3.791000	-11.424000	23.796243	0.000531	20.826767
395.093069	-2.995100	3.789600	-11.350000	23.828349	0.000531	20.825294
396.090634	-2.983600	3.790100	-11.306000	23.820882	0.000531	20.838669
397.093735	-2.998500	3.790100	-11.363000	23.850101	0.000530	20.820078
398.094658	-2.996800	3.789000	-11.354000	23.853461	0.000531	20.805903
399.095860	-2.980300	3.791500	-11.298000	23.849156	0.000531	20.825768
400.097915	-3.010300	3.789300	-11.406000	23.807517	0.000529	20.814364
401.095675	-3.016100	3.789200	-11.428000	23.824467	0.000531	20.812866
402.094949	-3.009700	3.789600	-11.405000	23.866254	0.000530	20.841016
403.096125	-3.001900	3.788900	-11.373000	23.865657	0.000532	20.816235
404.090515	-3.001500	3.789000	-11.371000	23.862421	0.000532	20.822947
405.129448	-3.011600	3.787600	-11.405000	23.878399	0.000531	20.817633
406.095263	-2.991800	3.787900	-11.332000	23.885990	0.000532	20.823822
407.109550	-3.006000	3.787800	-11.385000	23.916800	0.000534	20.831483
408.109884	-3.014200	3.787100	-11.415000	23.911524	0.000533	20.798218
409.115948	-2.995800	3.788200	-11.348000	23.946962	0.000532	20.808624
410.124868	-2.977900	3.786700	-11.275000	23.963811	0.000532	20.825045
411.096296	-2.991000	3.787900	-11.329000	23.960799	0.000534	20.814439
412.119448	-2.997900	3.787300	-11.353000	23.939621	0.000532	20.807901
413.113162	-2.983300	3.787600	-11.298000	23.935564	0.000534	20.814264
414.116815	-2.975700	3.787100	-11.268000	23.906596	0.000535	20.806078
415.117141	-3.009800	3.785800	-11.394000	23.914013	0.000533	20.827740
416.124117	-2.997600	3.785100	-11.346000	23.921777	0.000534	20.828887
417.120477	-3.004500	3.785000	-11.371000	23.901992	0.000533	20.805255
418.096732	-2.982200	3.786000	-11.290000	23.940118	0.000535	20.809821
419.099535	-3.002000	3.784800	-11.360000	23.965727	0.000535	20.796621
420.097989	-2.976400	3.784500	-11.263000	23.981006	0.000535	20.799615
421.104477	-3.010500	3.785400	-11.395000	23.976627	0.000534	20.810397
422.095801	-2.971900	3.784000	-11.244000	23.966201	0.000535	20.815114
423.097438	-2.983300	3.783100	-11.285000	24.008057	0.000536	20.809199
424.136291	-3.007200	3.782900	-11.375000	24.036425	0.000535	20.819630
425.105857	-2.980100	3.784700	-11.278000	24.038839	0.000534	20.797869
426.096077	-2.985100	3.783600	-11.293000	24.021121	0.000535	20.822300
427.099346	-2.966000	3.784100	-11.222000	24.029607	0.000533	20.801414
428.121378	-2.992100	3.783300	-11.319000	23.998053	0.000533	20.812917
429.103033	-2.976300	3.783100	-11.259000	23.956446	0.000535	20.824298
430.126862	-2.975000	3.783400	-11.254000	23.966250	0.000535	20.791931
431.117015	-3.003300	3.781900	-11.357000	23.958760	0.000536	20.808127
432.100374	-3.019400	3.780400	-11.414000	23.947113	0.000533	20.815887
433.095312	-2.980600	3.782700	-11.274000	23.985885	0.000535	20.787913
434.110926	-2.996400	3.780900	-11.328000	23.981705	0.000538	20.812644
435.116370	-2.996200	3.780500	-11.326000	23.977549	0.000534	20.798994
436.117256	-3.015800	3.780400	-11.400000	24.024407	0.000535	20.810423
437.115096	-3.011500	3.778900	-11.379000	24.026199	0.000536	20.799418
438.124471	-2.974900	3.782000	-11.250000	24.049863	0.000539	20.809874
439.118046	-3.006300	3.779400	-11.361000	24.061559	0.000536	20.784146
440.121992	-3.009800	3.779300	-11.374000	24.036228	0.000539	20.796200
441.122601	-2.989700	3.779400	-11.299000	24.068651	0.000536	20.807854
442.123224	-2.989200	3.777800	-11.291000	24.057279	0.000537	20.804035
443.122600	-2.989900	3.778600	-11.296000	24.054915	0.000536	20.793604
444.124549	-2.998700	3.779500	-11.333000	24.028489	0.000536	20.808353
445.100531	-3.004200	3.778700	-11.352000	24.040633	0.000538	20.793031
446.098323	-3.006900	3.777500	-11.358000	24.093884	0.000537	20.817512
447.100534	-3.018100	3.777000	-11.398000	24.108041	0.000538	20.806107
448.104106	-3.001900	3.777800	-11.339000	24.117048	0.000537	20.794278
449.112788	-2.988600	3.776600	-11.286000	24.117023	0.000538	20.805633
450.103901	-3.003300	3.775900	-11.338000	24.153700	0.000537	20.795951
451.128447	-2.986200	3.776200	-11.275000	24.144618	0.000539	20.794902
452.126724	-2.992000	3.777000	-11.300000	24.118193	0.000539	20.793056
453.103986	-3.008200	3.776400	-11.359000	24.146708	0.000538	20.787516
454.106018	-3.006900	3.775200	-11.350000	24.170469	0.000538	20.783847
455.105963	-3.017000	3.775300	-11.389000	24.222792	0.000538	20.802189
456.120748	-2.985500	3.775600	-11.271000	24.192488	0.000537	20.806880
457.103022	-2.976800	3.775000	-11.236000	24.164100	0.000539	20.794528
458.102639	-3.001400	3.774500	-11.328000	24.154594	0.000540	20.790210
459.110123	-3.007700	3.774400	-11.350000	24.144270	0.000537	20.775113
460.106305	-2.978900	3.773800	-11.240000	24.136780	0.000538	20.806482
461.106177	-2.986600	3.773800	-11.269000	24.132699	0.000538	20.783423
462.108726	-2.984600	3.773100	-11.260000	24.145712	0.000538	20.774663
463.109542	-2.999000	3.772500	-11.313000	24.142428	0.000539	20.785593
464.110689	-3.002700	3.771800	-11.324000	24.183457	0.000538	20.776485
465.108993	-2.995300	3.771700	-11.296000	24.207292	0.000540	20.793280
466.106064	-2.998900	3.771900	-11.311000	24.230256	0.000540	20.805408
467.106860	-2.997800	3.772400	-11.308000	24.199579	0.000540	20.788862
468.109925	-2.997400	3.773000	-11.308000	24.225828	0.000537	20.802389
469.116569	-2.990800	3.772100	-11.281000	24.244363	0.000539	20.781626
470.110306	-2.996300	3.771100	-11.298000	24.252647	0.000539	20.806530
471.109937	-3.010700	3.770400	-11.350000	24.221223	0.000539	20.791606
472.130027	-2.976500	3.771200	-11.225000	24.211670	0.000540	20.800042
473.130643	-3.017800	3.769400	-11.374000	24.182212	0.000540	20.779977
474.125552	-2.991100	3.770900	-11.279000	24.197140	0.000540	20.812494
475.135020	-3.019700	3.769900	-11.383000	24.224856	0.000541	20.781499
476.119184	-2.996700	3.769800	-11.295000	24.243839	0.000540	20.786316
477.109579	-2.997100	3.768900	-11.295000	24.214431	0.000539	20.774836
478.110523	-2.999100	3.769600	-11.304000	24.195273	0.000538	20.775534
479.112202	-2.971700	3.771900	-11.208000	24.210624	0.000539	20.779078
480.117468	-2.991700	3.769800	-11.277000	24.247471	0.000541	20.768622
481.142779	-2.996600	3.768000	-11.290000	24.233613	0.000540	20.780326
482.113574	-3.014600	3.767400	-11.356000	24.247147	0.000542	20.784892
483.111001	-2.985100	3.767700	-11.246000	24.231647	0.000542	20.777880
484.118575	-3.008800	3.767500	-11.334000	24.183478	0.000541	20.804008
485.114638	-2.981600	3.768800	-11.236000	24.215997	0.000540	20.773561
486.119954	-3.003000	3.767900	-11.314000	24.262447	0.000540	20.790282
487.113221	-2.985600	3.767200	-11.246000	24.285559	0.000540	20.781697
488.112028	-2.995100	3.768200	-11.285000	24.259635	0.000542	20.791255
489.113079	-3.000800	3.766300	-11.301000	24.266576	0.000540	20.774036
490.115193	-2.998100	3.765700	-11.289000	24.277050	0.000538	20.797344
491.122258	-3.020600	3.765400	-11.373000	24.289938	0.000539	20.770442
492.123404	-2.985400	3.765700	-11.242000	24.315960	0.000542	20.769993
493.116975	-3.014800	3.764700	-11.349000	24.307029	0.000542	20.797070
494.115326	-2.987400	3.764400	-11.244000	24.325712	0.000543	20.763654
495.115971	-2.995000	3.763900	-11.273000	24.321880	0.000541	20.774984
496.112224	-3.001400	3.764500	-11.298000	24.340041	0.000540	20.770917
497.125657	-3.008400	3.765300	-11.326000	24.369098	0.000542	20.763555
498.135514	-3.003800	3.765100	-11.308000	24.387605	0.000543	20.770742
499.131464	-3.001400	3.762900	-11.294000	24.360664	0.000542	20.768845
500.133844	-3.014000	3.763500	-11.343000	24.346708	0.000541	20.769544
501.139791	-3.015400	3.763400	-11.347000	24.302551	0.000541	20.763180
502.145224	-2.977400	3.764600	-11.208000	24.273045	0.000540	20.751127
503.139428	-3.015600	3.762700	-11.346000	24.302750	0.000542	20.757690
504.114254	-2.966500	3.763700	-11.164000	24.286678	0.000540	20.753421
505.136275	-2.998100	3.762600	-11.280000	24.272224	0.000540	20.767847
506.140327	-3.006500	3.761500	-11.308000	24.270582	0.000541	20.758613
507.145086	-2.993100	3.763100	-11.261000	24.295361	0.000541	20.775408
508.149495	-3.015000	3.760800	-11.338000	24.334742	0.000542	20.778403
509.137543	-2.993700	3.761800	-11.261000	24.361411	0.000541	20.762007
510.135346	-2.999100	3.761500	-11.279000	24.358424	0.000541	20.769917
511.139490	-2.998900	3.760700	-11.277000	24.361759	0.000543	20.768521
512.118703	-2.979000	3.761600	-11.205000	24.362505	0.000539	20.766899
513.123510	-3.008800	3.760000	-11.312000	24.363153	0.000542	20.773238
514.118959	-3.018100	3.759900	-11.346000	24.371237	0.000540	20.754321
515.141925	-3.008200	3.759300	-11.308000	24.402830	0.000545	20.774636
516.136950	-3.002100	3.759400	-11.285000	24.377406	0.000543	20.765252
517.121209	-3.010000	3.759500	-11.315000	24.394397	0.000542	20.744838
518.119912	-3.003000	3.757800	-11.284000	24.415318	0.000543	20.746860
519.123121	-3.001400	3.758700	-11.281000	24.429795	0.000544	20.770393
520.120261	-2.990600	3.758500	-11.239000	24.465067	0.000541	20.757890
521.124187	-2.999900	3.757600	-11.272000	24.440988	0.000544	20.749380
522.125771	-3.007600	3.757700	-11.301000	24.429720	0.000539	20.765577
523.127999	-2.988700	3.756800	-11.227000	24.428203	0.000540	20.768796
524.134137	-2.999900	3.758100	-11.272000	24.427979	0.000541	20.751976
525.127235	-2.995700	3.758400	-11.257000	24.473723	0.000543	20.748557
526.130574	-3.008300	3.756400	-11.298000	24.494891	0.000543	20.772165
527.129179	-2.990100	3.756600	-11.231000	24.458650	0.000544	20.742442
528.124235	-2.982000	3.759100	-11.209000	24.453203	0.000539	20.754047
529.125221	-3.004500	3.755000	-11.280000	24.458003	0.000543	20.759813
530.122400	-2.994200	3.756400	-11.247000	24.484693	0.000542	20.742018
531.124355	-2.994300	3.756400	-11.247000	24.448153	0.000541	20.747085
532.146511	-3.018000	3.754900	-11.331000	24.480116	0.000543	20.757342
533.160838	-2.988700	3.754400	-11.219000	24.456413	0.000543	20.777183
534.132605	-3.002300	3.754800	-11.272000	24.412383	0.000542	20.765728
535.133226	-2.997300	3.755300	-11.255000	24.431563	0.000542	20.746562
536.129745	-2.997900	3.754500	-11.254000	24.434349	0.000543	20.749357
537.128953	-3.013900	3.753700	-11.313000	24.463651	0.000542	20.739399
538.135899	-2.997100	3.753000	-11.248000	24.474572	0.000543	20.746088
539.130507	-3.003600	3.754300	-11.276000	24.504221	0.000543	20.742170
540.129440	-2.994300	3.753300	-11.238000	24.514245	0.000542	20.734209
541.126928	-3.010900	3.751600	-11.295000	24.529741	0.000544	20.758767
542.153496	-2.981600	3.753300	-11.191000	24.534467	0.000542	20.748335
543.151994	-3.001500	3.754400	-11.268000	24.533771	0.000542	20.743844
544.142557	-2.996900	3.751600	-11.243000	24.512953	0.000542	20.754250
545.150767	-2.989100	3.751100	-11.212000	24.486613	0.000544	20.742522
546.144615	-2.993300	3.751400	-11.228000	24.511064	0.000542	20.747614
547.128369	-2.989900	3.752900	-11.220000	24.538549	0.000543	20.744844
548.128313	-2.985900	3.751900	-11.201000	24.558547	0.000541	20.766806
549.132255	-2.981300	3.751400	-11.183000	24.576678	0.000542	20.752281
550.128670	-2.993900	3.751600	-11.231000	24.566059	0.000542	20.771498
551.134315	-3.018800	3.749500	-11.317000	24.507036	0.000543	20.747366
552.153995	-3.006900	3.749000	-11.272000	24.515543	0.000543	20.763487
553.152391	-3.010500	3.750900	-11.291000	24.522333	0.000539	20.747067
554.134447	-2.998300	3.750500	-11.244000	24.549768	0.000543	20.755627
555.135775	-2.996300	3.749400	-11.234000	24.523802	0.000542	20.747592
556.135489	-3.014200	3.748900	-11.298000	24.546933	0.000542	20.755153
557.155245	-3.001800	3.747700	-11.249000	24.547331	0.000541	20.764562
558.152289	-3.001600	3.748900	-11.252000	24.554471	0.000543	20.738059
559.154852	-3.008100	3.748600	-11.275000	24.562331	0.000542	20.760645
560.129914	-2.998600	3.747000	-11.235000	24.572627	0.000544	20.754854
561.148159	-2.998100	3.748100	-11.236000	24.586879	0.000543	20.774845
562.152569	-3.003900	3.748400	-11.258000	24.605756	0.000543	20.765337
563.133592	-2.999000	3.747700	-11.238000	24.600385	0.000542	20.738609
564.134356	-3.011600	3.747300	-11.284000	24.618764	0.000543	20.756104
565.146601	-2.992400	3.747300	-11.213000	24.612272	0.000543	20.754331
566.154231	-2.985100	3.747600	-11.186000	24.600932	0.000543	20.756703
567.157573	-3.003200	3.745300	-11.247000	24.580413	0.000539	20.778315
568.155688	-3.007500	3.747100	-11.269000	24.564421	0.000544	20.771751
569.130732	-3.016000	3.745800	-11.297000	24.555069	0.000543	20.748143
570.132262	-2.988500	3.744900	-11.191000	24.571286	0.000541	20.774846
571.150493	-3.018300	3.743400	-11.298000	24.610558	0.000542	20.767784
572.151098	-3.013600	3.744400	-11.283000	24.637343	0.000543	20.760047
573.156032	-3.009300	3.744000	-11.266000	24.662288	0.000543	20.755681
574.152640	-2.975900	3.745700	-11.145000	24.649952	0.000541	20.756578
575.153688	-3.007000	3.744400	-11.259000	24.648261	0.000543	20.756778
576.137215	-2.994400	3.744500	-11.211000	24.657213	0.000542	20.775719
577.163074	-3.004200	3.744100	-11.247000	24.643561	0.000542	20.752061
578.142787	-2.999500	3.743500	-11.228000	24.620457	0.000541	20.758751
579.139473	-3.006500	3.742500	-11.250000	24.642865	0.000542	20.752311
580.135810	-3.003000	3.743600	-11.241000	24.619462	0.000540	20.762968
581.139610	-2.979500	3.743500	-11.153000	24.620083	0.000541	20.749840
582.139450	-2.983000	3.743500	-11.166000	24.607449	0.000542	20.770355
583.141015	-2.973600	3.743700	-11.130000	24.611304	0.000540	20.753360
584.164535	-3.016900	3.742400	-11.289000	24.598545	0.000540	20.739134
585.165242	-3.004200	3.742200	-11.241000	24.622223	0.000541	20.760048
586.140210	-3.000400	3.741600	-11.226000	24.657614	0.000540	20.781336
587.169998	-2.997600	3.740100	-11.211000	24.663210	0.000540	20.762769
588.162827	-2.991500	3.742100	-11.193000	24.652191	0.000539	20.764041
589.142293	-3.019200	3.739800	-11.291000	24.681835	0.000542	20.760122
590.143847	-2.990200	3.740400	-11.184000	24.690117	0.000541	20.756579
591.138980	-2.980300	3.740800	-11.148000	24.676687	0.000539	20.769656
592.157076	-2.986500	3.740700	-11.171000	24.671092	0.000540	20.788697
593.162888	-2.995300	3.739800	-11.201000	24.673131	0.000538	20.774147
594.146563	-2.998600	3.739600	-11.213000	24.650102	0.000541	20.792765
595.145766	-2.986200	3.738700	-11.164000	24.664801	0.000540	20.781910
596.163898	-3.012800	3.738500	-11.263000	24.666069	0.000542	20.776544
597.148909	-2.987200	3.738700	-11.167000	24.711231	0.000542	20.764016
598.144304	-3.026700	3.737200	-11.310000	24.693897	0.000543	20.767485
599.149776	-3.002700	3.738100	-11.223000	24.697827	0.000540	20.782808
600.148145	-3.008900	3.737000	-11.244000	24.713195	0.000541	20.758401
601.143532	-3.003200	3.737400	-11.222000	24.701782	0.000541	20.798157
602.148710	-2.996200	3.738300	-11.200000	24.699668	0.000539	20.779914
603.162172	-2.994000	3.737000	-11.187000	24.732369	0.000540	20.778116
604.174521	-3.015200	3.737200	-11.268000	24.745376	0.000540	20.786427
605.162328	-3.006700	3.736300	-11.233000	24.735354	0.000541	20.797707
606.144961	-3.009100	3.735800	-11.241000	24.692928	0.000539	20.798281
607.147301	-2.990200	3.735900	-11.170000	24.715061	0.000539	20.778766
608.148560	-2.999800	3.735400	-11.205000	24.723543	0.000539	20.769258
609.146570	-2.991800	3.735600	-11.175000	24.732793	0.000539	20.783757
610.153686	-3.022700	3.734000	-11.285000	24.754777	0.000540	20.809138
611.171735	-2.977200	3.735100	-11.119000	24.740603	0.000540	20.794440
612.162337	-3.026400	3.734700	-11.302000	24.736600	0.000541	20.778569
613.147038	-2.998200	3.735100	-11.198000	24.709194	0.000538	20.799905
614.150763	-3.011600	3.735600	-11.249000	24.679377	0.000539	20.794166
615.153608	-3.003100	3.734700	-11.215000	24.688280	0.000540	20.789349
616.155694	-2.992400	3.733400	-11.171000	24.649957	0.000538	20.790248
617.152493	-2.993000	3.733500	-11.173000	24.646600	0.000539	20.778820
618.154531	-3.015000	3.732900	-11.253000	24.663784	0.000541	20.790372
619.156133	-3.022500	3.732200	-11.280000	24.685695	0.000540	20.775850
620.153439	-2.994800	3.733500	-11.180000	24.680497	0.000540	20.800032
621.179379	-2.980700	3.733100	-11.126000	24.708252	0.000537	20.804649
622.150842	-3.015600	3.732900	-11.256000	24.706113	0.000541	20.782114
623.150904	-3.015200	3.731800	-11.251000	24.745529	0.000538	20.776150
624.152890	-2.982100	3.732200	-11.129000	24.688158	0.000539	20.782589
625.182505	-3.016000	3.731800	-11.254000	24.709371	0.000537	20.800083
626.152642	-3.003100	3.731200	-11.205000	24.744585	0.000536	20.812186
627.153102	-3.002000	3.730600	-11.198000	24.761272	0.000539	20.799060
628.154374	-3.005400	3.731000	-11.212000	24.781514	0.000538	20.788554
629.155297	-3.053300	3.728900	-11.385000	24.792753	0.000537	20.818325
630.151719	-2.984600	3.731300	-11.134000	24.828239	0.000539	20.806997
631.154712	-3.014500	3.730900	-11.245000	24.837041	0.000540	20.798287
632.174717	-3.005600	3.730200	-11.210000	24.810062	0.000538	20.803928
633.167528	-3.014900	3.729800	-11.244000	24.807202	0.000539	20.808170
634.169321	-2.971800	3.730500	-11.086000	24.767316	0.000538	20.807496
635.182079	-2.971900	3.729500	-11.083000	24.758537	0.000537	20.799160
636.151998	-3.000000	3.728300	-11.184000	24.811082	0.000538	20.802106
637.155517	-2.992500	3.727800	-11.155000	24.816552	0.000539	20.797639
638.153026	-2.983000	3.729300	-11.123000	24.814837	0.000537	20.812513
639.154181	-2.994100	3.728600	-11.163000	24.849649	0.000537	20.813785
640.155876	-3.011400	3.727300	-11.223000	24.881452	0.000536	20.796867
641.180582	-2.990500	3.727400	-11.146000	24.876653	0.000536	20.811016
642.168277	-2.998300	3.727700	-11.176000	24.840773	0.000539	20.808196
643.185347	-2.988500	3.727800	-11.139000	24.850172	0.000538	20.814310
644.188720	-3.003600	3.726100	-11.190000	24.847487	0.000537	20.801184
645.175377	-2.993000	3.726300	-11.152000	24.854524	0.000536	20.814885
646.160212	-2.988600	3.726900	-11.136000	24.820483	0.000537	20.815335
647.153255	-2.972400	3.725900	-11.074000	24.814614	0.000537	20.832678
648.154745	-2.978000	3.726100	-11.096000	24.792036	0.000537	20.825666
649.180606	-2.984600	3.725900	-11.119000	24.798502	0.000536	20.813663
650.173084	-2.988300	3.726200	-11.135000	24.786964	0.000536	20.821524
651.174749	-3.012500	3.724000	-11.217000	24.793852	0.000536	20.816583
652.170934	-2.990000	3.725400	-11.138000	24.816282	0.000535	20.820601
653.170617	-2.994500	3.724600	-11.153000	24.807006	0.000536	20.834999
654.178906	-3.001000	3.724500	-11.177000	24.832096	0.000536	20.832679
655.183666	-3.008300	3.724600	-11.204000	24.828318	0.000534	20.815611
656.153375	-2.987900	3.724800	-11.128000	24.822101	0.000536	20.819803
657.175345	-2.993700	3.723500	-11.146000	24.808598	0.000535	20.831856
658.154739	-2.980500	3.724200	-11.099000	24.833365	0.000531	20.814986
659.159518	-2.981300	3.723800	-11.101000	24.854302	0.000533	20.818456
660.157008	-2.995000	3.722700	-11.148000	24.870639	0.000533	20.829162
661.158432	-3.002600	3.722400	-11.176000	24.840378	0.000536	20.799740
662.156142	-3.007900	3.722500	-11.196000	24.852985	0.000535	20.826142
663.153669	-2.987000	3.724100	-11.122000	24.880113	0.000533	20.821126
664.177783	-2.993100	3.721100	-11.137000	24.887572	0.000534	20.829087
665.171819	-3.012300	3.721700	-11.209000	24.886155	0.000536	20.830035
666.155156	-3.004000	3.722100	-11.180000	24.895504	0.000533	20.817607
667.159577	-2.986900	3.720800	-11.112000	24.893739	0.000535	20.816310
668.157893	-2.992700	3.721800	-11.137000	24.857958	0.000535	20.813116
669.159151	-2.987300	3.721900	-11.117000	24.879442	0.000534	20.812867
670.175005	-3.005700	3.721700	-11.185000	24.851990	0.000532	20.851695
671.161452	-3.019400	3.719500	-11.230000	24.860296	0.000533	20.850548
672.160214	-2.996200	3.720600	-11.147000	24.899383	0.000535	20.816759
673.160553	-2.989100	3.719100	-11.116000	24.930239	0.000533	20.832082
674.155572	-3.010200	3.718700	-11.192000	24.948563	0.000533	20.838145
675.157445	-3.010300	3.719600	-11.196000	24.964748	0.000532	20.825468
676.157007	-3.002400	3.718400	-11.163000	24.974172	0.000533	20.823547
677.158818	-2.988400	3.719800	-11.115000	24.984490	0.000534	20.842912
678.159138	-2.992000	3.718000	-11.123000	24.994859	0.000532	20.831509
679.158245	-3.016800	3.718100	-11.216000	25.025339	0.000532	20.827964
680.162588	-2.998500	3.719400	-11.152000	25.015021	0.000533	20.834203
681.159091	-3.006000	3.717800	-11.175000	25.015096	0.000532	20.826692
682.157569	-3.000900	3.718000	-11.155000	25.013804	0.000532	20.837248
683.179214	-2.975000	3.718900	-11.063000	25.000476	0.000532	20.845682
684.159787	-3.002400	3.717200	-11.160000	24.948837	0.000532	20.859756
685.159318	-2.981800	3.717900	-11.085000	24.968803	0.000531	20.835227
686.163252	-3.012200	3.717100	-11.196000	24.995057	0.000532	20.832182
687.159842	-3.016100	3.716000	-11.206000	25.024395	0.000532	20.852621
688.160223	-3.002900	3.717500	-11.162000	25.025837	0.000532	20.861654
689.193322	-2.988400	3.716200	-11.104000	25.004108	0.000529	20.859283
690.183430	-2.991800	3.714900	-11.112000	25.021958	0.000531	20.841640
691.170531	-3.004500	3.715500	-11.162000	25.042569	0.000532	20.867070
692.165761	-2.998000	3.716300	-11.140000	25.017010	0.000530	20.850424
693.166875	-3.006800	3.714500	-11.168000	25.040704	0.000531	20.850025
694.165605	-2.998100	3.714900	-11.138000	25.047815	0.000531	20.835827
695.163038	-3.007000	3.713500	-11.166000	25.030786	0.000532	20.848605
696.166735	-3.006300	3.713700	-11.163000	24.990435	0.000531	20.843663
697.186551	-3.005600	3.714200	-11.163000	24.966418	0.000531	20.835204
698.169200	-2.982200	3.714800	-11.077000	24.950679	0.000530	20.861605
699.185369	-3.015100	3.713700	-11.196000	24.948442	0.000529	20.843239
700.167070	-2.985200	3.714100	-11.086000	24.941753	0.000529	20.874931
701.168144	-3.007200	3.714400	-11.169000	24.968805	0.000528	20.854668
702.187582	-3.001400	3.712800	-11.142000	24.959929	0.000527	20.856191
703.168010	-3.004500	3.714100	-11.158000	24.969949	0.000529	20.847282
704.166713	-2.999100	3.712500	-11.133000	24.974573	0.000529	20.860458
705.185400	-3.021100	3.710800	-11.209000	25.006870	0.000529	20.853995
706.167570	-2.992200	3.711400	-11.105000	25.007292	0.000526	20.868169
707.184374	-3.017100	3.711200	-11.196000	25.053087	0.000529	20.842067
708.171326	-2.993600	3.711900	-11.111000	25.049309	0.000528	20.858188
709.172894	-3.018600	3.709100	-11.195000	25.068575	0.000528	20.848605
710.172980	-2.994200	3.711700	-11.113000	25.088065	0.000528	20.867221
711.173970	-3.002500	3.710700	-11.140000	25.092615	0.000527	20.860883
712.173888	-2.999100	3.710400	-11.127000	25.072378	0.000528	20.864750
713.179329	-3.018500	3.710400	-11.200000	25.064697	0.000526	20.897814
714.177272	-2.983900	3.711000	-11.072000	25.032179	0.000526	20.876554
715.195691	-2.985800	3.710000	-11.076000	24.972412	0.000528	20.873460
716.192211	-3.002900	3.709000	-11.137000	24.976439	0.000528	20.870390
717.204545	-3.011100	3.709800	-11.169000	24.952621	0.000526	20.874933
718.195726	-3.008800	3.709100	-11.159000	25.006050	0.000525	20.880672
719.199988	-2.995100	3.708500	-11.106000	25.036505	0.000527	20.865724
720.175305	-3.013000	3.707300	-11.170000	25.044461	0.000526	20.883666
721.174803	-3.002800	3.709600	-11.138000	25.024746	0.000526	20.884265
722.201665	-3.013700	3.707600	-11.172000	25.009356	0.000525	20.866922
723.193300	-2.989900	3.708100	-11.086000	25.051745	0.000526	20.870116
724.195373	-3.010000	3.707000	-11.158000	25.001499	0.000524	20.866621
725.178904	-2.987900	3.708400	-11.079000	25.006571	0.000524	20.892099
726.183036	-2.990100	3.707200	-11.085000	25.036504	0.000525	20.888955
727.185069	-3.007300	3.707000	-11.147000	25.014875	0.000524	20.901382
728.198989	-2.999400	3.707800	-11.119000	25.006845	0.000524	20.878625
729.199018	-2.996900	3.707300	-11.109000	25.044136	0.000526	20.878599
730.207632	-3.014000	3.706500	-11.171000	25.076032	0.000525	20.889753
731.198878	-3.001400	3.706800	-11.125000	25.089182	0.000523	20.875454
732.207229	-3.021700	3.705600	-11.196000	25.094702	0.000523	20.887158
733.203101	-3.009500	3.705700	-11.151000	25.075808	0.000524	20.890002
734.186498	-2.998500	3.705500	-11.110000	25.107480	0.000526	20.885286
735.212804	-2.980300	3.704900	-11.041000	25.114465	0.000522	20.893246
736.182006	-2.992700	3.704300	-11.084000	25.142755	0.000524	20.871861
737.182062	-3.007900	3.704600	-11.142000	25.154538	0.000523	20.892697
738.207616	-3.020400	3.704000	-11.186000	25.153344	0.000524	20.904774
739.215001	-3.000800	3.704000	-11.115000	25.132760	0.000523	20.888853
740.208762	-3.015700	3.703500	-11.167000	25.075608	0.000521	20.911136
741.207994	-3.000100	3.703100	-11.108000	25.097883	0.000522	20.899833
742.187015	-3.003200	3.703100	-11.119000	25.070039	0.000520	20.896539
743.189990	-3.012500	3.703000	-11.155000	25.053730	0.000520	20.877798
744.185739	-3.014800	3.702600	-11.162000	25.092885	0.000521	20.900032
745.208576	-3.005900	3.701600	-11.125000	25.124282	0.000523	20.905471
746.210769	-2.991400	3.702900	-11.076000	25.129504	0.000523	20.899334
747.229999	-2.993100	3.702400	-11.081000	25.101635	0.000522	20.903599
748.218981	-2.985200	3.702300	-11.051000	25.131540	0.000522	20.907541
749.214162	-3.001900	3.701500	-11.111000	25.156250	0.000521	20.905795
750.192206	-3.009400	3.700700	-11.136000	25.180114	0.000521	20.887554
751.193253	-2.996900	3.702400	-11.094000	25.144145	0.000519	20.896014
752.191611	-3.015600	3.700300	-11.157000	25.121099	0.000520	20.892794
753.192004	-3.002400	3.701300	-11.112000	25.119335	0.000519	20.918521
754.209758	-3.000400	3.699800	-11.101000	25.107378	0.000520	20.904149
755.216862	-3.023100	3.698800	-11.181000	25.122541	0.000519	20.905146
756.214795	-2.977000	3.701300	-11.018000	25.133852	0.000521	20.892794
757.218226	-2.994900	3.700500	-11.081000	25.129800	0.000518	20.931396
758.215410	-3.018400	3.700900	-11.170000	25.099695	0.000519	20.901652
759.213216	-3.009200	3.698800	-11.130000	25.098079	0.000520	20.912356
760.230320	-2.998700	3.698100	-11.088000	25.071727	0.000517	20.911508
761.229013	-3.004300	3.698400	-11.109000	25.102878	0.000520	20.909114
762.211104	-2.998100	3.698900	-11.089000	25.116002	0.000518	20.938407
763.215122	-3.049600	3.697300	-11.274000	25.134747	0.000517	20.915027
764.209184	-3.001000	3.698600	-11.098000	25.164776	0.000517	20.930472
765.217799	-3.010200	3.698000	-11.130000	25.165248	0.000519	20.906293
766.226746	-2.982300	3.696800	-11.024000	25.157691	0.000517	20.917672
767.212140	-3.006400	3.698300	-11.118000	25.173699	0.000518	20.894389
768.217362	-2.984800	3.698600	-11.039000	25.206362	0.000515	20.920540
769.214765	-2.990200	3.697400	-11.055000	25.208078	0.000517	20.930322
770.219863	-2.989200	3.697300	-11.051000	25.224010	0.000515	20.915499
771.209930	-2.980600	3.696700	-11.017000	25.207505	0.000517	20.919317
772.227571	-2.992500	3.697600	-11.063000	25.232486	0.000517	20.923060
773.218235	-2.991900	3.696800	-11.060000	25.256546	0.000514	20.925878
774.215520	-3.006000	3.694600	-11.105000	25.240316	0.000514	20.944669
775.210478	-3.000600	3.696300	-11.090000	25.229279	0.000516	20.915100
776.220402	-2.982600	3.696100	-11.023000	25.258162	0.000515	20.918493
777.225081	-2.999500	3.695700	-11.085000	25.247076	0.000513	20.922536
778.210437	-2.997500	3.695900	-11.077000	25.200071	0.000513	20.918019
779.218970	-3.030900	3.693600	-11.194000	25.155577	0.000515	20.935461
780.220575	-2.994200	3.694300	-11.060000	25.098697	0.000513	20.936208
781.222940	-2.984800	3.695600	-11.030000	25.134022	0.000514	20.908136
782.216271	-3.002200	3.694300	-11.090000	25.184285	0.000512	20.941048
783.230799	-3.013200	3.694000	-11.130000	25.223511	0.000515	20.932067
784.225093	-3.003500	3.694100	-11.093000	25.230147	0.000516	20.926401
785.226544	-3.001900	3.693500	-11.086000	25.243246	0.000515	20.923432
786.220386	-2.985200	3.694200	-11.027000	25.250704	0.000516	20.924281
787.219747	-2.998400	3.693400	-11.073000	25.244414	0.000512	20.930767
788.217691	-3.000500	3.693500	-11.081000	25.250354	0.000513	20.924878
789.215197	-2.989300	3.692800	-11.038000	25.252517	0.000515	20.903344
790.223641	-3.014000	3.690900	-11.124000	25.202132	0.000511	20.930517
791.219165	-3.000600	3.691100	-11.074000	25.201387	0.000510	20.907012
792.217848	-2.996100	3.691200	-11.059000	25.169369	0.000512	20.928446
793.217070	-3.005000	3.692000	-11.093000	25.155424	0.000512	20.919663
794.224883	-2.999800	3.691400	-11.072000	25.151993	0.000510	20.918116
795.219261	-3.006700	3.690200	-11.095000	25.157885	0.000511	20.909333
796.220980	-2.993200	3.690900	-11.047000	25.141280	0.000511	20.912102
797.215762	-2.981900	3.691100	-11.006000	25.111548	0.000513	20.933462
798.222437	-3.013100	3.690100	-11.118000	25.176031	0.000510	20.916643
799.224491	-2.992400	3.691100	-11.045000	25.162210	0.000509	20.905140
800.213452	-3.010200	3.689900	-11.106000	25.227162	0.000509	20.907759
801.217709	-3.005700	3.688200	-11.085000	25.223931	0.000510	20.893137
802.225997	-2.989700	3.690000	-11.031000	25.272227	0.000509	20.913174
803.225066	-3.045500	3.687200	-11.229000	25.254107	0.000511	20.905888
804.210330	-2.980000	3.688600	-10.991000	25.231511	0.000508	20.888894
805.217171	-3.000500	3.688900	-11.068000	25.238621	0.000508	20.894609
806.225698	-2.991400	3.689000	-11.034000	25.257089	0.000508	20.915519
807.221842	-3.024400	3.688200	-11.153000	25.258878	0.000508	20.903566
808.218112	-2.999800	3.687700	-11.060000	25.227733	0.000508	20.886523
809.223755	-2.994100	3.688000	-11.041000	25.296634	0.000508	20.883628
810.217099	-2.991000	3.688300	-11.030000	25.259276	0.000508	20.912973
811.215917	-3.000300	3.687200	-11.061000	25.223805	0.000507	20.896330
812.223502	-3.005300	3.686600	-11.079000	25.165688	0.000506	20.869280
813.220807	-3.006400	3.686900	-11.084000	25.162481	0.000505	20.901145
814.229752	-3.003800	3.685700	-11.070000	25.186345	0.000505	20.890490
815.217818	-3.021000	3.686300	-11.135000	25.215030	0.000506	20.895106
816.218571	-3.003700	3.684900	-11.068000	25.232257	0.000509	20.891064
817.219266	-3.000100	3.686400	-11.059000	25.200936	0.000507	20.890914
818.221123	-3.009600	3.685900	-11.091000	25.243938	0.000507	20.887145
819.228533	-2.996800	3.685200	-11.042000	25.250576	0.000507	20.903291
820.217176	-3.005500	3.684800	-11.074000	25.290966	0.000506	20.901644
821.227283	-3.006300	3.685200	-11.078000	25.256465	0.000505	20.898299
822.223343	-2.978300	3.683800	-10.971000	25.218734	0.000507	20.889342
823.232655	-2.998100	3.684100	-11.044000	25.220325	0.000506	20.894258
824.225681	-3.006000	3.682600	-11.069000	25.211500	0.000506	20.895829
825.219283	-2.992900	3.684500	-11.026000	25.233325	0.000503	20.883602
826.239318	-3.010900	3.684200	-11.091000	25.208790	0.000504	20.887419
827.232848	-2.998700	3.684600	-11.048000	25.190097	0.000504	20.873396
828.218961	-3.002300	3.682500	-11.055000	25.192757	0.000503	20.883651
829.233125	-3.009200	3.683100	-11.082000	25.229447	0.000504	20.881606
830.230514	-2.983500	3.682900	-10.987000	25.270409	0.000504	20.882428
831.217487	-2.994100	3.682700	-11.025000	25.254302	0.000504	20.864362
832.229380	-3.001000	3.681500	-11.048000	25.272795	0.000504	20.873919
833.229051	-3.016600	3.682000	-11.106000	25.282216	0.000503	20.890963
834.228248	-3.009100	3.681000	-11.075000	25.243837	0.000503	20.881829
835.231409	-3.001100	3.681000	-11.046000	25.233944	0.000501	20.874268
836.222359	-2.974800	3.682300	-10.953000	25.222932	0.000501	20.864636
837.229881	-2.998100	3.682300	-11.039000	25.247043	0.000502	20.874617
838.224087	-2.993500	3.681100	-11.019000	25.280226	0.000502	20.869527
839.223846	-2.997700	3.680600	-11.033000	25.264418	0.000501	20.857923
840.220169	-3.012000	3.679200	-11.081000	25.281146	0.000499	20.877088
841.222317	-3.005500	3.680100	-11.060000	25.311394	0.000501	20.864311
842.219497	-3.011800	3.678600	-11.078000	25.289496	0.000501	20.865558
843.223698	-2.991900	3.680300	-11.010000	25.283258	0.000500	20.873993
844.223256	-3.001700	3.679000	-11.043000	25.321038	0.000500	20.868778
845.221147	-2.992600	3.678600	-11.008000	25.366471	0.000501	20.867454
846.224158	-2.981400	3.679600	-10.969000	25.331526	0.000501	20.869825
847.232216	-2.979900	3.678500	-10.959000	25.303142	0.000498	20.862189
848.229457	-2.994300	3.678400	-11.013000	25.308287	0.000498	20.855501
849.229812	-3.016900	3.677600	-11.095000	25.276423	0.000497	20.874716
850.229669	-3.001700	3.678300	-11.040000	25.296083	0.000498	20.873593
851.221717	-3.008000	3.676000	-11.056000	25.290514	0.000498	20.867528
852.229113	-3.020800	3.676400	-11.105000	25.278236	0.000498	20.864210
853.232657	-3.011400	3.677000	-11.072000	25.231955	0.000497	20.868478
854.230793	-3.007900	3.676000	-11.056000	25.221986	0.000496	20.860841
855.244086	-3.011300	3.677300	-11.073000	25.252112	0.000496	20.870697
856.232034	-2.989800	3.676100	-10.990000	25.235332	0.000493	20.866653
857.235680	-3.014100	3.675000	-11.076000	25.261358	0.000495	20.849636
858.245452	-3.017900	3.674600	-11.088000	25.235930	0.000496	20.837383
859.235162	-3.016100	3.674600	-11.081000	25.229467	0.000492	20.838480
860.245992	-2.990200	3.675900	-10.991000	25.277340	0.000493	20.864733
861.241325	-2.991700	3.674800	-10.993000	25.258177	0.000495	20.854502
862.232075	-3.004800	3.675800	-11.044000	25.275724	0.000493	20.867851
863.233933	-3.002100	3.673500	-11.027000	25.326975	0.000495	20.845817
864.243947	-3.008500	3.673200	-11.050000	25.315616	0.000495	20.848162
865.240624	-3.003600	3.673400	-11.033000	25.290140	0.000494	20.853877
866.244051	-3.017700	3.673800	-11.085000	25.287157	0.000492	20.861313
867.242619	-2.996800	3.673700	-11.009000	25.281838	0.000492	20.861662
868.242464	-2.981000	3.673700	-10.951000	25.283131	0.000494	20.850633
869.237778	-3.011100	3.672800	-11.059000	25.284771	0.000492	20.869348
870.241036	-3.007100	3.672500	-11.042000	25.338706	0.000492	20.868500
871.240374	-3.021700	3.672300	-11.096000	25.357247	0.000493	20.870047
872.244426	-3.001900	3.672100	-11.022000	25.356302	0.000489	20.850607
873.241963	-3.009900	3.673300	-11.055000	25.313180	0.000492	20.849510
874.240116	-2.994100	3.672400	-10.995000	25.278432	0.000491	20.845441
875.240521	-2.999900	3.672800	-11.016000	25.264936	0.000490	20.856546
876.249555	-3.002200	3.671800	-11.023000	25.289095	0.000491	20.848086
877.239793	-2.986000	3.672100	-10.963000	25.258448	0.000491	20.853352
878.239063	-3.004700	3.671200	-11.030000	25.328813	0.000491	20.843869
879.256264	-3.020200	3.671600	-11.087000	25.314397	0.000489	20.860688
880.244074	-2.988700	3.670600	-10.970000	25.317604	0.000488	20.851580
881.244740	-2.979200	3.669800	-10.932000	25.315815	0.000489	20.848361
882.245297	-3.017900	3.669800	-11.074000	25.366491	0.000491	20.847087
883.245792	-2.996400	3.670600	-10.998000	25.364056	0.000489	20.849858
884.239223	-3.010000	3.670000	-11.045000	25.380359	0.000491	20.856270
885.253089	-3.031000	3.668600	-11.118000	25.453152	0.000488	20.852552
886.243823	-3.005700	3.669500	-11.029000	25.432152	0.000492	20.858017
887.243789	-2.986900	3.669000	-10.958000	25.432376	0.000488	20.841173
888.240962	-3.008200	3.668100	-11.034000	25.378594	0.000487	20.843119
889.241338	-3.015300	3.666600	-11.055000	25.383764	0.000488	20.848784
890.243080	-2.994800	3.668700	-10.985000	25.361048	0.000486	20.849209
891.246784	-2.992100	3.668800	-10.976000	25.385007	0.000486	20.828221
892.249983	-2.993300	3.666400	-10.974000	25.387467	0.000488	20.840649
893.237669	-3.007300	3.667900	-11.029000	25.403125	0.000486	20.844517
894.252868	-2.981400	3.667500	-10.933000	25.386970	0.000486	20.832090
895.252541	-3.003200	3.665300	-11.007000	25.325060	0.000486	20.855747
896.253843	-3.000800	3.666800	-11.002000	25.326376	0.000485	20.846164
897.243300	-3.003300	3.665500	-11.008000	25.335995	0.000487	20.838278
898.246578	-2.989500	3.665500	-10.957000	25.364154	0.000485	20.853276
899.244440	-2.985200	3.665900	-10.943000	25.342929	0.000484	20.845240
900.240447	-3.000700	3.664700	-10.996000	25.348000	0.000483	20.834211
901.242083	-3.019400	3.665000	-11.065000	25.330280	0.000483	20.840600
902.253613	-3.017300	3.664500	-11.055000	25.312061	0.000483	20.833687
903.250910	-3.009900	3.664400	-11.028000	25.271124	0.000484	20.839053
904.253819	-2.998600	3.665200	-10.990000	25.276891	0.000484	20.849109
905.248635	-3.002200	3.664200	-10.999000	25.303858	0.000483	20.841572
906.249694	-3.004900	3.663400	-11.008000	25.319021	0.000482	20.838304
907.258808	-3.026400	3.662800	-11.084000	25.346062	0.000483	20.827997
908.254901	-2.993600	3.662700	-10.963000	25.307984	0.000482	20.824378
909.251135	-3.001200	3.663600	-10.994000	25.361818	0.000481	20.837180
910.243814	-2.977400	3.663500	-10.907000	25.398402	0.000482	20.856370
911.254726	-2.972500	3.662500	-10.886000	25.451959	0.000483	20.825751
912.249641	-3.023200	3.661500	-11.069000	25.427232	0.000484	20.849758
913.251295	-2.980700	3.661800	-10.914000	25.434488	0.000480	20.826225
914.246419	-2.991900	3.661400	-10.954000	25.445498	0.000480	20.833487
915.244412	-3.012600	3.661700	-11.030000	25.466671	0.000482	20.857119
916.251812	-2.984200	3.661300	-10.925000	25.447585	0.000480	20.830841
917.244322	-3.024300	3.660400	-11.069000	25.495349	0.000480	20.818114
918.250331	-3.006000	3.659700	-11.000000	25.502208	0.000477	20.819787
919.263321	-2.992000	3.660500	-10.950000	25.474623	0.000479	20.831915
920.251190	-3.024500	3.659900	-11.068000	25.463863	0.000477	20.815894
921.256493	-3.008500	3.660300	-11.011000	25.436551	0.000477	20.837779
922.234687	-3.012200	3.658800	-11.021000	25.386199	0.000478	20.839376
923.237264	-2.987200	3.659700	-10.932000	25.357493	0.000477	20.827147
924.257348	-2.997700	3.659100	-10.968000	25.343277	0.000477	20.803865
925.238168	-3.001100	3.658200	-10.977000	25.385876	0.000476	20.835259
926.233440	-2.982600	3.660300	-10.916000	25.387193	0.000474	20.842745
927.238749	-2.992100	3.658700	-10.947000	25.389330	0.000478	20.824502
928.235057	-3.005100	3.658900	-10.994000	25.385727	0.000475	20.834634
929.237435	-2.998700	3.659100	-10.972000	25.397507	0.000476	20.828920
930.257404	-3.002400	3.657100	-10.979000	25.367658	0.000477	20.821708
931.255107	-3.007500	3.657700	-10.999000	25.361644	0.000476	20.814720
932.270662	-2.988000	3.657100	-10.926000	25.363184	0.000476	20.811051
933.257154	-2.992200	3.657500	-10.943000	25.354834	0.000477	20.836331
934.244735	-2.982400	3.657600	-10.907000	25.331147	0.000473	20.827247
935.238762	-2.982800	3.657600	-10.909000	25.321379	0.000474	20.830715
936.239386	-3.009500	3.656300	-11.002000	25.334403	0.000473	20.832887
937.244099	-3.014300	3.656300	-11.020000	25.373349	0.000473	20.830740
938.242014	-3.005200	3.655300	-10.984000	25.398178	0.000474	20.814420
939.240232	-3.010900	3.655000	-11.004000	25.401980	0.000472	20.830092
940.243356	-2.999300	3.655000	-10.962000	25.402551	0.000474	20.817389
941.265022	-2.994600	3.654400	-10.943000	25.446391	0.000470	20.813996
942.262996	-3.010100	3.652900	-10.995000	25.431207	0.000471	20.816292
943.247777	-3.021100	3.654300	-11.039000	25.446813	0.000471	20.815842
944.249833	-3.000100	3.653500	-10.960000	25.429516	0.000469	20.809379
945.245047	-3.030400	3.653600	-11.071000	25.435854	0.000470	20.827596
946.265297	-3.002800	3.652900	-10.968000	25.410355	0.000472	20.842769
947.244652	-2.989300	3.652800	-10.918000	25.394872	0.000468	20.803041
948.246343	-3.008100	3.653000	-10.988000	25.435133	0.000471	20.820708
949.270993	-2.995400	3.652900	-10.940000	25.395866	0.000471	20.820633
950.274147	-2.995800	3.652800	-10.941000	25.388310	0.000468	20.824901
951.268681	-3.006100	3.652700	-10.979000	25.345636	0.000470	20.825200
952.250296	-3.004000	3.651900	-10.970000	25.361517	0.000469	20.804161
953.245829	-3.006700	3.650800	-10.976000	25.412740	0.000468	20.817189
954.254716	-3.016400	3.650300	-11.010000	25.431627	0.000468	20.799171
955.246747	-3.002600	3.651800	-10.964000	25.465526	0.000469	20.812348
956.273839	-2.997900	3.650200	-10.942000	25.481555	0.000469	20.817538
957.251710	-2.976500	3.650400	-10.865000	25.518259	0.000467	20.813146
958.249014	-2.995000	3.648900	-10.927000	25.497758	0.000467	20.811525
959.269714	-3.003800	3.650500	-10.964000	25.500764	0.000465	20.810750
960.265634	-2.986000	3.649100	-10.894000	25.478572	0.000465	20.800319
961.254315	-3.015000	3.648700	-11.000000	25.479044	0.000465	20.808854
962.267493	-3.010100	3.648500	-10.982000	25.456207	0.000466	20.818163
963.276573	-2.984500	3.649200	-10.890000	25.430932	0.000466	20.820757
964.254059	-2.995400	3.648500	-10.928000	25.381673	0.000467	20.828194
965.252968	-2.994800	3.647000	-10.921000	25.370117	0.000463	20.818961
966.255125	-2.986100	3.648200	-10.893000	25.408664	0.000465	20.813096
967.257867	-2.978100	3.647300	-10.860000	25.426782	0.000465	20.819909
968.255810	-3.001400	3.646900	-10.945000	25.464159	0.000465	20.808130
969.273659	-2.989700	3.647300	-10.903000	25.470969	0.000463	20.799796
970.258158	-2.994400	3.646600	-10.919000	25.443483	0.000462	20.793058
971.259476	-2.993100	3.646500	-10.913000	25.477529	0.000464	20.806384
972.262312	-2.993300	3.647600	-10.918000	25.487893	0.000464	20.799248
973.282901	-2.989700	3.646000	-10.899000	25.529541	0.000461	20.824951
974.256228	-2.978300	3.647100	-10.861000	25.515253	0.000464	20.796852
975.256925	-2.988400	3.645600	-10.893000	25.503101	0.000461	20.819261
976.259357	-2.987500	3.645900	-10.890000	25.476957	0.000460	20.797275
977.258135	-2.982300	3.645900	-10.872000	25.483768	0.000462	20.787993
978.259750	-3.006400	3.645000	-10.956000	25.521267	0.000460	20.817589
979.283890	-2.986300	3.645000	-10.883000	25.561275	0.000461	20.795180
980.261418	-3.002600	3.642800	-10.936000	25.567437	0.000460	20.799472
981.260668	-3.009300	3.642700	-10.962000	25.566518	0.000461	20.805661
982.263240	-3.007400	3.643900	-10.958000	25.540376	0.000459	20.788890
983.265508	-3.015800	3.643400	-10.986000	25.504244	0.000458	20.803814
984.259852	-3.000700	3.641800	-10.927000	25.493509	0.000457	20.790189
985.261281	-2.982500	3.644400	-10.869000	25.484265	0.000459	20.801294
986.262815	-2.973700	3.643000	-10.832000	25.439557	0.000460	20.790064
987.293461	-3.015800	3.642100	-10.983000	25.449597	0.000457	20.787818
988.266614	-3.000200	3.641500	-10.924000	25.466273	0.000456	20.786545
989.261217	-2.990800	3.642700	-10.894000	25.458221	0.000454	20.791262
990.264638	-3.002100	3.641300	-10.931000	25.499921	0.000456	20.789515
991.291193	-3.003200	3.641700	-10.936000	25.544676	0.000456	20.778036
992.291571	-3.020900	3.640600	-10.997000	25.510234	0.000456	20.788018
993.288918	-2.986000	3.642200	-10.874000	25.525816	0.000455	20.797976
994.285984	-3.017700	3.640500	-10.985000	25.494951	0.000455	20.781680
995.269646	-2.983800	3.639600	-10.859000	25.494603	0.000456	20.776588
996.264574	-2.997100	3.640500	-10.910000	25.459811	0.000456	20.787169
997.267864	-2.987000	3.639000	-10.869000	25.458718	0.000454	20.811676
998.262376	-2.980100	3.639900	-10.846000	25.436426	0.000455	20.777911
999.266974	-2.986500	3.639400	-10.868000	25.473604	0.000454	20.794382
1000.262935	-2.999400	3.639400	-10.916000	25.439134	0.000453	20.789165
1001.264571	-3.009200	3.638400	-10.948000	25.474523	0.000453	20.805262
1002.261384	-2.990300	3.638100	-10.878000	25.487446	0.000451	20.775565
1003.261868	-3.018500	3.637200	-10.978000	25.474548	0.000453	20.773518
1004.265335	-3.010100	3.637600	-10.949000	25.509463	0.000453	20.776338
1005.263379	-2.984500	3.638100	-10.857000	25.511973	0.000451	20.773643
1006.263395	-2.996800	3.636800	-10.898000	25.496441	0.000450	20.794555
1007.263764	-2.989100	3.635900	-10.867000	25.542439	0.000452	20.767728
1008.265663	-3.010300	3.635400	-10.943000	25.556032	0.000450	20.770948
1009.281489	-3.000200	3.637100	-10.911000	25.532349	0.000451	20.789364
1010.271382	-3.007900	3.635100	-10.933000	25.537742	0.000451	20.787668
1011.269950	-2.962900	3.636200	-10.772000	25.555758	0.000449	20.773518
1012.269499	-2.993300	3.635000	-10.880000	25.520869	0.000450	20.768352
1013.276549	-3.019200	3.634100	-10.971000	25.479667	0.000449	20.778659
1014.270161	-2.993700	3.636300	-10.885000	25.511625	0.000450	20.782777
1015.272987	-2.996400	3.635300	-10.891000	25.528623	0.000448	20.763336
1016.272336	-2.993200	3.635300	-10.880000	25.534811	0.000450	20.776189
1017.271110	-2.985500	3.634100	-10.849000	25.496641	0.000451	20.761565
1018.288841	-2.989000	3.635000	-10.863000	25.498355	0.000448	20.771347
1019.287001	-3.006000	3.632800	-10.920000	25.547061	0.000446	20.779483
1020.294839	-2.990500	3.633200	-10.864000	25.515303	0.000447	20.763236
1021.292202	-2.990300	3.632400	-10.861000	25.454767	0.000446	20.800122
1022.287646	-3.008500	3.631300	-10.923000	25.479817	0.000445	20.755576
1023.270107	-3.028900	3.630300	-10.994000	25.497114	0.000444	20.752082
1024.274744	-3.019800	3.631800	-10.966000	25.527455	0.000446	20.774492
1025.274470	-3.001200	3.631300	-10.897000	25.503575	0.000446	20.764261
1026.279873	-3.007600	3.629300	-10.915000	25.485509	0.000447	20.761292
1027.274438	-2.996200	3.630200	-10.876000	25.483148	0.000445	20.771249
1028.276594	-3.002600	3.629400	-10.897000	25.448778	0.000446	20.758072
1029.276461	-3.005900	3.629700	-10.910000	25.427505	0.000445	20.770375
1030.275819	-2.998700	3.629800	-10.884000	25.414010	0.000444	20.754453
1031.294746	-2.976100	3.630300	-10.803000	25.408618	0.000443	20.767531
1032.274497	-3.006100	3.629400	-10.910000	25.395595	0.000441	20.749238
1033.274213	-3.004400	3.629700	-10.904000	25.415452	0.000442	20.763487
1034.275766	-3.005400	3.628800	-10.905000	25.473033	0.000440	20.765359
1035.276121	-2.993800	3.629000	-10.864000	25.515578	0.000443	20.739804
1036.276530	-3.026700	3.628100	-10.980000	25.498903	0.000441	20.755776
1037.275758	-3.005500	3.627600	-10.902000	25.525121	0.000441	20.754603
1038.275137	-3.004100	3.627700	-10.897000	25.557797	0.000441	20.762289
1039.272647	-3.004400	3.627400	-10.897000	25.553573	0.000441	20.745718
1040.274613	-2.998300	3.627500	-10.876000	25.514857	0.000439	20.761366
1041.299786	-3.014900	3.626400	-10.933000	25.478600	0.000443	20.730170
1042.300779	-3.022200	3.625000	-10.955000	25.489534	0.000440	20.737832
1043.297474	-2.989400	3.626600	-10.841000	25.541645	0.000439	20.742274
1044.278339	-2.995300	3.626200	-10.860000	25.583739	0.000439	20.740926
1045.275033	-3.011000	3.625100	-10.914000	25.590449	0.000439	20.758097
1046.276966	-2.996100	3.625800	-10.862000	25.538414	0.000438	20.741401
1047.281671	-3.031200	3.623900	-10.983000	25.519728	0.000438	20.744446
1048.279948	-3.006400	3.625000	-10.897000	25.560481	0.000436	20.759769
1049.272732	-2.992000	3.625300	-10.846000	25.586374	0.000436	20.763013
1050.275371	-3.024900	3.623700	-10.960000	25.564059	0.000436	20.738231
1051.298570	-2.999300	3.624400	-10.870000	25.579118	0.000437	20.749562
1052.287716	-3.009500	3.623000	-10.902000	25.620092	0.000435	20.741875
1053.281360	-3.009200	3.623400	-10.902000	25.638181	0.000437	20.765733
1054.274612	-2.995800	3.623600	-10.855000	25.597854	0.000435	20.745145
1055.277827	-3.001200	3.621900	-10.869000	25.566445	0.000436	20.749162
1056.277781	-2.981700	3.622500	-10.800000	25.591070	0.000436	20.753505
1057.276480	-3.008200	3.621500	-10.894000	25.555214	0.000435	20.750686
1058.284903	-2.988300	3.621800	-10.822000	25.491697	0.000435	20.748065
1059.276206	-3.009100	3.620600	-10.894000	25.486156	0.000434	20.744397
1060.273323	-2.988100	3.621400	-10.820000	25.456856	0.000432	20.730620
1061.276097	-2.998900	3.620400	-10.857000	25.456234	0.000433	20.756076
1062.296487	-3.001500	3.620200	-10.865000	25.472164	0.000434	20.742200
1063.296222	-2.985300	3.620800	-10.809000	25.532229	0.000433	20.744672
1064.273767	-3.021700	3.619300	-10.935000	25.535707	0.000431	20.751958
1065.277671	-3.007100	3.619100	-10.882000	25.553599	0.000431	20.750486
1066.278203	-3.012500	3.618500	-10.900000	25.523333	0.000433	20.745221
1067.290740	-3.007700	3.618800	-10.883000	25.549027	0.000432	20.756800
1068.276135	-2.987600	3.618300	-10.809000	25.520997	0.000429	20.757574
1069.277185	-3.014100	3.617800	-10.904000	25.528699	0.000429	20.760094
1070.273703	-3.003900	3.617300	-10.865000	25.517518	0.000430	20.759771
1071.280294	-3.014200	3.617400	-10.902000	25.535733	0.000427	20.750562
1072.275647	-2.985000	3.617200	-10.796000	25.575691	0.000431	20.757500
1073.278231	-2.973200	3.618200	-10.757000	25.576983	0.000428	20.741728
1074.280973	-3.007900	3.616300	-10.877000	25.590550	0.000428	20.755828
1075.282339	-3.008200	3.616100	-10.877000	25.571740	0.000430	20.769179
1076.275401	-2.991300	3.615400	-10.814000	25.531061	0.000427	20.760569
1077.278682	-3.016600	3.616000	-10.907000	25.566944	0.000429	20.769104
1078.280698	-3.010000	3.615900	-10.883000	25.589085	0.000428	20.745347
1079.276962	-3.024000	3.614600	-10.930000	25.589011	0.000426	20.749066
1080.294519	-2.996900	3.615900	-10.835000	25.578326	0.000426	20.746395
1081.278485	-3.017300	3.613500	-10.902000	25.583246	0.000425	20.767459
1082.283607	-2.975700	3.615100	-10.756000	25.551662	0.000427	20.771775
1083.280296	-3.006800	3.614600	-10.867000	25.557528	0.000425	20.775295
1084.278371	-2.989400	3.612700	-10.800000	25.586426	0.000425	20.759747
1085.279218	-2.978200	3.614600	-10.764000	25.590552	0.000424	20.759623
1086.275877	-2.993500	3.612400	-10.812000	25.568039	0.000425	20.751712
1087.296382	-3.012000	3.612400	-10.880000	25.581954	0.000425	20.774222
1088.277870	-3.010400	3.611400	-10.871000	25.576115	0.000425	20.769306
1089.300221	-2.988600	3.612700	-10.796000	25.556062	0.000423	20.758175
1090.279316	-3.008000	3.611500	-10.863000	25.595323	0.000421	20.748767
1091.302879	-3.009800	3.612900	-10.873000	25.653442	0.000422	20.757826
1092.287760	-3.007500	3.610500	-10.858000	25.681245	0.000423	20.743077
1093.287819	-3.015900	3.610800	-10.889000	25.671306	0.000422	20.774821
1094.282879	-2.971300	3.611000	-10.728000	25.623525	0.000422	20.779463
1095.287467	-2.980300	3.611100	-10.762000	25.624022	0.000423	20.743451
1096.282902	-2.992300	3.611000	-10.804000	25.595447	0.000422	20.744625
1097.300051	-3.019500	3.609300	-10.897000	25.616891	0.000420	20.761420
1098.302822	-3.006500	3.608500	-10.848000	25.622581	0.000421	20.768083
1099.280196	-3.009400	3.609600	-10.862000	25.622954	0.000421	20.774621
1100.283403	-3.000300	3.608900	-10.826000	25.633862	0.000421	20.780361
1101.291254	-3.033400	3.608000	-10.944000	25.645366	0.000419	20.764415
1102.295479	-2.998200	3.606700	-10.813000	25.697743	0.000421	20.751113
1103.306923	-2.981000	3.608600	-10.757000	25.693619	0.000419	20.754083
1104.284232	-2.985800	3.607300	-10.770000	25.635676	0.000418	20.773649
1105.285827	-2.991300	3.608100	-10.791000	25.626855	0.000419	20.779488
1106.286222	-2.999100	3.608400	-10.820000	25.646931	0.000418	20.751287
1107.288125	-3.014800	3.607700	-10.875000	25.633812	0.000418	20.773199
1108.285262	-3.018300	3.605700	-10.883000	25.627749	0.000416	20.757152
1109.286050	-3.003000	3.606200	-10.828000	25.627651	0.000416	20.772226
1110.288685	-3.009500	3.606500	-10.853000	25.612642	0.000414	20.747669
1111.286193	-2.993400	3.606000	-10.793000	25.621612	0.000417	20.760945
1112.285101	-2.995400	3.605300	-10.798000	25.625687	0.000416	20.760296
1113.282550	-2.987400	3.605300	-10.770000	25.588440	0.000415	20.759399
1114.283226	-2.994200	3.605500	-10.794000	25.619873	0.000416	20.784804
1115.289102	-3.003100	3.604700	-10.824000	25.654486	0.000414	20.778790
1116.286487	-2.972800	3.606500	-10.721000	25.627352	0.000413	20.769555
1117.310104	-2.986800	3.604400	-10.764000	25.619475	0.000412	20.766386
1118.291154	-3.025200	3.603100	-10.899000	25.650162	0.000414	20.771602
1119.293629	-3.011700	3.601900	-10.847000	25.636322	0.000413	20.787099
1120.284170	-3.006300	3.603500	-10.833000	25.651032	0.000411	20.778165
1121.285260	-2.999200	3.603100	-10.805000	25.626905	0.000409	20.762942
1122.284827	-2.998200	3.602200	-10.800000	25.641142	0.000412	20.766336
1123.289727	-3.002700	3.601900	-10.814000	25.694811	0.000410	20.784204
1124.286901	-3.001800	3.600600	-10.807000	25.727259	0.000411	20.772700
1125.285987	-2.989200	3.603300	-10.770000	25.709618	0.000411	20.792439
1126.287154	-2.996200	3.601500	-10.790000	25.686885	0.000409	20.757277
1127.286854	-3.011700	3.601000	-10.844000	25.671977	0.000410	20.798728
1128.294646	-2.992800	3.599900	-10.773000	25.686935	0.000411	20.795734
1129.302595	-2.989500	3.599300	-10.760000	25.744328	0.000409	20.808810
1130.314241	-3.010100	3.599300	-10.833000	25.663305	0.000408	20.783854
1131.291078	-3.000100	3.599000	-10.796000	25.656696	0.000407	20.776268
1132.303086	-2.987700	3.599500	-10.753000	25.668474	0.000408	20.776718
1133.291275	-3.014500	3.599100	-10.849000	25.653193	0.000406	20.793613
1134.289753	-3.006000	3.598000	-10.814000	25.593979	0.000410	20.770178
1135.292290	-2.983700	3.597600	-10.732000	25.623177	0.000405	20.774845
1136.289398	-2.976500	3.597300	-10.707000	25.636371	0.000406	20.780984
1137.311805	-2.992900	3.597900	-10.767000	25.657738	0.000408	20.802920
1138.295010	-2.989500	3.597800	-10.755000	25.700798	0.000405	20.778838
1139.293772	-2.996300	3.597200	-10.778000	25.700450	0.000405	20.782756
1140.294246	-2.988200	3.597200	-10.748000	25.651576	0.000405	20.802895
1141.290175	-3.009000	3.596000	-10.820000	25.659031	0.000405	20.788571
1142.313055	-3.011400	3.595200	-10.825000	25.686684	0.000406	20.777464
1143.311615	-2.998500	3.594900	-10.778000	25.713345	0.000402	20.798553
1144.291791	-2.993800	3.596100	-10.765000	25.736377	0.000405	20.792763
1145.317521	-3.017500	3.595600	-10.848000	25.731532	0.000402	20.801647
1146.291834	-2.983900	3.595000	-10.726000	25.709444	0.000402	20.798902
1147.293447	-2.996000	3.593800	-10.766000	25.694164	0.000403	20.775019
1148.296230	-2.996100	3.594900	-10.769000	25.720426	0.000401	20.801398
1149.294298	-2.995100	3.593100	-10.761000	25.722637	0.000403	20.783704
1150.298531	-3.003200	3.595100	-10.795000	25.686213	0.000402	20.798802
1151.290747	-2.991600	3.593700	-10.750000	25.708152	0.000402	20.790493
1152.291233	-3.014200	3.592700	-10.829000	25.748352	0.000401	20.784878
1153.296275	-3.012900	3.592000	-10.821000	25.750016	0.000400	20.802671
1154.295555	-3.016200	3.592000	-10.834000	25.669518	0.000401	20.791517
1155.320714	-2.967200	3.592300	-10.658000	25.656024	0.000400	20.793612
1156.312254	-2.993000	3.592300	-10.751000	25.669269	0.000399	20.807862
1157.317489	-2.997700	3.591400	-10.765000	25.656473	0.000399	20.773673
1158.325664	-2.980800	3.593200	-10.709000	25.694414	0.000399	20.807987
1159.323699	-3.038800	3.591500	-10.914000	25.662287	0.000399	20.811281
1160.320354	-3.006500	3.590600	-10.794000	25.676450	0.000398	20.816971
1161.294656	-3.001100	3.589200	-10.771000	25.678984	0.000401	20.794861
1162.320875	-2.988100	3.589900	-10.726000	25.700178	0.000396	20.794337
1163.294930	-2.991300	3.589600	-10.737000	25.751112	0.000397	20.821788
1164.299172	-3.000200	3.589900	-10.769000	25.754291	0.000397	20.789420
1165.325235	-2.987100	3.589100	-10.720000	25.756925	0.000397	20.809610
1166.296848	-3.006700	3.587800	-10.787000	25.777696	0.000397	20.811507
1167.293869	-2.995800	3.588100	-10.749000	25.804353	0.000395	20.789446
1168.295987	-2.995200	3.588700	-10.748000	25.818489	0.000397	20.802698
1169.294465	-2.995700	3.587800	-10.747000	25.781795	0.000397	20.798555
1170.297701	-2.999200	3.586800	-10.756000	25.744131	0.000394	20.800078
1171.297165	-2.995000	3.586300	-10.740000	25.735659	0.000394	20.830922
1172.323684	-2.969500	3.588500	-10.655000	25.733000	0.000396	20.807864
1173.302594	-2.995400	3.587100	-10.744000	25.695210	0.000396	20.820641
1174.310853	-3.003900	3.585900	-10.769000	25.692552	0.000395	20.796635
1175.302765	-3.014400	3.585100	-10.806000	25.707012	0.000394	20.828227
1176.299573	-3.008700	3.585000	-10.785000	25.741025	0.000393	20.818770
1177.304679	-3.014000	3.585500	-10.805000	25.764952	0.000394	20.812457
1178.319226	-2.990100	3.585000	-10.719000	25.717845	0.000393	20.813978
1179.301972	-2.990300	3.584900	-10.719000	25.729821	0.000391	20.811308
1180.331439	-2.979300	3.585300	-10.681000	25.684427	0.000391	20.819294
1181.317738	-2.994800	3.584800	-10.735000	25.679980	0.000392	20.818620
1182.303469	-2.980400	3.584300	-10.682000	25.714615	0.000391	20.822114
1183.324385	-3.023700	3.583800	-10.836000	25.700404	0.000391	20.821590
1184.322529	-3.023400	3.583300	-10.833000	25.704130	0.000389	20.809686
1185.300735	-2.999900	3.582500	-10.746000	25.684079	0.000390	20.826530
1186.314305	-2.974300	3.582200	-10.654000	25.721672	0.000388	20.823038
1187.317722	-2.992900	3.583100	-10.722000	25.739511	0.000386	20.838110
1188.301401	-3.026900	3.582500	-10.843000	25.726989	0.000389	20.817947
1189.306531	-2.996600	3.581200	-10.730000	25.712056	0.000388	20.824759
1190.302069	-3.002900	3.580500	-10.751000	25.689845	0.000387	20.813356
1191.305880	-2.988400	3.581800	-10.703000	25.683161	0.000387	20.833669
1192.301338	-2.994400	3.580900	-10.722000	25.739785	0.000385	20.822739
1193.308661	-2.989200	3.580200	-10.701000	25.682788	0.000385	20.824759
1194.305861	-3.001700	3.579900	-10.745000	25.696702	0.000386	20.843002
1195.306808	-3.003800	3.579800	-10.752000	25.734592	0.000386	20.836963
1196.305881	-2.993100	3.578600	-10.711000	25.788280	0.000385	20.852957
1197.307004	-3.019400	3.579200	-10.806000	25.719634	0.000386	20.838060
1198.312756	-2.992300	3.579700	-10.711000	25.687161	0.000385	20.837686
1199.335097	-2.988300	3.578900	-10.694000	25.681074	0.000385	20.842003
1200.334503	-3.013900	3.578300	-10.784000	25.693174	0.000387	20.833768
1201.303625	-2.985500	3.579400	-10.685000	25.713349	0.000384	20.837911
1202.307459	-3.035200	3.575900	-10.853000	25.696852	0.000384	20.821341
1203.304881	-3.002900	3.577100	-10.741000	25.646885	0.000384	20.832796
1204.306985	-2.977600	3.578000	-10.652000	25.649047	0.000383	20.840182
1205.309634	-2.982400	3.576500	-10.666000	25.673074	0.000382	20.831598
1206.306131	-2.994500	3.577200	-10.710000	25.713324	0.000383	20.860645
1207.303742	-3.009900	3.575400	-10.761000	25.708877	0.000381	20.822989
1208.310719	-3.005700	3.575400	-10.746000	25.740530	0.000383	20.839609
1209.312102	-3.004100	3.576300	-10.743000	25.756405	0.000381	20.829002
1210.309005	-3.006700	3.574100	-10.746000	25.762270	0.000381	20.854332
1211.315066	-2.975700	3.575700	-10.639000	25.751115	0.000381	20.854507
1212.308231	-2.996900	3.574100	-10.710000	25.730046	0.000381	20.854681
1213.316175	-2.985900	3.575200	-10.674000	25.791536	0.000380	20.853858
1214.327327	-2.990500	3.574500	-10.688000	25.800257	0.000381	20.859298
1215.311867	-2.979600	3.573700	-10.647000	25.837199	0.000378	20.844251
1216.309461	-2.986100	3.572900	-10.668000	25.853769	0.000380	20.840034
1217.308213	-2.996700	3.573600	-10.708000	25.809027	0.000378	20.840134
1218.309817	-2.998900	3.573400	-10.715000	25.782320	0.000379	20.846023
1219.308483	-2.995300	3.572100	-10.698000	25.800308	0.000378	20.847496
1220.315095	-3.024700	3.571700	-10.802000	25.722668	0.000377	20.846797
1221.310266	-3.001700	3.572200	-10.722000	25.741676	0.000378	20.844552
1222.310077	-2.994400	3.572000	-10.695000	25.698394	0.000378	20.847546
1223.331089	-3.005200	3.571500	-10.732000	25.692159	0.000378	20.861671
1224.331531	-2.973300	3.570700	-10.615000	25.696133	0.000375	20.873723
1225.334995	-2.999400	3.569900	-10.707000	25.720433	0.000375	20.855457
1226.345771	-2.986500	3.571000	-10.662000	25.768211	0.000374	20.865989
1227.312182	-3.001700	3.570000	-10.715000	25.771266	0.000374	20.852463
1228.313665	-3.005700	3.568600	-10.725000	25.806594	0.000373	20.870879
1229.315032	-3.018600	3.567900	-10.768000	25.765005	0.000374	20.866088
1230.312413	-3.011400	3.568600	-10.745000	25.743788	0.000373	20.865639
1231.318562	-3.002400	3.568800	-10.714000	25.748038	0.000374	20.862321
1232.312274	-3.001000	3.569400	-10.711000	25.794918	0.000371	20.854884
1233.314874	-3.006300	3.569100	-10.728000	25.819813	0.000372	20.868037
1234.314414	-2.982400	3.567600	-10.639000	25.816383	0.000374	20.852738
1235.313755	-3.002000	3.567800	-10.709000	25.789751	0.000372	20.853012
1236.322209	-3.004600	3.567100	-10.717000	25.784237	0.000372	20.874973
1237.313683	-3.005900	3.566900	-10.721000	25.748136	0.000371	20.891815
1238.316745	-3.027300	3.566500	-10.796000	25.738920	0.000369	20.854112
1239.315134	-3.024600	3.565100	-10.781000	25.774323	0.000370	20.865016
1240.340353	-3.014700	3.565700	-10.748000	25.757776	0.000369	20.873999
1241.349681	-3.011000	3.565600	-10.735000	25.753107	0.000368	20.865516
1242.350194	-3.002000	3.564300	-10.699000	25.750224	0.000369	20.851715
1243.320038	-3.017200	3.565100	-10.755000	25.732485	0.000368	20.873725
1244.319409	-2.991300	3.564100	-10.660000	25.715390	0.000369	20.880262
1245.321199	-2.989800	3.564600	-10.657000	25.744460	0.000368	20.862521
1246.338861	-2.983200	3.564600	-10.633000	25.818321	0.000370	20.857530
1247.360545	-3.020900	3.564300	-10.767000	25.813453	0.000367	20.900526
1248.318754	-2.997600	3.562600	-10.678000	25.800410	0.000369	20.893115
1249.318844	-3.000500	3.563400	-10.690000	25.813576	0.000367	20.868410
1250.317216	-2.995100	3.562800	-10.670000	25.779169	0.000365	20.873676
1251.320646	-3.010400	3.561300	-10.720000	25.749678	0.000366	20.892416
1252.323494	-2.994300	3.562100	-10.664000	25.777553	0.000366	20.887700
1253.324329	-3.005600	3.560900	-10.702000	25.804335	0.000366	20.887100
1254.319001	-3.008200	3.562100	-10.714000	25.764063	0.000368	20.901175
1255.321666	-2.997600	3.561200	-10.675000	25.740237	0.000365	20.873925
1256.325814	-2.989700	3.561900	-10.649000	25.769404	0.000364	20.886152
1257.322250	-3.003400	3.560500	-10.693000	25.782099	0.000364	20.897955
1258.323394	-2.984200	3.560300	-10.624000	25.817651	0.000365	20.900950
1259.319708	-2.985300	3.560300	-10.628000	25.833600	0.000364	20.881411
1260.352755	-2.994900	3.560300	-10.662000	25.859586	0.000363	20.896135
1261.324309	-2.970100	3.561700	-10.578000	25.883782	0.000362	20.885828
1262.325197	-2.975400	3.558800	-10.588000	25.876851	0.000365	20.876496
1263.325119	-3.001400	3.557900	-10.678000	25.897146	0.000362	20.898304
1264.348969	-3.003500	3.558600	-10.686000	25.863461	0.000363	20.877269
1265.324033	-2.995200	3.557600	-10.655000	25.861001	0.000361	20.886651
1266.324293	-3.000800	3.558000	-10.676000	25.850469	0.000361	20.888399
1267.322949	-3.004100	3.557900	-10.688000	25.800732	0.000362	20.885852
1268.321873	-2.997000	3.557100	-10.660000	25.805255	0.000362	20.899403
1269.350749	-3.013900	3.557500	-10.722000	25.777703	0.000362	20.902073
1270.323339	-3.000800	3.557800	-10.676000	25.818222	0.000361	20.919065
1271.349665	-3.020800	3.556400	-10.742000	25.809353	0.000357	20.894511
1272.330363	-3.021100	3.556100	-10.742000	25.789031	0.000359	20.894012
1273.347566	-3.008300	3.555000	-10.693000	25.806397	0.000357	20.887275
1274.330043	-2.995200	3.555600	-10.649000	25.823589	0.000359	20.906440
1275.327197	-2.985600	3.555000	-10.613000	25.831290	0.000356	20.908011
1276.327810	-3.007800	3.554500	-10.690000	25.825601	0.000358	20.892341
1277.333608	-2.997500	3.554800	-10.655000	25.857225	0.000357	20.890918
1278.324725	-3.008000	3.554700	-10.692000	25.831438	0.000358	20.903419
1279.326354	-2.947800	3.554400	-10.476000	25.781106	0.000356	20.876096
1280.328070	-2.987900	3.552700	-10.614000	25.756759	0.000355	20.918966
1281.331395	-3.002000	3.551800	-10.661000	25.755093	0.000356	20.886476
1282.329625	-2.994800	3.552500	-10.638000	25.723192	0.000355	20.907062
1283.332584	-2.994000	3.552400	-10.635000	25.702122	0.000354	20.918615
1284.330718	-3.000700	3.552300	-10.659000	25.750993	0.000357	20.905590
1285.333133	-3.010000	3.550900	-10.687000	25.771143	0.000354	20.904018
1286.332149	-2.990600	3.551900	-10.622000	25.774645	0.000354	20.907536
1287.329150	-2.987600	3.551900	-10.611000	25.747688	0.000351	20.903218
1288.326721	-2.972200	3.550600	-10.552000	25.736384	0.000354	20.903717
1289.329210	-2.989900	3.550900	-10.616000	25.778545	0.000353	20.901971
1290.351973	-2.996500	3.549400	-10.635000	25.828728	0.000355	20.908757
1291.349024	-3.009000	3.549000	-10.679000	25.878862	0.000352	20.889420
1292.327993	-3.004400	3.549600	-10.663000	25.888350	0.000352	20.915545
1293.329984	-2.989700	3.549200	-10.610000	25.843784	0.000351	20.896382
1294.348013	-2.989200	3.548700	-10.606000	25.835162	0.000350	20.906212
1295.353775	-3.027200	3.548200	-10.740000	25.846739	0.000350	20.891763
1296.344625	-3.004900	3.548300	-10.662000	25.858962	0.000352	20.886973
1297.355894	-2.986600	3.548400	-10.597000	25.866637	0.000350	20.898950
1298.347951	-3.014700	3.547000	-10.692000	25.887952	0.000349	20.894284
1299.333851	-2.995100	3.547900	-10.625000	25.880425	0.000351	20.875818
1300.332315	-2.982200	3.547400	-10.578000	25.869245	0.000349	20.878338
1301.334438	-2.993600	3.546600	-10.616000	25.812306	0.000349	20.873772
1302.352521	-2.997400	3.546600	-10.629000	25.831882	0.000347	20.883004
1303.364697	-3.008000	3.544200	-10.660000	25.837696	0.000346	20.885525
1304.334579	-3.004500	3.545600	-10.652000	25.843683	0.000348	20.878737
1305.330705	-2.971600	3.545100	-10.534000	25.816157	0.000347	20.875743
1306.352656	-2.975900	3.547100	-10.555000	25.762891	0.000347	20.874869
1307.333261	-2.991500	3.544100	-10.602000	25.772854	0.000347	20.872075
1308.332460	-2.994100	3.544600	-10.612000	25.801226	0.000346	20.872125
1309.334234	-3.003600	3.542600	-10.639000	25.831286	0.000346	20.853009
1310.335574	-3.001900	3.543400	-10.636000	25.835833	0.000347	20.875593
1311.334964	-2.982800	3.543900	-10.570000	25.846862	0.000347	20.860121
1312.333628	-2.991700	3.542100	-10.596000	25.830415	0.000345	20.865885
1313.333519	-2.973100	3.543000	-10.532000	25.844973	0.000345	20.878137
1314.334733	-2.987500	3.542400	-10.581000	25.787933	0.000343	20.859721
1315.335662	-2.985600	3.542400	-10.576000	25.848600	0.000344	20.850014
1316.338883	-2.995300	3.542800	-10.610000	25.845445	0.000345	20.844474
1317.338731	-3.023700	3.541200	-10.707000	25.842613	0.000344	20.862491
1318.337018	-2.994300	3.541600	-10.604000	25.854412	0.000343	20.857749
1319.334849	-2.997300	3.540800	-10.612000	25.825322	0.000342	20.874044
1320.335460	-2.984100	3.539600	-10.562000	25.855654	0.000344	20.851884
1321.349167	-2.994800	3.539500	-10.599000	25.853146	0.000340	20.855054
1322.357370	-3.006400	3.540600	-10.643000	25.851356	0.000342	20.858472
1323.339511	-2.985300	3.540300	-10.568000	25.835431	0.000341	20.845794
1324.362936	-2.974200	3.540200	-10.529000	25.854386	0.000340	20.839232
1325.359300	-2.998200	3.537900	-10.606000	25.860348	0.000341	20.852806
1326.360636	-3.005500	3.539200	-10.635000	25.855355	0.000338	20.847791
1327.362472	-3.005300	3.538800	-10.634000	25.873291	0.000339	20.852058
1328.378608	-2.989100	3.537700	-10.573000	25.878035	0.000337	20.846867
1329.361871	-2.990800	3.537700	-10.580000	25.874857	0.000338	20.848415
1330.338898	-3.000600	3.538500	-10.617000	25.844375	0.000339	20.841028
1331.353372	-3.009800	3.536400	-10.643000	25.809121	0.000338	20.840702
1332.358229	-3.020500	3.535800	-10.678000	25.789346	0.000336	20.817994
1333.355267	-3.004700	3.535400	-10.622000	25.822040	0.000338	20.834239
1334.363185	-2.985500	3.536400	-10.557000	25.859701	0.000338	20.855001
1335.359565	-3.002300	3.535700	-10.614000	25.854733	0.000334	20.829623
1336.356612	-2.984400	3.536500	-10.553000	25.815829	0.000336	20.834164
1337.364458	-3.018200	3.535800	-10.671000	25.858011	0.000338	20.851881
1338.363109	-3.001800	3.533700	-10.607000	25.862980	0.000337	20.857347
1339.351173	-2.985600	3.534300	-10.551000	25.845913	0.000337	20.846367
1340.358149	-3.007100	3.533300	-10.624000	25.879798	0.000336	20.838680
1341.346620	-2.983000	3.533100	-10.538000	25.838833	0.000336	20.854427
1342.346015	-3.001300	3.533700	-10.604000	25.835305	0.000334	20.830495
1343.352398	-3.000600	3.532900	-10.600000	25.803530	0.000335	20.822285
1344.350162	-2.996400	3.532800	-10.584000	25.799729	0.000335	20.842648
1345.347399	-2.994200	3.532100	-10.576000	25.826933	0.000335	20.835361
1346.349421	-3.020100	3.531800	-10.666000	25.818287	0.000332	20.843746
1347.354132	-2.997000	3.533000	-10.587000	25.868395	0.000334	20.828174
1348.354245	-3.025900	3.530400	-10.682000	25.859178	0.000333	20.824131
1349.356194	-2.991200	3.531800	-10.563000	25.856371	0.000334	20.829372
1350.356656	-2.995200	3.531400	-10.576000	25.832970	0.000334	20.833365
1351.353189	-3.022400	3.529100	-10.665000	25.886776	0.000333	20.822458
1352.353821	-2.978000	3.531400	-10.517000	25.802362	0.000330	20.828223
1353.371702	-3.028800	3.528900	-10.687000	25.739009	0.000331	20.830020
1354.354681	-2.978500	3.529800	-10.513000	25.752252	0.000331	20.824356
1355.355119	-2.980700	3.529000	-10.518000	25.704176	0.000331	20.815896
1356.372597	-3.014000	3.528200	-10.633000	25.769742	0.000330	20.831018
1357.352038	-3.002700	3.528700	-10.594000	25.752177	0.000329	20.825703
1358.353467	-2.977100	3.529600	-10.507000	25.759232	0.000330	20.827574
1359.351698	-2.985900	3.527100	-10.530000	25.764821	0.000329	20.815645
1360.355406	-2.991600	3.526500	-10.549000	25.780474	0.000331	20.817143
1361.365864	-2.980300	3.526700	-10.510000	25.789989	0.000329	20.828122
1362.354938	-2.974700	3.526800	-10.491000	25.745145	0.000329	20.817217
1363.358183	-3.028300	3.525500	-10.675000	25.805840	0.000330	20.800897
1364.355418	-3.004900	3.525700	-10.593000	25.811803	0.000331	20.834861
1365.357784	-3.001500	3.526400	-10.583000	25.837266	0.000328	20.819189
1366.360376	-3.017200	3.525000	-10.634000	25.886354	0.000328	20.826775
1367.356339	-3.025100	3.524700	-10.662000	25.921430	0.000328	20.808433
1368.354941	-3.025800	3.523300	-10.659000	25.892739	0.000325	20.838879
1369.361619	-3.008400	3.524300	-10.602000	25.862357	0.000326	20.807410
1370.355433	-3.001900	3.524700	-10.580000	25.866654	0.000326	20.815994
1371.361073	-3.004200	3.523100	-10.584000	25.852643	0.000327	20.822782
1372.357803	-2.994300	3.523300	-10.548000	25.877908	0.000324	20.806437
1373.356429	-3.006200	3.522000	-10.587000	25.805864	0.000324	20.813250
1374.357185	-3.000000	3.523800	-10.570000	25.805766	0.000323	20.808884
1375.358223	-2.993600	3.521600	-10.541000	25.829366	0.000324	20.817891
1376.361691	-3.001500	3.521300	-10.569000	25.871773	0.000324	20.807386
1377.365137	-3.011400	3.521500	-10.604000	25.888764	0.000323	20.812601
1378.358760	-3.011900	3.521300	-10.604000	25.907991	0.000323	20.793984
1379.358494	-2.995500	3.522300	-10.550000	25.895396	0.000323	20.823057
1380.362465	-3.026700	3.520000	-10.653000	25.914573	0.000320	20.795381
1381.360261	-3.012400	3.519000	-10.599000	25.900191	0.000321	20.800373
1382.365535	-2.993800	3.519500	-10.535000	25.870630	0.000320	20.794384
1383.361293	-2.990100	3.519600	-10.523000	25.775282	0.000322	20.827574
1384.361307	-3.002000	3.519600	-10.565000	25.818162	0.000319	20.825603
1385.362078	-3.028400	3.517900	-10.652000	25.848047	0.000319	20.812950
1386.361602	-2.996200	3.518300	-10.541000	25.831228	0.000320	20.820710
1387.362778	-2.985400	3.519200	-10.505000	25.767828	0.000321	20.805388
1388.359686	-3.023800	3.517300	-10.634000	25.804746	0.000319	20.807859
1389.358957	-3.003700	3.517600	-10.564000	25.823378	0.000318	20.808557
1390.362758	-3.000800	3.518000	-10.556000	25.854158	0.000318	20.783053
1391.360286	-2.993500	3.517800	-10.530000	25.873882	0.000318	20.774891
1392.364141	-2.978700	3.517300	-10.476000	25.913778	0.000317	20.817341
1393.360557	-3.003900	3.516800	-10.564000	25.883273	0.000316	20.811352
1394.360065	-2.976800	3.516200	-10.466000	25.822185	0.000318	20.800721
1395.360754	-3.010300	3.514700	-10.580000	25.858678	0.000315	20.794706
1396.360326	-2.986000	3.516700	-10.500000	25.883397	0.000316	20.804365
1397.364126	-2.995800	3.514700	-10.528000	25.878700	0.000315	20.792060
1398.366070	-2.985400	3.515200	-10.493000	25.927016	0.000314	20.788915
1399.363255	-3.025300	3.514400	-10.631000	25.881980	0.000316	20.786820
1400.360450	-2.990300	3.514300	-10.508000	25.884315	0.000315	20.792484
1401.367196	-2.990500	3.514100	-10.509000	25.889258	0.000311	20.805511
1402.364727	-2.995200	3.513200	-10.522000	25.835697	0.000314	20.783949
1403.370090	-2.992300	3.512900	-10.510000	25.904262	0.000316	20.800195
1404.365003	-3.008500	3.512700	-10.567000	25.899765	0.000313	20.812747
1405.363950	-3.023300	3.512900	-10.620000	25.853359	0.000314	20.803587
1406.376538	-2.982700	3.512400	-10.475000	25.861508	0.000313	20.784747
1407.368206	-3.012900	3.511000	-10.577000	25.884909	0.000313	20.789763
1408.396520	-3.002300	3.512000	-10.543000	25.903540	0.000314	20.797573
1409.370723	-2.989400	3.511200	-10.495000	25.903217	0.000313	20.792982
1410.368345	-3.006600	3.509600	-10.552000	25.899590	0.000310	20.791234
1411.369801	-2.990800	3.511200	-10.500000	25.909500	0.000311	20.793130
1412.368505	-3.021400	3.509000	-10.602000	25.902894	0.000310	20.781277
1413.371201	-2.993900	3.509700	-10.507000	25.897727	0.000310	20.797897
1414.366776	-2.973200	3.509800	-10.434000	25.862625	0.000310	20.771169
1415.373581	-3.009000	3.508600	-10.557000	25.883369	0.000309	20.787267
1416.368209	-3.001300	3.509500	-10.531000	25.898248	0.000309	20.799844
1417.367890	-3.004700	3.507800	-10.539000	25.828094	0.000310	20.802389
1418.368730	-3.020400	3.506900	-10.591000	25.851371	0.000309	20.795901
1419.373512	-3.004200	3.507500	-10.537000	25.881629	0.000308	20.790261
1420.366562	-3.001300	3.507400	-10.525000	25.908508	0.000307	20.776959
1421.372365	-2.997000	3.506200	-10.507000	25.907514	0.000307	20.793031
1422.370633	-3.013900	3.506400	-10.567000	25.941943	0.000309	20.789212
1423.367336	-3.017300	3.505100	-10.574000	25.978185	0.000308	20.790062
1424.370378	-3.001700	3.506600	-10.525000	25.933969	0.000306	20.794952
1425.373633	-3.004300	3.505800	-10.531000	25.914966	0.000306	20.781077
1426.369282	-3.007900	3.504700	-10.541000	25.900111	0.000306	20.782274
1427.368162	-3.016600	3.505500	-10.574000	25.823871	0.000304	20.777284
1428.370961	-2.983600	3.505500	-10.458000	25.809809	0.000307	20.798721
1429.369612	-3.008600	3.503400	-10.539000	25.879592	0.000307	20.760239
1430.373391	-2.988200	3.503900	-10.470000	25.921648	0.000304	20.797747
1431.369729	-3.011800	3.504400	-10.553000	25.948922	0.000307	20.787215
1432.367056	-2.984200	3.503800	-10.456000	25.967850	0.000304	20.782049
1433.372069	-2.995300	3.503400	-10.493000	25.991498	0.000305	20.772617
1434.368202	-2.969300	3.502600	-10.399000	26.011220	0.000304	20.776784
1435.372434	-2.987600	3.503300	-10.466000	26.020807	0.000302	20.790210
1436.374297	-2.988200	3.502000	-10.464000	25.964398	0.000303	20.786642
1437.371719	-3.000200	3.502100	-10.506000	25.941197	0.000303	20.780403
1438.372640	-3.010200	3.501400	-10.539000	25.960920	0.000302	20.771293
1439.372488	-2.990100	3.500400	-10.466000	26.011519	0.000302	20.783723
1440.373806	-2.991800	3.500800	-10.473000	25.966956	0.000301	20.774038
1441.373905	-3.000000	3.499400	-10.498000	25.949370	0.000302	20.778182
1442.374927	-2.973400	3.500200	-10.406000	25.964696	0.000301	20.767974
1443.376736	-2.993900	3.499700	-10.476000	26.008513	0.000300	20.785444
1444.376402	-2.998500	3.499200	-10.492000	26.032110	0.000301	20.784496
1445.372516	-2.980400	3.499500	-10.429000	26.017281	0.000300	20.768649
1446.376860	-2.996000	3.498400	-10.480000	26.002452	0.000300	20.758965
1447.373883	-2.987500	3.498300	-10.451000	25.958635	0.000298	20.774688
1448.375144	-2.999700	3.498200	-10.493000	25.971428	0.000298	20.776160
1449.373722	-3.008500	3.498100	-10.523000	25.966137	0.000297	20.773215
1450.371813	-2.999200	3.496400	-10.484000	25.944401	0.000297	20.766551
1451.377632	-3.032800	3.495900	-10.602000	25.960025	0.000297	20.771817
1452.374609	-3.016000	3.496200	-10.544000	25.936279	0.000298	20.780203
1453.375862	-2.992900	3.496200	-10.463000	25.944252	0.000297	20.761186
1454.375328	-3.007800	3.494700	-10.510000	25.866648	0.000296	20.743442
1455.375924	-3.011200	3.495000	-10.523000	25.872411	0.000298	20.770568
1456.386379	-2.969500	3.496700	-10.382000	25.910791	0.000295	20.762183
1457.375672	-2.980000	3.494300	-10.412000	25.901774	0.000295	20.751227
1458.376322	-2.990700	3.495000	-10.451000	25.890272	0.000295	20.759113
1459.379267	-3.006900	3.494500	-10.506000	25.889005	0.000296	20.754047
1460.387560	-2.982200	3.493200	-10.417000	25.918069	0.000293	20.766650
1461.380323	-2.985200	3.494000	-10.429000	25.946288	0.000296	20.754696
1462.375751	-2.997100	3.493900	-10.470000	25.979423	0.000295	20.737250
1463.375800	-2.995300	3.492400	-10.460000	26.002698	0.000294	20.747832
1464.377632	-2.998700	3.492000	-10.469000	26.004586	0.000292	20.772963
1465.378448	-2.964500	3.493200	-10.354000	26.004710	0.000294	20.742741
1466.377085	-2.990700	3.491900	-10.442000	26.021252	0.000293	20.747033
1467.388975	-3.010800	3.491200	-10.510000	26.025673	0.000293	20.760485
1468.381296	-3.000500	3.491000	-10.475000	25.981386	0.000292	20.770517
1469.381098	-2.990000	3.490300	-10.435000	25.947901	0.000291	20.762006
1470.381259	-3.000200	3.490100	-10.471000	25.920800	0.000292	20.771291
1471.379710	-2.998100	3.491000	-10.466000	25.849728	0.000292	20.747307
1472.382726	-2.976500	3.489800	-10.387000	25.861080	0.000289	20.759660
1473.384622	-3.002600	3.489900	-10.478000	25.921620	0.000291	20.739870
1474.381387	-2.997600	3.489300	-10.458000	25.922365	0.000291	20.761008
1475.383805	-2.984500	3.488700	-10.412000	25.963102	0.000289	20.755941
1476.390122	-2.985600	3.489000	-10.415000	26.010943	0.000290	20.742365
1477.385375	-3.013400	3.487600	-10.508000	26.013575	0.000287	20.753070
1478.384535	-3.007600	3.487300	-10.487000	26.012532	0.000289	20.739694
1479.382942	-2.999700	3.487700	-10.462000	26.012532	0.000287	20.737798
1480.382314	-3.023800	3.486900	-10.542000	25.973535	0.000289	20.732283
1481.381722	-3.004000	3.486000	-10.470000	25.988860	0.000288	20.744361
1482.386374	-2.981300	3.485700	-10.390000	25.961910	0.000287	20.754744
1483.385537	-3.002600	3.486200	-10.467000	25.990550	0.000289	20.740843
1484.397879	-2.970700	3.486700	-10.356000	25.912650	0.000286	20.734178
1485.390761	-2.971400	3.486300	-10.359000	25.898342	0.000286	20.733554
1486.390707	-2.959900	3.486200	-10.318000	25.900876	0.000287	20.742264
1487.392789	-2.997300	3.484200	-10.442000	25.877276	0.000287	20.746058
1488.395214	-3.011800	3.483200	-10.490000	25.870842	0.000287	20.733430
1489.391862	-2.992500	3.484700	-10.427000	25.882965	0.000286	20.732806
1490.388853	-2.991600	3.484500	-10.423000	25.871190	0.000288	20.738047
1491.394697	-2.987700	3.483100	-10.406000	25.917593	0.000286	20.741515
1492.387391	-2.982500	3.483800	-10.390000	25.906018	0.000285	20.741266
1493.392711	-2.991300	3.482300	-10.415000	25.936869	0.000285	20.739544
1494.389868	-3.017400	3.482000	-10.504000	25.940472	0.000282	20.738895
1495.390834	-3.000900	3.481600	-10.448000	25.941043	0.000285	20.733305
1496.392169	-3.003200	3.481600	-10.455000	25.891982	0.000283	20.744235
1497.401569	-3.011500	3.480200	-10.479000	25.900726	0.000283	20.744960
1498.393871	-2.989700	3.481100	-10.407000	25.880655	0.000282	20.755142
1499.405489	-2.963500	3.481200	-10.315000	25.917767	0.000282	20.743587
1500.396419	-2.995500	3.479100	-10.421000	25.944744	0.000282	20.745559
1501.394517	-3.005000	3.479800	-10.455000	25.943999	0.000281	20.740068
1502.390387	-2.997600	3.479100	-10.428000	25.955277	0.000280	20.733854
1503.393455	-3.006400	3.478200	-10.455000	25.911582	0.000280	20.744960
1504.395271	-3.003500	3.478900	-10.448000	25.935553	0.000279	20.745808
1505.390007	-3.015200	3.478800	-10.488000	25.947576	0.000281	20.755516
1506.390553	-2.989600	3.479200	-10.400000	25.944248	0.000280	20.751698
1507.390435	-3.013200	3.477900	-10.479000	25.930262	0.000279	20.741440
1508.394710	-3.015600	3.477900	-10.487000	25.913395	0.000278	20.734927
1509.412636	-2.994200	3.478600	-10.415000	25.943825	0.000279	20.735152
1510.393616	-2.999500	3.476100	-10.425000	25.909868	0.000280	20.744660
1511.396399	-2.998600	3.476400	-10.424000	25.926338	0.000279	20.753620
1512.396264	-2.996500	3.477700	-10.420000	25.975819	0.000276	20.744535
1513.392256	-3.012200	3.476100	-10.469000	25.989978	0.000278	20.735052
1514.396904	-2.987400	3.475800	-10.383000	25.958531	0.000277	20.755142
1515.393712	-3.003800	3.476200	-10.441000	25.989158	0.000279	20.725693
1516.392729	-2.990900	3.475800	-10.395000	26.007167	0.000276	20.749951
1517.392507	-3.006500	3.474100	-10.444000	25.990002	0.000276	20.733654
1518.392404	-3.010600	3.474700	-10.460000	26.011737	0.000277	20.743637
1519.394923	-3.019100	3.474000	-10.487000	26.041940	0.000277	20.748379
1520.398048	-3.000000	3.474300	-10.421000	26.072143	0.000274	20.736999
1521.394111	-3.016000	3.473000	-10.473000	26.102741	0.000274	20.737397
1522.396239	-3.016300	3.473400	-10.475000	26.059575	0.000273	20.724845
1523.393492	-3.028300	3.473300	-10.517000	26.032452	0.000275	20.766821
1524.398788	-2.998900	3.472600	-10.413000	25.991915	0.000275	20.754543
1525.398137	-3.004200	3.473100	-10.433000	25.979073	0.000274	20.752546
1526.397623	-3.006300	3.472200	-10.438000	25.966305	0.000274	20.734028
1527.395562	-3.012100	3.472200	-10.457000	26.027608	0.000274	20.745833
1528.398494	-3.007300	3.471100	-10.438000	26.040748	0.000273	20.750975
1529.393875	-2.984900	3.470500	-10.357000	26.028204	0.000272	20.739794
1530.400264	-3.004400	3.470600	-10.426000	25.962579	0.000271	20.769641
1531.409152	-3.017000	3.469600	-10.467000	25.930040	0.000271	20.733630
1532.395612	-2.978300	3.469700	-10.333000	25.946483	0.000271	20.749676
1533.399536	-3.008600	3.468800	-10.435000	26.004806	0.000269	20.758485
1534.398120	-3.023400	3.469000	-10.488000	26.036028	0.000273	20.760931
1535.397468	-2.994700	3.467700	-10.383000	26.046759	0.000271	20.748005
1536.402466	-2.987900	3.469200	-10.365000	26.029546	0.000269	20.741141
1537.399858	-3.005700	3.468200	-10.423000	26.013798	0.000271	20.723896
1538.398250	-3.011900	3.468400	-10.446000	26.002024	0.000270	20.715385
1539.399363	-2.998600	3.467100	-10.395000	26.052919	0.000269	20.737124
1540.398880	-3.006100	3.467000	-10.421000	26.087890	0.000268	20.727690
1541.403673	-2.974800	3.466500	-10.311000	26.089033	0.000268	20.738322
1542.398946	-3.004000	3.465900	-10.411000	26.072714	0.000270	20.735202
1543.399086	-2.984100	3.466100	-10.342000	26.038115	0.000269	20.773460
1544.399757	-3.014500	3.464500	-10.443000	26.049962	0.000267	20.746955
1545.412837	-3.001400	3.465600	-10.401000	26.013078	0.000267	20.736449
1546.401625	-2.975400	3.465800	-10.311000	25.957884	0.000267	20.760182
1547.404498	-2.990100	3.465300	-10.361000	25.938981	0.000266	20.757313
1548.401989	-3.025500	3.463300	-10.478000	25.935875	0.000269	20.752295
1549.400269	-2.995700	3.463700	-10.375000	25.952171	0.000265	20.747805
1550.401255	-3.009200	3.464300	-10.424000	25.938508	0.000267	20.738819
1551.401917	-3.005200	3.462700	-10.404000	25.936050	0.000267	20.756265
1552.400661	-3.024000	3.462900	-10.470000	25.871636	0.000265	20.743237
1553.404603	-3.000000	3.462800	-10.387000	25.856135	0.000267	20.748528
1554.404224	-3.009900	3.461500	-10.417000	25.847514	0.000264	20.757412
1555.403670	-2.988900	3.462200	-10.347000	25.924300	0.000265	20.759633
1556.404135	-3.014100	3.462200	-10.435000	25.910836	0.000263	20.760332
1557.404991	-2.999300	3.462700	-10.384000	25.890491	0.000266	20.748428
1558.401728	-2.989800	3.460200	-10.344000	25.915059	0.000266	20.758885
1559.402206	-2.990600	3.459200	-10.344000	25.935702	0.000264	20.754492
1560.401197	-2.991800	3.460000	-10.351000	25.990349	0.000264	20.756289
1561.402173	-3.019100	3.460100	-10.444000	26.010195	0.000263	20.769590
1562.404948	-2.990800	3.460600	-10.349000	26.012357	0.000264	20.758011
1563.407987	-2.997500	3.458700	-10.366000	26.018740	0.000264	20.753519
1564.405457	-2.991900	3.460000	-10.351000	26.016679	0.000263	20.768518
1565.406334	-3.013200	3.458200	-10.419000	26.040126	0.000262	20.754617
1566.408847	-2.999900	3.459300	-10.376000	26.024006	0.000264	20.764974
1567.408438	-3.004000	3.458000	-10.387000	26.050284	0.000260	20.753918
1568.412847	-3.012100	3.457700	-10.413000	26.044746	0.000261	20.739344
1569.406438	-2.999500	3.457900	-10.371000	26.044796	0.000261	20.750774
1570.410056	-3.017700	3.457100	-10.432000	26.022516	0.000256	20.745459
1571.409870	-3.025900	3.456300	-10.457000	26.010867	0.000259	20.762205
1572.409282	-2.991700	3.457300	-10.342000	26.011066	0.000259	20.752921
1573.416043	-3.014000	3.455800	-10.415000	26.019685	0.000256	20.743088
1574.408666	-3.017400	3.456200	-10.427000	26.047952	0.000256	20.770066
1575.412546	-2.999300	3.457000	-10.368000	26.056620	0.000259	20.747955
1576.411602	-2.992400	3.456500	-10.341000	26.026542	0.000259	20.768470
1577.410582	-2.998700	3.455000	-10.360000	26.011713	0.000257	20.750251
1578.416976	-3.028000	3.453800	-10.457000	26.028032	0.000258	20.778976
1579.412350	-2.988900	3.454900	-10.326000	26.016904	0.000257	20.756416
1580.411577	-2.997900	3.454600	-10.356000	26.045046	0.000257	20.766199
1581.410829	-2.989900	3.454600	-10.328000	26.071970	0.000257	20.751999
1582.408370	-2.994700	3.454400	-10.344000	26.077087	0.000255	20.753346
1583.410033	-3.007400	3.453800	-10.386000	26.039011	0.000255	20.770092
1584.414520	-2.988700	3.453600	-10.321000	26.025920	0.000256	20.770691
1585.409682	-3.026500	3.451000	-10.444000	26.058063	0.000254	20.776432
1586.411624	-3.010700	3.450500	-10.387000	26.051107	0.000255	20.775608
1587.412499	-2.984200	3.452600	-10.301000	26.097530	0.000256	20.766301
1588.412603	-3.010900	3.451100	-10.390000	26.130983	0.000253	20.769095
1589.415782	-2.988800	3.451200	-10.314000	26.102744	0.000253	20.771067
1590.412107	-2.997400	3.450100	-10.341000	26.065141	0.000254	20.783545
1591.412361	-3.009800	3.451200	-10.386000	26.022892	0.000254	20.781873
1592.413842	-2.998000	3.449600	-10.341000	25.990975	0.000253	20.770668
1593.413736	-2.995700	3.450100	-10.334000	26.026197	0.000251	20.771917
1594.411343	-2.996700	3.450600	-10.340000	26.031338	0.000250	20.779453
1595.415901	-3.018400	3.447900	-10.406000	26.101629	0.000252	20.768049
1596.413281	-3.011800	3.448300	-10.384000	26.066833	0.000251	20.781451
1597.416135	-3.015800	3.448700	-10.400000	26.018399	0.000253	20.784945
1598.414820	-3.003300	3.448900	-10.357000	26.022771	0.000250	20.769897
1599.412408	-2.996900	3.448900	-10.335000	26.043833	0.000251	20.788688
1600.414765	-3.039200	3.446200	-10.473000	26.083078	0.000250	20.788764
1601.413999	-2.986500	3.446600	-10.292000	26.099545	0.000251	20.781603
1602.414467	-2.994600	3.447700	-10.324000	26.140972	0.000250	20.795253
1603.414994	-2.994500	3.446900	-10.321000	26.147329	0.000248	20.786469
1604.414608	-3.007100	3.446300	-10.363000	26.169781	0.000246	20.801442
1605.420175	-3.011000	3.445800	-10.374000	26.132827	0.000249	20.797974
1606.413876	-2.985000	3.445500	-10.284000	26.098304	0.000249	20.799322
1607.431427	-2.991800	3.446800	-10.311000	26.066115	0.000246	20.785945
1608.418098	-3.009700	3.445100	-10.367000	26.074113	0.000248	20.779283
1609.416825	-3.004900	3.444300	-10.348000	26.074759	0.000249	20.785621
1610.418113	-2.988300	3.445800	-10.296000	26.086855	0.000247	20.775016
1611.421754	-2.985700	3.444500	-10.284000	26.073418	0.000248	20.790913
1612.417573	-2.995200	3.444400	-10.316000	25.988074	0.000246	20.784350
1613.418598	-2.980200	3.444000	-10.263000	26.020091	0.000246	20.760566
1614.418334	-2.988500	3.443100	-10.289000	25.973071	0.000246	20.784924
1615.419582	-2.996100	3.442800	-10.314000	25.975233	0.000244	20.803691
1616.419742	-2.992700	3.443600	-10.305000	25.954740	0.000244	20.786421
1617.424380	-3.010500	3.443000	-10.364000	25.988472	0.000243	20.807509
1618.422623	-3.034300	3.441600	-10.441000	26.002953	0.000245	20.786022
1619.420691	-3.015600	3.441400	-10.377000	26.026550	0.000244	20.782229
1620.421838	-3.001500	3.441700	-10.330000	26.044334	0.000246	20.777337
1621.421671	-3.001000	3.440600	-10.324000	26.060082	0.000242	20.790790
1622.422609	-3.025500	3.439600	-10.405000	26.071085	0.000243	20.804689
1623.422419	-2.989000	3.441100	-10.285000	26.088421	0.000242	20.788917
1624.422256	-3.010500	3.439200	-10.352000	26.112190	0.000243	20.784825
1625.421057	-2.999600	3.440300	-10.319000	26.127638	0.000243	20.818839
1626.423359	-3.003300	3.440800	-10.333000	26.061944	0.000243	20.801669
1627.424310	-3.013700	3.439400	-10.364000	26.044906	0.000241	20.804465
1628.422525	-3.014100	3.438300	-10.362000	26.020018	0.000242	20.813598
1629.422395	-3.001100	3.439200	-10.321000	26.005562	0.000240	20.801919
1630.421897	-3.016500	3.438300	-10.370000	26.054493	0.000239	20.799873
1631.426009	-2.994600	3.437300	-10.292000	26.086411	0.000242	20.791639
1632.426611	-3.018900	3.435500	-10.370000	26.083455	0.000242	20.809532
1633.427247	-2.994000	3.438400	-10.294000	26.035295	0.000241	20.820886
1634.425257	-3.024200	3.436700	-10.392000	26.029632	0.000239	20.818042
1635.425101	-3.036500	3.435200	-10.430000	26.054122	0.000239	20.796180
1636.424253	-3.020800	3.436100	-10.379000	26.067956	0.000238	20.818141
1637.426988	-3.017600	3.434600	-10.362000	26.033830	0.000239	20.808509
1638.428134	-3.017900	3.434300	-10.363000	26.037903	0.000238	20.825878
1639.423314	-3.010100	3.434400	-10.337000	26.030850	0.000238	20.812154
1640.425507	-2.988300	3.434900	-10.263000	26.027621	0.000238	20.792788
1641.425847	-2.993200	3.435000	-10.281000	26.035321	0.000238	20.821861
1642.425388	-2.991800	3.434600	-10.275000	25.979584	0.000237	20.796208
1643.429275	-2.996700	3.434100	-10.290000	26.020618	0.000235	20.821313
1644.426284	-3.016900	3.431900	-10.352000	26.022307	0.000235	20.803096
1645.426219	-2.987400	3.433200	-10.255000	26.022481	0.000238	20.834090
1646.425320	-3.017500	3.432700	-10.357000	26.021562	0.000235	20.817994
1647.423909	-2.987100	3.432900	-10.252000	26.055566	0.000235	20.801899
1648.427421	-2.985800	3.433000	-10.249000	26.089692	0.000235	20.845195
1649.424444	-3.010200	3.432200	-10.331000	26.100844	0.000234	20.838383
1650.423115	-2.988400	3.432500	-10.257000	26.087706	0.000234	20.821863
1651.428967	-3.018400	3.431800	-10.357000	26.079883	0.000233	20.820167
1652.427602	-2.982800	3.432100	-10.237000	26.068930	0.000233	20.829551
1653.429194	-2.979000	3.431800	-10.222000	26.056287	0.000236	20.826331
1654.429728	-2.972400	3.431100	-10.197000	26.093915	0.000234	20.832844
1655.424269	-3.012700	3.428700	-10.329000	26.132487	0.000233	20.814228
1656.426239	-2.994500	3.429400	-10.268000	26.147090	0.000233	20.841229
1657.429430	-2.995500	3.428600	-10.270000	26.193259	0.000232	20.844474
1658.429151	-2.991100	3.429500	-10.257000	26.178134	0.000233	20.819793
1659.429258	-3.003800	3.428500	-10.297000	26.156528	0.000232	20.832221
1660.428207	-3.013100	3.428600	-10.330000	26.095134	0.000231	20.823163
1661.425277	-3.005700	3.429400	-10.307000	26.144433	0.000231	20.808688
1662.430541	-3.008400	3.426700	-10.308000	26.159459	0.000232	20.820467
1663.430715	-2.998700	3.426400	-10.274000	26.170635	0.000230	20.835965
1664.432721	-2.995800	3.427600	-10.268000	26.193558	0.000230	20.812533
1665.433486	-3.032000	3.425300	-10.384000	26.189137	0.000231	20.837013
1666.430285	-3.012500	3.426600	-10.322000	26.225966	0.000230	20.848891
1667.425861	-2.986000	3.426400	-10.230000	26.222763	0.000229	20.826233
1668.432213	-3.017300	3.424900	-10.334000	26.244343	0.000228	20.845073
1669.428051	-2.985600	3.425600	-10.227000	26.222962	0.000229	20.827855
1670.431173	-2.994300	3.425400	-10.255000	26.192639	0.000228	20.843851
1671.428902	-2.978400	3.425700	-10.202000	26.209328	0.000227	20.837388
1672.433488	-2.997000	3.425100	-10.264000	26.141455	0.000227	20.836989
1673.430755	-2.998800	3.425200	-10.270000	26.137655	0.000227	20.829378
1674.431138	-3.023100	3.422500	-10.345000	26.172797	0.000228	20.831499
1675.434820	-3.011100	3.422000	-10.303000	26.210769	0.000226	20.836465
1676.431155	-3.013200	3.423700	-10.315000	26.222565	0.000228	20.846896
1677.431993	-3.005200	3.422300	-10.284000	26.256935	0.000225	20.853934
1678.432705	-2.982000	3.423200	-10.207000	26.244493	0.000225	20.850914
1679.430003	-2.997400	3.422200	-10.257000	26.176497	0.000226	20.839010
1680.435590	-3.001900	3.423000	-10.274000	26.165719	0.000225	20.842879
1681.439350	-3.004000	3.421200	-10.276000	26.182309	0.000225	20.850066
1682.433117	-3.014500	3.421500	-10.313000	26.176497	0.000225	20.862717
1683.431844	-3.001100	3.421300	-10.267000	26.217895	0.000225	20.842678
1684.436425	-2.997900	3.420100	-10.251000	26.196092	0.000224	20.853958
1685.443666	-2.977900	3.420900	-10.186000	26.223956	0.000223	20.847345
1686.433857	-3.018600	3.419800	-10.323000	26.252539	0.000224	20.855679
1687.437479	-2.988200	3.420400	-10.220000	26.294507	0.000222	20.858974
1688.435217	-3.022200	3.418100	-10.329000	26.262844	0.000220	20.852285
1689.432619	-2.996300	3.419700	-10.246000	26.236124	0.000220	20.842978
1690.433095	-3.000300	3.418300	-10.255000	26.243574	0.000223	20.846197
1691.436438	-2.996300	3.419100	-10.244000	26.290881	0.000221	20.833520
1692.436161	-2.998000	3.417100	-10.244000	26.278738	0.000220	20.860196
1693.435681	-2.995200	3.417400	-10.235000	26.225868	0.000223	20.844051
1694.440269	-3.013600	3.416800	-10.296000	26.185859	0.000220	20.861219
1695.435800	-3.003300	3.416300	-10.259000	26.178384	0.000221	20.871250
1696.438335	-3.021900	3.415700	-10.321000	26.187896	0.000219	20.876541
1697.437061	-2.990600	3.416100	-10.214000	26.205280	0.000220	20.866509
1698.437920	-2.985100	3.415400	-10.195000	26.229170	0.000220	20.848317
1699.436764	-2.987900	3.416400	-10.207000	26.187125	0.000220	20.886197
1700.437317	-2.999900	3.415500	-10.245000	26.184965	0.000219	20.849890
1701.437114	-2.993600	3.414700	-10.221000	26.142695	0.000219	20.874269
1702.443361	-3.004100	3.414700	-10.257000	26.140584	0.000220	20.873571
1703.438907	-2.993600	3.414000	-10.220000	26.085199	0.000220	20.895679
1704.439910	-2.998800	3.413500	-10.236000	26.124466	0.000217	20.862591
1705.439713	-2.988700	3.412700	-10.199000	26.078742	0.000218	20.883977
1706.439287	-3.014600	3.411900	-10.285000	26.089720	0.000218	20.861344
1707.442983	-2.984200	3.413500	-10.186000	26.086440	0.000218	20.860894
1708.438931	-3.011300	3.412100	-10.274000	26.114582	0.000216	20.875418
1709.437442	-3.003200	3.411200	-10.243000	26.080904	0.000217	20.883779
1710.439197	-3.007000	3.412200	-10.260000	26.079190	0.000217	20.875893
1711.440606	-2.999300	3.412900	-10.235000	26.166092	0.000213	20.866959
1712.438070	-3.001000	3.411400	-10.237000	26.141604	0.000215	20.877440
1713.441631	-3.023500	3.411300	-10.313000	26.137755	0.000215	20.867409
1714.445628	-2.988200	3.411500	-10.193000	26.146522	0.000213	20.891389
1715.440758	-3.002000	3.410000	-10.236000	26.139070	0.000215	20.884377
1716.436898	-2.986800	3.411000	-10.187000	26.180148	0.000215	20.880609
1717.440142	-2.999200	3.411000	-10.229000	26.207615	0.000214	20.863640
1718.440450	-3.020000	3.409600	-10.297000	26.218444	0.000212	20.877840
1719.438937	-3.009100	3.409200	-10.257000	26.254749	0.000213	20.878288
1720.441318	-2.992200	3.408200	-10.197000	26.297163	0.000212	20.896729
1721.442590	-2.986600	3.408000	-10.178000	26.328452	0.000211	20.878862
1722.442665	-3.010600	3.407300	-10.257000	26.279781	0.000212	20.876417
1723.440699	-3.020000	3.408000	-10.291000	26.247275	0.000213	20.891638
1724.442451	-3.020700	3.407500	-10.292000	26.245983	0.000213	20.870901
1725.444784	-3.001100	3.407300	-10.224000	26.220353	0.000209	20.886870
1726.441818	-3.005700	3.405600	-10.235000	26.215189	0.000209	20.900646
1727.448145	-3.037000	3.404600	-10.337000	26.266942	0.000210	20.900022
1728.448679	-3.012100	3.406400	-10.260000	26.267837	0.000211	20.881009
1729.444013	-2.999300	3.405100	-10.212000	26.239178	0.000209	20.898674
1730.443147	-2.987300	3.405800	-10.173000	26.254228	0.000211	20.894358
1731.446261	-3.011500	3.405000	-10.253000	26.286560	0.000208	20.908356
1732.445101	-2.996300	3.404900	-10.201000	26.230189	0.000210	20.885849
1733.450891	-2.989500	3.405700	-10.181000	26.201281	0.000208	20.905162
1734.443372	-3.000600	3.404100	-10.214000	26.214195	0.000207	20.893010
1735.444617	-2.986000	3.403200	-10.161000	26.250402	0.000208	20.892885
1736.444922	-3.016300	3.404000	-10.266000	26.246182	0.000210	20.891014
1737.445688	-3.001900	3.403300	-10.215000	26.180818	0.000207	20.901669
1738.444848	-3.031200	3.402400	-10.312000	26.189162	0.000206	20.903415
1739.444963	-2.980200	3.403400	-10.142000	26.200686	0.000206	20.899822
1740.445277	-2.997900	3.402500	-10.200000	26.160825	0.000207	20.898175
1741.445557	-2.995900	3.401700	-10.190000	26.213152	0.000206	20.914719
1742.445477	-3.002000	3.401700	-10.211000	26.210643	0.000205	20.900820
1743.444134	-2.989100	3.401600	-10.167000	26.245610	0.000204	20.909879
1744.469566	-2.995500	3.400200	-10.184000	26.252364	0.000204	20.906235
1745.458798	-3.008700	3.401100	-10.232000	26.220081	0.000203	20.912199
1746.444030	-2.993000	3.399400	-10.173000	26.211959	0.000205	20.898823
1747.448130	-3.011800	3.399900	-10.239000	26.258423	0.000205	20.898100
1748.444953	-2.987300	3.400600	-10.158000	26.256709	0.000205	20.896378
1749.449142	-3.004900	3.398500	-10.211000	26.249558	0.000203	20.911949
1750.446595	-3.034400	3.397600	-10.308000	26.292940	0.000203	20.923302
1751.445961	-3.016600	3.398000	-10.249000	26.333987	0.000207	20.901967
1752.446914	-2.998900	3.398200	-10.190000	26.349309	0.000204	20.895081
1753.446283	-3.009800	3.398100	-10.227000	26.350400	0.000204	20.887643
1754.448205	-3.001600	3.398900	-10.201000	26.377615	0.000203	20.912622
1755.447849	-3.009100	3.397500	-10.222000	26.340418	0.000203	20.915067
1756.446171	-3.016100	3.396000	-10.241000	26.325370	0.000203	20.898997
1757.446395	-3.001900	3.397400	-10.198000	26.276228	0.000203	20.908879
1758.447477	-2.993700	3.397100	-10.169000	26.272206	0.000203	20.908630
1759.447939	-3.011700	3.396600	-10.229000	26.253679	0.000199	20.909453
1760.449199	-3.012000	3.394600	-10.224000	26.288545	0.000200	20.904663
1761.448452	-2.983500	3.395800	-10.130000	26.271933	0.000201	20.895555
1762.449589	-3.007900	3.395600	-10.213000	26.208408	0.000201	20.873919
1763.448317	-3.001500	3.395000	-10.189000	26.215833	0.000198	20.891336
1764.447677	-3.001900	3.394900	-10.190000	26.264556	0.000197	20.878186
1765.462069	-2.991300	3.395000	-10.155000	26.230336	0.000199	20.885049
1766.449388	-3.000900	3.394800	-10.187000	26.213822	0.000199	20.873670
1767.449680	-2.994400	3.393800	-10.161000	26.200237	0.000199	20.874717
1768.449055	-3.009300	3.393000	-10.210000	26.277394	0.000198	20.869751
1769.447190	-2.994500	3.393200	-10.160000	26.329939	0.000197	20.868504
1770.449010	-3.003900	3.392700	-10.190000	26.293188	0.000195	20.860019
1771.453091	-2.980300	3.393800	-10.113000	26.270192	0.000195	20.888117
1772.450044	-3.004800	3.391700	-10.191000	26.262569	0.000195	20.877138
1773.450945	-3.011100	3.390100	-10.207000	26.276699	0.000196	20.887543
1774.452060	-2.970100	3.392900	-10.077000	26.290505	0.000198	20.863961
1775.457047	-3.008500	3.391100	-10.200000	26.279579	0.000193	20.874791
1776.453186	-3.020300	3.390000	-10.238000	26.323233	0.000197	20.888790
1777.454838	-3.026300	3.388900	-10.255000	26.330509	0.000195	20.860068
1778.452469	-3.022900	3.388800	-10.243000	26.308286	0.000194	20.879933
1779.453795	-3.014300	3.389700	-10.217000	26.260681	0.000193	20.875714
1780.455031	-3.000000	3.388500	-10.165000	26.243496	0.000194	20.859868
1781.454269	-3.008300	3.387700	-10.190000	26.280969	0.000193	20.861491
1782.456806	-3.006900	3.389000	-10.189000	26.305602	0.000193	20.846892
1783.453053	-2.966200	3.388400	-10.050000	26.350845	0.000194	20.846368
1784.456043	-2.991100	3.388300	-10.133000	26.385633	0.000192	20.850037
1785.453900	-2.991300	3.387700	-10.133000	26.434969	0.000194	20.861216
1786.457533	-3.007700	3.387100	-10.187000	26.384193	0.000191	20.850012
1787.459862	-2.994500	3.388900	-10.147000	26.356928	0.000190	20.861490
1788.455801	-3.004700	3.386900	-10.176000	26.294455	0.000191	20.879309
1789.456732	-3.005100	3.386900	-10.177000	26.286507	0.000192	20.868478
1790.462004	-2.970700	3.387900	-10.064000	26.275233	0.000190	20.877062
1791.461539	-3.015600	3.385500	-10.208000	26.263562	0.000190	20.856799
1792.462227	-3.007600	3.385900	-10.183000	26.304188	0.000188	20.860643
1793.457753	-2.991900	3.386400	-10.131000	26.355663	0.000190	20.855951
1794.460011	-2.998600	3.385000	-10.149000	26.359115	0.000188	20.844722
1795.458241	-2.984100	3.384700	-10.099000	26.343621	0.000190	20.862814
1796.462194	-2.988000	3.384700	-10.112000	26.278015	0.000191	20.862315
1797.462876	-2.998500	3.383600	-10.144000	26.234955	0.000187	20.834217
1798.460494	-2.999800	3.383800	-10.150000	26.233167	0.000187	20.837162
1799.460211	-3.007500	3.383600	-10.175000	26.261129	0.000188	20.875690
1800.464811	-2.986500	3.382800	-10.102000	26.301284	0.000187	20.855354
1801.465899	-2.984100	3.383100	-10.095000	26.362369	0.000186	20.844199
1802.469248	-3.005900	3.383600	-10.170000	26.346924	0.000186	20.846695
1803.461339	-2.980600	3.380700	-10.076000	26.306375	0.000186	20.862840
1804.462871	-3.008200	3.380700	-10.168000	26.344193	0.000184	20.833519
1805.462523	-2.998200	3.380300	-10.134000	26.326315	0.000184	20.827879
1806.464876	-2.985000	3.381400	-10.092000	26.296865	0.000184	20.861818
1807.464159	-2.990400	3.380200	-10.107000	26.349831	0.000184	20.835866
1808.461113	-3.019400	3.380400	-10.206000	26.378236	0.000185	20.866783
1809.461709	-2.998600	3.379800	-10.135000	26.363959	0.000187	20.838685
1810.461803	-2.998000	3.379400	-10.131000	26.326837	0.000184	20.858749
1811.461838	-3.004800	3.380100	-10.155000	26.262770	0.000183	20.860746
1812.462926	-2.975400	3.380300	-10.057000	26.278341	0.000180	20.836091
1813.463935	-3.010800	3.378600	-10.172000	26.285790	0.000182	20.855430
1814.464722	-3.024100	3.378100	-10.215000	26.293141	0.000181	20.846697
1815.464631	-3.011900	3.377700	-10.172000	26.332301	0.000181	20.852860
1816.461366	-3.013800	3.377500	-10.178000	26.354822	0.000179	20.852261
1817.463565	-2.987400	3.377200	-10.088000	26.384867	0.000181	20.837887
1818.466312	-2.977200	3.377800	-10.055000	26.387822	0.000180	20.844176
1819.463591	-3.001900	3.376600	-10.135000	26.435346	0.000180	20.833621
1820.461250	-2.995500	3.377100	-10.115000	26.468045	0.000180	20.846572
1821.466363	-2.998200	3.376200	-10.121000	26.459181	0.000179	20.839086
1822.460768	-2.994600	3.376500	-10.110000	26.448431	0.000178	20.824487
1823.465355	-3.010500	3.375300	-10.160000	26.431770	0.000178	20.831923
1824.466281	-3.023300	3.375100	-10.203000	26.406022	0.000180	20.873372
1825.462897	-2.996000	3.376900	-10.116000	26.441205	0.000179	20.838561
1826.464520	-3.029600	3.374800	-10.223000	26.458759	0.000177	20.851463
1827.463732	-3.000000	3.375300	-10.124000	26.467425	0.000178	20.841207
1828.468182	-2.977000	3.375000	-10.047000	26.493171	0.000179	20.830102
1829.465781	-2.962800	3.374100	-9.996100	26.493022	0.000177	20.838960
1830.468133	-2.990600	3.374600	-10.092000	26.460423	0.000175	20.834644
1831.465170	-2.977900	3.374100	-10.047000	26.443166	0.000178	20.837213
1832.465144	-2.984800	3.373000	-10.067000	26.438971	0.000176	20.842479
1833.467206	-3.020200	3.370500	-10.178000	26.412005	0.000176	20.840507
1834.466329	-3.000700	3.372200	-10.118000	26.453495	0.000175	20.846647
1835.467164	-2.997100	3.371900	-10.105000	26.452378	0.000176	20.837937
1836.468210	-2.991200	3.371400	-10.084000	26.417468	0.000175	20.836041
1837.470409	-3.004800	3.370200	-10.126000	26.388864	0.000176	20.849016
1838.471757	-3.009500	3.371000	-10.144000	26.390628	0.000173	20.844151
1839.472496	-2.984400	3.370800	-10.059000	26.357653	0.000175	20.837089
1840.472190	-3.017700	3.370600	-10.171000	26.392887	0.000175	20.826982
1841.475856	-3.008700	3.370700	-10.141000	26.385538	0.000173	20.846622
1842.475009	-2.978500	3.369200	-10.034000	26.390629	0.000170	20.821393
1843.474030	-3.028700	3.369400	-10.204000	26.372577	0.000172	20.838337
1844.474267	-2.982300	3.369900	-10.049000	26.359292	0.000172	20.833047
1845.476146	-3.002300	3.369600	-10.116000	26.297313	0.000171	20.843777
1846.475615	-3.019000	3.367400	-10.164000	26.331035	0.000170	20.841157
1847.472120	-3.021600	3.367200	-10.173000	26.357530	0.000171	20.817999
1848.478527	-2.983900	3.368900	-10.051000	26.371063	0.000171	20.829704
1849.478638	-2.989700	3.366800	-10.065000	26.357157	0.000171	20.825211
1850.478924	-2.997500	3.367400	-10.092000	26.334487	0.000170	20.817600
1851.475757	-2.988200	3.367100	-10.060000	26.392888	0.000170	20.799008
1852.482346	-2.983800	3.366000	-10.043000	26.455184	0.000171	20.824637
1853.476209	-2.971700	3.366400	-10.003000	26.452528	0.000169	20.845674
1854.479346	-3.007400	3.365700	-10.121000	26.453745	0.000169	20.819872
1855.479487	-3.002400	3.365500	-10.104000	26.413820	0.000168	20.839011
1856.477188	-3.016400	3.364900	-10.148000	26.431399	0.000167	20.818748
1857.480145	-2.996400	3.365300	-10.083000	26.481727	0.000167	20.831401
1858.483710	-3.025700	3.364800	-10.180000	26.511917	0.000168	20.824289
1859.478801	-3.000800	3.365400	-10.098000	26.523785	0.000167	20.823416
1860.483674	-2.994200	3.364000	-10.070000	26.538605	0.000165	20.815554
1861.481304	-2.987200	3.363100	-10.045000	26.551019	0.000166	20.822343
1862.478638	-2.998600	3.363900	-10.086000	26.524256	0.000167	20.811088
1863.482108	-2.995000	3.363400	-10.073000	26.535056	0.000169	20.828581
1864.481143	-2.991500	3.362700	-10.058000	26.477209	0.000165	20.817851
1865.483323	-2.991400	3.362300	-10.057000	26.486146	0.000164	20.820196
1866.485103	-3.009500	3.361900	-10.117000	26.422834	0.000163	20.816304
1867.481594	-3.009300	3.359700	-10.108000	26.426583	0.000166	20.815805
1868.480907	-3.001500	3.360500	-10.085000	26.398129	0.000165	20.796690
1869.483753	-2.981600	3.360300	-10.018000	26.429960	0.000166	20.816828
1870.483355	-3.000200	3.360100	-10.080000	26.462087	0.000163	20.837739
1871.483033	-3.013200	3.359400	-10.122000	26.464497	0.000164	20.837790
1872.483661	-3.002400	3.360500	-10.089000	26.531555	0.000163	20.812261
1873.488429	-2.981600	3.360500	-10.019000	26.564152	0.000162	20.835543
1874.488535	-2.990700	3.358700	-10.045000	26.581307	0.000162	20.806796
1875.483937	-2.989600	3.358400	-10.039000	26.587736	0.000164	20.819897
1876.482761	-2.987500	3.359400	-10.036000	26.594390	0.000162	20.830852
1877.484359	-2.971300	3.358400	-9.977600	26.607200	0.000161	20.810065
1878.486167	-2.991500	3.357100	-10.041000	26.653670	0.000161	20.821693
1879.487163	-2.987000	3.357300	-10.027000	26.650915	0.000162	20.838837
1880.487084	-3.005600	3.356600	-10.087000	26.607919	0.000159	20.821219
1881.486123	-3.011600	3.356900	-10.109000	26.600944	0.000161	20.809467
1882.484901	-2.992600	3.358600	-10.050000	26.548661	0.000160	20.813808
1883.487746	-3.012700	3.357100	-10.114000	26.495879	0.000159	20.807694
1884.486584	-3.008600	3.354800	-10.092000	26.512241	0.000158	20.816554
1885.485269	-3.004600	3.355400	-10.081000	26.477705	0.000161	20.805548
1886.486742	-3.006300	3.355900	-10.088000	26.429066	0.000159	20.808817
1887.484155	-2.981900	3.356300	-10.007000	26.416577	0.000157	20.825187
1888.485077	-2.994400	3.354800	-10.045000	26.459009	0.000158	20.820421
1889.485821	-2.986300	3.354300	-10.015000	26.456528	0.000157	20.818876
1890.488076	-2.992300	3.354600	-10.037000	26.471921	0.000156	20.804002
1891.485966	-2.987000	3.353700	-10.017000	26.534313	0.000158	20.812188
1892.488616	-3.003600	3.355300	-10.077000	26.531755	0.000157	20.823841
1893.483596	-3.016900	3.352900	-10.114000	26.517207	0.000156	20.819649
1894.485528	-3.014600	3.351600	-10.103000	26.540048	0.000153	20.817478
1895.486783	-2.999400	3.352400	-10.054000	26.528627	0.000154	20.805999
1896.484147	-3.023600	3.350800	-10.131000	26.610230	0.000155	20.809792
1897.485457	-3.009000	3.352600	-10.087000	26.608318	0.000155	20.814508
1898.488834	-3.013400	3.351500	-10.098000	26.595484	0.000154	20.818202
1899.487840	-3.017400	3.350400	-10.107000	26.607947	0.000154	20.811764
1900.488075	-2.992900	3.350700	-10.027000	26.519219	0.000151	20.810766
1901.490095	-2.990500	3.350700	-10.019000	26.495881	0.000149	20.803903
1902.484926	-2.980300	3.351900	-9.988800	26.499854	0.000152	20.816431
1903.489450	-3.013700	3.349600	-10.094000	26.521950	0.000151	20.809244
1904.499273	-3.005000	3.350300	-10.067000	26.583319	0.000152	20.805025
1905.493752	-2.989800	3.350400	-10.015000	26.559759	0.000150	20.808369
1906.486916	-3.002200	3.350300	-10.056000	26.533370	0.000149	20.814085
1907.486135	-2.996900	3.348900	-10.035000	26.482349	0.000153	20.801681
1908.487805	-3.008900	3.348700	-10.075000	26.503279	0.000151	20.805649
1909.491446	-3.008000	3.347500	-10.069000	26.482673	0.000148	20.797266
1910.490443	-3.000200	3.347200	-10.041000	26.523836	0.000148	20.787907
1911.490789	-3.000000	3.347400	-10.041000	26.515371	0.000149	20.803579
1912.492146	-2.999300	3.346300	-10.036000	26.565644	0.000148	20.810965
1913.487324	-2.991200	3.346900	-10.010000	26.612117	0.000152	20.805525
1914.488531	-2.980400	3.347000	-9.974700	26.629346	0.000148	20.791077
1915.490283	-2.994500	3.345900	-10.018000	26.653251	0.000146	20.785710
1916.493602	-3.004600	3.345200	-10.050000	26.685000	0.000147	20.805775
1917.492840	-3.038000	3.344900	-10.161000	26.668790	0.000146	20.798961
1918.492815	-3.035000	3.343900	-10.148000	26.643495	0.000145	20.800085
1919.493712	-2.985000	3.345500	-9.985300	26.611072	0.000145	20.797363
1920.493839	-3.006200	3.344800	-10.055000	26.623932	0.000145	20.797962
1921.494719	-3.011600	3.344800	-10.073000	26.616584	0.000146	20.794843
1922.490525	-2.991300	3.344800	-10.005000	26.563481	0.000145	20.795989
1923.495633	-3.003100	3.344100	-10.042000	26.556357	0.000143	20.794044
1924.489970	-3.004700	3.343700	-10.046000	26.538830	0.000146	20.785908
1925.491030	-2.999900	3.342700	-10.027000	26.537910	0.000144	20.793519
1926.496551	-2.986200	3.342800	-9.981200	26.561619	0.000144	20.797437
1927.491528	-2.979400	3.343200	-9.959100	26.552657	0.000141	20.799333
1928.494126	-3.003700	3.340500	-10.032000	26.538654	0.000142	20.785732
1929.496031	-3.010600	3.341200	-10.058000	26.554543	0.000142	20.795539
1930.492190	-2.997000	3.340000	-10.009000	26.603449	0.000143	20.794441
1931.495657	-2.993000	3.340000	-9.996500	26.653595	0.000143	20.779892
1932.508286	-3.014700	3.340600	-10.069000	26.689116	0.000140	20.793317
1933.491590	-3.018800	3.341000	-10.084000	26.610226	0.000140	20.779442
1934.494188	-2.986700	3.340900	-9.977700	26.686908	0.000140	20.779243
1935.496259	-2.985000	3.340300	-9.969700	26.724216	0.000142	20.795888
1936.498036	-3.001900	3.340300	-10.026000	26.746804	0.000139	20.786355
1937.494199	-3.014500	3.339000	-10.064000	26.714609	0.000140	20.775324
1938.497913	-3.004200	3.338300	-10.028000	26.730917	0.000141	20.777495
1939.495443	-3.006500	3.337200	-10.031000	26.707361	0.000139	20.782262
1940.494883	-3.019300	3.338000	-10.077000	26.645998	0.000139	20.785057
1941.497737	-3.010600	3.338500	-10.050000	26.590762	0.000139	20.777420
1942.497980	-3.013400	3.337900	-10.057000	26.584630	0.000136	20.789273
1943.493190	-3.012100	3.336100	-10.048000	26.560277	0.000137	20.773328
1944.495943	-3.005900	3.336600	-10.029000	26.626163	0.000136	20.774600
1945.495461	-2.997800	3.337000	-10.003000	26.628669	0.000138	20.775698
1946.497237	-3.020400	3.335700	-10.075000	26.624424	0.000136	20.765266
1947.499162	-2.983500	3.336100	-9.952300	26.656944	0.000134	20.782311
1948.499982	-2.996600	3.335500	-9.994200	26.674817	0.000134	20.779416
1949.497096	-3.000400	3.334300	-10.003000	26.656448	0.000133	20.777070
1950.499470	-2.971300	3.335200	-9.909500	26.601808	0.000135	20.775722
1951.498376	-3.006400	3.333600	-10.022000	26.624672	0.000134	20.762670
1952.495151	-2.981000	3.335900	-9.944400	26.624523	0.000135	20.761572
1953.495014	-2.982400	3.333100	-9.939800	26.647262	0.000134	20.768784
1954.498011	-2.999900	3.334500	-10.002000	26.587557	0.000133	20.761396
1955.495910	-2.963700	3.334900	-9.882700	26.633359	0.000132	20.759075
1956.501528	-2.982500	3.334100	-9.943000	26.667914	0.000134	20.776744
1957.499556	-3.005300	3.331900	-10.012000	26.664689	0.000131	20.770182
1958.498641	-2.991900	3.333200	-9.972000	26.607964	0.000131	20.774797
1959.503351	-2.999400	3.331400	-9.992000	26.637704	0.000133	20.764391
1960.499418	-3.007400	3.331500	-10.019000	26.664463	0.000131	20.782757
1961.499387	-3.009100	3.331100	-10.023000	26.702690	0.000129	20.786101
1962.500821	-3.024100	3.330500	-10.071000	26.685587	0.000130	20.757052
1963.499187	-3.004800	3.331200	-10.008000	26.654136	0.000132	20.748193
1964.496412	-3.022900	3.330700	-10.067000	26.657835	0.000129	20.771826
1965.503859	-3.007600	3.330300	-10.016000	26.608732	0.000130	20.770828
1966.500157	-3.014300	3.330200	-10.038000	26.619406	0.000128	20.752160
1967.496526	-3.016500	3.329300	-10.042000	26.673324	0.000131	20.758949
1968.505874	-2.985800	3.329900	-9.941200	26.710559	0.000129	20.759872
1969.500109	-2.999600	3.329300	-9.985900	26.716318	0.000125	20.745747
1970.501912	-3.000900	3.327800	-9.985800	26.750273	0.000129	20.758549
1971.505014	-2.999700	3.328400	-9.982900	26.749406	0.000126	20.763840
1972.497147	-3.011500	3.327500	-10.020000	26.722771	0.000127	20.736588
1973.504216	-2.985700	3.327500	-9.934100	26.726519	0.000126	20.753633
1974.504923	-3.007900	3.326900	-10.007000	26.714282	0.000125	20.745597
1975.497932	-3.007400	3.326300	-10.003000	26.684619	0.000125	20.776468
1976.503921	-3.006200	3.325900	-9.997500	26.667466	0.000127	20.767284
1977.505754	-3.022500	3.324300	-10.046000	26.610370	0.000125	20.758250
1978.502662	-2.989800	3.326100	-9.942900	26.559701	0.000125	20.746195
1979.505940	-3.001100	3.325200	-9.978400	26.615609	0.000126	20.755456
1980.506948	-2.999100	3.325500	-9.972200	26.642121	0.000124	20.759822
1981.503948	-3.006500	3.325400	-9.997100	26.692613	0.000124	20.743726
1982.504291	-2.983200	3.326100	-9.921100	26.673002	0.000125	20.745822
1983.504568	-2.993700	3.324300	-9.951600	26.699910	0.000124	20.745847
1984.499526	-2.987300	3.324000	-9.928700	26.699738	0.000122	20.751364
1985.505808	-3.007800	3.324000	-9.996800	26.733124	0.000122	20.762170
1986.500699	-2.997100	3.323700	-9.960800	26.742805	0.000122	20.760997
1987.504449	-3.007900	3.324000	-9.997400	26.732529	0.000121	20.753511
1988.504004	-3.008300	3.322100	-9.993200	26.767231	0.000122	20.765641
1989.504013	-3.000600	3.322900	-9.970000	26.799448	0.000123	20.741133
1990.505390	-3.029000	3.322000	-10.061000	26.825759	0.000123	20.756683
1991.501828	-3.002900	3.322400	-9.975100	26.886095	0.000119	20.747174
1992.509980	-3.012300	3.320300	-10.000000	26.870037	0.000121	20.744779
1993.504410	-3.002700	3.320700	-9.970300	26.880039	0.000120	20.748672
1994.505636	-2.979200	3.320400	-9.891700	26.905478	0.000119	20.758605
1995.501887	-3.017100	3.319300	-10.014000	26.867033	0.000118	20.761200
1996.507245	-3.004000	3.319700	-9.972000	26.852640	0.000118	20.746726
1997.504377	-3.010400	3.319900	-9.993900	26.760731	0.000117	20.754838
1998.509757	-3.012400	3.319900	-10.001000	26.764802	0.000119	20.734274
1999.507980	-3.015300	3.319100	-10.008000	26.714438	0.000118	20.734374
2000.506046	-3.007800	3.317300	-9.977100	26.759986	0.000116	20.762624
2001.505862	-3.005300	3.319000	-9.973600	26.787043	0.000117	20.743359
2002.510397	-3.016200	3.317600	-10.006000	26.829435	0.000117	20.742835
2003.513827	-3.009600	3.317300	-9.983200	26.806527	0.000117	20.744458
2004.509562	-3.016700	3.316900	-10.005000	26.789128	0.000116	20.740714
2005.511153	-3.000200	3.317900	-9.953300	26.851997	0.000118	20.749874
2006.505981	-3.004900	3.316600	-9.965300	26.876296	0.000114	20.736847
2007.509253	-3.008700	3.315900	-9.975400	26.853636	0.000114	20.742986
2008.511314	-2.986800	3.316700	-9.905300	26.859320	0.000114	20.745857
2009.510389	-3.019800	3.315000	-10.010000	26.823729	0.000112	20.743261
2010.513658	-2.970900	3.316700	-9.853000	26.817177	0.000112	20.754692
2011.509526	-2.997900	3.314900	-9.936900	26.841029	0.000113	20.741215
2012.508978	-2.981900	3.315200	-9.885200	26.813033	0.000112	20.744361
2013.513809	-3.001000	3.314000	-9.945000	26.770093	0.000112	20.720152
2014.513027	-2.976300	3.313900	-9.862300	26.790745	0.000112	20.763678
2015.512414	-2.979700	3.314200	-9.873500	26.818593	0.000113	20.740468
2016.514648	-3.008700	3.314100	-9.970700	26.858057	0.000112	20.756441
2017.513319	-2.996000	3.313300	-9.925900	26.860885	0.000112	20.739370
2018.518250	-3.013500	3.313000	-9.983000	26.761506	0.000109	20.741391
2019.518001	-2.997400	3.311700	-9.925700	26.758005	0.000109	20.737398
2020.512910	-3.000000	3.312900	-9.937500	26.732911	0.000108	20.746782
2021.513108	-3.014700	3.312100	-9.984100	26.785707	0.000109	20.747707
2022.518669	-3.011500	3.311000	-9.970500	26.829689	0.000107	20.744987
2023.518675	-3.004500	3.310400	-9.944900	26.849644	0.000109	20.755094
2024.514657	-2.980300	3.311100	-9.867100	26.901813	0.000109	20.744488
2025.518241	-2.999100	3.310500	-9.927500	26.881561	0.000108	20.758738
2026.514371	-3.018900	3.310500	-9.993500	26.855327	0.000107	20.748480
2027.513090	-3.000200	3.310800	-9.932500	26.843241	0.000104	20.739172
2028.516305	-3.002100	3.309600	-9.934300	26.822069	0.000106	20.730687
2029.521508	-2.976200	3.310000	-9.850100	26.831277	0.000107	20.743264
2030.519296	-2.962100	3.309200	-9.801400	26.890421	0.000104	20.751051
2031.522130	-2.986900	3.308400	-9.881100	26.912559	0.000106	20.749604
2032.519334	-2.979100	3.308000	-9.854000	26.847832	0.000103	20.758488
2033.517941	-2.992400	3.308300	-9.898800	26.852747	0.000104	20.752998
2034.519913	-3.014500	3.307200	-9.969000	26.804174	0.000104	20.741143
2035.524116	-3.006800	3.307100	-9.941600	26.763542	0.000103	20.752923
2036.520796	-2.981700	3.307300	-9.860500	26.762524	0.000103	20.731510
2037.521358	-2.976700	3.306200	-9.840600	26.795289	0.000102	20.745960
2038.527709	-3.007000	3.305800	-9.939900	26.838873	0.000103	20.734780
2039.524663	-2.998000	3.306200	-9.910300	26.930999	0.000101	20.724048
2040.522254	-3.011900	3.304000	-9.950500	26.986689	0.000101	20.764404
2041.523555	-2.996400	3.305300	-9.903400	27.004183	0.000103	20.750228
2042.525718	-3.004300	3.303800	-9.924700	27.000957	0.000101	20.741768
2043.523519	-2.961600	3.305600	-9.789000	27.024160	0.000102	20.755619
2044.528874	-2.993900	3.305000	-9.893700	26.998203	0.000101	20.766025
2045.525026	-2.989900	3.303300	-9.875900	26.988524	0.000104	20.758663
2046.523468	-2.999400	3.303900	-9.908400	26.982593	9.974981E-5	20.754121
2047.527944	-2.992700	3.303400	-9.885600	26.998203	9.958480E-5	20.759861
2048.520413	-2.993600	3.302900	-9.886900	26.990609	9.836371E-5	20.765975
2049.522119	-2.994500	3.301200	-9.884300	26.967405	9.757165E-5	20.741693
2050.526969	-2.979300	3.303100	-9.840000	26.955891	9.829771E-5	20.752874
2051.526476	-3.000900	3.300600	-9.904400	26.975545	9.786868E-5	20.752724
2052.527079	-2.997400	3.300200	-9.891300	27.014308	9.674659E-5	20.750927
2053.530520	-2.999600	3.301400	-9.901200	27.032623	9.677960E-5	20.764130
2054.527273	-3.034400	3.299000	-10.009000	26.997881	9.783567E-5	20.760012
2055.526406	-2.991900	3.301300	-9.875800	26.995574	9.423841E-5	20.761485
2056.532979	-3.014100	3.299300	-9.943400	26.930232	9.621856E-5	20.766901
2057.535414	-3.008900	3.298900	-9.925100	26.952864	9.496446E-5	20.750304
2058.530492	-3.027200	3.298100	-9.982400	26.991305	9.357836E-5	20.750554
2059.531352	-2.996100	3.298200	-9.880700	27.005302	9.486546E-5	20.755621
2060.533091	-2.992100	3.298000	-9.867300	26.969344	9.209325E-5	20.769722
2061.530645	-3.002300	3.297000	-9.897600	26.982820	9.417241E-5	20.766204
2062.541643	-2.990600	3.298400	-9.862600	27.018034	9.493146E-5	20.763209
2063.531385	-2.978300	3.297500	-9.820500	27.021384	9.410640E-5	20.761836
2064.534561	-2.977800	3.297100	-9.817300	27.053197	9.450243E-5	20.743094
2065.536320	-3.005800	3.295800	-9.905600	27.071014	9.496446E-5	20.744891
2066.534485	-2.994900	3.295600	-9.869300	27.068111	9.239028E-5	20.765206
2067.535758	-3.004800	3.295600	-9.901900	27.073520	9.361137E-5	20.745041
2068.537169	-3.007400	3.296500	-9.913500	27.105283	9.176323E-5	20.765132
2069.538371	-3.020200	3.296000	-9.953700	27.103100	9.159822E-5	20.782377
2070.534795	-3.029300	3.294300	-9.979100	27.147019	9.060815E-5	20.770598
2071.540673	-3.009900	3.294200	-9.914400	27.053745	8.975008E-5	20.767828
2072.536334	-2.987800	3.293600	-9.839800	27.049601	8.975008E-5	20.764135
2073.533332	-2.981400	3.293400	-9.817000	27.024538	8.899103E-5	20.783027
2074.534138	-3.013500	3.291500	-9.917300	27.072580	9.034413E-5	20.767330
2075.536821	-3.002300	3.292700	-9.885000	27.143497	8.928805E-5	20.767530
2076.535790	-2.994700	3.293400	-9.861800	27.104243	8.849599E-5	20.775940
2077.535237	-3.002500	3.292100	-9.884000	27.095014	8.819897E-5	20.795582
2078.539232	-2.990100	3.292200	-9.843300	27.094295	8.740691E-5	20.766409
2079.539384	-3.006500	3.290600	-9.891900	27.154714	8.922204E-5	20.767433
2080.537759	-3.002900	3.291100	-9.882700	27.162011	8.763793E-5	20.771926
2081.538129	-3.009200	3.291200	-9.903300	27.208506	8.767093E-5	20.769853
2082.537129	-3.006300	3.290600	-9.891900	27.213841	8.605381E-5	20.783280
2083.537470	-3.012400	3.290500	-9.911200	27.208954	8.836398E-5	20.779787
2084.534529	-3.015100	3.289200	-9.916000	27.264826	8.803396E-5	20.762966
2085.537771	-3.002500	3.290100	-9.877300	27.300900	8.506374E-5	20.775071
2086.536645	-3.005000	3.289200	-9.882700	27.301470	8.446970E-5	20.764265
2087.538393	-3.011900	3.289400	-9.906300	27.272643	8.473372E-5	20.786002
2088.537110	-3.032100	3.287400	-9.966600	27.197791	8.420568E-5	20.775672
2089.541439	-2.999400	3.288500	-9.862800	27.186054	8.427168E-5	20.788997
2090.538703	-2.999100	3.286700	-9.856200	27.137175	8.400766E-5	20.768284
2091.538893	-3.003800	3.288100	-9.875300	27.121023	8.321561E-5	20.772428
2092.540670	-2.994100	3.286900	-9.839800	27.063976	8.103745E-5	20.781911
2093.541868	-3.010000	3.286900	-9.892500	27.099337	8.215953E-5	20.769110
2094.538054	-3.025200	3.285300	-9.938100	27.090552	8.202752E-5	20.791569
2095.542237	-2.978500	3.286400	-9.788200	27.107972	8.034440E-5	20.786804
2096.539762	-3.017200	3.285600	-9.912000	27.103779	8.037740E-5	20.797285
2097.540823	-3.014300	3.286100	-9.903800	27.069809	8.001437E-5	20.775923
2098.544302	-3.012500	3.284000	-9.892100	27.082389	7.948633E-5	20.805171
2099.537791	-3.019600	3.284500	-9.916400	27.091272	7.951934E-5	20.779017
2100.536857	-2.990300	3.285800	-9.824700	27.097353	7.909030E-5	20.805047
2101.542385	-3.003800	3.283500	-9.861400	27.095243	8.064142E-5	20.790597
2102.538242	-2.987700	3.283300	-9.808700	27.086236	7.687914E-5	20.781538
2103.541822	-2.987900	3.283900	-9.811400	27.140626	7.942033E-5	20.789300
2104.558403	-3.023000	3.281900	-9.919500	27.157996	7.727517E-5	20.781165
2105.540178	-2.996600	3.282200	-9.834600	27.193079	7.912331E-5	20.797011
2106.541419	-3.017000	3.281300	-9.899500	27.147847	7.615309E-5	20.794191
2107.541695	-2.988300	3.281500	-9.804700	27.197323	7.747319E-5	20.803650
2108.540493	-2.997100	3.281100	-9.833200	27.251360	7.885929E-5	20.784983
2109.544378	-2.999400	3.280300	-9.837000	27.257661	7.618609E-5	20.794166
2110.545088	-3.012300	3.280600	-9.880800	27.223325	7.549304E-5	20.803251
2111.540026	-2.999300	3.278300	-9.831700	27.202260	7.473399E-5	20.774477
2112.544683	-2.966800	3.281300	-9.734900	27.219279	7.555905E-5	20.801078
2113.549362	-2.985000	3.280200	-9.790500	27.187447	7.404093E-5	20.794665
2114.538691	-2.996200	3.278600	-9.822600	27.172609	7.780321E-5	20.796337
2115.545031	-3.008600	3.277500	-9.859700	27.188489	7.423895E-5	20.812783
2116.547029	-2.987100	3.277000	-9.787700	27.204839	7.338089E-5	20.798882
2117.542902	-2.989600	3.277700	-9.798100	27.221910	7.460198E-5	20.816526
2118.546046	-2.976300	3.277600	-9.753800	27.248083	7.314987E-5	20.786903
2119.545770	-2.973300	3.277000	-9.741800	27.222405	7.618609E-5	20.797584
2120.544421	-2.999200	3.276600	-9.826400	27.232378	7.120273E-5	20.793391
2121.544188	-3.001500	3.276000	-9.831700	27.183922	7.347989E-5	20.817198
2122.559179	-2.987600	3.276300	-9.787400	27.223844	7.272084E-5	20.805670
2123.541940	-3.003100	3.275400	-9.835400	27.288026	7.255583E-5	20.789622
2124.545241	-2.993600	3.274500	-9.801600	27.359598	7.100471E-5	20.810884
2125.546270	-2.987100	3.274700	-9.780900	27.375995	7.034466E-5	20.805094
2126.544781	-2.997200	3.274800	-9.813900	27.386761	7.163176E-5	20.805968
2127.547793	-2.989800	3.274800	-9.789300	27.336402	6.803450E-5	20.806043
2128.543884	-2.990600	3.274500	-9.791900	27.356546	7.116972E-5	20.794538
2129.543186	-3.008000	3.274700	-9.849400	27.357215	7.093871E-5	20.790470
2130.547236	-3.001900	3.272200	-9.822400	27.358803	7.219280E-5	20.804869
2131.548954	-3.014700	3.271400	-9.861400	27.356371	7.371091E-5	20.802422
2132.544533	-2.992500	3.271700	-9.789800	27.331787	6.899157E-5	20.815625
2133.550718	-2.996200	3.272700	-9.805200	27.320549	6.958561E-5	20.803372
2134.548505	-3.006000	3.271000	-9.831000	27.360986	7.044367E-5	20.828401
2135.551043	-3.012600	3.271600	-9.855100	27.383188	6.819951E-5	20.808537
2136.555542	-2.989100	3.269600	-9.772600	27.377904	6.856253E-5	20.819817
2137.551614	-2.976400	3.270400	-9.732800	27.353990	6.793549E-5	20.819468
2138.549271	-2.991500	3.270200	-9.782300	27.333052	6.711043E-5	20.814052
2139.545194	-3.019400	3.269400	-9.870700	27.362945	6.664839E-5	20.816622
2140.547310	-3.029600	3.267600	-9.898400	27.352849	6.777048E-5	20.831595
2141.546308	-2.991700	3.267600	-9.774400	27.347242	6.651638E-5	20.822637
2142.548353	-2.968600	3.268900	-9.702600	27.312287	6.605435E-5	20.831570
2143.549782	-3.006600	3.268200	-9.825600	27.366691	6.404120E-5	20.817545
2144.548454	-3.019000	3.267600	-9.863900	27.349053	6.575733E-5	20.808811
2145.550533	-2.991500	3.266700	-9.771900	27.292019	6.506428E-5	20.819243
2146.551550	-2.992100	3.267300	-9.775200	27.255078	6.486626E-5	20.820965
2147.546426	-2.978400	3.265000	-9.722400	27.308417	6.522929E-5	20.823884
2148.547481	-3.011800	3.265700	-9.834400	27.314943	6.407421E-5	20.795361
2149.562187	-2.973600	3.266900	-9.713800	27.326528	6.387619E-5	20.798480
2150.551186	-3.007800	3.265400	-9.819800	27.296310	6.387619E-5	20.818343
2151.553228	-2.989300	3.265200	-9.759700	27.305913	6.305113E-5	20.836064
2152.551496	-3.016400	3.263100	-9.841900	27.365303	6.344716E-5	20.834640
2153.553508	-2.988300	3.264900	-9.755900	27.399833	6.311713E-5	20.823859
2154.554336	-2.984600	3.263100	-9.737300	27.436645	6.179704E-5	20.833392
2155.558712	-2.984400	3.262800	-9.736700	27.465370	6.440423E-5	20.829100
2156.554748	-2.991100	3.263000	-9.759300	27.486182	6.252309E-5	20.837236
2157.556091	-3.001800	3.263100	-9.794800	27.451678	6.153302E-5	20.830498
2158.557410	-2.987100	3.263100	-9.746800	27.414594	6.367818E-5	20.828278
2159.554828	-3.007900	3.262000	-9.811200	27.413726	5.819977E-5	20.842577
2160.559163	-2.990300	3.261100	-9.751100	27.452720	5.935486E-5	20.827279
2161.555360	-2.982600	3.261600	-9.727600	27.449099	6.153302E-5	20.840231
2162.554643	-3.008200	3.259800	-9.805500	27.499974	6.027893E-5	20.832146
2163.553105	-3.014200	3.260600	-9.827300	27.552582	6.087297E-5	20.837186
2164.563095	-2.997900	3.260000	-9.772700	27.537675	5.869481E-5	20.848740
2165.552212	-3.022500	3.258500	-9.847900	27.551814	5.942086E-5	20.831199
2166.557100	-3.005400	3.257800	-9.790600	27.598367	5.889283E-5	20.857175
2167.557981	-2.985100	3.258600	-9.725900	27.633336	5.747372E-5	20.834041
2168.559456	-2.985300	3.258300	-9.726600	27.590108	5.668166E-5	20.830374
2169.559851	-2.972500	3.259400	-9.687000	27.615382	5.803476E-5	20.813605
2170.565961	-2.990600	3.257200	-9.740500	27.616944	5.780375E-5	20.832720
2171.557710	-3.011400	3.257700	-9.809100	27.617911	5.859580E-5	20.825159
2172.555504	-2.991500	3.255700	-9.738700	27.576244	5.608762E-5	20.849140
2173.562752	-2.990200	3.255900	-9.734600	27.559478	5.747372E-5	20.854081
2174.559195	-2.997000	3.255300	-9.755900	27.497395	5.598861E-5	20.839034
2175.558847	-3.002800	3.255500	-9.774500	27.480007	5.734171E-5	20.886022
2176.559549	-3.014700	3.254800	-9.810800	27.501958	5.651665E-5	20.853582
2177.556962	-3.016200	3.253600	-9.812600	27.576542	5.641764E-5	20.858922
2178.557426	-2.995100	3.255100	-9.747500	27.593903	5.529556E-5	20.852684
2179.562328	-3.008700	3.253300	-9.787300	27.596631	5.559258E-5	20.861592
2180.554355	-2.980600	3.254400	-9.699400	27.546060	5.546057E-5	20.842478
2181.560881	-3.013000	3.253300	-9.801500	27.514633	5.291939E-5	20.846894
2182.561203	-3.005500	3.251700	-9.771100	27.494245	5.239135E-5	20.858149
2183.553931	-3.003800	3.252200	-9.767100	27.481892	5.361244E-5	20.877962
2184.560174	-2.997000	3.250600	-9.740600	27.455252	5.506455E-5	20.862541
2185.562566	-3.001300	3.251600	-9.757000	27.403358	5.219333E-5	20.859647
2186.558069	-3.009300	3.251700	-9.784600	27.467580	5.153329E-5	20.863091
2187.556505	-3.008700	3.249800	-9.777200	27.513642	5.169830E-5	20.844948
2188.559820	-2.973000	3.250100	-9.661900	27.480354	5.189631E-5	20.864562
2189.560190	-3.001200	3.249900	-9.752900	27.490896	5.051021E-5	20.842927
2190.562264	-2.986200	3.249000	-9.701500	27.544249	5.437149E-5	20.873371
2191.566562	-2.996500	3.249100	-9.735200	27.565380	4.988317E-5	20.865709
2192.555965	-2.983500	3.249200	-9.693100	27.552831	5.080723E-5	20.851187
2193.563479	-3.028100	3.249300	-9.837900	27.593185	5.265537E-5	20.850538
2194.566920	-2.961800	3.248500	-9.620400	27.635297	5.090624E-5	20.883901
2195.563578	-2.947600	3.248900	-9.575500	27.597300	4.968515E-5	20.871748
2196.561780	-3.012200	3.246500	-9.778500	27.610221	4.988317E-5	20.874317
2197.567637	-2.979400	3.247000	-9.673700	27.601393	4.994917E-5	20.863539
2198.562411	-3.000900	3.244400	-9.735000	27.582692	5.067522E-5	20.879808
2199.560410	-3.001400	3.244500	-9.737600	27.638917	4.925612E-5	20.851036
2200.562720	-2.991700	3.244500	-9.706000	27.654888	4.856307E-5	20.872795
2201.559289	-2.995700	3.244200	-9.717600	27.634478	4.958614E-5	20.869801
2202.561889	-2.984200	3.244400	-9.680600	27.696528	5.080723E-5	20.884349
2203.563194	-2.990900	3.245600	-9.705800	27.711010	4.991617E-5	20.849138
2204.560016	-2.997400	3.242800	-9.719300	27.721972	4.938813E-5	20.883401
2205.564047	-3.018700	3.241700	-9.784700	27.741909	4.961915E-5	20.871222
2206.562923	-3.010800	3.241900	-9.759600	27.690153	4.760600E-5	20.875090
2207.558214	-2.998500	3.242400	-9.721300	27.637005	4.790302E-5	20.869026
2208.563922	-2.988100	3.242800	-9.689000	27.681820	4.790302E-5	20.886144
2209.560054	-2.995700	3.242200	-9.712300	27.704189	4.803503E-5	20.859343
2210.564365	-2.996400	3.240700	-9.709800	27.694393	4.631890E-5	20.870348
2211.565477	-3.009000	3.240600	-9.750400	27.680133	4.760600E-5	20.857422
2212.561174	-2.997000	3.239900	-9.709400	27.642585	4.846406E-5	20.862313
2213.563680	-3.017800	3.239500	-9.775100	27.616122	4.800203E-5	20.863186
2214.566792	-3.006000	3.239000	-9.734700	27.599802	4.615389E-5	20.886118
2215.565796	-3.013600	3.238000	-9.757100	27.650919	4.618689E-5	20.892034
2216.565177	-3.021800	3.237500	-9.782500	27.688764	4.899210E-5	20.910199
2217.566973	-3.015800	3.237900	-9.763300	27.659424	4.503181E-5	20.888263
2218.563343	-3.018900	3.238100	-9.775200	27.710165	4.456978E-5	20.884796
2219.567965	-3.006200	3.237200	-9.731400	27.739650	4.473479E-5	20.875587
2220.571693	-2.984800	3.236500	-9.658700	27.783221	4.661593E-5	20.887665
2221.564700	-2.994800	3.236500	-9.692000	27.802191	4.272164E-5	20.889687
2222.569082	-2.982200	3.236300	-9.650400	27.765763	4.285365E-5	20.903760
2223.565627	-2.997600	3.238300	-9.706400	27.828823	4.612089E-5	20.876661
2224.571011	-2.994100	3.235700	-9.686700	27.823838	4.486680E-5	20.886816
2225.569159	-2.982500	3.235700	-9.649700	27.790957	4.348070E-5	20.869848
2226.571260	-2.996500	3.233700	-9.687900	27.749893	4.183057E-5	20.873093
2227.569207	-2.985200	3.233200	-9.650300	27.765291	4.209459E-5	20.901863
2228.569787	-3.007300	3.235400	-9.728300	27.758647	4.321668E-5	20.886643
2229.571845	-3.014300	3.233900	-9.747300	27.738187	4.275464E-5	20.909199
2230.572132	-2.996800	3.233700	-9.689700	27.708081	4.305166E-5	20.895500
2231.574089	-2.991800	3.232300	-9.669400	27.675048	4.361271E-5	20.906355
2232.570682	-3.002900	3.232400	-9.705600	27.743594	4.209459E-5	20.897572
2233.577628	-2.967800	3.231200	-9.588500	27.766532	4.130254E-5	20.905956
2234.574737	-2.988700	3.232000	-9.658300	27.770747	4.057648E-5	20.899293
2235.574648	-2.991900	3.231500	-9.667200	27.781634	4.186358E-5	20.912618
2236.574594	-2.985600	3.230700	-9.644700	27.805463	4.054348E-5	20.921900
2237.575930	-3.001300	3.229400	-9.691500	27.760878	4.004844E-5	20.905482
2238.571894	-2.974700	3.230100	-9.607000	27.790734	4.150055E-5	20.908974
2239.580498	-3.002700	3.229000	-9.695300	27.820863	4.084050E-5	20.886193
2240.573208	-3.011000	3.228000	-9.719100	27.745875	4.120353E-5	20.915513
2241.579803	-3.011000	3.227100	-9.716000	27.754479	4.001544E-5	20.899991
2242.580215	-2.973800	3.228000	-9.599000	27.750933	3.839832E-5	20.893104
2243.576769	-2.994500	3.227600	-9.662700	27.789295	4.018045E-5	20.925069
2244.574617	-3.000000	3.226100	-9.677700	27.852477	3.938840E-5	20.912318
2245.578635	-2.964300	3.227200	-9.565500	27.862495	3.773827E-5	20.908650
2246.577545	-2.978500	3.225600	-9.606000	27.882629	3.994944E-5	20.908051
2247.580770	-2.992000	3.225000	-9.648200	27.929143	3.879435E-5	20.918356
2248.579808	-3.014000	3.224800	-9.718600	27.920515	3.658319E-5	20.907302
2249.576017	-2.984000	3.227000	-9.628300	27.877173	3.572513E-5	20.912043
2250.577702	-3.011900	3.225500	-9.714200	27.794353	3.602215E-5	20.915935
2251.576775	-2.989600	3.224200	-9.637200	27.785080	3.717723E-5	20.906130
2252.577880	-3.002900	3.223300	-9.678300	27.877447	3.767227E-5	20.914689
2253.581688	-2.991800	3.222500	-9.640700	27.911340	3.592314E-5	20.897595
2254.579768	-3.010000	3.221400	-9.695600	27.889001	3.572513E-5	20.896447
2255.579848	-2.993100	3.222300	-9.644200	27.905712	3.565912E-5	20.915636
2256.578352	-2.997900	3.222600	-9.660200	27.950937	3.829932E-5	20.918007
2257.578942	-3.018000	3.220600	-9.718900	27.949722	3.872835E-5	20.920103
2258.581691	-2.992900	3.221000	-9.639600	27.978629	3.671520E-5	20.888510
2259.577718	-2.993200	3.220300	-9.638600	28.021174	3.668220E-5	20.902411
2260.578428	-2.987700	3.219400	-9.618600	28.027421	3.364597E-5	20.915336
2261.578769	-3.012000	3.219800	-9.697100	27.961498	3.473505E-5	20.879328
2262.580841	-3.000100	3.219600	-9.658300	27.924531	3.598915E-5	20.890957
2263.580275	-3.029300	3.216600	-9.742900	27.843996	3.255689E-5	20.905679
2264.581102	-2.986700	3.218000	-9.610400	27.784780	3.249089E-5	20.916259
2265.581430	-3.003900	3.217800	-9.665100	27.805710	3.598915E-5	20.887538
2266.581539	-2.998700	3.215800	-9.641700	27.770844	3.539510E-5	20.879951
2267.607688	-2.990900	3.217100	-9.621700	27.787657	3.357997E-5	20.896396
2268.580259	-3.013100	3.215200	-9.686400	27.833730	3.424002E-5	20.881599
2269.583260	-3.002000	3.215200	-9.651300	27.833829	3.315094E-5	20.892129
2270.578353	-2.994600	3.215600	-9.629000	27.858625	3.443803E-5	20.879627
2271.578900	-2.997800	3.213300	-9.632300	27.811238	3.387699E-5	20.885990
2272.579791	-3.001300	3.213600	-9.644200	27.793707	3.249089E-5	20.902011
2273.583288	-3.011700	3.213900	-9.678600	27.764967	3.186384E-5	20.891106
2274.584107	-3.006600	3.212000	-9.656300	27.791675	2.991670E-5	20.873415
2275.583387	-2.964100	3.212800	-9.522800	27.846971	3.192985E-5	20.875959
2276.586431	-3.007200	3.211500	-9.656400	27.868468	3.097278E-5	20.872465
2277.584673	-3.026000	3.212100	-9.718900	27.874568	3.291992E-5	20.870544
2278.586614	-3.015000	3.210700	-9.679000	27.894181	3.275491E-5	20.890282
2279.587946	-2.994300	3.210900	-9.613100	27.881882	3.044474E-5	20.866526
2280.584575	-3.004900	3.210100	-9.644200	27.895123	3.282091E-5	20.869895
2281.585294	-2.973400	3.210200	-9.544900	27.949621	3.064275E-5	20.879702
2282.591764	-3.013000	3.209300	-9.668700	27.956563	2.942166E-5	20.869621
2283.588650	-3.005200	3.209500	-9.644700	27.867080	3.041174E-5	20.866327
2284.592906	-3.027300	3.207000	-9.706300	27.827034	2.853060E-5	20.887188
2285.591606	-3.015600	3.208000	-9.672600	27.817140	2.991670E-5	20.877706
2286.589168	-3.008600	3.206500	-9.645300	27.835043	2.853060E-5	20.868697
2287.586490	-2.993000	3.206900	-9.597600	27.876849	2.760653E-5	20.860038
2288.595037	-2.990500	3.207100	-9.590300	27.937274	2.833258E-5	20.866801
2289.591374	-2.990700	3.205500	-9.585600	27.944415	2.800256E-5	20.866402
2290.585447	-2.949500	3.207000	-9.458800	27.930257	2.843159E-5	20.856894
2291.590786	-3.016600	3.205200	-9.667700	27.969332	2.664946E-5	20.866826
2292.592243	-2.986200	3.204000	-9.566300	27.961523	2.876162E-5	20.867026
2293.592011	-3.006800	3.204600	-9.634100	28.011851	2.539537E-5	20.839450
2294.595043	-3.006700	3.203700	-9.632000	28.033222	2.856360E-5	20.853375
2295.589732	-2.991900	3.204800	-9.586900	28.040808	2.575839E-5	20.866701
2296.585937	-3.004800	3.202900	-9.622900	28.034882	2.344822E-5	20.834659
2297.595494	-3.013500	3.202700	-9.651100	27.991123	2.612142E-5	20.861733
2298.588215	-3.025000	3.202000	-9.685300	27.995040	2.321721E-5	20.844814
2299.592484	-2.997400	3.200900	-9.592800	28.040782	2.430629E-5	20.851977
2300.593740	-3.015900	3.202800	-9.658200	28.117410	2.532936E-5	20.841396
2301.592699	-2.994000	3.199900	-9.579200	28.154544	2.490033E-5	20.849381
2302.590034	-2.994500	3.199300	-9.579100	28.122714	2.453730E-5	20.841994
2303.595568	-3.022000	3.198700	-9.665100	27.974512	2.367924E-5	20.847858
2304.595608	-3.012400	3.198000	-9.633200	27.920858	2.259016E-5	20.849805
2305.590765	-3.006700	3.197400	-9.612600	27.916964	2.311820E-5	20.835455
2306.592800	-2.984600	3.196900	-9.541200	27.924055	2.196312E-5	20.830264
2307.594056	-3.023800	3.196000	-9.662700	27.922841	2.249115E-5	20.844214
2308.592495	-2.990200	3.196100	-9.555800	27.887185	2.196312E-5	20.849105
2309.594984	-3.000800	3.195700	-9.587500	27.896583	2.103905E-5	20.824425
2310.592357	-2.983200	3.196400	-9.534700	27.926310	2.430629E-5	20.846758
2311.592900	-3.006200	3.196000	-9.607200	27.937915	2.044500E-5	20.849429
2312.596182	-3.026900	3.193700	-9.665500	27.896309	2.156709E-5	20.831736
2313.593910	-2.993800	3.193600	-9.559700	27.972848	2.090704E-5	20.839072
2314.594232	-2.993300	3.193500	-9.557900	28.038200	2.146808E-5	20.851274
2315.595747	-3.017000	3.191900	-9.627700	28.006244	2.120406E-5	20.844711
2316.593436	-2.981700	3.192100	-9.516700	28.020103	2.242515E-5	20.834955
2317.593749	-2.988500	3.191300	-9.535800	28.033044	1.905890E-5	20.818584
2318.594321	-3.011000	3.190700	-9.605900	28.089493	1.998297E-5	20.838897
2319.592172	-2.986700	3.191500	-9.531600	28.106847	2.156709E-5	20.826969
2320.593160	-2.995900	3.190000	-9.556200	28.068594	1.952094E-5	20.854842
2321.595098	-3.012100	3.189400	-9.606200	28.109151	1.998297E-5	20.838772
2322.594615	-3.012400	3.188000	-9.603100	28.146286	2.070902E-5	20.830636
2323.593688	-3.007100	3.187700	-9.585000	28.154689	1.925692E-5	20.836251
2324.594557	-3.011800	3.188200	-9.600800	28.165001	1.961994E-5	20.821977
2325.595983	-2.994800	3.186000	-9.540900	28.122165	2.018098E-5	20.835278
2326.594230	-2.997600	3.185900	-9.549100	28.100474	2.183111E-5	20.826718
2327.593343	-3.000300	3.187000	-9.560900	28.149086	1.952094E-5	20.823498
2328.596898	-2.998500	3.185700	-9.551800	28.075435	1.938893E-5	20.842289
2329.598027	-3.032200	3.182500	-9.648900	28.060487	1.839885E-5	20.851897
2330.596835	-3.026500	3.185300	-9.639500	28.027936	1.711176E-5	20.819132
2331.596227	-3.002900	3.183500	-9.558600	27.999351	1.721077E-5	20.830661
2332.597348	-2.986700	3.183500	-9.507600	28.005771	1.796982E-5	20.827167
2333.596921	-2.986200	3.182200	-9.502100	27.991539	2.179810E-5	20.811894
2334.602998	-2.999400	3.182300	-9.544000	27.960500	1.872888E-5	20.832333
2335.598166	-3.000300	3.182500	-9.547600	27.990896	1.968595E-5	20.803660
2336.599608	-3.025100	3.182100	-9.625000	28.020969	1.912491E-5	20.823025
2337.603266	-3.002900	3.180900	-9.550900	28.057314	1.770580E-5	20.824523
2338.598986	-2.969000	3.179900	-9.440000	27.966897	1.767280E-5	20.816013
2339.601168	-3.009500	3.178000	-9.562800	28.003069	1.740878E-5	20.824448
2340.600419	-2.999100	3.177400	-9.528400	28.069461	1.744178E-5	20.831060
2341.600319	-2.972800	3.178000	-9.447000	28.040629	1.806883E-5	20.830486
2342.603298	-3.000000	3.176500	-9.528900	28.019729	1.796982E-5	20.803759
2343.605007	-2.992700	3.176000	-9.502500	28.011202	1.912491E-5	20.810348
2344.600130	-3.007900	3.175100	-9.549500	28.058702	1.552764E-5	20.831610
2345.607618	-2.985800	3.175900	-9.481400	28.081930	1.694675E-5	20.814690
2346.608397	-2.975100	3.175900	-9.447600	28.112349	1.671573E-5	20.815439
2347.603014	-2.975500	3.175800	-9.449000	28.120133	1.750779E-5	20.809051
2348.603616	-3.007800	3.173000	-9.542800	28.117382	1.559365E-5	20.822402
2349.605415	-2.981000	3.172800	-9.457300	28.098789	1.747479E-5	20.818384
2350.599113	-3.002700	3.172400	-9.524400	28.052703	1.655072E-5	20.819407
2351.604967	-2.995800	3.171600	-9.499800	28.103424	1.549464E-5	20.824473
2352.604722	-3.013300	3.170000	-9.551500	28.159573	1.400953E-5	20.809874
2353.600472	-2.971600	3.171400	-9.423200	28.164505	1.546164E-5	20.815788
2354.607521	-2.983200	3.171500	-9.459900	28.162151	1.625370E-5	20.808677
2355.606505	-3.009400	3.170300	-9.540100	28.215445	1.397653E-5	20.816337
2356.605738	-2.984200	3.167600	-9.450900	28.138352	1.483459E-5	20.826443
2357.606755	-3.006200	3.168200	-9.522400	28.181460	1.592367E-5	20.798718
2358.607557	-2.989000	3.167200	-9.466300	28.226226	1.592367E-5	20.829562
2359.602849	-3.002500	3.166300	-9.506200	28.225632	1.447156E-5	20.813317
2360.609260	-3.008400	3.165500	-9.522200	28.187906	1.387752E-5	20.815639
2361.608213	-3.003300	3.163700	-9.500400	28.133642	1.295345E-5	20.806529
2362.608047	-2.971800	3.164400	-9.402900	28.147920	1.041227E-5	20.820902
2363.606724	-3.001400	3.163800	-9.495200	28.201563	1.582466E-5	20.808051
2364.604970	-2.993900	3.162300	-9.467000	28.199976	1.559365E-5	20.806928
2365.612666	-3.003600	3.161700	-9.496000	28.241421	1.206239E-5	20.802661
2366.610516	-3.001800	3.162000	-9.490800	28.240280	1.341549E-5	20.807202
2367.610397	-2.997400	3.161700	-9.476300	28.282070	1.044527E-5	20.812293
2368.605142	-2.994200	3.160200	-9.461400	28.266752	1.232641E-5	20.806828
2369.608043	-3.014500	3.159800	-9.524100	28.285539	1.318447E-5	20.788285
2370.606361	-3.003900	3.159000	-9.488400	28.319470	1.064328E-5	20.807750
2371.604714	-3.006200	3.159100	-9.496000	28.266577	1.011524E-5	20.801436
2372.610048	-3.024000	3.156700	-9.543700	28.274336	1.120432E-5	20.815412
2373.606320	-3.003200	3.157500	-9.481400	28.328715	1.080830E-5	20.812317
2374.607938	-2.981600	3.157600	-9.413400	28.339000	1.070929E-5	20.811768
2375.607365	-2.999800	3.154400	-9.461800	28.276293	1.067629E-5	20.817856
2376.609292	-2.986600	3.155600	-9.423700	28.300980	1.127033E-5	20.797668
2377.610167	-3.002900	3.153700	-9.469300	28.291014	9.917230E-6	20.799962
2378.608234	-3.003200	3.153700	-9.469900	28.258818	9.422193E-6	20.784141
2379.607205	-2.981000	3.152500	-9.396400	28.257802	1.004924E-5	20.794498
2380.606741	-3.005700	3.151500	-9.471000	28.245903	1.103931E-5	20.800062
2381.611725	-2.999000	3.151500	-9.449700	28.239459	7.607060E-6	20.810169
2382.609566	-3.008100	3.149900	-9.474600	28.307298	1.222740E-5	20.790753
2383.611682	-2.993100	3.149700	-9.426800	28.282214	1.028026E-5	20.794421
2384.609327	-3.008100	3.148600	-9.469900	28.315377	9.488198E-6	20.807896
2385.611985	-2.994400	3.148700	-9.427900	28.266971	8.894155E-6	20.807048
2386.613264	-2.981400	3.147100	-9.381000	28.318599	8.399118E-6	20.802131
2387.607733	-3.014300	3.146500	-9.484100	28.348190	6.616987E-6	20.785934
2388.608906	-2.983500	3.145700	-9.383600	28.407573	7.541055E-6	20.792623
2389.612798	-2.996900	3.144300	-9.422400	28.355527	8.432121E-6	20.795692
2390.617765	-2.996700	3.144100	-9.420700	28.339715	8.696140E-6	20.791151
2391.614296	-2.970100	3.143700	-9.336100	28.339937	7.640062E-6	20.807495
2392.609482	-2.974800	3.143100	-9.348900	28.345415	8.399118E-6	20.798312
2393.612527	-2.992600	3.142400	-9.402600	28.314532	7.046019E-6	20.778122
2394.613490	-2.990600	3.142000	-9.395300	28.300727	8.069094E-6	20.798835
2395.611551	-3.004100	3.139600	-9.430400	28.301668	7.772072E-6	20.792671
2396.614009	-2.993800	3.139800	-9.398900	28.342166	8.003089E-6	20.788877
2397.613615	-2.999000	3.138600	-9.411800	28.326329	6.649990E-6	20.805173
2398.613808	-2.999500	3.138300	-9.412200	28.346826	6.616987E-6	20.795940
2399.610868	-3.016200	3.137400	-9.461700	28.332525	6.649990E-6	20.773480
2400.615202	-2.993500	3.135100	-9.384000	28.290811	4.735849E-6	20.780791
2401.614001	-2.988900	3.136200	-9.373400	28.316613	5.098875E-6	20.792071
2402.613930	-3.006000	3.134700	-9.421900	28.391908	6.848004E-6	20.808617
2403.615608	-2.990900	3.133300	-9.370700	28.439739	4.273815E-6	20.790875
2404.613394	-2.998600	3.133000	-9.393400	28.440060	6.121951E-6	20.782663
2405.615291	-3.001300	3.133100	-9.402800	28.376492	7.904082E-6	20.806845
2406.615634	-3.028000	3.130900	-9.479300	28.364521	7.739070E-6	20.787204
2407.617122	-2.983700	3.132200	-9.344400	28.401325	6.286963E-6	20.800082
2408.614932	-3.001600	3.130800	-9.396300	28.400061	7.673065E-6	20.789326
2409.618084	-2.982900	3.128400	-9.330800	28.429155	6.022943E-6	20.779742
2410.613937	-3.017900	3.126600	-9.435100	28.474902	7.937084E-6	20.788826
2411.617018	-3.003300	3.127000	-9.390500	28.530808	4.900861E-6	20.786805
2412.617007	-2.995900	3.125700	-9.363400	28.461000	5.560909E-6	20.782887
2413.616200	-2.989800	3.125600	-9.343300	28.425066	4.834856E-6	20.793643
2414.616768	-2.983800	3.123900	-9.319400	28.365809	6.088948E-6	20.789924
2415.615315	-3.000100	3.123400	-9.368900	28.383902	5.032870E-6	20.805771
2416.618004	-2.988800	3.122600	-9.331600	28.417062	3.943790E-6	20.781790
2417.616732	-2.985900	3.123000	-9.323300	28.434137	4.900861E-6	20.787129
2418.617658	-3.004100	3.119900	-9.371500	28.438522	3.349747E-6	20.781114
2419.616781	-2.997400	3.120700	-9.353200	28.398499	2.491683E-6	20.796288
2420.619484	-3.008800	3.118600	-9.383000	28.453046	5.197883E-6	20.790049
2421.622222	-2.987400	3.118500	-9.315600	28.511778	4.372822E-6	20.802253
2422.619577	-2.980800	3.116900	-9.289800	28.550062	2.491683E-6	20.778695
2423.621149	-2.993000	3.116600	-9.327000	28.484071	1.930642E-6	20.761549
2424.620124	-2.999400	3.114700	-9.341100	28.485533	3.151732E-6	20.788626
2425.623605	-2.989000	3.115200	-9.310900	28.469996	1.105581E-6	20.781515
2426.620013	-2.997900	3.113600	-9.333100	28.436168	9.405693E-7	20.795813
2427.621003	-2.980600	3.114100	-9.280400	28.468980	2.359674E-6	20.772430
2428.620739	-2.993200	3.112000	-9.314000	28.413071	2.161659E-6	20.769235
2429.621786	-2.998500	3.110400	-9.325400	28.415030	3.514759E-6	20.784010
2430.623373	-3.005200	3.109700	-9.344200	28.378821	2.953717E-6	20.777895
2431.621910	-3.007000	3.109100	-9.348000	28.372699	2.062652E-6	20.762722
2432.622816	-2.997300	3.108300	-9.315700	28.430716	1.699625E-6	20.796962
2433.622961	-3.035000	3.104900	-9.422500	28.524612	2.458681E-6	20.753064
2434.626630	-2.988400	3.106400	-9.282200	28.565400	2.854710E-6	20.766166
2435.622431	-2.985700	3.105700	-9.271200	28.573578	6.435474E-7	20.785782
2436.626606	-2.969800	3.104900	-9.220100	28.546444	-8.250608E-8	20.772680
2437.623960	-2.996700	3.103600	-9.298400	28.528256	1.765630E-6	20.764794
2438.625834	-2.991700	3.102300	-9.280000	28.441695	-2.475182E-7	20.777671
2439.621533	-2.995700	3.100800	-9.287900	28.391857	-3.465255E-7	20.771108
2440.621943	-2.982100	3.100600	-9.244700	28.364173	1.897640E-6	20.751292
2441.624593	-3.009200	3.098400	-9.322900	28.312870	4.950364E-8	20.784035
2442.625095	-2.983100	3.098600	-9.242700	28.419119	-3.465255E-7	20.770110
2443.625271	-2.994500	3.098500	-9.277000	28.519384	4.125304E-7	20.762972
2444.626207	-3.004300	3.096900	-9.303500	28.567606	7.425547E-7	20.760801
2445.625815	-3.002300	3.096400	-9.295900	28.600934	1.831635E-6	20.768288
2446.621699	-2.996600	3.094600	-9.271600	28.568176	-1.155085E-7	20.765643
2447.634728	-2.993600	3.094100	-9.261700	28.536806	-1.171586E-6	20.753964
2448.624382	-2.991800	3.092700	-9.252600	28.547212	9.735717E-7	20.741684
2449.625346	-2.993500	3.092000	-9.255000	28.539780	-9.075668E-7	20.770710
2450.626124	-2.982800	3.090600	-9.218100	28.597565	-1.815134E-7	20.761102
2451.632347	-2.997100	3.088300	-9.254600	28.636466	1.006574E-6	20.751443
2452.628407	-2.971800	3.090000	-9.180900	28.589758	-2.145158E-7	20.768412
2453.626009	-2.990900	3.087800	-9.233800	28.558165	-2.326671E-6	20.761725
2454.627729	-2.988700	3.086500	-9.223700	28.615479	1.534613E-6	20.766342
2455.625720	-3.008500	3.085500	-9.281200	28.646922	-5.775425E-7	20.750121
2456.633258	-3.011500	3.083600	-9.284700	28.632699	-5.115377E-7	20.765194
2457.629638	-3.005800	3.082900	-9.265000	28.595334	-2.425679E-6	20.749845
2458.630619	-3.016600	3.081400	-9.294400	28.546445	-3.877786E-6	20.761775
2459.631228	-3.000600	3.081100	-9.244800	28.501618	-2.062652E-6	20.765469
2460.631605	-3.034300	3.079500	-9.343100	28.486625	-3.217737E-6	20.759853
2461.632341	-3.002100	3.077500	-9.237900	28.452451	-2.986720E-6	20.754837
2462.632288	-3.013100	3.076600	-9.269700	28.430890	-2.788705E-6	20.774851
2463.632361	-3.009300	3.076000	-9.256200	28.488310	-3.613766E-6	20.745903
2464.630546	-2.991000	3.075500	-9.197600	28.574495	-9.075668E-7	20.773904
2465.632870	-3.014700	3.074300	-9.267300	28.527909	-1.105581E-6	20.748323
2466.631345	-3.004000	3.072700	-9.229200	28.584382	-2.029649E-6	20.762524
2467.637727	-3.001800	3.071000	-9.217000	28.531181	-2.986720E-6	20.738815
2468.637311	-3.007200	3.071100	-9.234300	28.497801	-3.679771E-6	20.746925
2469.636871	-2.982100	3.069700	-9.152300	28.548477	-2.623693E-6	20.758131
2470.642195	-2.976800	3.068500	-9.132800	28.582077	-3.844783E-6	20.746451
2471.635566	-3.002900	3.067000	-9.209400	28.644393	-9.405693E-7	20.741884
2472.639431	-2.979000	3.066900	-9.135100	28.703758	-8.745644E-7	20.746201
2473.637925	-3.016900	3.064700	-9.245200	28.765721	-2.722700E-6	20.755035
2474.637738	-2.982200	3.064200	-9.137400	28.748032	-2.491683E-6	20.725836
2475.638103	-2.993700	3.063500	-9.170500	28.752517	-2.788705E-6	20.765443
2476.637261	-3.009900	3.060200	-9.209400	28.764038	-5.032871E-6	20.746227
2477.638131	-3.018700	3.059300	-9.233500	28.760073	-3.646769E-6	20.746975
2478.641064	-2.986700	3.058000	-9.132100	28.725140	-1.897640E-6	20.744504
2479.644772	-3.014900	3.058300	-9.220000	28.718724	-3.382749E-6	20.755111
2480.640224	-2.998600	3.057300	-9.167000	28.771791	-3.976793E-6	20.754985
2481.649209	-3.001000	3.056100	-9.170900	28.809176	-1.897640E-6	20.757083
2482.640514	-2.984100	3.054400	-9.113800	28.819109	-5.230885E-6	20.747174
2483.640594	-3.026000	3.052000	-9.234800	28.750756	-5.164880E-6	20.741858
2484.640291	-2.989300	3.052000	-9.121900	28.775334	-4.702846E-6	20.725836
2485.639647	-2.991400	3.052000	-9.129000	28.670260	-2.689698E-6	20.758454
2486.641364	-3.013900	3.048800	-9.188000	28.651875	-3.844783E-6	20.737565
2487.642918	-3.018800	3.047100	-9.197500	28.527808	-4.273815E-6	20.743479
2488.644959	-2.973500	3.047400	-9.060200	28.579102	-4.174807E-6	20.744403
2489.641382	-3.011500	3.045200	-9.169500	28.546864	-2.227664E-6	20.734695
2490.642631	-2.994700	3.044000	-9.115200	28.581258	-3.481756E-6	20.728081
2491.640904	-3.005900	3.042600	-9.144900	28.546765	-2.227664E-6	20.733646
2492.641345	-2.995900	3.041500	-9.111400	28.643352	-5.626914E-6	20.748422
2493.639672	-3.019500	3.041300	-9.182300	28.660869	-5.461902E-6	20.740460
2494.644443	-2.982200	3.039800	-9.064100	28.621547	-4.306817E-6	20.726459
2495.652334	-2.988700	3.037900	-9.078300	28.599816	-3.646769E-6	20.740135
2496.647923	-2.997100	3.037000	-9.101200	28.686538	-4.207810E-6	20.741658
2497.645056	-2.999600	3.036600	-9.107600	28.702122	-4.834856E-6	20.761149
2498.644229	-3.022400	3.033300	-9.166800	28.744390	-4.669844E-6	20.742083
2499.647074	-3.011200	3.033500	-9.133500	28.779643	-3.052725E-6	20.736341
2500.646767	-2.993800	3.032300	-9.076500	28.838554	-3.745776E-6	20.741158
2501.644801	-2.991700	3.031200	-9.067600	28.864739	-4.537834E-6	20.745251
2502.645157	-2.999300	3.028900	-9.084000	28.916537	-3.646769E-6	20.744328
2503.649447	-3.008300	3.028400	-9.109900	28.808034	-6.484978E-6	20.736017
2504.652648	-2.990400	3.027200	-9.051600	28.773152	-3.448754E-6	20.735967
2505.651161	-3.003200	3.024500	-9.081900	28.738665	-4.108803E-6	20.749119
2506.649410	-2.984900	3.024200	-9.026000	28.704575	-3.250739E-6	20.755084
2507.646456	-3.001200	3.023300	-9.072800	28.671671	-4.801854E-6	20.749443
2508.653477	-3.009700	3.020900	-9.091200	28.693128	-4.438827E-6	20.743554
2509.650457	-3.012400	3.019800	-9.095900	28.703831	-4.537834E-6	20.725410
2510.650234	-2.995600	3.018100	-9.040000	28.793492	-4.570837E-6	20.756457
2511.648728	-3.005800	3.016700	-9.066900	28.886465	-4.174807E-6	20.736317
2512.653535	-2.974200	3.016700	-8.970800	28.924761	-4.339820E-6	20.747872
2513.647272	-2.993300	3.015000	-9.023900	28.920500	-5.791927E-6	20.742157
2514.651368	-2.989100	3.013500	-9.007300	28.938211	-6.022944E-6	20.754784
2515.652647	-3.003900	3.012300	-9.048000	28.896026	-7.145026E-6	20.750218
2516.649964	-3.017700	3.010600	-9.084100	28.860726	-3.448754E-6	20.725086
2517.652373	-3.040500	3.008500	-9.146500	28.923201	-4.702846E-6	20.754361
2518.653376	-2.985900	3.008500	-8.982200	28.966128	-5.560910E-6	20.756832
2519.653731	-3.000800	3.007800	-9.025000	28.877324	-4.339820E-6	20.749394
2520.648638	-3.012500	3.004300	-9.049600	28.842246	-3.976793E-6	20.762896
2521.654335	-3.012100	3.003400	-9.045500	28.727939	-6.583985E-6	20.740211
2522.653016	-2.955800	3.003100	-8.875700	28.735694	-5.560910E-6	20.744704
2523.652711	-3.001400	3.002000	-9.009300	28.768892	-5.989941E-6	20.755859
2524.654133	-2.996200	3.000100	-8.987600	28.827978	-7.442048E-6	20.754212
2525.652310	-3.027100	2.997500	-9.073400	28.872222	-3.547761E-6	20.749944
2526.653578	-3.034000	2.995500	-9.087900	28.885847	-5.824929E-6	20.766516
2527.655096	-3.018000	2.995700	-9.040000	28.832883	-6.286963E-6	20.748248
2528.657953	-2.989800	2.994900	-8.952800	28.848020	-4.867859E-6	20.771557
2529.651821	-3.003600	2.993600	-8.989800	28.860358	-4.702846E-6	20.755537
2530.654564	-3.003200	2.991400	-8.982500	28.894023	-4.108803E-6	20.757209
2531.652293	-3.004400	2.989400	-8.980200	28.852729	-5.824929E-6	20.744532
2532.656213	-3.010800	2.988000	-8.994600	28.823348	-4.702846E-6	20.754763
2533.657536	-2.997400	2.986300	-8.951000	28.863108	-3.217737E-6	20.750721
2534.655427	-3.028700	2.984400	-9.036600	28.867172	-8.861153E-6	20.754340
2535.655683	-2.996600	2.984700	-8.942300	28.965786	-5.329893E-6	20.760754
2536.658073	-2.974700	2.983400	-8.874700	29.041480	-6.451975E-6	20.739817
2537.657297	-2.996800	2.981600	-8.934900	29.026594	-4.372822E-6	20.746629
2538.651306	-2.978200	2.979600	-8.872700	29.013392	-6.484978E-6	20.750872
2539.659399	-3.009800	2.977600	-8.960900	29.039969	-5.626914E-6	20.759158
2540.655179	-2.991800	2.977200	-8.906200	29.063127	-5.428900E-6	20.750723
2541.660578	-3.008200	2.974400	-8.947000	29.096093	-2.161659E-6	20.753593
2542.659657	-3.031600	2.973700	-9.014300	29.113108	-4.075800E-6	20.744184
2543.657387	-3.008300	2.972200	-8.940400	29.134877	-4.867859E-6	20.766596
2544.658384	-3.025900	2.971000	-8.989200	29.091388	-4.537834E-6	20.753594
2545.657061	-2.981400	2.971500	-8.857400	29.040095	-6.451975E-6	20.754069
2546.659911	-3.001500	2.968800	-8.909900	29.034003	-5.659917E-6	20.741766
2547.660118	-2.992200	2.967900	-8.879600	29.106175	-8.333114E-6	20.766598
2548.660830	-3.029000	2.965200	-8.981000	29.032690	-6.947012E-6	20.766997
2549.656181	-3.016800	2.962400	-8.936400	28.986050	-6.187956E-6	20.752722
2550.658969	-3.022200	2.962100	-8.951100	28.992144	-5.230885E-6	20.752698
2551.658891	-2.993700	2.960200	-8.860900	29.044133	-3.877786E-6	20.761457
2552.659682	-2.972500	2.959500	-8.796200	29.002028	-6.220958E-6	20.765501
2553.658890	-3.034600	2.956900	-8.971700	28.992145	-5.098876E-6	20.765501
2554.665652	-2.991800	2.956500	-8.844000	28.990858	-6.022944E-6	20.790757
2555.660049	-2.972000	2.956000	-8.783300	28.986821	-5.065873E-6	20.771042
2556.657999	-2.986200	2.952900	-8.817400	28.999305	-7.211031E-6	20.779353
2557.662867	-2.977200	2.951900	-8.787200	28.929280	-7.244034E-6	20.778030
2558.657442	-2.967100	2.950500	-8.752500	28.862472	-6.187956E-6	20.765253
2559.661371	-3.043000	2.947300	-8.967300	28.914097	-5.263888E-6	20.783122
2560.661468	-3.014500	2.946400	-8.880400	28.967750	-9.026165E-6	20.775536
2561.661410	-2.996900	2.945800	-8.827400	29.074132	-7.640063E-6	20.784097
2562.661664	-2.989100	2.945000	-8.801800	29.020187	-6.220958E-6	20.767201
2563.661268	-3.005200	2.942100	-8.840700	28.989796	-4.669844E-6	20.755073
2564.661309	-3.007800	2.940200	-8.841500	29.074479	-6.583985E-6	20.770222
2565.662050	-3.002700	2.939700	-8.825600	29.041414	-4.570837E-6	20.779106
2566.663917	-3.006300	2.937000	-8.828300	29.028559	-8.267109E-6	20.773740
2567.658350	-3.019200	2.935200	-8.861200	29.008523	-6.682992E-6	20.796227
2568.665096	-2.975100	2.935500	-8.732000	29.050306	-7.838077E-6	20.786169
2569.662976	-2.997800	2.933500	-8.793400	29.072746	-6.550982E-6	20.784123
2570.662847	-2.986000	2.931200	-8.751200	29.141522	-7.871080E-6	20.779455
2571.666154	-2.985400	2.929400	-8.744900	29.102664	-6.121951E-6	20.794354
2572.668978	-2.998300	2.926700	-8.774500	29.057861	-7.772072E-6	20.799945
2573.668488	-2.993000	2.925500	-8.754900	28.975703	-5.098876E-6	20.777385
2574.662358	-2.987500	2.924300	-8.735400	28.965449	-6.055946E-6	20.796452
2575.667506	-2.981500	2.923100	-8.713400	29.002182	-6.947012E-6	20.781303
2576.667109	-2.987600	2.922000	-8.729100	29.049119	-6.715995E-6	20.788765
2577.665852	-3.000500	2.918000	-8.753800	29.077181	-5.164880E-6	20.778160
2578.665577	-2.987600	2.916400	-8.712300	29.055583	-5.197883E-6	20.799072
2579.668993	-3.009900	2.915500	-8.774600	29.064870	-6.022944E-6	20.802266
2580.669095	-3.031200	2.912800	-8.828200	29.134688	-6.286963E-6	20.779681
2581.668530	-2.983900	2.912900	-8.691200	29.090134	-8.729143E-6	20.783151
2582.666887	-2.985000	2.910600	-8.686200	29.121140	-7.772072E-6	20.790212
2583.671098	-2.984100	2.908700	-8.678200	29.184367	-8.003089E-6	20.806982
2584.670901	-3.005300	2.907100	-8.735900	29.239170	-4.405824E-6	20.796302
2585.673024	-3.012300	2.905100	-8.749900	29.192070	-8.894155E-6	20.784873
2586.671557	-3.010200	2.903300	-8.738000	29.216141	-9.719216E-6	20.788267
2587.676129	-3.003100	2.900800	-8.709700	29.245114	-8.201104E-6	20.797076
2588.671051	-3.007300	2.898300	-8.715300	29.279434	-6.352968E-6	20.801318
2589.671085	-2.987400	2.897600	-8.654900	29.317717	-7.409046E-6	20.788690
2590.667625	-3.023200	2.894000	-8.748000	29.365035	-8.069094E-6	20.765731
2591.671780	-3.026200	2.894000	-8.757200	29.369492	-7.937085E-6	20.799621
2592.669536	-2.990300	2.892000	-8.646900	29.319451	-6.286963E-6	20.799447
2593.683391	-2.990400	2.890900	-8.644300	29.367314	-6.881007E-6	20.806434
2594.671895	-3.026600	2.887600	-8.738500	29.425474	-4.207810E-6	20.794405
2595.673007	-3.012300	2.886400	-8.693200	29.417997	-6.022944E-6	20.804887
2596.671562	-3.010700	2.884100	-8.682300	29.316183	-8.135099E-6	20.810377
2597.668296	-2.990700	2.884000	-8.624600	29.307764	-5.956939E-6	20.805686
2598.670763	-2.980000	2.881900	-8.587500	29.391603	-6.187956E-6	20.802466
2599.667313	-3.005700	2.879400	-8.653700	29.363254	-4.768851E-6	20.806135
2600.669433	-2.991700	2.877800	-8.608600	29.354315	-7.508053E-6	20.790488
2601.669590	-2.995100	2.875900	-8.612900	29.332623	-5.857931E-6	20.815567
2602.679856	-3.028600	2.872600	-8.698900	29.387023	-7.145026E-6	20.799272
2603.670580	-3.027800	2.870300	-8.689900	29.390588	-7.046019E-6	20.827046
2604.673090	-3.020000	2.869100	-8.663800	29.353398	-9.125172E-6	20.817064
2605.672949	-3.008700	2.868500	-8.629400	29.385463	-8.564131E-6	20.809079
2606.672955	-3.000000	2.865000	-8.594700	29.386652	-7.475051E-6	20.800794
2607.673436	-2.997600	2.864500	-8.585300	29.357335	-8.795148E-6	20.811550
2608.677992	-3.005300	2.861300	-8.598400	29.356295	-7.442048E-6	20.819984
2609.676284	-2.986100	2.859000	-8.535600	29.255366	-8.828150E-6	20.822106
2610.670862	-3.024100	2.859000	-8.644800	29.196849	-1.008224E-5	20.817190
2611.674184	-3.005900	2.856000	-8.584100	29.183946	-8.003089E-6	20.817464
2612.679101	-2.997900	2.854600	-8.557000	29.255613	-7.112024E-6	20.822829
2613.673306	-2.983300	2.853400	-8.511300	29.337228	-6.715995E-6	20.830165
2614.677732	-2.992400	2.849600	-8.525900	29.322520	-7.970087E-6	20.823876
2615.676683	-3.012400	2.848700	-8.580200	29.229858	-8.003089E-6	20.812048
2616.677499	-2.960500	2.847600	-8.428700	29.235306	-6.550982E-6	20.801891
2617.677671	-3.005400	2.843700	-8.545900	29.264873	-8.234107E-6	20.825523
2618.678875	-3.016300	2.840300	-8.566100	29.219655	-7.508053E-6	20.814093
2619.673451	-2.998300	2.839500	-8.512300	29.311771	-1.051127E-5	20.846708
2620.682939	-3.007400	2.836700	-8.529900	29.335470	-6.121951E-6	20.821281
2621.675789	-3.015700	2.834600	-8.547700	29.311202	-7.343041E-6	20.821953
2622.675714	-2.996900	2.833900	-8.492200	29.320661	-8.003089E-6	20.808727
2623.675489	-2.992200	2.831000	-8.470500	29.290674	-7.739070E-6	20.820705
2624.679194	-3.022600	2.826700	-8.543000	29.264575	-6.980014E-6	20.795352
2625.675583	-2.995900	2.826100	-8.465700	29.224879	-7.178029E-6	20.818884
2626.679242	-2.995600	2.823300	-8.456800	29.268512	-8.135099E-6	20.829190
2627.675790	-2.979900	2.820800	-8.404900	29.243947	-7.244034E-6	20.826719
2628.679151	-2.999300	2.818600	-8.452600	29.193057	-7.013017E-6	20.801514
2629.680467	-2.980000	2.817800	-8.396400	29.176588	-8.201104E-6	20.835653
2630.676443	-2.994400	2.813700	-8.424900	29.157963	-9.389192E-6	20.829213
2631.678799	-3.022100	2.812200	-8.497800	29.151153	-7.013017E-6	20.821877
2632.680151	-3.004000	2.808000	-8.433200	29.231910	-6.154953E-6	20.839719
2633.687671	-3.013700	2.805100	-8.453300	29.244564	-8.960160E-6	20.835402
2634.677699	-2.988600	2.803700	-8.378100	29.244342	-6.451975E-6	20.836600
2635.676115	-3.015600	2.801200	-8.446100	29.281064	-9.422194E-6	20.831409
2636.680521	-3.005800	2.799600	-8.414000	29.347054	-8.333114E-6	20.830585
2637.681499	-2.966000	2.796300	-8.292700	29.352427	-6.550982E-6	20.828414
2638.680739	-2.990800	2.794000	-8.355400	29.430024	-6.748997E-6	20.827440
2639.679586	-3.037200	2.790000	-8.472500	29.407913	-7.937085E-6	20.828862
2640.682456	-3.000500	2.787000	-8.360900	29.435099	-6.121951E-6	20.837770
2641.677936	-2.999400	2.784700	-8.351100	29.439332	-8.333114E-6	20.819753
2642.683574	-3.012800	2.782800	-8.382400	29.484244	-6.583985E-6	20.828038
2643.682276	-3.019100	2.779200	-8.389500	29.538313	-7.013017E-6	20.843185
2644.683441	-3.019600	2.776300	-8.381800	29.542223	-7.607060E-6	20.832903
2645.680640	-3.025200	2.772200	-8.385200	29.543585	-8.300111E-6	20.838542
2646.680947	-3.028000	2.769500	-8.385100	29.585273	-7.343041E-6	20.848798
2647.684592	-3.006000	2.767900	-8.319800	29.587105	-6.616987E-6	20.824093
2648.687154	-3.023500	2.765500	-8.360800	29.618816	-9.059167E-6	20.833775
2649.684879	-2.990600	2.762000	-8.259300	29.603096	-7.376043E-6	20.837368
2650.681181	-2.979500	2.759700	-8.221600	29.595570	-6.154953E-6	20.827411
2651.683562	-2.990900	2.756100	-8.242400	29.603838	-7.046019E-6	20.853289
2652.683832	-2.993200	2.752100	-8.236200	29.636712	-7.211031E-6	20.831902
2653.683218	-3.001500	2.749300	-8.251400	29.661911	-6.550982E-6	20.835021
2654.684779	-2.989000	2.746400	-8.207500	29.608442	-7.475051E-6	20.847973
2655.684988	-3.009900	2.743800	-8.257300	29.655920	-6.088948E-6	20.834197
2656.685687	-2.986900	2.739800	-8.182700	29.686366	-5.956939E-6	20.862520
2657.688100	-3.009600	2.735600	-8.232700	29.710153	-7.277036E-6	20.853786
2658.686023	-2.989600	2.734300	-8.173700	29.690698	-5.560910E-6	20.831327
2659.687653	-3.014100	2.729200	-8.224700	29.573832	-8.729143E-6	20.851015
2660.687053	-3.001300	2.726400	-8.182100	29.633270	-6.451975E-6	20.864941
2661.682867	-3.025700	2.722300	-8.236300	29.701242	-5.890934E-6	20.854759
2662.687624	-3.014800	2.718000	-8.192700	29.776017	-6.484978E-6	20.860448
2663.685584	-2.981600	2.714200	-8.090800	29.832793	-7.772072E-6	20.853685
2664.686544	-2.966600	2.711500	-8.043100	29.896051	-7.442048E-6	20.844451
2665.684090	-2.991500	2.707300	-8.098600	29.912533	-5.857931E-6	20.843528
2666.686134	-3.010700	2.704200	-8.141300	29.910503	-8.267109E-6	20.860921
2667.686312	-3.010800	2.697900	-8.121800	29.839647	-7.673065E-6	20.832147
2668.687487	-3.004900	2.695600	-8.099300	29.744779	-7.409046E-6	20.856928
2669.687128	-3.012700	2.691500	-8.107900	29.631733	-7.343041E-6	20.870503
2670.690837	-3.021100	2.686700	-8.116000	29.652748	-7.904082E-6	20.857077
2671.688240	-3.005200	2.683300	-8.062400	29.695349	-6.451975E-6	20.855455
2672.684527	-2.984300	2.679800	-7.996800	29.769455	-6.253961E-6	20.862367
2673.690317	-2.979600	2.674300	-7.967500	29.839646	-6.550982E-6	20.846371
2674.684634	-2.988100	2.669900	-7.975600	29.810565	-7.640063E-6	20.848816
2675.686804	-2.984000	2.666700	-7.956000	29.816332	-7.409046E-6	20.867432
2676.687108	-3.035000	2.661600	-8.077100	29.825786	-6.782000E-6	20.867007
2677.684498	-2.975800	2.657100	-7.906000	29.782795	-7.079021E-6	20.865859
2678.686765	-3.025300	2.651300	-8.020200	29.764578	-7.772072E-6	20.871673
2679.690423	-3.007300	2.646700	-7.958500	29.784255	-6.748997E-6	20.865909
2680.688531	-2.986700	2.644400	-7.896100	29.791656	-4.933863E-6	20.865785
2681.684783	-3.000200	2.638800	-7.915600	29.789104	-6.220958E-6	20.857049
2682.690144	-3.019700	2.633600	-7.951200	29.751805	-7.376043E-6	20.844572
2683.686027	-2.991200	2.629900	-7.865300	29.731978	-6.352968E-6	20.870573
2684.692515	-3.003800	2.624400	-7.882000	29.824325	-7.871080E-6	20.885921
2685.688739	-2.976300	2.618700	-7.792700	29.873130	-5.428900E-6	20.865908
2686.688680	-2.999100	2.612100	-7.833000	29.882980	-5.065873E-6	20.854030
2687.686410	-2.982700	2.607900	-7.778100	29.940047	-4.339820E-6	20.867953
2688.692350	-3.040700	2.601100	-7.907200	29.946233	-5.857931E-6	20.860441
2689.693827	-3.000500	2.597300	-7.792600	29.992337	-3.910788E-6	20.878958
2690.690051	-3.009900	2.591100	-7.797700	30.001319	-6.947012E-6	20.878534
2691.695715	-2.997500	2.585800	-7.749700	29.975064	-5.989941E-6	20.885721
2692.687642	-3.003800	2.580200	-7.749500	29.950292	-6.022944E-6	20.873069
2693.691751	-2.983300	2.574900	-7.680800	29.874441	-5.626914E-6	20.870549
2694.694273	-3.002900	2.568000	-7.710300	29.827862	-5.494905E-6	20.876213
2695.692395	-2.993500	2.563000	-7.671600	29.803534	-6.980014E-6	20.883449
2696.688809	-3.005200	2.554900	-7.677500	29.825115	-6.418973E-6	20.869650
2697.692020	-3.005200	2.549800	-7.661700	29.911315	-5.791927E-6	20.893980
2698.692740	-3.025300	2.543700	-7.694500	29.947422	-6.220958E-6	20.878234
2699.691548	-2.988000	2.539200	-7.585800	29.966229	-5.725922E-6	20.873019
2700.693730	-3.000600	2.531400	-7.595000	29.965214	-6.451975E-6	20.876263
2701.692523	-2.988500	2.526200	-7.548700	29.939898	-5.131878E-6	20.867329
2702.695262	-2.971600	2.520200	-7.487800	29.946556	-7.211031E-6	20.888266
2703.692287	-3.004200	2.512500	-7.545800	29.977982	-4.537834E-6	20.883448
2704.693813	-2.996800	2.506300	-7.510200	29.962492	-6.022944E-6	20.884423
2705.691955	-2.988900	2.499300	-7.469500	30.046726	-6.418973E-6	20.890661
