LabVIEW Measurement	
Writer_Version	2
Reader_Version	2
Separator	Tab
Decimal_Separator	.
Multi_Headings	No
X_Columns	One
Time_Pref	Absolute
Operator	admin
Description	Clolumns are: time, Current, Voltage, Power, Battery Temp, and Chamber Temp
Date	2024/08/16
Time	13:07:17.8513970375061035156
***End_of_Header***	
	
Channels	6						
Samples	1	1	1	1	1	1	
Date	2024/08/24	2024/08/24	2024/08/24	2024/08/24	2024/08/24	2024/08/24	
Time	13:25:44.473537445068359375	13:25:44.4804258346557617188	13:25:44.4854264259338378906	13:25:44.4569406509399414063	13:25:44.4569406509399414063	13:25:44.4569406509399414063	
X_Dimension	Time	Time	Time	Time	Time	Time	
X0	0.0000000000000000E+0	0.0000000000000000E+0	0.0000000000000000E+0	0.0000000000000000E+0	0.0000000000000000E+0	0.0000000000000000E+0	
Delta_X	1.000000	1.000000	1.000000	1.000000	1.000000	1.000000	
***End_of_Header***							
X_Value	Untitled	Untitled 1	Untitled 2	Untitled 3	Untitled 4	Untitled 5	Comment
0.000000	0.004086	4.087900	0.016772	20.804947	0.000454	20.822491
1.000211	-2.991600	3.932000	-11.762000	20.785459	0.000451	20.822917
1.998734	-2.997000	3.924700	-11.761000	20.783636	0.000451	20.818249
3.002591	-3.006500	3.923100	-11.794000	20.797885	0.000450	20.824438
4.001621	-3.022300	3.918700	-11.842000	20.798209	0.000449	20.822865
5.001791	-3.025800	3.914500	-11.843000	20.812757	0.000450	20.811809
6.005351	-3.004800	3.913600	-11.758000	20.798109	0.000449	20.830825
7.003509	-2.992100	3.911900	-11.703000	20.817697	0.000447	20.820542
8.004251	-2.989600	3.910600	-11.690000	20.805846	0.000449	20.814854
9.005895	-2.998700	3.908500	-11.719000	20.822965	0.000448	20.818224
10.004442	-3.000600	3.906500	-11.721000	20.827754	0.000447	20.836289
11.005279	-2.984000	3.904300	-11.649000	20.813457	0.000445	20.841431
12.005477	-2.995200	3.903800	-11.692000	20.851511	0.000444	20.845348
13.007619	-2.984200	3.902900	-11.646000	20.861194	0.000445	20.849341
14.004998	-2.975800	3.901800	-11.610000	20.853684	0.000447	20.832822
15.005991	-2.999700	3.900200	-11.698000	20.864041	0.000442	20.840335
16.007013	-3.003200	3.899000	-11.708000	20.862893	0.000444	20.833971
17.005849	-3.001500	3.898900	-11.701000	20.860223	0.000443	20.823715
18.005818	-3.002700	3.897000	-11.701000	20.902320	0.000441	20.812709
19.006766	-3.016000	3.895800	-11.748000	20.883929	0.000439	20.828456
20.007756	-3.013400	3.894000	-11.734000	20.905839	0.000439	20.832824
21.007252	-2.999200	3.894300	-11.679000	20.905465	0.000442	20.820122
22.005667	-3.009000	3.894300	-11.716000	20.900799	0.000441	20.808818
23.008785	-2.982600	3.894000	-11.613000	20.936831	0.000438	20.830155
24.009017	-3.003000	3.893600	-11.691000	20.941921	0.000441	20.822443
25.011140	-3.020200	3.892100	-11.754000	20.918170	0.000439	20.843733
26.010927	-3.006100	3.891600	-11.698000	20.955175	0.000439	20.836172
27.013687	-3.009200	3.891300	-11.708000	20.944569	0.000439	20.821773
28.015522	-3.001200	3.889500	-11.672000	20.958792	0.000437	20.834574
29.012477	-2.995700	3.889200	-11.650000	20.967401	0.000438	20.830382
30.019711	-2.991300	3.890600	-11.637000	20.986938	0.000438	20.829534
31.014960	-2.998300	3.888000	-11.656000	20.987139	0.000435	20.821200
32.015121	-2.962600	3.888800	-11.520000	20.990430	0.000437	20.833501
33.016462	-2.996800	3.887800	-11.649000	20.995421	0.000436	20.849872
34.017301	-2.987200	3.887700	-11.612000	21.008871	0.000435	20.856211
35.015982	-3.000000	3.886700	-11.659000	20.999611	0.000435	20.850743
36.020528	-2.994700	3.886300	-11.637000	21.031772	0.000434	20.840711
37.020339	-2.986300	3.885500	-11.603000	21.035790	0.000433	20.829557
38.017435	-3.021300	3.885000	-11.737000	21.045793	0.000434	20.855683
39.024739	-3.001800	3.886900	-11.667000	21.070118	0.000434	20.842081
40.020954	-3.012000	3.884000	-11.698000	21.058590	0.000434	20.854732
41.018211	-3.008500	3.883700	-11.684000	21.073361	0.000432	20.849118
42.021690	-3.015100	3.884600	-11.711000	21.057291	0.000434	20.839683
43.022659	-3.023100	3.882500	-11.736000	21.064600	0.000436	20.836088
44.017992	-3.019300	3.884100	-11.726000	21.099378	0.000432	20.848115
45.023509	-3.004000	3.884100	-11.667000	21.099825	0.000432	20.851881
46.022142	-3.008200	3.883300	-11.681000	21.093711	0.000432	20.840550
47.016623	-3.003900	3.883100	-11.663000	21.100046	0.000433	20.828870
48.022555	-3.020600	3.882600	-11.727000	21.108080	0.000432	20.834060
49.023436	-3.004300	3.883100	-11.664000	21.099821	0.000430	20.869419
50.018062	-3.002200	3.881400	-11.651000	21.127036	0.000432	20.844487
51.025158	-3.006000	3.880700	-11.664000	21.144324	0.000431	20.831434
52.022187	-2.992300	3.881300	-11.613000	21.148139	0.000431	20.854216
53.020929	-3.011400	3.881300	-11.686000	21.132246	0.000431	20.849698
54.026124	-3.005300	3.880600	-11.661000	21.159536	0.000431	20.862297
55.023607	-2.991100	3.882100	-11.611000	21.175575	0.000434	20.829504
56.023380	-3.013500	3.879100	-11.689000	21.165418	0.000432	20.843052
57.023513	-2.991900	3.880600	-11.610000	21.175247	0.000432	20.845771
58.023997	-2.983900	3.879500	-11.576000	21.193280	0.000428	20.834413
59.022852	-2.982300	3.879200	-11.569000	21.200738	0.000431	20.853253
60.026602	-3.022200	3.877700	-11.718000	21.231119	0.000431	20.848557
61.025771	-2.990300	3.879500	-11.599000	21.220366	0.000431	20.858662
62.023542	-3.012900	3.877900	-11.684000	21.240022	0.000431	20.854145
63.026327	-2.977600	3.878600	-11.548000	21.230988	0.000432	20.834202
64.023839	-2.992100	3.878900	-11.605000	21.231936	0.000432	20.845581
65.022113	-2.999800	3.877200	-11.630000	21.260422	0.000433	20.857008
66.025905	-3.012700	3.877600	-11.681000	21.255029	0.000432	20.845450
67.027408	-2.996400	3.878700	-11.622000	21.255179	0.000434	20.840384
68.025506	-3.007300	3.878300	-11.662000	21.258497	0.000434	20.863143
69.029574	-3.021800	3.878200	-11.718000	21.274610	0.000434	20.847969
70.029025	-2.973800	3.878800	-11.533000	21.293616	0.000433	20.850387
71.026495	-3.018900	3.877500	-11.705000	21.287555	0.000432	20.867556
72.030704	-2.998600	3.877100	-11.625000	21.310327	0.000435	20.852881
73.028514	-3.027600	3.875400	-11.732000	21.315092	0.000433	20.868078
74.028258	-3.016100	3.876900	-11.692000	21.317184	0.000434	20.843620
75.027514	-3.002000	3.876500	-11.637000	21.330928	0.000434	20.848835
76.029319	-2.986600	3.877300	-11.579000	21.324917	0.000435	20.844244
77.029638	-2.964200	3.877000	-11.491000	21.334396	0.000434	20.854201
78.030478	-2.963500	3.876400	-11.486000	21.339361	0.000435	20.853004
79.030530	-2.984700	3.877200	-11.570000	21.371608	0.000436	20.847810
80.029272	-2.981700	3.875700	-11.556000	21.364976	0.000436	20.863932
81.030508	-3.009700	3.876400	-11.666000	21.379143	0.000435	20.858193
82.033703	-2.997300	3.875500	-11.615000	21.386575	0.000435	20.868473
83.029923	-3.009000	3.876300	-11.663000	21.402862	0.000436	20.858690
84.033339	-2.999300	3.874200	-11.619000	21.400145	0.000436	20.891532
85.035566	-3.001800	3.874700	-11.630000	21.414638	0.000438	20.851981
86.031847	-2.999100	3.874500	-11.619000	21.419327	0.000436	20.863784
87.033598	-3.003300	3.875200	-11.636000	21.425563	0.000437	20.860540
88.035032	-2.997400	3.873500	-11.609000	21.418154	0.000436	20.883472
89.033583	-2.991800	3.874100	-11.588000	21.436561	0.000439	20.864906
90.035045	-2.998300	3.873200	-11.612000	21.435740	0.000440	20.853180
91.036477	-3.016900	3.874100	-11.687000	21.463000	0.000436	20.868126
92.038885	-2.999300	3.873000	-11.615000	21.467467	0.000438	20.873070
93.045794	-3.006000	3.874000	-11.644000	21.461257	0.000438	20.867331
94.035558	-3.006700	3.874100	-11.647000	21.464647	0.000439	20.856973
95.034720	-3.010700	3.873500	-11.661000	21.492981	0.000439	20.859719
96.036921	-2.997300	3.873900	-11.610000	21.517873	0.000438	20.881780
97.037755	-3.005300	3.872100	-11.636000	21.515430	0.000439	20.864638
98.038032	-2.993300	3.872200	-11.590000	21.515854	0.000440	20.882605
99.039443	-3.001100	3.873000	-11.623000	21.533786	0.000438	20.858823
100.039209	-3.006000	3.871500	-11.637000	21.530270	0.000440	20.879961
101.038630	-2.983300	3.872900	-11.553000	21.540895	0.000441	20.889169
102.037130	-2.996400	3.871900	-11.601000	21.540597	0.000440	20.876069
103.044497	-3.002100	3.872000	-11.623000	21.558081	0.000441	20.880288
104.040834	-3.003700	3.871600	-11.628000	21.566562	0.000439	20.885456
105.040082	-3.020100	3.871200	-11.690000	21.576588	0.000440	20.894539
106.041708	-3.007800	3.871700	-11.645000	21.572772	0.000440	20.873653
107.042101	-2.991200	3.872500	-11.583000	21.576415	0.000441	20.869711
108.041031	-2.986900	3.871800	-11.564000	21.609534	0.000442	20.881516
109.045041	-2.994100	3.870600	-11.587000	21.600707	0.000440	20.886907
110.042652	-2.992900	3.871100	-11.585000	21.617715	0.000441	20.872159
111.042008	-2.978300	3.870500	-11.527000	21.612402	0.000442	20.890550
112.048028	-3.006100	3.870500	-11.635000	21.611632	0.000443	20.884564
113.042168	-2.997600	3.869800	-11.599000	21.637070	0.000442	20.895320
114.045177	-3.003900	3.870900	-11.627000	21.625350	0.000443	20.883593
115.047514	-3.003400	3.870800	-11.624000	21.645699	0.000444	20.880249
116.044160	-3.003800	3.870200	-11.625000	21.660988	0.000445	20.875635
117.044636	-3.015200	3.869100	-11.666000	21.660714	0.000444	20.865405
118.046759	-2.988500	3.870500	-11.566000	21.666798	0.000443	20.910370
119.045974	-2.993300	3.869100	-11.580000	21.691413	0.000443	20.892805
120.046052	-2.992600	3.869200	-11.578000	21.673832	0.000445	20.909349
121.048810	-3.000300	3.869700	-11.610000	21.699244	0.000445	20.906805
122.047263	-2.999800	3.869600	-11.607000	21.703933	0.000444	20.900120
123.046685	-3.012800	3.869000	-11.655000	21.728895	0.000446	20.892386
124.046250	-2.999100	3.869300	-11.604000	21.727497	0.000443	20.908054
125.046114	-2.999900	3.869400	-11.606000	21.729916	0.000445	20.889140
126.050560	-2.993100	3.870000	-11.582000	21.753206	0.000447	20.912447
127.049033	-3.000300	3.867100	-11.601000	21.777317	0.000446	20.930886
128.047904	-3.007200	3.868500	-11.632000	21.779212	0.000445	20.901492
129.049716	-3.010000	3.867200	-11.639000	21.780011	0.000444	20.924101
130.050063	-2.994400	3.868800	-11.584000	21.792028	0.000446	20.910051
131.051119	-3.001800	3.868000	-11.610000	21.796369	0.000446	20.909654
132.050373	-2.996600	3.867600	-11.588000	21.799460	0.000445	20.926496
133.050584	-3.001300	3.866400	-11.603000	21.779387	0.000449	20.923476
134.049045	-3.006000	3.867700	-11.626000	21.794998	0.000448	20.915394
135.050301	-3.009600	3.866000	-11.634000	21.816815	0.000447	20.887446
136.049245	-3.002900	3.866500	-11.609000	21.805493	0.000446	20.909303
137.049796	-3.018500	3.866500	-11.670000	21.838530	0.000447	20.917238
138.050147	-3.001000	3.865800	-11.601000	21.821778	0.000448	20.911851
139.051831	-2.965200	3.867800	-11.468000	21.815093	0.000447	20.924126
140.050763	-3.003500	3.866400	-11.611000	21.828110	0.000447	20.912025
141.050559	-3.004000	3.866000	-11.613000	21.863789	0.000451	20.912175
142.051685	-2.964000	3.867100	-11.461000	21.873165	0.000447	20.913499
143.052230	-2.982600	3.867000	-11.532000	21.869075	0.000450	20.916991
144.049864	-2.975700	3.867200	-11.506000	21.871867	0.000451	20.924527
145.052435	-3.002400	3.865700	-11.605000	21.894380	0.000450	20.931887
146.054761	-3.004500	3.866200	-11.614000	21.885334	0.000449	20.911455
147.055327	-3.003800	3.865800	-11.611000	21.916696	0.000451	20.933835
148.054447	-3.025000	3.863300	-11.686000	21.918392	0.000452	20.935533
149.053392	-2.999900	3.865000	-11.594000	21.913006	0.000450	20.928721
150.055671	-3.001800	3.864800	-11.600000	21.944172	0.000450	20.930519
151.056826	-2.992900	3.863900	-11.563000	21.938039	0.000451	20.927225
152.069932	-2.983600	3.865200	-11.531000	21.935597	0.000451	20.924308
153.069934	-3.008800	3.864900	-11.627000	21.930911	0.000453	20.913927
154.071746	-2.984100	3.863500	-11.528000	21.940409	0.000453	20.931020
155.069324	-2.992800	3.864100	-11.563000	21.956216	0.000454	20.926455
156.066298	-3.018900	3.862000	-11.658000	21.958685	0.000454	20.905694
157.084081	-2.986600	3.864300	-11.540000	21.993939	0.000453	20.927706
158.078850	-3.006200	3.861800	-11.608000	21.997427	0.000456	20.938309
159.074919	-3.009500	3.862900	-11.625000	21.996230	0.000454	20.920991
160.081106	-3.002700	3.862700	-11.598000	22.009494	0.000455	20.930001
161.085048	-3.008200	3.863000	-11.620000	22.024653	0.000456	20.937115
162.077389	-3.003400	3.862400	-11.600000	22.015679	0.000456	20.919124
163.074470	-3.014500	3.861600	-11.640000	22.026948	0.000455	20.930404
164.073095	-3.020600	3.861000	-11.662000	22.054294	0.000455	20.943554
165.076738	-3.013000	3.861500	-11.634000	22.042579	0.000457	20.942731
166.069596	-3.005300	3.861000	-11.602000	22.050432	0.000456	20.939214
167.069742	-2.971800	3.862100	-11.476000	22.075735	0.000457	20.937518
168.074695	-2.990000	3.862200	-11.547000	22.064769	0.000457	20.933178
169.067843	-2.997700	3.861900	-11.576000	22.069555	0.000457	20.935599
170.068490	-2.980700	3.861900	-11.510000	22.084588	0.000457	20.932631
171.069654	-3.006300	3.861000	-11.606000	22.102761	0.000458	20.942762
172.079316	-3.016500	3.860000	-11.643000	22.077536	0.000457	20.936950
173.068131	-3.003900	3.859700	-11.593000	22.100746	0.000457	20.944064
174.085670	-2.987700	3.860300	-11.532000	22.095062	0.000460	20.949279
175.076735	-3.008300	3.858800	-11.607000	22.128714	0.000461	20.945511
176.070320	-2.981000	3.860500	-11.507000	22.114758	0.000459	20.950979
177.076632	-2.995000	3.858800	-11.556000	22.110370	0.000460	20.935682
178.077083	-2.992700	3.859200	-11.548000	22.133702	0.000460	20.940549
179.076815	-3.000500	3.859700	-11.580000	22.150706	0.000463	20.935288
180.082633	-3.006600	3.859500	-11.603000	22.123287	0.000461	20.950983
181.073529	-3.023400	3.858900	-11.666000	22.141883	0.000463	20.950160
182.081245	-3.006900	3.859400	-11.605000	22.147817	0.000462	20.928603
183.077868	-2.965200	3.858900	-11.441000	22.181318	0.000462	20.968303
184.077243	-2.990800	3.858400	-11.539000	22.168507	0.000462	20.946944
185.077745	-3.008100	3.858700	-11.606000	22.202657	0.000463	20.939411
186.078439	-3.014100	3.857700	-11.626000	22.185633	0.000465	20.929006
187.089112	-2.991500	3.857300	-11.538000	22.201962	0.000464	20.940138
188.081766	-3.007800	3.856500	-11.598000	22.224047	0.000463	20.944231
189.081648	-2.988900	3.859100	-11.534000	22.210737	0.000464	20.954137
190.086217	-3.015500	3.857500	-11.631000	22.241967	0.000465	20.931356
191.075956	-2.992200	3.857700	-11.541000	22.224099	0.000466	20.927690
192.090452	-2.977100	3.858700	-11.487000	22.220559	0.000465	20.939317
193.085845	-3.013800	3.856300	-11.622000	22.250671	0.000466	20.932010
194.083195	-3.005700	3.857100	-11.592000	22.250147	0.000467	20.924848
195.086807	-2.990000	3.857900	-11.534000	22.259695	0.000468	20.931563
196.085528	-3.015500	3.856300	-11.628000	22.264208	0.000465	20.942244
197.088633	-2.998800	3.855600	-11.561000	22.282553	0.000468	20.933113
198.081254	-3.018800	3.856200	-11.640000	22.293444	0.000466	20.937380
199.082941	-2.999300	3.856500	-11.566000	22.321583	0.000469	20.922409
200.079382	-2.973300	3.856400	-11.465000	22.289260	0.000467	20.926079
201.085442	-2.997000	3.855500	-11.554000	22.307505	0.000468	20.923485
202.079839	-2.995800	3.855400	-11.548000	22.292477	0.000468	20.917921
203.085538	-3.010600	3.854400	-11.604000	22.286000	0.000470	20.921392
204.086424	-2.979000	3.855500	-11.484000	22.276754	0.000470	20.916403
205.087133	-2.977400	3.855200	-11.477000	22.285328	0.000470	20.930202
206.096017	-2.975300	3.854700	-11.468000	22.295773	0.000469	20.925962
207.083443	-3.002300	3.855400	-11.574000	22.317633	0.000469	20.902809
208.085824	-2.997900	3.853900	-11.552000	22.307240	0.000471	20.911842
209.084568	-3.008000	3.853300	-11.589000	22.332786	0.000470	20.925092
210.090479	-2.980600	3.853900	-11.486000	22.344152	0.000473	20.935050
211.088726	-2.977500	3.854600	-11.475000	22.355020	0.000472	20.920804
212.104632	-3.006700	3.853800	-11.586000	22.388018	0.000472	20.935353
213.079840	-2.996600	3.854500	-11.549000	22.402498	0.000471	20.933258
214.083714	-3.015000	3.853700	-11.617000	22.415334	0.000473	20.912924
215.088160	-3.002800	3.853800	-11.571000	22.395796	0.000474	20.917066
216.091969	-3.001500	3.852400	-11.562000	22.394002	0.000473	20.933286
217.088975	-2.997200	3.853700	-11.550000	22.384885	0.000475	20.913727
218.086997	-3.000800	3.852000	-11.558000	22.391289	0.000474	20.933413
219.087264	-2.989000	3.853500	-11.517000	22.395154	0.000474	20.913579
220.084126	-3.023000	3.851100	-11.641000	22.372877	0.000474	20.917823
221.086891	-3.001800	3.852200	-11.562000	22.422097	0.000472	20.907844
222.087961	-2.999100	3.850700	-11.547000	22.440187	0.000475	20.906045
223.090205	-3.007500	3.850900	-11.581000	22.487238	0.000475	20.915231
224.102137	-3.014900	3.851600	-11.612000	22.486915	0.000476	20.920597
225.095505	-3.004300	3.849900	-11.565000	22.488287	0.000475	20.921971
226.089927	-2.973400	3.850900	-11.450000	22.469825	0.000477	20.916284
227.104879	-2.984200	3.850700	-11.491000	22.498583	0.000475	20.921850
228.088127	-3.006600	3.849800	-11.574000	22.513210	0.000475	20.927490
229.094807	-3.015300	3.849400	-11.605000	22.503267	0.000475	20.902836
230.092250	-2.992900	3.848900	-11.518000	22.512042	0.000477	20.912571
231.093403	-3.006400	3.850300	-11.574000	22.539103	0.000479	20.900794
232.090506	-3.006500	3.849700	-11.573000	22.529912	0.000478	20.936630
233.090150	-2.995100	3.849700	-11.529000	22.526748	0.000478	20.914497
234.094743	-3.007000	3.848200	-11.570000	22.556973	0.000476	20.895932
235.092881	-3.000000	3.847900	-11.543000	22.573219	0.000480	20.908409
236.112194	-2.996700	3.849700	-11.535000	22.527946	0.000483	20.919963
237.110944	-3.007300	3.848300	-11.572000	22.520371	0.000480	20.916645
238.096242	-2.960100	3.849700	-11.395000	22.514143	0.000479	20.894763
239.098155	-2.977900	3.848100	-11.458000	22.553616	0.000480	20.930024
240.098873	-2.987700	3.848400	-11.497000	22.566944	0.000480	20.915874
241.105887	-2.983100	3.849300	-11.482000	22.571681	0.000482	20.906394
242.100638	-2.992500	3.848400	-11.516000	22.548957	0.000482	20.886956
243.098789	-2.997700	3.846800	-11.530000	22.566198	0.000479	20.888576
244.099607	-2.994800	3.846800	-11.520000	22.572204	0.000480	20.917823
245.101226	-2.999000	3.846800	-11.536000	22.589826	0.000482	20.902283
246.097864	-3.011400	3.846900	-11.583000	22.611700	0.000482	20.898114
247.096817	-3.006100	3.846100	-11.561000	22.627345	0.000482	20.911411
248.102192	-3.013100	3.844600	-11.583000	22.642719	0.000481	20.908318
249.097851	-3.004300	3.846300	-11.555000	22.668131	0.000482	20.907694
250.099083	-3.000500	3.846100	-11.538000	22.702490	0.000484	20.905125
251.103615	-2.999900	3.845000	-11.533000	22.692924	0.000484	20.899812
252.096403	-2.976700	3.846000	-11.448000	22.673564	0.000483	20.906023
253.097456	-2.995000	3.844100	-11.512000	22.665241	0.000482	20.900058
254.100778	-3.028400	3.843700	-11.639000	22.689859	0.000483	20.904801
255.098848	-2.994600	3.843500	-11.509000	22.681709	0.000483	20.898535
256.107355	-2.985200	3.843800	-11.473000	22.659761	0.000484	20.913059
257.098708	-2.994800	3.844400	-11.513000	22.670721	0.000484	20.920244
258.103780	-3.007500	3.843200	-11.558000	22.671145	0.000485	20.902652
259.112047	-3.002900	3.842600	-11.538000	22.666536	0.000487	20.889502
260.110194	-2.984600	3.843500	-11.470000	22.705899	0.000488	20.908539
261.112934	-3.018200	3.843400	-11.600000	22.681657	0.000485	20.886156
262.107895	-2.990000	3.843600	-11.492000	22.686839	0.000486	20.878071
263.108999	-3.009100	3.841800	-11.559000	22.700116	0.000490	20.910333
264.102920	-2.997100	3.843600	-11.519000	22.708115	0.000490	20.904596
265.110144	-2.992700	3.843400	-11.502000	22.697426	0.000489	20.903372
266.106353	-3.003400	3.842400	-11.539000	22.727593	0.000489	20.894236
267.108606	-3.002900	3.842600	-11.537000	22.725053	0.000491	20.897856
268.110544	-2.970600	3.843000	-11.415000	22.760479	0.000493	20.874075
269.110307	-2.979600	3.841800	-11.447000	22.743787	0.000491	20.875372
270.105994	-3.011600	3.841000	-11.566000	22.796378	0.000491	20.899602
271.110847	-2.978200	3.842200	-11.442000	22.785441	0.000493	20.888173
272.114523	-2.997500	3.842300	-11.516000	22.766182	0.000491	20.901122
273.106546	-2.995700	3.841700	-11.508000	22.752207	0.000491	20.881435
274.111903	-2.977400	3.841400	-11.436000	22.766132	0.000493	20.874047
275.103817	-2.989200	3.841400	-11.482000	22.757066	0.000493	20.879664
276.110416	-3.009200	3.839700	-11.553000	22.737559	0.000492	20.874348
277.112536	-3.002000	3.840900	-11.530000	22.782078	0.000492	20.881959
278.123402	-2.999700	3.840100	-11.518000	22.801108	0.000492	20.869730
279.122487	-2.972200	3.841100	-11.415000	22.795155	0.000492	20.871827
280.113987	-3.021500	3.838300	-11.596000	22.812894	0.000492	20.890543
281.107615	-2.996700	3.839200	-11.504000	22.806490	0.000495	20.867535
282.116833	-2.992900	3.839000	-11.488000	22.800537	0.000494	20.883382
283.118126	-2.983500	3.839300	-11.454000	22.810527	0.000497	20.890069
284.116954	-2.993300	3.838900	-11.490000	22.830804	0.000496	20.887624
285.111927	-2.985200	3.837800	-11.456000	22.839324	0.000496	20.870555
286.126499	-2.998700	3.838800	-11.510000	22.848565	0.000496	20.857054
287.115567	-2.994500	3.837900	-11.492000	22.844032	0.000497	20.871478
288.110823	-3.011800	3.837300	-11.556000	22.836632	0.000498	20.872600
289.117774	-3.033800	3.836500	-11.638000	22.855792	0.000496	20.863820
290.121182	-3.011200	3.837300	-11.554000	22.832227	0.000497	20.868187
291.109252	-3.012700	3.836800	-11.558000	22.843736	0.000498	20.882561
292.121823	-3.006300	3.835300	-11.529000	22.881450	0.000498	20.865342
293.111200	-2.998600	3.837600	-11.507000	22.901676	0.000499	20.885130
294.121247	-3.013100	3.836600	-11.560000	22.916002	0.000500	20.863922
295.117211	-3.022200	3.835100	-11.590000	22.911865	0.000498	20.866416
296.117436	-2.990200	3.836300	-11.470000	22.925990	0.000500	20.884834
297.116386	-3.007400	3.836000	-11.535000	22.934261	0.000499	20.859931
298.123315	-2.982600	3.836100	-11.440000	22.961037	0.000498	20.877747
299.115542	-2.988500	3.835800	-11.462000	22.975259	0.000500	20.857385
300.117039	-3.004000	3.835500	-11.521000	22.974092	0.000502	20.847681
301.127028	-2.988700	3.835000	-11.461000	22.937501	0.000502	20.868866
302.118119	-2.994400	3.834800	-11.482000	22.958024	0.000501	20.877574
303.129114	-3.014400	3.835000	-11.560000	22.968862	0.000502	20.868518
304.111495	-2.970800	3.834500	-11.391000	22.969262	0.000501	20.872238
305.121156	-2.996900	3.834300	-11.490000	22.952848	0.000500	20.856268
306.116425	-2.995800	3.833000	-11.482000	22.967171	0.000504	20.855919
307.116347	-3.003000	3.832300	-11.508000	22.975069	0.000503	20.847237
308.111632	-3.007000	3.833900	-11.527000	22.954621	0.000502	20.870371
309.117368	-2.995100	3.833500	-11.481000	22.955643	0.000503	20.850533
310.115347	-3.008300	3.832700	-11.529000	22.950387	0.000504	20.852379
311.119211	-2.997900	3.832600	-11.489000	22.945957	0.000503	20.858372
312.121237	-3.012900	3.831800	-11.544000	22.955445	0.000504	20.868826
313.114363	-3.004800	3.831400	-11.512000	22.937613	0.000504	20.855229
314.121878	-2.984600	3.831600	-11.435000	22.971292	0.000504	20.867160
315.123263	-3.008700	3.831400	-11.527000	23.015799	0.000505	20.857700
316.119823	-2.971400	3.832200	-11.386000	23.020782	0.000506	20.853209
317.122552	-2.986500	3.831500	-11.441000	23.059689	0.000505	20.849045
318.125835	-3.003700	3.830600	-11.505000	23.072415	0.000504	20.861796
319.113250	-2.998400	3.829900	-11.482000	23.086313	0.000503	20.857230
320.116402	-2.987100	3.829900	-11.438000	23.066389	0.000505	20.866189
321.122013	-3.009400	3.830600	-11.526000	23.054385	0.000505	20.862697
322.120093	-2.988900	3.829100	-11.444000	23.037400	0.000506	20.850420
323.119820	-3.015500	3.829600	-11.546000	23.034936	0.000508	20.851744
324.119140	-3.024500	3.828900	-11.580000	23.025221	0.000507	20.855286
325.131288	-3.023000	3.829100	-11.574000	23.050652	0.000507	20.863698
326.132228	-2.983700	3.829100	-11.424000	23.053514	0.000507	20.853289
327.119920	-2.985000	3.828000	-11.425000	23.084200	0.000507	20.856061
328.126439	-2.973300	3.828500	-11.382000	23.104049	0.000509	20.856510
329.121052	-2.999200	3.828800	-11.482000	23.125120	0.000509	20.858658
330.123343	-3.018400	3.829100	-11.557000	23.130771	0.000507	20.846777
331.126070	-2.984400	3.827600	-11.422000	23.149079	0.000508	20.840942
332.139621	-3.005900	3.828100	-11.506000	23.157246	0.000510	20.872831
333.123635	-2.983900	3.829100	-11.425000	23.140139	0.000509	20.850949
334.129972	-2.998900	3.829200	-11.482000	23.165688	0.000511	20.849998
335.125871	-3.001600	3.828000	-11.489000	23.148704	0.000510	20.843884
336.123656	-2.989700	3.826400	-11.439000	23.146761	0.000510	20.864222
337.127962	-3.011800	3.825700	-11.521000	23.167856	0.000510	20.843162
338.127418	-2.986600	3.825600	-11.425000	23.172390	0.000511	20.841541
339.139236	-2.998200	3.825800	-11.469000	23.177144	0.000511	20.845831
340.125082	-3.007600	3.825800	-11.505000	23.143724	0.000511	20.843162
341.134641	-3.004200	3.825200	-11.491000	23.148556	0.000511	20.840891
342.131756	-3.004000	3.824500	-11.488000	23.135032	0.000510	20.836348
343.130564	-3.000200	3.824600	-11.474000	23.168677	0.000511	20.849674
344.146026	-3.000800	3.824700	-11.477000	23.153756	0.000511	20.857481
345.123700	-2.998600	3.823500	-11.464000	23.127408	0.000512	20.850520
346.147554	-3.016400	3.823500	-11.532000	23.135826	0.000511	20.837618
347.123224	-3.001600	3.823600	-11.476000	23.148128	0.000514	20.811540
348.121121	-3.000600	3.822200	-11.469000	23.177187	0.000512	20.840184
349.134386	-3.001600	3.824200	-11.478000	23.160576	0.000511	20.827333
350.133789	-3.010600	3.821200	-11.503000	23.203158	0.000513	20.818796
351.124942	-2.994900	3.822200	-11.446000	23.209860	0.000514	20.825037
352.133267	-2.992000	3.822000	-11.435000	23.202735	0.000514	20.832596
353.126344	-3.020200	3.821100	-11.539000	23.193047	0.000512	20.831422
354.128887	-3.003300	3.823100	-11.481000	23.200369	0.000515	20.844923
355.135018	-3.007600	3.822200	-11.495000	23.217550	0.000513	20.837485
356.120661	-3.016300	3.822300	-11.528000	23.199596	0.000513	20.837510
357.143404	-2.992500	3.821100	-11.434000	23.235557	0.000513	20.833246
358.137317	-2.998700	3.822300	-11.461000	23.253982	0.000516	20.828003
359.128726	-3.000500	3.820600	-11.462000	23.230971	0.000515	20.823434
360.124253	-3.032900	3.819900	-11.584000	23.229029	0.000514	20.824332
361.125065	-3.011100	3.819900	-11.502000	23.211375	0.000513	20.829874
362.130524	-2.997300	3.820700	-11.451000	23.221185	0.000514	20.818843
363.131250	-2.987500	3.820500	-11.413000	23.255925	0.000514	20.835165
364.124879	-3.012700	3.818000	-11.502000	23.250247	0.000515	20.844173
365.126201	-2.985200	3.819700	-11.401000	23.268176	0.000517	20.803821
366.126512	-2.993100	3.818800	-11.429000	23.292405	0.000517	20.811982
367.133837	-3.001100	3.818500	-11.458000	23.303760	0.000517	20.824310
368.135177	-2.978600	3.819900	-11.376000	23.292628	0.000519	20.834490
369.136003	-2.976500	3.819100	-11.367000	23.289839	0.000519	20.798979
370.135392	-2.998100	3.819500	-11.450000	23.290911	0.000519	20.819019
371.135378	-3.006200	3.817900	-11.477000	23.271963	0.000518	20.813306
372.124907	-3.024900	3.817400	-11.545000	23.272634	0.000520	20.825832
373.136289	-3.009500	3.819000	-11.493000	23.241558	0.000520	20.827405
374.132124	-3.015700	3.817900	-11.514000	23.246442	0.000521	20.811911
375.131458	-2.999400	3.816700	-11.447000	23.263847	0.000520	20.811337
376.149967	-2.983500	3.816600	-11.385000	23.316215	0.000520	20.816879
377.134427	-3.017800	3.815700	-11.514000	23.352218	0.000521	20.823564
378.143050	-3.027600	3.816500	-11.553000	23.366363	0.000521	20.804551
379.141429	-3.019700	3.814600	-11.518000	23.378043	0.000521	20.807722
380.137072	-3.014700	3.815100	-11.499000	23.376523	0.000522	20.830855
381.142181	-2.994800	3.815900	-11.426000	23.394650	0.000521	20.822470
382.141128	-2.984200	3.814900	-11.383000	23.395401	0.000521	20.823697
383.139256	-2.997400	3.815300	-11.435000	23.372693	0.000522	20.829387
384.142359	-3.007600	3.813700	-11.469000	23.403493	0.000522	20.802885
385.138792	-2.990200	3.815700	-11.408000	23.420824	0.000523	20.826419
386.144940	-3.007500	3.814200	-11.470000	23.395553	0.000522	20.832384
387.142460	-3.013500	3.813400	-11.490000	23.389877	0.000522	20.817212
388.154382	-3.004600	3.813800	-11.458000	23.411167	0.000524	20.822430
389.139094	-2.991700	3.813100	-11.407000	23.433651	0.000524	20.820310
390.151316	-3.005000	3.814100	-11.461000	23.442536	0.000525	20.800767
391.138938	-2.992000	3.813400	-11.408000	23.425859	0.000523	20.816768
392.151936	-3.001400	3.812700	-11.442000	23.447895	0.000522	20.797129
393.144656	-3.010500	3.812600	-11.476000	23.400937	0.000524	20.806013
394.142659	-2.997900	3.811800	-11.427000	23.391926	0.000524	20.814999
395.140861	-3.005300	3.812000	-11.455000	23.420135	0.000523	20.808185
396.144977	-2.987300	3.811700	-11.385000	23.444511	0.000523	20.817919
397.147392	-3.000500	3.811600	-11.435000	23.481734	0.000522	20.810659
398.162589	-3.013900	3.810800	-11.485000	23.517135	0.000524	20.802997
399.145453	-2.985800	3.811000	-11.379000	23.523960	0.000525	20.809838
400.147141	-2.999400	3.809900	-11.426000	23.512308	0.000524	20.794365
401.149485	-3.018100	3.810700	-11.500000	23.530928	0.000525	20.809711
402.146501	-3.006400	3.809200	-11.450000	23.522514	0.000524	20.802699
403.149260	-2.976900	3.810400	-11.343000	23.483053	0.000523	20.786851
404.151487	-3.003100	3.810100	-11.441000	23.478172	0.000523	20.810408
405.152349	-2.981800	3.808700	-11.356000	23.471800	0.000525	20.816349
406.147822	-2.987800	3.809200	-11.380000	23.455414	0.000525	20.795657
407.152857	-2.992700	3.807300	-11.393000	23.478743	0.000524	20.817144
408.142279	-2.983600	3.810200	-11.366000	23.505780	0.000526	20.813426
409.148031	-3.010600	3.809200	-11.468000	23.542873	0.000523	20.816943
410.152246	-3.003100	3.809200	-11.439000	23.576554	0.000525	20.795230
411.148611	-2.991500	3.807500	-11.389000	23.563383	0.000524	20.829442
412.155701	-3.015200	3.809100	-11.484000	23.577946	0.000524	20.803263
413.148475	-3.012300	3.807700	-11.469000	23.578864	0.000523	20.817934
414.153758	-3.006800	3.807200	-11.447000	23.606422	0.000523	20.810474
415.147009	-3.000300	3.807800	-11.424000	23.591457	0.000525	20.804006
416.156010	-3.006300	3.808000	-11.447000	23.607711	0.000525	20.811292
417.145087	-3.018200	3.804400	-11.481000	23.594118	0.000526	20.818527
418.157458	-3.017300	3.805700	-11.483000	23.567453	0.000523	20.810763
419.158000	-2.990100	3.806100	-11.380000	23.534465	0.000526	20.794764
420.149856	-2.991200	3.805500	-11.382000	23.540289	0.000528	20.800602
421.152297	-3.006700	3.805600	-11.441000	23.575164	0.000526	20.781034
422.154356	-2.985200	3.806300	-11.362000	23.602272	0.000525	20.809632
423.153088	-3.015200	3.805900	-11.475000	23.576728	0.000527	20.808207
424.150811	-3.006400	3.804000	-11.436000	23.597089	0.000528	20.783099
425.148524	-3.018100	3.804000	-11.480000	23.600473	0.000530	20.805457
426.147544	-2.999100	3.804700	-11.409000	23.590590	0.000527	20.811672
427.144353	-3.003400	3.804000	-11.424000	23.578015	0.000530	20.793376
428.147619	-2.993200	3.803300	-11.383000	23.622352	0.000530	20.797046
429.153264	-3.042100	3.802200	-11.565000	23.601191	0.000529	20.791005
430.153235	-2.987400	3.803000	-11.360000	23.601662	0.000530	20.816132
431.154709	-3.025000	3.803100	-11.504000	23.573110	0.000530	20.791778
432.151524	-3.028400	3.800700	-11.509000	23.582990	0.000527	20.809743
433.157144	-3.003000	3.800900	-11.413000	23.593771	0.000530	20.784989
434.155151	-3.008900	3.801900	-11.439000	23.629320	0.000533	20.779374
435.153045	-3.006500	3.802800	-11.433000	23.635891	0.000531	20.795920
436.156326	-3.011700	3.800900	-11.447000	23.641442	0.000533	20.805751
437.159826	-3.002100	3.800500	-11.407000	23.671563	0.000531	20.819353
438.153345	-3.022200	3.800100	-11.483000	23.648586	0.000533	20.808172
439.163579	-3.011600	3.800900	-11.446000	23.657249	0.000535	20.807374
440.154994	-2.977200	3.801500	-11.316000	23.682541	0.000532	20.798117
441.161822	-3.008200	3.800300	-11.431000	23.682714	0.000532	20.812515
442.152102	-3.002300	3.800500	-11.409000	23.723712	0.000533	20.798142
443.153206	-2.990400	3.800200	-11.363000	23.728616	0.000533	20.791205
444.164682	-3.003500	3.799400	-11.411000	23.722718	0.000532	20.804732
445.160923	-3.021100	3.798400	-11.474000	23.690809	0.000533	20.786965
446.157567	-2.989800	3.799500	-11.359000	23.691254	0.000533	20.807327
447.172107	-3.003200	3.799600	-11.410000	23.704524	0.000535	20.815415
448.157475	-3.026000	3.796800	-11.487000	23.710722	0.000532	20.775162
449.154212	-3.007200	3.797300	-11.419000	23.702162	0.000533	20.797399
450.160503	-2.985500	3.797400	-11.335000	23.736786	0.000535	20.821207
451.164352	-2.995800	3.798200	-11.377000	23.755204	0.000534	20.813596
452.156672	-2.989500	3.797500	-11.352000	23.782708	0.000533	20.814619
453.153546	-3.009700	3.797000	-11.426000	23.771982	0.000531	20.797700
454.156181	-3.008300	3.796600	-11.421000	23.776240	0.000534	20.809082
455.150260	-2.986800	3.797600	-11.340000	23.728573	0.000531	20.812499
456.164005	-2.975800	3.795700	-11.294000	23.709283	0.000534	20.816393
457.159872	-2.981100	3.797300	-11.320000	23.715381	0.000533	20.818713
458.151580	-2.986300	3.796800	-11.337000	23.688621	0.000531	20.813696
459.162940	-3.009200	3.795700	-11.420000	23.710374	0.000533	20.807530
460.158301	-3.008700	3.795300	-11.418000	23.709528	0.000532	20.818061
461.160405	-2.997400	3.795300	-11.375000	23.670076	0.000534	20.836829
462.170093	-3.001100	3.794300	-11.387000	23.710151	0.000531	20.805410
463.162591	-2.993300	3.794700	-11.358000	23.737356	0.000533	20.814193
464.163393	-2.997100	3.793200	-11.368000	23.787585	0.000535	20.811448
465.170989	-3.006600	3.793400	-11.404000	23.806378	0.000535	20.823653
466.164254	-3.005200	3.792800	-11.397000	23.817800	0.000535	20.805708
467.157935	-2.985400	3.793200	-11.324000	23.835222	0.000535	20.822228
468.159647	-2.994300	3.792700	-11.356000	23.836018	0.000534	20.841991
469.162291	-2.973100	3.794200	-11.280000	23.824171	0.000536	20.820630
470.165712	-2.982100	3.792700	-11.310000	23.816134	0.000536	20.803089
471.160858	-3.007000	3.791600	-11.401000	23.841072	0.000536	20.803438
472.168447	-3.004500	3.791300	-11.390000	23.829773	0.000536	20.807755
473.170189	-3.022900	3.790500	-11.457000	23.806849	0.000537	20.813694
474.161799	-3.007700	3.791900	-11.404000	23.840003	0.000536	20.816591
475.172968	-3.005400	3.791100	-11.393000	23.831967	0.000537	20.804740
476.159307	-2.989100	3.789600	-11.326000	23.827463	0.000536	20.814922
477.168142	-3.008000	3.791600	-11.404000	23.848395	0.000537	20.813625
478.162140	-3.000800	3.791400	-11.376000	23.831346	0.000537	20.825928
479.166720	-3.011300	3.789200	-11.409000	23.833513	0.000537	20.828100
480.173824	-3.014600	3.789500	-11.422000	23.818230	0.000538	20.826053
481.158541	-2.996700	3.789800	-11.356000	23.817064	0.000537	20.815875
482.165422	-2.999300	3.790100	-11.366000	23.815746	0.000537	20.815502
483.162735	-3.014100	3.789100	-11.420000	23.830603	0.000537	20.805269
484.159231	-3.007300	3.788200	-11.392000	23.818287	0.000538	20.846973
485.162895	-3.020400	3.787600	-11.439000	23.833345	0.000538	20.818449
486.163449	-2.991000	3.788600	-11.331000	23.871700	0.000537	20.821347
487.166343	-3.033200	3.786700	-11.485000	23.886161	0.000537	20.842011
488.166659	-3.000600	3.788300	-11.366000	23.924637	0.000539	20.827014
489.175401	-2.980400	3.786500	-11.285000	23.952387	0.000538	20.826866
490.174783	-3.016000	3.785800	-11.417000	23.966697	0.000537	20.829362
491.169197	-3.014100	3.785500	-11.409000	23.959854	0.000538	20.826294
492.170049	-2.994000	3.785600	-11.333000	23.963962	0.000537	20.847482
493.167061	-3.004000	3.786300	-11.373000	23.945126	0.000538	20.833809
494.170569	-2.996400	3.785900	-11.344000	23.947591	0.000538	20.835332
495.166962	-2.991600	3.785300	-11.323000	23.937438	0.000537	20.819936
496.167254	-2.978500	3.786500	-11.277000	23.971982	0.000537	20.834188
497.178448	-2.984000	3.785200	-11.294000	23.943513	0.000537	20.842148
498.178369	-3.008200	3.783400	-11.380000	23.927339	0.000537	20.827826
499.172251	-2.991200	3.784500	-11.319000	23.962306	0.000539	20.830174
500.171692	-2.997100	3.784900	-11.343000	23.992391	0.000537	20.833317
501.167440	-3.020000	3.783800	-11.426000	23.995283	0.000537	20.841907
502.183561	-2.995000	3.784800	-11.335000	23.990577	0.000536	20.843352
503.182315	-2.990400	3.784100	-11.315000	23.961588	0.000539	20.863117
504.177590	-3.002900	3.783100	-11.360000	23.939192	0.000536	20.854410
505.171195	-3.004100	3.783800	-11.366000	23.935111	0.000536	20.827560
506.173853	-2.981500	3.782500	-11.276000	23.947430	0.000536	20.850818
507.171439	-3.013000	3.781500	-11.393000	23.951613	0.000536	20.843633
508.178866	-3.007800	3.780600	-11.370000	23.975827	0.000540	20.845630
509.175235	-2.992800	3.782000	-11.318000	23.959576	0.000536	20.837394
510.172334	-3.001700	3.780300	-11.346000	23.990710	0.000538	20.837321
511.185911	-3.000000	3.781000	-11.342000	23.968960	0.000539	20.852493
512.176013	-2.994700	3.780800	-11.322000	23.981651	0.000537	20.833927
513.175758	-2.999600	3.779800	-11.337000	23.999293	0.000538	20.840239
514.176507	-2.977600	3.781200	-11.257000	23.998597	0.000537	20.837170
515.181748	-3.008800	3.780400	-11.374000	24.013057	0.000538	20.854515
516.175347	-2.976800	3.779700	-11.250000	24.021192	0.000537	20.866466
517.180938	-2.993400	3.781100	-11.319000	24.034706	0.000538	20.837820
518.173792	-2.993800	3.779800	-11.314000	24.045705	0.000538	20.866393
519.187188	-3.022700	3.778300	-11.419000	24.063148	0.000540	20.854016
520.174837	-2.986700	3.779400	-11.286000	24.077602	0.000537	20.846701
521.175395	-2.993900	3.778600	-11.312000	24.032617	0.000537	20.852794
522.179512	-2.992000	3.778800	-11.306000	24.011786	0.000536	20.850870
523.175587	-2.997000	3.777500	-11.320000	24.014946	0.000537	20.852142
524.180777	-3.020100	3.778100	-11.409000	24.030100	0.000537	20.842210
525.182823	-3.007400	3.776100	-11.356000	24.021217	0.000537	20.849897
526.183746	-3.009800	3.778000	-11.369000	24.012231	0.000538	20.860325
527.183148	-2.996700	3.777000	-11.318000	23.987050	0.000537	20.852616
528.180236	-2.990000	3.777100	-11.292000	24.005044	0.000537	20.854066
529.175040	-2.980200	3.776700	-11.255000	23.986802	0.000538	20.854738
530.180203	-2.987600	3.776800	-11.282000	23.981949	0.000537	20.856510
531.182582	-2.985000	3.776200	-11.271000	23.985209	0.000536	20.853140
532.177718	-3.013300	3.775800	-11.376000	24.037320	0.000537	20.856088
533.189179	-3.010200	3.774500	-11.361000	24.023258	0.000538	20.840565
534.183075	-3.004100	3.775100	-11.340000	24.049162	0.000537	20.855637
535.183158	-3.014400	3.775400	-11.380000	24.037317	0.000538	20.859404
536.176918	-3.018000	3.773400	-11.388000	24.029828	0.000537	20.873703
537.187951	-3.008100	3.775100	-11.355000	24.023731	0.000536	20.859056
538.189571	-2.979100	3.775000	-11.245000	24.046798	0.000537	20.871283
539.184312	-2.992800	3.774100	-11.294000	24.055609	0.000537	20.872532
540.186079	-3.009600	3.773100	-11.355000	24.053817	0.000539	20.850822
541.188587	-3.010600	3.773200	-11.358000	24.058993	0.000538	20.855539
542.184259	-3.011200	3.772600	-11.358000	24.051156	0.000539	20.848627
543.182717	-2.989700	3.772600	-11.278000	24.075315	0.000539	20.858632
544.186858	-2.967200	3.772400	-11.193000	24.126674	0.000537	20.863200
545.188525	-3.017500	3.771400	-11.379000	24.132350	0.000537	20.875530
546.186723	-2.988200	3.772600	-11.271000	24.144564	0.000538	20.856013
547.183836	-2.989800	3.772700	-11.278000	24.140139	0.000538	20.869118
548.182746	-2.988500	3.772100	-11.272000	24.125108	0.000538	20.872060
549.182875	-2.986900	3.771000	-11.263000	24.143173	0.000536	20.877850
550.193898	-3.013000	3.770400	-11.359000	24.108214	0.000539	20.851324
551.192066	-3.005100	3.770500	-11.329000	24.122547	0.000536	20.860957
552.191368	-3.017900	3.769400	-11.374000	24.165442	0.000538	20.866521
553.187966	-3.010100	3.769800	-11.346000	24.137328	0.000536	20.878625
554.190557	-3.003500	3.769900	-11.322000	24.146557	0.000536	20.866546
555.194792	-3.014100	3.769800	-11.361000	24.119188	0.000537	20.863752
556.189734	-2.993700	3.770800	-11.288000	24.123840	0.000534	20.879797
557.186460	-3.011900	3.768600	-11.349000	24.121577	0.000536	20.861406
558.186595	-2.993800	3.768300	-11.281000	24.138543	0.000536	20.865621
559.190635	-3.004300	3.768800	-11.322000	24.170067	0.000536	20.879694
560.185767	-3.001000	3.768000	-11.306000	24.160760	0.000539	20.895962
561.188654	-2.999600	3.767800	-11.301000	24.143741	0.000535	20.878420
562.190062	-2.985500	3.767300	-11.247000	24.159342	0.000535	20.884109
563.196463	-2.985800	3.767300	-11.247000	24.179394	0.000535	20.869609
564.193199	-2.988300	3.766200	-11.253000	24.178024	0.000538	20.869657
565.190937	-2.979700	3.767000	-11.223000	24.205292	0.000536	20.889894
566.194742	-3.015600	3.766300	-11.357000	24.180335	0.000537	20.882406
567.188831	-2.999500	3.766500	-11.296000	24.179810	0.000537	20.883776
568.189709	-2.974900	3.766500	-11.204000	24.200557	0.000538	20.886094
569.189363	-2.995300	3.766000	-11.279000	24.240115	0.000536	20.881202
570.199683	-3.003000	3.765100	-11.305000	24.253621	0.000536	20.870094
571.194554	-2.993500	3.764700	-11.269000	24.270341	0.000537	20.880700
572.195572	-3.002600	3.765500	-11.305000	24.261930	0.000536	20.907823
573.189923	-2.987700	3.764600	-11.246000	24.227395	0.000535	20.879823
574.200695	-2.998100	3.763200	-11.282000	24.221620	0.000536	20.875927
575.198716	-2.996800	3.764700	-11.281000	24.210623	0.000534	20.877698
576.198850	-3.011600	3.763700	-11.334000	24.220947	0.000535	20.870985
577.197400	-2.985700	3.763600	-11.236000	24.218484	0.000537	20.902650
578.189325	-2.997600	3.764500	-11.284000	24.174693	0.000536	20.868213
579.196799	-3.011100	3.763300	-11.331000	24.198252	0.000537	20.899901
580.197014	-3.004300	3.762500	-11.302000	24.180163	0.000537	20.909258
581.195565	-2.981000	3.761600	-11.212000	24.191534	0.000536	20.897905
582.197978	-3.013000	3.762700	-11.337000	24.166652	0.000537	20.891440
583.213341	-2.998400	3.762600	-11.281000	24.157147	0.000535	20.894709
584.200116	-3.017400	3.760400	-11.346000	24.160704	0.000537	20.899698
585.193042	-3.004600	3.762200	-11.303000	24.204047	0.000536	20.880586
586.205962	-3.003700	3.761700	-11.297000	24.252064	0.000537	20.889867
587.194544	-3.010500	3.760700	-11.321000	24.229944	0.000536	20.889965
588.191898	-2.989500	3.760600	-11.242000	24.247037	0.000539	20.880558
589.192590	-2.987500	3.761700	-11.237000	24.263209	0.000536	20.886822
590.194961	-3.024900	3.758800	-11.369000	24.253927	0.000535	20.902641
591.194699	-3.012300	3.759300	-11.324000	24.242835	0.000536	20.891515
592.196143	-3.002800	3.760000	-11.289000	24.254725	0.000535	20.902967
593.194058	-2.989200	3.759400	-11.237000	24.290600	0.000536	20.910502
594.210651	-2.988700	3.759200	-11.233000	24.247287	0.000538	20.904041
595.200050	-2.970100	3.759600	-11.166000	24.229099	0.000539	20.899548
596.197340	-3.017700	3.757500	-11.338000	24.290402	0.000535	20.895607
597.211578	-2.994400	3.757800	-11.252000	24.286721	0.000538	20.893337
598.198886	-3.009000	3.757400	-11.305000	24.260002	0.000537	20.911578
599.203742	-3.010500	3.757800	-11.311000	24.283017	0.000536	20.902422
600.219926	-2.997900	3.756800	-11.261000	24.285853	0.000535	20.913801
601.196156	-3.004500	3.756200	-11.285000	24.300033	0.000539	20.901948
602.201634	-2.985000	3.756700	-11.213000	24.322326	0.000536	20.878320
603.213989	-3.028700	3.756300	-11.376000	24.332525	0.000538	20.895188
604.198589	-2.994600	3.756900	-11.249000	24.320261	0.000538	20.914177
605.205431	-2.979000	3.757200	-11.192000	24.328746	0.000535	20.917947
606.200905	-3.018300	3.755900	-11.335000	24.333923	0.000537	20.921243
607.203542	-3.004400	3.754700	-11.280000	24.332903	0.000535	20.918798
608.204842	-2.980000	3.756000	-11.192000	24.360767	0.000537	20.897440
609.204363	-3.003900	3.754600	-11.278000	24.352930	0.000536	20.907120
610.207770	-2.980200	3.755100	-11.190000	24.365844	0.000538	20.925763
611.209334	-3.014900	3.753900	-11.317000	24.384525	0.000538	20.918900
612.200950	-3.010200	3.754300	-11.300000	24.379998	0.000537	20.935220
613.209090	-3.009800	3.754600	-11.299000	24.411320	0.000537	20.917806
614.200775	-2.999200	3.752900	-11.255000	24.428485	0.000536	20.913690
615.216900	-3.025700	3.752500	-11.353000	24.435922	0.000537	20.910720
616.226271	-2.989200	3.754100	-11.221000	24.397143	0.000538	20.918757
617.206782	-3.016400	3.751900	-11.317000	24.408411	0.000537	20.925793
618.204556	-3.006000	3.752000	-11.278000	24.403713	0.000538	20.942414
619.219543	-3.020100	3.750500	-11.326000	24.381451	0.000537	20.930988
620.208390	-2.997800	3.751800	-11.246000	24.345704	0.000537	20.923578
621.206378	-2.990800	3.752500	-11.222000	24.377795	0.000537	20.938225
622.207019	-2.984000	3.751900	-11.195000	24.408394	0.000539	20.923405
623.212030	-3.000400	3.751800	-11.256000	24.389191	0.000538	20.934485
624.223627	-2.982600	3.751100	-11.187000	24.371207	0.000539	20.944892
625.217347	-2.994200	3.751500	-11.232000	24.392599	0.000535	20.916569
626.210132	-2.997900	3.750900	-11.244000	24.423053	0.000536	20.929102
627.211251	-3.020200	3.749300	-11.323000	24.435516	0.000534	20.919321
628.209631	-3.006700	3.750400	-11.275000	24.431960	0.000536	20.941829
629.209041	-3.027400	3.748100	-11.346000	24.424025	0.000537	20.925336
630.213726	-3.009900	3.748600	-11.282000	24.442583	0.000536	20.944426
631.211889	-3.007500	3.749000	-11.275000	24.465843	0.000532	20.944528
632.208423	-3.007900	3.749800	-11.277000	24.471467	0.000537	20.952540
633.214316	-2.989400	3.749000	-11.206000	24.450200	0.000536	20.949696
634.225539	-2.999700	3.748700	-11.244000	24.458759	0.000535	20.952119
635.209373	-2.969100	3.749400	-11.131000	24.438089	0.000535	20.931384
636.212589	-3.009100	3.747700	-11.276000	24.472765	0.000533	20.941516
637.223367	-3.003900	3.747000	-11.255000	24.442545	0.000534	20.949129
638.223592	-3.019600	3.747100	-11.313000	24.437121	0.000533	20.963600
639.212363	-3.002900	3.746400	-11.249000	24.407673	0.000533	20.980995
640.215512	-2.996400	3.746900	-11.226000	24.394114	0.000533	20.949380
641.215432	-3.006800	3.747400	-11.265000	24.415085	0.000531	20.955718
642.214983	-3.004300	3.746600	-11.255000	24.400308	0.000533	20.952748
643.212822	-3.021200	3.745000	-11.313000	24.410831	0.000532	20.955244
644.217910	-2.994200	3.746300	-11.216000	24.438544	0.000530	20.963605
645.215926	-2.991700	3.745500	-11.204000	24.454736	0.000533	20.944290
646.219665	-2.972000	3.746500	-11.134000	24.463665	0.000531	20.966522
647.217523	-2.995600	3.745200	-11.218000	24.477073	0.000530	20.944415
648.213603	-2.984900	3.744500	-11.177000	24.467644	0.000531	20.934956
649.214155	-2.981400	3.745700	-11.166000	24.473042	0.000530	20.954595
650.221096	-2.993400	3.743800	-11.206000	24.488016	0.000531	20.969141
651.217445	-3.001700	3.744500	-11.239000	24.494705	0.000531	20.946457
652.221490	-3.000400	3.743800	-11.232000	24.526941	0.000528	20.954143
653.218350	-3.008900	3.743200	-11.262000	24.539203	0.000528	20.959333
654.220615	-2.992700	3.745200	-11.207000	24.528679	0.000529	20.971057
655.220948	-3.011000	3.741800	-11.266000	24.537758	0.000528	20.948875
656.219420	-2.974700	3.744100	-11.137000	24.529599	0.000530	20.938794
657.221168	-3.004200	3.742900	-11.244000	24.512383	0.000529	20.950917
658.234065	-2.997300	3.742500	-11.216000	24.476886	0.000528	20.956554
659.225871	-2.992300	3.742800	-11.199000	24.481462	0.000529	20.948344
660.223042	-3.006700	3.740900	-11.247000	24.495912	0.000526	20.950514
661.221969	-3.007600	3.742600	-11.255000	24.491507	0.000528	20.940879
662.225526	-3.006500	3.741000	-11.246000	24.457629	0.000529	20.936288
663.224034	-2.990900	3.742700	-11.193000	24.435366	0.000529	20.930075
664.224879	-3.021000	3.740600	-11.299000	24.413002	0.000527	20.930399
665.222287	-3.007800	3.740200	-11.249000	24.459765	0.000529	20.942223
666.218959	-3.002900	3.740900	-11.233000	24.511003	0.000529	20.956644
667.218457	-2.995400	3.740000	-11.202000	24.523663	0.000527	20.930943
668.218844	-3.010000	3.739700	-11.256000	24.509833	0.000527	20.935559
669.225104	-3.002300	3.739400	-11.226000	24.540176	0.000528	20.918115
670.226947	-3.006300	3.738100	-11.237000	24.560819	0.000528	20.926972
671.228182	-3.002500	3.739200	-11.226000	24.574276	0.000529	20.915345
672.226938	-3.002500	3.739000	-11.226000	24.560272	0.000528	20.923104
673.227634	-3.004700	3.737300	-11.228000	24.567635	0.000526	20.909157
674.220824	-3.024100	3.737600	-11.302000	24.555321	0.000528	20.938050
675.224131	-3.002300	3.738000	-11.221000	24.548282	0.000528	20.954219
676.226384	-2.987100	3.738500	-11.167000	24.520523	0.000526	20.920207
677.222765	-2.988700	3.738400	-11.172000	24.515499	0.000527	20.911849
678.234582	-3.019500	3.736900	-11.283000	24.515124	0.000526	20.922377
679.230543	-2.997600	3.738100	-11.204000	24.522833	0.000525	20.904035
680.222771	-3.009700	3.736400	-11.244000	24.508855	0.000526	20.905658
681.224507	-2.998500	3.735300	-11.199000	24.503657	0.000523	20.925096
682.230829	-2.997100	3.735700	-11.196000	24.516539	0.000527	20.906255
683.232985	-2.977500	3.737600	-11.128000	24.562927	0.000525	20.922450
684.225159	-2.996600	3.735000	-11.191000	24.598119	0.000524	20.906553
685.241954	-3.003900	3.736000	-11.221000	24.586600	0.000524	20.918228
686.225698	-2.990000	3.734400	-11.165000	24.587546	0.000523	20.920124
687.234030	-2.976400	3.736700	-11.121000	24.534493	0.000523	20.925214
688.233396	-2.992600	3.735800	-11.179000	24.489074	0.000522	20.913785
689.227849	-2.991700	3.734600	-11.172000	24.516460	0.000522	20.915657
690.230907	-3.003100	3.734800	-11.215000	24.548170	0.000523	20.905748
691.225442	-3.009400	3.734700	-11.238000	24.536653	0.000523	20.900832
692.230630	-3.024300	3.733600	-11.290000	24.528247	0.000525	20.918000
693.226843	-3.009200	3.733100	-11.233000	24.532175	0.000524	20.904399
694.238111	-2.988800	3.733800	-11.158000	24.533341	0.000525	20.900827
695.233932	-3.030100	3.731500	-11.306000	24.518913	0.000521	20.911006
696.226467	-3.020100	3.732800	-11.273000	24.507198	0.000524	20.899728
697.235131	-3.004300	3.732700	-11.212000	24.525952	0.000522	20.898155
698.229686	-2.991200	3.732800	-11.165000	24.507196	0.000523	20.896407
699.233608	-3.017300	3.732100	-11.260000	24.545898	0.000522	20.879289
700.231655	-2.990700	3.732400	-11.162000	24.563506	0.000523	20.891265
701.233371	-3.025400	3.731300	-11.288000	24.561690	0.000522	20.896081
702.230213	-3.011100	3.732300	-11.238000	24.527017	0.000525	20.901121
703.238639	-3.012100	3.731800	-11.239000	24.502290	0.000522	20.890537
704.234902	-2.997200	3.732800	-11.186000	24.519156	0.000524	20.888967
705.246347	-3.000800	3.730700	-11.194000	24.566461	0.000523	20.879058
706.246860	-3.009000	3.730800	-11.225000	24.567879	0.000525	20.894704
707.242477	-2.997200	3.731100	-11.182000	24.555442	0.000522	20.886494
708.235131	-2.989100	3.730600	-11.150000	24.558230	0.000521	20.888342
709.233006	-2.974500	3.731900	-11.099000	24.587279	0.000521	20.894729
710.237906	-2.972600	3.730000	-11.087000	24.601753	0.000521	20.896450
711.231722	-2.993400	3.729400	-11.162000	24.594565	0.000521	20.898720
712.238042	-2.991300	3.729200	-11.155000	24.602548	0.000521	20.881602
713.232004	-2.986900	3.730300	-11.141000	24.612572	0.000522	20.912045
714.232531	-2.986200	3.728100	-11.132000	24.587751	0.000521	20.874816
715.235778	-3.015900	3.727600	-11.241000	24.573920	0.000519	20.877533
716.235634	-2.993400	3.729100	-11.162000	24.546836	0.000522	20.862687
717.236898	-2.980000	3.728600	-11.110000	24.562903	0.000520	20.884023
718.235816	-2.986800	3.728900	-11.137000	24.575812	0.000518	20.859993
719.237365	-2.984000	3.728400	-11.125000	24.590060	0.000520	20.882821
720.229270	-3.003200	3.727800	-11.194000	24.632316	0.000519	20.885867
721.236710	-2.990000	3.728100	-11.146000	24.623063	0.000518	20.884168
722.238405	-2.988100	3.727600	-11.138000	24.638482	0.000520	20.884941
723.232313	-3.012600	3.726600	-11.226000	24.671009	0.000519	20.890079
724.239094	-2.996000	3.725200	-11.160000	24.710427	0.000519	20.885538
725.238182	-2.980500	3.726600	-11.106000	24.693962	0.000518	20.867120
726.232951	-3.006900	3.726800	-11.205000	24.655911	0.000516	20.877300
727.240306	-2.983500	3.725700	-11.115000	24.659814	0.000516	20.871260
728.237101	-3.016200	3.725000	-11.234000	24.658296	0.000517	20.882538
729.246940	-2.974600	3.725400	-11.080000	24.625864	0.000518	20.870859
730.236173	-2.979600	3.725600	-11.100000	24.625687	0.000515	20.876370
731.242890	-2.999600	3.724000	-11.170000	24.612728	0.000514	20.881385
732.247646	-2.987500	3.724800	-11.127000	24.619614	0.000518	20.871225
733.246142	-2.996000	3.724200	-11.156000	24.617624	0.000515	20.871125
734.238082	-2.975600	3.724300	-11.081000	24.612846	0.000516	20.874391
735.242227	-3.011600	3.724400	-11.215000	24.625927	0.000517	20.858121
736.241608	-3.011400	3.724500	-11.214000	24.627567	0.000518	20.841749
737.243369	-2.995300	3.722600	-11.149000	24.613736	0.000517	20.871966
738.249339	-2.997800	3.724400	-11.164000	24.591897	0.000516	20.864277
739.242873	-3.010200	3.724000	-11.210000	24.604783	0.000517	20.860138
740.255883	-2.985400	3.723200	-11.114000	24.614727	0.000517	20.871537
741.241163	-3.007400	3.723600	-11.197000	24.624228	0.000516	20.857364
742.243265	-3.004900	3.722100	-11.183000	24.634721	0.000515	20.867893
743.242009	-2.993600	3.720900	-11.138000	24.627286	0.000516	20.871337
744.247714	-2.975600	3.722400	-11.075000	24.655883	0.000516	20.849773
745.245733	-2.989700	3.722500	-11.128000	24.651210	0.000514	20.855989
746.241150	-3.001300	3.721500	-11.168000	24.633004	0.000515	20.856213
747.246030	-2.988600	3.720900	-11.119000	24.670856	0.000514	20.857685
748.251292	-3.009600	3.720700	-11.197000	24.677321	0.000514	20.847578
749.256691	-2.994400	3.719700	-11.138000	24.704355	0.000515	20.871859
750.243304	-2.999400	3.721400	-11.162000	24.709277	0.000515	20.868738
751.253362	-3.013000	3.720200	-11.208000	24.710693	0.000514	20.861624
752.241328	-2.985600	3.719700	-11.105000	24.723973	0.000513	20.849347
753.246897	-3.004300	3.719500	-11.174000	24.713057	0.000513	20.857359
754.242498	-3.010400	3.719500	-11.197000	24.695472	0.000513	20.843507
755.257812	-3.003700	3.718500	-11.168000	24.729892	0.000513	20.851968
756.243202	-2.976400	3.720600	-11.073000	24.752497	0.000513	20.853790
757.255904	-3.022100	3.717700	-11.235000	24.740312	0.000515	20.838243
758.245223	-3.001300	3.718300	-11.159000	24.702212	0.000511	20.861175
759.255692	-2.987900	3.717600	-11.106000	24.744117	0.000512	20.846803
760.262115	-2.989800	3.719000	-11.118000	24.759932	0.000514	20.858880
761.242437	-3.005700	3.717000	-11.171000	24.713975	0.000512	20.860651
762.247193	-2.996200	3.717100	-11.137000	24.720395	0.000515	20.856188
763.244309	-3.015100	3.718200	-11.209000	24.713157	0.000512	20.853192
764.247124	-2.993800	3.717200	-11.127000	24.690477	0.000514	20.856511
765.244610	-3.009700	3.716600	-11.185000	24.687394	0.000512	20.822599
766.250423	-3.005400	3.716800	-11.170000	24.682846	0.000512	20.848854
767.251494	-2.989700	3.717200	-11.112000	24.679961	0.000513	20.823675
768.249516	-2.990300	3.716700	-11.113000	24.684536	0.000512	20.848180
769.264790	-3.003000	3.716300	-11.159000	24.645244	0.000511	20.838624
770.258500	-3.020200	3.715000	-11.219000	24.689636	0.000513	20.832435
771.247356	-2.991800	3.715800	-11.116000	24.675908	0.000513	20.857065
772.243948	-2.996600	3.715500	-11.132000	24.678871	0.000509	20.845340
773.244760	-2.991500	3.714300	-11.111000	24.650844	0.000509	20.833338
774.248839	-2.987200	3.715500	-11.098000	24.689841	0.000509	20.844968
775.250783	-2.991300	3.714800	-11.111000	24.740671	0.000509	20.843819
776.261190	-2.990700	3.713800	-11.106000	24.777152	0.000511	20.853402
777.260362	-2.999900	3.714900	-11.143000	24.770367	0.000508	20.862714
778.260547	-2.979000	3.715000	-11.066000	24.750078	0.000508	20.852785
779.257674	-3.009600	3.712200	-11.171000	24.723716	0.000510	20.836288
780.261919	-2.972200	3.714200	-11.038000	24.741148	0.000508	20.857574
781.249698	-3.005300	3.713500	-11.158000	24.733663	0.000507	20.850537
782.257486	-3.002600	3.713300	-11.149000	24.778577	0.000507	20.849142
783.250933	-3.007600	3.711600	-11.163000	24.724488	0.000509	20.850339
784.276572	-2.997000	3.712300	-11.126000	24.737843	0.000506	20.840033
785.266200	-3.003700	3.713700	-11.154000	24.753981	0.000504	20.847218
786.257108	-2.973800	3.712500	-11.039000	24.737171	0.000508	20.861168
787.257533	-3.017300	3.712000	-11.200000	24.774125	0.000506	20.848941
788.260773	-3.024900	3.709600	-11.219000	24.772012	0.000504	20.837339
789.268096	-2.990900	3.710900	-11.098000	24.764350	0.000505	20.832495
790.253165	-3.001100	3.712200	-11.139000	24.780165	0.000505	20.850261
791.255640	-2.987200	3.710700	-11.084000	24.756043	0.000503	20.845495
792.256943	-2.984800	3.710300	-11.073000	24.780190	0.000504	20.850286
793.258062	-2.993000	3.711300	-11.107000	24.761411	0.000504	20.833812
794.272379	-2.977400	3.709900	-11.046000	24.810773	0.000501	20.835934
795.257807	-3.011100	3.710200	-11.171000	24.799109	0.000505	20.845091
796.264320	-3.007600	3.708400	-11.153000	24.814873	0.000503	20.841471
797.266348	-3.007600	3.709600	-11.156000	24.816363	0.000505	20.851501
798.274068	-2.995000	3.710600	-11.111000	24.819220	0.000503	20.831136
799.259464	-2.995800	3.709400	-11.112000	24.828444	0.000503	20.826643
800.262387	-3.004300	3.709300	-11.143000	24.835109	0.000502	20.842814
801.258111	-2.998400	3.708200	-11.117000	24.844680	0.000502	20.844359
802.258424	-3.007000	3.708100	-11.149000	24.852559	0.000503	20.840888
803.261664	-2.983200	3.708500	-11.062000	24.852437	0.000503	20.839816
804.265173	-3.000100	3.707200	-11.122000	24.787211	0.000504	20.821772
805.263784	-2.983700	3.708500	-11.064000	24.803969	0.000503	20.836219
806.272650	-2.999400	3.707000	-11.118000	24.809366	0.000502	20.805600
807.271195	-2.993600	3.705800	-11.093000	24.791288	0.000504	20.813061
808.256327	-2.969400	3.707700	-11.008000	24.790888	0.000503	20.818824
809.269899	-2.985000	3.707200	-11.065000	24.767217	0.000502	20.806923
810.269210	-3.005500	3.705800	-11.137000	24.781143	0.000500	20.812838
811.263738	-3.013100	3.705600	-11.165000	24.748740	0.000504	20.824890
812.259264	-3.014900	3.704200	-11.167000	24.761847	0.000499	20.833776
813.258457	-3.012200	3.703800	-11.155000	24.788428	0.000499	20.826312
814.277668	-3.006100	3.704900	-11.136000	24.802850	0.000500	20.827035
815.266684	-2.986800	3.704900	-11.065000	24.747570	0.000500	20.827983
816.267401	-2.992900	3.705500	-11.089000	24.785546	0.000500	20.821523
817.266299	-3.004500	3.704100	-11.129000	24.758192	0.000499	20.803082
818.267618	-2.987100	3.705300	-11.067000	24.784528	0.000500	20.811967
819.269586	-2.995700	3.704100	-11.096000	24.812949	0.000498	20.838118
820.266952	-3.024300	3.703700	-11.200000	24.846618	0.000499	20.816907
821.270744	-2.980100	3.705100	-11.040000	24.847615	0.000499	20.812218
822.270474	-2.981100	3.703000	-11.038000	24.813153	0.000496	20.795650
823.275768	-3.005500	3.702700	-11.126000	24.832449	0.000499	20.812170
824.273542	-2.992000	3.701700	-11.075000	24.847765	0.000499	20.794351
825.276156	-2.996300	3.702900	-11.094000	24.872636	0.000500	20.811726
826.265841	-2.962000	3.703100	-10.968000	24.903071	0.000499	20.798176
827.269146	-3.003100	3.701500	-11.116000	24.877113	0.000497	20.805313
828.276990	-3.020900	3.701400	-11.181000	24.842949	0.000497	20.818915
829.271450	-3.019500	3.700800	-11.174000	24.791279	0.000497	20.803095
830.273731	-2.976800	3.702700	-11.021000	24.797323	0.000497	20.807739
831.268791	-2.991900	3.701500	-11.074000	24.807893	0.000498	20.832096
832.280463	-2.982500	3.701000	-11.037000	24.817417	0.000496	20.805145
833.273034	-2.980700	3.700500	-11.029000	24.798098	0.000497	20.815154
834.281215	-3.009900	3.700300	-11.137000	24.811752	0.000495	20.807520
835.273360	-3.006500	3.699500	-11.122000	24.824508	0.000496	20.797563
836.276921	-2.992800	3.699800	-11.071000	24.812052	0.000496	20.798812
837.276296	-3.015200	3.699700	-11.155000	24.813919	0.000497	20.808747
838.283419	-3.012900	3.699600	-11.146000	24.796015	0.000496	20.814961
839.290174	-2.995600	3.699700	-11.081000	24.847090	0.000495	20.798416
840.283774	-2.953500	3.700000	-10.927000	24.868253	0.000495	20.805430
841.286350	-3.018200	3.698700	-11.163000	24.908609	0.000495	20.813691
842.272850	-3.023200	3.697600	-11.178000	24.895656	0.000494	20.794053
843.290154	-2.992500	3.699700	-11.071000	24.876439	0.000493	20.785197
844.282050	-3.002400	3.698900	-11.105000	24.867092	0.000495	20.786722
845.283286	-2.993500	3.696800	-11.065000	24.882160	0.000495	20.797103
846.275688	-2.998100	3.697700	-11.085000	24.847775	0.000494	20.816172
847.275023	-3.024600	3.697200	-11.181000	24.831212	0.000496	20.791488
848.288132	-3.000700	3.697500	-11.094000	24.815948	0.000495	20.790394
849.284529	-2.997600	3.697500	-11.082000	24.820375	0.000495	20.816174
850.281788	-2.994800	3.695700	-11.066000	24.850042	0.000494	20.802326
851.299767	-3.005700	3.696400	-11.109000	24.891591	0.000495	20.792343
852.281195	-2.993900	3.696000	-11.065000	24.890053	0.000494	20.806922
853.296792	-2.984200	3.697400	-11.033000	24.942691	0.000494	20.797639
854.288152	-3.010200	3.695400	-11.123000	24.947590	0.000494	20.782642
855.280043	-3.006900	3.696600	-11.114000	24.946200	0.000492	20.791678
856.282766	-2.994600	3.695500	-11.066000	24.913429	0.000489	20.802408
857.288320	-3.020800	3.695400	-11.161000	24.882324	0.000490	20.802483
858.285887	-2.993800	3.694300	-11.059000	24.870616	0.000494	20.781249
859.282422	-3.017700	3.694400	-11.148000	24.867561	0.000490	20.795253
860.285604	-2.999700	3.695700	-11.085000	24.855380	0.000494	20.803890
861.290361	-2.988200	3.695300	-11.042000	24.852496	0.000490	20.820435
862.282816	-2.996700	3.694000	-11.068000	24.879252	0.000489	20.800348
863.288366	-3.004000	3.693800	-11.096000	24.894370	0.000492	20.803667
864.296697	-3.031000	3.693700	-11.195000	24.886888	0.000491	20.804219
865.285005	-3.000900	3.693300	-11.083000	24.928811	0.000490	20.808363
866.288656	-3.002200	3.694000	-11.089000	24.929061	0.000490	20.796286
867.290756	-2.994000	3.692800	-11.056000	24.891270	0.000490	20.798185
868.291175	-2.989200	3.693400	-11.039000	24.883488	0.000490	20.792272
869.302794	-2.984600	3.692600	-11.020000	24.889682	0.000488	20.788531
870.287478	-2.988400	3.692500	-11.034000	24.904180	0.000489	20.791703
871.289216	-3.012500	3.692200	-11.122000	24.887773	0.000491	20.795624
872.287021	-2.986000	3.692600	-11.025000	24.886233	0.000491	20.796923
873.280840	-2.994100	3.691900	-11.053000	24.920025	0.000489	20.791484
874.283066	-3.014900	3.691700	-11.129000	24.921844	0.000489	20.794733
875.288496	-3.016000	3.690800	-11.131000	24.897228	0.000489	20.821709
876.287778	-3.036900	3.691200	-11.208000	24.853570	0.000485	20.794013
877.289256	-3.025600	3.688400	-11.159000	24.885893	0.000487	20.818867
878.288342	-3.003100	3.690200	-11.081000	24.864886	0.000486	20.796835
879.286866	-3.010800	3.689900	-11.109000	24.855314	0.000489	20.790548
880.293919	-2.990700	3.690200	-11.035000	24.872970	0.000486	20.801629
881.292980	-2.994600	3.689000	-11.046000	24.830505	0.000485	20.789356
882.291223	-3.028000	3.687500	-11.164000	24.799717	0.000483	20.804926
883.284924	-2.989600	3.689600	-11.028000	24.818446	0.000484	20.794324
884.288732	-3.004800	3.689600	-11.086000	24.817103	0.000485	20.817158
885.290741	-3.002800	3.688800	-11.076000	24.822453	0.000484	20.798820
886.294282	-3.012200	3.688800	-11.110000	24.856644	0.000483	20.809426
887.289553	-2.995500	3.688500	-11.047000	24.863556	0.000482	20.788862
888.297987	-3.013800	3.687100	-11.111000	24.933824	0.000481	20.788739
889.287334	-2.994300	3.688900	-11.044000	24.952595	0.000483	20.808528
890.292093	-2.986000	3.687000	-11.009000	24.968457	0.000481	20.788413
891.298020	-2.991800	3.687600	-11.032000	24.989767	0.000477	20.801268
892.293063	-3.006700	3.686900	-11.084000	24.951476	0.000480	20.791283
893.293570	-3.000000	3.688200	-11.063000	24.996650	0.000480	20.788737
894.295907	-2.998200	3.686000	-11.050000	24.995086	0.000479	20.803762
895.292049	-2.982800	3.687600	-10.999000	24.990859	0.000480	20.793355
896.290445	-2.976200	3.687500	-10.973000	24.973901	0.000478	20.786291
897.292793	-3.000000	3.685900	-11.057000	24.961468	0.000479	20.800365
898.295727	-2.987400	3.686900	-11.013000	24.983843	0.000480	20.813340
899.294204	-3.007100	3.687000	-11.087000	24.966962	0.000477	20.796870
900.297268	-3.011400	3.685800	-11.098000	24.952141	0.000476	20.801908
901.297017	-2.977200	3.684700	-10.969000	24.913926	0.000478	20.800535
902.295510	-3.002700	3.684000	-11.061000	24.883416	0.000478	20.782716
903.298930	-2.991000	3.684200	-11.018000	24.884610	0.000476	20.786760
904.309511	-3.000300	3.684600	-11.054000	24.866530	0.000476	20.789477
905.295549	-3.000000	3.684800	-11.053000	24.907532	0.000476	20.770884
906.297119	-3.017300	3.683800	-11.115000	24.950448	0.000477	20.798787
907.303562	-3.002400	3.683000	-11.057000	24.938786	0.000478	20.790400
908.311324	-3.034900	3.682600	-11.175000	24.927423	0.000475	20.790375
909.303870	-2.996100	3.682800	-11.033000	24.937469	0.000477	20.811837
910.313699	-3.027500	3.682700	-11.149000	25.003079	0.000477	20.794241
911.316492	-2.988900	3.682500	-11.006000	24.979534	0.000477	20.797161
912.310529	-3.012500	3.683300	-11.094000	24.991296	0.000476	20.793320
913.301519	-3.003900	3.681700	-11.059000	24.954225	0.000477	20.795939
914.298683	-3.010300	3.681500	-11.082000	24.970039	0.000478	20.800433
915.299012	-2.992600	3.682700	-11.020000	24.987467	0.000477	20.802279
916.309695	-3.017800	3.681100	-11.108000	24.948659	0.000477	20.799836
917.303651	-2.985300	3.681300	-10.988000	24.889335	0.000475	20.820899
918.299608	-2.988600	3.681400	-11.001000	24.906839	0.000473	20.807174
919.301491	-3.006700	3.679900	-11.064000	24.893861	0.000474	20.798890
920.302885	-2.981000	3.681300	-10.972000	24.926386	0.000474	20.792179
921.297492	-3.021000	3.680200	-11.116000	24.924371	0.000474	20.807226
922.307481	-3.001900	3.680500	-11.048000	24.948314	0.000474	20.794274
923.303013	-2.966000	3.681700	-10.919000	24.970299	0.000473	20.800694
924.306109	-3.010300	3.679700	-11.075000	24.974228	0.000471	20.812224
925.298172	-3.014400	3.677800	-11.085000	24.984123	0.000474	20.799397
926.307547	-2.980500	3.678900	-10.964000	24.954338	0.000470	20.789414
927.305917	-2.974000	3.678700	-10.939000	24.967915	0.000471	20.798774
928.307118	-3.003700	3.678000	-11.046000	24.944197	0.000471	20.814323
929.305883	-3.000200	3.677700	-11.033000	24.968887	0.000471	20.801173
930.308339	-2.987000	3.678900	-10.988000	24.984378	0.000468	20.790169
931.306070	-2.993200	3.678200	-11.009000	24.961034	0.000472	20.796135
932.309925	-2.974100	3.677900	-10.938000	24.961606	0.000470	20.803348
933.308917	-2.990000	3.677300	-10.994000	24.939926	0.000469	20.790596
934.305855	-3.005100	3.676300	-11.047000	24.953503	0.000469	20.820819
935.299428	-2.998300	3.676600	-11.023000	24.969442	0.000469	20.820221
936.309063	-2.980000	3.677200	-10.957000	24.969942	0.000469	20.792748
937.306653	-3.018200	3.676000	-11.094000	24.983988	0.000468	20.789778
938.309700	-2.988000	3.677500	-10.987000	24.999877	0.000466	20.814261
939.307139	-3.015200	3.675800	-11.082000	24.983346	0.000469	20.819005
940.310104	-2.998800	3.675700	-11.022000	25.009649	0.000467	20.806052
941.310194	-3.009000	3.674700	-11.057000	25.032351	0.000465	20.823623
942.307226	-3.001000	3.675600	-11.030000	25.028449	0.000466	20.811647
943.305122	-3.005500	3.675300	-11.045000	25.013136	0.000466	20.796750
944.322476	-3.030800	3.674900	-11.137000	25.015820	0.000466	20.809876
945.311034	-2.994400	3.674700	-11.002000	24.986735	0.000466	20.805338
946.308800	-2.991700	3.675200	-10.995000	24.978580	0.000468	20.797152
947.312783	-2.988700	3.673500	-10.978000	25.019554	0.000466	20.806986
948.311443	-2.994200	3.673300	-10.998000	24.989150	0.000466	20.792114
949.310538	-3.016900	3.671900	-11.077000	25.004763	0.000465	20.808734
950.313919	-3.000800	3.673200	-11.022000	24.994174	0.000464	20.809010
951.314070	-3.009000	3.672200	-11.048000	25.021696	0.000465	20.825731
952.311264	-3.015200	3.671600	-11.069000	25.008867	0.000467	20.808586
953.312917	-3.000800	3.673100	-11.021000	25.008745	0.000463	20.815102
954.308498	-3.013600	3.671800	-11.065000	25.012052	0.000464	20.828378
955.313816	-2.974500	3.671500	-10.920000	25.009567	0.000465	20.808341
956.316106	-2.999400	3.670400	-11.008000	25.032916	0.000464	20.830829
957.311109	-3.001200	3.670600	-11.015000	25.036592	0.000461	20.811760
958.309699	-2.995500	3.669700	-10.992000	25.072219	0.000462	20.792521
959.310808	-2.995800	3.671100	-10.997000	25.044675	0.000462	20.813709
960.313669	-3.021600	3.670800	-11.090000	25.063319	0.000462	20.823416
961.313123	-3.003400	3.670400	-11.023000	25.029757	0.000461	20.816278
962.312757	-3.017500	3.669800	-11.072000	25.034530	0.000460	20.816329
963.315779	-2.995100	3.669200	-10.989000	25.060335	0.000459	20.834170
964.315914	-3.018400	3.668300	-11.072000	25.069135	0.000462	20.829727
965.314003	-3.004100	3.669300	-11.023000	25.051783	0.000460	20.824637
966.312239	-3.018800	3.668600	-11.074000	25.037462	0.000458	20.820219
967.315753	-2.997800	3.668500	-10.996000	25.014216	0.000460	20.818697
968.326421	-3.022000	3.667200	-11.081000	25.027192	0.000458	20.833144
969.314535	-2.993900	3.667400	-10.979000	25.022939	0.000457	20.821288
970.318730	-2.974600	3.667400	-10.907000	25.032136	0.000457	20.821985
971.312428	-2.984500	3.667000	-10.942000	25.038674	0.000458	20.820962
972.317200	-2.986700	3.667800	-10.954000	25.041653	0.000458	20.842444
973.313782	-2.976500	3.668000	-10.917000	25.058558	0.000457	20.832386
974.318525	-2.992300	3.666800	-10.971000	25.057413	0.000457	20.809427
975.319940	-2.992100	3.666800	-10.971000	25.081948	0.000459	20.825994
976.319935	-2.986800	3.666800	-10.951000	25.109938	0.000457	20.831807
977.314312	-3.002300	3.667200	-11.008000	25.052785	0.000456	20.820901
978.319082	-2.994800	3.666700	-10.980000	25.047611	0.000456	20.806700
979.327603	-2.974400	3.666200	-10.904000	25.072523	0.000457	20.824594
980.317235	-3.024300	3.665400	-11.085000	25.053502	0.000457	20.828259
981.329354	-3.004900	3.665100	-11.012000	25.096335	0.000456	20.831902
982.329571	-3.018900	3.664600	-11.062000	25.133699	0.000456	20.827211
983.329723	-2.959000	3.666300	-10.848000	25.116843	0.000455	20.810290
984.332294	-2.989100	3.664100	-10.952000	25.092454	0.000454	20.835592
985.315472	-2.989700	3.664800	-10.956000	25.053647	0.000454	20.843103
986.318837	-3.011600	3.663800	-11.033000	25.071771	0.000455	20.829529
987.320829	-2.996100	3.663400	-10.974000	25.115274	0.000454	20.819619
988.318179	-3.008300	3.663600	-11.021000	25.094218	0.000454	20.825036
989.324690	-2.992300	3.662600	-10.959000	25.055859	0.000455	20.812133
990.321902	-2.976200	3.662800	-10.900000	25.038979	0.000453	20.807517
991.322196	-2.988600	3.663000	-10.946000	25.048101	0.000452	20.818097
992.329655	-2.979800	3.662800	-10.913000	25.044100	0.000454	20.834942
993.320778	-2.993300	3.663000	-10.964000	25.052797	0.000451	20.825655
994.334104	-3.003500	3.662600	-11.000000	25.109478	0.000454	20.835138
995.321399	-2.976600	3.661700	-10.897000	25.120717	0.000453	20.838359
996.320852	-3.024300	3.662200	-11.075000	25.118302	0.000452	20.847315
997.336883	-2.985500	3.661000	-10.929000	25.103560	0.000451	20.831094
998.323684	-3.002500	3.660700	-10.990000	25.102393	0.000452	20.826129
999.324617	-3.012100	3.661500	-11.027000	25.087106	0.000451	20.841129
1000.325786	-3.015000	3.659700	-11.032000	25.058590	0.000450	20.829100
1001.336123	-3.001900	3.660200	-10.987000	25.092699	0.000451	20.821614
1002.335720	-3.000300	3.661300	-10.984000	25.089865	0.000451	20.840579
1003.335735	-2.996800	3.660200	-10.968000	25.057101	0.000450	20.836613
1004.324870	-3.003800	3.659100	-10.991000	25.068784	0.000449	20.835539
1005.339573	-3.008300	3.659500	-11.008000	25.060779	0.000451	20.811857
1006.332559	-3.009900	3.659300	-11.013000	25.060285	0.000449	20.826533
1007.328799	-2.980600	3.658700	-10.905000	25.030304	0.000450	20.826784
1008.337667	-2.984100	3.660100	-10.922000	25.086066	0.000449	20.833921
1009.335292	-2.993800	3.658400	-10.952000	25.096708	0.000448	20.822319
1010.329997	-2.992900	3.657100	-10.944000	25.105235	0.000447	20.831827
1011.335683	-2.989200	3.658700	-10.935000	25.091934	0.000448	20.839338
1012.333071	-2.997800	3.658700	-10.967000	25.093201	0.000446	20.846773
1013.332343	-3.021300	3.657000	-11.047000	25.067303	0.000447	20.829785
1014.332664	-3.015000	3.656100	-11.022000	25.047316	0.000445	20.850025
1015.340257	-3.002700	3.656200	-10.977000	25.042518	0.000446	20.853268
1016.334562	-2.993000	3.657100	-10.946000	25.052365	0.000447	20.834230
1017.340607	-2.983500	3.656500	-10.909000	25.060595	0.000447	20.857189
1018.349290	-2.991700	3.655100	-10.934000	25.061664	0.000446	20.857315
1019.335561	-2.987900	3.655200	-10.920000	25.053362	0.000446	20.844714
1020.335327	-2.975900	3.656400	-10.880000	25.058388	0.000445	20.857819
1021.343837	-2.987400	3.656400	-10.922000	25.035842	0.000443	20.857473
1022.339195	-3.004300	3.654100	-10.977000	25.019929	0.000446	20.849561
1023.337283	-2.993500	3.654100	-10.938000	25.024706	0.000443	20.862889
1024.350250	-3.003200	3.655800	-10.978000	25.019187	0.000443	20.877737
1025.340860	-2.993600	3.654600	-10.940000	25.008820	0.000444	20.856901
1026.336318	-3.018300	3.652400	-11.023000	24.988560	0.000443	20.856954
1027.338415	-2.991100	3.655400	-10.933000	25.022374	0.000442	20.856756
1028.341718	-3.008000	3.653200	-10.988000	25.022699	0.000443	20.866090
1029.339936	-3.017400	3.653000	-11.021000	25.073319	0.000442	20.851470
1030.349884	-2.996900	3.652200	-10.945000	25.121894	0.000442	20.864670
1031.337141	-3.002700	3.651800	-10.963000	25.129776	0.000440	20.855040
1032.349942	-3.014000	3.649900	-10.999000	25.108549	0.000442	20.874507
1033.351123	-3.007600	3.651000	-10.980000	25.127242	0.000442	20.866720
1034.338495	-3.014000	3.650800	-11.002000	25.127867	0.000440	20.850279
1035.338027	-3.005300	3.651300	-10.973000	25.151511	0.000441	20.848884
1036.343269	-2.988300	3.651100	-10.910000	25.132098	0.000439	20.865431
1037.346352	-2.996100	3.651200	-10.939000	25.095184	0.000439	20.863462
1038.339776	-3.001900	3.650700	-10.958000	25.125194	0.000438	20.845698
1039.342944	-2.995000	3.650500	-10.932000	25.152138	0.000437	20.868953
1040.341067	-3.006800	3.649300	-10.971000	25.187289	0.000438	20.872473
1041.340667	-2.990800	3.649000	-10.913000	25.194923	0.000440	20.876344
1042.343577	-2.987800	3.649300	-10.902000	25.196865	0.000438	20.880664
1043.341896	-2.973700	3.648900	-10.849000	25.211434	0.000439	20.873479
1044.343946	-2.972600	3.649300	-10.847000	25.209175	0.000435	20.869789
1045.340539	-2.986800	3.648900	-10.897000	25.207333	0.000437	20.878845
1046.340529	-2.993800	3.648300	-10.921000	25.205571	0.000437	20.860008
1047.341523	-2.975100	3.647000	-10.849000	25.222104	0.000434	20.869493
1048.340098	-2.972500	3.647600	-10.841000	25.209430	0.000437	20.888536
1049.343616	-3.011200	3.647200	-10.982000	25.183182	0.000438	20.875936
1050.343441	-2.984400	3.646700	-10.882000	25.192775	0.000436	20.873239
1051.348403	-3.017100	3.645900	-10.998000	25.204188	0.000436	20.869524
1052.346569	-3.006900	3.646300	-10.963000	25.190766	0.000433	20.873593
1053.344485	-3.033100	3.644800	-11.054000	25.196014	0.000435	20.876490
1054.343961	-3.004500	3.646500	-10.955000	25.197681	0.000435	20.863466
1055.348714	-2.993100	3.645700	-10.911000	25.189802	0.000433	20.877840
1056.344989	-3.005200	3.645300	-10.954000	25.198778	0.000435	20.863145
1057.348282	-3.015200	3.645300	-10.990000	25.243722	0.000434	20.864171
1058.360607	-2.960100	3.645700	-10.791000	25.228012	0.000434	20.901501
1059.347220	-2.991800	3.644100	-10.901000	25.244072	0.000433	20.872583
1060.348543	-2.982000	3.643600	-10.864000	25.251756	0.000434	20.897839
1061.350214	-3.024300	3.642900	-11.016000	25.267319	0.000434	20.888809
1062.347190	-3.002700	3.644300	-10.941000	25.225087	0.000432	20.883393
1063.347110	-2.995900	3.642200	-10.909000	25.219297	0.000434	20.884692
1064.348731	-3.015600	3.641900	-10.982000	25.188673	0.000431	20.876233
1065.353696	-3.009600	3.643400	-10.964000	25.168864	0.000433	20.879580
1066.350303	-3.023900	3.641600	-11.011000	25.179905	0.000431	20.900619
1067.349473	-2.988700	3.643200	-10.888000	25.174435	0.000429	20.904136
1068.351594	-2.993900	3.640400	-10.898000	25.230368	0.000429	20.885375
1069.354223	-2.998600	3.642800	-10.922000	25.203225	0.000429	20.908384
1070.355419	-2.987500	3.641300	-10.878000	25.156120	0.000426	20.899975
1071.350117	-2.967100	3.642400	-10.806000	25.155001	0.000429	20.911178
1072.350579	-2.997700	3.640400	-10.912000	25.167433	0.000430	20.911805
1073.352602	-3.008600	3.639400	-10.948000	25.210312	0.000428	20.910757
1074.356348	-3.008500	3.639900	-10.950000	25.228981	0.000428	20.903422
1075.352202	-3.020700	3.639600	-10.993000	25.221228	0.000425	20.916025
1076.352609	-2.971700	3.639700	-10.815000	25.235221	0.000427	20.903048
1077.355067	-2.981700	3.640500	-10.854000	25.214841	0.000425	20.927155
1078.353613	-2.991100	3.639600	-10.885000	25.237782	0.000424	20.897086
1079.352522	-2.978800	3.640200	-10.842000	25.205473	0.000426	20.907321
1080.352192	-2.996700	3.639000	-10.904000	25.202117	0.000425	20.915805
1081.353922	-3.001600	3.638600	-10.920000	25.216807	0.000421	20.907321
1082.354011	-2.986900	3.637500	-10.864000	25.201122	0.000424	20.915280
1083.356902	-2.981400	3.637800	-10.845000	25.240249	0.000425	20.919001
1084.352572	-3.009700	3.637700	-10.947000	25.277336	0.000426	20.890331
1085.364774	-3.001700	3.637300	-10.917000	25.323816	0.000422	20.907126
1086.352208	-2.998900	3.636800	-10.905000	25.361047	0.000421	20.919377
1087.354096	-3.003300	3.637200	-10.923000	25.355405	0.000424	20.907549
1088.367167	-3.016600	3.636100	-10.968000	25.289914	0.000422	20.911967
1089.351512	-2.997100	3.637500	-10.901000	25.300504	0.000423	20.902686
1090.352550	-3.012700	3.636300	-10.953000	25.260065	0.000421	20.927515
1091.352414	-3.008100	3.635500	-10.935000	25.224847	0.000422	20.911599
1092.351850	-2.995200	3.635300	-10.887000	25.200713	0.000422	20.907758
1093.354363	-3.007500	3.633900	-10.929000	25.185525	0.000422	20.916691
1094.351912	-3.030900	3.634000	-11.013000	25.228278	0.000421	20.912198
1095.356588	-2.998200	3.634600	-10.896000	25.263107	0.000424	20.903544
1096.354727	-2.997200	3.632700	-10.887000	25.263779	0.000420	20.909909
1097.359883	-3.003800	3.633400	-10.913000	25.268652	0.000421	20.938031
1098.368275	-3.004800	3.633000	-10.915000	25.230773	0.000421	20.914229
1099.353542	-2.994200	3.632900	-10.876000	25.249492	0.000420	20.925908
1100.355036	-2.995200	3.633900	-10.883000	25.275938	0.000419	20.935390
1101.354661	-3.006600	3.631700	-10.918000	25.270127	0.000419	20.916755
1102.354648	-3.019400	3.630300	-10.960000	25.248153	0.000417	20.907496
1103.354980	-2.989200	3.632300	-10.857000	25.254817	0.000417	20.928410
1104.363080	-2.989600	3.631200	-10.854000	25.252731	0.000418	20.913515
1105.365618	-2.969600	3.631400	-10.783000	25.226759	0.000417	20.936748
1106.357851	-2.994800	3.630700	-10.872000	25.213610	0.000414	20.942987
1107.358678	-2.996600	3.630600	-10.878000	25.232479	0.000416	20.917837
1108.359738	-3.007500	3.630800	-10.919000	25.283561	0.000416	20.936405
1109.358623	-3.010000	3.630400	-10.927000	25.311696	0.000416	20.933360
1110.364802	-3.016500	3.629100	-10.947000	25.314135	0.000414	20.934386
1111.364999	-3.017000	3.628600	-10.946000	25.339686	0.000413	20.936333
1112.372287	-3.019700	3.628900	-10.957000	25.385788	0.000414	20.939476
1113.361190	-3.016600	3.627900	-10.941000	25.364914	0.000414	20.937482
1114.364982	-3.006400	3.628000	-10.907000	25.369114	0.000413	20.945491
1115.359705	-2.992300	3.629100	-10.859000	25.316919	0.000415	20.940974
1116.365358	-2.992700	3.628100	-10.857000	25.303424	0.000411	20.934063
1117.361681	-2.995600	3.626800	-10.864000	25.275038	0.000411	20.929746
1118.360230	-2.983900	3.627900	-10.825000	25.257565	0.000411	20.939702
1119.384449	-2.997200	3.626800	-10.870000	25.278541	0.000411	20.927099
1120.359336	-2.989900	3.626800	-10.843000	25.264151	0.000411	20.941573
1121.361725	-2.993000	3.627100	-10.855000	25.273919	0.000411	20.945215
1122.362342	-3.036500	3.626300	-11.010000	25.259776	0.000410	20.940974
1123.366986	-2.998000	3.626400	-10.871000	25.250381	0.000410	20.941024
1124.365579	-3.018400	3.625400	-10.942000	25.248639	0.000410	20.953498
1125.368432	-3.015800	3.624700	-10.930000	25.230692	0.000412	20.959661
1126.364025	-3.021900	3.624900	-10.952000	25.261562	0.000408	20.953671
1127.369776	-2.986800	3.625100	-10.826000	25.254800	0.000409	20.971061
1128.371789	-2.997300	3.623700	-10.860000	25.227139	0.000410	20.948509
1129.373363	-2.996700	3.624700	-10.861000	25.268349	0.000408	20.956217
1130.363533	-3.004000	3.623600	-10.884000	25.331630	0.000406	20.942942
1131.368443	-2.976500	3.624300	-10.787000	25.331086	0.000407	20.970841
1132.373742	-3.008000	3.621700	-10.893000	25.323530	0.000407	20.971789
1133.368255	-3.011700	3.622200	-10.908000	25.340158	0.000409	20.954823
1134.366407	-3.008500	3.621300	-10.894000	25.324199	0.000407	20.954446
1135.372936	-2.990900	3.622800	-10.833000	25.314980	0.000408	20.957991
1136.375215	-2.992100	3.621900	-10.836000	25.368392	0.000409	20.944292
1137.374613	-3.013000	3.620300	-10.907000	25.373811	0.000406	20.970593
1138.368342	-2.986300	3.620400	-10.811000	25.349230	0.000404	20.955397
1139.372326	-3.008000	3.620000	-10.888000	25.387308	0.000406	20.935786
1140.376360	-2.985600	3.621600	-10.812000	25.353186	0.000406	20.981176
1141.367654	-2.998800	3.620300	-10.856000	25.347247	0.000404	20.970473
1142.369928	-3.002700	3.620000	-10.868000	25.381247	0.000405	20.967155
1143.371932	-3.003600	3.619800	-10.872000	25.356394	0.000404	20.964486
1144.370924	-3.013100	3.618900	-10.903000	25.398822	0.000402	20.952087
1145.371634	-3.013900	3.617500	-10.902000	25.381672	0.000401	20.968529
1146.368479	-3.025800	3.618900	-10.949000	25.332439	0.000398	20.965562
1147.371099	-3.017000	3.619100	-10.918000	25.307857	0.000399	20.962219
1148.371523	-3.008900	3.618400	-10.887000	25.306588	0.000399	20.944351
1149.382441	-3.010500	3.618000	-10.891000	25.302115	0.000402	20.975418
1150.373163	-3.008700	3.617200	-10.882000	25.330300	0.000399	20.931651
1151.373287	-3.011200	3.616200	-10.888000	25.315338	0.000399	20.977314
1152.388081	-3.021800	3.617000	-10.928000	25.302713	0.000397	20.965587
1153.386361	-3.009100	3.617600	-10.885000	25.306263	0.000397	20.957773
1154.374338	-2.986800	3.615500	-10.798000	25.351447	0.000398	20.965208
1155.381238	-3.047000	3.614200	-11.011000	25.388827	0.000398	20.954379
1156.378802	-2.996300	3.615800	-10.833000	25.324652	0.000397	20.939730
1157.382351	-3.020400	3.615900	-10.920000	25.327908	0.000396	20.956273
1158.379815	-2.979900	3.615200	-10.773000	25.275038	0.000396	20.962458
1159.381241	-2.981500	3.614700	-10.776000	25.268002	0.000395	20.949705
1160.378626	-3.014100	3.614300	-10.893000	25.291540	0.000395	20.949156
1161.379758	-3.003900	3.615100	-10.859000	25.292256	0.000394	20.940868
1162.381387	-2.999300	3.613700	-10.837000	25.280722	0.000394	20.944934
1163.375891	-2.994200	3.613300	-10.818000	25.225786	0.000393	20.953314
1164.384925	-3.016100	3.613300	-10.897000	25.238685	0.000392	20.959151
1165.379882	-3.012100	3.613300	-10.883000	25.265776	0.000394	20.953160
1166.385887	-3.017500	3.612000	-10.898000	25.285136	0.000395	20.937038
1167.378294	-3.008700	3.613200	-10.870000	25.304123	0.000394	20.949937
1168.385112	-3.014300	3.611400	-10.885000	25.279986	0.000394	20.927127
1169.383517	-3.014700	3.612500	-10.889000	25.277030	0.000391	20.967302
1170.380414	-3.012900	3.610900	-10.879000	25.279211	0.000392	20.926349
1171.380803	-3.006000	3.612100	-10.857000	25.277966	0.000390	20.954493
1172.383274	-3.013800	3.611000	-10.882000	25.304729	0.000390	20.912143
1173.380649	-2.998400	3.611500	-10.828000	25.342605	0.000389	20.940686
1174.389445	-2.980600	3.611600	-10.764000	25.350233	0.000390	20.911839
1175.382146	-3.005200	3.610200	-10.849000	25.357886	0.000389	20.907669
1176.379539	-2.997600	3.610600	-10.822000	25.405130	0.000389	20.926656
1177.380069	-2.994400	3.610000	-10.809000	25.425329	0.000392	20.936980
1178.380988	-3.010600	3.608900	-10.864000	25.497197	0.000389	20.929492
1179.379469	-3.013700	3.608500	-10.875000	25.457107	0.000387	20.913418
1180.388192	-2.987200	3.609400	-10.782000	25.452507	0.000387	20.921126
1181.384642	-2.986800	3.607600	-10.773000	25.406552	0.000389	20.924766
1182.384706	-3.002700	3.609200	-10.836000	25.378712	0.000389	20.917674
1183.384992	-2.996800	3.608500	-10.813000	25.363201	0.000386	20.918695
1184.386659	-2.980200	3.607900	-10.752000	25.343440	0.000387	20.917345
1185.386618	-2.990800	3.607100	-10.787000	25.390906	0.000387	20.908582
1186.385453	-2.986200	3.607100	-10.771000	25.405964	0.000385	20.905211
1187.388218	-3.000900	3.605800	-10.820000	25.376829	0.000387	20.893026
1188.387131	-3.001500	3.607400	-10.827000	25.369596	0.000383	20.932227
1189.398548	-2.991600	3.606600	-10.789000	25.346874	0.000387	20.905621
1190.388559	-3.004100	3.605200	-10.830000	25.334743	0.000385	20.915726
1191.389082	-3.016000	3.606600	-10.876000	25.318332	0.000384	20.900197
1192.402543	-3.016100	3.604100	-10.869000	25.318502	0.000385	20.907954
1193.389036	-3.027400	3.603300	-10.908000	25.307538	0.000386	20.918755
1194.387269	-3.006500	3.603700	-10.833000	25.342531	0.000383	20.909321
1195.393029	-3.012700	3.603100	-10.853000	25.362234	0.000384	20.902552
1196.389743	-2.999800	3.603900	-10.810000	25.398467	0.000386	20.907639
1197.390420	-3.019700	3.603500	-10.881000	25.383029	0.000385	20.894036
1198.389479	-2.987100	3.602800	-10.761000	25.398359	0.000381	20.899946
1199.390044	-2.987800	3.602500	-10.762000	25.394676	0.000385	20.896722
1200.394124	-2.991400	3.602600	-10.775000	25.422583	0.000382	20.888710
1201.391694	-3.009100	3.601800	-10.838000	25.415795	0.000381	20.909867
1202.391260	-2.992800	3.603100	-10.783000	25.357811	0.000382	20.888155
1203.391452	-3.009900	3.601800	-10.840000	25.343489	0.000382	20.888000
1204.392029	-2.968600	3.601900	-10.691000	25.343739	0.000381	20.906741
1205.391531	-3.002100	3.601100	-10.810000	25.356312	0.000380	20.867211
1206.389692	-3.005600	3.600800	-10.821000	25.331951	0.000382	20.886371
1207.391932	-3.020100	3.600900	-10.874000	25.336748	0.000380	20.872223
1208.394015	-3.018300	3.599300	-10.862000	25.325634	0.000379	20.859642
1209.392454	-2.981800	3.601100	-10.737000	25.332370	0.000380	20.880629
1210.394141	-2.989100	3.600100	-10.760000	25.352874	0.000380	20.883672
1211.393419	-2.979200	3.601000	-10.727000	25.367263	0.000378	20.882473
1212.394026	-2.975200	3.599400	-10.708000	25.372182	0.000378	20.870818
1213.392887	-2.999100	3.599300	-10.793000	25.312804	0.000378	20.888958
1214.395787	-2.997800	3.599900	-10.791000	25.361991	0.000376	20.883344
1215.393775	-2.996000	3.599100	-10.782000	25.344443	0.000378	20.874734
1216.397502	-3.004100	3.597300	-10.806000	25.331343	0.000377	20.865849
1217.395327	-3.020600	3.597600	-10.867000	25.355824	0.000377	20.877627
1218.413103	-2.999600	3.596400	-10.786000	25.340141	0.000377	20.871363
1219.398124	-3.006100	3.596600	-10.810000	25.384357	0.000376	20.868345
1220.407747	-3.015700	3.597100	-10.847000	25.419970	0.000376	20.867121
1221.395060	-2.989600	3.596900	-10.753000	25.374563	0.000376	20.895018
1222.433643	-3.017600	3.595500	-10.849000	25.393749	0.000375	20.862603
1223.398149	-3.003200	3.594400	-10.793000	25.402448	0.000375	20.868493
1224.396996	-3.018700	3.595000	-10.851000	25.383263	0.000375	20.881470
1225.400213	-3.006000	3.594500	-10.804000	25.376552	0.000375	20.883740
1226.397447	-2.998400	3.595800	-10.781000	25.349013	0.000376	20.871262
1227.397500	-3.021500	3.593900	-10.858000	25.356694	0.000376	20.876603
1228.401163	-2.975700	3.595000	-10.697000	25.343149	0.000377	20.853996
1229.398781	-3.015800	3.592700	-10.833000	25.313523	0.000375	20.889206
1230.401938	-3.002700	3.594000	-10.790000	25.302064	0.000375	20.862056
1231.422827	-2.984800	3.594100	-10.727000	25.309895	0.000375	20.877029
1232.402794	-2.989400	3.592000	-10.737000	25.337835	0.000375	20.864306
1233.410021	-2.997800	3.593100	-10.770000	25.329334	0.000374	20.860513
1234.416600	-3.024200	3.592500	-10.863000	25.373624	0.000373	20.877007
1235.404121	-3.030500	3.590900	-10.882000	25.379865	0.000373	20.866205
1236.409121	-2.981200	3.592700	-10.709000	25.411653	0.000373	20.883424
1237.417125	-3.012200	3.591300	-10.817000	25.431312	0.000373	20.881354
1238.411122	-2.980200	3.591100	-10.701000	25.447444	0.000370	20.871476
1239.417506	-3.014400	3.590300	-10.822000	25.436462	0.000371	20.866137
1240.444507	-3.002300	3.589100	-10.774000	25.416654	0.000370	20.860947
1241.406540	-2.996600	3.590700	-10.759000	25.389816	0.000370	20.870033
1242.405779	-3.002500	3.588600	-10.774000	25.382536	0.000370	20.872206
1243.418151	-2.984600	3.589500	-10.712000	25.386688	0.000369	20.873056
1244.406240	-2.984300	3.588900	-10.710000	25.419670	0.000367	20.850225
1245.406238	-3.009100	3.588200	-10.795000	25.395638	0.000367	20.852172
1246.405421	-2.985800	3.589600	-10.716000	25.410054	0.000367	20.875655
1247.405520	-2.990300	3.587100	-10.725000	25.400485	0.000366	20.861780
1248.406729	-2.984300	3.588300	-10.708000	25.379983	0.000367	20.869642
1249.406728	-2.982600	3.588200	-10.702000	25.358358	0.000365	20.849352
1250.405415	-2.981100	3.587600	-10.694000	25.375310	0.000365	20.877278
1251.405560	-2.980800	3.587100	-10.691000	25.353016	0.000365	20.849678
1252.407701	-3.004800	3.584600	-10.770000	25.381599	0.000363	20.877429
1253.418701	-2.968400	3.588100	-10.651000	25.360822	0.000364	20.879799
1254.408034	-2.967500	3.587900	-10.646000	25.354235	0.000362	20.858963
1255.405948	-2.981700	3.585600	-10.690000	25.380680	0.000367	20.846635
1256.407695	-2.986600	3.585900	-10.709000	25.390071	0.000362	20.871237
1257.406505	-2.967600	3.585000	-10.638000	25.417984	0.000362	20.876031
1258.407794	-2.999500	3.584500	-10.751000	25.380030	0.000362	20.860681
1259.410088	-2.986200	3.584600	-10.703000	25.360247	0.000361	20.859309
1260.411450	-2.991000	3.584100	-10.719000	25.396385	0.000362	20.865249
1261.414674	-2.997100	3.582700	-10.737000	25.409507	0.000361	20.855667
1262.414190	-2.989400	3.583400	-10.711000	25.397129	0.000361	20.854144
1263.410591	-2.992200	3.582700	-10.719000	25.404710	0.000360	20.857488
1264.408925	-2.978400	3.584400	-10.674000	25.403218	0.000360	20.868792
1265.410015	-3.017100	3.581200	-10.804000	25.406451	0.000361	20.856392
1266.411018	-3.007900	3.580700	-10.769000	25.423873	0.000358	20.861557
1267.409363	-2.979600	3.582700	-10.675000	25.440152	0.000360	20.851352
1268.410008	-2.962000	3.582300	-10.610000	25.438933	0.000358	20.863877
1269.412810	-3.005600	3.581500	-10.764000	25.427628	0.000359	20.845888
1270.412013	-3.003000	3.579800	-10.749000	25.441199	0.000356	20.866627
1271.411050	-2.964200	3.581100	-10.614000	25.479992	0.000359	20.857694
1272.412322	-3.019400	3.579600	-10.807000	25.482301	0.000357	20.855270
1273.414321	-3.000500	3.581200	-10.744000	25.470526	0.000357	20.845344
1274.444321	-2.994600	3.580800	-10.722000	25.443807	0.000356	20.861660
1275.423252	-2.997500	3.580300	-10.732000	25.449004	0.000355	20.846016
1276.414396	-3.034600	3.579900	-10.862000	25.464013	0.000355	20.852553
1277.414732	-3.031300	3.578400	-10.846000	25.466574	0.000355	20.848961
1278.412752	-2.985800	3.579400	-10.687000	25.485563	0.000355	20.860917
1279.418520	-2.994000	3.578900	-10.715000	25.502261	0.000357	20.876736
1280.415310	-3.005100	3.577700	-10.751000	25.509466	0.000354	20.855050
1281.414857	-3.010900	3.578600	-10.774000	25.493066	0.000353	20.860390
1282.417181	-3.009700	3.576400	-10.763000	25.531285	0.000353	20.836659
1283.414811	-3.007700	3.576200	-10.756000	25.539806	0.000352	20.863707
1284.414023	-3.024500	3.576700	-10.817000	25.505961	0.000351	20.853901
1285.419513	-2.971500	3.578200	-10.632000	25.475968	0.000352	20.832316
1286.415040	-3.023700	3.575700	-10.810000	25.475218	0.000349	20.844365
1287.413552	-3.019900	3.575200	-10.795000	25.441321	0.000350	20.822181
1288.415658	-3.022600	3.575100	-10.805000	25.475141	0.000348	20.838598
1289.416020	-2.983600	3.575600	-10.667000	25.454217	0.000349	20.855519
1290.422800	-2.997400	3.574900	-10.715000	25.456798	0.000349	20.831084
1291.422100	-3.006000	3.574300	-10.744000	25.461420	0.000347	20.850898
1292.421171	-2.996700	3.574800	-10.712000	25.494342	0.000349	20.844129
1293.418495	-3.000200	3.574400	-10.722000	25.507265	0.000349	20.840038
1294.418858	-2.995400	3.573300	-10.703000	25.492303	0.000346	20.843030
1295.418504	-2.997900	3.573200	-10.712000	25.487979	0.000348	20.830153
1296.419950	-2.990900	3.572900	-10.685000	25.493865	0.000346	20.839383
1297.424387	-2.995800	3.571900	-10.699000	25.505216	0.000345	20.827549
1298.420048	-3.010300	3.571200	-10.749000	25.505689	0.000345	20.826601
1299.420808	-2.982800	3.571200	-10.651000	25.499498	0.000344	20.837928
1300.420501	-3.020900	3.571500	-10.787000	25.470171	0.000343	20.850202
1301.419597	-3.002900	3.570000	-10.718000	25.438533	0.000343	20.809424
1302.421919	-3.018500	3.570000	-10.775000	25.397049	0.000344	20.806649
1303.421219	-2.988800	3.570600	-10.670000	25.442577	0.000344	20.831029
1304.422993	-3.003700	3.570000	-10.722000	25.464792	0.000340	20.820620
1305.428737	-2.979500	3.572400	-10.643000	25.437876	0.000343	20.820144
1306.422832	-2.989300	3.570300	-10.671000	25.440456	0.000342	20.807088
1307.425395	-3.004900	3.569500	-10.725000	25.511802	0.000341	20.831792
1308.430005	-2.997800	3.568800	-10.697000	25.539231	0.000340	20.811449
1309.426302	-2.986700	3.568400	-10.658000	25.563161	0.000343	20.822678
1310.428768	-2.982700	3.568700	-10.643000	25.560498	0.000342	20.836598
1311.428578	-2.985900	3.569600	-10.657000	25.547450	0.000340	20.838194
1312.425881	-3.000100	3.568700	-10.705000	25.526896	0.000341	20.825613
1313.425027	-2.992500	3.568700	-10.678000	25.539619	0.000343	20.826062
1314.425879	-2.991500	3.567200	-10.671000	25.523489	0.000339	20.810812
1315.425515	-2.984800	3.566800	-10.645000	25.501295	0.000338	20.813654
1316.424755	-2.986400	3.566300	-10.649000	25.506064	0.000339	20.824133
1317.431858	-2.999800	3.566000	-10.697000	25.521268	0.000341	20.817591
1318.425852	-2.992200	3.568400	-10.676000	25.526187	0.000338	20.820634
1319.427045	-3.011900	3.566000	-10.739000	25.493456	0.000338	20.786342
1320.431146	-2.987100	3.566400	-10.653000	25.483066	0.000338	20.809099
1321.429127	-3.017400	3.563800	-10.752000	25.486396	0.000338	20.808176
1322.426332	-3.011800	3.563800	-10.733000	25.430726	0.000337	20.809172
1323.425665	-2.998900	3.564800	-10.690000	25.436193	0.000339	20.822247
1324.432264	-2.992200	3.563200	-10.661000	25.443448	0.000338	20.820998
1325.426642	-2.998600	3.563100	-10.683000	25.480475	0.000338	20.806972
1326.432698	-2.986800	3.564000	-10.644000	25.470832	0.000337	20.800607
1327.426097	-2.994200	3.563100	-10.668000	25.471127	0.000337	20.825559
1328.427690	-2.982400	3.563800	-10.627000	25.427736	0.000337	20.788151
1329.427076	-2.999300	3.563000	-10.686000	25.452015	0.000338	20.787401
1330.431229	-2.997800	3.563100	-10.681000	25.499255	0.000336	20.802123
1331.430346	-2.995000	3.563300	-10.671000	25.517049	0.000338	20.795811
1332.426455	-2.985400	3.561900	-10.632000	25.480813	0.000336	20.813001
1333.427223	-3.001700	3.560400	-10.687000	25.449302	0.000335	20.809333
1334.430003	-2.978100	3.561100	-10.605000	25.475494	0.000336	20.797228
1335.430539	-3.002200	3.559300	-10.685000	25.480886	0.000335	20.787469
1336.431515	-3.000100	3.559900	-10.679000	25.461427	0.000333	20.796378
1337.429568	-2.970900	3.561600	-10.580000	25.420324	0.000333	20.775492
1338.427547	-2.990700	3.560400	-10.648000	25.464407	0.000335	20.784198
1339.427317	-2.968300	3.560500	-10.568000	25.515154	0.000335	20.768302
1340.430432	-2.995200	3.558700	-10.658000	25.476187	0.000334	20.801717
1341.427017	-2.988200	3.559400	-10.635000	25.456975	0.000333	20.775786
1342.429625	-3.004200	3.557800	-10.687000	25.457050	0.000333	20.797199
1343.426843	-3.006500	3.558300	-10.697000	25.451634	0.000332	20.782276
1344.438464	-3.025500	3.557500	-10.762000	25.467812	0.000331	20.779557
1345.452824	-3.025500	3.557100	-10.761000	25.452031	0.000331	20.764183
1346.428481	-3.008400	3.556200	-10.697000	25.412269	0.000331	20.788741
1347.428904	-3.003600	3.555900	-10.680000	25.405556	0.000330	20.791009
1348.430964	-3.004200	3.556400	-10.683000	25.385176	0.000330	20.773865
1349.430686	-3.038800	3.555100	-10.801000	25.400662	0.000330	20.792733
1350.430538	-3.005300	3.556800	-10.688000	25.458367	0.000330	20.789986
1351.431227	-2.986100	3.555800	-10.617000	25.440846	0.000328	20.797996
1352.428563	-3.003900	3.555600	-10.679000	25.443030	0.000329	20.805405
1353.429258	-3.001900	3.555700	-10.672000	25.477104	0.000327	20.801689
1354.431190	-3.011000	3.553600	-10.699000	25.447456	0.000328	20.794203
1355.431385	-2.984800	3.554100	-10.608000	25.492858	0.000327	20.783370
1356.438585	-3.015200	3.554700	-10.718000	25.458811	0.000325	20.782846
1357.434268	-2.997300	3.553900	-10.651000	25.468355	0.000324	20.774886
1358.430560	-3.034700	3.554100	-10.785000	25.493502	0.000326	20.775957
1359.430160	-3.007300	3.552900	-10.683000	25.530603	0.000324	20.780024
1360.429669	-3.026000	3.553000	-10.750000	25.568721	0.000324	20.807874
1361.430063	-3.023700	3.551200	-10.737000	25.585740	0.000323	20.798413
1362.434866	-2.984900	3.552600	-10.604000	25.548964	0.000324	20.771911
1363.432823	-2.985700	3.553200	-10.608000	25.545235	0.000325	20.759156
1364.435320	-2.998800	3.551300	-10.648000	25.529627	0.000323	20.788527
1365.433498	-3.001300	3.550800	-10.655000	25.519684	0.000322	20.767636
1366.433945	-3.004600	3.550800	-10.667000	25.510738	0.000323	20.785205
1367.437603	-3.002600	3.550100	-10.658000	25.499876	0.000321	20.759598
1368.436703	-2.998300	3.551200	-10.647000	25.480418	0.000321	20.795534
1369.437110	-3.019000	3.550000	-10.717000	25.458645	0.000320	20.785050
1370.437500	-2.999900	3.549000	-10.645000	25.436550	0.000319	20.774717
1371.432493	-3.000200	3.549500	-10.648000	25.452452	0.000321	20.792108
1372.432711	-2.992200	3.550200	-10.622000	25.459410	0.000319	20.773964
1373.436953	-2.986700	3.549400	-10.600000	25.437413	0.000318	20.776531
1374.437901	-3.009400	3.547400	-10.675000	25.449390	0.000317	20.775756
1375.436162	-3.000500	3.547900	-10.645000	25.441011	0.000317	20.782515
1376.440533	-3.004700	3.546600	-10.656000	25.415660	0.000319	20.776973
1377.443748	-3.035300	3.545800	-10.762000	25.454003	0.000319	20.766637
1378.435089	-3.008900	3.547800	-10.674000	25.515282	0.000317	20.772699
1379.438971	-2.995400	3.546700	-10.623000	25.522140	0.000318	20.784802
1380.438627	-2.989800	3.546200	-10.602000	25.524868	0.000316	20.782326
1381.438824	-2.998400	3.546200	-10.632000	25.494451	0.000317	20.776910
1382.439699	-2.999900	3.545600	-10.636000	25.479861	0.000315	20.766526
1383.441573	-2.997100	3.546000	-10.627000	25.486864	0.000315	20.774033
1384.439116	-2.992000	3.545700	-10.606000	25.497275	0.000316	20.771685
1385.439386	-2.996800	3.543700	-10.619000	25.523813	0.000317	20.787904
1386.441174	-2.996300	3.544500	-10.619000	25.538098	0.000315	20.779965
1387.441693	-2.982800	3.545000	-10.574000	25.548506	0.000317	20.775718
1388.441074	-2.999000	3.543600	-10.626000	25.544751	0.000314	20.772421
1389.441327	-3.015300	3.543000	-10.682000	25.487444	0.000317	20.771295
1390.444828	-3.024100	3.542500	-10.712000	25.473969	0.000315	20.763928
1391.454198	-3.016900	3.541200	-10.682000	25.455005	0.000314	20.774756
1392.442270	-2.998800	3.541900	-10.620000	25.445709	0.000314	20.776327
1393.452844	-3.005700	3.541800	-10.645000	25.444340	0.000314	20.764047
1394.450349	-2.976300	3.541400	-10.539000	25.446225	0.000315	20.769258
1395.464723	-2.975700	3.541400	-10.536000	25.460113	0.000314	20.764713
1396.448342	-3.017900	3.540700	-10.685000	25.510633	0.000313	20.768030
1397.445194	-3.003200	3.540200	-10.631000	25.484712	0.000313	20.764759
1398.443112	-3.003800	3.541400	-10.636000	25.498974	0.000313	20.755847
1399.443385	-3.004300	3.540500	-10.635000	25.514231	0.000313	20.781127
1400.446966	-3.008700	3.539200	-10.648000	25.554039	0.000314	20.757092
1401.443720	-2.987100	3.540500	-10.574000	25.518923	0.000313	20.754070
1402.451783	-2.995100	3.539800	-10.601000	25.523021	0.000311	20.763875
1403.447291	-2.983700	3.539200	-10.559000	25.499463	0.000312	20.756338
1404.450369	-2.988600	3.538800	-10.575000	25.497075	0.000312	20.766269
1405.449656	-2.998200	3.537700	-10.606000	25.501972	0.000311	20.766444
1406.452423	-3.009500	3.538000	-10.646000	25.524383	0.000310	20.768562
1407.447724	-2.980300	3.538000	-10.543000	25.570925	0.000311	20.767887
1408.444175	-3.019600	3.537500	-10.680000	25.557803	0.000310	20.781736
1409.446402	-2.990200	3.536000	-10.572000	25.524976	0.000311	20.753036
1410.451694	-2.986700	3.537100	-10.563000	25.541328	0.000309	20.772777
1411.458798	-2.977500	3.537000	-10.531000	25.512948	0.000310	20.750913
1412.455611	-3.003700	3.537000	-10.623000	25.514861	0.000309	20.761370
1413.448235	-2.995500	3.536700	-10.593000	25.503330	0.000308	20.768282
1414.457517	-2.979900	3.535900	-10.535000	25.526565	0.000311	20.779762
1415.448179	-3.006400	3.534000	-10.623000	25.504349	0.000309	20.787324
1416.449265	-3.015400	3.535200	-10.659000	25.484591	0.000310	20.794035
1417.447270	-2.998800	3.534400	-10.598000	25.502733	0.000310	20.774321
1418.448218	-2.995200	3.533600	-10.583000	25.484366	0.000306	20.757299
1419.448418	-3.026200	3.533300	-10.691000	25.497067	0.000307	20.793761
1420.457671	-3.012500	3.532300	-10.639000	25.515381	0.000307	20.778962
1421.449358	-3.014200	3.532100	-10.646000	25.511109	0.000308	20.774672
1422.457001	-2.959700	3.532100	-10.453000	25.507879	0.000307	20.779489
1423.453665	-2.992800	3.532500	-10.571000	25.532033	0.000308	20.770555
1424.457142	-3.003400	3.532200	-10.608000	25.539735	0.000308	20.754581
1425.448565	-2.991700	3.532500	-10.567000	25.562175	0.000307	20.777592
1426.452512	-3.009800	3.531000	-10.627000	25.557828	0.000305	20.776071
1427.450855	-3.018100	3.530900	-10.656000	25.544134	0.000306	20.777492
1428.452195	-3.000000	3.531300	-10.593000	25.544286	0.000306	20.777170
1429.461719	-3.018700	3.530900	-10.657000	25.553009	0.000306	20.793043
1430.451339	-3.004700	3.530200	-10.607000	25.573608	0.000305	20.781488
1431.451698	-2.998400	3.529100	-10.580000	25.562404	0.000307	20.768813
1432.460678	-2.986400	3.529500	-10.540000	25.577387	0.000301	20.772007
1433.457551	-2.999800	3.528400	-10.583000	25.530746	0.000304	20.783013
1434.454232	-2.988200	3.529000	-10.544000	25.560393	0.000303	20.803303
1435.456108	-3.003900	3.528000	-10.597000	25.584719	0.000302	20.789327
1436.460355	-2.974500	3.529200	-10.496000	25.562159	0.000303	20.787533
1437.456599	-3.001200	3.526700	-10.583000	25.515839	0.000304	20.805026
1438.459066	-2.989500	3.527700	-10.545000	25.493625	0.000301	20.777502
1439.458831	-3.009200	3.525700	-10.608000	25.529111	0.000304	20.788009
1440.460305	-2.991400	3.526200	-10.547000	25.559081	0.000304	20.807201
1441.466476	-2.968700	3.527000	-10.470000	25.590911	0.000304	20.768992
1442.469370	-3.000400	3.526700	-10.580000	25.601522	0.000300	20.785340
1443.458087	-2.981000	3.525300	-10.508000	25.621898	0.000301	20.809597
1444.458443	-3.002500	3.525400	-10.584000	25.562585	0.000301	20.791280
1445.459672	-2.988300	3.525500	-10.534000	25.530033	0.000298	20.787038
1446.461090	-3.004700	3.525500	-10.593000	25.543650	0.000300	20.790756
1447.457966	-2.983400	3.525400	-10.517000	25.488730	0.000298	20.808623
1448.470837	-2.986300	3.523700	-10.523000	25.474690	0.000298	20.812068
1449.476891	-2.992800	3.523200	-10.543000	25.449217	0.000297	20.812567
1450.471927	-3.010800	3.522300	-10.604000	25.476379	0.000296	20.800962
1451.472399	-3.004700	3.523100	-10.585000	25.445113	0.000295	20.793273
1452.460556	-3.001400	3.522400	-10.571000	25.461344	0.000295	20.795347
1453.466949	-2.986400	3.520900	-10.514000	25.453242	0.000295	20.815186
1454.459766	-2.986800	3.522600	-10.521000	25.449292	0.000297	20.796995
1455.459555	-2.992000	3.522600	-10.539000	25.444841	0.000295	20.803905
1456.462469	-3.001400	3.521500	-10.569000	25.457195	0.000293	20.803982
1457.462750	-2.989700	3.521000	-10.526000	25.467281	0.000296	20.798938
1458.469223	-3.000200	3.519700	-10.559000	25.494122	0.000295	20.798390
1459.463023	-2.990500	3.520400	-10.527000	25.531944	0.000297	20.803182
1460.476762	-2.995300	3.520100	-10.543000	25.586712	0.000296	20.806975
1461.467275	-3.006500	3.519900	-10.582000	25.586090	0.000293	20.798290
1462.473914	-2.995200	3.518800	-10.538000	25.565041	0.000294	20.800385
1463.464076	-3.023100	3.518400	-10.635000	25.539049	0.000293	20.800834
1464.465063	-3.007800	3.519600	-10.586000	25.505526	0.000291	20.812214
1465.464921	-2.984300	3.519300	-10.502000	25.480352	0.000291	20.792149
1466.466447	-2.998200	3.516800	-10.543000	25.545634	0.000290	20.804602
1467.468983	-3.005100	3.517700	-10.570000	25.515687	0.000292	20.812460
1468.473082	-3.016700	3.517800	-10.612000	25.512207	0.000291	20.793793
1469.465743	-2.991000	3.517400	-10.520000	25.514992	0.000292	20.802754
1470.461141	-2.985000	3.516900	-10.497000	25.509376	0.000290	20.807071
1471.472215	-3.012200	3.515600	-10.588000	25.520856	0.000289	20.811961
1472.481308	-3.005600	3.515600	-10.566000	25.536089	0.000289	20.830104
1473.471699	-3.002000	3.515500	-10.552000	25.578182	0.000289	20.815004
1474.466804	-3.001300	3.515200	-10.549000	25.604546	0.000290	20.813032
1475.464391	-2.975500	3.516100	-10.462000	25.573558	0.000288	20.801826
1476.469211	-3.001500	3.513500	-10.544000	25.556612	0.000286	20.798557
1477.466414	-2.979400	3.514600	-10.469000	25.557756	0.000289	20.805870
1478.471614	-3.002500	3.514600	-10.552000	25.611673	0.000290	20.821139
1479.478789	-2.993100	3.514100	-10.517000	25.648697	0.000289	20.812805
1480.475165	-2.976500	3.513400	-10.457000	25.662610	0.000289	20.817296
1481.467682	-2.988400	3.512400	-10.495000	25.638211	0.000288	20.820291
1482.471242	-2.972600	3.512400	-10.440000	25.621016	0.000289	20.837633
1483.463730	-3.017900	3.512000	-10.598000	25.582302	0.000287	20.822461
1484.466183	-3.016400	3.511600	-10.591000	25.591572	0.000287	20.831296
1485.466560	-3.008600	3.512400	-10.567000	25.595397	0.000286	20.819491
1486.481643	-2.997400	3.512000	-10.527000	25.615151	0.000287	20.837433
1487.466896	-2.979100	3.510400	-10.457000	25.569652	0.000285	20.823507
1488.474417	-2.994600	3.510900	-10.514000	25.524030	0.000285	20.807562
1489.471353	-3.016000	3.510300	-10.587000	25.488243	0.000286	20.830893
1490.469395	-2.988200	3.512300	-10.495000	25.492693	0.000284	20.829197
1491.473144	-3.011600	3.509500	-10.569000	25.533793	0.000285	20.831591
1492.474976	-2.995400	3.509900	-10.513000	25.559363	0.000285	20.826925
1493.474163	-3.005000	3.508500	-10.542000	25.557772	0.000286	20.822008
1494.473300	-2.990900	3.508700	-10.493000	25.534290	0.000283	20.829245
1495.470551	-3.008000	3.508300	-10.552000	25.499773	0.000286	20.820660
1496.471951	-2.992000	3.508700	-10.497000	25.523453	0.000282	20.836854
1497.478397	-3.009100	3.507100	-10.551000	25.553895	0.000284	20.836132
1498.469450	-3.004400	3.508300	-10.539000	25.529864	0.000285	20.834757
1499.469246	-2.993700	3.507300	-10.499000	25.568504	0.000284	20.822829
1500.484094	-3.026900	3.505800	-10.609000	25.569946	0.000284	20.835655
1501.484843	-2.985400	3.505800	-10.465000	25.590022	0.000285	20.838275
1502.477475	-3.022800	3.504800	-10.593000	25.606074	0.000284	20.824999
1503.476496	-2.993900	3.506500	-10.497000	25.611540	0.000284	20.826695
1504.475219	-2.999900	3.504800	-10.513000	25.617330	0.000283	20.829665
1505.471802	-2.978300	3.505000	-10.438000	25.558662	0.000282	20.817212
1506.475433	-2.996800	3.503100	-10.497000	25.531301	0.000281	20.826244
1507.473032	-3.006800	3.503600	-10.533000	25.563234	0.000282	20.829389
1508.473528	-2.997000	3.503200	-10.499000	25.617330	0.000281	20.836303
1509.476918	-3.004600	3.504300	-10.528000	25.589151	0.000282	20.841667
1510.477528	-3.020100	3.503100	-10.579000	25.589201	0.000282	20.822751
1511.478144	-3.010700	3.503100	-10.546000	25.545118	0.000280	20.835378
1512.471721	-3.003300	3.502300	-10.518000	25.553569	0.000281	20.856666
1513.474712	-2.993600	3.502500	-10.484000	25.562812	0.000281	20.839870
1514.479580	-3.002200	3.501700	-10.511000	25.555877	0.000280	20.819631
1515.473618	-2.971100	3.502200	-10.405000	25.553142	0.000280	20.851970
1516.474505	-2.977700	3.501900	-10.426000	25.570416	0.000280	20.840395
1517.472566	-3.016000	3.500700	-10.557000	25.570838	0.000279	20.839870
1518.476703	-3.003300	3.500000	-10.511000	25.559806	0.000280	20.852499
1519.486141	-3.011700	3.500400	-10.542000	25.554488	0.000280	20.822029
1520.476588	-2.982200	3.500100	-10.437000	25.577075	0.000279	20.837126
1521.477272	-3.010200	3.498300	-10.530000	25.614720	0.000277	20.846009
1522.476439	-2.994300	3.498900	-10.476000	25.665609	0.000280	20.855868
1523.480034	-2.984300	3.498400	-10.439000	25.673210	0.000278	20.827942
1524.489754	-2.997500	3.498900	-10.487000	25.703251	0.000277	20.842467
1525.486992	-3.011400	3.498400	-10.534000	25.674776	0.000276	20.857489
1526.478581	-2.988500	3.498900	-10.455000	25.672094	0.000277	20.843415
1527.487529	-3.021500	3.496700	-10.565000	25.679969	0.000276	20.832359
1528.477882	-3.004400	3.497200	-10.506000	25.673709	0.000277	20.856891
1529.479542	-3.007200	3.497600	-10.517000	25.656415	0.000278	20.859435
1530.481277	-2.988000	3.497500	-10.450000	25.675573	0.000277	20.856866
1531.484894	-2.980900	3.496500	-10.421000	25.635842	0.000274	20.845412
1532.479652	-3.000900	3.495200	-10.488000	25.651918	0.000273	20.853023
1533.482973	-2.981900	3.496000	-10.424000	25.646800	0.000273	20.859262
1534.482511	-3.022900	3.495400	-10.565000	25.621457	0.000273	20.852774
1535.483735	-2.996600	3.495000	-10.472000	25.611045	0.000274	20.853698
1536.496629	-3.003300	3.493900	-10.492000	25.634948	0.000273	20.875806
1537.487413	-3.003200	3.493300	-10.491000	25.638924	0.000273	20.879325
1538.484245	-3.000400	3.493800	-10.481000	25.607341	0.000271	20.866098
1539.485065	-3.005600	3.492800	-10.497000	25.607441	0.000270	20.868095
1540.484853	-3.020700	3.492400	-10.549000	25.585004	0.000272	20.855519
1541.488800	-2.984400	3.494600	-10.428000	25.571732	0.000271	20.840294
1542.487688	-3.000200	3.491200	-10.472000	25.568253	0.000272	20.867144
1543.487570	-3.001500	3.491600	-10.479000	25.559135	0.000270	20.879323
1544.487692	-2.982300	3.492600	-10.415000	25.552423	0.000269	20.844610
1545.484171	-2.991900	3.492000	-10.447000	25.564351	0.000268	20.865123
1546.491432	-2.974000	3.492100	-10.384000	25.578588	0.000269	20.877997
1547.486072	-3.002900	3.489900	-10.479000	25.556570	0.000268	20.892868
1548.485642	-2.984400	3.490300	-10.415000	25.533211	0.000266	20.871307
1549.491544	-3.007300	3.489600	-10.493000	25.559923	0.000267	20.869210
1550.487336	-2.988800	3.489800	-10.429000	25.603903	0.000268	20.871654
1551.491240	-3.007800	3.490400	-10.497000	25.588049	0.000268	20.867585
1552.492988	-2.972500	3.490500	-10.374000	25.568617	0.000267	20.871303
1553.493670	-2.989400	3.489300	-10.430000	25.626338	0.000266	20.882331
1554.488252	-3.008100	3.488700	-10.493000	25.672252	0.000266	20.882452
1555.501416	-3.021000	3.486800	-10.532000	25.674190	0.000267	20.873020
1556.491869	-2.972800	3.487300	-10.366000	25.684424	0.000265	20.877609
1557.490280	-3.010300	3.487300	-10.497000	25.636741	0.000268	20.879977
1558.496411	-2.991800	3.488000	-10.434000	25.632068	0.000265	20.879551
1559.492432	-2.997300	3.486900	-10.450000	25.614748	0.000265	20.863105
1560.499671	-3.031500	3.486600	-10.568000	25.574243	0.000266	20.869841
1561.492698	-2.993900	3.486100	-10.436000	25.577047	0.000266	20.900630
1562.493220	-3.009600	3.485900	-10.490000	25.553191	0.000264	20.859131
1563.493656	-2.986500	3.486900	-10.412000	25.555799	0.000267	20.877870
1564.492969	-3.011100	3.484100	-10.490000	25.569389	0.000264	20.879190
1565.510048	-2.988600	3.484900	-10.413000	25.584223	0.000263	20.874174
1566.495666	-2.999000	3.483600	-10.446000	25.654912	0.000261	20.893011
1567.508512	-2.997700	3.484400	-10.445000	25.722492	0.000264	20.886921
1568.493370	-3.021600	3.483100	-10.523000	25.752826	0.000263	20.872820
1569.501624	-3.006100	3.482100	-10.465000	25.754388	0.000263	20.880553
1570.495062	-3.017100	3.482100	-10.505000	25.756302	0.000262	20.883423
1571.493471	-2.985700	3.483400	-10.399000	25.792746	0.000261	20.868823
1572.498816	-2.996600	3.483100	-10.437000	25.784670	0.000262	20.901959
1573.492345	-2.985500	3.482000	-10.395000	25.789016	0.000263	20.894472
1574.493811	-2.980400	3.482200	-10.377000	25.745861	0.000262	20.900909
1575.498536	-3.013300	3.480500	-10.487000	25.701187	0.000262	20.899660
1576.505359	-3.021000	3.481400	-10.516000	25.682429	0.000261	20.888406
1577.495326	-3.010400	3.480500	-10.476000	25.680713	0.000261	20.885735
1578.498096	-2.969600	3.481200	-10.336000	25.701161	0.000261	20.873082
1579.500914	-2.994600	3.480200	-10.421000	25.725015	0.000262	20.875705
1580.497984	-2.998300	3.479700	-10.432000	25.687173	0.000261	20.891748
1581.502887	-2.992500	3.480000	-10.412000	25.661283	0.000262	20.902254
1582.504855	-2.996900	3.479700	-10.427000	25.636560	0.000263	20.892596
1583.502294	-3.003200	3.478900	-10.446000	25.656934	0.000258	20.883663
1584.503700	-3.006100	3.479100	-10.458000	25.642125	0.000260	20.894867
1585.505104	-3.005100	3.479400	-10.455000	25.596156	0.000258	20.901329
1586.501522	-2.984400	3.478600	-10.381000	25.583286	0.000257	20.902628
1587.508062	-2.975000	3.478800	-10.348000	25.571133	0.000258	20.869563
1588.505268	-2.983500	3.479200	-10.379000	25.565890	0.000256	20.897960
1589.503270	-2.995000	3.477700	-10.415000	25.548271	0.000258	20.887379
1590.510818	-2.999400	3.476900	-10.427000	25.569914	0.000256	20.910061
1591.509333	-3.021600	3.477900	-10.508000	25.585320	0.000257	20.906567
1592.504696	-3.001800	3.475600	-10.432000	25.620581	0.000256	20.883661
1593.503743	-2.996400	3.476200	-10.416000	25.648608	0.000256	20.886680
1594.508120	-3.010600	3.475600	-10.463000	25.648855	0.000255	20.909211
1595.504716	-2.999700	3.475300	-10.424000	25.640927	0.000255	20.897931
1596.502737	-2.974500	3.475800	-10.338000	25.615633	0.000254	20.897657
1597.507079	-2.999500	3.474800	-10.422000	25.606761	0.000252	20.911031
1598.504182	-3.000800	3.474300	-10.424000	25.599704	0.000255	20.892091
1599.502835	-2.975000	3.475400	-10.339000	25.610536	0.000254	20.918614
1600.509894	-2.988000	3.473900	-10.379000	25.589538	0.000256	20.925975
1601.505181	-3.014400	3.473500	-10.470000	25.648899	0.000254	20.887921
1602.503289	-2.982700	3.474000	-10.361000	25.659011	0.000253	20.886223
1603.501735	-2.994200	3.472800	-10.397000	25.644349	0.000253	20.932184
1604.504798	-2.988300	3.472800	-10.377000	25.627154	0.000253	20.894529
1605.511155	-3.013300	3.470700	-10.457000	25.689245	0.000255	20.922276
1606.504182	-3.002900	3.472600	-10.427000	25.688152	0.000252	20.912170
1607.507166	-2.999800	3.471200	-10.412000	25.674732	0.000252	20.934724
1608.510979	-2.996800	3.472100	-10.405000	25.677712	0.000252	20.921598
1609.506990	-2.999100	3.469900	-10.404000	25.718556	0.000251	20.908570
1610.514471	-3.002400	3.471300	-10.422000	25.717115	0.000252	20.914708
1611.505264	-2.997200	3.470700	-10.401000	25.742877	0.000251	20.919721
1612.510924	-2.995600	3.470100	-10.393000	25.773435	0.000250	20.936663
1613.528170	-3.031900	3.468400	-10.515000	25.756367	0.000250	20.918098
1614.508424	-2.988800	3.470500	-10.372000	25.715021	0.000254	20.930147
1615.505909	-3.013200	3.469400	-10.453000	25.685256	0.000251	20.909262
1616.520812	-3.008300	3.469600	-10.437000	25.708363	0.000252	20.928201
1617.509396	-3.012300	3.468100	-10.446000	25.669102	0.000249	20.908684
1618.512536	-2.985700	3.468900	-10.356000	25.626838	0.000250	20.920288
1619.522295	-2.993300	3.468700	-10.382000	25.613319	0.000249	20.917142
1620.512727	-2.979600	3.467600	-10.331000	25.601516	0.000248	20.927573
1621.511498	-3.012500	3.467600	-10.445000	25.626711	0.000250	20.922531
1622.508296	-3.015200	3.466700	-10.452000	25.620376	0.000247	20.928970
1623.507693	-2.967400	3.466800	-10.286000	25.658167	0.000249	20.943690
1624.514717	-2.992000	3.467600	-10.374000	25.694070	0.000247	20.908158
1625.508079	-2.996200	3.465300	-10.381000	25.652602	0.000247	20.931464
1626.510932	-2.994900	3.466300	-10.379000	25.593116	0.000249	20.948531
1627.510841	-2.998200	3.464500	-10.387000	25.637840	0.000246	20.933707
1628.512490	-3.004100	3.464900	-10.408000	25.662613	0.000248	20.944837
1629.510974	-3.014600	3.464900	-10.445000	25.652277	0.000246	20.941094
1630.517427	-3.008500	3.464800	-10.422000	25.607800	0.000246	20.926771
1631.507408	-3.004800	3.464700	-10.409000	25.623082	0.000248	20.931687
1632.515482	-2.976100	3.465600	-10.313000	25.626984	0.000246	20.950776
1633.510536	-3.015500	3.462800	-10.441000	25.682316	0.000245	20.941867
1634.515437	-3.015900	3.464000	-10.446000	25.711759	0.000250	20.945361
1635.510077	-3.010600	3.463900	-10.427000	25.744854	0.000247	20.925499
1636.510114	-3.008600	3.461900	-10.415000	25.751040	0.000244	20.908956
1637.521394	-2.961900	3.462100	-10.253000	25.736953	0.000247	20.919935
1638.510905	-2.998800	3.462000	-10.381000	25.731688	0.000245	20.909906
1639.511011	-3.016000	3.460600	-10.436000	25.713226	0.000245	20.931188
1640.518366	-3.006500	3.460600	-10.404000	25.685250	0.000245	20.921583
1641.512620	-2.994200	3.461100	-10.361000	25.673822	0.000245	20.938552
1642.512650	-3.018600	3.460800	-10.445000	25.675933	0.000243	20.915071
1643.511844	-2.986000	3.459400	-10.329000	25.680107	0.000243	20.922107
1644.512349	-3.008100	3.459200	-10.405000	25.654169	0.000243	20.929720
1645.512259	-2.977000	3.459300	-10.297000	25.654889	0.000244	20.914797
1646.512587	-2.997000	3.459600	-10.368000	25.704657	0.000244	20.922583
1647.512629	-2.999900	3.459000	-10.376000	25.713976	0.000240	20.934312
1648.517732	-2.983600	3.458800	-10.318000	25.680382	0.000241	20.924279
1649.516294	-3.001300	3.458600	-10.379000	25.660431	0.000241	20.926052
1650.514955	-2.985400	3.457300	-10.321000	25.707317	0.000240	20.912927
1651.513543	-3.007000	3.457600	-10.396000	25.719940	0.000242	20.914226
1652.518039	-3.001100	3.457000	-10.374000	25.727890	0.000241	20.918418
1653.524379	-2.994100	3.457800	-10.352000	25.770277	0.000240	20.902200
1654.514055	-2.997900	3.457300	-10.364000	25.783246	0.000240	20.917123
1655.530296	-3.004200	3.455900	-10.381000	25.797432	0.000241	20.912407
1656.519143	-3.007400	3.455900	-10.392000	25.797682	0.000240	20.911235
1657.527933	-3.005600	3.455300	-10.384000	25.760590	0.000242	20.916177
1658.515159	-3.017600	3.454600	-10.424000	25.794554	0.000238	20.924687
1659.531750	-3.005500	3.455300	-10.384000	25.794232	0.000240	20.904925
1660.522671	-3.009200	3.454400	-10.393000	25.812345	0.000238	20.917429
1661.517524	-2.989700	3.455000	-10.328000	25.810657	0.000240	20.906725
1662.517350	-3.017400	3.454100	-10.422000	25.781243	0.000239	20.935971
1663.519179	-3.012300	3.454200	-10.404000	25.710088	0.000238	20.927089
1664.519588	-3.010800	3.453300	-10.396000	25.727232	0.000239	20.900215
1665.515882	-3.005500	3.452400	-10.375000	25.758241	0.000237	20.907180
1666.518143	-3.028300	3.452700	-10.454000	25.749199	0.000239	20.916589
1667.514655	-2.996200	3.453300	-10.346000	25.779163	0.000237	20.919185
1668.524523	-3.012200	3.452700	-10.398000	25.778817	0.000235	20.914097
1669.520347	-2.998300	3.452200	-10.350000	25.779117	0.000237	20.918190
1670.518617	-2.993500	3.451300	-10.331000	25.734819	0.000236	20.898353
1671.523991	-2.992600	3.451400	-10.328000	25.704187	0.000236	20.907887
1672.520256	-2.978500	3.452300	-10.282000	25.744139	0.000239	20.916722
1673.527627	-2.997300	3.450800	-10.342000	25.821031	0.000236	20.891070
1674.522616	-3.004800	3.450100	-10.367000	25.762104	0.000235	20.911060
1675.526188	-2.999600	3.450600	-10.349000	25.742700	0.000235	20.894890
1676.522330	-2.984000	3.450200	-10.294000	25.738703	0.000235	20.912210
1677.532287	-3.027900	3.449800	-10.444000	25.764616	0.000235	20.930176
1678.525633	-2.987500	3.448800	-10.303000	25.774059	0.000235	20.917851
1679.520452	-2.997100	3.450000	-10.339000	25.799848	0.000234	20.910092
1680.521405	-2.980600	3.451100	-10.285000	25.847100	0.000233	20.910142
1681.522445	-3.013100	3.447500	-10.387000	25.832370	0.000235	20.902458
1682.525224	-2.996400	3.448700	-10.332000	25.806286	0.000232	20.898068
1683.517441	-3.001800	3.446500	-10.345000	25.784449	0.000233	20.902212
1684.518606	-2.993300	3.447000	-10.317000	25.771380	0.000231	20.887188
1685.531984	-3.012700	3.446800	-10.382000	25.819976	0.000233	20.886691
1686.523718	-2.987400	3.446900	-10.296000	25.782041	0.000232	20.916387
1687.524947	-3.006600	3.446300	-10.361000	25.819928	0.000230	20.907504
1688.523286	-3.013600	3.444700	-10.380000	25.756753	0.000231	20.906159
1689.524515	-3.008900	3.445000	-10.364000	25.774120	0.000231	20.895630
1690.524436	-3.019800	3.444700	-10.402000	25.779585	0.000230	20.912498
1691.525511	-2.999600	3.444200	-10.330000	25.806293	0.000230	20.904714
1692.520798	-3.009800	3.444600	-10.366000	25.786793	0.000230	20.886075
1693.528594	-3.001600	3.444500	-10.338000	25.804333	0.000231	20.886624
1694.535421	-2.997400	3.444700	-10.324000	25.798123	0.000229	20.887499
1695.537222	-3.008800	3.444600	-10.363000	25.799190	0.000229	20.899949
1696.522140	-3.010600	3.443300	-10.366000	25.818844	0.000228	20.914001
1697.527410	-3.007000	3.443500	-10.353000	25.795915	0.000228	20.903771
1698.536012	-3.020400	3.442500	-10.396000	25.852805	0.000228	20.903546
1699.533250	-3.014600	3.440600	-10.370000	25.844685	0.000228	20.877373
1700.528949	-2.981700	3.442600	-10.264000	25.859219	0.000229	20.889602
1701.528649	-3.012200	3.442100	-10.368000	25.854721	0.000227	20.875128
1702.525706	-3.017900	3.441900	-10.386000	25.867268	0.000227	20.895791
1703.534203	-3.016300	3.440200	-10.375000	25.848564	0.000227	20.874159
1704.538746	-3.018900	3.440100	-10.385000	25.837733	0.000226	20.876554
1705.541270	-3.015300	3.440900	-10.375000	25.820817	0.000226	20.887062
1706.525111	-2.992600	3.441700	-10.299000	25.846851	0.000228	20.891402
1707.532265	-2.992100	3.441100	-10.295000	25.817813	0.000226	20.902534
1708.529254	-2.991300	3.440100	-10.289000	25.780450	0.000227	20.892031
1709.540608	-3.001200	3.439900	-10.322000	25.739831	0.000225	20.897223
1710.523296	-3.001100	3.439500	-10.321000	25.737793	0.000227	20.876686
1711.529483	-3.009800	3.437800	-10.346000	25.718939	0.000227	20.894257
1712.529671	-2.995100	3.439500	-10.300000	25.756729	0.000224	20.889067
1713.530452	-3.015100	3.437300	-10.363000	25.760357	0.000226	20.884652
1714.524419	-3.014900	3.437600	-10.363000	25.797426	0.000223	20.897703
1715.536731	-2.996400	3.436600	-10.297000	25.839787	0.000225	20.901849
1716.525483	-3.021000	3.435900	-10.378000	25.905345	0.000224	20.874300
1717.525498	-3.007800	3.438200	-10.341000	25.866916	0.000223	20.886903
1718.546368	-2.985500	3.438300	-10.264000	25.872879	0.000224	20.881988
1719.524260	-3.002500	3.436500	-10.317000	25.899113	0.000224	20.882264
1720.525853	-2.997900	3.436200	-10.301000	25.892582	0.000222	20.876178
1721.541636	-3.021100	3.435100	-10.377000	25.872114	0.000222	20.899710
1722.538307	-3.007200	3.434700	-10.328000	25.879918	0.000222	20.878154
1723.526260	-2.998700	3.434200	-10.296000	25.890129	0.000221	20.880825
1724.523515	-2.986200	3.435200	-10.257000	25.846233	0.000222	20.889833
1725.527322	-3.003100	3.434900	-10.315000	25.866481	0.000221	20.878881
1726.527050	-2.997000	3.435200	-10.295000	25.859031	0.000221	20.889414
1727.532581	-2.990100	3.433600	-10.266000	25.834239	0.000221	20.888691
1728.524691	-2.979600	3.434100	-10.232000	25.802142	0.000220	20.891061
1729.525438	-2.999400	3.434000	-10.299000	25.786617	0.000218	20.861718
1730.533066	-2.987700	3.432800	-10.255000	25.799784	0.000218	20.873521
1731.527245	-2.972500	3.433200	-10.203000	25.836279	0.000217	20.857551
1732.538957	-2.998200	3.431800	-10.288000	25.798468	0.000218	20.893060
1733.526281	-3.014100	3.431200	-10.341000	25.818020	0.000216	20.887571
1734.527821	-2.997000	3.432500	-10.286000	25.818917	0.000218	20.871877
1735.528445	-2.962600	3.433500	-10.171000	25.835312	0.000215	20.868907
1736.532692	-3.013700	3.431800	-10.341000	25.845996	0.000215	20.879165
1737.529669	-3.034200	3.431000	-10.408000	25.858143	0.000217	20.872402
1738.533693	-3.010300	3.431500	-10.329000	25.898660	0.000214	20.864266
1739.535560	-3.023000	3.429000	-10.364000	25.913664	0.000214	20.871278
1740.529005	-3.017800	3.428000	-10.344000	25.878635	0.000214	20.854581
1741.532693	-2.989800	3.429200	-10.252000	25.907127	0.000214	20.867082
1742.527590	-2.996800	3.428900	-10.274000	25.851881	0.000212	20.873697
1743.531914	-3.019900	3.427400	-10.349000	25.829422	0.000214	20.869154
1744.527442	-3.019500	3.427100	-10.347000	25.800826	0.000214	20.880731
1745.537356	-2.989600	3.427200	-10.246000	25.783905	0.000212	20.865632
1746.536093	-3.015600	3.426300	-10.331000	25.781867	0.000211	20.874964
1747.548316	-2.977300	3.427100	-10.203000	25.798466	0.000212	20.891162
1748.546829	-3.026600	3.426000	-10.368000	25.807555	0.000210	20.880852
1749.545484	-2.993900	3.427900	-10.262000	25.767109	0.000209	20.856822
1750.537244	-3.010400	3.426300	-10.314000	25.739828	0.000212	20.861662
1751.547070	-2.980000	3.426600	-10.211000	25.759430	0.000211	20.867600
1752.534898	-2.994100	3.426400	-10.257000	25.822360	0.000209	20.859216
1753.539494	-3.012500	3.425900	-10.320000	25.826429	0.000211	20.850502
1754.546748	-2.986000	3.426600	-10.231000	25.814654	0.000210	20.874233
1755.536942	-2.979700	3.426800	-10.210000	25.791472	0.000211	20.868966
1756.539898	-2.989600	3.424400	-10.236000	25.789557	0.000211	20.855663
1757.538718	-2.984700	3.425000	-10.222000	25.780514	0.000210	20.865070
1758.545813	-3.019600	3.424300	-10.339000	25.808339	0.000212	20.849873
1759.535883	-2.998400	3.423300	-10.263000	25.826621	0.000210	20.860177
1760.548586	-2.980900	3.424300	-10.207000	25.868677	0.000211	20.847897
1761.546119	-2.983900	3.424900	-10.219000	25.879681	0.000210	20.863218
1762.536907	-3.005700	3.422700	-10.287000	25.938778	0.000209	20.869008
1763.540184	-3.004600	3.423400	-10.285000	25.945384	0.000207	20.863316
1764.539536	-3.003400	3.422200	-10.278000	25.929237	0.000208	20.850414
1765.547598	-3.002400	3.421300	-10.271000	25.983932	0.000207	20.839457
1766.553432	-3.016200	3.422100	-10.321000	25.896446	0.000209	20.844025
1767.552747	-3.007200	3.420800	-10.286000	25.864448	0.000209	20.852184
1768.537674	-3.009500	3.420400	-10.293000	25.897486	0.000208	20.834639
1769.546934	-3.018500	3.420100	-10.323000	25.915693	0.000208	20.851981
1770.540157	-3.016300	3.419400	-10.313000	25.885210	0.000204	20.850281
1771.543739	-2.998700	3.420000	-10.254000	25.838729	0.000204	20.860012
1772.541448	-2.996200	3.420600	-10.247000	25.782781	0.000202	20.855494
1773.537947	-2.998400	3.419000	-10.251000	25.784617	0.000205	20.841218
1774.543345	-2.993500	3.419600	-10.235000	25.755253	0.000205	20.844439
1775.541368	-2.999500	3.418500	-10.253000	25.734008	0.000204	20.834006
1776.541323	-3.028500	3.417500	-10.348000	25.786181	0.000204	20.830936
1777.553171	-2.982700	3.418100	-10.195000	25.792315	0.000202	20.843261
1778.552137	-2.999000	3.417600	-10.248000	25.861178	0.000203	20.833726
1779.552165	-2.987300	3.418700	-10.212000	25.901817	0.000205	20.847524
1780.543227	-2.999900	3.417900	-10.253000	25.881696	0.000204	20.824941
1781.546087	-3.030900	3.415100	-10.350000	25.850143	0.000201	20.827857
1782.548954	-2.987100	3.418300	-10.210000	25.838540	0.000204	20.840857
1783.544209	-3.018600	3.416400	-10.312000	25.836700	0.000205	20.839009
1784.546111	-3.025000	3.414200	-10.327000	25.838911	0.000203	20.842177
1785.547154	-3.002500	3.416500	-10.257000	25.881117	0.000201	20.842376
1786.560750	-3.001900	3.414600	-10.249000	25.890754	0.000201	20.853954
1787.552460	-2.980400	3.414900	-10.177000	25.898699	0.000202	20.853400
1788.545249	-2.984000	3.415900	-10.192000	25.933228	0.000198	20.823131
1789.546094	-3.012800	3.413700	-10.284000	25.926544	0.000200	20.831114
1790.558871	-2.984900	3.414200	-10.191000	25.923213	0.000198	20.834406
1791.545189	-3.009100	3.413800	-10.271000	25.932526	0.000200	20.831908
1792.547507	-2.981400	3.414800	-10.180000	25.927582	0.000197	20.831683
1793.547891	-2.992600	3.412400	-10.211000	25.939030	0.000200	20.817580
1794.545765	-3.023000	3.411100	-10.311000	25.949114	0.000198	20.819176
1795.546773	-2.992300	3.413000	-10.212000	25.922133	0.000198	20.826209
1796.558699	-2.989300	3.413600	-10.204000	25.854686	0.000195	20.811558
1797.545563	-2.989800	3.411400	-10.198000	25.816054	0.000195	20.799304
1798.549803	-3.019200	3.411900	-10.301000	25.850484	0.000194	20.841001
1799.549249	-3.008800	3.411600	-10.264000	25.838383	0.000197	20.819363
1800.550620	-2.993100	3.410600	-10.207000	25.806059	0.000193	20.807282
1801.555575	-3.007100	3.410000	-10.254000	25.815745	0.000194	20.811322
1802.552588	-2.991700	3.410000	-10.201000	25.804662	0.000192	20.825318
1803.552810	-2.984900	3.411200	-10.181000	25.817628	0.000195	20.810368
1804.549313	-2.992600	3.409300	-10.202000	25.818395	0.000192	20.816828
1805.555341	-2.989600	3.409300	-10.191000	25.803139	0.000194	20.812409
1806.553677	-2.996200	3.409100	-10.213000	25.785993	0.000191	20.806091
1807.549678	-3.014000	3.408800	-10.273000	25.774090	0.000191	20.802670
1808.555013	-2.991200	3.408600	-10.195000	25.781391	0.000192	20.792934
1809.553109	-3.000700	3.408300	-10.227000	25.783203	0.000190	20.817513
1810.549755	-3.001200	3.409200	-10.231000	25.804713	0.000190	20.818257
1811.556629	-3.009500	3.408000	-10.256000	25.817233	0.000189	20.812342
1812.560467	-3.018700	3.408100	-10.286000	25.858665	0.000189	20.823142
1813.567954	-2.973100	3.407200	-10.129000	25.836926	0.000189	20.817425
1814.563176	-2.980200	3.408300	-10.157000	25.821866	0.000191	20.791866
1815.561415	-3.010300	3.406900	-10.255000	25.822584	0.000189	20.790216
1816.558187	-2.991500	3.407000	-10.192000	25.825090	0.000189	20.784673
1817.556213	-2.985600	3.405900	-10.167000	25.833483	0.000189	20.795949
1818.557299	-3.018600	3.404800	-10.276000	25.870074	0.000188	20.795248
1819.557667	-3.003600	3.406500	-10.231000	25.930557	0.000188	20.795318
1820.564339	-3.004500	3.405400	-10.231000	25.900399	0.000187	20.786831
1821.561591	-3.003300	3.404300	-10.223000	25.927720	0.000190	20.802899
1822.558125	-2.996000	3.404800	-10.200000	25.934846	0.000189	20.779238
1823.568365	-2.992900	3.404700	-10.189000	25.900314	0.000189	20.801919
1824.557600	-3.008300	3.404400	-10.240000	25.838131	0.000189	20.815791
1825.557234	-2.985300	3.402700	-10.157000	25.842649	0.000186	20.788086
1826.561976	-2.987900	3.403400	-10.168000	25.885177	0.000186	20.781971
1827.558935	-2.985800	3.403200	-10.161000	25.920649	0.000185	20.782993
1828.559811	-2.969300	3.404100	-10.107000	25.912298	0.000188	20.772232
1829.562880	-2.980700	3.403900	-10.145000	25.920046	0.000185	20.801827
1830.563110	-2.989100	3.402400	-10.170000	25.873540	0.000187	20.771229
1831.559621	-3.030400	3.402000	-10.309000	25.891973	0.000188	20.774099
1832.568052	-3.027500	3.399900	-10.292000	25.881238	0.000185	20.769953
1833.570836	-3.000800	3.398800	-10.198000	25.881684	0.000185	20.780832
1834.560794	-2.991200	3.401400	-10.174000	25.888190	0.000188	20.794007
1835.563438	-3.018600	3.400700	-10.264000	25.894250	0.000187	20.779231
1836.560290	-2.999700	3.399400	-10.197000	25.863075	0.000186	20.776363
1837.566875	-3.002000	3.398600	-10.202000	25.911537	0.000187	20.782374
1838.565368	-3.005700	3.400100	-10.219000	25.889279	0.000186	20.781350
1839.567007	-3.022300	3.397700	-10.268000	25.901424	0.000187	20.774111
1840.561152	-3.017400	3.398800	-10.254000	25.951553	0.000185	20.771366
1841.570681	-2.996800	3.397800	-10.182000	25.914415	0.000185	20.768196
1842.574197	-3.017000	3.397700	-10.250000	25.848734	0.000184	20.765275
1843.570850	-2.989200	3.399400	-10.160000	25.854175	0.000184	20.769793
1844.573231	-3.001400	3.398000	-10.198000	25.900653	0.000186	20.778552
1845.568740	-2.993000	3.396800	-10.165000	25.899410	0.000182	20.771613
1846.564644	-2.996400	3.397700	-10.180000	25.962305	0.000182	20.790229
1847.567213	-3.007400	3.396700	-10.214000	25.988386	0.000182	20.772335
1848.570831	-3.008200	3.396500	-10.217000	25.968614	0.000182	20.763376
1849.561187	-2.982700	3.397000	-10.131000	26.029245	0.000181	20.759332
1850.566890	-2.996300	3.395100	-10.171000	26.052717	0.000182	20.763000
1851.562744	-2.991000	3.395700	-10.155000	26.014442	0.000180	20.769116
1852.563236	-2.983700	3.395600	-10.131000	26.004380	0.000181	20.746204
1853.562739	-3.011400	3.394400	-10.221000	26.013447	0.000181	20.756261
1854.564778	-2.999400	3.394900	-10.182000	25.990719	0.000178	20.772782
1855.567896	-3.017400	3.393200	-10.238000	25.940366	0.000180	20.780990
1856.563785	-3.006400	3.395300	-10.207000	25.909565	0.000180	20.778021
1857.562589	-3.007600	3.394400	-10.208000	25.932392	0.000179	20.776298
1858.565688	-3.000400	3.392300	-10.178000	25.960486	0.000179	20.762322
1859.571160	-2.994100	3.392900	-10.158000	25.989869	0.000179	20.754858
1860.563902	-2.996300	3.392400	-10.163000	26.000948	0.000177	20.774524
1861.566339	-2.996300	3.392400	-10.164000	25.962917	0.000178	20.770929
1862.570595	-3.004500	3.391500	-10.188000	25.921930	0.000178	20.756778
1863.569737	-2.998000	3.390600	-10.163000	25.943765	0.000178	20.768757
1864.564219	-3.002600	3.392300	-10.184000	25.965027	0.000176	20.781583
1865.565074	-2.993500	3.392000	-10.153000	26.001365	0.000180	20.787271
1866.563185	-3.014700	3.389200	-10.216000	25.993864	0.000179	20.776890
1867.568668	-3.007000	3.389400	-10.191000	25.988398	0.000178	20.755277
1868.574326	-2.999600	3.389500	-10.166000	25.980227	0.000178	20.764612
1869.569338	-2.985200	3.389500	-10.117000	25.976698	0.000176	20.745418
1870.573539	-2.978900	3.391200	-10.101000	26.020339	0.000179	20.753229
1871.580127	-3.009300	3.389200	-10.198000	26.009111	0.000177	20.755224
1872.578267	-3.004100	3.388400	-10.178000	25.995298	0.000174	20.765055
1873.583635	-2.989100	3.390000	-10.132000	26.034768	0.000178	20.762984
1874.567157	-2.964000	3.389200	-10.045000	26.019788	0.000174	20.776857
1875.585308	-2.984100	3.388800	-10.111000	25.986504	0.000178	20.771867
1876.574399	-2.996300	3.387200	-10.148000	25.989657	0.000176	20.772663
1877.566384	-2.985400	3.387700	-10.112000	25.932773	0.000176	20.782370
1878.579888	-3.020500	3.386800	-10.229000	25.915906	0.000174	20.746933
1879.569384	-2.998500	3.387700	-10.157000	25.906961	0.000173	20.777776
1880.569084	-3.005600	3.386700	-10.178000	25.947550	0.000174	20.766870
1881.569986	-3.024100	3.385700	-10.238000	25.923131	0.000172	20.768416
1882.577244	-3.025100	3.386100	-10.242000	25.931971	0.000176	20.768288
1883.569561	-2.996000	3.386000	-10.143000	25.950131	0.000173	20.735797
1884.575981	-2.975900	3.386000	-10.075000	25.936614	0.000172	20.764418
1885.574038	-2.986300	3.385700	-10.110000	25.979388	0.000172	20.770881
1886.587059	-2.984200	3.385300	-10.101000	26.015528	0.000172	20.752663
1887.578957	-3.017200	3.383600	-10.208000	26.017488	0.000172	20.757477
1888.570160	-3.001500	3.383500	-10.154000	25.992400	0.000173	20.776368
1889.575108	-3.002900	3.382700	-10.156000	26.003031	0.000173	20.779462
1890.575741	-3.003500	3.383600	-10.162000	26.075607	0.000173	20.771301
1891.575151	-3.004000	3.382700	-10.161000	26.102008	0.000173	20.775542
1892.571801	-2.990500	3.383000	-10.116000	26.097088	0.000172	20.781978
1893.572147	-3.010100	3.381200	-10.177000	26.107470	0.000170	20.756374
1894.584623	-3.021800	3.381800	-10.219000	26.049824	0.000173	20.785224
1895.571897	-3.006000	3.382700	-10.168000	26.054689	0.000169	20.777785
1896.573831	-3.000800	3.380800	-10.145000	26.065818	0.000169	20.783276
1897.574181	-3.018400	3.381200	-10.205000	26.064995	0.000171	20.777234
1898.572703	-3.001300	3.381700	-10.148000	26.041423	0.000169	20.767774
1899.569218	-2.993500	3.381300	-10.120000	26.051631	0.000171	20.781824
1900.584391	-2.996600	3.380400	-10.128000	26.020708	0.000170	20.801490
1901.570112	-3.010800	3.379900	-10.176000	25.961913	0.000168	20.765178
1902.576321	-3.035700	3.380000	-10.259000	25.946536	0.000168	20.769644
1903.574516	-3.032800	3.379600	-10.248000	25.952002	0.000168	20.788886
1904.576211	-3.000700	3.380200	-10.143000	25.977237	0.000167	20.768246
1905.573803	-3.008400	3.378400	-10.163000	26.033547	0.000168	20.790681
1906.571106	-3.000700	3.378200	-10.136000	26.063328	0.000166	20.776032
1907.583870	-3.008300	3.378700	-10.163000	26.071897	0.000168	20.770892
1908.572285	-3.009500	3.378300	-10.166000	26.082252	0.000167	20.772762
1909.583947	-2.984000	3.378100	-10.080000	26.054062	0.000166	20.774784
1910.585111	-2.986700	3.377500	-10.087000	26.109847	0.000165	20.763030
1911.574255	-3.021800	3.375800	-10.200000	26.106693	0.000165	20.790681
1912.573534	-3.006100	3.377000	-10.150000	26.085581	0.000164	20.747182
1913.573475	-2.978000	3.377000	-10.055000	26.086574	0.000165	20.786588
1914.573032	-3.002300	3.376600	-10.136000	26.058657	0.000165	20.792677
1915.574877	-3.005900	3.375400	-10.145000	26.047181	0.000163	20.785888
1916.577235	-3.002400	3.375600	-10.134000	26.062431	0.000165	20.781770
1917.573742	-3.002000	3.374000	-10.128000	26.090024	0.000163	20.780097
1918.575726	-2.996200	3.375500	-10.113000	26.061932	0.000163	20.785062
1919.573867	-3.004000	3.374600	-10.136000	26.059673	0.000161	20.788956
1920.578930	-2.989900	3.373500	-10.085000	26.013100	0.000163	20.790053
1921.587514	-3.018600	3.373300	-10.182000	26.072313	0.000162	20.784112
1922.577324	-3.005600	3.372900	-10.136000	26.014042	0.000162	20.788155
1923.578241	-2.989600	3.373600	-10.085000	26.017073	0.000162	20.785036
1924.581456	-3.007000	3.373000	-10.142000	26.031652	0.000161	20.797312
1925.580229	-2.980500	3.374000	-10.055000	26.067342	0.000161	20.792394
1926.578498	-3.019700	3.372300	-10.183000	26.098563	0.000159	20.791047
1927.577633	-2.979800	3.372300	-10.047000	26.099232	0.000160	20.778443
1928.581267	-2.994400	3.372200	-10.096000	26.098711	0.000159	20.784557
1929.593400	-3.008600	3.371400	-10.143000	26.092473	0.000160	20.793463
1930.587930	-3.019700	3.371300	-10.179000	26.068655	0.000159	20.807938
1931.583189	-3.023100	3.369600	-10.186000	26.054545	0.000159	20.794235
1932.581043	-2.994300	3.371100	-10.093000	26.051689	0.000159	20.774295
1933.582114	-2.981400	3.370000	-10.047000	26.093488	0.000156	20.788793
1934.579454	-2.986000	3.371100	-10.065000	26.140426	0.000159	20.799921
1935.589849	-3.001100	3.369200	-10.110000	26.106624	0.000159	20.797724
1936.582471	-3.025400	3.367600	-10.187000	26.090355	0.000156	20.788490
1937.578231	-2.995700	3.369300	-10.092000	26.044826	0.000154	20.788737
1938.584118	-3.001200	3.369000	-10.110000	26.031983	0.000157	20.814240
1939.584324	-3.007200	3.369300	-10.131000	26.009601	0.000154	20.804555
1940.580620	-2.983300	3.367700	-10.046000	26.005229	0.000156	20.791154
1941.591418	-2.989200	3.367600	-10.065000	26.027730	0.000158	20.809019
1942.600890	-3.014800	3.366400	-10.148000	26.097474	0.000157	20.815083
1943.583020	-2.998500	3.367300	-10.096000	26.123499	0.000158	20.793817
1944.601341	-3.012300	3.366600	-10.141000	26.124715	0.000155	20.798833
1945.584677	-2.998300	3.366600	-10.093000	26.134796	0.000156	20.786677
1946.592007	-3.015900	3.365600	-10.149000	26.108568	0.000153	20.790195
1947.586094	-3.014800	3.365500	-10.145000	26.109882	0.000154	20.811903
1948.585780	-2.978700	3.365900	-10.025000	26.094507	0.000155	20.799774
1949.587460	-2.992100	3.365700	-10.070000	26.061100	0.000156	20.790864
1950.588745	-3.004900	3.366000	-10.113000	26.078362	0.000152	20.805837
1951.594987	-2.995700	3.363700	-10.076000	26.107469	0.000154	20.807582
1952.599895	-3.003800	3.363400	-10.101000	26.104015	0.000154	20.809327
1953.589320	-2.991200	3.363500	-10.060000	26.084491	0.000152	20.808677
1954.597126	-3.010000	3.362800	-10.121000	26.107814	0.000152	20.808403
1955.604029	-2.991800	3.363100	-10.061000	26.070655	0.000154	20.807577
1956.587350	-2.989300	3.362800	-10.052000	26.064545	0.000154	20.812818
1957.600914	-3.002200	3.362000	-10.093000	26.031809	0.000151	20.788935
1958.589607	-3.007400	3.362700	-10.112000	26.018271	0.000152	20.808050
1959.597239	-3.004100	3.361700	-10.098000	26.009625	0.000151	20.800312
1960.591815	-2.999600	3.362300	-10.085000	26.000832	0.000152	20.788632
1961.596872	-3.021300	3.361200	-10.155000	26.076141	0.000152	20.814986
1962.588778	-2.992300	3.362500	-10.060000	26.133933	0.000151	20.797664
1963.599255	-2.994600	3.360700	-10.063000	26.124693	0.000149	20.813984
1964.603848	-2.989500	3.361900	-10.050000	26.129809	0.000151	20.796839
1965.590530	-3.000700	3.360400	-10.082000	26.145604	0.000148	20.807969
1966.592119	-2.992600	3.359900	-10.053000	26.190033	0.000150	20.792870
1967.609516	-2.990600	3.357800	-10.041000	26.190753	0.000149	20.804972
1968.590634	-2.999200	3.360300	-10.076000	26.189957	0.000150	20.821716
1969.594358	-3.001100	3.358600	-10.078000	26.171653	0.000150	20.805694
1970.595487	-2.992600	3.357800	-10.048000	26.162936	0.000150	20.808788
1971.590767	-2.994400	3.357900	-10.054000	26.135020	0.000150	20.820567
1972.601027	-3.017000	3.357600	-10.128000	26.128736	0.000148	20.832744
1973.598648	-3.007600	3.357700	-10.098000	26.109064	0.000148	20.821038
1974.598782	-3.009500	3.357300	-10.103000	26.126027	0.000147	20.811531
1975.596048	-2.987000	3.358000	-10.029000	26.153818	0.000147	20.816696
1976.602752	-3.009200	3.357300	-10.101000	26.155580	0.000148	20.817044
1977.594393	-3.009100	3.355000	-10.094000	26.162857	0.000147	20.802071
1978.595987	-3.016200	3.355700	-10.120000	26.172047	0.000145	20.809409
1979.598174	-3.004000	3.355500	-10.079000	26.216797	0.000143	20.797953
1980.597262	-3.003600	3.356800	-10.081000	26.256181	0.000147	20.831366
1981.598505	-3.010700	3.355500	-10.102000	26.243144	0.000144	20.802618
1982.595168	-2.991100	3.355300	-10.035000	26.221688	0.000147	20.822781
1983.599191	-3.001200	3.354100	-10.065000	26.232440	0.000146	20.835957
1984.601445	-2.984200	3.354700	-10.011000	26.201943	0.000144	20.827597
1985.596436	-3.011100	3.353600	-10.098000	26.166752	0.000145	20.812149
1986.599481	-3.002200	3.353000	-10.066000	26.127264	0.000144	20.815144
1987.598509	-2.985000	3.352300	-10.006000	26.181652	0.000144	20.845139
1988.599204	-3.030500	3.351700	-10.156000	26.227967	0.000144	20.825299
1989.606824	-2.995700	3.352700	-10.043000	26.248281	0.000146	20.815367
1990.607701	-3.001400	3.352900	-10.062000	26.288610	0.000145	20.831238
1991.600834	-2.996400	3.351200	-10.041000	26.306812	0.000144	20.811598
1992.606841	-3.002900	3.351400	-10.063000	26.331594	0.000144	20.827495
1993.601144	-3.001100	3.352700	-10.061000	26.295438	0.000145	20.828143
1994.605896	-3.002000	3.351300	-10.060000	26.272097	0.000142	20.834557
1995.605840	-2.991000	3.351300	-10.023000	26.302989	0.000143	20.839050
1996.601338	-3.002700	3.350600	-10.060000	26.261667	0.000141	20.817912
1997.607710	-3.004000	3.350200	-10.064000	26.229756	0.000141	20.828045
1998.602386	-2.999400	3.349100	-10.044000	26.245302	0.000139	20.831813
1999.601189	-2.993000	3.349800	-10.025000	26.244011	0.000141	20.838576
2000.605403	-2.995300	3.349000	-10.030000	26.233433	0.000141	20.827472
2001.609130	-2.998100	3.348000	-10.037000	26.282452	0.000142	20.825050
2002.603433	-3.010000	3.348100	-10.076000	26.270582	0.000140	20.851526
2003.605089	-2.988500	3.348900	-10.008000	26.240584	0.000140	20.829916
2004.604228	-3.008100	3.349100	-10.074000	26.200030	0.000139	20.840372
2005.606132	-2.998000	3.348400	-10.038000	26.220444	0.000140	20.831963
2006.605715	-2.975200	3.347400	-9.957400	26.259756	0.000138	20.853449
2007.617837	-2.978500	3.347000	-9.968400	26.220369	0.000138	20.847060
2008.609031	-2.996000	3.346700	-10.026000	26.185577	0.000139	20.846237
2009.605883	-3.001300	3.345600	-10.040000	26.188928	0.000137	20.839174
2010.607510	-3.008900	3.346700	-10.069000	26.193722	0.000138	20.840671
2011.618078	-3.007600	3.345500	-10.061000	26.233603	0.000136	20.840919
2012.607333	-2.994600	3.345900	-10.019000	26.248480	0.000136	20.856343
2013.607808	-3.007300	3.344600	-10.056000	26.210980	0.000134	20.855168
2014.607622	-3.005600	3.344000	-10.049000	26.203679	0.000135	20.847832
2015.615790	-3.016800	3.343300	-10.085000	26.203406	0.000134	20.862730
2016.613199	-3.006300	3.343200	-10.050000	26.258139	0.000133	20.839497
2017.611312	-2.994500	3.344400	-10.014000	26.324069	0.000135	20.853123
2018.608592	-3.012000	3.343300	-10.069000	26.386146	0.000134	20.857664
2019.609657	-2.992100	3.343700	-10.004000	26.384307	0.000134	20.847282
2020.617024	-2.968600	3.343700	-9.924500	26.350090	0.000136	20.847032
2021.613678	-3.010200	3.342800	-10.063000	26.370500	0.000134	20.844785
2022.617071	-2.987500	3.343000	-9.986100	26.369980	0.000133	20.852796
2023.616509	-3.007200	3.341800	-10.049000	26.327543	0.000132	20.865621
2024.617026	-2.993100	3.342400	-10.003000	26.323421	0.000135	20.873333
2025.614826	-2.990200	3.342200	-9.992900	26.355899	0.000134	20.848128
2026.612761	-2.985800	3.343000	-9.980700	26.385870	0.000131	20.850748
2027.614217	-2.990700	3.340600	-9.989200	26.423958	0.000133	20.883338
2028.615684	-2.997200	3.340200	-10.010000	26.337968	0.000132	20.863297
2029.612880	-2.986600	3.340600	-9.974900	26.315696	0.000130	20.850871
2030.628470	-2.997400	3.340800	-10.013000	26.313608	0.000133	20.868213
2031.626451	-2.987600	3.340600	-9.980100	26.350159	0.000133	20.867014
2032.616182	-2.982600	3.339300	-9.958100	26.363319	0.000131	20.867438
2033.616599	-3.025300	3.337400	-10.096000	26.392817	0.000131	20.864843
2034.624490	-3.012200	3.338000	-10.053000	26.402079	0.000131	20.869410
2035.620105	-3.003300	3.339000	-10.027000	26.411785	0.000130	20.866837
2036.616510	-3.016800	3.338900	-10.072000	26.410271	0.000129	20.860100
2037.618707	-3.025800	3.338500	-10.101000	26.368655	0.000129	20.877067
2038.630798	-3.011500	3.338300	-10.051000	26.407290	0.000130	20.865638
2039.617533	-2.993100	3.337200	-9.987500	26.454439	0.000128	20.874621
2040.620433	-3.014300	3.336600	-10.057000	26.430082	0.000128	20.854881
2041.623896	-2.997900	3.336000	-9.999900	26.347595	0.000129	20.853533
2042.619024	-3.019000	3.335900	-10.070000	26.323483	0.000126	20.855378
2043.631068	-3.007300	3.335600	-10.030000	26.321571	0.000128	20.863413
2044.619872	-3.007400	3.334900	-10.028000	26.387397	0.000128	20.838533
2045.627651	-3.005600	3.336000	-10.026000	26.399760	0.000127	20.867553
2046.630647	-3.015200	3.334200	-10.052000	26.381410	0.000126	20.880404
2047.632956	-2.992200	3.335800	-9.980000	26.398889	0.000124	20.852454
2048.625039	-2.999200	3.333600	-9.997700	26.395114	0.000126	20.863832
2049.620224	-3.008600	3.334200	-10.031000	26.409267	0.000124	20.878530
2050.620659	-3.007600	3.333900	-10.027000	26.450507	0.000124	20.874462
2051.624718	-3.018700	3.333400	-10.061000	26.496984	0.000126	20.882770
2052.623218	-2.996200	3.333100	-9.986100	26.557362	0.000125	20.896992
2053.627644	-3.006300	3.332900	-10.019000	26.584694	0.000124	20.896018
2054.626982	-2.997900	3.332100	-9.988500	26.551179	0.000124	20.877976
2055.622300	-3.000000	3.332200	-9.996100	26.537348	0.000124	20.876402
2056.628885	-3.001100	3.330900	-9.995700	26.528534	0.000121	20.890774
2057.623363	-3.033000	3.330100	-10.098000	26.526423	0.000124	20.879645
2058.627740	-2.993200	3.333200	-9.975600	26.497176	0.000123	20.869213
2059.623155	-3.025500	3.330400	-10.074000	26.488758	0.000121	20.864072
2060.623291	-3.022000	3.329700	-10.062000	26.443221	0.000119	20.871880
2061.624426	-2.985700	3.330300	-9.942500	26.480836	0.000122	20.886927
2062.624081	-2.977300	3.330300	-9.914200	26.495557	0.000125	20.884181
2063.631330	-3.006400	3.329400	-10.009000	26.477010	0.000121	20.879288
2064.628107	-2.989000	3.329300	-9.950700	26.502358	0.000120	20.885327
2065.633342	-3.038700	3.327900	-10.112000	26.476437	0.000123	20.885825
2066.629359	-2.995200	3.329300	-9.971400	26.476064	0.000122	20.876916
2067.628362	-3.000200	3.328700	-9.986100	26.444705	0.000121	20.889018
2068.625785	-3.010000	3.327600	-10.014000	26.441798	0.000120	20.891311
2069.624923	-3.001500	3.327100	-9.984900	26.461612	0.000124	20.873769
2070.627528	-3.011400	3.328300	-10.022000	26.416770	0.000120	20.895078
2071.627334	-3.012800	3.326100	-10.020000	26.442889	0.000120	20.898571
2072.632940	-3.019200	3.326500	-10.042000	26.443782	0.000121	20.889038
2073.627249	-2.993200	3.326100	-9.954400	26.413540	0.000120	20.886617
2074.635724	-3.002600	3.326100	-9.986200	26.449690	0.000120	20.870321
2075.627954	-2.996500	3.325200	-9.963000	26.424984	0.000117	20.911393
2076.633188	-3.002700	3.325900	-9.985300	26.472133	0.000117	20.879128
2077.633770	-3.016500	3.324500	-10.028000	26.459469	0.000119	20.899589
2078.631171	-2.998600	3.324300	-9.967300	26.488443	0.000118	20.900262
2079.632618	-2.978800	3.323500	-9.898800	26.509049	0.000119	20.909594
2080.637290	-3.016400	3.324200	-10.025000	26.579455	0.000120	20.911139
2081.633260	-2.989500	3.324500	-9.938000	26.665919	0.000121	20.921245
2082.635134	-3.013700	3.323000	-10.014000	26.666266	0.000119	20.893147
2083.634808	-3.022500	3.321700	-10.039000	26.691411	0.000121	20.883814
2084.633039	-3.006800	3.321900	-9.987300	26.737183	0.000118	20.883364
2085.633910	-3.013400	3.322600	-10.012000	26.705237	0.000119	20.907669
2086.636541	-3.017000	3.321800	-10.021000	26.728519	0.000119	20.898834
2087.635233	-3.011800	3.321800	-10.004000	26.650574	0.000118	20.880218
2088.632980	-3.010100	3.321200	-9.996100	26.627612	0.000119	20.901229
2089.635937	-3.018300	3.320700	-10.022000	26.553260	0.000115	20.903774
2090.633576	-2.980600	3.321200	-9.897600	26.535260	0.000119	20.916499
2091.635137	-2.996800	3.320800	-9.951200	26.559267	0.000120	20.911234
2092.634705	-2.997600	3.319900	-9.951100	26.530941	0.000118	20.898883
2093.632909	-2.999400	3.319900	-9.956800	26.491912	0.000117	20.911808
2094.639138	-2.988000	3.320400	-9.920100	26.482353	0.000119	20.903149
2095.636074	-2.981600	3.320200	-9.898900	26.510432	0.000118	20.907665
2096.639226	-3.000400	3.318000	-9.953900	26.569793	0.000117	20.909487
2097.635456	-2.983500	3.319300	-9.902100	26.553854	0.000117	20.906742
2098.635960	-2.989400	3.319000	-9.921500	26.552811	0.000118	20.904745
2099.637905	-2.984000	3.318400	-9.901600	26.570562	0.000117	20.903149
2100.635816	-2.991300	3.317400	-9.921700	26.571928	0.000116	20.894565
2101.645453	-2.970400	3.318300	-9.855400	26.575578	0.000116	20.908190
2102.645130	-2.982700	3.318100	-9.895800	26.613088	0.000116	20.891845
2103.642116	-2.998100	3.316700	-9.942500	26.642456	0.000115	20.891496
2104.638074	-2.990300	3.317000	-9.917500	26.603705	0.000117	20.903275
2105.645767	-2.997200	3.314000	-9.931900	26.548767	0.000115	20.913007
2106.640604	-3.006400	3.316000	-9.968500	26.583549	0.000115	20.902453
2107.639061	-3.000300	3.315400	-9.946000	26.668026	0.000115	20.895391
2108.640821	-3.015700	3.314800	-9.995400	26.688753	0.000115	20.884460
2109.643463	-2.999300	3.313800	-9.938500	26.690616	0.000113	20.885859
2110.640615	-2.991100	3.313600	-9.910200	26.704543	0.000112	20.886110
2111.651738	-2.986400	3.313200	-9.893300	26.663633	0.000114	20.872484
2112.643693	-2.983100	3.313300	-9.882500	26.610883	0.000114	20.897214
2113.641833	-2.995600	3.313300	-9.924500	26.564385	0.000111	20.891251
2114.640663	-2.989000	3.312200	-9.899100	26.548844	0.000111	20.869940
2115.640631	-2.989000	3.311400	-9.896900	26.637372	0.000114	20.882118
2116.641036	-2.995400	3.311300	-9.917800	26.694367	0.000111	20.884414
2117.641614	-2.985400	3.312200	-9.887200	26.704370	0.000110	20.891626
2118.641326	-2.976500	3.311600	-9.856100	26.702509	0.000112	20.892599
2119.642576	-2.957600	3.312200	-9.794500	26.649362	0.000108	20.861457
2120.645976	-3.006300	3.311600	-9.955300	26.615329	0.000109	20.892201
2121.642312	-2.985600	3.310700	-9.883800	26.596015	0.000108	20.870891
2122.644400	-2.988300	3.310800	-9.893100	26.615354	0.000107	20.881321
2123.642590	-2.984200	3.309800	-9.876500	26.638937	0.000110	20.875632
2124.642134	-2.996000	3.308700	-9.911900	26.667286	0.000107	20.884690
2125.645046	-2.998500	3.308900	-9.919900	26.694889	0.000107	20.868345
2126.643180	-2.998300	3.308200	-9.917700	26.666615	0.000106	20.889705
2127.645293	-3.004900	3.308500	-9.941200	26.655990	0.000106	20.891826
2128.645864	-2.995400	3.309600	-9.911900	26.654004	0.000107	20.868020
2129.643687	-3.009100	3.308200	-9.953400	26.652613	0.000105	20.865673
2130.661194	-2.992100	3.308100	-9.897100	26.701191	0.000105	20.887482
2131.646518	-2.995400	3.306900	-9.904400	26.776004	0.000106	20.870239
2132.645362	-3.002800	3.306700	-9.928500	26.834034	0.000107	20.861729
2133.652025	-3.012500	3.305000	-9.954700	26.779752	0.000105	20.868791
2134.645378	-2.978700	3.306600	-9.848400	26.782010	0.000102	20.856837
2135.648511	-2.992000	3.305800	-9.889900	26.725291	0.000103	20.861452
2136.648904	-2.991000	3.305700	-9.886600	26.716206	0.000106	20.855164
2137.653919	-2.977700	3.305600	-9.841300	26.754208	0.000104	20.890049
2138.647292	-2.990300	3.304300	-9.880600	26.781336	0.000104	20.868962
2139.645342	-3.002000	3.304500	-9.918700	26.839465	0.000104	20.856284
2140.646596	-2.998000	3.304200	-9.905200	26.876892	0.000105	20.866416
2141.651176	-3.005400	3.303000	-9.926300	26.910991	0.000103	20.872254
2142.659269	-2.997600	3.303000	-9.899800	26.874979	0.000105	20.858803
2143.646957	-2.980600	3.303200	-9.844800	26.810325	0.000104	20.872977
2144.646962	-2.974300	3.303300	-9.823900	26.766416	0.000101	20.870081
2145.646919	-2.992900	3.303200	-9.885000	26.724044	0.000102	20.857354
2146.656215	-2.980500	3.302200	-9.841600	26.729531	0.000103	20.866662
2147.649746	-3.001300	3.302200	-9.909400	26.693239	0.000103	20.862894
2148.650943	-3.004500	3.300400	-9.915200	26.722033	0.000103	20.860074
2149.655914	-3.016900	3.301300	-9.959000	26.743280	0.000102	20.842081
2150.654766	-3.019700	3.300400	-9.964600	26.766042	0.000101	20.860223
2151.654594	-2.978700	3.300700	-9.830500	26.794833	0.000102	20.847445
2152.656943	-3.000600	3.299800	-9.900600	26.800691	0.000101	20.849068
2153.648386	-2.981900	3.300000	-9.838400	26.813945	0.000101	20.855282
2154.646680	-2.995600	3.299800	-9.884100	26.799177	9.892475E-5	20.846123
2155.654054	-3.008200	3.298500	-9.921200	26.820275	0.000101	20.848370
2156.656032	-3.021600	3.297600	-9.962600	26.823402	0.000100	20.852462
2157.653929	-3.000400	3.298500	-9.895800	26.823551	0.000100	20.866362
2158.649038	-3.013800	3.298700	-9.940100	26.802231	0.000101	20.858202
2159.651302	-3.015200	3.297400	-9.940800	26.816676	9.915577E-5	20.836691
2160.651583	-2.991600	3.296500	-9.860600	26.870312	9.846272E-5	20.856955
2161.649932	-2.999300	3.297700	-9.890200	26.886741	0.000101	20.839336
2162.654251	-3.003600	3.296000	-9.899100	26.837923	9.803369E-5	20.849993
2163.651081	-3.010800	3.296600	-9.924600	26.797218	9.806669E-5	20.859800
2164.651547	-2.991000	3.296300	-9.857700	26.816753	9.859473E-5	20.852414
2165.652421	-3.006400	3.294500	-9.904000	26.793819	9.796768E-5	20.836469
2166.653879	-2.991300	3.294700	-9.854300	26.768006	9.668059E-5	20.833749
2167.652359	-3.001500	3.294800	-9.888700	26.790592	9.380938E-5	20.847923
2168.656606	-3.003800	3.294600	-9.895000	26.847157	9.539350E-5	20.845053
2169.652322	-2.996500	3.294300	-9.870800	26.879993	9.506347E-5	20.857681
2170.651760	-2.990400	3.293700	-9.848800	26.886695	9.509647E-5	20.855410
2171.653313	-3.003700	3.292300	-9.886800	26.915558	9.258829E-5	20.852665
2172.665288	-2.990700	3.292800	-9.847300	26.863266	9.453543E-5	20.847026
2173.665355	-3.007700	3.292300	-9.901300	26.919033	9.536049E-5	20.868487
2174.654311	-3.009300	3.291800	-9.905300	26.917023	9.387538E-5	20.832802
2175.654298	-2.989800	3.293100	-9.844300	26.888259	9.374338E-5	20.827587
2176.655921	-3.011100	3.291100	-9.909100	26.893149	9.559151E-5	20.858107
2177.656768	-2.999200	3.290700	-9.868500	26.859023	9.344635E-5	20.843708
2178.653435	-3.002600	3.291400	-9.881400	26.887391	9.288531E-5	20.844257
2179.657922	-2.991500	3.290800	-9.843300	26.925858	9.334735E-5	20.826040
2180.658797	-3.004200	3.290400	-9.883500	26.972490	9.433742E-5	20.848749
2181.658904	-2.994500	3.289500	-9.849700	26.980803	9.281931E-5	20.832453
2182.658942	-2.994500	3.289100	-9.848500	27.038897	9.400739E-5	20.845355
2183.656516	-2.984000	3.289000	-9.813400	27.014826	9.196124E-5	20.833477
2184.661102	-2.994300	3.288400	-9.844900	26.944447	9.014611E-5	20.848998
2185.666376	-2.997100	3.287800	-9.852900	26.917247	9.126819E-5	20.835872
2186.657320	-2.984900	3.286900	-9.810900	26.961794	9.110318E-5	20.840838
2187.664970	-2.999300	3.286700	-9.856900	27.000061	8.984909E-5	20.848974
2188.659895	-3.007600	3.287000	-9.884200	27.002789	8.958507E-5	20.828484
2189.683264	-3.012100	3.286000	-9.896600	26.932286	8.889202E-5	20.828235
2190.660155	-2.964700	3.287000	-9.743700	26.892527	8.872701E-5	20.829508
2191.659853	-2.977700	3.285300	-9.781600	26.836287	8.816597E-5	20.851193
2192.659963	-3.003700	3.286500	-9.870500	26.785679	8.816597E-5	20.816905
2193.678398	-2.989800	3.285300	-9.821600	26.795061	8.955207E-5	20.833450
2194.662508	-2.994300	3.285700	-9.837700	26.831843	9.093817E-5	20.820173
2195.660078	-3.006500	3.284200	-9.873100	26.867162	9.087217E-5	20.857107
2196.673586	-2.994600	3.283200	-9.830800	26.906547	8.922204E-5	20.818950
2197.663507	-2.989100	3.282700	-9.811200	26.990975	8.981609E-5	20.804750
2198.671556	-2.977600	3.283600	-9.776000	27.000306	8.994810E-5	20.811763
2199.670204	-2.996400	3.282800	-9.835800	26.959855	9.024512E-5	20.826561
2200.674047	-3.010100	3.281800	-9.877900	26.976929	8.998110E-5	20.814808
2201.677838	-2.993000	3.282900	-9.824600	26.995814	8.968408E-5	20.846600
2202.672293	-3.027900	3.281100	-9.934100	26.954098	9.103718E-5	20.824565
2203.686902	-3.006200	3.279700	-9.858900	26.978270	8.991510E-5	20.833699
2204.678139	-3.001100	3.280800	-9.845100	26.943700	8.905703E-5	20.821696
2205.671541	-2.998000	3.281400	-9.837000	26.982290	8.912304E-5	20.833474
2206.675852	-3.005700	3.279800	-9.857500	26.935461	8.918904E-5	20.825739
2207.674243	-2.964400	3.280700	-9.723500	26.980330	8.856200E-5	20.825340
2208.680992	-2.996600	3.278300	-9.823200	26.952833	8.747292E-5	20.833724
2209.675064	-2.995900	3.280000	-9.825200	26.955092	8.780294E-5	20.826513
2210.673822	-3.018400	3.278000	-9.893300	26.920249	8.717590E-5	20.828459
2211.683176	-3.035600	3.276500	-9.945100	26.970652	8.730790E-5	20.820349
2212.678092	-3.012100	3.277300	-9.870600	27.005222	8.717590E-5	20.838043
2213.673440	-3.002600	3.277300	-9.839600	27.025695	8.668086E-5	20.820226
2214.681954	-3.019200	3.275900	-9.889700	27.075969	8.489873E-5	20.822422
2215.673566	-2.984600	3.278300	-9.783500	27.100015	8.575679E-5	20.819103
2216.674496	-3.002700	3.276800	-9.837600	27.069767	8.628483E-5	20.832304
2217.691922	-3.003600	3.275000	-9.835900	27.066541	8.331461E-5	20.826690
2218.677394	-3.000300	3.275000	-9.825300	27.023388	8.562478E-5	20.826915
2219.675632	-3.009700	3.274800	-9.855400	26.990980	8.536076E-5	20.855963
2220.682253	-2.998400	3.275900	-9.821900	26.920872	8.400766E-5	20.828612
2221.676902	-2.984100	3.275100	-9.772600	26.946459	8.140047E-5	20.845806
2222.675116	-2.970000	3.273400	-9.721500	26.968819	8.275357E-5	20.825617
2223.682163	-2.987700	3.274900	-9.783500	26.965246	8.219253E-5	20.825344
2224.681313	-3.002700	3.272800	-9.826100	26.998773	8.278657E-5	20.822075
2225.684779	-3.002200	3.273300	-9.826000	27.058925	8.057541E-5	20.832306
2226.680942	-2.997600	3.272500	-9.808600	27.038750	8.192851E-5	20.829087
2227.681774	-2.974600	3.271900	-9.732200	27.065177	8.093844E-5	20.828637
2228.680953	-2.968500	3.271200	-9.709900	27.081356	7.955234E-5	20.807451
2229.678008	-3.006900	3.269900	-9.831000	27.083242	7.918931E-5	20.823098
2230.681529	-2.975900	3.272500	-9.736100	27.122149	7.971735E-5	20.828562
2231.679389	-3.001300	3.269900	-9.813600	27.140312	8.179650E-5	20.823122
2232.677069	-2.978200	3.270700	-9.740400	27.180135	7.942033E-5	20.825242
2233.678595	-2.995900	3.270100	-9.795100	27.249678	8.126846E-5	20.807947
2234.680279	-2.988900	3.269000	-9.769600	27.211717	8.229154E-5	20.821921
2235.677552	-2.978400	3.269700	-9.737800	27.191719	7.859527E-5	20.793747
2236.679926	-2.983000	3.269000	-9.750100	27.141599	7.909030E-5	20.826313
2237.682501	-3.008800	3.268000	-9.831300	27.061228	7.909030E-5	20.822295
2238.679226	-2.999600	3.268800	-9.803800	27.056537	7.975035E-5	20.799560
2239.681980	-3.006300	3.267300	-9.821100	27.030852	7.829825E-5	20.788902
2240.679460	-2.986600	3.266000	-9.752200	27.113409	7.932132E-5	20.797013
2241.691651	-2.988700	3.267500	-9.764700	27.181592	8.123546E-5	20.805372
2242.681812	-3.007000	3.265300	-9.817100	27.229080	7.687914E-5	20.802876
2243.680035	-3.000900	3.266400	-9.801000	27.206254	7.829825E-5	20.805047
2244.680160	-2.982000	3.266200	-9.739000	27.182957	7.645011E-5	20.800580
2245.684927	-3.000400	3.265600	-9.796400	27.153480	7.546004E-5	20.798908
2246.680884	-2.983000	3.265400	-9.739400	27.147697	7.753919E-5	20.819645
2247.683417	-2.967700	3.265100	-9.689000	27.207047	7.635110E-5	20.790671
2248.680327	-2.999800	3.263800	-9.789200	27.227962	7.747319E-5	20.800329
2249.683359	-2.992900	3.263000	-9.764600	27.270535	7.885929E-5	20.806168
2250.688889	-2.995300	3.263600	-9.773900	27.248901	7.301786E-5	20.808114
2251.694663	-2.977500	3.265100	-9.720800	27.219797	7.440396E-5	20.811082
2252.685882	-2.990100	3.262900	-9.755500	27.221434	7.437096E-5	20.798979
2253.688374	-2.992300	3.262400	-9.761100	27.182431	7.400793E-5	20.799578
2254.684970	-2.972900	3.261600	-9.695800	27.179900	7.242382E-5	20.791816
2255.685615	-2.983700	3.261100	-9.729800	27.236072	7.186278E-5	20.810382
2256.687961	-2.994900	3.261400	-9.766200	27.206074	7.314987E-5	20.781158
2257.685842	-2.979400	3.260700	-9.714000	27.209225	7.364491E-5	20.794285
2258.684627	-2.979400	3.260800	-9.712800	27.163968	7.179677E-5	20.794284
2259.697627	-3.009200	3.259600	-9.807800	27.144440	7.057568E-5	20.790290
2260.689518	-2.990700	3.259100	-9.746700	27.132430	7.288585E-5	20.782952
2261.690329	-3.011700	3.257800	-9.810900	27.164536	6.975062E-5	20.781105
2262.685800	-2.996700	3.258400	-9.763500	27.185624	7.123573E-5	20.782875
2263.688299	-3.001600	3.257200	-9.776100	27.251596	7.357890E-5	20.812247
2264.687355	-2.983100	3.257700	-9.717600	27.221898	7.037767E-5	20.783324
2265.696945	-3.021500	3.258000	-9.843700	27.186020	6.918958E-5	20.786592
2266.689631	-3.002800	3.255200	-9.774000	27.229538	7.008064E-5	20.776784
2267.689627	-2.983600	3.256700	-9.715400	27.260003	6.948660E-5	20.792255
2268.690000	-3.019200	3.256000	-9.829800	27.284986	6.810050E-5	20.777555
2269.696085	-2.985200	3.255900	-9.718100	27.250277	6.866154E-5	20.781997
2270.690087	-2.994800	3.254500	-9.746100	27.234769	6.790249E-5	20.797692
2271.691630	-2.992600	3.254500	-9.738800	27.212985	6.938759E-5	20.788583
2272.691952	-2.998000	3.254400	-9.755800	27.222164	6.836452E-5	20.782643
2273.689930	-2.987000	3.254300	-9.719700	27.241490	6.849653E-5	20.783590
2274.691096	-3.007400	3.252900	-9.782500	27.210625	6.747345E-5	20.769614
2275.694181	-2.988500	3.253400	-9.722300	27.192611	6.595534E-5	20.782790
2276.692624	-3.017100	3.251300	-9.808700	27.202113	6.968462E-5	20.769588
2277.692164	-3.000200	3.252100	-9.755900	27.203625	6.605435E-5	20.752616
2278.698848	-3.008400	3.251700	-9.781200	27.197522	6.760546E-5	20.766866
2279.704725	-2.999100	3.252000	-9.752300	27.186207	6.720943E-5	20.771133
2280.701287	-3.034700	3.249700	-9.860600	27.127675	6.671440E-5	20.789076
2281.698342	-3.002400	3.251000	-9.760300	27.157871	6.737445E-5	20.762072
2282.699730	-2.988300	3.249700	-9.710200	27.166207	6.744045E-5	20.776147
2283.695933	-3.010800	3.249100	-9.781100	27.121892	6.651638E-5	20.777570
2284.706774	-2.999700	3.250400	-9.749500	27.115167	6.684641E-5	20.776970
2285.698146	-3.004400	3.248500	-9.758400	27.187470	6.790249E-5	20.769558
2286.695224	-3.021300	3.248500	-9.814000	27.236571	6.753946E-5	20.772952
2287.703340	-3.000600	3.247600	-9.743600	27.259619	6.889256E-5	20.773850
2288.700552	-2.998000	3.247500	-9.735600	27.292715	6.843052E-5	20.787701
2289.698447	-2.976000	3.247500	-9.662800	27.271105	6.701142E-5	20.780188
2290.703765	-2.990000	3.246900	-9.707000	27.248851	6.615336E-5	20.759225
2291.699310	-3.002000	3.246500	-9.745100	27.248033	6.727544E-5	20.765515
2292.700314	-2.985200	3.245700	-9.688500	27.205632	6.697842E-5	20.773601
2293.703146	-2.996000	3.245000	-9.720200	27.189951	6.747345E-5	20.763992
2294.701008	-2.990100	3.245200	-9.703000	27.182111	6.720943E-5	20.778392
2295.700110	-2.995100	3.244600	-9.717300	27.186602	6.704442E-5	20.753037
2296.703078	-2.980300	3.244000	-9.667400	27.228632	6.727544E-5	20.773501
2297.703099	-3.003800	3.242300	-9.738300	27.249275	6.664839E-5	20.776247
2298.703078	-3.000200	3.243700	-9.731400	27.265153	6.836452E-5	20.768036
2299.702583	-2.987100	3.243100	-9.686200	27.253865	6.687941E-5	20.753837
2300.701591	-3.020900	3.240200	-9.787600	27.287606	6.790249E-5	20.756482
2301.703275	-3.000100	3.241400	-9.723300	27.342706	6.651638E-5	20.772555
2302.704362	-3.004200	3.240600	-9.734400	27.375329	6.661539E-5	20.758904
2303.702312	-2.998800	3.239800	-9.714900	27.409066	6.486626E-5	20.780043
2304.701882	-2.996500	3.239500	-9.705900	27.429035	6.691241E-5	20.758406
2305.705429	-2.991300	3.239400	-9.689800	27.386666	6.489927E-5	20.761301
2306.703184	-3.020000	3.239200	-9.781600	27.435510	6.635137E-5	20.769188
2307.704626	-3.023200	3.239600	-9.793400	27.467634	6.628537E-5	20.765944
2308.708280	-2.997200	3.238200	-9.704700	27.494176	6.681341E-5	20.755663
2309.704868	-2.998000	3.239200	-9.710000	27.556805	6.542730E-5	20.785486
2310.704014	-3.026600	3.236800	-9.795600	27.531754	6.354617E-5	20.761703
2311.703723	-2.995700	3.237200	-9.696800	27.463593	6.506428E-5	20.772311
2312.704387	-2.993200	3.237300	-9.689500	27.423632	6.635137E-5	20.775256
2313.704382	-2.988800	3.236100	-9.670900	27.386225	6.272111E-5	20.768918
2314.705349	-2.997000	3.236600	-9.698700	27.408327	6.083997E-5	20.775032
2315.704959	-3.014800	3.235900	-9.754800	27.400886	6.169803E-5	20.790780
2316.704864	-3.013800	3.234800	-9.747900	27.391981	6.331515E-5	20.788933
2317.708267	-3.016400	3.234400	-9.755900	27.436559	6.249009E-5	20.772614
2318.706039	-3.021000	3.233200	-9.766500	27.431622	6.357917E-5	20.763379
2319.705621	-2.986600	3.235600	-9.662400	27.484408	5.981689E-5	20.754845
2320.707232	-2.979400	3.233100	-9.632200	27.527393	6.301813E-5	20.785291
2321.710738	-2.996700	3.233300	-9.688500	27.526997	6.156602E-5	20.786789
2322.707745	-2.997000	3.233200	-9.689300	27.533396	6.460224E-5	20.788012
2323.708398	-2.980100	3.232500	-9.632500	27.450276	6.034493E-5	20.763180
2324.711374	-3.003800	3.232500	-9.709400	27.417633	6.232508E-5	20.771591
2325.709139	-2.997700	3.231000	-9.683800	27.411233	6.245709E-5	20.798818
2326.710564	-2.994000	3.231500	-9.672800	27.433607	6.130200E-5	20.786240
2327.713760	-2.985600	3.230500	-9.644500	27.390818	6.440423E-5	20.770693
2328.710040	-2.993500	3.230000	-9.668300	27.365217	6.008091E-5	20.775759
2329.711682	-3.015100	3.228900	-9.734600	27.369608	6.176404E-5	20.790608
2330.712363	-3.018500	3.228600	-9.745100	27.410538	6.239108E-5	20.761134
2331.712013	-3.000900	3.228700	-9.688100	27.432218	6.146701E-5	20.779627
2332.711382	-2.989400	3.228200	-9.649600	27.382979	6.083997E-5	20.771817
2333.710848	-2.990300	3.228000	-9.652100	27.412895	6.037793E-5	20.757816
2334.711765	-2.988900	3.227700	-9.646300	27.494752	6.008091E-5	20.776633
2335.711502	-3.007000	3.226000	-9.700200	27.542028	6.070796E-5	20.770618
2336.711444	-2.997100	3.226100	-9.667700	27.572686	6.364517E-5	20.770644
2337.710156	-3.011200	3.225000	-9.710400	27.596818	5.961888E-5	20.771693
2338.711088	-3.005300	3.224400	-9.689400	27.606417	6.017992E-5	20.762384
2339.712399	-2.995800	3.225200	-9.660800	27.580153	6.021292E-5	20.777683
2340.714358	-2.992400	3.225600	-9.651700	27.545454	6.097198E-5	20.784022
2341.712496	-3.004600	3.224000	-9.685900	27.469876	6.206106E-5	20.762036
2342.718355	-2.980800	3.225200	-9.612800	27.459559	6.034493E-5	20.757346
2343.713892	-2.993900	3.223700	-9.650200	27.442740	6.100498E-5	20.779781
2344.713018	-3.030800	3.221200	-9.762200	27.388664	6.070796E-5	20.775165
2345.712221	-3.007900	3.221700	-9.689900	27.401068	5.843079E-5	20.775316
2346.712519	-2.995700	3.221600	-9.650600	27.449539	6.050994E-5	20.783776
2347.715193	-2.998100	3.221100	-9.656200	27.537719	6.156602E-5	20.768653
2348.711727	-2.989900	3.220400	-9.628600	27.587648	5.965188E-5	20.774793
2349.715923	-3.003300	3.221500	-9.674500	27.535810	6.011392E-5	20.783802
2350.717277	-2.993800	3.219100	-9.636800	27.515100	5.909084E-5	20.800898
2351.714869	-3.019100	3.220900	-9.723500	27.544790	5.928885E-5	20.780036
2352.714175	-3.000000	3.218000	-9.653600	27.562898	5.988290E-5	20.785926
2353.716619	-3.004300	3.217500	-9.666100	27.523635	6.083997E-5	20.791467
2354.715058	-2.989300	3.218600	-9.620300	27.503718	6.034493E-5	20.799878
2355.715546	-2.974600	3.218400	-9.572600	27.461700	5.588961E-5	20.784156
2356.717381	-2.987400	3.216300	-9.606800	27.424244	5.790275E-5	20.798631
2357.716968	-2.980400	3.216600	-9.585900	27.432381	5.714370E-5	20.791645
2358.717403	-2.997900	3.216700	-9.642200	27.484670	5.862881E-5	20.794938
2359.715786	-3.018500	3.214100	-9.700800	27.566201	5.965188E-5	20.796836
2360.716889	-3.002500	3.215900	-9.654600	27.550130	5.892583E-5	20.780667
2361.717361	-2.973600	3.215900	-9.561600	27.518208	5.833178E-5	20.797387
2362.716389	-3.034900	3.213400	-9.751100	27.505658	5.513055E-5	20.800881
2363.723037	-3.003100	3.213900	-9.650700	27.545816	5.826578E-5	20.794344
2364.716440	-3.013100	3.214900	-9.685300	27.569206	5.885982E-5	20.797963
2365.718434	-2.994100	3.212700	-9.618800	27.588454	5.747372E-5	20.794571
2366.719610	-2.992300	3.212900	-9.613500	27.614446	5.909084E-5	20.774257
2367.716923	-2.995400	3.213100	-9.623400	27.600112	5.631864E-5	20.772636
2368.728205	-3.007900	3.210200	-9.655200	27.536668	5.575760E-5	20.783243
2369.719591	-2.998900	3.210300	-9.626900	27.590912	5.582360E-5	20.805105
2370.717736	-3.008000	3.211900	-9.660700	27.580818	5.654965E-5	20.794000
2371.717094	-3.003100	3.208700	-9.635100	27.591731	5.628563E-5	20.796920
2372.717040	-2.993000	3.209300	-9.605000	27.601504	5.684668E-5	20.797270
2373.724834	-2.997700	3.209100	-9.618800	27.558474	5.522956E-5	20.802812
2374.723846	-2.985900	3.208300	-9.579100	27.580027	5.546057E-5	20.806954
2375.730715	-3.003300	3.208200	-9.634500	27.581268	5.519655E-5	20.801091
2376.723789	-2.989600	3.209300	-9.594000	27.536351	5.394246E-5	20.811374
2377.719816	-3.009100	3.207500	-9.650500	27.521643	5.262237E-5	20.797050
2378.723531	-3.018900	3.207800	-9.683200	27.568522	5.308440E-5	20.823827
2379.725492	-3.010300	3.204900	-9.647000	27.587222	5.232534E-5	20.794280
2380.724830	-2.996500	3.206600	-9.607700	27.623533	5.176430E-5	20.804737
2381.720987	-3.018000	3.204100	-9.669000	27.646574	5.173130E-5	20.806111
2382.724198	-3.005300	3.204800	-9.630700	27.695008	5.140128E-5	20.811225
2383.721474	-2.999900	3.205200	-9.613500	27.633678	5.235835E-5	20.798824
2384.725912	-2.992000	3.203700	-9.584900	27.630628	5.199532E-5	20.808557
2385.724576	-3.000500	3.204800	-9.615200	27.645931	5.183031E-5	20.815895
2386.722987	-3.006100	3.203200	-9.628100	27.655752	5.037820E-5	20.804440
2387.723974	-2.989400	3.202400	-9.573200	27.664258	5.100525E-5	20.830069
2388.727308	-2.993100	3.201700	-9.582300	27.638516	4.750699E-5	20.830244
2389.724318	-2.989800	3.202100	-9.573000	27.686207	4.945413E-5	20.823232
2390.735166	-3.008300	3.199700	-9.625000	27.694168	5.024619E-5	20.826501
2391.727328	-3.007400	3.198700	-9.618600	27.719860	4.981716E-5	20.831018
2392.728612	-3.021600	3.199000	-9.665300	27.766828	4.717697E-5	20.816170
2393.736065	-3.003800	3.199300	-9.608800	27.792073	4.806803E-5	20.825454
2394.734925	-3.000500	3.197100	-9.591200	27.752247	4.968515E-5	20.820462
2395.729411	-3.015900	3.196500	-9.639300	27.699771	4.615389E-5	20.805113
2396.724397	-3.030700	3.196800	-9.687400	27.645634	4.437176E-5	20.835984
2397.725414	-3.009100	3.196700	-9.618900	27.644814	4.651692E-5	20.819039
2398.727723	-2.994500	3.195800	-9.567900	27.667655	4.905810E-5	20.824004
2399.730366	-2.955500	3.197100	-9.448200	27.710187	4.651692E-5	20.816543
2400.726655	-2.979000	3.195500	-9.518800	27.747336	4.552685E-5	20.823106
2401.729724	-2.991600	3.195000	-9.557200	27.750286	4.473479E-5	20.814221
2402.729920	-2.976500	3.193800	-9.506100	27.738209	4.364571E-5	20.830991
2403.734319	-2.986400	3.193500	-9.536700	27.713956	4.582387E-5	20.805637
2404.728950	-2.979800	3.192500	-9.512500	27.759038	4.242462E-5	20.813546
2405.733819	-2.979200	3.193600	-9.513100	27.783116	4.628590E-5	20.824501
2406.743939	-2.959800	3.193200	-9.450800	27.813592	4.489980E-5	20.844264
2407.730202	-3.000300	3.191500	-9.575300	27.840917	4.196258E-5	20.814868
2408.729406	-2.967300	3.190600	-9.467200	27.786909	4.209459E-5	20.837326
2409.728618	-2.996900	3.190300	-9.558600	27.739767	4.407474E-5	20.830662
2410.733169	-2.998800	3.189500	-9.564000	27.746809	4.212760E-5	20.829688
2411.730776	-2.971900	3.191400	-9.483300	27.772846	4.381072E-5	20.824597
2412.729737	-2.986500	3.188500	-9.520500	27.808256	4.407474E-5	20.837473
2413.730198	-2.981200	3.186700	-9.499300	27.803272	4.202859E-5	20.830561
2414.731159	-3.016500	3.186900	-9.612800	27.791244	4.179757E-5	20.840741
2415.731096	-2.980600	3.187600	-9.499900	27.744450	4.093951E-5	20.814038
2416.731022	-3.015200	3.186900	-9.608200	27.747524	4.483379E-5	20.831830
2417.732023	-3.026200	3.184900	-9.636600	27.738868	3.942140E-5	20.835922
2418.732742	-2.997300	3.185400	-9.547200	27.810954	4.440476E-5	20.845878
2419.735466	-2.985400	3.184200	-9.505100	27.769567	4.189658E-5	20.831253
2420.739444	-3.008500	3.183300	-9.576400	27.747397	4.354670E-5	20.821271
2421.736138	-3.002500	3.185600	-9.564100	27.771847	4.367871E-5	20.838764
2422.736350	-2.987200	3.181500	-9.503400	27.765623	4.301866E-5	20.818750
2423.739100	-2.998000	3.182300	-9.538600	27.754537	4.186358E-5	20.845526
2424.737370	-2.999100	3.180500	-9.538400	27.698715	4.377772E-5	20.822542
2425.745886	-2.985400	3.180400	-9.494200	27.742410	4.282065E-5	20.822890
2426.740272	-2.993800	3.180500	-9.520500	27.741516	4.196258E-5	20.827207
2427.741442	-3.017300	3.178500	-9.589700	27.723563	3.932239E-5	20.836640
2428.743231	-3.016900	3.178600	-9.588600	27.736581	4.262263E-5	20.832671
2429.740186	-2.999200	3.178000	-9.530900	27.782458	4.239162E-5	20.825260
2430.741247	-2.990900	3.178400	-9.504600	27.761107	4.163256E-5	20.827956
2431.742348	-3.011100	3.177400	-9.566600	27.749551	4.202859E-5	20.832447
2432.751477	-3.002200	3.175200	-9.531600	27.792253	4.331568E-5	20.829428
2433.742446	-3.018600	3.174700	-9.582000	27.820446	4.301866E-5	20.834568
2434.741371	-3.002200	3.175800	-9.533600	27.842143	4.186358E-5	20.821791
2435.744434	-2.982000	3.175300	-9.467600	27.781664	4.051048E-5	20.860496
2436.745178	-2.978100	3.175300	-9.455600	27.779010	4.192958E-5	20.838860
2437.745000	-2.991300	3.173900	-9.492700	27.789302	4.225961E-5	20.841631
2438.744899	-2.975900	3.174200	-9.445300	27.771224	4.206159E-5	20.847620
2439.746436	-3.009600	3.171000	-9.542900	27.812214	3.978442E-5	20.852361
2440.746675	-2.996300	3.170700	-9.499300	27.896471	3.909137E-5	20.825734
2441.746868	-2.979600	3.170400	-9.445600	27.877380	3.958641E-5	20.825012
2442.748672	-3.003700	3.170400	-9.521800	27.811273	4.110452E-5	20.840508
2443.748463	-2.978500	3.170900	-9.443600	27.830168	4.001544E-5	20.847670
2444.749600	-2.985100	3.169000	-9.458400	27.837732	3.915738E-5	20.839636
2445.749899	-2.982900	3.169800	-9.453800	27.790097	4.087350E-5	20.833422
2446.749397	-2.996300	3.167100	-9.488700	27.784270	4.136854E-5	20.852214
2447.749022	-2.983900	3.167400	-9.449700	27.850354	4.130254E-5	20.841908
2448.751094	-3.028200	3.164700	-9.582700	27.869869	4.156656E-5	20.820772
2449.748366	-3.002100	3.164600	-9.499200	27.900739	3.853033E-5	20.843780
2450.748496	-3.001400	3.165200	-9.498700	27.929501	4.011445E-5	20.854237
2451.751553	-3.001500	3.164500	-9.496700	27.876316	4.163256E-5	20.841010
2452.754128	-2.973100	3.164600	-9.408100	27.840488	3.787028E-5	20.843832
2453.751453	-2.989600	3.162600	-9.453600	27.837216	3.902537E-5	20.863771
2454.752551	-2.985200	3.162000	-9.437900	27.847630	3.823331E-5	20.853390
2455.755097	-2.989300	3.161000	-9.448400	27.885196	3.975142E-5	20.851370
2456.752128	-3.012600	3.159300	-9.515900	27.885196	3.843133E-5	20.847103
2457.752774	-2.998100	3.157800	-9.466100	27.945523	4.037847E-5	20.856138
2458.757078	-2.995400	3.157200	-9.456500	27.938060	4.179757E-5	20.856213
2459.750762	-3.008300	3.157500	-9.497100	27.995902	4.054348E-5	20.846156
2460.755603	-3.000800	3.156200	-9.470700	27.962607	3.800229E-5	20.840143
2461.756263	-3.003000	3.156200	-9.477400	27.951971	3.985043E-5	20.851248
2462.754942	-2.992400	3.154700	-9.438200	28.023623	3.872835E-5	20.861256
2463.759530	-2.995300	3.155000	-9.448500	28.071620	3.942140E-5	20.861207
2464.757826	-3.018300	3.154300	-9.519900	28.025434	4.166556E-5	20.845537
2465.758080	-3.017000	3.152100	-9.509100	28.010436	3.988343E-5	20.856992
2466.756794	-3.023600	3.152800	-9.531900	28.005280	3.866234E-5	20.855594
2467.760759	-3.000100	3.151900	-9.454200	28.039073	3.866234E-5	20.854997
2468.760137	-2.991300	3.151600	-9.425800	27.985993	3.711123E-5	20.867949
2469.758022	-3.009700	3.149600	-9.478300	28.006052	3.968542E-5	20.868699
2470.758168	-2.992800	3.149800	-9.425900	28.047579	3.952041E-5	20.870197
2471.761299	-2.990000	3.148400	-9.412900	28.106779	4.031246E-5	20.874314
2472.757910	-3.010600	3.148200	-9.475800	28.027920	3.886036E-5	20.877909
2473.760095	-3.028600	3.147000	-9.529700	27.974965	3.754026E-5	20.872496
2474.759646	-2.961000	3.147300	-9.318100	27.985379	3.780428E-5	20.878236
2475.758499	-3.011700	3.144800	-9.469900	28.017436	3.780428E-5	20.871623
2476.759644	-2.997000	3.144500	-9.423700	28.032214	3.810130E-5	20.868481
2477.760421	-2.989200	3.144600	-9.398700	28.095903	3.536210E-5	20.890391
2478.758339	-3.004100	3.143800	-9.443200	28.078403	3.631917E-5	20.861871
2479.761121	-3.002500	3.142300	-9.433800	28.069602	3.622016E-5	20.879089
2480.759397	-2.982500	3.141100	-9.367300	28.105673	3.516409E-5	20.893114
2481.759199	-2.998700	3.141300	-9.418000	28.122506	3.661619E-5	20.887775
2482.758569	-2.983900	3.141600	-9.374100	28.142511	3.414101E-5	20.905068
2483.758586	-3.005600	3.139300	-9.434600	28.095884	3.628617E-5	20.888002
2484.762024	-2.992900	3.139000	-9.393800	28.086216	3.506508E-5	20.876848
2485.761751	-3.020700	3.136900	-9.474700	28.110908	3.684721E-5	20.886530
2486.761550	-3.001600	3.136000	-9.412300	28.036860	3.417401E-5	20.894492
2487.761778	-2.967800	3.135700	-9.305300	28.062369	3.394300E-5	20.885558
2488.763042	-2.970000	3.134400	-9.308300	28.086963	3.592314E-5	20.877125
2489.762144	-2.984700	3.134600	-9.354800	28.068965	3.334895E-5	20.910688
2490.761500	-2.965100	3.133500	-9.290400	28.026325	3.529610E-5	20.895268
2491.762181	-2.996500	3.131300	-9.381700	27.965335	3.272191E-5	20.891724
2492.761307	-2.988300	3.131100	-9.355300	28.022582	3.225987E-5	20.901457
2493.762851	-2.999900	3.129500	-9.386900	28.093832	3.278791E-5	20.895419
2494.762327	-2.984800	3.130100	-9.340500	28.096386	3.255689E-5	20.895145
2495.765276	-2.990800	3.128800	-9.356900	28.076306	3.156682E-5	20.897690
2496.764460	-3.001400	3.128200	-9.387400	28.072712	3.110479E-5	20.880797
2497.763849	-3.022100	3.126900	-9.449200	28.045194	3.318394E-5	20.900037
2498.764118	-2.992700	3.126900	-9.356400	28.073953	3.150082E-5	20.914760
2499.765341	-2.993800	3.125000	-9.353500	28.125889	3.130280E-5	20.917256
2500.766664	-3.016500	3.124000	-9.421800	28.150430	3.080777E-5	20.903557
2501.763989	-2.969100	3.123400	-9.272200	28.155412	2.866261E-5	20.893875
2502.763981	-3.014400	3.123000	-9.413300	28.139102	2.981769E-5	20.904954
2503.762546	-3.012700	3.121100	-9.401800	28.195348	2.846459E-5	20.901837
2504.763831	-3.019100	3.120300	-9.418900	28.196538	2.849760E-5	20.915835
2505.766218	-2.997100	3.120400	-9.350600	28.179881	3.031273E-5	20.906179
2506.768496	-2.995700	3.117500	-9.337700	28.210121	3.126980E-5	20.917182
2507.766903	-2.995900	3.118200	-9.341100	28.212947	2.919065E-5	20.898692
2508.768129	-2.995500	3.117500	-9.337100	28.156307	2.701249E-5	20.914213
2509.770767	-2.992200	3.116400	-9.324500	28.187441	2.767254E-5	20.912367
2510.768737	-2.991100	3.114200	-9.315000	28.130651	2.866261E-5	20.906404
2511.770558	-3.001400	3.114000	-9.344800	28.172940	2.714450E-5	20.926690
2512.774191	-3.017700	3.113000	-9.393100	28.150382	2.892663E-5	20.917257
2513.775749	-2.996000	3.112100	-9.323000	28.209105	2.747452E-5	20.904306
2514.771919	-3.001000	3.110800	-9.335000	28.272288	2.922365E-5	20.905330
2515.774657	-2.999300	3.110000	-9.327200	28.257366	2.813457E-5	20.916384
2516.775831	-3.005800	3.108000	-9.340800	28.301336	3.008171E-5	20.920826
2517.771139	-3.017900	3.107400	-9.377500	28.296874	3.018072E-5	20.925342
2518.773763	-3.019400	3.106400	-9.378500	28.272908	3.074176E-5	20.911170
2519.776512	-2.994100	3.106400	-9.300100	28.274791	3.176484E-5	20.912592
2520.774025	-2.977400	3.105200	-9.244600	28.220286	2.919065E-5	20.917932
2521.776935	-3.010300	3.104100	-9.343900	28.232580	2.889362E-5	20.923197
2522.779028	-3.029500	3.101700	-9.395200	28.222890	3.143481E-5	20.936199
2523.776348	-2.986900	3.103000	-9.267900	28.235679	2.882762E-5	20.922998
2524.784755	-2.944300	3.101500	-9.130200	28.255634	2.988370E-5	20.918434
2525.777016	-2.986300	3.100400	-9.257500	28.246588	3.067576E-5	20.915964
2526.779531	-2.997700	3.098700	-9.287500	28.295590	2.985070E-5	20.918834
2527.776519	-3.014700	3.099000	-9.341600	28.274622	2.849760E-5	20.915740
2528.776810	-2.969500	3.097500	-9.196500	28.260049	3.057675E-5	20.920981
2529.783296	-2.985600	3.097200	-9.246300	28.242723	2.895963E-5	20.913496
2530.778573	-2.999400	3.094700	-9.281500	28.247558	2.889362E-5	20.920259
2531.778128	-2.992400	3.093800	-9.257800	28.297354	2.938866E-5	20.937677
2532.778501	-2.987200	3.092400	-9.236800	28.273906	2.678147E-5	20.917864
2533.786355	-3.012000	3.091900	-9.312100	28.215932	2.704549E-5	20.916868
2534.778937	-3.012200	3.090200	-9.308100	28.252295	2.721050E-5	20.940199
2535.785195	-3.004600	3.090800	-9.286300	28.288112	2.648445E-5	20.962033
2536.779760	-2.990900	3.088400	-9.236300	28.250362	2.787055E-5	20.937779
2537.780835	-3.008400	3.086700	-9.284800	28.245628	2.714450E-5	20.933013
2538.779159	-2.984300	3.087700	-9.213300	28.271085	2.681447E-5	20.943944
2539.781178	-3.009700	3.084800	-9.283500	28.314486	2.559338E-5	20.947339
2540.780112	-2.984100	3.085600	-9.206500	28.366559	2.727651E-5	20.938132
2541.780743	-2.986400	3.083100	-9.206200	28.388741	2.526336E-5	20.940079
2542.780818	-3.007100	3.081700	-9.265100	28.442421	2.763953E-5	20.918745
2543.780315	-2.992600	3.081200	-9.220100	28.407651	2.579140E-5	20.945370
2544.780643	-2.996000	3.080900	-9.229400	28.407579	2.595641E-5	20.947667
2545.781417	-2.982100	3.078100	-9.178700	28.447776	2.820057E-5	20.937412
2546.781740	-2.976300	3.077500	-9.158100	28.434123	2.803556E-5	20.942154
2547.781764	-2.984400	3.076500	-9.179400	28.445895	2.876162E-5	20.953534
2548.782284	-3.004400	3.075400	-9.238300	28.410457	2.681447E-5	20.947721
2549.782152	-2.996100	3.073500	-9.207700	28.417621	2.648445E-5	20.952563
2550.781798	-3.016400	3.072400	-9.266500	28.343320	2.820057E-5	20.956930
2551.782824	-2.965600	3.072900	-9.111500	28.361240	2.932266E-5	20.981608
2552.783983	-2.990700	3.071400	-9.185400	28.372395	2.338222E-5	20.945430
2553.786709	-3.012500	3.069300	-9.244900	28.365728	2.608842E-5	20.964319
2554.800845	-2.994600	3.070300	-9.193200	28.412148	2.466931E-5	20.961275
2555.784231	-3.005300	3.066600	-9.215100	28.341094	2.651745E-5	20.963223
2556.784234	-2.986400	3.066800	-9.157900	28.326126	2.645145E-5	20.953842
2557.785301	-2.990700	3.066000	-9.168500	28.355223	2.457031E-5	20.949950
2558.784020	-2.997100	3.063400	-9.180500	28.357975	2.612142E-5	20.964572
2559.786134	-2.989200	3.063200	-9.155200	28.389375	2.407527E-5	20.959681
2560.788798	-2.985500	3.062300	-9.140700	28.324492	2.463631E-5	20.950775
2561.784626	-3.022600	3.060300	-9.249800	28.322657	2.235914E-5	20.943713
2562.784164	-3.011200	3.060100	-9.214100	28.354680	2.397626E-5	20.956514
2563.786612	-2.979800	3.058700	-9.112900	28.399142	2.308520E-5	20.939647
2564.784898	-2.993600	3.057900	-9.153100	28.395498	2.358023E-5	20.954942
2565.786086	-3.013600	3.056200	-9.209300	28.435745	2.235914E-5	20.956114
2566.784595	-3.018200	3.053000	-9.213800	28.401199	2.328321E-5	20.938400
2567.787092	-2.977200	3.055200	-9.095000	28.404446	2.556038E-5	20.934083
2568.786154	-3.030800	3.052400	-9.249900	28.382116	2.400927E-5	20.944313
2569.786938	-2.995800	3.050900	-9.139000	28.455424	2.513135E-5	20.943216
2570.787004	-2.989400	3.049500	-9.114900	28.508208	2.249115E-5	20.942792
2571.787015	-2.989800	3.048700	-9.114400	28.484764	2.450430E-5	20.939098
2572.786017	-2.991400	3.047800	-9.116600	28.512122	2.499934E-5	20.955741
2573.788952	-3.010300	3.046400	-9.168900	28.522282	2.496634E-5	20.935155
2574.786628	-3.004700	3.045100	-9.149100	28.517921	2.351423E-5	20.946883
2575.789889	-3.013000	3.043400	-9.168800	28.443480	2.348123E-5	20.940671
2576.790922	-3.019000	3.040800	-9.179500	28.409229	2.414128E-5	20.932736
2577.789804	-3.005400	3.041200	-9.138600	28.469600	2.651745E-5	20.925725
2578.794585	-2.994900	3.041000	-9.106700	28.482264	2.463631E-5	20.941322
2579.792329	-2.992700	3.039300	-9.094800	28.462489	2.331622E-5	20.925677
2580.792061	-3.003100	3.037100	-9.120100	28.409331	2.394326E-5	20.940898
2581.788164	-3.019000	3.036100	-9.164900	28.400310	2.417428E-5	20.931341
2582.789143	-3.003600	3.035500	-9.117000	28.400137	2.556038E-5	20.926426
2583.791585	-2.996000	3.033700	-9.088400	28.385614	2.407527E-5	20.927923
2584.787910	-2.970600	3.033800	-9.011100	28.397908	2.552738E-5	20.934138
2585.789918	-3.005800	3.031500	-9.111300	28.494434	2.536237E-5	20.925604
2586.792311	-3.004300	3.029900	-9.102600	28.522536	2.496634E-5	20.924507
2587.789518	-3.007400	3.028100	-9.105700	28.613154	2.440530E-5	20.916672
2588.791566	-3.000800	3.026800	-9.082100	28.570661	2.493333E-5	20.921765
2589.791754	-3.001000	3.025100	-9.077200	28.555768	2.466931E-5	20.913879
2590.789354	-2.982000	3.026100	-9.022900	28.563551	2.400927E-5	20.917449
2591.789444	-3.000800	3.023700	-9.072400	28.576039	2.615442E-5	20.912957
2592.793038	-2.989700	3.021800	-9.033300	28.558942	2.579140E-5	20.908541
2593.790804	-3.024300	3.020000	-9.131800	28.557333	2.447130E-5	20.939634
2594.790281	-3.006500	3.020000	-9.078900	28.533793	2.358023E-5	20.900758
2595.792675	-3.005500	3.018900	-9.072800	28.508741	2.377825E-5	20.916305
2596.790427	-2.985700	3.018500	-9.011400	28.506833	2.562638E-5	20.905375
2597.789799	-3.004800	3.014900	-9.058600	28.569181	2.113806E-5	20.931652
2598.793095	-3.024300	3.014000	-9.114300	28.527578	2.249115E-5	20.927687
2599.789699	-3.019700	3.011700	-9.093800	28.581126	2.364624E-5	20.920450
2600.794902	-3.000900	3.013100	-9.041500	28.642825	2.450430E-5	20.913365
2601.792683	-3.008300	3.010500	-9.055600	28.709872	2.278818E-5	20.937272
2602.791009	-2.999200	3.009600	-9.024100	28.684849	2.384425E-5	20.911596
2603.797222	-3.016300	3.008100	-9.071300	28.678804	2.513135E-5	20.909775
2604.792824	-2.995100	3.006100	-9.002800	28.603853	2.420728E-5	20.911573
2605.792522	-2.996700	3.005200	-9.004200	28.611016	2.503234E-5	20.911674
2606.791146	-2.986900	3.002800	-8.968100	28.650190	2.612142E-5	20.906559
2607.791258	-2.987400	3.001900	-8.966200	28.711860	2.424028E-5	20.912250
2608.792493	-3.005000	2.999800	-9.012600	28.647815	2.348123E-5	20.915546
2609.791532	-2.980000	3.000800	-8.940500	28.603142	2.711149E-5	20.900900
2610.796871	-3.010000	2.996700	-9.019100	28.606313	2.470232E-5	20.926851
2611.791972	-2.997800	2.996700	-8.982200	28.622396	2.539537E-5	20.907489
2612.792272	-2.966600	2.996400	-8.888200	28.617764	2.437229E-5	20.912780
2613.792842	-2.997100	2.993600	-8.971000	28.484575	2.285418E-5	20.927055
2614.795308	-3.004000	2.992000	-8.987000	28.477786	2.499934E-5	20.899358
2615.796348	-2.972900	2.992200	-8.894200	28.560603	2.658346E-5	20.886508
2616.792801	-3.003700	2.988800	-8.976400	28.617521	2.697948E-5	20.896890
2617.798562	-2.985800	2.987700	-8.920300	28.651244	2.351423E-5	20.901931
2618.796684	-2.982000	2.986300	-8.904000	28.603002	2.420728E-5	20.891751
2619.802066	-2.996500	2.985800	-8.945300	28.520143	2.503234E-5	20.911192
2620.795922	-2.987900	2.983400	-8.913700	28.532709	2.315120E-5	20.902037
2621.795799	-2.969100	2.982400	-8.854200	28.518808	2.361324E-5	20.902262
2622.797594	-2.975200	2.980700	-8.866400	28.468454	2.410827E-5	20.909400
2623.795382	-3.010300	2.980600	-8.970800	28.453934	2.381125E-5	20.909951
2624.794491	-3.014800	2.977800	-8.975900	28.516209	2.628643E-5	20.912921
2625.798812	-2.997100	2.975500	-8.916300	28.593176	2.556038E-5	20.907932
2626.796217	-2.971000	2.975100	-8.838100	28.692610	2.572539E-5	20.906137
2627.799196	-2.969100	2.974800	-8.831400	28.795775	2.559338E-5	20.899102
2628.801897	-2.990300	2.971800	-8.885200	28.859715	2.440530E-5	20.888598
2629.797740	-2.989400	2.971100	-8.880400	28.813739	2.569239E-5	20.910559
2630.798402	-3.004800	2.969000	-8.920300	28.732976	2.351423E-5	20.898908
2631.802160	-2.967800	2.968800	-8.810300	28.699033	2.526336E-5	20.886530
2632.798312	-2.987100	2.966700	-8.860300	28.752576	2.542837E-5	20.890201
2633.799833	-2.984900	2.963500	-8.844200	28.739273	2.582440E-5	20.898137
2634.800865	-3.000400	2.962400	-8.887500	28.716876	2.331622E-5	20.898812
2635.801319	-2.997400	2.962200	-8.878100	28.685339	2.351423E-5	20.904504
2636.801758	-3.001600	2.960200	-8.884600	28.637522	2.433929E-5	20.890008
2637.803044	-2.986800	2.959300	-8.838100	28.560660	2.546137E-5	20.905530
2638.804610	-3.004100	2.958700	-8.887100	28.580359	2.268917E-5	20.917782
2639.802016	-2.989700	2.955900	-8.835600	28.651672	2.466931E-5	20.879606
2640.805655	-3.000200	2.955400	-8.865800	28.623699	2.618743E-5	20.889363
2641.804092	-3.014600	2.952700	-8.899000	28.666741	2.318421E-5	20.902842
2642.802713	-3.001400	2.949700	-8.852500	28.627545	2.301919E-5	20.891813
2643.807947	-3.006000	2.949800	-8.866000	28.635896	2.410827E-5	20.882682
2644.804651	-2.992600	2.948600	-8.822400	28.588819	2.354723E-5	20.905441
2645.801364	-2.983900	2.946500	-8.790700	28.516760	2.268917E-5	20.898778
2646.815246	-3.007800	2.944700	-8.856100	28.495823	2.130307E-5	20.890496
2647.802957	-3.014100	2.944800	-8.874600	28.523182	2.136907E-5	20.881539
2648.803891	-2.988400	2.942400	-8.791800	28.593730	2.288718E-5	20.884784
2649.804358	-3.002000	2.939600	-8.822800	28.549498	2.674847E-5	20.895238
2650.804353	-3.012700	2.938700	-8.852300	28.594129	2.516435E-5	20.906996
2651.804663	-3.013800	2.936500	-8.848400	28.602950	2.466931E-5	20.903078
2652.803755	-2.987100	2.936500	-8.770600	28.686129	2.417428E-5	20.914782
2653.806026	-2.972300	2.934600	-8.721900	28.698942	2.318421E-5	20.902558
2654.809781	-3.003300	2.933100	-8.807700	28.739921	2.272217E-5	20.891204
2655.806495	-2.999100	2.931900	-8.792400	28.751813	2.268917E-5	20.901760
2656.808491	-3.012800	2.929800	-8.826000	28.779885	2.549438E-5	20.876460
2657.809129	-3.015400	2.927500	-8.826800	28.858839	2.450430E-5	20.895775
2658.806139	-2.966600	2.925600	-8.677900	28.931272	2.212813E-5	20.907579
2659.806477	-3.001200	2.924500	-8.776600	28.918913	2.437229E-5	20.898447
2660.807357	-2.992200	2.923200	-8.745800	28.885052	2.344822E-5	20.889940
2661.807109	-2.997600	2.920200	-8.752700	28.871750	2.404227E-5	20.918737
2662.808890	-2.990600	2.920100	-8.732200	28.900288	2.542837E-5	20.910504
2663.808956	-2.980700	2.917900	-8.696500	28.914433	2.156709E-5	20.904839
2664.808771	-2.994800	2.915600	-8.731400	28.974108	2.526336E-5	20.885778
2665.808615	-2.995200	2.914600	-8.728500	28.939258	2.694648E-5	20.907089
2666.810846	-2.995300	2.911600	-8.719500	29.013097	2.295319E-5	20.887128
2667.807803	-3.035400	2.909600	-8.831500	29.039005	2.463631E-5	20.879093
2668.807942	-3.007900	2.908700	-8.748100	28.927569	2.417428E-5	20.892470
2669.808908	-3.005200	2.908400	-8.739200	28.900520	2.589040E-5	20.888454
2670.811499	-3.031900	2.904000	-8.803600	28.896756	2.483433E-5	20.896041
2671.807808	-3.023200	2.903800	-8.777800	28.891258	2.400927E-5	20.904725
2672.808801	-3.008600	2.902200	-8.730900	28.925567	2.430629E-5	20.881919
2673.812207	-3.024300	2.899400	-8.767100	28.897305	2.437229E-5	20.907024
2674.810486	-3.012500	2.898800	-8.731900	28.939343	2.400927E-5	20.891530
2675.813699	-3.027800	2.896200	-8.768900	28.988191	2.334922E-5	20.893802
2676.813008	-3.031400	2.893700	-8.771300	28.983039	2.272217E-5	20.880552
2677.811388	-2.999600	2.893700	-8.678700	28.977789	2.433929E-5	20.873367
2678.810343	-3.022000	2.891700	-8.737400	28.943978	2.229314E-5	20.895725
2679.809938	-2.981600	2.890300	-8.617100	28.915841	2.427329E-5	20.883974
2680.812403	-2.989900	2.887700	-8.632800	28.850122	2.341522E-5	20.899795
2681.811455	-2.986800	2.885500	-8.617900	28.852304	2.579140E-5	20.891563
2682.810086	-3.007600	2.882300	-8.668000	28.882504	2.315120E-5	20.882632
2683.813840	-2.999900	2.881700	-8.643000	28.894421	2.325021E-5	20.869508
2684.810931	-2.967300	2.880700	-8.547100	28.895858	2.374525E-5	20.863844
2685.810924	-3.006500	2.877000	-8.648900	28.921969	2.331622E-5	20.876398
2686.814781	-2.985300	2.876600	-8.586000	28.951026	2.440530E-5	20.898084
2687.811518	-2.968400	2.874300	-8.531400	28.975227	2.328321E-5	20.894966
2688.810838	-3.006700	2.872200	-8.635100	28.952639	2.229314E-5	20.864624
2689.812419	-2.989500	2.871400	-8.583500	29.012681	2.529636E-5	20.876278
2690.812625	-2.981900	2.869100	-8.554800	29.111333	2.321721E-5	20.876106
2691.817298	-2.971800	2.866500	-8.517300	29.105564	2.556038E-5	20.860336
2692.814477	-2.986100	2.864200	-8.551800	29.050755	2.186411E-5	20.880974
2693.813562	-2.981000	2.862800	-8.533300	29.012364	2.209513E-5	20.857468
2694.813154	-2.974400	2.861900	-8.511700	28.966766	2.285418E-5	20.880278
2695.814769	-3.034400	2.856800	-8.667200	29.001000	2.424028E-5	20.880630
2696.813876	-2.978400	2.858300	-8.512500	29.001695	2.516435E-5	20.903139
2697.813671	-2.981400	2.856200	-8.514600	29.011330	2.516435E-5	20.879659
2698.815250	-3.002500	2.852600	-8.564300	29.054975	2.493333E-5	20.880959
2699.819604	-2.986100	2.852300	-8.516900	29.014950	2.506534E-5	20.865762
2700.815782	-2.989800	2.849700	-8.519400	29.013268	2.661646E-5	20.892515
2701.817531	-2.991600	2.847100	-8.516900	29.032513	2.321721E-5	20.871604
2702.816749	-3.008200	2.845200	-8.558100	29.076082	2.592341E-5	20.892742
2703.815493	-2.996800	2.843500	-8.520200	29.122421	2.437229E-5	20.876374
2704.816857	-3.000400	2.840600	-8.521800	29.095922	2.463631E-5	20.867217
2705.815958	-3.024300	2.836900	-8.578900	29.117597	2.216113E-5	20.895218
2706.819283	-3.025300	2.835700	-8.577500	29.094266	2.199612E-5	20.871237
2707.816151	-2.987900	2.835600	-8.472300	29.030863	2.374525E-5	20.871364
2708.816300	-3.019200	2.832500	-8.550400	29.052933	2.612142E-5	20.864204
2709.818528	-3.035100	2.827800	-8.581700	29.072426	2.354723E-5	20.873413
2710.816002	-2.991100	2.827400	-8.455500	29.042581	2.569239E-5	20.877481
2711.818961	-3.023800	2.824300	-8.537900	28.979621	2.490033E-5	20.893229
2712.820145	-3.006500	2.823400	-8.487200	29.061732	2.513135E-5	20.873543
2713.816427	-3.012400	2.821400	-8.497900	29.115029	2.344822E-5	20.851857
2714.818050	-3.032100	2.818300	-8.543900	29.123329	2.344822E-5	20.871598
2715.819140	-2.999200	2.815900	-8.444300	29.120383	2.295319E-5	20.840182
2716.821904	-3.011300	2.813500	-8.470800	29.177717	2.364624E-5	20.871401
2717.818810	-3.015600	2.810700	-8.474400	29.202953	2.176510E-5	20.893986
2718.818472	-3.005600	2.808100	-8.438800	29.235271	2.259016E-5	20.875347
2719.821209	-3.016800	2.805200	-8.462200	29.219870	2.166609E-5	20.886378
2720.818779	-2.982700	2.804600	-8.364700	29.244163	2.457031E-5	20.871031
2721.819906	-3.003200	2.800800	-8.411000	29.257734	2.315120E-5	20.882337
2722.819228	-3.005700	2.797200	-8.406200	29.254965	2.367924E-5	20.864374
2723.824119	-2.983500	2.795900	-8.340600	29.196870	2.282118E-5	20.876477
2724.820046	-3.014200	2.792500	-8.415900	29.201674	2.097304E-5	20.867569
2725.819190	-2.968200	2.791000	-8.283800	29.252342	2.509835E-5	20.857464
2726.819246	-2.982400	2.788100	-8.314600	29.196204	2.367924E-5	20.861583
2727.819450	-3.005700	2.783700	-8.366400	29.176518	2.592341E-5	20.851703
2728.820196	-2.963200	2.782700	-8.245100	29.122208	2.542837E-5	20.841074
2729.821751	-2.991200	2.778900	-8.311900	29.166119	2.635244E-5	20.874413
2730.822015	-3.024000	2.774800	-8.390600	29.243980	2.427329E-5	20.833391
2731.825516	-3.002400	2.771600	-8.320600	29.235909	2.235914E-5	20.841378
2732.823361	-2.992900	2.770400	-8.291200	29.261987	2.420728E-5	20.865287
2733.823148	-3.031500	2.765800	-8.383800	29.316861	2.499934E-5	20.853734
2734.823276	-2.995700	2.764400	-8.280600	29.315674	2.367924E-5	20.860123
2735.824051	-2.977200	2.760300	-8.216600	29.270190	2.387726E-5	20.870234
2736.824835	-2.991300	2.756700	-8.245200	29.263727	2.371224E-5	20.851394
2737.823141	-2.976500	2.755200	-8.200300	29.245305	2.341522E-5	20.861278
2738.825534	-3.003800	2.752600	-8.267400	29.344974	2.592341E-5	20.855041
2739.823827	-3.000700	2.747400	-8.243500	29.432256	2.648445E-5	20.862405
2740.824351	-2.986200	2.745700	-8.198100	29.422205	2.506534E-5	20.863654
2741.825606	-3.009000	2.741500	-8.249100	29.401682	2.404227E-5	20.848659
2742.824126	-2.996900	2.738800	-8.207100	29.410871	2.615442E-5	20.847963
2743.823402	-2.969300	2.736300	-8.124300	29.458656	2.529636E-5	20.852032
2744.825612	-2.990700	2.732100	-8.170100	29.474354	2.407527E-5	20.846992
2745.824646	-2.989700	2.727600	-8.153600	29.498224	2.882762E-5	20.860620
2746.825137	-3.002100	2.725700	-8.181900	29.533454	2.377825E-5	20.848719
2747.826210	-3.005300	2.720200	-8.174300	29.510259	2.509835E-5	20.829605
2748.825411	-2.978900	2.717800	-8.095200	29.487408	2.635244E-5	20.857305
2749.827216	-2.990700	2.714700	-8.118200	29.460104	2.532936E-5	20.845431
2750.827149	-2.968800	2.712400	-8.051900	29.486447	2.493333E-5	20.866292
2751.827775	-2.989000	2.707900	-8.093100	29.474962	2.447130E-5	20.843812
2752.827171	-3.024000	2.702700	-8.172000	29.432529	2.499934E-5	20.854146
2753.826448	-2.995200	2.698600	-8.081900	29.363427	2.374525E-5	20.847560
2754.826936	-2.987700	2.695600	-8.052900	29.405421	2.589040E-5	20.841996
2755.827308	-3.011600	2.691400	-8.104700	29.423349	2.476832E-5	20.863384
2756.826893	-3.048400	2.686300	-8.187900	29.448011	2.420728E-5	20.870698
2757.830578	-3.032900	2.683400	-8.137300	29.509314	2.519735E-5	20.833394
2758.827652	-2.977100	2.679100	-7.974800	29.514045	2.361324E-5	20.855706
2759.827223	-3.014900	2.674800	-8.063600	29.473566	2.450430E-5	20.846672
2760.826491	-3.016900	2.670400	-8.055200	29.434081	2.374525E-5	20.857132
2761.827384	-3.026400	2.665800	-8.067100	29.489093	2.226014E-5	20.846202
2762.827179	-2.998700	2.661800	-7.981500	29.506228	2.450430E-5	20.849723
2763.826224	-2.995200	2.657700	-7.959800	29.538736	2.338222E-5	20.846931
2764.828457	-3.019700	2.652500	-8.008300	29.479097	2.212813E-5	20.835652
2765.828181	-2.971300	2.649500	-7.871600	29.428616	2.222714E-5	20.863477
2766.829171	-2.970400	2.644300	-7.853200	29.458376	2.430629E-5	20.841793
2767.828707	-2.985800	2.640400	-7.883300	29.547207	2.457031E-5	20.842668
2768.832458	-2.976000	2.634200	-7.837800	29.586125	2.133607E-5	20.873363
2769.828287	-3.029600	2.628000	-7.960500	29.554981	2.166609E-5	20.842444
2770.828046	-3.015500	2.624700	-7.913800	29.631031	2.080803E-5	20.837554
2771.828566	-3.009400	2.618400	-7.878400	29.666504	2.232614E-5	20.846289
2772.828866	-3.002600	2.614100	-7.847700	29.654970	2.239215E-5	20.834187
2773.828744	-2.970800	2.609500	-7.751600	29.609619	2.262316E-5	20.836832
2774.828970	-2.983500	2.604500	-7.769700	29.710563	2.420728E-5	20.849932
2775.828118	-3.020000	2.597800	-7.844100	29.732522	2.292019E-5	20.847415
2776.828363	-3.001100	2.592600	-7.780000	29.692271	2.400927E-5	20.859939
2777.834892	-2.973100	2.587100	-7.690700	29.718683	2.216113E-5	20.832040
2778.830061	-2.986500	2.581400	-7.708800	29.750045	2.130307E-5	20.842797
2779.830301	-2.990300	2.577400	-7.706300	29.723040	2.361324E-5	20.853027
2780.829040	-3.010500	2.570300	-7.737300	29.713831	2.437229E-5	20.851804
2781.832189	-2.977100	2.564500	-7.633600	29.673161	2.292019E-5	20.841621
2782.831540	-3.030400	2.557100	-7.747800	29.597365	2.183111E-5	20.847238
2783.831331	-3.003800	2.552200	-7.665400	29.618060	2.242515E-5	20.839651
2784.830551	-2.983600	2.546700	-7.597300	29.731528	2.387726E-5	20.855421
2785.832096	-2.977200	2.541400	-7.565300	29.764942	2.226014E-5	20.854024
2786.831355	-3.024000	2.533700	-7.661100	29.822908	2.430629E-5	20.835658
2787.831686	-3.019100	2.527100	-7.628800	29.735367	2.450430E-5	20.835111
2788.840442	-3.015000	2.522300	-7.603800	29.656031	2.463631E-5	20.834783
2789.830595	-3.031000	2.515200	-7.622700	29.601373	2.410827E-5	20.837527
2790.831308	-2.986100	2.511500	-7.498900	29.637093	2.404227E-5	20.838451
2791.831216	-3.017200	2.502800	-7.550000	29.639246	2.331622E-5	20.838250
2792.834627	-2.998300	2.498200	-7.489000	29.658233	2.120406E-5	20.843641
