LabVIEW Measurement	
Writer_Version	2
Reader_Version	2
Separator	Tab
Decimal_Separator	.
Multi_Headings	No
X_Columns	One
Time_Pref	Absolute
Operator	admin
Description	Clolumns are: time, Current, Voltage, Power, Battery Temp, and Chamber Temp
Date	2024/08/16
Time	13:07:17.8513970375061035156
***End_of_Header***	
	
Channels	6						
Samples	1	1	1	1	1	1	
Date	2024/09/10	2024/09/10	2024/09/10	2024/09/10	2024/09/10	2024/09/10	
Time	22:23:06.586944580078125	22:23:06.5960760116577148438	22:23:06.6039247512817382812	22:23:06.5665049552917480469	22:23:06.5665049552917480469	22:23:06.5665049552917480469	
X_Dimension	Time	Time	Time	Time	Time	Time	
X0	0.0000000000000000E+0	0.0000000000000000E+0	0.0000000000000000E+0	0.0000000000000000E+0	0.0000000000000000E+0	0.0000000000000000E+0	
Delta_X	1.000000	1.000000	1.000000	1.000000	1.000000	1.000000	
***End_of_Header***							
X_Value	Untitled	Untitled 1	Untitled 2	Untitled 3	Untitled 4	Untitled 5	Comment
0.000000	0.025563	4.086200	0.104620	20.796582	0.000455	20.772400
0.999484	-2.989800	3.917300	-11.711000	20.811460	0.000451	20.781588
1.996812	-2.995200	3.912500	-11.718000	20.805696	0.000453	20.771557
2.996693	-3.027100	3.906500	-11.824000	20.812816	0.000451	20.751649
4.001163	-2.999200	3.906800	-11.715000	20.811386	0.000452	20.770609
5.002882	-3.013300	3.902700	-11.759000	20.815710	0.000450	20.783467
6.004964	-3.002400	3.900600	-11.711000	20.840120	0.000453	20.779903
7.001331	-3.036400	3.896500	-11.831000	20.848760	0.000448	20.768628
8.000383	-2.997500	3.895500	-11.676000	20.837749	0.000449	20.769471
9.002095	-3.005300	3.893100	-11.698000	20.860858	0.000449	20.789737
10.002468	-2.987100	3.893100	-11.627000	20.864880	0.000449	20.771948
10.999761	-3.001400	3.890400	-11.676000	20.868624	0.000448	20.774743
11.998884	-3.016900	3.889500	-11.734000	20.888340	0.000446	20.784504
13.001388	-2.993800	3.888300	-11.640000	20.888095	0.000446	20.793742
14.012597	-3.007300	3.887500	-11.690000	20.882634	0.000445	20.774530
15.004205	-2.989500	3.885300	-11.615000	20.901075	0.000444	20.778274
16.001390	-3.001500	3.884000	-11.657000	20.897061	0.000445	20.768570
17.003211	-2.999800	3.882700	-11.646000	20.903576	0.000444	20.768921
18.000549	-3.005900	3.881800	-11.668000	20.927699	0.000443	20.786882
19.001242	-2.999900	3.882900	-11.647000	20.936633	0.000443	20.778274
20.003383	-3.026500	3.880500	-11.744000	20.931924	0.000443	20.783996
21.004261	-3.016800	3.880600	-11.707000	20.965258	0.000442	20.784617
22.001783	-3.010400	3.880000	-11.680000	20.971509	0.000442	20.792767
23.003015	-3.052800	3.876700	-11.834000	20.978417	0.000441	20.787821
24.001462	-3.018700	3.878500	-11.707000	20.983305	0.000440	20.782753
25.005249	-2.992100	3.878800	-11.605000	20.999806	0.000439	20.785981
26.008356	-2.981200	3.878900	-11.563000	21.000779	0.000441	20.778419
27.005843	-2.977200	3.877200	-11.542000	21.013751	0.000440	20.780013
28.004089	-2.996800	3.875900	-11.614000	21.017182	0.000441	20.771117
29.001899	-3.012100	3.875300	-11.672000	21.026018	0.000439	20.802240
30.006184	-3.013300	3.876200	-11.678000	21.044580	0.000439	20.784770
31.006088	-2.996300	3.875000	-11.610000	21.054707	0.000438	20.780674
32.003127	-3.014600	3.875000	-11.681000	21.055932	0.000439	20.788064
33.003194	-2.992800	3.874400	-11.594000	21.053186	0.000438	20.818034
34.008327	-2.991200	3.873600	-11.586000	21.061228	0.000438	20.790042
35.003374	-3.010600	3.873100	-11.658000	21.079094	0.000438	20.784205
36.017818	-2.998900	3.873300	-11.615000	21.089702	0.000438	20.793393
37.008157	-3.006800	3.872300	-11.642000	21.107968	0.000436	20.803603
38.006830	-3.016100	3.871000	-11.674000	21.112316	0.000438	20.804633
39.008290	-3.012800	3.871300	-11.663000	21.108278	0.000437	20.805336
40.010023	-3.021500	3.870400	-11.694000	21.108752	0.000438	20.805810
41.008602	-2.988500	3.871700	-11.570000	21.122359	0.000439	20.788126
42.008126	-2.971700	3.872100	-11.505000	21.141369	0.000438	20.805719
43.005034	-2.991100	3.870300	-11.576000	21.158703	0.000436	20.810731
44.004964	-2.998200	3.870000	-11.601000	21.169718	0.000436	20.816059
45.006400	-2.984600	3.870000	-11.549000	21.180546	0.000437	20.807451
46.008979	-2.982100	3.870500	-11.541000	21.179279	0.000437	20.809977
47.012743	-2.997200	3.869500	-11.595000	21.175585	0.000437	20.807230
48.008277	-2.999600	3.869300	-11.605000	21.184992	0.000439	20.831812
49.010097	-3.012000	3.868600	-11.651000	21.184117	0.000436	20.813394
50.009795	-2.992900	3.868700	-11.578000	21.201368	0.000437	20.814055
51.005768	-3.012300	3.867100	-11.649000	21.216690	0.000437	20.805675
52.010632	-3.001200	3.868900	-11.610000	21.222435	0.000436	20.825172
53.005115	-3.019900	3.867300	-11.678000	21.231514	0.000436	20.822400
54.006760	-3.000200	3.868400	-11.604000	21.253773	0.000438	20.808633
55.010084	-3.001300	3.867500	-11.605000	21.249402	0.000436	20.806631
56.009913	-2.999700	3.868100	-11.602000	21.249213	0.000436	20.807864
57.011419	-2.981400	3.866800	-11.526000	21.283721	0.000436	20.814886
58.011417	-2.992800	3.867300	-11.574000	21.286713	0.000437	20.823093
59.012245	-2.992600	3.867100	-11.571000	21.317878	0.000437	20.821081
60.012224	-2.974000	3.867200	-11.500000	21.319324	0.000436	20.812097
61.012382	-3.002400	3.866600	-11.608000	21.322494	0.000436	20.813372
62.014460	-3.012200	3.867800	-11.650000	21.329537	0.000436	20.823737
63.020010	-2.978600	3.866700	-11.516000	21.339964	0.000439	20.825634
64.009092	-3.014400	3.864400	-11.648000	21.340290	0.000438	20.813633
65.012409	-3.011400	3.864600	-11.637000	21.341916	0.000437	20.827587
66.015527	-2.998400	3.865500	-11.589000	21.351395	0.000436	20.821897
67.013039	-3.012100	3.863700	-11.637000	21.361593	0.000437	20.815505
68.012991	-2.998600	3.865000	-11.589000	21.377966	0.000436	20.828567
69.013706	-2.981000	3.864300	-11.517000	21.392903	0.000435	20.818856
70.018027	-2.993800	3.863700	-11.567000	21.397512	0.000436	20.832476
71.014202	-2.980000	3.864600	-11.515000	21.394578	0.000436	20.825747
72.009633	-2.981400	3.864300	-11.521000	21.431623	0.000438	20.810656
73.017564	-2.994000	3.864800	-11.571000	21.427702	0.000436	20.829965
74.015952	-3.017000	3.863300	-11.654000	21.422963	0.000435	20.830914
75.009449	-2.987900	3.864100	-11.545000	21.435699	0.000437	20.795294
76.014400	-3.007600	3.863800	-11.620000	21.443903	0.000435	20.813459
77.018406	-3.013100	3.862800	-11.638000	21.452654	0.000436	20.802775
78.017118	-2.998200	3.862500	-11.580000	21.446476	0.000438	20.814137
79.018084	-2.998700	3.862800	-11.582000	21.460415	0.000436	20.817178
80.017718	-2.986300	3.862900	-11.535000	21.481347	0.000437	20.810147
81.017085	-2.976100	3.863000	-11.496000	21.492074	0.000438	20.801915
82.015560	-3.022900	3.861400	-11.672000	21.488143	0.000437	20.806517
83.018865	-3.008600	3.860400	-11.614000	21.495774	0.000438	20.815100
84.020872	-2.996500	3.862500	-11.573000	21.495652	0.000438	20.826357
85.017831	-3.019600	3.859900	-11.655000	21.515105	0.000438	20.812157
86.016726	-3.014500	3.861300	-11.639000	21.511689	0.000437	20.801628
87.021166	-2.993200	3.861200	-11.557000	21.538388	0.000439	20.817911
88.015678	-3.004000	3.861300	-11.598000	21.551901	0.000439	20.791130
89.019623	-3.018000	3.860600	-11.650000	21.530430	0.000438	20.783396
90.019713	-2.989300	3.860700	-11.540000	21.560445	0.000438	20.782136
91.023372	-2.994700	3.860600	-11.560000	21.571392	0.000438	20.807790
92.018432	-3.001200	3.860200	-11.585000	21.574636	0.000438	20.795388
93.021669	-3.007600	3.861200	-11.613000	21.567479	0.000438	20.797710
94.025106	-3.007300	3.861000	-11.610000	21.573590	0.000439	20.781539
95.020556	-3.024500	3.858500	-11.669000	21.597763	0.000438	20.800039
96.018156	-2.994800	3.859600	-11.558000	21.603596	0.000439	20.779798
97.022166	-3.012100	3.859000	-11.623000	21.605074	0.000440	20.793131
98.022848	-2.995600	3.858300	-11.557000	21.626845	0.000439	20.799270
99.025047	-2.993100	3.861000	-11.556000	21.617189	0.000440	20.807151
100.026755	-2.985800	3.859100	-11.522000	21.610563	0.000440	20.796253
101.025358	-2.996200	3.859100	-11.561000	21.644678	0.000440	20.782503
102.026715	-3.001300	3.858000	-11.578000	21.655568	0.000440	20.802884
103.027481	-2.999400	3.859000	-11.573000	21.666595	0.000440	20.817239
104.026339	-2.978700	3.857800	-11.490000	21.656017	0.000440	20.786738
105.028850	-2.988600	3.858000	-11.530000	21.692450	0.000440	20.816086
106.027990	-2.996400	3.857900	-11.559000	21.704719	0.000442	20.791855
107.026976	-3.009400	3.857600	-11.608000	21.710658	0.000439	20.794479
108.026779	-2.996200	3.857400	-11.557000	21.717462	0.000441	20.791332
109.026509	-3.000900	3.858000	-11.576000	21.717691	0.000443	20.800096
110.024785	-3.021800	3.856800	-11.653000	21.714554	0.000442	20.812129
111.026773	-3.008000	3.855600	-11.596000	21.741559	0.000443	20.780835
112.031647	-2.997100	3.857500	-11.560000	21.726243	0.000443	20.791585
113.027821	-2.989400	3.857500	-11.530000	21.739067	0.000442	20.772177
114.029711	-3.000600	3.858300	-11.576000	21.753125	0.000444	20.776764
115.032486	-2.998400	3.856200	-11.561000	21.775301	0.000441	20.791846
116.028120	-3.009600	3.854800	-11.601000	21.780365	0.000441	20.774629
117.026556	-3.001800	3.856000	-11.574000	21.781958	0.000443	20.771956
118.029959	-3.010300	3.855800	-11.606000	21.771609	0.000442	20.786254
119.031868	-3.003300	3.855100	-11.577000	21.798343	0.000442	20.794045
120.032969	-3.012400	3.855500	-11.613000	21.823360	0.000444	20.765030
121.028796	-2.980800	3.855700	-11.492000	21.826122	0.000445	20.791502
122.032853	-2.991600	3.854400	-11.530000	21.830621	0.000444	20.768030
123.032660	-3.015800	3.854200	-11.622000	21.852788	0.000447	20.760345
124.035266	-3.004900	3.854400	-11.581000	21.855009	0.000446	20.766362
125.034883	-2.994600	3.854300	-11.541000	21.866828	0.000446	20.774398
126.034766	-2.995800	3.855000	-11.548000	21.854592	0.000447	20.769738
127.036472	-2.999300	3.854200	-11.558000	21.866182	0.000447	20.775175
128.033220	-3.015100	3.855400	-11.622000	21.863046	0.000446	20.792898
129.033502	-2.998500	3.853500	-11.554000	21.871499	0.000448	20.774332
130.032855	-3.004000	3.854100	-11.576000	21.891493	0.000447	20.792923
131.032536	-3.009000	3.854000	-11.596000	21.909199	0.000446	20.766549
132.031912	-3.011600	3.853900	-11.605000	21.908782	0.000447	20.753803
133.039436	-2.983200	3.853800	-11.496000	21.905017	0.000447	20.751931
134.034995	-2.980800	3.854600	-11.488000	21.943467	0.000450	20.785204
135.043235	-2.988800	3.854500	-11.519000	21.956354	0.000449	20.777242
136.036283	-3.014400	3.853700	-11.616000	21.937888	0.000447	20.775827
137.033459	-3.003600	3.852500	-11.571000	21.927843	0.000447	20.779996
138.036812	-3.041600	3.852300	-11.716000	21.936450	0.000448	20.773439
139.034007	-3.010700	3.851700	-11.595000	21.962437	0.000450	20.787598
140.035952	-3.023000	3.851800	-11.643000	21.969011	0.000448	20.769049
141.037831	-2.984700	3.852400	-11.497000	21.987166	0.000448	20.758298
142.037856	-2.978600	3.853000	-11.475000	21.978370	0.000452	20.759924
143.036219	-2.986900	3.851600	-11.503000	21.977054	0.000450	20.775203
144.038876	-2.997200	3.852700	-11.546000	22.011281	0.000451	20.759205
145.041699	-3.001100	3.850900	-11.556000	22.007295	0.000449	20.758060
146.038574	-3.002900	3.852000	-11.566000	22.027221	0.000448	20.757144
147.038598	-3.000800	3.851100	-11.556000	22.045244	0.000452	20.749581
148.041602	-2.988100	3.850200	-11.503000	22.037624	0.000453	20.757601
149.038437	-2.983600	3.850700	-11.487000	22.063225	0.000451	20.750039
150.041444	-3.001700	3.849700	-11.555000	22.067389	0.000452	20.770804
151.043464	-3.017900	3.849200	-11.616000	22.076364	0.000453	20.780262
152.039104	-3.029200	3.849500	-11.660000	22.073228	0.000453	20.732077
153.041500	-3.000100	3.850000	-11.549000	22.098713	0.000454	20.748582
154.039948	-2.997200	3.849000	-11.535000	22.118001	0.000455	20.771686
155.042078	-2.995000	3.850200	-11.531000	22.109680	0.000456	20.773313
156.045401	-3.012200	3.848400	-11.591000	22.114016	0.000453	20.744936
157.036908	-2.968700	3.849800	-11.428000	22.103024	0.000456	20.742941
158.041311	-2.987800	3.850000	-11.502000	22.138324	0.000457	20.746039
159.039362	-3.016100	3.848300	-11.606000	22.127407	0.000456	20.736057
160.044556	-3.011900	3.847900	-11.588000	22.128190	0.000455	20.735419
161.039583	-3.000800	3.849300	-11.550000	22.143264	0.000457	20.732967
162.043355	-2.981100	3.850000	-11.476000	22.164895	0.000456	20.747985
163.040932	-2.997000	3.848400	-11.532000	22.160436	0.000456	20.766756
164.043834	-2.990200	3.849300	-11.509000	22.168063	0.000455	20.763960
165.045422	-3.015800	3.847200	-11.602000	22.166372	0.000454	20.760370
166.044566	-2.986600	3.849200	-11.495000	22.169736	0.000457	20.731021
167.044371	-3.009500	3.847300	-11.577000	22.166183	0.000456	20.742637
168.044041	-3.000800	3.846500	-11.541000	22.182604	0.000458	20.752440
169.045348	-3.023000	3.845900	-11.625000	22.191512	0.000458	20.738124
170.047944	-3.009700	3.845300	-11.571000	22.193080	0.000458	20.749652
171.045691	-3.014000	3.846500	-11.592000	22.231210	0.000456	20.736146
172.046056	-2.998500	3.846500	-11.533000	22.212447	0.000460	20.761457
173.044719	-2.974600	3.846400	-11.441000	22.228973	0.000459	20.753347
174.042238	-2.989800	3.845900	-11.497000	22.257313	0.000460	20.728142
175.044627	-2.981400	3.846900	-11.468000	22.250757	0.000460	20.749553
176.044719	-3.015900	3.844000	-11.592000	22.262146	0.000460	20.730137
177.045072	-2.987500	3.845600	-11.487000	22.254920	0.000459	20.741394
178.044326	-2.995200	3.845300	-11.517000	22.256390	0.000458	20.760884
179.042267	-3.015800	3.844000	-11.592000	22.260856	0.000462	20.749234
180.046755	-3.002900	3.844500	-11.544000	22.273462	0.000461	20.750477
181.043060	-2.997300	3.843700	-11.520000	22.282713	0.000460	20.740773
182.044995	-3.011300	3.843800	-11.574000	22.289538	0.000462	20.728640
183.043147	-2.997600	3.843900	-11.522000	22.311541	0.000464	20.747354
184.045058	-3.016600	3.843000	-11.591000	22.306185	0.000462	20.752897
185.045371	-2.976000	3.844500	-11.440000	22.316873	0.000462	20.757435
186.049220	-2.991000	3.843600	-11.495000	22.354151	0.000463	20.762520
187.048140	-3.020300	3.842900	-11.605000	22.359416	0.000464	20.745507
188.049070	-2.994600	3.843300	-11.508000	22.367988	0.000464	20.732279
189.052322	-2.991600	3.843500	-11.496000	22.370299	0.000463	20.753086
190.053340	-2.994500	3.842900	-11.506000	22.373964	0.000463	20.744428
191.050835	-3.000100	3.842500	-11.527000	22.385696	0.000465	20.741477
192.050353	-2.991500	3.842400	-11.493000	22.378152	0.000465	20.742458
193.048510	-2.997900	3.842400	-11.518000	22.401101	0.000465	20.738411
194.049723	-2.994300	3.842500	-11.504000	22.393868	0.000467	20.753454
195.050865	-3.005400	3.842300	-11.547000	22.390007	0.000467	20.739630
196.050623	-3.022200	3.841700	-11.609000	22.357735	0.000465	20.714424
197.052001	-3.010700	3.841800	-11.565000	22.396537	0.000466	20.742851
198.051510	-3.014800	3.840300	-11.577000	22.373606	0.000466	20.712299
199.050401	-3.009400	3.840800	-11.557000	22.410359	0.000469	20.751476
200.050900	-3.012800	3.840600	-11.570000	22.403411	0.000469	20.725552
201.049634	-2.985000	3.842200	-11.468000	22.430400	0.000470	20.716068
202.049165	-2.990900	3.840600	-11.486000	22.422400	0.000469	20.725126
203.049011	-2.987800	3.841200	-11.476000	22.441665	0.000469	20.732566
204.055007	-3.015800	3.841100	-11.583000	22.480465	0.000466	20.729696
205.051556	-2.997100	3.840400	-11.509000	22.464237	0.000468	20.720082
206.055398	-3.022100	3.840600	-11.606000	22.468744	0.000470	20.726966
207.051267	-3.014200	3.839800	-11.573000	22.496653	0.000469	20.735003
208.054192	-3.009200	3.839800	-11.554000	22.491347	0.000470	20.743440
209.056828	-3.021200	3.837600	-11.593000	22.492269	0.000469	20.723500
210.051920	-2.996900	3.838700	-11.503000	22.507869	0.000471	20.726320
211.053694	-2.982700	3.839800	-11.452000	22.509044	0.000470	20.707582
212.049791	-2.991300	3.839600	-11.485000	22.527157	0.000471	20.735207
213.056423	-2.981700	3.839200	-11.446000	22.528325	0.000473	20.715987
214.053372	-2.999900	3.837900	-11.513000	22.543752	0.000471	20.723377
215.054724	-3.001100	3.837000	-11.514000	22.539099	0.000472	20.713026
216.058963	-3.003100	3.837200	-11.522000	22.538895	0.000475	20.730367
217.059755	-3.009000	3.836900	-11.544000	22.583968	0.000471	20.739949
218.052643	-3.005400	3.836100	-11.529000	22.561031	0.000475	20.721717
219.055580	-3.000200	3.835800	-11.507000	22.608046	0.000475	20.711432
220.055957	-2.976700	3.837700	-11.423000	22.594251	0.000473	20.727488
221.056593	-3.015200	3.835800	-11.565000	22.615074	0.000474	20.718471
222.056188	-3.006000	3.835900	-11.530000	22.599459	0.000474	20.722746
223.060400	-2.996200	3.836600	-11.494000	22.631128	0.000476	20.721749
224.057323	-3.000400	3.835300	-11.507000	22.637110	0.000475	20.711145
225.054944	-3.000600	3.835400	-11.508000	22.641044	0.000475	20.722673
226.054852	-2.985600	3.835500	-11.450000	22.655776	0.000477	20.711823
227.057668	-3.005200	3.834400	-11.522000	22.647761	0.000477	20.700475
228.055238	-2.971500	3.835800	-11.398000	22.668010	0.000474	20.730717
229.056497	-3.012000	3.833600	-11.546000	22.673593	0.000477	20.726351
230.058404	-2.986300	3.834500	-11.450000	22.675935	0.000476	20.697875
231.056416	-3.001200	3.834900	-11.508000	22.668467	0.000476	20.732122
232.058351	-3.002900	3.834100	-11.512000	22.663162	0.000478	20.703099
233.065911	-3.011400	3.833900	-11.544000	22.648968	0.000478	20.719229
234.055700	-3.014600	3.832100	-11.551000	22.651825	0.000480	20.705969
235.063409	-3.000000	3.833100	-11.498000	22.654224	0.000479	20.703630
236.055566	-3.011200	3.832900	-11.540000	22.682945	0.000480	20.712959
237.059888	-3.005900	3.834000	-11.523000	22.694738	0.000479	20.712917
238.059744	-3.011300	3.832400	-11.540000	22.692747	0.000479	20.711396
239.062275	-3.006600	3.832400	-11.522000	22.694714	0.000479	20.713841
240.063156	-3.003700	3.831700	-11.508000	22.714276	0.000480	20.710202
241.060967	-2.998800	3.833100	-11.494000	22.721197	0.000480	20.691529
242.061907	-3.011300	3.831900	-11.538000	22.733186	0.000479	20.687891
243.060895	-3.021600	3.831000	-11.575000	22.757922	0.000481	20.709826
244.061800	-2.995500	3.832000	-11.477000	22.745469	0.000483	20.711102
245.058648	-3.020300	3.831100	-11.570000	22.753548	0.000483	20.717298
246.063073	-3.012400	3.832000	-11.542000	22.760844	0.000482	20.694734
247.063379	-2.983700	3.832200	-11.433000	22.750340	0.000481	20.693220
248.065444	-2.987800	3.831800	-11.448000	22.747468	0.000485	20.702198
249.065884	-2.991700	3.830900	-11.459000	22.770326	0.000485	20.694275
250.059884	-2.982300	3.830300	-11.422000	22.792246	0.000484	20.717657
251.065408	-3.007500	3.829800	-11.517000	22.783253	0.000482	20.699164
252.063936	-2.989000	3.829900	-11.447000	22.789830	0.000483	20.702434
253.062387	-2.990900	3.829600	-11.453000	22.802063	0.000486	20.683867
254.065050	-2.975800	3.829800	-11.396000	22.846359	0.000486	20.713545
255.066570	-3.026400	3.829400	-11.588000	22.860214	0.000485	20.703717
256.064623	-3.010900	3.829100	-11.528000	22.863356	0.000486	20.720142
257.065995	-3.009500	3.828700	-11.522000	22.870301	0.000484	20.698174
258.064316	-2.981000	3.829400	-11.414000	22.849378	0.000486	20.697128
259.068832	-2.993000	3.828400	-11.457000	22.856681	0.000484	20.689270
260.064786	-2.978600	3.828100	-11.401000	22.851009	0.000486	20.717255
261.065640	-3.008200	3.826200	-11.509000	22.866350	0.000487	20.698484
262.067480	-2.982600	3.826600	-11.412000	22.873825	0.000489	20.725889
263.065831	-2.988300	3.828600	-11.440000	22.901121	0.000486	20.705344
264.065331	-2.997500	3.828600	-11.475000	22.884164	0.000487	20.718228
265.062613	-2.989000	3.826300	-11.436000	22.879161	0.000488	20.701361
266.070461	-3.027900	3.826600	-11.586000	22.875995	0.000487	20.708622
267.066687	-3.023900	3.825600	-11.567000	22.889794	0.000488	20.714860
268.073399	-2.986900	3.826300	-11.428000	22.892659	0.000488	20.704452
269.073783	-3.010400	3.825600	-11.515000	22.910366	0.000488	20.715555
270.067295	-2.971300	3.826800	-11.369000	22.907705	0.000490	20.696293
271.067907	-2.973500	3.825700	-11.374000	22.923927	0.000489	20.707804
272.067286	-2.991200	3.824800	-11.439000	22.941887	0.000493	20.698770
273.068498	-2.974700	3.826500	-11.382000	22.951075	0.000490	20.705605
274.071684	-2.981600	3.826600	-11.409000	22.951531	0.000490	20.697052
275.078407	-3.004400	3.825900	-11.493000	22.952674	0.000492	20.684445
276.071275	-2.983900	3.825900	-11.415000	22.933922	0.000493	20.698377
277.070946	-2.996300	3.825000	-11.460000	22.954900	0.000493	20.688574
278.069519	-2.998600	3.823100	-11.463000	22.966283	0.000493	20.699505
279.067366	-2.998300	3.824300	-11.465000	22.977143	0.000492	20.689522
280.067744	-3.015900	3.825200	-11.535000	22.985498	0.000493	20.695048
281.071950	-3.014800	3.823200	-11.525000	23.004020	0.000493	20.692743
282.074254	-2.988300	3.823800	-11.426000	23.034486	0.000493	20.696716
283.072454	-2.985200	3.823400	-11.413000	23.013247	0.000494	20.686341
284.077086	-3.027800	3.823000	-11.574000	23.010188	0.000493	20.675687
285.076046	-3.022700	3.822100	-11.552000	23.048585	0.000494	20.686660
286.075174	-3.000100	3.822700	-11.468000	23.019929	0.000494	20.694933
287.077246	-3.004800	3.821100	-11.481000	23.013957	0.000494	20.709813
288.079149	-2.996300	3.821500	-11.450000	23.015295	0.000493	20.704989
289.071907	-3.009900	3.822400	-11.504000	23.006964	0.000494	20.706599
290.072772	-3.012400	3.820800	-11.509000	23.026562	0.000494	20.691621
291.080331	-3.011200	3.820300	-11.503000	23.023902	0.000495	20.722623
292.074158	-3.002900	3.820200	-11.469000	23.077253	0.000495	20.708275
293.077367	-2.994100	3.820400	-11.438000	23.077734	0.000496	20.701170
294.075281	-3.012000	3.819200	-11.502000	23.108647	0.000496	20.699428
295.072295	-2.982500	3.820500	-11.394000	23.112555	0.000497	20.691964
296.077086	-2.999100	3.820800	-11.458000	23.100301	0.000495	20.685374
297.072728	-2.996300	3.819100	-11.442000	23.111616	0.000494	20.698136
298.082289	-2.996400	3.820300	-11.446000	23.103841	0.000498	20.696509
299.073811	-3.005900	3.819900	-11.481000	23.067689	0.000497	20.684466
300.080392	-3.011700	3.818800	-11.500000	23.094034	0.000500	20.717978
301.079145	-3.017800	3.819200	-11.524000	23.110334	0.000497	20.705387
302.076944	-3.002500	3.818800	-11.465000	23.108662	0.000498	20.706556
303.077748	-3.005000	3.818400	-11.474000	23.156885	0.000499	20.689918
304.079551	-3.016700	3.818300	-11.518000	23.192022	0.000498	20.685773
305.078184	-3.017800	3.818600	-11.523000	23.191402	0.000499	20.704594
306.073381	-3.003900	3.817700	-11.467000	23.175795	0.000498	20.712188
307.080462	-2.999300	3.816300	-11.445000	23.163868	0.000498	20.684587
308.074050	-3.006300	3.817100	-11.473000	23.173837	0.000500	20.701690
309.077544	-3.007800	3.817800	-11.482000	23.172613	0.000501	20.694774
310.079188	-3.000400	3.817000	-11.451000	23.176374	0.000500	20.708975
311.081037	-3.000400	3.816500	-11.450000	23.180583	0.000502	20.716513
312.080700	-2.990600	3.817500	-11.416000	23.197936	0.000501	20.714461
313.077645	-3.011900	3.815900	-11.492000	23.202976	0.000501	20.701968
314.078596	-3.002900	3.817200	-11.461000	23.179319	0.000501	20.703391
315.076024	-3.013000	3.816200	-11.498000	23.163859	0.000501	20.707813
316.077805	-3.004300	3.816300	-11.464000	23.164504	0.000502	20.698976
317.076374	-3.002700	3.815900	-11.457000	23.141848	0.000503	20.691920
318.083379	-3.010200	3.815000	-11.483000	23.173705	0.000502	20.705352
319.076410	-3.020000	3.813700	-11.517000	23.185730	0.000503	20.729258
320.084084	-2.995800	3.814600	-11.427000	23.215041	0.000503	20.712637
321.078559	-2.991600	3.816100	-11.415000	23.262012	0.000502	20.714190
322.081274	-3.001800	3.814000	-11.447000	23.258080	0.000505	20.703610
323.083846	-2.995600	3.814000	-11.424000	23.290725	0.000505	20.700765
324.080437	-3.021300	3.812800	-11.518000	23.293890	0.000504	20.701092
325.079082	-3.016100	3.812800	-11.499000	23.327105	0.000504	20.726322
326.088463	-3.004000	3.813000	-11.453000	23.307137	0.000505	20.705360
327.081427	-3.017800	3.813400	-11.507000	23.300383	0.000505	20.704755
328.080812	-3.030700	3.812600	-11.554000	23.299518	0.000504	20.716691
329.083966	-3.017700	3.811500	-11.501000	23.312611	0.000506	20.703733
330.084327	-2.983100	3.812200	-11.371000	23.304453	0.000507	20.692712
331.086482	-2.986200	3.812400	-11.384000	23.289265	0.000506	20.704517
332.091505	-2.998600	3.811600	-11.428000	23.287919	0.000507	20.729249
333.085736	-2.992900	3.813000	-11.411000	23.309853	0.000507	20.724205
334.088276	-3.010600	3.810900	-11.472000	23.311607	0.000505	20.729281
335.090548	-2.987900	3.810900	-11.386000	23.326844	0.000507	20.716102
336.087161	-2.983900	3.811100	-11.371000	23.306778	0.000506	20.712112
337.092042	-2.979800	3.812300	-11.359000	23.333377	0.000505	20.698941
338.089053	-2.985700	3.811500	-11.379000	23.361289	0.000509	20.708899
339.086267	-2.982500	3.811600	-11.367000	23.350783	0.000508	20.701688
340.085279	-3.006100	3.809200	-11.450000	23.335490	0.000508	20.711016
341.089156	-2.985500	3.809700	-11.374000	23.365523	0.000511	20.707926
342.090652	-3.012900	3.808300	-11.472000	23.402895	0.000510	20.730687
343.090471	-3.016600	3.809400	-11.490000	23.403915	0.000511	20.711793
344.092256	-3.018100	3.808300	-11.493000	23.398613	0.000509	20.713117
345.092376	-2.993400	3.809400	-11.402000	23.384845	0.000509	20.711172
346.090910	-3.005300	3.808300	-11.444000	23.397177	0.000511	20.710255
347.093750	-2.998400	3.807500	-11.415000	23.443799	0.000510	20.718579
348.090726	-2.989000	3.808200	-11.382000	23.425602	0.000509	20.725945
349.090114	-2.984000	3.807900	-11.362000	23.417732	0.000510	20.732755
350.087088	-2.992800	3.808000	-11.396000	23.423090	0.000509	20.718685
351.092383	-3.007100	3.808200	-11.451000	23.454981	0.000511	20.712243
352.092589	-3.019200	3.806300	-11.491000	23.457900	0.000511	20.738878
353.090455	-3.008900	3.806100	-11.452000	23.469123	0.000509	20.739222
354.091596	-2.968900	3.807300	-11.302000	23.469775	0.000511	20.726125
355.097771	-2.993400	3.806300	-11.393000	23.460518	0.000512	20.722535
356.095089	-2.989300	3.806200	-11.376000	23.451824	0.000512	20.722356
357.101118	-3.016100	3.805700	-11.478000	23.451571	0.000512	20.739647
358.095867	-3.013400	3.805800	-11.468000	23.454067	0.000514	20.746890
359.096767	-2.989800	3.805700	-11.377000	23.465427	0.000513	20.741682
360.095041	-2.970200	3.807200	-11.307000	23.474978	0.000513	20.739876
361.093813	-2.988200	3.803700	-11.364000	23.512429	0.000513	20.733793
362.105258	-2.990700	3.804900	-11.379000	23.513220	0.000513	20.729370
363.096575	-2.992900	3.804600	-11.386000	23.499559	0.000514	20.711882
364.095819	-3.004900	3.803800	-11.430000	23.524703	0.000514	20.738510
365.098738	-2.995400	3.803400	-11.392000	23.552488	0.000514	20.735068
366.098161	-3.007800	3.802800	-11.437000	23.525347	0.000514	20.728724
367.100988	-3.021100	3.803200	-11.488000	23.528984	0.000515	20.756079
368.104153	-3.017900	3.804400	-11.480000	23.532769	0.000515	20.735215
369.101160	-2.984500	3.803200	-11.349000	23.524833	0.000516	20.751917
370.100932	-3.006200	3.801800	-11.429000	23.535337	0.000515	20.752490
371.101940	-2.997300	3.802000	-11.395000	23.566661	0.000514	20.728887
372.102486	-2.989400	3.802200	-11.366000	23.574221	0.000515	20.725086
373.102613	-3.011700	3.801600	-11.448000	23.563595	0.000516	20.738142
374.105441	-2.999400	3.802100	-11.403000	23.568822	0.000516	20.738641
375.103356	-3.011200	3.801400	-11.445000	23.579481	0.000517	20.727039
376.106983	-2.995300	3.800500	-11.382000	23.556728	0.000517	20.732680
377.106886	-2.978300	3.801000	-11.320000	23.607542	0.000516	20.730988
378.101154	-2.992500	3.799700	-11.370000	23.599126	0.000516	20.733457
379.103573	-3.013300	3.800600	-11.452000	23.591828	0.000519	20.723295
380.104294	-3.003000	3.800100	-11.411000	23.607216	0.000517	20.737299
381.100600	-2.994400	3.799600	-11.377000	23.605054	0.000516	20.751255
382.105118	-3.014600	3.799600	-11.453000	23.614139	0.000518	20.748508
383.114003	-2.966800	3.799700	-11.272000	23.634298	0.000519	20.724619
384.109610	-2.993600	3.798400	-11.369000	23.634298	0.000521	20.764450
385.108281	-2.991700	3.799100	-11.365000	23.648771	0.000520	20.740553
386.105415	-3.002800	3.798000	-11.404000	23.621062	0.000519	20.731740
387.104824	-3.001100	3.797800	-11.397000	23.668204	0.000519	20.778053
388.106817	-2.986900	3.798600	-11.345000	23.667136	0.000520	20.727194
389.103507	-3.015900	3.797800	-11.451000	23.648095	0.000517	20.751729
390.107306	-3.002900	3.796800	-11.400000	23.646081	0.000519	20.750184
391.107416	-2.997400	3.796500	-11.378000	23.654089	0.000519	20.760583
392.104131	-3.013600	3.796500	-11.440000	23.633310	0.000518	20.745916
393.110635	-2.979600	3.797700	-11.315000	23.624863	0.000522	20.752146
394.112211	-2.996000	3.795900	-11.372000	23.626698	0.000521	20.758728
395.108574	-3.029800	3.796300	-11.501000	23.669444	0.000521	20.749424
396.111429	-3.005800	3.796600	-11.411000	23.663197	0.000521	20.756438
397.110138	-3.009400	3.796100	-11.423000	23.695806	0.000521	20.748353
398.105099	-3.008200	3.795500	-11.416000	23.711634	0.000522	20.759480
399.108644	-2.998100	3.795500	-11.378000	23.701376	0.000522	20.767688
400.109759	-3.016700	3.794700	-11.447000	23.729083	0.000523	20.755163
401.104506	-2.991100	3.793900	-11.347000	23.708625	0.000519	20.777800
402.109260	-2.989000	3.794200	-11.340000	23.704939	0.000521	20.754664
403.108027	-3.002500	3.794300	-11.391000	23.708951	0.000520	20.762954
404.108857	-2.992600	3.793000	-11.350000	23.736324	0.000519	20.752939
405.113519	-2.999200	3.794300	-11.379000	23.723832	0.000521	20.766968
406.113636	-2.995900	3.794000	-11.365000	23.719657	0.000520	20.766575
407.108751	-3.006500	3.792700	-11.402000	23.727591	0.000521	20.765047
408.112355	-2.997300	3.793500	-11.370000	23.746834	0.000522	20.767745
409.115407	-3.009700	3.792200	-11.413000	23.750788	0.000524	20.769339
410.112834	-2.998800	3.792500	-11.371000	23.775331	0.000522	20.784463
411.112323	-2.996500	3.792700	-11.364000	23.776750	0.000524	20.775928
412.110363	-3.024200	3.792400	-11.466000	23.785262	0.000524	20.770712
413.109888	-3.005100	3.791800	-11.394000	23.765726	0.000522	20.768194
414.111567	-2.990100	3.790900	-11.335000	23.777051	0.000522	20.747780
415.114946	-2.991600	3.791300	-11.341000	23.785906	0.000523	20.767091
416.113822	-2.989700	3.790000	-11.330000	23.760271	0.000521	20.795916
417.111094	-2.989600	3.790900	-11.333000	23.765229	0.000526	20.776230
418.112828	-3.018800	3.790500	-11.442000	23.802221	0.000526	20.785345
419.111432	-2.978500	3.790100	-11.288000	23.789714	0.000525	20.758580
420.111827	-3.010500	3.788700	-11.404000	23.782057	0.000524	20.780302
421.113527	-3.003800	3.790300	-11.383000	23.808736	0.000523	20.780972
422.115390	-3.004600	3.789700	-11.385000	23.779710	0.000524	20.758981
423.114185	-2.996100	3.789000	-11.351000	23.817720	0.000523	20.771963
424.110085	-3.010100	3.788600	-11.403000	23.810554	0.000524	20.788011
425.113406	-2.986000	3.789500	-11.315000	23.848426	0.000526	20.773827
426.114907	-3.001800	3.788200	-11.370000	23.859130	0.000525	20.775552
427.116679	-2.987700	3.789100	-11.320000	23.881803	0.000523	20.781218
428.115904	-3.017300	3.787700	-11.428000	23.873349	0.000526	20.775584
429.114198	-2.989400	3.787900	-11.323000	23.865873	0.000526	20.776149
430.113968	-3.007100	3.786200	-11.384000	23.863068	0.000527	20.789458
431.117833	-2.985700	3.785900	-11.303000	23.859684	0.000524	20.792229
432.112838	-2.979100	3.787600	-11.283000	23.889149	0.000527	20.781945
433.116035	-2.999400	3.786000	-11.354000	23.902935	0.000526	20.799088
434.113326	-2.995200	3.785400	-11.336000	23.873740	0.000529	20.789728
435.113374	-3.011400	3.785500	-11.399000	23.889173	0.000525	20.775331
436.113298	-2.981200	3.786100	-11.287000	23.927075	0.000527	20.804803
437.113651	-2.997300	3.784200	-11.342000	23.922102	0.000527	20.815462
438.117412	-3.005900	3.784000	-11.374000	23.924270	0.000526	20.789662
439.113395	-3.008900	3.783700	-11.383000	23.902511	0.000527	20.776852
440.113437	-2.991700	3.783100	-11.317000	23.909685	0.000527	20.765079
441.113482	-2.985900	3.784200	-11.298000	23.892459	0.000526	20.782419
442.118114	-2.996400	3.784000	-11.338000	23.887542	0.000526	20.808309
443.111454	-2.989700	3.784900	-11.315000	23.895728	0.000527	20.802292
444.118657	-3.001600	3.784200	-11.358000	23.930025	0.000527	20.788321
445.119254	-2.984800	3.784600	-11.294000	23.949860	0.000528	20.796831
446.119001	-3.016400	3.782900	-11.410000	23.952273	0.000526	20.807312
447.118848	-2.990400	3.781600	-11.307000	23.930922	0.000526	20.784004
448.115935	-3.014500	3.782300	-11.401000	23.939132	0.000527	20.818789
449.115078	-2.978300	3.782300	-11.264000	23.917168	0.000527	20.787756
450.118189	-3.026300	3.781800	-11.444000	23.954907	0.000528	20.810901
451.113709	-3.006200	3.781300	-11.366000	23.947325	0.000527	20.808039
452.114589	-3.003900	3.780800	-11.355000	23.941455	0.000529	20.806420
453.120167	-3.006500	3.782100	-11.370000	23.987816	0.000528	20.799332
454.118200	-2.968200	3.782000	-11.225000	23.951612	0.000527	20.800959
455.120386	-3.003200	3.780700	-11.353000	23.970273	0.000529	20.788378
456.121595	-3.014400	3.780700	-11.395000	23.992577	0.000530	20.802210
457.126631	-3.013700	3.781600	-11.396000	24.020138	0.000527	20.824634
458.120688	-3.015100	3.780900	-11.399000	23.996432	0.000528	20.815085
459.119761	-3.015700	3.779300	-11.396000	24.004267	0.000530	20.812036
460.120075	-3.002600	3.778400	-11.344000	24.051000	0.000529	20.808644
461.128366	-2.992600	3.778600	-11.307000	24.058614	0.000530	20.829081
462.121501	-2.986000	3.779100	-11.282000	24.084543	0.000528	20.810042
463.122747	-3.004600	3.779000	-11.354000	24.076734	0.000529	20.796520
464.128831	-3.007100	3.777000	-11.357000	24.099998	0.000529	20.810368
465.124824	-3.014800	3.777800	-11.388000	24.145750	0.000529	20.804573
466.127295	-3.003000	3.777700	-11.343000	24.115200	0.000530	20.814235
467.125284	-3.020400	3.776300	-11.405000	24.113284	0.000530	20.811366
468.127144	-3.016600	3.776500	-11.392000	24.098849	0.000531	20.819173
469.126276	-3.004400	3.775600	-11.343000	24.040281	0.000530	20.816385
470.128348	-2.999600	3.778200	-11.332000	24.068616	0.000530	20.822042
471.127245	-2.984000	3.775200	-11.264000	24.097960	0.000531	20.835351
472.133555	-2.976500	3.776600	-11.240000	24.123587	0.000529	20.825492
473.124356	-2.993500	3.775900	-11.302000	24.143141	0.000532	20.817603
474.131339	-3.026200	3.774900	-11.423000	24.112853	0.000529	20.823261
475.128801	-2.999400	3.774800	-11.322000	24.083615	0.000530	20.823809
476.129212	-3.005500	3.774300	-11.343000	24.099860	0.000530	20.822084
477.130394	-3.006000	3.775500	-11.348000	24.107074	0.000528	20.825051
478.129903	-3.016000	3.773700	-11.381000	24.120181	0.000532	20.830611
479.131163	-3.021700	3.773400	-11.401000	24.104629	0.000531	20.820228
480.127208	-3.009400	3.775300	-11.361000	24.128708	0.000534	20.842007
481.129651	-3.008500	3.773900	-11.353000	24.127664	0.000529	20.852813
482.147080	-3.008000	3.773100	-11.349000	24.147275	0.000532	20.818430
483.128264	-2.984100	3.773000	-11.258000	24.133060	0.000532	20.821243
484.130831	-2.979200	3.772600	-11.238000	24.146363	0.000530	20.843119
485.128241	-2.994200	3.771900	-11.293000	24.169079	0.000530	20.849781
486.136372	-3.010600	3.773000	-11.358000	24.182267	0.000531	20.837405
487.136249	-3.026000	3.771000	-11.410000	24.195748	0.000531	20.838598
488.133151	-3.010200	3.771900	-11.354000	24.213598	0.000529	20.829476
489.134852	-2.994400	3.772300	-11.295000	24.226679	0.000531	20.845442
490.135546	-3.000100	3.771500	-11.314000	24.203516	0.000531	20.835959
491.130548	-3.025300	3.770800	-11.407000	24.204714	0.000532	20.847117
492.136252	-3.000400	3.770500	-11.312000	24.192986	0.000532	20.851949
493.138651	-3.009900	3.769700	-11.346000	24.176115	0.000531	20.844510
494.136066	-3.016200	3.770100	-11.370000	24.195342	0.000532	20.831554
495.139544	-2.975800	3.771300	-11.222000	24.213680	0.000532	20.836197
496.139873	-3.020100	3.769200	-11.382000	24.238205	0.000531	20.841830
497.138550	-3.003600	3.770000	-11.322000	24.236762	0.000531	20.840857
498.137123	-3.009400	3.769600	-11.342000	24.241856	0.000531	20.851656
499.138148	-2.993000	3.769700	-11.282000	24.238303	0.000531	20.877013
500.138740	-3.032400	3.767200	-11.422000	24.224733	0.000535	20.861981
501.137436	-2.985600	3.768800	-11.251000	24.226681	0.000532	20.842598
502.136570	-3.015100	3.767100	-11.357000	24.241661	0.000531	20.832968
503.140866	-2.993000	3.768600	-11.278000	24.256576	0.000531	20.872583
504.139143	-3.000600	3.767600	-11.304000	24.240724	0.000533	20.872804
505.140586	-3.020900	3.767000	-11.379000	24.238043	0.000533	20.849727
506.146340	-2.984100	3.767300	-11.242000	24.261148	0.000532	20.860575
507.143100	-2.981300	3.768300	-11.233000	24.254506	0.000533	20.855335
508.147286	-2.979400	3.768300	-11.226000	24.253529	0.000534	20.833019
509.147340	-3.015300	3.766200	-11.355000	24.241686	0.000535	20.856701
510.144700	-2.996400	3.766400	-11.285000	24.238598	0.000532	20.847439
511.141992	-3.007600	3.765300	-11.324000	24.250236	0.000533	20.834932
512.146199	-2.989300	3.765400	-11.254000	24.242477	0.000535	20.851330
513.142967	-3.000600	3.765600	-11.298000	24.259022	0.000532	20.842796
514.141828	-3.009500	3.766100	-11.333000	24.272127	0.000533	20.842191
515.145190	-3.012100	3.765800	-11.342000	24.267628	0.000531	20.859489
516.144627	-3.002200	3.764900	-11.301000	24.297033	0.000532	20.832087
517.146460	-2.984000	3.764200	-11.231000	24.340886	0.000534	20.847628
518.144882	-3.001800	3.764100	-11.298000	24.314466	0.000534	20.860478
519.146452	-2.992300	3.763800	-11.262000	24.339020	0.000532	20.839592
520.145199	-2.986600	3.764000	-11.240000	24.315240	0.000531	20.840393
521.144866	-2.999700	3.763700	-11.289000	24.326584	0.000534	20.838022
522.143342	-2.993100	3.761800	-11.258000	24.315370	0.000534	20.839101
523.143354	-2.996200	3.763100	-11.274000	24.334692	0.000533	20.833829
524.145501	-3.010400	3.761800	-11.323000	24.324416	0.000534	20.850072
525.149693	-2.985400	3.762300	-11.232000	24.346191	0.000536	20.825923
526.145230	-2.985600	3.763300	-11.234000	24.353754	0.000532	20.839673
527.148640	-3.000700	3.762300	-11.289000	24.347829	0.000532	20.841791
528.146137	-2.992200	3.760700	-11.252000	24.338099	0.000533	20.840565
529.145317	-2.992600	3.762400	-11.258000	24.329843	0.000535	20.819482
530.145450	-2.996100	3.761000	-11.268000	24.349002	0.000533	20.802666
531.146166	-3.001300	3.760600	-11.286000	24.322256	0.000533	20.827992
532.149273	-3.016700	3.760800	-11.344000	24.344724	0.000533	20.834883
533.143496	-3.003700	3.759400	-11.291000	24.346069	0.000534	20.843818
534.143401	-2.982400	3.760400	-11.215000	24.368381	0.000532	20.821157
535.145787	-3.008700	3.759200	-11.309000	24.376115	0.000533	20.834605
536.146685	-3.002800	3.759100	-11.287000	24.417112	0.000533	20.834957
537.146126	-3.031700	3.758200	-11.393000	24.451369	0.000533	20.811004
538.150210	-3.008500	3.758200	-11.305000	24.425994	0.000532	20.798823
539.145532	-3.016900	3.758700	-11.339000	24.408311	0.000534	20.812377
540.150404	-3.013900	3.759100	-11.328000	24.421692	0.000533	20.825801
541.148234	-2.990000	3.759400	-11.240000	24.398134	0.000530	20.824926
542.152834	-3.000700	3.757800	-11.275000	24.392886	0.000533	20.822506
543.144696	-2.997800	3.757000	-11.261000	24.383335	0.000532	20.832365
544.146955	-2.990000	3.757900	-11.236000	24.404775	0.000532	20.823054
545.144659	-3.003700	3.757100	-11.285000	24.418709	0.000532	20.806213
546.155077	-2.987900	3.757000	-11.225000	24.419899	0.000532	20.796502
547.148320	-2.978200	3.755900	-11.184000	24.419679	0.000533	20.814773
548.149194	-3.004500	3.755400	-11.281000	24.457912	0.000532	20.810930
549.151716	-3.001000	3.755600	-11.269000	24.484876	0.000532	20.814748
550.150795	-2.992800	3.754600	-11.236000	24.493480	0.000534	20.809631
551.154383	-3.010100	3.755300	-11.303000	24.529919	0.000530	20.822008
552.152579	-3.007400	3.754500	-11.291000	24.512514	0.000530	20.817822
553.150329	-2.986900	3.755300	-11.216000	24.494727	0.000533	20.817993
554.152368	-2.991300	3.754500	-11.230000	24.471741	0.000532	20.814846
555.151144	-2.985500	3.753700	-11.206000	24.428911	0.000531	20.816448
556.152941	-3.013500	3.753400	-11.311000	24.427812	0.000532	20.823405
557.153658	-2.995200	3.755000	-11.246000	24.448085	0.000532	20.782105
558.156381	-3.012200	3.753700	-11.306000	24.439155	0.000532	20.797327
559.154387	-2.987700	3.752400	-11.210000	24.465971	0.000532	20.802420
560.160731	-3.019300	3.752200	-11.329000	24.477608	0.000534	20.792758
561.159854	-2.989300	3.752100	-11.216000	24.461490	0.000533	20.787019
562.154835	-3.001100	3.752100	-11.259000	24.457432	0.000532	20.796224
563.154588	-3.003500	3.751200	-11.265000	24.453098	0.000532	20.805151
564.165756	-3.015700	3.752300	-11.315000	24.452730	0.000531	20.829439
565.156522	-3.007200	3.750800	-11.278000	24.473371	0.000532	20.800361
566.158411	-3.032000	3.750200	-11.369000	24.515163	0.000533	20.795823
567.153448	-3.007300	3.750400	-11.278000	24.499910	0.000529	20.808021
568.154790	-2.995100	3.751100	-11.234000	24.517868	0.000532	20.800435
569.155174	-3.008300	3.751700	-11.285000	24.513852	0.000533	20.801146
570.157442	-2.989600	3.751900	-11.216000	24.535175	0.000532	20.782711
571.154151	-3.006400	3.749200	-11.271000	24.527085	0.000529	20.807785
572.157717	-2.999800	3.749700	-11.247000	24.537758	0.000530	20.807114
573.158059	-2.999800	3.749500	-11.247000	24.527085	0.000529	20.779809
574.154429	-3.019700	3.749500	-11.322000	24.505101	0.000530	20.802323
575.159126	-3.017900	3.749200	-11.314000	24.517462	0.000532	20.782483
576.161074	-2.981500	3.749600	-11.178000	24.484796	0.000532	20.814194
577.161031	-2.983900	3.749500	-11.187000	24.476012	0.000529	20.808226
578.159291	-2.987400	3.747600	-11.194000	24.488601	0.000531	20.792882
579.159035	-2.981700	3.748800	-11.176000	24.479573	0.000530	20.787143
580.156140	-3.003000	3.747200	-11.252000	24.470838	0.000529	20.783121
581.156680	-2.974000	3.747400	-11.144000	24.498053	0.000532	20.807580
582.167979	-3.014800	3.747500	-11.297000	24.543470	0.000531	20.789138
583.157922	-2.987400	3.747200	-11.193000	24.555130	0.000530	20.798466
584.161244	-3.006100	3.746900	-11.262000	24.548938	0.000531	20.807900
585.161830	-2.998400	3.748100	-11.236000	24.535005	0.000532	20.792972
586.157682	-3.007800	3.745900	-11.266000	24.569706	0.000529	20.799814
587.163832	-3.008200	3.745900	-11.267000	24.558854	0.000530	20.803150
588.165797	-3.004600	3.746900	-11.258000	24.518612	0.000531	20.810189
589.173608	-3.019500	3.745800	-11.310000	24.510952	0.000529	20.796340
590.162523	-3.014400	3.744900	-11.288000	24.531070	0.000531	20.770058
591.166070	-3.002800	3.744900	-11.244000	24.563531	0.000528	20.803101
592.159247	-2.979000	3.744100	-11.153000	24.558798	0.000531	20.781757
593.158649	-3.012700	3.743500	-11.277000	24.539878	0.000530	20.772731
594.161113	-2.976600	3.744600	-11.145000	24.573521	0.000529	20.784201
595.159062	-2.985300	3.745000	-11.179000	24.583721	0.000533	20.784479
596.162940	-2.983400	3.743900	-11.169000	24.600709	0.000530	20.792515
597.160787	-2.989600	3.743600	-11.191000	24.587869	0.000531	20.776312
598.161761	-3.006500	3.742600	-11.251000	24.650041	0.000528	20.777056
599.161505	-3.003500	3.744200	-11.245000	24.632036	0.000529	20.781275
600.161376	-3.011400	3.743300	-11.272000	24.624891	0.000530	20.788805
601.162675	-3.018900	3.742000	-11.295000	24.613648	0.000531	20.774678
602.166852	-2.993300	3.743000	-11.203000	24.638871	0.000529	20.790979
603.166574	-3.003000	3.742400	-11.238000	24.641202	0.000528	20.785731
604.165413	-3.012900	3.740000	-11.268000	24.611579	0.000527	20.783033
605.165954	-3.024900	3.740400	-11.314000	24.621706	0.000531	20.779918
606.167371	-3.011300	3.741700	-11.267000	24.614691	0.000531	20.795165
607.166311	-3.004200	3.740900	-11.238000	24.604532	0.000528	20.787816
608.169854	-2.974700	3.741400	-11.128000	24.578118	0.000529	20.775063
609.168430	-2.984400	3.741000	-11.163000	24.625544	0.000529	20.750578
610.167023	-3.002000	3.740400	-11.228000	24.608809	0.000530	20.780254
611.169178	-2.981700	3.739500	-11.149000	24.617707	0.000528	20.777802
612.175587	-2.992100	3.741400	-11.194000	24.641561	0.000528	20.780876
613.167583	-2.995400	3.739100	-11.199000	24.648568	0.000529	20.789803
614.168964	-2.988300	3.740200	-11.175000	24.631582	0.000529	20.782241
615.176163	-2.988500	3.739700	-11.175000	24.652625	0.000529	20.764476
616.172234	-2.985200	3.739300	-11.162000	24.640332	0.000528	20.782487
617.165639	-3.013000	3.738900	-11.265000	24.672537	0.000528	20.753637
618.173984	-2.977700	3.738300	-11.131000	24.652235	0.000530	20.775465
619.167609	-3.015600	3.737700	-11.271000	24.644667	0.000529	20.771190
620.172836	-2.999300	3.738300	-11.212000	24.703764	0.000528	20.761265
621.175422	-3.022800	3.738100	-11.299000	24.689133	0.000527	20.766023
622.172543	-3.010700	3.737600	-11.252000	24.648496	0.000527	20.770765
623.171127	-3.009100	3.737700	-11.247000	24.651153	0.000529	20.784810
624.170494	-2.992800	3.738500	-11.188000	24.628268	0.000527	20.772278
625.171414	-3.003500	3.735700	-11.219000	24.620732	0.000526	20.758078
626.171958	-2.998900	3.736200	-11.204000	24.633181	0.000527	20.760138
627.177075	-2.992000	3.736000	-11.177000	24.619297	0.000526	20.772286
628.171087	-2.988900	3.735700	-11.164000	24.655349	0.000528	20.785702
629.170102	-2.997800	3.735700	-11.198000	24.664278	0.000529	20.777592
630.174376	-3.001600	3.735600	-11.212000	24.679342	0.000527	20.759043
631.176956	-2.992300	3.735200	-11.176000	24.688834	0.000528	20.761929
632.175336	-2.992000	3.735100	-11.175000	24.696874	0.000527	20.757669
633.174137	-2.981500	3.735300	-11.136000	24.670837	0.000526	20.778484
634.176375	-2.996000	3.735000	-11.189000	24.635186	0.000527	20.766892
635.171524	-2.992600	3.735500	-11.179000	24.637410	0.000527	20.759640
636.176967	-2.981600	3.734600	-11.135000	24.674031	0.000526	20.765093
637.173265	-2.986300	3.734500	-11.151000	24.693054	0.000526	20.764268
638.172273	-3.010900	3.733600	-11.241000	24.697633	0.000527	20.764595
639.175833	-2.983800	3.733700	-11.140000	24.717527	0.000524	20.766066
640.175254	-2.981100	3.733000	-11.128000	24.704867	0.000525	20.760000
641.174029	-2.991500	3.733100	-11.166000	24.688354	0.000525	20.756232
642.172434	-3.010800	3.733400	-11.240000	24.691654	0.000525	20.775665
643.176612	-2.997200	3.731800	-11.184000	24.725006	0.000525	20.777365
644.171932	-3.007400	3.732600	-11.224000	24.727197	0.000525	20.759649
645.174215	-2.995500	3.731400	-11.176000	24.752606	0.000526	20.752905
646.174154	-3.022600	3.731200	-11.277000	24.745967	0.000525	20.766631
647.176572	-3.028000	3.730000	-11.294000	24.705609	0.000525	20.764538
648.182772	-3.009400	3.732300	-11.231000	24.703011	0.000525	20.758138
649.181595	-3.005800	3.729400	-11.209000	24.683988	0.000524	20.770343
650.180142	-3.049100	3.729400	-11.369000	24.692469	0.000525	20.777905
651.175806	-3.016600	3.729700	-11.250000	24.666081	0.000525	20.786514
652.181130	-2.972600	3.731500	-11.092000	24.691076	0.000525	20.762756
653.178054	-2.999700	3.731000	-11.190000	24.721039	0.000522	20.772436
654.179257	-2.989300	3.729700	-11.148000	24.699899	0.000523	20.772085
655.182014	-2.990800	3.729000	-11.151000	24.763083	0.000525	20.771480
656.181056	-3.006600	3.729700	-11.214000	24.738311	0.000524	20.780759
657.178479	-3.020500	3.729600	-11.265000	24.755556	0.000524	20.763926
658.181713	-3.016900	3.727200	-11.244000	24.757715	0.000524	20.755661
659.176820	-2.988600	3.728800	-11.143000	24.739369	0.000524	20.743414
660.179304	-2.998100	3.728700	-11.178000	24.752860	0.000523	20.775445
661.180556	-3.007700	3.728100	-11.213000	24.705048	0.000522	20.759707
662.176770	-2.994600	3.727600	-11.161000	24.735385	0.000522	20.740365
663.176320	-3.000200	3.726900	-11.181000	24.731044	0.000524	20.744543
664.183984	-2.994600	3.727300	-11.161000	24.778406	0.000521	20.737070
665.179316	-3.017300	3.726400	-11.243000	24.797403	0.000524	20.767515
666.177522	-3.009100	3.725900	-11.211000	24.842580	0.000523	20.744101
667.182964	-3.015100	3.724900	-11.230000	24.820098	0.000523	20.734814
668.177103	-3.014800	3.725500	-11.231000	24.839867	0.000522	20.749440
669.182691	-2.999200	3.726500	-11.175000	24.834173	0.000522	20.731871
670.182928	-3.001400	3.724900	-11.179000	24.831909	0.000522	20.740030
671.184768	-2.993000	3.726500	-11.153000	24.820139	0.000518	20.740546
672.185939	-2.992300	3.726000	-11.149000	24.810071	0.000522	20.731389
673.186572	-2.989500	3.724900	-11.134000	24.794308	0.000523	20.738330
674.192215	-2.996200	3.724700	-11.159000	24.804531	0.000520	20.757125
675.186153	-3.019900	3.724100	-11.245000	24.788851	0.000521	20.744233
676.187484	-3.003700	3.722800	-11.181000	24.807806	0.000520	20.726745
677.182386	-2.983900	3.724400	-11.113000	24.780729	0.000521	20.736082
678.186065	-2.988000	3.724400	-11.128000	24.804124	0.000519	20.739647
679.187490	-3.031800	3.722900	-11.286000	24.827828	0.000520	20.726451
680.183426	-3.024200	3.722700	-11.257000	24.837367	0.000520	20.717532
681.187843	-2.997000	3.722500	-11.155000	24.846523	0.000522	20.736679
682.186832	-3.004700	3.721600	-11.181000	24.836545	0.000521	20.723345
683.183363	-3.001700	3.723100	-11.173000	24.851068	0.000521	20.717058
684.188607	-3.003800	3.721000	-11.177000	24.858693	0.000519	20.738936
685.185294	-2.998700	3.722600	-11.162000	24.882665	0.000521	20.737865
686.182944	-2.995500	3.720700	-11.144000	24.889002	0.000520	20.730949
687.187712	-2.995000	3.722700	-11.148000	24.881696	0.000519	20.752066
688.187178	-3.008000	3.720900	-11.191000	24.869682	0.000521	20.727204
689.186888	-2.990900	3.721400	-11.129000	24.837734	0.000521	20.721220
690.190150	-3.000500	3.720800	-11.164000	24.823952	0.000519	20.726354
691.189583	-2.987800	3.720700	-11.115000	24.784836	0.000518	20.714598
692.184171	-2.998900	3.721100	-11.158000	24.812932	0.000518	20.736631
693.189743	-2.978000	3.719900	-11.077000	24.847151	0.000518	20.727826
694.190444	-3.007100	3.720400	-11.186000	24.880565	0.000520	20.731015
695.191668	-3.016700	3.720100	-11.221000	24.895087	0.000517	20.713821
696.187587	-2.987100	3.719900	-11.110000	24.892424	0.000519	20.713045
697.191910	-3.010700	3.718400	-11.193000	24.915671	0.000519	20.730688
698.196248	-2.993000	3.719900	-11.132000	24.943388	0.000519	20.712988
699.191395	-3.008500	3.718900	-11.187000	24.883636	0.000518	20.722718
700.190103	-2.989300	3.718200	-11.114000	24.824801	0.000517	20.715352
701.192128	-2.988500	3.717000	-11.106000	24.823465	0.000519	20.724442
702.194022	-2.985000	3.719000	-11.100000	24.820826	0.000516	20.738390
703.195602	-3.000600	3.717600	-11.154000	24.795435	0.000518	20.729978
704.189682	-2.975900	3.719000	-11.066000	24.767699	0.000517	20.724427
705.189656	-2.999100	3.717400	-11.148000	24.777873	0.000516	20.713300
706.191436	-3.008600	3.716400	-11.180000	24.795053	0.000515	20.736233
707.193208	-3.002900	3.717100	-11.162000	24.786972	0.000517	20.716268
708.196241	-3.012700	3.716300	-11.196000	24.800698	0.000516	20.715818
709.195971	-2.985100	3.717000	-11.095000	24.791290	0.000516	20.708273
710.195574	-2.983500	3.715500	-11.084000	24.797905	0.000517	20.708747
711.194341	-3.010000	3.715300	-11.182000	24.813219	0.000514	20.705624
712.198354	-3.006900	3.715900	-11.172000	24.859470	0.000514	20.703204
713.192974	-2.999900	3.715400	-11.145000	24.900278	0.000515	20.719032
714.196589	-2.995600	3.715200	-11.129000	24.913425	0.000516	20.729382
715.203297	-3.013400	3.714500	-11.192000	24.868170	0.000515	20.709091
716.193477	-2.998000	3.715600	-11.139000	24.814588	0.000515	20.717904
717.202462	-2.993000	3.713800	-11.115000	24.813618	0.000512	20.726415
718.200133	-3.005500	3.714300	-11.163000	24.848825	0.000513	20.705322
719.197492	-2.986600	3.714900	-11.094000	24.840337	0.000516	20.715771
720.194925	-3.016700	3.713100	-11.199000	24.849860	0.000515	20.722009
721.210938	-2.996300	3.713500	-11.126000	24.845534	0.000515	20.716245
722.196336	-2.979300	3.713800	-11.063000	24.884445	0.000514	20.728272
723.198024	-2.959900	3.714200	-10.991000	24.912970	0.000513	20.712329
724.203780	-3.010900	3.712300	-11.176000	24.931988	0.000513	20.698226
725.202786	-3.002400	3.712200	-11.145000	24.894513	0.000514	20.718935
726.197437	-2.995000	3.712500	-11.118000	24.859952	0.000511	20.708429
727.208689	-3.014100	3.712000	-11.187000	24.897079	0.000513	20.718191
728.205389	-2.997200	3.711200	-11.123000	24.890881	0.000513	20.712444
729.199212	-2.998500	3.711900	-11.128000	24.907415	0.000511	20.705331
730.206897	-3.003000	3.710800	-11.143000	24.902992	0.000513	20.724601
731.204624	-3.006600	3.711400	-11.158000	24.892925	0.000513	20.711651
732.204747	-2.997000	3.711200	-11.122000	24.932730	0.000513	20.720309
733.204206	-2.991500	3.709900	-11.097000	24.911496	0.000510	20.709901
734.203070	-3.013400	3.710300	-11.180000	24.896672	0.000513	20.723947
735.203290	-3.008100	3.709500	-11.157000	24.875991	0.000510	20.724053
736.206037	-2.996700	3.709800	-11.116000	24.935687	0.000511	20.701938
737.205424	-2.987600	3.709800	-11.083000	24.889544	0.000510	20.713948
738.200135	-3.001000	3.707600	-11.126000	24.915170	0.000511	20.694621
739.206294	-2.995100	3.709600	-11.110000	24.947741	0.000509	20.714987
740.205258	-3.025000	3.707900	-11.215000	24.943686	0.000509	20.706174
741.201360	-3.004800	3.709000	-11.144000	24.957637	0.000511	20.708798
742.206000	-2.997200	3.709500	-11.117000	24.994427	0.000509	20.697361
743.207036	-3.010400	3.709000	-11.165000	25.006807	0.000509	20.701252
744.207623	-3.006500	3.707400	-11.145000	24.942831	0.000509	20.701523
745.210270	-3.000900	3.706300	-11.121000	24.950764	0.000509	20.700002
746.209164	-3.013300	3.707400	-11.171000	24.971615	0.000508	20.706232
747.205091	-3.010100	3.707100	-11.158000	24.997817	0.000510	20.705505
748.221076	-2.991400	3.707700	-11.090000	25.034808	0.000509	20.724620
749.211192	-2.982300	3.707500	-11.056000	25.039972	0.000511	20.720794
750.207795	-2.986900	3.707400	-11.073000	25.030574	0.000508	20.708514
751.214199	-3.020900	3.706200	-11.195000	25.044835	0.000510	20.706234
752.210840	-3.009900	3.707000	-11.156000	25.044591	0.000508	20.728750
753.211404	-3.018700	3.705800	-11.186000	24.997452	0.000509	20.720312
754.215784	-3.013000	3.704900	-11.162000	24.947395	0.000508	20.692826
755.210614	-3.013700	3.705900	-11.168000	24.919075	0.000507	20.718457
756.211892	-3.002700	3.705200	-11.124000	24.952706	0.000507	20.712384
757.209910	-3.031900	3.704500	-11.230000	24.920811	0.000507	20.717828
758.210382	-3.009100	3.704800	-11.148000	24.947290	0.000507	20.726388
759.212379	-2.994600	3.705100	-11.094000	24.920925	0.000507	20.713202
760.213006	-3.002200	3.704200	-11.120000	24.935196	0.000507	20.714248
761.208874	-2.978300	3.705200	-11.034000	24.925047	0.000506	20.705484
762.221679	-2.996700	3.703500	-11.098000	24.929323	0.000506	20.719734
763.211615	-3.005700	3.703400	-11.129000	24.917090	0.000504	20.707929
764.213730	-2.969900	3.704200	-11.000000	24.910101	0.000504	20.717511
765.212294	-2.975700	3.704000	-11.021000	24.945101	0.000508	20.714233
766.210840	-3.012000	3.701900	-11.149000	24.978617	0.000505	20.731279
767.217510	-3.011900	3.701200	-11.147000	24.949059	0.000504	20.711093
768.216307	-3.029100	3.701900	-11.212000	24.924119	0.000504	20.716408
769.217433	-2.992400	3.702100	-11.077000	24.986647	0.000503	20.707096
770.213667	-2.985200	3.702800	-11.053000	24.986534	0.000503	20.716940
771.217251	-2.982200	3.701300	-11.037000	24.989344	0.000503	20.708381
772.218246	-3.025200	3.701700	-11.198000	24.964633	0.000505	20.716294
773.222201	-3.018900	3.701100	-11.172000	24.934326	0.000502	20.711953
774.222506	-3.003500	3.701100	-11.115000	24.958933	0.000504	20.706779
775.224180	-3.011200	3.701600	-11.146000	24.990012	0.000504	20.704784
776.215503	-2.998900	3.700300	-11.096000	24.976803	0.000503	20.712388
777.221016	-2.989600	3.700100	-11.062000	24.969496	0.000504	20.709321
778.222909	-2.998200	3.700400	-11.094000	24.975589	0.000502	20.696469
779.217279	-2.992800	3.700300	-11.073000	24.988563	0.000502	20.709019
780.220278	-2.991800	3.699100	-11.065000	25.037511	0.000501	20.713107
781.219324	-2.997300	3.698900	-11.085000	25.031468	0.000501	20.707041
782.222240	-3.021300	3.697900	-11.172000	25.019561	0.000501	20.724014
783.218575	-3.001900	3.699600	-11.104000	25.007598	0.000501	20.724333
784.223940	-2.990900	3.698200	-11.060000	24.982757	0.000504	20.718365
785.221663	-3.009100	3.697900	-11.126000	25.006572	0.000499	20.728519
786.224318	-2.997700	3.697700	-11.084000	25.039467	0.000501	20.733089
787.224231	-2.982500	3.697600	-11.027000	25.035761	0.000501	20.719412
788.221270	-2.996600	3.697300	-11.079000	24.987229	0.000500	20.695351
789.221749	-3.005600	3.697700	-11.113000	24.991879	0.000501	20.729419
790.223777	-2.999600	3.696900	-11.087000	25.020295	0.000498	20.717164
791.224101	-3.019900	3.696100	-11.161000	24.979818	0.000498	20.726795
792.224444	-2.997400	3.696800	-11.080000	24.994038	0.000501	20.720205
793.230723	-2.965000	3.698400	-10.964000	25.004602	0.000501	20.730335
794.225428	-2.991900	3.696200	-11.058000	25.058459	0.000498	20.733188
795.224879	-2.982900	3.695000	-11.021000	25.063175	0.000498	20.712316
796.224951	-2.976800	3.696400	-11.002000	25.088584	0.000500	20.725495
797.225383	-3.018300	3.695500	-11.153000	25.093576	0.000496	20.718652
798.222670	-3.012100	3.694100	-11.126000	25.036121	0.000496	20.732101
799.231317	-2.980200	3.695500	-11.012000	24.991539	0.000496	20.724809
800.228408	-3.014700	3.695200	-11.139000	24.983761	0.000497	20.724114
801.226080	-2.989900	3.694000	-11.044000	25.023465	0.000496	20.732200
802.230088	-2.989000	3.693600	-11.039000	25.000612	0.000498	20.722537
803.227136	-2.988700	3.695700	-11.044000	24.993551	0.000497	20.731096
804.227993	-2.983100	3.693800	-11.018000	25.009790	0.000495	20.734595
805.228338	-2.996800	3.692700	-11.066000	24.989804	0.000495	20.739190
806.227052	-2.999100	3.693100	-11.075000	25.045438	0.000495	20.726755
807.231013	-2.988200	3.693400	-11.035000	25.059690	0.000495	20.729681
808.226329	-2.994200	3.692900	-11.057000	25.032961	0.000495	20.720394
809.224487	-3.006100	3.691500	-11.096000	25.046432	0.000495	20.742926
810.227692	-2.974900	3.692400	-10.984000	25.032741	0.000496	20.733924
811.225315	-2.995600	3.691400	-11.057000	25.020981	0.000494	20.732551
812.224589	-3.006800	3.690600	-11.096000	25.025379	0.000495	20.731276
813.224824	-3.011000	3.691000	-11.113000	25.034956	0.000496	20.738045
814.227695	-2.993200	3.691000	-11.047000	25.047034	0.000495	20.722193
815.227700	-3.012400	3.691000	-11.117000	25.063297	0.000495	20.728561
816.230144	-3.020200	3.690700	-11.145000	25.068566	0.000493	20.734799
817.234339	-2.984200	3.691100	-11.014000	25.077867	0.000493	20.749825
818.229257	-2.992100	3.689300	-11.038000	25.065659	0.000495	20.735674
819.231859	-3.010400	3.688300	-11.102000	25.079406	0.000491	20.743310
820.233918	-3.023800	3.690100	-11.158000	25.068371	0.000493	20.733654
821.226272	-2.988800	3.690000	-11.028000	25.074536	0.000491	20.723247
822.231312	-2.987900	3.690200	-11.025000	25.060789	0.000492	20.740742
823.233236	-2.970000	3.689700	-10.957000	25.047171	0.000493	20.745565
824.233416	-2.979800	3.689400	-10.993000	25.020516	0.000491	20.724497
825.231241	-2.999800	3.687300	-11.060000	25.025565	0.000490	20.740946
826.235016	-2.993700	3.688600	-11.041000	25.023130	0.000491	20.755572
827.224710	-2.998300	3.687500	-11.055000	25.047888	0.000491	20.738224
828.233416	-2.993300	3.689300	-11.042000	25.058557	0.000490	20.733760
829.234643	-2.978900	3.687500	-10.984000	25.024221	0.000490	20.738649
830.231134	-3.003800	3.686300	-11.072000	25.030883	0.000489	20.749604
831.230871	-3.031000	3.686800	-11.174000	25.039704	0.000491	20.749924
832.230019	-3.000800	3.688000	-11.066000	25.032741	0.000490	20.741037
833.226359	-3.012600	3.685600	-11.103000	25.080326	0.000490	20.729534
834.225988	-3.006700	3.686000	-11.081000	25.125222	0.000488	20.753742
835.243029	-3.001400	3.686800	-11.065000	25.069927	0.000489	20.742804
836.230672	-3.030700	3.685300	-11.168000	25.049543	0.000488	20.730875
837.231198	-3.016000	3.686000	-11.115000	25.057271	0.000487	20.744324
838.237628	-3.033100	3.684300	-11.174000	25.046253	0.000488	20.746540
839.226540	-3.005800	3.685300	-11.076000	25.087967	0.000488	20.720608
840.232368	-3.025300	3.684300	-11.145000	25.097837	0.000488	20.745216
841.232666	-3.009600	3.685300	-11.091000	25.105688	0.000489	20.743140
842.230420	-2.985600	3.684500	-10.999000	25.120354	0.000489	20.739845
843.232403	-2.995300	3.683700	-11.032000	25.125127	0.000486	20.740369
844.231956	-3.018500	3.683500	-11.118000	25.104320	0.000487	20.747457
845.228812	-2.976000	3.684600	-10.964000	25.090541	0.000487	20.741685
846.236576	-2.978600	3.683800	-10.971000	25.087658	0.000487	20.726937
847.231242	-2.982100	3.684500	-10.986000	25.130674	0.000487	20.746412
848.234560	-2.987600	3.684100	-11.005000	25.141024	0.000485	20.741629
849.234871	-2.993700	3.681900	-11.022000	25.137580	0.000487	20.742439
850.231227	-2.997500	3.681800	-11.035000	25.159762	0.000486	20.752380
851.233500	-3.004800	3.682600	-11.064000	25.160154	0.000485	20.730961
852.234694	-3.010700	3.682700	-11.087000	25.175089	0.000484	20.756387
853.241513	-2.985700	3.682200	-10.993000	25.126196	0.000485	20.759935
854.234756	-3.000000	3.681900	-11.045000	25.125121	0.000484	20.751269
855.237432	-2.987400	3.682200	-10.999000	25.158037	0.000484	20.763450
856.237991	-2.989000	3.682000	-11.004000	25.162703	0.000483	20.751065
857.235506	-2.982000	3.681100	-10.977000	25.159096	0.000482	20.766885
858.239140	-3.010700	3.680900	-11.081000	25.143901	0.000485	20.748311
859.237571	-2.988000	3.680900	-10.997000	25.151825	0.000483	20.761956
860.236812	-2.988100	3.680000	-10.995000	25.193087	0.000482	20.760706
861.242309	-3.009500	3.678900	-11.071000	25.198087	0.000482	20.762880
862.239803	-2.994800	3.680600	-11.022000	25.230023	0.000480	20.754166
863.238492	-3.011500	3.678200	-11.076000	25.246130	0.000479	20.775552
864.236352	-2.993300	3.679900	-11.014000	25.248679	0.000481	20.768629
865.240674	-2.987900	3.679600	-10.993000	25.213885	0.000483	20.749817
866.235431	-2.984900	3.679000	-10.980000	25.194741	0.000482	20.771850
867.245482	-3.012300	3.677400	-11.077000	25.194839	0.000480	20.761516
868.236676	-2.998800	3.677600	-11.028000	25.211460	0.000480	20.755443
869.239279	-2.994200	3.677300	-11.010000	25.202861	0.000480	20.773837
870.241243	-3.014500	3.679000	-11.089000	25.191266	0.000482	20.765990
871.244964	-3.011400	3.678300	-11.076000	25.238600	0.000479	20.751397
872.238098	-2.989200	3.678400	-10.994000	25.259397	0.000478	20.761845
873.237987	-3.006900	3.675900	-11.051000	25.244935	0.000478	20.773405
874.239534	-2.980700	3.677600	-10.961000	25.191388	0.000479	20.782234
875.235943	-2.994000	3.675800	-11.004000	25.141593	0.000478	20.781082
876.242535	-2.983600	3.677200	-10.970000	25.115469	0.000476	20.754382
877.246705	-2.990100	3.675500	-10.989000	25.105126	0.000478	20.778139
878.242450	-2.996100	3.675100	-11.010000	25.151186	0.000479	20.775065
879.241419	-2.982100	3.676000	-10.961000	25.151651	0.000476	20.761307
880.244699	-3.020100	3.674200	-11.095000	25.166741	0.000478	20.766973
881.242228	-3.003400	3.673100	-11.031000	25.182400	0.000475	20.760408
882.239143	-3.002900	3.674900	-11.035000	25.212693	0.000478	20.791295
883.244886	-2.984500	3.674600	-10.966000	25.227757	0.000477	20.794565
884.236824	-2.969000	3.675000	-10.910000	25.219175	0.000478	20.799699
885.243316	-2.984900	3.675000	-10.969000	25.246770	0.000475	20.766712
886.240134	-2.994400	3.674400	-11.002000	25.264195	0.000474	20.771879
887.241446	-3.008900	3.672300	-11.048000	25.240477	0.000475	20.762764
888.240990	-3.024900	3.671500	-11.105000	25.186807	0.000474	20.802765
889.244986	-3.013900	3.673900	-11.072000	25.137337	0.000477	20.768275
890.241641	-3.004900	3.672900	-11.036000	25.180912	0.000477	20.798270
891.241575	-3.002200	3.671500	-11.021000	25.174846	0.000476	20.769420
892.241475	-3.009100	3.672100	-11.048000	25.148323	0.000476	20.768398
893.238792	-3.010400	3.671600	-11.052000	25.201067	0.000474	20.783890
894.241091	-2.986200	3.672900	-10.967000	25.211131	0.000473	20.797788
895.241761	-3.032800	3.671100	-11.133000	25.215781	0.000473	20.770213
896.244194	-2.998800	3.670700	-11.007000	25.252237	0.000473	20.792590
897.243122	-3.017000	3.670300	-11.072000	25.260867	0.000472	20.794616
898.242651	-3.008900	3.670900	-11.044000	25.227605	0.000471	20.783981
899.241735	-3.020800	3.670400	-11.086000	25.204155	0.000474	20.791732
900.241438	-3.009600	3.669800	-11.043000	25.232020	0.000471	20.800741
901.242625	-3.015700	3.670200	-11.067000	25.250813	0.000472	20.793530
902.243843	-3.025400	3.668900	-11.099000	25.250316	0.000470	20.778333
903.243124	-3.010400	3.668600	-11.043000	25.215181	0.000472	20.802802
904.241922	-3.002100	3.668500	-11.012000	25.213813	0.000471	20.775350
905.245599	-2.984300	3.669600	-10.949000	25.278311	0.000472	20.799328
906.241760	-3.016800	3.669000	-11.067000	25.293252	0.000470	20.797260
907.242569	-2.993100	3.668900	-10.980000	25.326302	0.000470	20.789666
908.243585	-2.976100	3.668100	-10.915000	25.321474	0.000469	20.809475
909.247143	-3.002000	3.668400	-11.012000	25.343613	0.000472	20.792349
910.261045	-3.013900	3.667600	-11.052000	25.328876	0.000468	20.804578
911.245957	-3.032500	3.666000	-11.116000	25.288980	0.000470	20.792496
912.247555	-3.002100	3.666100	-11.005000	25.232871	0.000469	20.794958
913.245559	-2.998600	3.667300	-10.996000	25.236429	0.000469	20.799478
914.250474	-2.995300	3.666600	-10.982000	25.244027	0.000469	20.794304
915.246021	-3.017000	3.666400	-11.060000	25.236723	0.000467	20.799773
916.253130	-3.009500	3.667000	-11.035000	25.219615	0.000466	20.801564
917.248328	-3.005600	3.666100	-11.018000	25.214176	0.000466	20.807956
918.249919	-2.999300	3.666000	-10.994000	25.194878	0.000469	20.803281
919.246883	-2.991300	3.666400	-10.967000	25.251999	0.000468	20.806102
920.249568	-3.009500	3.665700	-11.030000	25.289049	0.000465	20.803945
921.247541	-3.008000	3.664600	-11.023000	25.286712	0.000468	20.804443
922.245514	-2.989500	3.665600	-10.958000	25.261340	0.000466	20.825910
923.243685	-2.997100	3.663700	-10.979000	25.270777	0.000464	20.815472
924.249791	-3.013200	3.663400	-11.038000	25.276364	0.000466	20.806382
925.249784	-3.013700	3.663200	-11.039000	25.278578	0.000467	20.801967
926.250837	-2.981200	3.663700	-10.922000	25.261594	0.000464	20.814786
927.248967	-3.028100	3.663000	-11.091000	25.236669	0.000463	20.803038
928.250906	-3.033700	3.661300	-11.106000	25.214342	0.000464	20.800063
929.254348	-2.989000	3.663800	-10.950000	25.183863	0.000462	20.812138
930.251048	-2.975300	3.664500	-10.902000	25.195272	0.000464	20.808893
931.249115	-2.991400	3.660900	-10.950000	25.203227	0.000462	20.815931
932.254086	-3.011400	3.662300	-11.028000	25.219138	0.000464	20.805352
933.270722	-3.001200	3.660700	-10.985000	25.273687	0.000464	20.818867
934.251782	-3.012700	3.660100	-11.025000	25.292430	0.000461	20.799754
935.252707	-2.971300	3.660900	-10.875000	25.270129	0.000461	20.835209
936.251921	-3.003500	3.660700	-10.994000	25.306769	0.000462	20.826952
937.259338	-2.985100	3.661300	-10.929000	25.315360	0.000461	20.807603
938.250082	-2.992000	3.660900	-10.953000	25.319642	0.000461	20.844618
939.255252	-2.989800	3.661500	-10.946000	25.310865	0.000461	20.828694
940.255075	-3.005500	3.659900	-10.999000	25.321352	0.000460	20.834956
941.254692	-3.010400	3.660400	-11.018000	25.336936	0.000461	20.806981
942.251262	-3.027000	3.658500	-11.073000	25.353058	0.000459	20.823169
943.258684	-3.036200	3.657500	-11.104000	25.391454	0.000460	20.821894
944.254817	-3.004000	3.659000	-10.990000	25.401094	0.000460	20.826832
945.256833	-3.012700	3.659500	-11.024000	25.372167	0.000460	20.826235
946.263156	-3.005700	3.658000	-10.994000	25.374129	0.000460	20.830576
947.263291	-3.002600	3.659000	-10.986000	25.369358	0.000460	20.812509
948.257310	-3.005100	3.656800	-10.988000	25.344477	0.000459	20.830674
949.254179	-2.979200	3.657600	-10.895000	25.340912	0.000459	20.832784
950.257882	-3.013000	3.656300	-11.015000	25.333910	0.000458	20.846141
951.268816	-2.991800	3.658300	-10.944000	25.326581	0.000458	20.816973
952.261355	-2.988700	3.657800	-10.931000	25.316258	0.000457	20.817513
953.259763	-3.015200	3.656900	-11.026000	25.299072	0.000458	20.841508
954.260438	-3.019100	3.655400	-11.035000	25.295374	0.000456	20.824520
955.259192	-3.019400	3.655400	-11.037000	25.294073	0.000456	20.823213
956.263184	-3.009000	3.656800	-11.003000	25.297574	0.000457	20.829574
957.259455	-2.987900	3.655800	-10.922000	25.291662	0.000456	20.822690
958.264742	-2.996500	3.656400	-10.956000	25.324712	0.000456	20.822683
959.263434	-2.992900	3.656000	-10.940000	25.356481	0.000456	20.827080
960.256281	-2.975000	3.655900	-10.875000	25.356173	0.000454	20.863279
961.264012	-3.000400	3.654600	-10.964000	25.383121	0.000456	20.825380
962.266031	-3.015200	3.653800	-11.016000	25.369346	0.000455	20.830515
963.259474	-3.005400	3.654300	-10.981000	25.384579	0.000455	20.836801
964.262188	-2.996500	3.654300	-10.949000	25.381022	0.000454	20.852195
965.268377	-2.992700	3.653200	-10.932000	25.406798	0.000453	20.835878
966.261333	-3.006400	3.653400	-10.982000	25.395391	0.000452	20.838174
967.261245	-3.034000	3.652300	-11.080000	25.391061	0.000453	20.848524
968.265378	-2.991200	3.651300	-10.920000	25.352567	0.000455	20.847805
969.261981	-2.987900	3.653300	-10.914000	25.308519	0.000453	20.837244
970.263198	-2.972000	3.652500	-10.854000	25.326041	0.000451	20.860525
971.264182	-3.004300	3.651700	-10.970000	25.300263	0.000452	20.847446
972.264795	-2.999800	3.651900	-10.954000	25.300158	0.000452	20.830272
973.262367	-2.985400	3.651900	-10.901000	25.319129	0.000451	20.860697
974.270040	-3.028700	3.651200	-11.057000	25.310303	0.000451	20.845672
975.262749	-2.996600	3.651400	-10.941000	25.325610	0.000451	20.843024
976.274002	-3.007500	3.649900	-10.976000	25.322630	0.000449	20.846196
977.268519	-3.003900	3.649900	-10.962000	25.306549	0.000449	20.862766
978.268256	-3.007600	3.649800	-10.976000	25.300263	0.000449	20.841756
979.269249	-2.987900	3.648800	-10.901000	25.307837	0.000450	20.861213
980.271067	-2.979500	3.650300	-10.876000	25.341390	0.000449	20.874513
981.268836	-2.975100	3.649300	-10.856000	25.353455	0.000448	20.861024
982.277203	-2.995400	3.648900	-10.928000	25.356624	0.000449	20.858042
983.274967	-3.006900	3.648100	-10.968000	25.339183	0.000447	20.858548
984.269361	-2.993800	3.648700	-10.923000	25.323151	0.000449	20.834866
985.267702	-3.004300	3.648000	-10.959000	25.328948	0.000447	20.869133
986.276023	-3.018800	3.647500	-11.010000	25.298277	0.000444	20.855882
987.272308	-2.994800	3.647600	-10.923000	25.303789	0.000445	20.857150
988.267078	-2.986300	3.646600	-10.889000	25.316572	0.000446	20.850070
989.273758	-3.008900	3.646500	-10.971000	25.333873	0.000445	20.875026
990.271340	-2.971600	3.647500	-10.838000	25.342016	0.000445	20.864237
991.281997	-3.004200	3.645700	-10.951000	25.377440	0.000445	20.853339
992.269912	-3.014400	3.645900	-10.990000	25.409956	0.000444	20.882669
993.267215	-2.997200	3.645000	-10.924000	25.439403	0.000444	20.847755
994.271708	-3.006000	3.644100	-10.954000	25.430033	0.000444	20.872958
995.272688	-2.986100	3.645900	-10.886000	25.436822	0.000442	20.844690
996.270307	-2.982000	3.643800	-10.864000	25.443311	0.000441	20.854523
997.270749	-2.968200	3.645400	-10.819000	25.403027	0.000443	20.848686
998.271511	-2.992500	3.643400	-10.901000	25.392891	0.000441	20.856051
999.272182	-3.003700	3.643800	-10.943000	25.411453	0.000442	20.862363
1000.273053	-3.003300	3.643800	-10.942000	25.391222	0.000445	20.869074
1001.269423	-2.985400	3.644100	-10.878000	25.418211	0.000441	20.861088
1002.275441	-3.017900	3.642000	-10.990000	25.383569	0.000441	20.864234
1003.273029	-3.001900	3.641800	-10.932000	25.356237	0.000440	20.849119
1004.270931	-3.005300	3.641700	-10.944000	25.365436	0.000442	20.865942
1005.275079	-3.010700	3.641700	-10.963000	25.347646	0.000441	20.866096
1006.278227	-2.978000	3.642000	-10.845000	25.324849	0.000441	20.850794
1007.274530	-2.986700	3.642400	-10.877000	25.315558	0.000441	20.859483
1008.271795	-2.997100	3.641300	-10.913000	25.321103	0.000441	20.849878
1009.272326	-2.994200	3.642100	-10.904000	25.343697	0.000438	20.846011
1010.272417	-2.998200	3.640700	-10.914000	25.406403	0.000439	20.857292
1011.273326	-3.010500	3.639700	-10.957000	25.436005	0.000438	20.848610
1012.276328	-3.003200	3.641100	-10.934000	25.408446	0.000438	20.842748
1013.275862	-2.992000	3.640600	-10.892000	25.421367	0.000439	20.847662
1014.276771	-3.009400	3.641000	-10.956000	25.411035	0.000437	20.854356
1015.277351	-2.999000	3.640200	-10.916000	25.373625	0.000438	20.839552
1016.276308	-3.002200	3.639000	-10.924000	25.407372	0.000437	20.852575
1017.276248	-3.013700	3.637400	-10.961000	25.443168	0.000435	20.870501
1018.276605	-2.987800	3.638500	-10.870000	25.491372	0.000436	20.856319
1019.273178	-2.990100	3.638600	-10.879000	25.456113	0.000436	20.849362
1020.278408	-2.968600	3.639000	-10.802000	25.438146	0.000437	20.862613
1021.275401	-2.991500	3.638500	-10.884000	25.440188	0.000435	20.835268
1022.276883	-3.000200	3.636900	-10.910000	25.445082	0.000436	20.856776
1023.277336	-3.003500	3.637100	-10.923000	25.432836	0.000436	20.825989
1024.278300	-3.008500	3.636400	-10.938000	25.420210	0.000436	20.842707
1025.279172	-2.986000	3.636800	-10.858000	25.484125	0.000435	20.830077
1026.274013	-2.991500	3.636900	-10.879000	25.483979	0.000434	20.842257
1027.279841	-3.003200	3.637600	-10.923000	25.475895	0.000433	20.831295
1028.276735	-2.990700	3.637100	-10.876000	25.479697	0.000432	20.828475
1029.280294	-2.998200	3.636000	-10.900000	25.461339	0.000434	20.846075
1030.278268	-3.010000	3.634600	-10.939000	25.450422	0.000434	20.840803
1031.286932	-2.998000	3.633900	-10.894000	25.461853	0.000431	20.828574
1032.281227	-2.990300	3.634000	-10.865000	25.458229	0.000433	20.848642
1033.280964	-2.977000	3.635100	-10.821000	25.442102	0.000432	20.820120
1034.283081	-2.987900	3.634400	-10.859000	25.418786	0.000431	20.832742
1035.281939	-2.989700	3.632900	-10.860000	25.468495	0.000431	20.836192
1036.288417	-2.997400	3.633900	-10.891000	25.461982	0.000430	20.832497
1037.287148	-2.993900	3.633000	-10.876000	25.439122	0.000429	20.821869
1038.290741	-3.013700	3.632400	-10.945000	25.441850	0.000428	20.826031
1039.286607	-2.995500	3.633000	-10.881000	25.477963	0.000432	20.832897
1040.299476	-2.979700	3.633800	-10.826000	25.480299	0.000428	20.803950
1041.299290	-2.971500	3.633800	-10.797000	25.509647	0.000430	20.831524
1042.287358	-2.974300	3.633100	-10.805000	25.459548	0.000428	20.835268
1043.290891	-3.014900	3.631400	-10.947000	25.460191	0.000425	20.815052
1044.289958	-2.998300	3.631400	-10.887000	25.418069	0.000426	20.831074
1045.286635	-3.004300	3.630600	-10.906000	25.445155	0.000426	20.824134
1046.291747	-3.001200	3.629300	-10.891000	25.424012	0.000425	20.798162
1047.289406	-2.988900	3.630400	-10.850000	25.390811	0.000424	20.813661
1048.288394	-3.016100	3.629600	-10.946000	25.448541	0.000427	20.831327
1049.291145	-3.005200	3.629600	-10.906000	25.420430	0.000425	20.815902
1050.291408	-3.020400	3.628100	-10.958000	25.411133	0.000427	20.826480
1051.286500	-2.983500	3.628200	-10.824000	25.421944	0.000425	20.820267
1052.296593	-3.034500	3.628700	-11.011000	25.403357	0.000422	20.820095
1053.293307	-3.013200	3.628000	-10.931000	25.390713	0.000423	20.811192
1054.290150	-2.990500	3.628800	-10.851000	25.376490	0.000425	20.807343
1055.288782	-2.990400	3.627500	-10.846000	25.394711	0.000424	20.818051
1056.291288	-2.985200	3.627900	-10.829000	25.430003	0.000424	20.810342
1057.289113	-3.009000	3.627400	-10.913000	25.456120	0.000420	20.809067
1058.293892	-3.008300	3.627600	-10.912000	25.445610	0.000423	20.813212
1059.292704	-3.005500	3.626400	-10.898000	25.428619	0.000422	20.823176
1060.290435	-2.984900	3.626900	-10.825000	25.428017	0.000420	20.812141
1061.297067	-3.020900	3.626000	-10.953000	25.394067	0.000420	20.812190
1062.290127	-2.988600	3.626600	-10.837000	25.371254	0.000422	20.787386
1063.289425	-2.999200	3.625400	-10.872000	25.370285	0.000420	20.807750
1064.295020	-2.996600	3.625200	-10.861000	25.394050	0.000422	20.808853
1065.291953	-3.019400	3.623700	-10.941000	25.409129	0.000419	20.802183
1066.291206	-3.011100	3.623900	-10.912000	25.430532	0.000420	20.823201
1067.299875	-2.990900	3.624200	-10.839000	25.436002	0.000420	20.788391
1068.297906	-2.985600	3.623900	-10.818000	25.417751	0.000419	20.803729
1069.292568	-3.008300	3.623000	-10.898000	25.461395	0.000418	20.809148
1070.295376	-2.973300	3.623600	-10.773000	25.474616	0.000417	20.815786
1071.296135	-2.983500	3.624100	-10.812000	25.472035	0.000417	20.800392
1072.293209	-2.983900	3.622200	-10.807000	25.516191	0.000418	20.801586
1073.295809	-2.999800	3.623300	-10.868000	25.492460	0.000417	20.785342
1074.298447	-2.997500	3.621700	-10.855000	25.489733	0.000416	20.791138
1075.292603	-2.983500	3.621500	-10.804000	25.477694	0.000418	20.782367
1076.298653	-3.008300	3.621900	-10.895000	25.492037	0.000415	20.801039
1077.298327	-3.021200	3.619800	-10.936000	25.524787	0.000417	20.807374
1078.296007	-3.006400	3.622000	-10.887000	25.495489	0.000416	20.776530
1079.297571	-3.006500	3.621900	-10.888000	25.498941	0.000416	20.794221
1080.297174	-3.007000	3.621200	-10.888000	25.472549	0.000415	20.777675
1081.297540	-3.002800	3.620700	-10.872000	25.423466	0.000412	20.791924
1082.301271	-3.023600	3.619300	-10.942000	25.408999	0.000415	20.787829
1083.299499	-2.998800	3.619700	-10.854000	25.469464	0.000413	20.789750
1084.297383	-3.005900	3.617300	-10.872000	25.461933	0.000414	20.777920
1085.300280	-3.002900	3.618700	-10.865000	25.485794	0.000412	20.783863
1086.298212	-3.002400	3.619200	-10.866000	25.468624	0.000413	20.796494
1087.299180	-3.026900	3.617700	-10.949000	25.479509	0.000413	20.788457
1088.298525	-3.008100	3.618100	-10.882000	25.458090	0.000412	20.783070
1089.307019	-3.028500	3.616400	-10.950000	25.478516	0.000412	20.784141
1090.299006	-3.001700	3.617400	-10.857000	25.499315	0.000410	20.791278
1091.299183	-2.993700	3.617800	-10.830000	25.516288	0.000410	20.807849
1092.303696	-3.001900	3.616400	-10.855000	25.584822	0.000410	20.799388
1093.302157	-2.995800	3.617400	-10.836000	25.581199	0.000410	20.796223
1094.304253	-2.997400	3.615500	-10.836000	25.612838	0.000409	20.791015
1095.298631	-3.007100	3.616300	-10.873000	25.546985	0.000408	20.769449
1096.300072	-2.980300	3.616100	-10.776000	25.515425	0.000410	20.785644
1097.306686	-3.003300	3.613900	-10.852000	25.456128	0.000408	20.752649
1098.305276	-2.992500	3.615100	-10.816000	25.457422	0.000409	20.784770
1099.299522	-2.991000	3.614100	-10.809000	25.455117	0.000408	20.781033
1100.303176	-2.990300	3.613900	-10.805000	25.452529	0.000407	20.791236
1101.303422	-2.995900	3.613500	-10.825000	25.443256	0.000406	20.787615
1102.302794	-3.014500	3.613600	-10.893000	25.459709	0.000407	20.767626
1103.307803	-2.997600	3.613700	-10.832000	25.443662	0.000405	20.778539
1104.302366	-2.978400	3.614000	-10.762000	25.449923	0.000406	20.781507
1105.301216	-2.992900	3.613800	-10.815000	25.472343	0.000406	20.786477
1106.305537	-2.974300	3.612400	-10.744000	25.463396	0.000404	20.766113
1107.305210	-2.992700	3.612700	-10.811000	25.500967	0.000404	20.787720
1108.302868	-2.996100	3.612600	-10.823000	25.485882	0.000404	20.768304
1109.308249	-2.998000	3.611700	-10.827000	25.500323	0.000406	20.806040
1110.309513	-2.994900	3.610700	-10.813000	25.518615	0.000405	20.781736
1111.305482	-3.008100	3.610600	-10.859000	25.509098	0.000403	20.778817
1112.312221	-2.976100	3.610700	-10.745000	25.506608	0.000405	20.765410
1113.308291	-2.992400	3.611100	-10.805000	25.571918	0.000404	20.762720
1114.302135	-2.993400	3.609200	-10.803000	25.561954	0.000402	20.747497
1115.310958	-3.010500	3.610900	-10.870000	25.529222	0.000401	20.750662
1116.309404	-2.997700	3.610400	-10.822000	25.518884	0.000401	20.755927
1117.308205	-2.992600	3.608500	-10.799000	25.500502	0.000402	20.760700
1118.308384	-3.009400	3.609300	-10.861000	25.520479	0.000403	20.757055
1119.307291	-3.016900	3.608300	-10.884000	25.518664	0.000400	20.769457
1120.306578	-2.997400	3.608600	-10.816000	25.548287	0.000400	20.770756
1121.313397	-3.006100	3.608600	-10.846000	25.556306	0.000400	20.774542
1122.306690	-2.987800	3.609000	-10.782000	25.497987	0.000401	20.733044
1123.310887	-2.979500	3.607800	-10.749000	25.442889	0.000398	20.763064
1124.308851	-3.004500	3.606200	-10.833000	25.481437	0.000400	20.765737
1125.309252	-3.001000	3.606000	-10.820000	25.490082	0.000399	20.770626
1126.310656	-2.986100	3.607400	-10.771000	25.468118	0.000398	20.753310
1127.309767	-3.002400	3.605400	-10.824000	25.496791	0.000397	20.772621
1128.312928	-2.998000	3.606200	-10.811000	25.489341	0.000396	20.766088
1129.305525	-2.980500	3.605900	-10.747000	25.497791	0.000398	20.755607
1130.310440	-2.989500	3.606300	-10.780000	25.485304	0.000397	20.744964
1131.313183	-3.002600	3.605400	-10.824000	25.487029	0.000395	20.757128
1132.310321	-3.017100	3.603800	-10.872000	25.506111	0.000398	20.769179
1133.308430	-2.977900	3.604100	-10.732000	25.552015	0.000398	20.758379
1134.321192	-3.004100	3.602900	-10.822000	25.568190	0.000396	20.767511
1135.313849	-3.011700	3.603000	-10.850000	25.546944	0.000395	20.777942
1136.312752	-3.017300	3.603400	-10.871000	25.521277	0.000394	20.741259
1137.317808	-3.015500	3.602600	-10.862000	25.529247	0.000396	20.748316
1138.308796	-3.000500	3.602800	-10.809000	25.498190	0.000393	20.733248
1139.312443	-2.991700	3.603000	-10.778000	25.480989	0.000392	20.757226
1140.310852	-3.001500	3.602900	-10.813000	25.482349	0.000395	20.751006
1141.314019	-2.995700	3.600900	-10.786000	25.451071	0.000394	20.754209
1142.317086	-3.003300	3.601200	-10.814000	25.525966	0.000392	20.753556
1143.313507	-3.005300	3.601700	-10.824000	25.540302	0.000392	20.751357
1144.314174	-2.992600	3.601000	-10.775000	25.520741	0.000391	20.745937
1145.314175	-2.997400	3.601500	-10.794000	25.503271	0.000392	20.758740
1146.315328	-3.021000	3.599200	-10.872000	25.521741	0.000391	20.755003
1147.310768	-2.998600	3.600700	-10.796000	25.521759	0.000390	20.749804
1148.314920	-2.995000	3.600800	-10.784000	25.516044	0.000389	20.751178
1149.313883	-3.002900	3.598900	-10.806000	25.493380	0.000391	20.740272
1150.315142	-2.978100	3.600300	-10.720000	25.489750	0.000390	20.743264
1151.316153	-3.023000	3.597100	-10.873000	25.505803	0.000388	20.746584
1152.316103	-3.002700	3.598200	-10.802000	25.493006	0.000389	20.735628
1153.315836	-2.999600	3.596400	-10.787000	25.531414	0.000390	20.742906
1154.316906	-2.988800	3.597200	-10.751000	25.584993	0.000389	20.757833
1155.320903	-3.006900	3.596700	-10.815000	25.541924	0.000389	20.724061
1156.313566	-2.991500	3.598300	-10.763000	25.552115	0.000387	20.746151
1157.318166	-3.013600	3.595200	-10.834000	25.559792	0.000386	20.742481
1158.316559	-3.006700	3.596300	-10.812000	25.576243	0.000385	20.747149
1159.323390	-2.999300	3.597200	-10.788000	25.555672	0.000385	20.744033
1160.321514	-3.008600	3.595600	-10.818000	25.560239	0.000387	20.743879
1161.321720	-3.025700	3.594900	-10.876000	25.536080	0.000385	20.750910
1162.323903	-2.999700	3.595300	-10.784000	25.496989	0.000387	20.744844
1163.324910	-3.004000	3.593900	-10.796000	25.518065	0.000383	20.732818
1164.322722	-3.016400	3.594200	-10.841000	25.547558	0.000385	20.726875
1165.321840	-2.987700	3.594300	-10.738000	25.527403	0.000382	20.735083
1166.324058	-2.994100	3.595100	-10.763000	25.558197	0.000385	20.755104
1167.321984	-2.993500	3.594500	-10.759000	25.528525	0.000385	20.747117
1168.327136	-2.987700	3.594500	-10.738000	25.520198	0.000386	20.739702
1169.329015	-2.980800	3.593900	-10.712000	25.502851	0.000384	20.743618
1170.325474	-3.010000	3.591400	-10.810000	25.486797	0.000383	20.741722
1171.326501	-3.025400	3.591900	-10.866000	25.511129	0.000381	20.747190
1172.321701	-3.017300	3.592500	-10.839000	25.500766	0.000381	20.721609
1173.325732	-3.024000	3.590300	-10.856000	25.559484	0.000381	20.740749
1174.328309	-2.977700	3.591000	-10.692000	25.511822	0.000382	20.724651
1175.323239	-2.983800	3.591500	-10.716000	25.486870	0.000381	20.762659
1176.323955	-3.014400	3.590900	-10.823000	25.519002	0.000381	20.718585
1177.327857	-3.008200	3.590400	-10.800000	25.541616	0.000380	20.714268
1178.328413	-2.996200	3.590800	-10.757000	25.522356	0.000381	20.712944
1179.325272	-2.995500	3.589200	-10.750000	25.506229	0.000380	20.745114
1180.329452	-2.995000	3.590800	-10.754000	25.518211	0.000379	20.742449
1181.326254	-2.992400	3.589100	-10.739000	25.490078	0.000379	20.731739
1182.328803	-3.004300	3.589400	-10.782000	25.522649	0.000380	20.728887
1183.329983	-3.015600	3.587600	-10.818000	25.519131	0.000378	20.732941
1184.325561	-3.006300	3.588000	-10.786000	25.528151	0.000377	20.713548
1185.327468	-3.004700	3.588100	-10.779000	25.554437	0.000376	20.724300
1186.329089	-3.022300	3.586900	-10.839000	25.560949	0.000380	20.735108
1187.327100	-2.989000	3.588000	-10.724000	25.594201	0.000377	20.732466
1188.326777	-2.973100	3.586900	-10.663000	25.552076	0.000376	20.729516
1189.329235	-2.979200	3.587700	-10.688000	25.522957	0.000376	20.749586
1190.326886	-2.970800	3.587800	-10.658000	25.552597	0.000377	20.715814
1191.329731	-3.018400	3.585600	-10.820000	25.547705	0.000375	20.725125
1192.330755	-2.989200	3.586300	-10.720000	25.602699	0.000375	20.715870
1193.329315	-2.998800	3.584900	-10.749000	25.617611	0.000375	20.723260
1194.328539	-3.002800	3.584700	-10.764000	25.607567	0.000375	20.725975
1195.331155	-3.005500	3.584800	-10.773000	25.532873	0.000372	20.741051
1196.327779	-3.024000	3.585400	-10.841000	25.525189	0.000375	20.717686
1197.332558	-3.028100	3.583900	-10.851000	25.524146	0.000374	20.730865
1198.332957	-3.013400	3.583900	-10.799000	25.505578	0.000372	20.716484
1199.326670	-3.015500	3.583200	-10.804000	25.475465	0.000371	20.717064
1200.328761	-3.011200	3.583200	-10.788000	25.486293	0.000374	20.723671
1201.332274	-2.986300	3.584300	-10.703000	25.470981	0.000372	20.705448
1202.331302	-2.986500	3.583000	-10.699000	25.455374	0.000371	20.702578
1203.332786	-2.989100	3.583000	-10.709000	25.504595	0.000371	20.735887
1204.338121	-2.985200	3.583700	-10.697000	25.562669	0.000372	20.722610
1205.331557	-2.987700	3.581900	-10.701000	25.609857	0.000370	20.700772
1206.347826	-2.982800	3.582600	-10.685000	25.627342	0.000370	20.724973
1207.338095	-3.001800	3.581900	-10.752000	25.649027	0.000370	20.698861
1208.335200	-2.992600	3.582500	-10.720000	25.670719	0.000370	20.715907
1209.338141	-3.002200	3.581400	-10.751000	25.658021	0.000370	20.705524
1210.335133	-3.017800	3.580100	-10.803000	25.673113	0.000368	20.719735
1211.339043	-2.989300	3.580100	-10.701000	25.674904	0.000368	20.726276
1212.339080	-2.994200	3.579700	-10.718000	25.702781	0.000369	20.724878
1213.341223	-3.012300	3.578200	-10.778000	25.657601	0.000367	20.704154
1214.334473	-2.991600	3.578700	-10.705000	25.614461	0.000366	20.701603
1215.339596	-3.003100	3.578700	-10.747000	25.570823	0.000367	20.705193
1216.345208	-3.022600	3.577000	-10.811000	25.552826	0.000367	20.720311
1217.338479	-3.007300	3.577200	-10.757000	25.547706	0.000364	20.718962
1218.349886	-2.999100	3.577400	-10.728000	25.550937	0.000366	20.723156
1219.344682	-3.002900	3.577000	-10.741000	25.556295	0.000365	20.714785
1220.341873	-3.004700	3.576400	-10.745000	25.555571	0.000364	20.721171
1221.340620	-3.014300	3.577400	-10.783000	25.565982	0.000365	20.717402
1222.343912	-3.024500	3.576200	-10.815000	25.488347	0.000365	20.716250
1223.338471	-2.978200	3.576600	-10.651000	25.507730	0.000366	20.733345
1224.345583	-3.023200	3.575300	-10.809000	25.480110	0.000362	20.746386
1225.345292	-3.000400	3.575200	-10.726000	25.487948	0.000364	20.723910
1226.341700	-3.008100	3.574700	-10.752000	25.491246	0.000362	20.729119
1227.344970	-3.014300	3.575200	-10.776000	25.540546	0.000363	20.731687
1228.345380	-2.973400	3.575900	-10.632000	25.600377	0.000363	20.712589
1229.338525	-3.012000	3.574000	-10.764000	25.596991	0.000363	20.731950
1230.339340	-2.998700	3.575200	-10.720000	25.591773	0.000361	20.744728
1231.348424	-3.003900	3.573600	-10.733000	25.602412	0.000362	20.708943
1232.341040	-3.004900	3.573500	-10.737000	25.637617	0.000360	20.733871
1233.343394	-2.987400	3.572700	-10.672000	25.672031	0.000360	20.740460
1234.343179	-2.985900	3.574000	-10.671000	25.654808	0.000361	20.719842
1235.342577	-3.001900	3.571900	-10.721000	25.680227	0.000360	20.697956
1236.343951	-2.998300	3.573400	-10.714000	25.678227	0.000359	20.726294
1237.345322	-3.006900	3.572100	-10.740000	25.640687	0.000359	20.724626
1238.345092	-3.024100	3.570000	-10.795000	25.610147	0.000357	20.726196
1239.340991	-2.990000	3.573000	-10.682000	25.590986	0.000358	20.720228
1240.346642	-2.980900	3.571100	-10.645000	25.615088	0.000357	20.715511
1241.344188	-2.996600	3.569000	-10.693000	25.593591	0.000357	20.721896
1242.345848	-2.997200	3.570000	-10.699000	25.585842	0.000358	20.728338
1243.345004	-3.005400	3.570700	-10.731000	25.548333	0.000357	20.725756
1244.344565	-3.004600	3.568900	-10.723000	25.556978	0.000356	20.742026
1245.346596	-2.991300	3.570200	-10.678000	25.555244	0.000355	20.730800
1246.345402	-2.994000	3.568900	-10.685000	25.571338	0.000356	20.727997
1247.345582	-3.020800	3.566900	-10.773000	25.532696	0.000358	20.706733
1248.348350	-3.011600	3.566800	-10.741000	25.576703	0.000355	20.713469
1249.349690	-3.008200	3.566500	-10.727000	25.606828	0.000355	20.720017
1250.345373	-3.003100	3.566600	-10.710000	25.609150	0.000354	20.729462
1251.351644	-3.015300	3.567500	-10.756000	25.583190	0.000355	20.740849
1252.347911	-2.994500	3.567200	-10.680000	25.554985	0.000354	20.735282
1253.345164	-3.032900	3.566100	-10.814000	25.547277	0.000353	20.730860
1254.350749	-3.012300	3.566500	-10.743000	25.525705	0.000354	20.738594
1255.350076	-3.014200	3.566000	-10.747000	25.528286	0.000354	20.724590
1256.349836	-2.998700	3.565200	-10.690000	25.545780	0.000355	20.724140
1257.353733	-2.996400	3.565500	-10.682000	25.536427	0.000352	20.756475
1258.352794	-3.029500	3.563800	-10.795000	25.500845	0.000353	20.746346
1259.348752	-3.011300	3.564100	-10.732000	25.508969	0.000352	20.745496
1260.349395	-2.999700	3.565100	-10.693000	25.581231	0.000351	20.768280
1261.350728	-2.991300	3.565400	-10.664000	25.562982	0.000352	20.722450
1262.349089	-2.988900	3.564800	-10.654000	25.561615	0.000350	20.733406
1263.354827	-2.992400	3.563800	-10.664000	25.553564	0.000350	20.738123
1264.355640	-2.992500	3.564400	-10.666000	25.527638	0.000351	20.732949
1265.350707	-3.001900	3.564100	-10.698000	25.533825	0.000350	20.732998
1266.353475	-2.982900	3.562700	-10.627000	25.529324	0.000348	20.750289
1267.350264	-2.983000	3.563000	-10.627000	25.521647	0.000348	20.743054
1268.353549	-2.989700	3.563400	-10.652000	25.514257	0.000348	20.731839
1269.354314	-2.982800	3.562600	-10.626000	25.547307	0.000348	20.721407
1270.350935	-2.991100	3.562200	-10.654000	25.593160	0.000349	20.720989
1271.353300	-3.058000	3.560400	-10.887000	25.587382	0.000348	20.730834
1272.350469	-3.002700	3.561000	-10.692000	25.593625	0.000347	20.752277
1273.353984	-2.993900	3.561500	-10.661000	25.601553	0.000346	20.734160
1274.353373	-2.990800	3.561500	-10.650000	25.633324	0.000346	20.721498
1275.352447	-3.022900	3.560100	-10.761000	25.589865	0.000346	20.748501
1276.355639	-2.971200	3.559300	-10.574000	25.589165	0.000344	20.741160
1277.354419	-3.021900	3.558300	-10.752000	25.580440	0.000346	20.725284
1278.354739	-2.963600	3.561300	-10.553000	25.599870	0.000344	20.737686
1279.351135	-3.012000	3.557400	-10.713000	25.620073	0.000345	20.745175
1280.355536	-2.988000	3.558400	-10.631000	25.546446	0.000344	20.751364
1281.355573	-2.993900	3.556600	-10.647000	25.547954	0.000348	20.729643
1282.358351	-3.000400	3.557000	-10.671000	25.532128	0.000343	20.736035
1283.355963	-2.990800	3.557000	-10.638000	25.513683	0.000344	20.744539
1284.355618	-2.965400	3.557100	-10.546000	25.579156	0.000341	20.750074
1285.356832	-3.008700	3.556700	-10.700000	25.571113	0.000344	20.732987
1286.353751	-3.019400	3.556400	-10.738000	25.566010	0.000342	20.736871
1287.353986	-2.998700	3.555100	-10.660000	25.542900	0.000342	20.749699
1288.358317	-3.005600	3.554600	-10.682000	25.572035	0.000342	20.732491
1289.359041	-2.990200	3.555600	-10.631000	25.570374	0.000342	20.748367
1290.355258	-3.005400	3.553900	-10.680000	25.569699	0.000339	20.737257
1291.358197	-2.994500	3.555600	-10.647000	25.575634	0.000341	20.736579
1292.359329	-3.000100	3.553500	-10.660000	25.642520	0.000342	20.762030
1293.358843	-2.997100	3.554500	-10.652000	25.680060	0.000339	20.751370
1294.361077	-2.984400	3.554900	-10.608000	25.662446	0.000338	20.763077
1295.360419	-2.992400	3.554900	-10.637000	25.650245	0.000340	20.748451
1296.362128	-3.017800	3.553500	-10.722000	25.642114	0.000340	20.760674
1297.358713	-2.981500	3.552600	-10.591000	25.677171	0.000339	20.757952
1298.360083	-2.970500	3.551700	-10.550000	25.663505	0.000339	20.759399
1299.357099	-3.004300	3.552600	-10.671000	25.679182	0.000338	20.756652
1300.362914	-2.987600	3.552900	-10.613000	25.606430	0.000337	20.758974
1301.359672	-2.991700	3.551500	-10.624000	25.588587	0.000337	20.747218
1302.361041	-2.984400	3.550300	-10.594000	25.579414	0.000337	20.768826
1303.365739	-3.026700	3.549600	-10.742000	25.620593	0.000337	20.759448
1304.362223	-3.017500	3.550400	-10.712000	25.673444	0.000337	20.767485
1305.362996	-3.013800	3.549300	-10.696000	25.682406	0.000338	20.771271
1306.371234	-2.993600	3.550200	-10.627000	25.722427	0.000337	20.758363
1307.362708	-2.997900	3.550200	-10.642000	25.753989	0.000337	20.751184
1308.366640	-3.022600	3.549200	-10.727000	25.749464	0.000338	20.768450
1309.362914	-3.006000	3.548100	-10.665000	25.719651	0.000334	20.747513
1310.363815	-2.995500	3.548300	-10.629000	25.704122	0.000335	20.765107
1311.364540	-2.982500	3.550300	-10.588000	25.718584	0.000333	20.781056
1312.371261	-2.988300	3.547700	-10.601000	25.723029	0.000333	20.775563
1313.364265	-2.975400	3.547900	-10.555000	25.708199	0.000334	20.777737
1314.359432	-2.988700	3.547200	-10.601000	25.697114	0.000332	20.762335
1315.361871	-2.981100	3.548300	-10.577000	25.630305	0.000333	20.774892
1316.364064	-3.010400	3.545500	-10.673000	25.583296	0.000330	20.752810
1317.362927	-2.988100	3.547500	-10.599000	25.566495	0.000332	20.774344
1318.368271	-3.008500	3.546600	-10.669000	25.521666	0.000331	20.758721
1319.366175	-3.034200	3.546200	-10.758000	25.531183	0.000330	20.762114
1320.366116	-3.019700	3.545000	-10.703000	25.505557	0.000329	20.774787
1321.364057	-3.008100	3.545800	-10.666000	25.501087	0.000330	20.760814
1322.367092	-3.018700	3.544400	-10.699000	25.540577	0.000330	20.761591
1323.368196	-2.999700	3.545200	-10.633000	25.569573	0.000330	20.758468
1324.364160	-3.018400	3.544500	-10.698000	25.635823	0.000330	20.774744
1325.370048	-2.984700	3.544500	-10.578000	25.691481	0.000331	20.770902
1326.365539	-3.007700	3.544100	-10.658000	25.708751	0.000330	20.788723
1327.376038	-2.981000	3.542700	-10.560000	25.721620	0.000327	20.770828
1328.369762	-2.988900	3.542800	-10.588000	25.731330	0.000328	20.758770
1329.370697	-2.964300	3.544500	-10.507000	25.763283	0.000327	20.754355
1330.370340	-2.984800	3.542100	-10.572000	25.701321	0.000329	20.755181
1331.371861	-2.987600	3.543200	-10.585000	25.704950	0.000329	20.773526
1332.373523	-3.026100	3.539900	-10.712000	25.727218	0.000329	20.773132
1333.373404	-2.991600	3.541300	-10.593000	25.678392	0.000326	20.776722
1334.373188	-3.006600	3.539500	-10.641000	25.684431	0.000326	20.769985
1335.373506	-2.991000	3.541100	-10.590000	25.664929	0.000325	20.772209
1336.374043	-2.994900	3.541500	-10.605000	25.656903	0.000326	20.782166
1337.375133	-3.030500	3.538500	-10.722000	25.630833	0.000327	20.774474
1338.374524	-2.989600	3.539700	-10.581000	25.648308	0.000324	20.782542
1339.374983	-2.990200	3.539600	-10.584000	25.640852	0.000325	20.793072
1340.374170	-3.011400	3.537800	-10.653000	25.656162	0.000325	20.778102
1341.374499	-3.032500	3.537200	-10.725000	25.623685	0.000323	20.783417
1342.374666	-3.000800	3.537600	-10.614000	25.622447	0.000323	20.784544
1343.374494	-2.993800	3.538000	-10.592000	25.663789	0.000324	20.775805
1344.377382	-3.007700	3.536400	-10.635000	25.716987	0.000323	20.800788
1345.375929	-3.007100	3.537700	-10.637000	25.696632	0.000322	20.772757
1346.376687	-3.033600	3.537000	-10.729000	25.723368	0.000323	20.790129
1347.375631	-2.978700	3.537900	-10.538000	25.699545	0.000322	20.796071
1348.376167	-3.024600	3.535800	-10.693000	25.685505	0.000322	20.787185
1349.380179	-3.013600	3.535500	-10.654000	25.718550	0.000321	20.774857
1350.376311	-3.003800	3.535600	-10.620000	25.690844	0.000321	20.798712
1351.376644	-3.009700	3.535100	-10.638000	25.679147	0.000322	20.784593
1352.379115	-3.009700	3.533800	-10.634000	25.716766	0.000321	20.785868
1353.372757	-2.997000	3.533900	-10.590000	25.648818	0.000320	20.801547
1354.373244	-2.994400	3.534500	-10.583000	25.664146	0.000317	20.777586
1355.375604	-3.008200	3.533300	-10.627000	25.720574	0.000320	20.784003
1356.379199	-3.003800	3.532800	-10.611000	25.711158	0.000320	20.780235
1357.376545	-3.017600	3.532500	-10.659000	25.656330	0.000320	20.787280
1358.382008	-3.008900	3.533000	-10.630000	25.657666	0.000316	20.776294
1359.377881	-2.991700	3.532700	-10.568000	25.644227	0.000318	20.789349
1360.379958	-3.014100	3.531100	-10.642000	25.686218	0.000316	20.804497
1361.383776	-3.005400	3.532200	-10.615000	25.667188	0.000317	20.801505
1362.376483	-2.993600	3.532200	-10.573000	25.676238	0.000319	20.780249
1363.378456	-3.028500	3.530100	-10.690000	25.676158	0.000318	20.809091
1364.379735	-3.001600	3.531000	-10.598000	25.697303	0.000315	20.802355
1365.380199	-3.007300	3.529100	-10.612000	25.722550	0.000316	20.803058
1366.386188	-2.989200	3.529600	-10.550000	25.779766	0.000317	20.806949
1367.384058	-2.986300	3.530100	-10.541000	25.748041	0.000314	20.808273
1368.380105	-2.982100	3.529300	-10.523000	25.738454	0.000316	20.804807
1369.379723	-2.999700	3.528600	-10.584000	25.688887	0.000315	20.796746
1370.386148	-3.011000	3.528600	-10.623000	25.740520	0.000315	20.802141
1371.378695	-2.998300	3.529000	-10.579000	25.729908	0.000313	20.800490
1372.380731	-3.011600	3.527000	-10.621000	25.681064	0.000313	20.806433
1373.385468	-3.022500	3.527100	-10.660000	25.620042	0.000314	20.793034
1374.383866	-2.997400	3.528000	-10.573000	25.653438	0.000315	20.811403
1375.378728	-3.005900	3.527300	-10.602000	25.683848	0.000314	20.798797
1376.397519	-2.998300	3.526700	-10.573000	25.663751	0.000312	20.788570
1377.382273	-3.010100	3.526300	-10.613000	25.659128	0.000312	20.797677
1378.386068	-2.996800	3.527900	-10.571000	25.698440	0.000312	20.815825
1379.386105	-3.008200	3.525800	-10.605000	25.713644	0.000312	20.805966
1380.382380	-2.991500	3.525000	-10.544000	25.719414	0.000311	20.823615
1381.386862	-3.018600	3.523600	-10.635000	25.682145	0.000311	20.808941
1382.384383	-2.996600	3.525400	-10.563000	25.719016	0.000310	20.810413
1383.383374	-3.026100	3.524600	-10.665000	25.704528	0.000309	20.813405
1384.388731	-3.009300	3.524600	-10.606000	25.702175	0.000308	20.800610
1385.387534	-3.011700	3.523200	-10.610000	25.723491	0.000309	20.824865
1386.382974	-3.012600	3.523800	-10.615000	25.726974	0.000308	20.823622
1387.398881	-3.019500	3.523000	-10.637000	25.740014	0.000308	20.813960
1388.388555	-3.005500	3.523700	-10.590000	25.739475	0.000309	20.811523
1389.388769	-2.986800	3.523800	-10.524000	25.713641	0.000307	20.818765
1390.392652	-2.977000	3.524600	-10.492000	25.703151	0.000309	20.824349
1391.392742	-2.998600	3.522800	-10.562000	25.741664	0.000309	20.813721
1392.389078	-3.005300	3.521300	-10.581000	25.779012	0.000307	20.821838
1393.388977	-2.987600	3.522100	-10.522000	25.807830	0.000309	20.832768
1394.394590	-2.991600	3.521100	-10.533000	25.830284	0.000304	20.806012
1395.389484	-2.986600	3.520800	-10.513000	25.864552	0.000307	20.814357
1396.389354	-2.992600	3.520300	-10.534000	25.810865	0.000307	20.817325
1397.395192	-2.988800	3.519900	-10.519000	25.839463	0.000305	20.838465
1398.391436	-2.996900	3.521000	-10.551000	25.848284	0.000305	20.812714
1399.394444	-3.004200	3.520800	-10.576000	25.865993	0.000305	20.819123
1400.390374	-2.991700	3.517800	-10.524000	25.868035	0.000305	20.833028
1401.391762	-2.989400	3.518800	-10.518000	25.869671	0.000303	20.837042
1402.389201	-2.994800	3.518100	-10.534000	25.843417	0.000303	20.836747
1403.391787	-3.020500	3.517500	-10.623000	25.823715	0.000301	20.834974
1404.387342	-3.002600	3.518100	-10.563000	25.827149	0.000302	20.844587
1405.391568	-3.010100	3.517500	-10.587000	25.816887	0.000302	20.826692
1406.404920	-3.014700	3.516600	-10.600000	25.724961	0.000304	20.833927
1407.390816	-3.011800	3.516700	-10.590000	25.714323	0.000303	20.833674
1408.390893	-2.999800	3.516700	-10.548000	25.694594	0.000300	20.829979
1409.393739	-2.996100	3.515000	-10.531000	25.745389	0.000300	20.842118
1410.394807	-2.985700	3.515700	-10.496000	25.769512	0.000302	20.841693
1411.390261	-2.991700	3.516000	-10.517000	25.776537	0.000301	20.837369
1412.390548	-2.987800	3.515100	-10.502000	25.785904	0.000303	20.830183
1413.391502	-3.011400	3.513200	-10.578000	25.763718	0.000299	20.855312
1414.393761	-2.995700	3.514200	-10.527000	25.741248	0.000299	20.845071
1415.393583	-2.991200	3.514600	-10.512000	25.757826	0.000301	20.832800
1416.396585	-2.964400	3.514000	-10.416000	25.764515	0.000300	20.829562
1417.389535	-3.003500	3.513900	-10.553000	25.744902	0.000298	20.841155
1418.394663	-3.006400	3.513700	-10.561000	25.730423	0.000300	20.842258
1419.394736	-2.988000	3.512800	-10.495000	25.727160	0.000299	20.837084
1420.393798	-3.007600	3.512300	-10.562000	25.743640	0.000300	20.827560
1421.393642	-3.002000	3.511200	-10.540000	25.745797	0.000297	20.843951
1422.392606	-3.005300	3.511400	-10.552000	25.752088	0.000298	20.865915
1423.397902	-2.999600	3.511500	-10.532000	25.764736	0.000296	20.823145
1424.394792	-2.985700	3.511000	-10.482000	25.812631	0.000296	20.850866
1425.395673	-3.012900	3.511400	-10.578000	25.788648	0.000296	20.856647
1426.392884	-2.998300	3.508800	-10.519000	25.784530	0.000297	20.853458
1427.397124	-2.990200	3.509400	-10.493000	25.814593	0.000297	20.857578
1428.399007	-3.009900	3.508200	-10.558000	25.819858	0.000296	20.826832
1429.396560	-3.022100	3.509000	-10.604000	25.726989	0.000298	20.864886
1430.396676	-3.007900	3.508700	-10.553000	25.733262	0.000295	20.841317
1431.403374	-2.998200	3.508800	-10.519000	25.718614	0.000294	20.850785
1432.397568	-3.008000	3.508000	-10.552000	25.743283	0.000296	20.871770
1433.398875	-3.011100	3.507600	-10.561000	25.715830	0.000293	20.865058
1434.399463	-3.006000	3.507400	-10.542000	25.688377	0.000292	20.837485
1435.395513	-3.013500	3.508000	-10.571000	25.672798	0.000294	20.834640
1436.393251	-2.993000	3.509000	-10.502000	25.754620	0.000294	20.834795
1437.399744	-2.986600	3.507100	-10.473000	25.751560	0.000294	20.858747
1438.400893	-2.976600	3.508300	-10.441000	25.757249	0.000292	20.866358
1439.401022	-2.988800	3.506400	-10.478000	25.763435	0.000291	20.858347
1440.402232	-3.003900	3.506400	-10.531000	25.801264	0.000292	20.855094
1441.397657	-2.983800	3.507300	-10.464000	25.858458	0.000290	20.861813
1442.395857	-2.985200	3.504700	-10.461000	25.865685	0.000292	20.857219
1443.399994	-3.006600	3.504600	-10.536000	25.873310	0.000290	20.854922
1444.397812	-3.009100	3.504700	-10.545000	25.827257	0.000291	20.872195
1445.396667	-2.994100	3.504300	-10.492000	25.768798	0.000289	20.887914
1446.398004	-3.019500	3.504200	-10.580000	25.721187	0.000290	20.865223
1447.397795	-2.989500	3.504100	-10.474000	25.660167	0.000289	20.874583
1448.399764	-2.983200	3.503500	-10.451000	25.683128	0.000288	20.873462
1449.402419	-2.994400	3.503700	-10.490000	25.666703	0.000287	20.855544
1450.402694	-2.981100	3.503700	-10.444000	25.708693	0.000289	20.845562
1451.400140	-3.014100	3.501600	-10.553000	25.747598	0.000288	20.862828
1452.403167	-3.010400	3.501600	-10.540000	25.822749	0.000287	20.865297
1453.399836	-3.002100	3.501000	-10.509000	25.804089	0.000286	20.845130
1454.404048	-2.994900	3.501000	-10.484000	25.801932	0.000285	20.860506
1455.407730	-3.010400	3.501100	-10.539000	25.805585	0.000289	20.842366
1456.402779	-3.007800	3.500100	-10.526000	25.790106	0.000288	20.851473
1457.401939	-2.974300	3.501000	-10.412000	25.821131	0.000285	20.846602
1458.406468	-2.972600	3.499900	-10.403000	25.818575	0.000283	20.866319
1459.405277	-2.989000	3.498900	-10.457000	25.803641	0.000285	20.841836
1460.406494	-2.976500	3.500400	-10.418000	25.838197	0.000285	20.832451
1461.406526	-2.999500	3.498500	-10.493000	25.830221	0.000284	20.841509
1462.409184	-3.018000	3.497900	-10.556000	25.824802	0.000284	20.833695
1463.407148	-3.019200	3.498000	-10.560000	25.826071	0.000285	20.840659
1464.415450	-2.987800	3.497000	-10.447000	25.834323	0.000283	20.827612
1465.406568	-3.002600	3.497400	-10.500000	25.834917	0.000283	20.835321
1466.403574	-3.014900	3.496900	-10.542000	25.817176	0.000283	20.842155
1467.412403	-3.016100	3.495400	-10.542000	25.822075	0.000283	20.841386
1468.405893	-3.004600	3.497000	-10.505000	25.796138	0.000285	20.848523
1469.409166	-2.998700	3.496400	-10.484000	25.815928	0.000284	20.836161
1470.409242	-2.987900	3.495300	-10.443000	25.803624	0.000283	20.831862
1471.406622	-3.011400	3.495200	-10.524000	25.761263	0.000283	20.825347
1472.409760	-3.013200	3.496200	-10.534000	25.776442	0.000279	20.830636
1473.406998	-2.989800	3.495000	-10.448000	25.721708	0.000281	20.823548
1474.409685	-2.986400	3.495800	-10.439000	25.732321	0.000281	20.846061
1475.405903	-3.020000	3.493400	-10.549000	25.749161	0.000278	20.835950
1476.409895	-2.966300	3.494300	-10.364000	25.720747	0.000279	20.810729
1477.405896	-3.005100	3.493200	-10.497000	25.754018	0.000280	20.820440
1478.411335	-3.006000	3.493700	-10.501000	25.701343	0.000279	20.848611
1479.412148	-2.987600	3.492500	-10.432000	25.714886	0.000278	20.831395
1480.409427	-2.962600	3.493800	-10.350000	25.714960	0.000280	20.844744
1481.410149	-2.980200	3.492900	-10.409000	25.749843	0.000277	20.810083
1482.408784	-2.959800	3.492900	-10.337000	25.803183	0.000277	20.822885
1483.413442	-3.010800	3.491100	-10.509000	25.806250	0.000279	20.814586
1484.416482	-2.988000	3.492100	-10.434000	25.824089	0.000276	20.821125
1485.417878	-2.989800	3.490100	-10.434000	25.804533	0.000278	20.834672
1486.411163	-2.995000	3.489900	-10.452000	25.777635	0.000279	20.825670
1487.411802	-3.005500	3.489700	-10.488000	25.718579	0.000276	20.817561
1488.419303	-3.002000	3.489900	-10.475000	25.729632	0.000276	20.822499
1489.411182	-2.974900	3.489900	-10.382000	25.759697	0.000275	20.804334
1490.412906	-3.006800	3.488600	-10.489000	25.776967	0.000276	20.829741
1491.411900	-3.003500	3.487700	-10.474000	25.828288	0.000275	20.812067
1492.411092	-2.991100	3.489100	-10.435000	25.818457	0.000274	20.819261
1493.413863	-2.993400	3.487500	-10.438000	25.780393	0.000272	20.805208
1494.418838	-3.019400	3.487500	-10.529000	25.777072	0.000274	20.799027
1495.421728	-2.980900	3.488300	-10.398000	25.742417	0.000275	20.815425
1496.415071	-2.992000	3.486500	-10.431000	25.808625	0.000275	20.809384
1497.411501	-3.006600	3.485100	-10.478000	25.855672	0.000273	20.819187
1498.415044	-2.978400	3.486800	-10.384000	25.824299	0.000273	20.800474
1499.422266	-2.995500	3.486300	-10.442000	25.832649	0.000274	20.823086
1500.410515	-2.991000	3.485900	-10.425000	25.884097	0.000274	20.802697
1501.414992	-2.998500	3.485200	-10.449000	25.901267	0.000272	20.802402
1502.413990	-2.987500	3.484900	-10.410000	25.853295	0.000271	20.805893
1503.420159	-2.977700	3.485000	-10.377000	25.816047	0.000271	20.821108
1504.417039	-3.022300	3.483000	-10.525000	25.797450	0.000272	20.800056
1505.413146	-3.004800	3.484300	-10.468000	25.836547	0.000270	20.813726
1506.420913	-2.975000	3.485000	-10.367000	25.853963	0.000272	20.827427
1507.415804	-2.998400	3.483900	-10.445000	25.807632	0.000267	20.802697
1508.417379	-2.992100	3.482900	-10.420000	25.810390	0.000271	20.817322
1509.427407	-2.992000	3.482700	-10.420000	25.838565	0.000270	20.799157
1510.415473	-2.997700	3.482500	-10.439000	25.882583	0.000270	20.808289
1511.412640	-2.991000	3.481600	-10.412000	25.897802	0.000271	20.796551
1512.425099	-3.000500	3.480900	-10.444000	25.850047	0.000270	20.793148
1513.415841	-3.017700	3.481300	-10.505000	25.829124	0.000269	20.810062
1514.421086	-3.019500	3.480100	-10.507000	25.853491	0.000267	20.804193
1515.421232	-3.001700	3.480400	-10.446000	25.816779	0.000268	20.801928
1516.415836	-3.002400	3.479500	-10.446000	25.813156	0.000267	20.806824
1517.416535	-3.024300	3.477800	-10.516000	25.776754	0.000268	20.791595
1518.425545	-2.983300	3.480100	-10.381000	25.753949	0.000264	20.799982
1519.419247	-3.005200	3.479600	-10.455000	25.756652	0.000266	20.813128
1520.418993	-2.990400	3.478900	-10.403000	25.822915	0.000266	20.827058
1521.422812	-2.979800	3.478700	-10.365000	25.844977	0.000266	20.796115
1522.417418	-3.002100	3.478200	-10.441000	25.889198	0.000265	20.792175
1523.434932	-2.989800	3.479000	-10.401000	25.919332	0.000264	20.818653
1524.431181	-3.005300	3.477700	-10.451000	25.943102	0.000264	20.806972
1525.418271	-2.991000	3.476300	-10.395000	25.888279	0.000265	20.800260
1526.420643	-3.006900	3.477700	-10.456000	25.859560	0.000264	20.804127
1527.427342	-3.015500	3.476500	-10.482000	25.796985	0.000262	20.811917
1528.424909	-2.998200	3.475500	-10.419000	25.788121	0.000262	20.804436
1529.429524	-2.999800	3.475700	-10.425000	25.820178	0.000263	20.777842
1530.425795	-3.005600	3.476400	-10.448000	25.826828	0.000261	20.786418
1531.424648	-3.003200	3.476600	-10.440000	25.816548	0.000265	20.778463
1532.430858	-3.002700	3.474800	-10.432000	25.830814	0.000262	20.777146
1533.427072	-3.011800	3.474500	-10.464000	25.833223	0.000262	20.786679
1534.425344	-3.000300	3.474300	-10.422000	25.829821	0.000261	20.790373
1535.419456	-2.998600	3.473900	-10.417000	25.818297	0.000260	20.783065
1536.425262	-3.010100	3.473500	-10.454000	25.828429	0.000260	20.794191
1537.422530	-3.012400	3.473500	-10.462000	25.811696	0.000261	20.768847
1538.424798	-3.019700	3.471400	-10.482000	25.805276	0.000259	20.768088
1539.429958	-2.994200	3.471800	-10.395000	25.850271	0.000260	20.776778
1540.418482	-3.001100	3.472800	-10.421000	25.850597	0.000259	20.797493
1541.433219	-2.981800	3.472700	-10.354000	25.841831	0.000261	20.773041
1542.432488	-3.006100	3.471900	-10.436000	25.865970	0.000260	20.790177
1543.423697	-2.986400	3.473200	-10.371000	25.884808	0.000258	20.788712
1544.424684	-2.992000	3.471400	-10.386000	25.814780	0.000260	20.781428
1545.431029	-2.993000	3.471600	-10.390000	25.808790	0.000257	20.776834
1546.421134	-2.984100	3.469700	-10.353000	25.825856	0.000258	20.782123
1547.432451	-2.984500	3.469900	-10.355000	25.770839	0.000258	20.784705
1548.433504	-3.012800	3.468200	-10.447000	25.774632	0.000255	20.785197
1549.422579	-2.998300	3.469600	-10.402000	25.786311	0.000257	20.773220
1550.428042	-2.992700	3.469500	-10.382000	25.835335	0.000256	20.779792
1551.428611	-3.002300	3.469900	-10.417000	25.819661	0.000256	20.790125
1552.430430	-2.992400	3.469200	-10.380000	25.811759	0.000255	20.767488
1553.427404	-3.005500	3.468800	-10.425000	25.822217	0.000254	20.786528
1554.428765	-2.987400	3.469100	-10.363000	25.804329	0.000255	20.764766
1555.423257	-3.019200	3.467000	-10.466000	25.812686	0.000257	20.773635
1556.431118	-2.981800	3.467700	-10.338000	25.783721	0.000254	20.777256
1557.427287	-2.990500	3.466500	-10.365000	25.814028	0.000254	20.774035
1558.421963	-2.977500	3.467800	-10.324000	25.808193	0.000253	20.774812
1559.429149	-3.008900	3.467600	-10.432000	25.797661	0.000254	20.775612
1560.427202	-2.998900	3.466100	-10.393000	25.747828	0.000251	20.767755
1561.429551	-3.030400	3.465100	-10.500000	25.807158	0.000254	20.775669
1562.432816	-3.003400	3.465500	-10.408000	25.805473	0.000252	20.776347
1563.430926	-2.986200	3.465700	-10.349000	25.786536	0.000251	20.773445
1564.432585	-2.984400	3.466200	-10.343000	25.779609	0.000251	20.750366
1565.431560	-3.022500	3.463900	-10.468000	25.733649	0.000252	20.777696
1566.432052	-3.028300	3.464200	-10.490000	25.746671	0.000250	20.760903
1567.435820	-3.020100	3.463400	-10.458000	25.768539	0.000252	20.760584
1568.432717	-2.994300	3.464100	-10.372000	25.813480	0.000252	20.766846
1569.432287	-2.996500	3.462800	-10.375000	25.829235	0.000251	20.752326
1570.432766	-2.982000	3.462900	-10.325000	25.859517	0.000250	20.764728
1571.432395	-2.993300	3.464200	-10.369000	25.868062	0.000251	20.760984
1572.433740	-2.988300	3.462400	-10.345000	25.850151	0.000249	20.751525
1573.440456	-3.016800	3.460400	-10.438000	25.879869	0.000250	20.751034
1574.440598	-2.996800	3.461700	-10.373000	25.903469	0.000249	20.752931
1575.435055	-3.015300	3.462200	-10.439000	25.901581	0.000247	20.758621
1576.432220	-3.030700	3.460100	-10.485000	25.857563	0.000247	20.776516
1577.433431	-2.989500	3.461100	-10.346000	25.821292	0.000248	20.750036
1578.439164	-3.012100	3.460100	-10.420000	25.786613	0.000248	20.756928
1579.443385	-2.994100	3.460100	-10.359000	25.773054	0.000247	20.743781
1580.437499	-3.027700	3.458800	-10.471000	25.777026	0.000247	20.741607
1581.438750	-3.016300	3.459000	-10.433000	25.806365	0.000246	20.763018
1582.434913	-3.005600	3.459800	-10.398000	25.829966	0.000246	20.766337
1583.438489	-2.990400	3.458400	-10.341000	25.784131	0.000246	20.758227
1584.439574	-2.998100	3.459400	-10.371000	25.804900	0.000245	20.749692
1585.438246	-3.024600	3.458300	-10.459000	25.839358	0.000245	20.770556
1586.436219	-2.996100	3.458700	-10.362000	25.894858	0.000244	20.771782
1587.438879	-2.995500	3.457500	-10.355000	25.892253	0.000245	20.745931
1588.445948	-3.035100	3.456300	-10.489000	25.884271	0.000244	20.759724
1589.437295	-2.989200	3.456400	-10.330000	25.826068	0.000244	20.750093
1590.442914	-2.999000	3.456200	-10.364000	25.800107	0.000241	20.755783
1591.440238	-3.001600	3.455500	-10.371000	25.835361	0.000244	20.738565
1592.443604	-3.029200	3.455600	-10.466000	25.884897	0.000243	20.752766
1593.442368	-3.028200	3.455100	-10.462000	25.890065	0.000243	20.759380
1594.443532	-2.987200	3.455100	-10.320000	25.831333	0.000242	20.741631
1595.441727	-3.006500	3.454000	-10.384000	25.825026	0.000242	20.735295
1596.459022	-2.999300	3.454500	-10.360000	25.803019	0.000243	20.761080
1597.441751	-2.994500	3.454600	-10.343000	25.801425	0.000241	20.759478
1598.442508	-2.991400	3.454800	-10.334000	25.830397	0.000240	20.752070
1599.444102	-2.975200	3.453400	-10.272000	25.832757	0.000241	20.735474
1600.439677	-3.040900	3.452100	-10.496000	25.864528	0.000241	20.731828
1601.445206	-3.009400	3.452800	-10.390000	25.903980	0.000242	20.749176
1602.447083	-3.009300	3.452400	-10.388000	25.920898	0.000240	20.762379
1603.445336	-3.025100	3.451400	-10.439000	25.913542	0.000241	20.729384
1604.447390	-3.010600	3.452700	-10.393000	25.897959	0.000238	20.743602
1605.445990	-2.976300	3.452200	-10.273000	25.930508	0.000239	20.747378
1606.446393	-3.004600	3.452100	-10.371000	25.928889	0.000241	20.756657
1607.445145	-3.011000	3.450000	-10.386000	25.992726	0.000237	20.723588
1608.445136	-2.986900	3.450500	-10.306000	26.003434	0.000239	20.719647
1609.442239	-3.012000	3.450000	-10.390000	25.985224	0.000238	20.735492
1610.448663	-2.996800	3.449800	-10.337000	25.983784	0.000238	20.714129
1611.448563	-3.001200	3.449900	-10.352000	25.981466	0.000236	20.748786
1612.445718	-3.012700	3.448300	-10.388000	25.942821	0.000237	20.723711
1613.449131	-2.977800	3.449200	-10.270000	25.922624	0.000236	20.721912
1614.445431	-3.003500	3.447300	-10.354000	25.938493	0.000237	20.734536
1615.445530	-2.995700	3.449000	-10.330000	25.959756	0.000237	20.726974
1616.447521	-3.000500	3.449200	-10.349000	25.962913	0.000237	20.727300
1617.444129	-2.985800	3.448800	-10.296000	25.962147	0.000236	20.723686
1618.445952	-2.985000	3.447100	-10.289000	25.957924	0.000235	20.752636
1619.444040	-3.030000	3.446800	-10.443000	25.952260	0.000234	20.720866
1620.447941	-3.009400	3.446700	-10.372000	25.944457	0.000234	20.731519
1621.448839	-3.003800	3.446100	-10.350000	25.973897	0.000235	20.728853
1622.445740	-3.004600	3.445700	-10.352000	25.979732	0.000236	20.721438
1623.447981	-3.011600	3.444300	-10.371000	25.936336	0.000234	20.717669
1624.447640	-2.985600	3.445000	-10.284000	25.862462	0.000232	20.716475
1625.447958	-2.988000	3.445900	-10.295000	25.893963	0.000232	20.725362
1626.448126	-2.990600	3.446100	-10.305000	25.942748	0.000233	20.733595
1627.450786	-3.002500	3.444300	-10.341000	25.990366	0.000231	20.720269
1628.449648	-2.993700	3.445200	-10.313000	26.040465	0.000233	20.711807
1629.449172	-2.989300	3.444200	-10.294000	26.011499	0.000231	20.738656
1630.454580	-2.977000	3.443500	-10.250000	25.964947	0.000231	20.726025
1631.451672	-2.995400	3.443900	-10.315000	25.908042	0.000229	20.708210
1632.451174	-3.017500	3.441800	-10.385000	25.930428	0.000230	20.717898
1633.450750	-2.991700	3.443500	-10.301000	25.891554	0.000230	20.739538
1634.451969	-3.023600	3.441200	-10.404000	25.895949	0.000228	20.718822
1635.456652	-2.979200	3.443900	-10.258000	25.876622	0.000232	20.722165
1636.450575	-2.982700	3.440600	-10.262000	25.891246	0.000231	20.711726
1637.452095	-2.990700	3.441200	-10.291000	25.885435	0.000228	20.749513
1638.451870	-3.013300	3.439600	-10.364000	25.853053	0.000228	20.717455
1639.451376	-3.010400	3.439900	-10.354000	25.848497	0.000229	20.703395
1640.455425	-3.004500	3.440600	-10.336000	25.858060	0.000230	20.722959
1641.451011	-3.005400	3.440200	-10.338000	25.874335	0.000229	20.732197
1642.455974	-2.998800	3.439700	-10.314000	25.885271	0.000228	20.721846
1643.452806	-3.009600	3.437500	-10.345000	25.885345	0.000226	20.710539
1644.453943	-2.982700	3.440200	-10.260000	25.893295	0.000229	20.735123
1645.457745	-2.967300	3.438900	-10.203000	25.941112	0.000227	20.699232
1646.456212	-2.990000	3.438300	-10.280000	25.944912	0.000226	20.718225
1647.453222	-3.010700	3.438200	-10.350000	25.965011	0.000226	20.720399
1648.457300	-2.992100	3.437800	-10.285000	25.924788	0.000225	20.721716
1649.454501	-3.010300	3.437200	-10.346000	25.884474	0.000225	20.706819
1650.467290	-2.999100	3.436900	-10.307000	25.863518	0.000225	20.751203
1651.461921	-2.985700	3.436600	-10.260000	25.857098	0.000223	20.721519
1652.454020	-3.004500	3.435400	-10.321000	25.857455	0.000224	20.705281
1653.454076	-2.990800	3.436300	-10.276000	25.890519	0.000225	20.726644
1654.460628	-2.992400	3.436300	-10.282000	25.888250	0.000222	20.706345
1655.456504	-2.988200	3.436100	-10.267000	25.880055	0.000222	20.723244
1656.453418	-2.998600	3.435200	-10.300000	25.850546	0.000221	20.708773
1657.456646	-3.010200	3.434400	-10.337000	25.835816	0.000223	20.721477
1658.454814	-3.016300	3.433400	-10.355000	25.869507	0.000226	20.702215
1659.453912	-3.009600	3.436300	-10.341000	25.915038	0.000222	20.710497
1660.459642	-3.009400	3.433400	-10.331000	25.941843	0.000222	20.730315
1661.457632	-3.017700	3.431300	-10.353000	25.989787	0.000222	20.719212
1662.454918	-2.996100	3.433000	-10.285000	25.929669	0.000221	20.713817
1663.454730	-2.997000	3.432500	-10.286000	25.929327	0.000220	20.727698
1664.453964	-2.985800	3.432900	-10.248000	25.952534	0.000222	20.718295
1665.454942	-2.988500	3.433100	-10.259000	25.935714	0.000221	20.706139
1666.459841	-3.018300	3.432000	-10.358000	25.948905	0.000219	20.707062
1667.454459	-3.008700	3.430900	-10.322000	25.912368	0.000219	20.723462
1668.455227	-3.009700	3.431100	-10.326000	25.861490	0.000220	20.720716
1669.459315	-2.992600	3.430000	-10.263000	25.803335	0.000220	20.728204
1670.456307	-3.003000	3.431600	-10.305000	25.795269	0.000218	20.701608
1671.459369	-3.006600	3.431000	-10.315000	25.795887	0.000219	20.702704
1672.457935	-3.018600	3.430500	-10.354000	25.824957	0.000216	20.711043
1673.459125	-3.001500	3.430400	-10.295000	25.789758	0.000216	20.712669
1674.459204	-3.022700	3.429400	-10.365000	25.819048	0.000218	20.711745
1675.461828	-2.973000	3.429600	-10.195000	25.831052	0.000216	20.740400
1676.457901	-2.997100	3.427200	-10.271000	25.820097	0.000219	20.726076
1677.459540	-3.015000	3.427100	-10.332000	25.773895	0.000215	20.707639
1678.467863	-2.999400	3.427500	-10.280000	25.832849	0.000215	20.710435
1679.458978	-2.999700	3.427100	-10.279000	25.875581	0.000217	20.712111
1680.458751	-3.005400	3.427200	-10.299000	25.878047	0.000217	20.717907
1681.460145	-3.002000	3.427400	-10.289000	25.868680	0.000216	20.713239
1682.466527	-3.013600	3.424800	-10.320000	25.840839	0.000214	20.700917
1683.460262	-3.003200	3.426700	-10.290000	25.904021	0.000215	20.706541
1684.463209	-2.996100	3.424800	-10.260000	25.898804	0.000212	20.692291
1685.465687	-2.988500	3.427000	-10.242000	25.899479	0.000213	20.691072
1686.461139	-3.002700	3.426200	-10.286000	25.868181	0.000213	20.705625
1687.460418	-2.994300	3.423900	-10.251000	25.884204	0.000213	20.703703
1688.465681	-2.994000	3.425300	-10.255000	25.853776	0.000213	20.713914
1689.461287	-2.973100	3.424100	-10.179000	25.816771	0.000213	20.689067
1690.460531	-2.980400	3.423800	-10.204000	25.836424	0.000212	20.695059
1691.462539	-2.993900	3.424400	-10.251000	25.809568	0.000212	20.704118
1692.463992	-3.013200	3.425000	-10.319000	25.849103	0.000212	20.701158
1693.463436	-2.996300	3.424700	-10.260000	25.917891	0.000212	20.704354
1694.463252	-2.990000	3.423800	-10.237000	25.943409	0.000210	20.699644
1695.466106	-3.013500	3.423000	-10.314000	25.942791	0.000211	20.718464
1696.469831	-2.988000	3.423700	-10.229000	25.969196	0.000211	20.713224
1697.464412	-3.000400	3.421800	-10.266000	25.954736	0.000210	20.694902
1698.464075	-3.009400	3.420400	-10.292000	25.994119	0.000211	20.707442
1699.462684	-3.021800	3.419500	-10.332000	26.049359	0.000209	20.697983
1700.465427	-2.985800	3.421400	-10.215000	26.032744	0.000209	20.702153
1701.464957	-2.997200	3.421200	-10.253000	26.002841	0.000209	20.686332
1702.463875	-3.009100	3.418700	-10.286000	25.967225	0.000209	20.701759
1703.466305	-2.992600	3.420600	-10.235000	25.994322	0.000210	20.717130
1704.467805	-3.015900	3.420200	-10.314000	25.993532	0.000209	20.715388
1705.463484	-3.024200	3.418100	-10.335000	25.985135	0.000207	20.690828
1706.467262	-2.991700	3.419100	-10.227000	25.930160	0.000207	20.711939
1707.465318	-3.001500	3.418000	-10.258000	25.886549	0.000209	20.715069
1708.466040	-2.997900	3.417300	-10.243000	25.883514	0.000205	20.709175
1709.465275	-2.985600	3.417600	-10.203000	25.827916	0.000207	20.706428
1710.468115	-3.004400	3.416600	-10.264000	25.907292	0.000207	20.697973
1711.471626	-2.987600	3.417000	-10.207000	25.940974	0.000208	20.709052
1712.466814	-3.016600	3.416300	-10.305000	25.877907	0.000205	20.704489
1713.467466	-2.982400	3.416500	-10.188000	25.894996	0.000205	20.710752
1714.469213	-2.977300	3.416000	-10.169000	25.916561	0.000205	20.709182
1715.469115	-2.995300	3.415800	-10.230000	25.916463	0.000205	20.716671
1716.467656	-3.000000	3.414700	-10.243000	25.930321	0.000206	20.712575
1717.470459	-2.986500	3.415400	-10.199000	25.914453	0.000204	20.699477
1718.472811	-3.013600	3.414900	-10.290000	25.949574	0.000202	20.711528
1719.470015	-3.006700	3.414700	-10.266000	25.973424	0.000203	20.710359
1720.472491	-3.002100	3.413900	-10.249000	26.055149	0.000206	20.736046
1721.472012	-3.024700	3.412700	-10.322000	26.080234	0.000203	20.723317
1722.474827	-2.994300	3.415000	-10.225000	26.029756	0.000204	20.713376
1723.473526	-2.978100	3.415600	-10.171000	26.001968	0.000202	20.724813
1724.475105	-3.015700	3.412700	-10.290000	26.039943	0.000202	20.696108
1725.471171	-2.982100	3.412500	-10.176000	26.012449	0.000200	20.712582
1726.474955	-2.981800	3.412300	-10.174000	26.013644	0.000200	20.714732
1727.471864	-3.000500	3.412000	-10.237000	26.074522	0.000199	20.714258
1728.472076	-3.021200	3.410200	-10.302000	26.021985	0.000200	20.712681
1729.474524	-3.001400	3.411700	-10.239000	25.963139	0.000200	20.720889
1730.473096	-2.991700	3.411300	-10.205000	25.926203	0.000199	20.699902
1731.474129	-3.003800	3.410600	-10.245000	25.879281	0.000200	20.729105
1732.478685	-3.000300	3.411300	-10.234000	25.870044	0.000201	20.721722
1733.481971	-2.991100	3.410200	-10.199000	25.927260	0.000200	20.716612
1734.479412	-3.008200	3.409200	-10.254000	25.916275	0.000200	20.722646
1735.476307	-3.010400	3.409000	-10.262000	25.945065	0.000198	20.723120
1736.477594	-2.974400	3.410500	-10.144000	25.996980	0.000198	20.716956
1737.476271	-3.014500	3.408600	-10.273000	26.012977	0.000197	20.725916
1738.489482	-2.999700	3.409200	-10.226000	26.020073	0.000198	20.725933
1739.481716	-2.995600	3.407700	-10.208000	26.033514	0.000198	20.732800
1740.481919	-3.018800	3.408400	-10.288000	26.012700	0.000196	20.714258
1741.477917	-3.002300	3.407500	-10.229000	26.021789	0.000199	20.735719
1742.477918	-2.983200	3.407400	-10.163000	26.027998	0.000198	20.712084
1743.476895	-2.985800	3.408100	-10.175000	26.076906	0.000194	20.739888
1744.481443	-2.982100	3.407300	-10.160000	26.107360	0.000196	20.727338
1745.481091	-2.996900	3.406000	-10.207000	26.036542	0.000195	20.732048
1746.480919	-2.990800	3.405600	-10.184000	26.037339	0.000194	20.712459
1747.479517	-3.007300	3.405300	-10.239000	26.045899	0.000194	20.725803
1748.482089	-3.009000	3.405600	-10.247000	26.048112	0.000194	20.738933
1749.482042	-2.987700	3.404300	-10.170000	26.089200	0.000196	20.732800
1750.483692	-2.969400	3.405500	-10.111000	26.116441	0.000194	20.711332
1751.483775	-2.977400	3.405600	-10.139000	26.144062	0.000194	20.734346
1752.487541	-2.980200	3.405600	-10.148000	26.110736	0.000194	20.737844
1753.494656	-2.989400	3.404600	-10.176000	26.046281	0.000192	20.728083
1754.482370	-2.995000	3.405000	-10.197000	26.066818	0.000193	20.743028
1755.488087	-2.978600	3.404600	-10.140000	26.069422	0.000192	20.738058
1756.482555	-2.980200	3.403700	-10.143000	26.088476	0.000192	20.728279
1757.484600	-3.019000	3.403100	-10.273000	26.104440	0.000191	20.737208
1758.485643	-2.986400	3.402700	-10.161000	26.066769	0.000193	20.735866
1759.482378	-2.992200	3.403400	-10.182000	26.077403	0.000191	20.737068
1760.485160	-3.003400	3.402500	-10.218000	26.056900	0.000191	20.740176
1761.485327	-3.005000	3.400600	-10.218000	26.066923	0.000193	20.754040
1762.486560	-3.000100	3.401900	-10.204000	26.024719	0.000191	20.743404
1763.484851	-2.979200	3.400800	-10.131000	26.025834	0.000188	20.717496
1764.484818	-2.995300	3.400900	-10.186000	26.080926	0.000190	20.733021
1765.486171	-2.984400	3.400800	-10.148000	26.086753	0.000190	20.734608
1766.485945	-2.983000	3.399600	-10.140000	26.161147	0.000188	20.744402
1767.485281	-2.990700	3.399900	-10.168000	26.164849	0.000188	20.723938
1768.492560	-2.963000	3.399400	-10.072000	26.120468	0.000188	20.738613
1769.487906	-3.003300	3.398800	-10.207000	26.092706	0.000189	20.759558
1770.485648	-2.974900	3.398700	-10.110000	26.117702	0.000187	20.720661
1771.485991	-2.967700	3.399100	-10.086000	26.164100	0.000186	20.729351
1772.486602	-3.013300	3.397500	-10.237000	26.146250	0.000187	20.733225
1773.485309	-3.013000	3.397600	-10.236000	26.136984	0.000187	20.741932
1774.486788	-3.012300	3.397000	-10.231000	26.136829	0.000187	20.748416
1775.490113	-3.023200	3.396600	-10.267000	26.047291	0.000187	20.748065
1776.486089	-2.996300	3.395300	-10.172000	26.020968	0.000186	20.739161
1777.485143	-2.995200	3.397100	-10.174000	26.005206	0.000186	20.747507
1778.488179	-2.993100	3.396500	-10.165000	25.995043	0.000184	20.755315
1779.485819	-3.018800	3.395100	-10.249000	25.996077	0.000186	20.736439
1780.490725	-3.005600	3.394900	-10.203000	26.038307	0.000187	20.749470
1781.494629	-3.005700	3.395200	-10.204000	26.039754	0.000183	20.751399
1782.489351	-3.011500	3.394200	-10.221000	26.079542	0.000184	20.741588
1783.486986	-3.001000	3.393800	-10.185000	26.037322	0.000182	20.730935
1784.490130	-2.996700	3.393800	-10.170000	26.028558	0.000184	20.747735
1785.494605	-2.992900	3.394300	-10.158000	26.027761	0.000182	20.736503
1786.488447	-2.986100	3.393500	-10.132000	26.030089	0.000181	20.750222
1787.490457	-3.000100	3.393400	-10.180000	26.077889	0.000184	20.752256
1788.495238	-2.975500	3.392300	-10.093000	26.090851	0.000183	20.761012
1789.491724	-2.999400	3.391700	-10.172000	26.096562	0.000183	20.760587
1790.496908	-3.004900	3.391900	-10.191000	26.088816	0.000182	20.766081
1791.495052	-2.999800	3.391100	-10.172000	26.096335	0.000181	20.758936
1792.491422	-2.983500	3.393200	-10.123000	26.119441	0.000181	20.754177
1793.489637	-2.998300	3.391700	-10.168000	26.121492	0.000180	20.754342
1794.491724	-2.995800	3.392200	-10.161000	26.131905	0.000180	20.751529
1795.491811	-2.987200	3.390300	-10.125000	26.104739	0.000181	20.734188
1796.491587	-2.974500	3.391400	-10.087000	26.047117	0.000181	20.758796
1797.493884	-3.017600	3.388700	-10.225000	26.069370	0.000180	20.748438
1798.493879	-2.992300	3.390100	-10.144000	26.098262	0.000181	20.757553
1799.501644	-2.992900	3.388400	-10.140000	26.123353	0.000178	20.775652
1800.497014	-2.992600	3.390800	-10.146000	26.143294	0.000178	20.742583
1801.493398	-3.008700	3.388900	-10.194000	26.168076	0.000180	20.790720
1802.489764	-2.983400	3.389000	-10.109000	26.156905	0.000180	20.771434
1803.496276	-2.987000	3.388600	-10.121000	26.176056	0.000177	20.750374
1804.500713	-2.995700	3.387700	-10.148000	26.192970	0.000178	20.757887
1805.495126	-3.010900	3.386800	-10.196000	26.188943	0.000178	20.758108
1806.494602	-2.994200	3.387500	-10.141000	26.181100	0.000178	20.769194
1807.496593	-2.993300	3.387300	-10.139000	26.157563	0.000177	20.752180
1808.498217	-3.001300	3.386300	-10.162000	26.111049	0.000174	20.764712
1809.495231	-2.997700	3.387100	-10.153000	26.163274	0.000175	20.762187
1810.495364	-2.989800	3.385800	-10.122000	26.191740	0.000175	20.759496
1811.494855	-3.018100	3.386300	-10.219000	26.266763	0.000175	20.759496
1812.500472	-2.999000	3.385400	-10.151000	26.292028	0.000175	20.755015
1813.500359	-2.985400	3.384600	-10.104000	26.296145	0.000173	20.758678
1814.498752	-3.010000	3.384300	-10.185000	26.249963	0.000173	20.766796
1815.501238	-3.030300	3.381900	-10.247000	26.161702	0.000172	20.779099
1816.497995	-2.965800	3.384700	-10.038000	26.134431	0.000172	20.764973
1817.496562	-3.032300	3.383300	-10.258000	26.106125	0.000175	20.770196
1818.502760	-2.992300	3.383900	-10.124000	26.109680	0.000173	20.763337
1819.498088	-2.995700	3.381800	-10.130000	26.144534	0.000173	20.759477
1820.504006	-3.000300	3.381900	-10.146000	26.127790	0.000172	20.778689
1821.503520	-3.024700	3.382200	-10.229000	26.202517	0.000172	20.771275
1822.509134	-3.019800	3.381700	-10.210000	26.262863	0.000170	20.776441
1823.508494	-2.996200	3.381300	-10.130000	26.260414	0.000170	20.785834
1824.503158	-2.993200	3.382200	-10.122000	26.274723	0.000172	20.762754
1825.509418	-3.018000	3.380700	-10.202000	26.244777	0.000169	20.761585
1826.505047	-2.988500	3.380900	-10.102000	26.231168	0.000170	20.770194
1827.509428	-3.011500	3.380400	-10.179000	26.188009	0.000169	20.769498
1828.505222	-3.009200	3.379700	-10.168000	26.159803	0.000168	20.783355
1829.506168	-3.012700	3.379900	-10.181000	26.161323	0.000169	20.774451
1830.504000	-3.001600	3.380000	-10.145000	26.148363	0.000167	20.783713
1831.506755	-3.006300	3.379900	-10.160000	26.146800	0.000167	20.781669
1832.508187	-3.006500	3.379600	-10.160000	26.166888	0.000167	20.782888
1833.507968	-3.001200	3.378800	-10.138000	26.137688	0.000167	20.804756
1834.508102	-2.999900	3.377800	-10.131000	26.126615	0.000169	20.793155
1835.507073	-2.994000	3.377100	-10.110000	26.156791	0.000169	20.778431
1836.510171	-2.999500	3.377600	-10.130000	26.184760	0.000168	20.805589
1837.505529	-2.997200	3.377400	-10.122000	26.182758	0.000165	20.783188
1838.506505	-2.977100	3.378000	-10.056000	26.187005	0.000170	20.800732
1839.509794	-3.013300	3.377100	-10.175000	26.232490	0.000166	20.794757
1840.507717	-3.010100	3.376000	-10.160000	26.236272	0.000164	20.782436
1841.506265	-3.011500	3.375800	-10.165000	26.216609	0.000163	20.775004
1842.509767	-2.991000	3.375300	-10.095000	26.188819	0.000165	20.794494
1843.509083	-3.029900	3.374000	-10.222000	26.151769	0.000166	20.785714
1844.509660	-2.982700	3.375900	-10.068000	26.184181	0.000163	20.773238
1845.512701	-3.004400	3.374200	-10.136000	26.219350	0.000164	20.802889
1846.511098	-2.995400	3.373900	-10.106000	26.220920	0.000164	20.799250
1847.509728	-3.027300	3.373200	-10.211000	26.220098	0.000161	20.807434
1848.512603	-2.999300	3.374100	-10.119000	26.278084	0.000164	20.802169
1849.512074	-3.000100	3.374800	-10.124000	26.322141	0.000162	20.779589
1850.514815	-3.000400	3.372900	-10.120000	26.308777	0.000163	20.811677
1851.514010	-2.985200	3.373000	-10.068000	26.289464	0.000162	20.776147
1852.512452	-2.994200	3.373600	-10.100000	26.289115	0.000164	20.792865
1853.509833	-2.990400	3.372600	-10.085000	26.291677	0.000161	20.803027
1854.512905	-2.996500	3.372300	-10.105000	26.311314	0.000162	20.798580
1855.513621	-2.995700	3.372700	-10.103000	26.266037	0.000161	20.787691
1856.515515	-2.985800	3.370600	-10.063000	26.236627	0.000160	20.797017
1857.514010	-2.994300	3.371000	-10.093000	26.279613	0.000163	20.788532
1858.519112	-2.988200	3.370000	-10.069000	26.267418	0.000163	20.794295
1859.516340	-2.997500	3.369600	-10.100000	26.298681	0.000161	20.795841
1860.514888	-3.013300	3.369400	-10.152000	26.297558	0.000162	20.790445
1861.520103	-2.993200	3.370200	-10.087000	26.306376	0.000160	20.786505
1862.519566	-2.988200	3.370700	-10.072000	26.304919	0.000159	20.816335
1863.516582	-2.989200	3.369400	-10.071000	26.284656	0.000159	20.808773
1864.523765	-2.987500	3.369300	-10.065000	26.279815	0.000158	20.793951
1865.518216	-2.998500	3.368700	-10.100000	26.233056	0.000157	20.784893
1866.515748	-3.001600	3.368300	-10.109000	26.228728	0.000156	20.819899
1867.523396	-3.006800	3.367500	-10.125000	26.273706	0.000156	20.800140
1868.516699	-3.020500	3.367700	-10.172000	26.281109	0.000158	20.797148
1869.520254	-3.008900	3.366500	-10.128000	26.242615	0.000156	20.814888
1870.519116	-3.001700	3.367200	-10.106000	26.236781	0.000156	20.781051
1871.516889	-2.997300	3.366800	-10.090000	26.227100	0.000154	20.805461
1872.521479	-2.995400	3.366600	-10.083000	26.202166	0.000156	20.824975
1873.517580	-3.022800	3.365900	-10.174000	26.183641	0.000154	20.814895
1874.523168	-2.968100	3.367000	-9.992400	26.159356	0.000152	20.794760
1875.521979	-2.984700	3.365400	-10.044000	26.196821	0.000157	20.828139
1876.524058	-2.984100	3.365700	-10.043000	26.251545	0.000156	20.822440
1877.523219	-3.000100	3.365800	-10.097000	26.305853	0.000154	20.837661
1878.526571	-2.986600	3.364400	-10.048000	26.332145	0.000156	20.805764
1879.524190	-3.015100	3.364900	-10.145000	26.372645	0.000154	20.801897
1880.521794	-3.015200	3.364300	-10.143000	26.375605	0.000155	20.793492
1881.527336	-3.001900	3.363800	-10.096000	26.403180	0.000153	20.826422
1882.531294	-2.960400	3.365200	-9.961200	26.373547	0.000153	20.803277
1883.526849	-3.002600	3.362100	-10.094000	26.374361	0.000151	20.828277
1884.524997	-3.007700	3.362100	-10.111000	26.371213	0.000152	20.825587
1885.524267	-2.994400	3.361800	-10.065000	26.349080	0.000153	20.823258
1886.524239	-2.998300	3.362200	-10.079000	26.386879	0.000152	20.826633
1887.533123	-2.984000	3.362100	-10.032000	26.410516	0.000153	20.832846
1888.525311	-2.995400	3.360900	-10.066000	26.391076	0.000151	20.818524
1889.527188	-2.994500	3.360000	-10.060000	26.333096	0.000150	20.834220
1890.527731	-2.999400	3.360000	-10.077000	26.403691	0.000149	20.829306
1891.525558	-2.987300	3.360200	-10.037000	26.395444	0.000150	20.824336
1892.526211	-3.004100	3.359900	-10.092000	26.391384	0.000150	20.823575
1893.527366	-3.000400	3.358900	-10.077000	26.422611	0.000149	20.839786
1894.528100	-2.990900	3.358900	-10.046000	26.381389	0.000146	20.825383
1895.529880	-2.991300	3.359200	-10.047000	26.315118	0.000148	20.843179
1896.532116	-2.995700	3.358200	-10.060000	26.272435	0.000149	20.824467
1897.527374	-2.983700	3.358400	-10.019000	26.298393	0.000146	20.824000
1898.528113	-3.038400	3.357100	-10.200000	26.326571	0.000148	20.842361
1899.525434	-2.962600	3.358800	-9.949400	26.342986	0.000147	20.820452
1900.530811	-3.004800	3.357100	-10.086000	26.306878	0.000146	20.837743
1901.529322	-2.987700	3.358100	-10.032000	26.320714	0.000147	20.831734
1902.525082	-3.011600	3.355600	-10.105000	26.309489	0.000148	20.858858
1903.531093	-3.013200	3.355800	-10.111000	26.333013	0.000145	20.841248
1904.527846	-3.008600	3.354600	-10.091000	26.299011	0.000148	20.834104
1905.530596	-2.992200	3.355300	-10.039000	26.319876	0.000145	20.838003
1906.532696	-2.988900	3.355100	-10.028000	26.368876	0.000146	20.852635
1907.534482	-3.000800	3.355100	-10.066000	26.436680	0.000146	20.837807
1908.536611	-2.980200	3.355500	-9.999400	26.488726	0.000143	20.850289
1909.533300	-2.991600	3.355900	-10.039000	26.461739	0.000145	20.857777
1910.529917	-3.028200	3.353000	-10.152000	26.446871	0.000141	20.832876
1911.532822	-3.008600	3.354200	-10.090000	26.457550	0.000144	20.833653
1912.540517	-2.981200	3.353200	-9.996100	26.444617	0.000142	20.830611
1913.542367	-3.001700	3.353400	-10.065000	26.455995	0.000144	20.850582
1914.538146	-3.001800	3.353200	-10.064000	26.394692	0.000142	20.848236
1915.539222	-3.006700	3.352200	-10.078000	26.367727	0.000144	20.828722
1916.532884	-2.992900	3.351200	-10.029000	26.346147	0.000141	20.830267
1917.535398	-2.999200	3.351800	-10.052000	26.328796	0.000145	20.852658
1918.534826	-2.994700	3.350700	-10.034000	26.359820	0.000141	20.849697
1919.532300	-2.971000	3.352000	-9.958200	26.400986	0.000140	20.851243
1920.536483	-3.003000	3.350200	-10.060000	26.376405	0.000141	20.859254
1921.532598	-2.997100	3.350800	-10.042000	26.417823	0.000140	20.860578
1922.533692	-3.005900	3.350900	-10.072000	26.486079	0.000139	20.825345
1923.536277	-2.996300	3.350300	-10.038000	26.429453	0.000138	20.851879
1924.533288	-3.006500	3.350500	-10.073000	26.351115	0.000139	20.847113
1925.540730	-2.998300	3.349100	-10.041000	26.358769	0.000139	20.851012
1926.537124	-2.980100	3.349500	-9.981100	26.359224	0.000138	20.858107
1927.537986	-2.974900	3.349400	-9.962300	26.367440	0.000138	20.839338
1928.539785	-2.995200	3.349100	-10.031000	26.326321	0.000137	20.834049
1929.539499	-2.979700	3.348600	-9.977100	26.366626	0.000138	20.844684
1930.534237	-3.001800	3.348900	-10.052000	26.377990	0.000136	20.840458
1931.538686	-2.976800	3.347700	-9.964800	26.384023	0.000135	20.840832
1932.538282	-2.988800	3.346800	-10.002000	26.441895	0.000137	20.831669
1933.533673	-2.997100	3.347700	-10.032000	26.420552	0.000135	20.838191
1934.541809	-3.026800	3.346100	-10.126000	26.407636	0.000136	20.830900
1935.536403	-2.991200	3.345500	-10.006000	26.371268	0.000134	20.831807
1936.536304	-2.986600	3.347400	-9.996400	26.393270	0.000134	20.810298
1937.536817	-3.018900	3.345300	-10.098000	26.416475	0.000135	20.835042
1938.534381	-3.030900	3.344500	-10.135000	26.417663	0.000134	20.827228
1939.534681	-3.012100	3.344100	-10.072000	26.452011	0.000135	20.825715
1940.535606	-3.010500	3.344700	-10.068000	26.483617	0.000134	20.828559
1941.534779	-3.013500	3.344100	-10.076000	26.549388	0.000131	20.822600
1942.535525	-3.025500	3.343600	-10.115000	26.537921	0.000132	20.827194
1943.534888	-3.023800	3.342600	-10.106000	26.526908	0.000133	20.837935
1944.533858	-3.012800	3.343700	-10.073000	26.478768	0.000132	20.824634
1945.534939	-3.021100	3.342300	-10.097000	26.492253	0.000131	20.823015
1946.535147	-3.025500	3.342400	-10.112000	26.523621	0.000129	20.839372
1947.539167	-2.982500	3.344100	-9.973100	26.567888	0.000130	20.818436
1948.535156	-2.982500	3.343300	-9.970400	26.589365	0.000130	20.839077
1949.539060	-3.020900	3.341000	-10.092000	26.585030	0.000128	20.821444
1950.540616	-2.999100	3.341900	-10.022000	26.589673	0.000129	20.800507
1951.536164	-2.987500	3.342500	-9.984800	26.599831	0.000128	20.818304
1952.538990	-3.008300	3.339600	-10.046000	26.588388	0.000130	20.822449
1953.540330	-2.981200	3.341000	-9.959700	26.607035	0.000130	20.818909
1954.539094	-3.013500	3.338500	-10.060000	26.571415	0.000130	20.813447
1955.537672	-3.006100	3.340300	-10.041000	26.588973	0.000127	20.802648
1956.541872	-3.025400	3.338200	-10.099000	26.564193	0.000126	20.824205
1957.541318	-3.001600	3.339100	-10.022000	26.517729	0.000129	20.819700
1958.541471	-3.016000	3.338000	-10.067000	26.473094	0.000127	20.799017
1959.545983	-2.987700	3.339700	-9.976300	26.477966	0.000126	20.820983
1960.541457	-2.979700	3.339300	-9.948900	26.506765	0.000126	20.802041
1961.540171	-2.995100	3.338300	-9.996200	26.514320	0.000125	20.790669
1962.544960	-2.996900	3.338600	-10.004000	26.532050	0.000126	20.812284
1963.545371	-2.982600	3.338300	-9.956300	26.575446	0.000127	20.831724
1964.541746	-2.986300	3.338200	-9.967200	26.590418	0.000126	20.799359
1965.541794	-3.007500	3.336500	-10.033000	26.632494	0.000125	20.795664
1966.545118	-2.982500	3.336500	-9.950100	26.626199	0.000123	20.806879
1967.545858	-3.004400	3.335300	-10.020000	26.640748	0.000126	20.796849
1968.559735	-2.976400	3.338000	-9.933300	26.589490	0.000123	20.806487
1969.546240	-2.987400	3.336000	-9.964500	26.547614	0.000124	20.791420
1970.546774	-2.986100	3.335700	-9.960000	26.534057	0.000122	20.798180
1971.547543	-2.991000	3.335300	-9.973900	26.579372	0.000124	20.782565
1972.547261	-3.015300	3.333600	-10.051000	26.546273	0.000122	20.821839
1973.543426	-2.969000	3.335100	-9.900800	26.569882	0.000122	20.784880
1974.548196	-3.009400	3.332500	-10.028000	26.629866	0.000120	20.800134
1975.548787	-2.993800	3.333600	-9.979300	26.625621	0.000121	20.805349
1976.554930	-2.971100	3.334200	-9.905600	26.618253	0.000120	20.802210
1977.550625	-2.988700	3.332800	-9.960100	26.571256	0.000122	20.806649
1978.549902	-2.968300	3.332900	-9.892200	26.565611	0.000120	20.790069
1979.553040	-2.998000	3.331800	-9.987800	26.565099	0.000118	20.790029
1980.550060	-2.973800	3.332600	-9.909800	26.580022	0.000119	20.789383
1981.551177	-3.012200	3.331100	-10.033000	26.575631	0.000119	20.782598
1982.552906	-3.004200	3.332100	-10.009000	26.610584	0.000118	20.794501
1983.548324	-3.003000	3.330800	-10.002000	26.665727	0.000118	20.798727
1984.550407	-3.013800	3.331100	-10.038000	26.733642	0.000117	20.792088
1985.552577	-3.001000	3.330300	-9.993400	26.688341	0.000119	20.790167
1986.550750	-2.991100	3.330200	-9.959800	26.637256	0.000117	20.786701
1987.556977	-3.011600	3.330000	-10.028000	26.607461	0.000116	20.788042
1988.558083	-2.966100	3.330600	-9.878600	26.612348	0.000116	20.808602
1989.558035	-3.005700	3.328900	-10.005000	26.572092	0.000116	20.790420
1990.554363	-2.998800	3.327900	-9.978900	26.556754	0.000115	20.784011
1991.557136	-2.989400	3.328300	-9.948000	26.586340	0.000114	20.792415
1992.553246	-3.016500	3.327700	-10.037000	26.596172	0.000116	20.789497
1993.552326	-3.001700	3.326900	-9.985000	26.535381	0.000116	20.797614
1994.552798	-3.004500	3.327100	-9.995400	26.528297	0.000115	20.775321
1995.550536	-2.999200	3.328100	-9.980900	26.501051	0.000115	20.799617
1996.555844	-2.988000	3.327100	-9.940700	26.526646	0.000114	20.789782
1997.555380	-3.004500	3.325800	-9.991300	26.582233	0.000111	20.778803
1998.552263	-3.009500	3.325500	-10.007000	26.645656	0.000113	20.788981
1999.554379	-3.001000	3.326400	-9.981800	26.650519	0.000114	20.800982
2000.553380	-3.011500	3.325500	-10.014000	26.636556	0.000113	20.784100
2001.556761	-3.012300	3.325600	-10.017000	26.650690	0.000111	20.782188
2002.562789	-3.010400	3.324800	-10.009000	26.574661	0.000110	20.772140
2003.554961	-2.993300	3.325200	-9.952400	26.573222	0.000112	20.772590
2004.556713	-2.992900	3.323700	-9.947100	26.628628	0.000110	20.780871
2005.558464	-3.009400	3.323400	-10.000000	26.683217	0.000111	20.788335
2006.558500	-3.016800	3.323300	-10.024000	26.720501	0.000111	20.782196
2007.556409	-3.010700	3.323900	-10.006000	26.703473	0.000111	20.777879
2008.555091	-3.006200	3.323100	-9.988700	26.760011	0.000110	20.790150
2009.558000	-3.012400	3.321600	-10.005000	26.786501	0.000108	20.757514
2010.558262	-2.996900	3.322000	-9.954800	26.727648	0.000109	20.776105
2011.557154	-2.987400	3.322200	-9.923300	26.743334	0.000109	20.763900
2012.559084	-3.011600	3.320800	-10.000000	26.757758	0.000107	20.778402
2013.553518	-2.969900	3.322200	-9.865000	26.758401	0.000105	20.767668
2014.553321	-3.012400	3.321100	-10.004000	26.715581	0.000106	20.772508
2015.555530	-3.005200	3.320200	-9.977400	26.740870	0.000105	20.768535
2016.556874	-3.000200	3.319900	-9.958900	26.735194	0.000107	20.772312
2017.560482	-3.024700	3.319300	-10.039000	26.664750	0.000106	20.772614
2018.555243	-2.973400	3.320600	-9.872100	26.609597	0.000106	20.778336
2019.559916	-2.994900	3.319100	-9.939400	26.579906	0.000106	20.765558
2020.560806	-2.975100	3.319000	-9.874000	26.528239	0.000104	20.767202
2021.559118	-3.000700	3.317400	-9.953300	26.513787	0.000105	20.765003
2022.556337	-3.011700	3.317100	-9.988900	26.523879	0.000104	20.748120
2023.560944	-2.990300	3.317800	-9.919900	26.550742	0.000104	20.764217
2024.563282	-3.003800	3.317900	-9.964600	26.536664	0.000103	20.776145
2025.555862	-2.979500	3.318400	-9.886800	26.566389	0.000105	20.767143
2026.556903	-2.997500	3.317400	-9.942900	26.536948	0.000101	20.792552
2027.563633	-2.990600	3.317000	-9.919300	26.589802	0.000103	20.774084
2028.562691	-2.988100	3.316800	-9.909500	26.641288	0.000102	20.760881
2029.564303	-2.973700	3.315500	-9.858300	26.676197	0.000105	20.770372
2030.560908	-2.976900	3.316100	-9.871100	26.687981	0.000102	20.763252
2031.564726	-2.999900	3.313800	-9.939500	26.694567	0.000100	20.760390
2032.561327	-2.997600	3.315000	-9.936600	26.713879	0.000102	20.760840
2033.568535	-2.987600	3.315200	-9.903800	26.740192	9.998083E-5	20.776863
2034.561852	-3.008000	3.314900	-9.970600	26.771172	9.945279E-5	20.773397
2035.559963	-2.996800	3.315000	-9.933000	26.786361	9.988182E-5	20.768279
2036.561730	-2.986700	3.313300	-9.895200	26.842812	9.935378E-5	20.765294
2037.565619	-2.991500	3.313800	-9.912300	26.903635	0.000100	20.765761
2038.564775	-2.993400	3.313900	-9.919200	26.894439	9.951880E-5	20.764101
2039.566425	-3.001100	3.312400	-9.939100	26.836535	9.776967E-5	20.756138
2040.567636	-2.988400	3.313200	-9.899900	26.778571	9.869374E-5	20.763766
2041.565919	-3.016100	3.311500	-9.987000	26.742135	9.727463E-5	20.758902
2042.566016	-3.010400	3.311500	-9.968000	26.678766	9.618555E-5	20.759204
2043.573782	-3.012300	3.311900	-9.975600	26.704462	9.783567E-5	20.767019
2044.566807	-3.020800	3.310500	-9.999700	26.685856	9.866073E-5	20.762064
2045.566376	-3.003900	3.310000	-9.941400	26.689150	9.661458E-5	20.747357
2046.572501	-3.006200	3.309200	-9.947300	26.691980	9.466744E-5	20.760634
2047.567126	-2.998700	3.310700	-9.927100	26.717626	9.493146E-5	20.744692
2048.568830	-2.993400	3.310500	-9.909000	26.709479	9.341335E-5	20.739345
2049.574780	-2.982000	3.310400	-9.870800	26.762869	9.519548E-5	20.732805
2050.576096	-3.000700	3.308000	-9.925500	26.759568	9.506347E-5	20.738969
2051.572410	-2.989100	3.308100	-9.887200	26.760096	9.420541E-5	20.728120
2052.573015	-2.999400	3.308000	-9.921200	26.779229	9.598754E-5	20.747357
2053.570491	-3.001600	3.307700	-9.927500	26.801069	9.615255E-5	20.756514
2054.570374	-2.988400	3.307800	-9.883900	26.789181	9.347936E-5	20.748355
2055.568825	-2.973800	3.306800	-9.833100	26.830079	9.575652E-5	20.758656
2056.571640	-2.985800	3.307200	-9.873900	26.909553	9.113618E-5	20.744684
2057.570354	-2.995400	3.306500	-9.902800	26.927520	9.140020E-5	20.758958
2058.573304	-3.017800	3.305300	-9.974500	26.901065	9.295132E-5	20.753693
2059.582184	-3.001100	3.305400	-9.918500	26.950950	9.354536E-5	20.758337
2060.576407	-2.990700	3.306200	-9.886800	26.874456	9.080616E-5	20.755860
2061.578896	-2.986700	3.304600	-9.869100	26.841121	9.222526E-5	20.750792
2062.578059	-3.003600	3.303600	-9.922200	26.843486	8.961807E-5	20.740367
2063.578990	-2.993500	3.304800	-9.892500	26.774757	9.202725E-5	20.732429
2064.577877	-3.001200	3.303000	-9.912200	26.749071	8.925505E-5	20.746908
2065.580179	-2.998900	3.303600	-9.905600	26.772814	8.925505E-5	20.735692
2066.578720	-3.006100	3.303300	-9.929400	26.795588	9.087217E-5	20.747684
2067.580505	-3.000100	3.301900	-9.905600	26.851601	9.024512E-5	20.731456
2068.584763	-3.012400	3.302100	-9.946000	26.902536	8.753892E-5	20.758492
2069.584885	-3.018200	3.301900	-9.964600	26.884471	8.869401E-5	20.723730
2070.583710	-3.006000	3.301000	-9.921800	26.889805	8.773694E-5	20.730516
2071.581162	-3.005600	3.301000	-9.919900	26.874243	8.869401E-5	20.737628
2072.582071	-3.005500	3.301400	-9.921500	26.904252	8.707689E-5	20.730344
2073.584071	-2.991500	3.300100	-9.871500	26.944901	8.846299E-5	20.758892
2074.582061	-2.997600	3.300300	-9.891500	26.987118	8.555878E-5	20.726427
2075.578802	-3.018700	3.300100	-9.961000	27.022952	8.836398E-5	20.753930
2076.585079	-2.977400	3.301300	-9.829200	26.964192	8.536076E-5	20.739884
2077.594853	-3.001400	3.299400	-9.901500	26.944738	8.618582E-5	20.716526
2078.579660	-3.013700	3.299000	-9.940700	26.968265	8.704389E-5	20.720745
2079.581829	-3.017300	3.297400	-9.948400	26.949055	8.661485E-5	20.745999
2080.584072	-3.017800	3.298900	-9.954200	26.942803	8.565778E-5	20.743980
2081.580243	-3.000000	3.298900	-9.895900	26.930218	8.625183E-5	20.731798
2082.584127	-2.989900	3.297400	-9.857300	26.948332	8.380965E-5	20.722037
2083.580994	-2.971400	3.297800	-9.798000	27.004400	8.466771E-5	20.721521
2084.581859	-2.983100	3.297800	-9.836300	27.020407	8.503074E-5	20.724816
2085.585534	-2.992600	3.296400	-9.863900	27.003286	8.499774E-5	20.710917
2086.583035	-3.008100	3.295200	-9.911700	27.001742	8.258856E-5	20.742083
2087.583494	-2.996700	3.296700	-9.878000	26.985792	8.136747E-5	20.720352
2088.586586	-2.997700	3.295400	-9.877400	26.958769	8.103745E-5	20.732533
2089.585487	-3.002600	3.295200	-9.893800	26.959265	8.176350E-5	20.737300
2090.589106	-3.004500	3.294900	-9.899100	26.946461	8.305059E-5	20.725846
2091.587173	-3.005300	3.294700	-9.901400	26.914397	8.199452E-5	20.737226
2092.588234	-3.020500	3.294200	-9.948800	26.920827	7.915631E-5	20.732787
2093.588628	-3.014000	3.293600	-9.925600	26.889933	8.285258E-5	20.738231
2094.586179	-3.013000	3.293100	-9.921400	26.929283	8.100444E-5	20.747454
2095.588206	-3.006300	3.293200	-9.899300	26.983630	8.120246E-5	20.732877
2096.590935	-2.982400	3.292900	-9.819600	27.012342	8.182950E-5	20.711490
2097.590502	-2.987700	3.293200	-9.838600	26.976491	8.169749E-5	20.730915
2098.587120	-3.001800	3.292000	-9.881500	26.923104	8.024539E-5	20.735076
2099.592648	-2.994600	3.291500	-9.856000	26.987710	8.034440E-5	20.723229
2100.588004	-3.005800	3.291500	-9.892600	26.993563	7.935432E-5	20.725797
2101.587874	-2.996400	3.290600	-9.859500	27.016439	7.819924E-5	20.707075
2102.596267	-3.016600	3.290000	-9.923500	27.005595	8.041040E-5	20.723671
2103.591798	-2.988900	3.290600	-9.833900	26.998506	7.796822E-5	20.731241
2104.591444	-3.023900	3.288100	-9.941700	27.048606	7.866127E-5	20.714768
2105.591827	-2.999500	3.289100	-9.864900	27.019918	7.902430E-5	20.718635
2106.588430	-3.004800	3.288100	-9.878900	27.035258	7.869428E-5	20.711775
2107.591695	-2.997100	3.288400	-9.855300	27.028275	7.559205E-5	20.721824
2108.592202	-3.005800	3.288300	-9.882700	27.069944	7.595507E-5	20.733858
2109.591894	-3.006100	3.288100	-9.883400	27.083536	7.671413E-5	20.721922
2110.590803	-3.005000	3.288200	-9.880800	27.142272	7.460198E-5	20.728838
2111.592923	-2.996100	3.286800	-9.846900	27.124235	7.608708E-5	20.704058
2112.595425	-3.016200	3.286700	-9.911700	27.109449	7.361190E-5	20.734708
2113.595348	-2.980600	3.286700	-9.795400	27.039721	7.499800E-5	20.704409
2114.597799	-2.993700	3.286300	-9.837000	26.950355	7.318287E-5	20.720278
2115.594653	-2.991100	3.285400	-9.826000	26.895681	7.354590E-5	20.717932
2116.595696	-2.979300	3.286800	-9.790900	26.877828	7.460198E-5	20.730327
2117.595058	-2.983000	3.284900	-9.798100	26.942087	7.433796E-5	20.711490
2118.592797	-3.001300	3.286600	-9.863600	26.922925	7.120273E-5	20.699333
2119.595193	-3.033400	3.282700	-9.957600	26.968785	7.288585E-5	20.720794
2120.592144	-2.991500	3.284000	-9.823400	27.010124	7.470098E-5	20.710681
2121.595684	-3.026900	3.283500	-9.937200	27.040592	7.390893E-5	20.715243
2122.600765	-3.004000	3.283600	-9.863100	27.072677	7.120273E-5	20.723803
2123.601340	-3.006600	3.283800	-9.872400	27.033805	7.202779E-5	20.722643
2124.593121	-2.984700	3.282100	-9.795600	27.002093	7.318287E-5	20.696914
2125.598734	-2.975000	3.281200	-9.761100	27.066110	7.169776E-5	20.715776
2126.598382	-2.997300	3.281800	-9.835900	27.109606	7.291885E-5	20.723486
2127.595754	-3.002500	3.280800	-9.850200	27.117662	7.087270E-5	20.709776
2128.605023	-3.013300	3.278900	-9.879500	27.164245	6.862854E-5	20.718221
2129.599196	-2.995700	3.282500	-9.833300	27.127384	7.027866E-5	20.727615
2130.598958	-2.987500	3.279100	-9.795900	27.119401	6.981663E-5	20.707732
2131.595833	-3.013000	3.279400	-9.879900	27.085002	7.034466E-5	20.697316
2132.597496	-3.002100	3.279400	-9.844100	27.056706	6.635137E-5	20.713905
2133.597049	-2.985000	3.279100	-9.787600	27.039635	6.810050E-5	20.707643
2134.597540	-2.988800	3.278900	-9.799000	27.026004	6.902457E-5	20.711952
2135.597396	-2.978700	3.278000	-9.763100	27.033547	6.810050E-5	20.702468
2136.600639	-3.002300	3.279800	-9.846700	27.068713	6.879355E-5	20.706065
2137.601088	-3.014900	3.276900	-9.878600	27.135115	6.862854E-5	20.714053
2138.600840	-3.002400	3.277600	-9.839100	27.201407	6.882655E-5	20.700122
2139.601758	-3.011700	3.276100	-9.866000	27.217232	6.747345E-5	20.698021
2140.598551	-2.976000	3.276300	-9.748800	27.195425	6.635137E-5	20.716391
2141.602848	-2.975300	3.275700	-9.745400	27.166019	6.555931E-5	20.710047
2142.597829	-2.965400	3.276900	-9.716900	27.204651	6.572433E-5	20.720455
2143.600286	-2.993100	3.275100	-9.801800	27.229741	6.529529E-5	20.721035
2144.596522	-2.989000	3.275200	-9.789200	27.267793	6.460224E-5	20.700989
2145.599388	-3.002800	3.274800	-9.832300	27.282853	6.588934E-5	20.721354
2146.600125	-3.005800	3.273300	-9.837500	27.290322	6.592234E-5	20.693778
2147.600301	-2.992600	3.274200	-9.797700	27.251498	6.430522E-5	20.710677
2148.597701	-3.004800	3.272100	-9.830900	27.237771	6.470125E-5	20.719629
2149.603682	-3.004000	3.272500	-9.829300	27.258268	6.542730E-5	20.719858
2150.599867	-2.992300	3.273700	-9.794700	27.243736	6.410721E-5	20.700972
2151.600062	-3.020800	3.271200	-9.880800	27.269069	6.298513E-5	20.708910
2152.605630	-2.998800	3.271100	-9.808600	27.272864	6.209406E-5	20.698503
2153.605299	-3.004400	3.271000	-9.827300	27.293622	6.183004E-5	20.718910
2154.600163	-3.005100	3.271600	-9.831100	27.283755	6.136801E-5	20.705190
2155.598758	-3.011500	3.270100	-9.847500	27.230285	6.202806E-5	20.717789
2156.599515	-3.021300	3.270200	-9.879500	27.250612	6.093898E-5	20.718320
2157.597635	-2.994600	3.270400	-9.792300	27.248255	6.064195E-5	20.724959
2158.598361	-3.028200	3.268800	-9.897100	27.301789	5.935486E-5	20.700097
2159.599113	-2.986800	3.269300	-9.762800	27.310501	6.057595E-5	20.717871
2160.599922	-3.006200	3.268400	-9.824400	27.327900	6.110399E-5	20.709294
2161.604165	-3.005100	3.267400	-9.817900	27.280560	5.862881E-5	20.704348
2162.596647	-2.988300	3.268200	-9.764800	27.212128	5.909084E-5	20.718966
2163.602045	-3.004600	3.266200	-9.812400	27.150128	5.879382E-5	20.721566
2164.599087	-3.007600	3.265900	-9.821700	27.191344	5.810077E-5	20.702803
2165.602068	-2.999400	3.266500	-9.796400	27.199481	5.800176E-5	20.722367
2166.599544	-2.979200	3.267500	-9.733400	27.184696	5.757273E-5	20.702753
2167.597070	-2.989600	3.265700	-9.762800	27.264289	6.031193E-5	20.703628
2168.600010	-2.994900	3.265900	-9.780600	27.283486	6.001491E-5	20.703972
2169.600207	-2.987900	3.265600	-9.756500	27.340390	5.529556E-5	20.694356
2170.604150	-2.985800	3.264500	-9.746300	27.292084	5.701169E-5	20.717363
2171.600221	-3.005300	3.264700	-9.810900	27.310816	5.691268E-5	20.715817
2172.601442	-3.008200	3.263400	-9.816200	27.307094	5.823278E-5	20.685992
2173.608880	-3.002600	3.264500	-9.801600	27.341528	5.496554E-5	20.719685
2174.601809	-3.009300	3.262400	-9.816100	27.390506	5.770474E-5	20.729127
2175.603065	-2.984600	3.262700	-9.737400	27.379934	5.631864E-5	20.728448
2176.603124	-2.989200	3.261400	-9.748100	27.314497	5.661566E-5	20.712882
2177.605016	-2.995400	3.259500	-9.762600	27.276487	5.532856E-5	20.721589
2178.601596	-2.985500	3.262000	-9.737900	27.318862	5.272137E-5	20.729127
2179.602066	-3.021000	3.261200	-9.850000	27.281607	5.714370E-5	20.716307
2180.610964	-2.981000	3.260200	-9.717000	27.263694	5.615362E-5	20.721049
2181.608522	-3.008600	3.260300	-9.807500	27.324956	5.374445E-5	20.732886
2182.603762	-2.998000	3.259000	-9.770100	27.275340	5.324941E-5	20.717590
2183.601376	-3.009800	3.258600	-9.807100	27.291936	5.493254E-5	20.707730
2184.604887	-3.021000	3.258900	-9.843500	27.286311	5.239135E-5	20.727678
2185.604791	-3.029000	3.257300	-9.865900	27.268082	5.344743E-5	20.721669
2186.603562	-3.009600	3.256300	-9.799200	27.215139	5.169830E-5	20.703976
2187.601356	-3.017700	3.258900	-9.834200	27.211669	5.113726E-5	20.715659
2188.606974	-3.008200	3.257300	-9.798100	27.226143	5.037820E-5	20.703191
2189.603064	-2.994100	3.256500	-9.749100	27.182400	5.173130E-5	20.698547
2190.607090	-3.022100	3.256100	-9.839200	27.197387	5.140128E-5	20.709355
2191.607715	-2.998900	3.255700	-9.762500	27.224949	5.255636E-5	20.713844
2192.609797	-3.025200	3.254200	-9.844000	27.246389	5.027919E-5	20.725927
2193.607251	-2.991800	3.256300	-9.740900	27.272315	5.107125E-5	20.733514
2194.611811	-3.019100	3.253600	-9.822400	27.229402	5.037820E-5	20.720694
2195.605067	-3.002000	3.253500	-9.765100	27.301255	4.866208E-5	20.709518
2196.602945	-3.004000	3.253400	-9.772800	27.278531	5.126927E-5	20.725068
2197.610069	-3.005200	3.253200	-9.775400	27.240674	4.994917E-5	20.723024
2198.607968	-2.995700	3.252800	-9.743600	27.255214	4.866208E-5	20.737650
2199.603094	-3.013100	3.252500	-9.799500	27.285781	4.872808E-5	20.727618
2200.607293	-2.994300	3.251600	-9.735000	27.350154	4.961915E-5	20.724095
2201.609763	-2.995800	3.251400	-9.740200	27.368373	4.813404E-5	20.743372
2202.604506	-3.006000	3.250600	-9.770200	27.377995	4.915711E-5	20.735982
2203.607420	-3.014200	3.250900	-9.797800	27.330543	4.948714E-5	20.713376
2204.608569	-3.006700	3.250200	-9.771600	27.293314	4.846406E-5	20.724290
2205.605010	-3.005700	3.250400	-9.768300	27.268575	4.810103E-5	20.725010
2206.609595	-2.998700	3.250800	-9.747300	27.250166	4.509781E-5	20.753436
2207.610276	-2.991700	3.249500	-9.720400	27.281480	4.621990E-5	20.721396
2208.610169	-3.031900	3.247900	-9.845500	27.318914	4.790302E-5	20.744827
2209.610307	-3.017600	3.247700	-9.799200	27.382399	4.714396E-5	20.725238
2210.607091	-3.003500	3.247900	-9.753900	27.459572	4.846406E-5	20.737444
2211.611845	-3.021400	3.247700	-9.811800	27.531906	4.605488E-5	20.708748
2212.606919	-3.002700	3.248800	-9.754400	27.571345	4.816704E-5	20.719033
2213.604491	-3.006900	3.247100	-9.762900	27.606371	4.486680E-5	20.711601
2214.609532	-3.005000	3.245600	-9.752700	27.618720	4.750699E-5	20.718337
2215.606887	-3.013800	3.245100	-9.778600	27.565218	4.572486E-5	20.708126
2216.614827	-2.984700	3.246100	-9.687000	27.537000	4.516382E-5	20.732841
2217.617867	-3.003700	3.245200	-9.746600	27.556866	4.489980E-5	20.736234
2218.610663	-2.991000	3.244900	-9.704500	27.499826	4.262263E-5	20.722940
2219.607344	-3.004600	3.244800	-9.747500	27.470159	4.480079E-5	20.724861
2220.610612	-3.008100	3.244100	-9.757100	27.459823	4.513082E-5	20.717780
2221.619595	-3.017200	3.243100	-9.784200	27.480064	4.598888E-5	20.749526
2222.615918	-3.003500	3.243000	-9.739500	27.519204	4.404174E-5	20.730109
2223.608678	-2.980300	3.243700	-9.666400	27.532400	4.661593E-5	20.726316
2224.607527	-3.028100	3.241900	-9.816100	27.508609	4.440476E-5	20.736045
2225.607846	-3.028200	3.241000	-9.813400	27.531660	4.298566E-5	20.730788
2226.610396	-2.982100	3.244000	-9.673100	27.513134	4.183057E-5	20.720208
2227.609475	-3.000800	3.242200	-9.728900	27.459530	3.971842E-5	20.734556
2228.608101	-3.001900	3.240700	-9.727300	27.431276	4.242462E-5	20.726520
2229.610247	-2.984400	3.240400	-9.669800	27.388540	4.367871E-5	20.740426
2230.611642	-2.967200	3.241100	-9.616600	27.366387	4.324968E-5	20.738529
2231.610455	-3.009400	3.238700	-9.744900	27.372815	4.282065E-5	20.719865
2232.613718	-2.979900	3.239700	-9.653500	27.397771	4.440476E-5	20.721263
2233.614898	-2.988200	3.238900	-9.677800	27.472514	4.239162E-5	20.726756
2234.613163	-2.999800	3.236900	-9.709400	27.542556	4.150055E-5	20.727525
2235.614262	-2.998800	3.236900	-9.705800	27.556750	4.117053E-5	20.737540
2236.614825	-3.005200	3.236800	-9.725900	27.522917	4.202859E-5	20.758976
2237.618749	-3.012900	3.235400	-9.747200	27.501580	4.031246E-5	20.744620
2238.618866	-2.985500	3.236600	-9.662400	27.495241	4.179757E-5	20.727811
2239.615487	-2.974200	3.236700	-9.625100	27.471652	4.097251E-5	20.753392
2240.617076	-3.003200	3.234900	-9.714600	27.496760	3.968542E-5	20.734555
2241.617198	-3.001800	3.234600	-9.708700	27.499937	3.988343E-5	20.738700
2242.615554	-2.984100	3.235200	-9.653700	27.456384	3.816731E-5	20.746565
2243.613838	-2.985900	3.236000	-9.661300	27.473350	3.991643E-5	20.739452
2244.616555	-3.004800	3.232800	-9.712800	27.500165	3.971842E-5	20.757421
2245.613528	-3.018000	3.233000	-9.756000	27.598689	4.070849E-5	20.745125
2246.616154	-2.984100	3.233100	-9.647200	27.654765	3.793629E-5	20.741806
2247.613427	-2.990600	3.233900	-9.670500	27.683711	3.981743E-5	20.735846
2248.616901	-2.987600	3.232900	-9.657700	27.751440	3.905837E-5	20.721972
2249.616192	-2.984000	3.230700	-9.638900	27.765777	3.895936E-5	20.745411
2250.616731	-3.002000	3.231000	-9.698800	27.706832	3.707823E-5	20.739197
2251.620604	-2.995200	3.230500	-9.675400	27.606838	3.777128E-5	20.737202
2252.617647	-2.979700	3.230400	-9.625300	27.578019	3.506508E-5	20.742345
2253.617077	-2.987700	3.232000	-9.655500	27.480150	3.625317E-5	20.751983
2254.613601	-2.993900	3.228900	-9.665800	27.432671	3.490007E-5	20.764909
2255.617407	-2.966600	3.231100	-9.585200	27.462915	3.602215E-5	20.753610
2256.612615	-2.993200	3.229000	-9.663800	27.500350	3.638517E-5	20.748598
2257.615566	-2.997000	3.229100	-9.677600	27.619601	3.727624E-5	20.743881
2258.620279	-2.991700	3.227900	-9.655900	27.639993	3.565912E-5	20.768668
2259.612783	-2.983900	3.227100	-9.628800	27.652464	3.582413E-5	20.756087
2260.621028	-2.985200	3.226300	-9.630200	27.673278	3.697922E-5	20.757591
2261.618740	-3.009200	3.226500	-9.708800	27.595096	3.499907E-5	20.756208
2262.620000	-3.019800	3.226800	-9.743800	27.586979	3.417401E-5	20.750886
2263.624640	-2.983700	3.226100	-9.624000	27.602432	3.638517E-5	20.751262
2264.620873	-2.987600	3.226100	-9.637500	27.600775	3.460304E-5	20.736792
2265.618536	-3.007600	3.223600	-9.694800	27.536368	3.414101E-5	20.751646
2266.623873	-3.017800	3.224900	-9.730900	27.583095	3.430602E-5	20.762152
2267.621875	-3.027700	3.222900	-9.757200	27.656257	3.377798E-5	20.757533
2268.633526	-3.006100	3.223900	-9.690300	27.700533	3.298593E-5	20.742817
2269.621575	-3.003200	3.222200	-9.675900	27.676226	3.377798E-5	20.763876
2270.632369	-3.009400	3.221300	-9.693700	27.721939	3.377798E-5	20.768626
2271.623254	-2.994600	3.222800	-9.650300	27.768366	3.427302E-5	20.744222
2272.620129	-2.981800	3.221100	-9.603600	27.773077	3.268890E-5	20.755602
2273.622140	-2.999900	3.220200	-9.659200	27.826414	3.414101E-5	20.769451
2274.624303	-3.015200	3.219700	-9.707200	27.844276	3.209486E-5	20.758030
2275.623527	-3.013100	3.218500	-9.696800	27.833831	3.110479E-5	20.749888
2276.624765	-3.032900	3.218200	-9.760000	27.770299	3.245789E-5	20.790740
2277.627136	-2.999700	3.218900	-9.653900	27.707617	3.371198E-5	20.781714
2278.623615	-3.002600	3.218700	-9.664300	27.773305	3.037873E-5	20.756780
2279.629648	-3.002900	3.217700	-9.661800	27.770851	2.948767E-5	20.789873
2280.629356	-3.003500	3.218700	-9.665600	27.700597	3.239188E-5	20.778918
2281.622832	-2.994100	3.219600	-9.638700	27.645483	3.163283E-5	20.752381
2282.623373	-3.009800	3.217600	-9.683500	27.724401	3.173183E-5	20.755455
2283.625396	-3.003500	3.215500	-9.656900	27.812800	3.008171E-5	20.751956
2284.626777	-3.017900	3.216200	-9.704800	27.788821	3.159982E-5	20.782826
2285.630150	-2.998500	3.216300	-9.643000	27.676136	2.965268E-5	20.788917
2286.625119	-2.968100	3.215000	-9.541800	27.619363	3.087377E-5	20.764032
2287.627723	-2.986000	3.214900	-9.599200	27.586922	2.909164E-5	20.770269
2288.626134	-2.992000	3.214400	-9.616300	27.569713	2.889362E-5	20.790887
2289.635436	-3.002800	3.212100	-9.644400	27.656980	3.130280E-5	20.776753
2290.635922	-2.977900	3.212900	-9.565700	27.662610	3.027973E-5	20.784789
2291.626553	-2.997700	3.212400	-9.628800	27.713418	2.843159E-5	20.754835
2292.628139	-2.987900	3.211300	-9.594400	27.782038	2.783755E-5	20.779794
2293.635810	-2.999100	3.211300	-9.630000	27.820372	2.820057E-5	20.791345
2294.629192	-3.007200	3.210600	-9.654300	27.850744	2.886062E-5	20.759323
2295.631474	-3.008600	3.209200	-9.654400	27.810543	2.763953E-5	20.774816
2296.640390	-3.010600	3.212200	-9.670500	27.759642	3.024672E-5	20.786179
2297.633795	-3.004200	3.209200	-9.639800	27.795589	2.697948E-5	20.767826
2298.634495	-3.006000	3.209500	-9.647100	27.741349	2.664946E-5	20.777252
2299.633847	-2.979800	3.210400	-9.566000	27.691005	2.664946E-5	20.789180
2300.628627	-3.013400	3.207100	-9.663300	27.743152	2.688048E-5	20.790447
2301.630025	-2.997200	3.207800	-9.613900	27.757678	2.714450E-5	20.774719
2302.635890	-2.976800	3.206600	-9.544000	27.670038	2.783755E-5	20.793685
2303.632875	-2.999800	3.208000	-9.622800	27.675733	2.450430E-5	20.770018
2304.632322	-2.995700	3.206600	-9.605100	27.749733	2.450430E-5	20.805605
2305.642425	-2.997600	3.204700	-9.605800	27.817621	2.572539E-5	20.797586
2306.635746	-2.991100	3.204500	-9.584400	27.830268	2.638544E-5	20.794193
2307.635411	-2.971900	3.204400	-9.522000	27.813600	2.526336E-5	20.793539
2308.640334	-3.004000	3.203600	-9.622400	27.802861	2.658346E-5	20.804069
2309.638271	-2.998500	3.204200	-9.606800	27.844345	2.816757E-5	20.787972
2310.634657	-3.012900	3.205100	-9.655800	27.824631	2.486733E-5	20.781882
2311.637571	-3.012600	3.202300	-9.647000	27.722529	2.684747E-5	20.802884
2312.640559	-3.004900	3.202200	-9.621600	27.753853	2.523036E-5	20.786517
2313.639299	-2.994400	3.201400	-9.585300	27.712983	2.546137E-5	20.803235
2314.636606	-2.983800	3.200900	-9.550100	27.670048	2.625343E-5	20.788480
2315.642517	-2.998700	3.201800	-9.600600	27.701781	2.387726E-5	20.811403
2316.639359	-2.993300	3.199600	-9.576000	27.798021	2.661646E-5	20.792086
2317.643861	-3.028800	3.199600	-9.689800	27.871371	2.417428E-5	20.799051
2318.642530	-2.978600	3.199000	-9.527400	27.940249	2.559338E-5	20.789192
2319.640577	-3.004500	3.197800	-9.605400	27.936375	2.331622E-5	20.799517
2320.639710	-3.016600	3.197400	-9.643900	27.896210	2.391026E-5	20.786118
2321.641768	-2.989400	3.198800	-9.561900	27.876993	2.668246E-5	20.798070
2322.643464	-2.999100	3.197100	-9.587300	27.878487	2.400927E-5	20.815221
2323.642950	-3.011100	3.195700	-9.622500	27.915965	2.582440E-5	20.824018
2324.642956	-3.005100	3.196400	-9.604700	27.955333	2.424028E-5	20.805322
2325.647082	-3.010900	3.196600	-9.624200	27.986521	2.222714E-5	20.826283
2326.644611	-2.972900	3.195500	-9.499300	27.980844	2.430629E-5	20.813456
2327.650187	-3.014400	3.193800	-9.626100	27.960564	2.166609E-5	20.814854
2328.652678	-3.005700	3.193600	-9.598000	27.909418	2.470232E-5	20.819800
2329.644564	-3.024900	3.192600	-9.656600	27.952670	2.288718E-5	20.791736
2330.646357	-2.975300	3.192700	-9.497700	27.991273	2.235914E-5	20.807832
2331.647833	-3.005100	3.190700	-9.587600	28.032449	2.427329E-5	20.819882
2332.648262	-2.990000	3.191700	-9.542300	28.020446	2.298619E-5	20.812541
2333.641830	-2.987600	3.191200	-9.533400	28.023475	2.427329E-5	20.814642
2334.644238	-2.969700	3.193500	-9.483200	27.957373	2.268917E-5	20.822548
2335.641575	-3.004700	3.192000	-9.590100	27.871723	2.179810E-5	20.819319
2336.644874	-2.995200	3.189300	-9.551600	27.868897	2.027999E-5	20.818371
2337.646689	-2.998900	3.188900	-9.562000	27.860416	1.958694E-5	20.815526
2338.645080	-3.023700	3.187500	-9.637000	27.909834	2.074203E-5	20.814529
2339.652077	-2.992400	3.188000	-9.539000	27.868572	2.166609E-5	20.823260
2340.648530	-2.991300	3.188000	-9.535600	27.865891	2.001597E-5	20.810605
2341.644315	-3.011800	3.185200	-9.592600	27.927582	2.156709E-5	20.810106
2342.644126	-2.996400	3.185900	-9.545200	27.914171	2.024699E-5	20.814627
2343.651607	-3.018400	3.184400	-9.611400	27.882795	2.222714E-5	20.818609
2344.647279	-3.021200	3.182800	-9.614900	27.879229	1.945493E-5	20.836356
2345.645349	-2.983500	3.183900	-9.498200	27.921303	2.001597E-5	20.819434
2346.648411	-2.998700	3.183500	-9.545200	27.892818	2.087404E-5	20.842920
2347.651080	-2.993800	3.183300	-9.529400	27.896603	1.816784E-5	20.840092
2348.648992	-2.980600	3.183500	-9.488400	27.856063	1.754079E-5	20.842912
2349.645853	-2.984500	3.181700	-9.493900	27.869580	1.721077E-5	20.837076
2350.645915	-3.002900	3.182200	-9.555300	27.840070	1.750779E-5	20.843885
2351.649827	-3.006600	3.181100	-9.562900	27.875030	1.869588E-5	20.829759
2352.650517	-2.981700	3.181400	-9.485800	27.948050	2.189711E-5	20.824544
2353.650148	-2.986300	3.179700	-9.494200	27.961492	1.661672E-5	20.830961
2354.650695	-2.981200	3.179500	-9.477600	27.989033	1.952094E-5	20.820276
2355.649631	-3.005500	3.178000	-9.549800	27.906367	1.661672E-5	20.830479
2356.654434	-2.987300	3.177600	-9.491800	27.932180	1.767280E-5	20.836070
2357.652246	-3.002100	3.177300	-9.537700	27.960761	1.734278E-5	20.847769
2358.651688	-3.007800	3.176700	-9.553600	28.032216	1.889389E-5	20.836716
2359.657044	-3.014100	3.175500	-9.570400	28.025012	1.740878E-5	20.849378
2360.649414	-3.028600	3.175400	-9.615700	28.081943	1.480159E-5	20.845521
2361.649180	-2.995700	3.175300	-9.511500	28.107646	1.862987E-5	20.826825
2362.648423	-3.019100	3.174500	-9.583200	28.069891	1.757379E-5	20.847140
2363.651495	-2.994000	3.173100	-9.499400	28.038625	1.747479E-5	20.842219
2364.657539	-2.991000	3.173500	-9.491800	28.028782	1.697975E-5	20.826621
2365.649483	-3.008400	3.172100	-9.542100	27.933626	1.503261E-5	20.838475
2366.654372	-3.013000	3.170400	-9.551700	27.875129	1.734278E-5	20.843135
2367.655027	-3.013300	3.171200	-9.555000	27.883893	1.483459E-5	20.850532
2368.651388	-3.006800	3.170500	-9.532800	27.921102	1.651772E-5	20.835352
2369.659305	-3.004900	3.169900	-9.524400	28.023714	1.780481E-5	20.858978
2370.649699	-2.988400	3.170300	-9.473100	28.043051	1.354750E-5	20.851416
2371.653230	-3.004600	3.167900	-9.517000	28.016795	1.658372E-5	20.856754
2372.650662	-2.968900	3.167700	-9.402600	28.004799	1.321747E-5	20.851318
2373.651726	-2.991100	3.166000	-9.468600	27.971005	1.688074E-5	20.844803
2374.653975	-2.991400	3.167400	-9.473500	27.953429	1.486759E-5	20.854612
2375.655392	-2.975300	3.166800	-9.420800	27.986281	1.470258E-5	20.844059
2376.654542	-2.986500	3.166200	-9.454800	28.007650	1.565965E-5	20.846127
2377.655366	-3.016600	3.163700	-9.542600	28.028652	1.523062E-5	20.844982
2378.657514	-2.994700	3.162700	-9.470400	28.067894	1.239241E-5	20.850819
2379.664111	-3.000400	3.161700	-9.486300	28.102928	1.107231E-5	20.852421
2380.658512	-3.012000	3.161400	-9.521700	28.131586	1.486759E-5	20.827692
2381.653203	-2.997000	3.160400	-9.470800	28.061275	1.367951E-5	20.860751
2382.653498	-3.002400	3.160400	-9.487700	28.026946	1.249142E-5	20.853222
2383.655974	-2.953100	3.160800	-9.332800	28.108856	1.615469E-5	20.834208
2384.654259	-2.995300	3.159400	-9.462500	28.140413	1.453757E-5	20.841320
2385.655949	-2.975400	3.158500	-9.397200	28.149191	1.348149E-5	20.816018
2386.657687	-2.992600	3.158300	-9.450800	28.177848	1.523062E-5	20.843919
2387.663349	-2.985000	3.158800	-9.428400	28.172375	1.252442E-5	20.839357
2388.657301	-2.990000	3.157500	-9.440100	28.143247	1.133633E-5	20.829000
2389.657457	-2.997100	3.156400	-9.459300	28.156735	1.285445E-5	20.832147
2390.654951	-2.996700	3.153800	-9.449800	28.200511	1.123733E-5	20.817898
2391.660832	-3.022300	3.153700	-9.530900	28.190889	1.239241E-5	20.830496
2392.657819	-2.991900	3.154500	-9.436500	28.176694	1.127033E-5	20.823318
2393.654960	-2.992400	3.153200	-9.435000	28.178505	1.262343E-5	20.841261
2394.656448	-2.995400	3.152200	-9.441300	28.216280	1.107231E-5	20.831877
2395.656013	-2.994600	3.151500	-9.436500	28.204733	9.686213E-6	20.841588
2396.656598	-2.958000	3.152200	-9.323000	28.262612	1.166636E-5	20.823048
2397.658241	-2.996400	3.150300	-9.438800	28.274710	9.587206E-6	20.828116
2398.657563	-3.019700	3.148200	-9.504900	28.188606	9.158174E-6	20.814447
2399.659231	-2.995000	3.147600	-9.426400	28.197823	1.272244E-5	20.826097
2400.660392	-2.984300	3.146100	-9.388400	28.233916	1.064328E-5	20.826873
2401.657407	-2.998900	3.145300	-9.431800	28.267929	1.103931E-5	20.825557
2402.660965	-2.984300	3.145000	-9.385000	28.208443	7.805075E-6	20.817349
2403.659899	-2.999600	3.144400	-9.431500	28.158991	7.970087E-6	20.833470
2404.660327	-2.987400	3.143900	-9.391300	28.085149	7.772072E-6	20.839265
2405.659449	-3.007500	3.144200	-9.455300	28.102430	7.079021E-6	20.830109
2406.661008	-2.980000	3.144600	-9.370400	28.080592	9.917230E-6	20.810023
2407.662347	-3.001000	3.142000	-9.428600	28.154174	8.036092E-6	20.827199
2408.664846	-3.001800	3.141600	-9.429800	28.129690	9.719215E-6	20.807292
2409.661524	-2.992700	3.139900	-9.396200	28.154824	8.531128E-6	20.820740
2410.660412	-2.995800	3.140300	-9.406200	28.190423	1.087430E-5	20.812957
2411.658307	-2.997300	3.138600	-9.405900	28.176123	8.795147E-6	20.817053
2412.659205	-2.985200	3.137700	-9.365600	28.182424	6.980014E-6	20.823870
2413.661431	-3.007400	3.136200	-9.431300	28.137956	8.201104E-6	20.809924
2414.662607	-3.017000	3.135400	-9.457900	28.148545	9.356189E-6	20.822006
2415.657995	-3.025100	3.134100	-9.479800	28.169723	7.937084E-6	20.791170
2416.661273	-2.991400	3.134900	-9.377300	28.160223	7.376043E-6	20.828546
2417.663258	-2.993000	3.134100	-9.379500	28.134911	6.253960E-6	20.807332
2418.663424	-2.986000	3.133600	-9.356400	28.130802	4.999868E-6	20.813307
2419.662478	-3.006500	3.132400	-9.415800	28.176341	6.253960E-6	20.821540
2420.664208	-3.032600	3.130200	-9.491100	28.203194	6.319965E-6	20.814435
2421.663682	-3.017900	3.128700	-9.440800	28.210315	4.405824E-6	20.802164
2422.666665	-3.012800	3.129900	-9.428700	28.167425	4.306817E-6	20.806874
2423.665968	-2.988500	3.128200	-9.347900	28.169536	4.405824E-6	20.811844
2424.670090	-2.984300	3.128400	-9.334400	28.220247	5.692919E-6	20.805051
2425.664518	-2.997300	3.127900	-9.374600	28.268567	4.834856E-6	20.809603
2426.664603	-2.991800	3.125500	-9.349100	28.236437	5.296890E-6	20.806653
2427.667783	-2.989700	3.124900	-9.340600	28.252108	8.234106E-6	20.794929
2428.663642	-3.002600	3.124500	-9.380800	28.303960	6.055946E-6	20.787392
2429.668247	-2.988500	3.123700	-9.333900	28.212970	4.240812E-6	20.786820
2430.663470	-2.987800	3.122500	-9.328400	28.175146	5.197883E-6	20.783353
2431.667115	-2.987200	3.121500	-9.323800	28.245742	6.583985E-6	20.775243
2432.667513	-2.978200	3.120400	-9.292800	28.335933	4.207810E-6	20.807731
2433.664711	-3.006100	3.119200	-9.375500	28.363497	3.679771E-6	20.786174
2434.668706	-2.989100	3.117900	-9.319400	28.297813	4.240812E-6	20.788790
2435.663432	-3.019900	3.116700	-9.411200	28.332937	2.095654E-6	20.781007
2436.665119	-2.990500	3.117200	-9.321200	28.431133	4.438827E-6	20.778889
2437.668709	-2.992700	3.116400	-9.325400	28.390102	4.009795E-6	20.794945
2438.666188	-2.976300	3.115100	-9.270700	28.362270	3.118730E-6	20.795370
2439.665388	-3.006400	3.114700	-9.363400	28.404050	1.930642E-6	20.790024
2440.667675	-2.994900	3.113700	-9.324900	28.355897	3.811781E-6	20.785633
2441.665763	-3.012600	3.111900	-9.374600	28.287468	2.689698E-6	20.797340
2442.669854	-3.003900	3.110900	-9.344400	28.284943	2.128657E-6	20.787211
2443.666718	-2.992500	3.109700	-9.304400	28.238937	1.798632E-6	20.793048
2444.673008	-3.011700	3.109000	-9.362600	28.215072	2.128657E-6	20.789410
2445.670985	-3.001300	3.109000	-9.330300	28.182722	1.732628E-6	20.785290
2446.666356	-3.007700	3.106200	-9.341400	28.213611	1.171586E-6	20.780826
2447.671260	-3.018700	3.105800	-9.374100	28.212742	2.623693E-6	20.780900
2448.676923	-3.008600	3.105200	-9.341300	28.224451	2.755703E-6	20.783679
2449.666867	-2.974800	3.104300	-9.234200	28.311599	2.887713E-6	20.805989
2450.666941	-2.974000	3.104400	-9.231600	28.253852	2.161659E-6	20.779615
2451.670213	-3.018500	3.101300	-9.360500	28.240138	1.006574E-6	20.783352
2452.667104	-3.026800	3.100200	-9.383100	28.269020	1.072579E-6	20.783507
2453.664623	-3.009500	3.099600	-9.327800	28.305411	1.485109E-7	20.769413
2454.673482	-2.996900	3.099600	-9.288600	28.325612	1.501611E-6	20.779321
2455.667097	-3.016700	3.098000	-9.343700	28.358470	-1.171586E-6	20.767835
2456.669321	-3.030500	3.096400	-9.382600	28.395061	8.250607E-8	20.771489
2457.670565	-3.010400	3.096100	-9.318500	28.416055	-2.475182E-7	20.790259
2458.674306	-2.998800	3.095200	-9.281600	28.370631	2.145158E-7	20.780081
2459.676995	-3.016100	3.094700	-9.333000	28.395840	1.336598E-6	20.782705
2460.678619	-3.006300	3.093800	-9.300200	28.320723	-9.405693E-7	20.788623
2461.672784	-3.015600	3.091900	-9.323100	28.300222	1.105581E-6	20.775568
2462.678308	-2.997500	3.090700	-9.263300	28.244554	-1.699625E-6	20.785901
2463.677188	-3.000700	3.089900	-9.270200	28.257927	-4.950365E-8	20.755268
2464.677392	-3.006800	3.089000	-9.287300	28.280605	-1.204589E-6	20.772886
2465.677833	-2.991400	3.087000	-9.233800	28.391081	8.085595E-7	20.776016
2466.680287	-2.984800	3.087800	-9.215200	28.477891	1.204589E-6	20.766705
2467.675258	-2.997500	3.086300	-9.250700	28.554375	-1.501611E-6	20.765020
2468.674159	-3.014800	3.085400	-9.301100	28.540121	-6.765498E-7	20.769631
2469.686966	-2.991800	3.084300	-9.226500	28.552192	-8.745644E-7	20.769459
2470.675235	-2.962400	3.083200	-9.132600	28.570188	-2.689698E-6	20.760556
2471.681272	-2.962900	3.083000	-9.133300	28.589036	-2.458681E-6	20.750615
2472.675476	-3.019100	3.080700	-9.300400	28.552768	-2.788705E-6	20.764824
2473.680914	-3.012300	3.078100	-9.270600	28.548660	-7.095522E-7	20.751203
2474.680383	-2.988300	3.079100	-9.200600	28.424414	-2.062652E-6	20.781133
2475.680003	-2.980900	3.077800	-9.173400	28.368014	-2.821708E-6	20.784084
2476.676248	-3.011700	3.076300	-9.264000	28.299391	-3.778778E-6	20.771886
2477.676700	-3.005900	3.075000	-9.242700	28.317920	-1.468608E-6	20.762092
2478.684646	-2.953800	3.074200	-9.079700	28.354066	-1.270594E-6	20.762452
2479.675692	-2.999000	3.072900	-9.215300	28.367258	-2.623693E-6	20.768149
2480.680436	-3.003900	3.072000	-9.227300	28.402624	-2.227664E-6	20.746387
2481.677740	-3.015800	3.071100	-9.261500	28.454646	-2.293669E-6	20.761789
2482.682038	-3.021200	3.068900	-9.271100	28.507981	-3.712773E-6	20.764765
2483.680086	-3.002400	3.068300	-9.212000	28.533998	-2.458681E-6	20.768206
2484.681925	-3.015200	3.068000	-9.250100	28.454191	-1.897640E-6	20.763227
2485.680966	-3.032600	3.065300	-9.295500	28.421677	-2.854710E-6	20.764625
2486.682798	-3.007700	3.064900	-9.217900	28.498670	-3.679771E-6	20.768190
2487.683954	-2.992000	3.062700	-9.162900	28.493254	-3.646769E-6	20.765107
2488.682665	-3.040800	3.060300	-9.304400	28.475419	-3.151732E-6	20.746197
2489.684303	-2.977700	3.062400	-9.117700	28.507704	-3.085727E-6	20.762589
2490.682376	-3.018100	3.060100	-9.234700	28.490347	-3.085727E-6	20.752222
2491.688224	-3.008200	3.058800	-9.200900	28.509473	-3.646769E-6	20.746352
2492.686296	-2.980400	3.058600	-9.114900	28.464751	-4.273815E-6	20.735454
2493.687527	-2.964500	3.057900	-9.063800	28.440494	-2.161659E-6	20.731889
2494.689250	-2.963300	3.057200	-9.058500	28.469614	-3.151732E-6	20.742248
2495.684819	-2.993100	3.053700	-9.138600	28.481434	-3.514759E-6	20.743719
2496.686581	-2.960000	3.053900	-9.038800	28.475126	-4.273815E-6	20.768662
2497.684127	-3.009200	3.050700	-9.179500	28.452330	-3.943790E-6	20.754715
2498.691732	-2.970000	3.050800	-9.059600	28.369756	-3.316744E-6	20.754069
2499.687287	-2.956600	3.050600	-9.018200	28.361824	-3.514759E-6	20.740865
2500.692391	-3.022700	3.047400	-9.209500	28.420489	-5.131878E-6	20.752049
2501.696677	-3.006100	3.047300	-9.159300	28.497888	-5.230885E-6	20.729943
2502.690779	-2.992900	3.046700	-9.118100	28.486904	-1.633620E-6	20.726468
2503.695642	-2.980900	3.045700	-9.077900	28.473331	-2.392676E-6	20.743620
2504.691994	-2.993400	3.043900	-9.110800	28.537169	-3.646769E-6	20.737734
2505.691175	-3.021300	3.041200	-9.187200	28.566335	-2.194662E-6	20.729174
2506.689362	-2.981200	3.041400	-9.065900	28.585346	-5.494905E-6	20.752588
2507.698145	-2.975700	3.041400	-9.049800	28.663422	-2.953718E-6	20.720271
2508.688476	-2.965300	3.038700	-9.010000	28.679623	-3.085727E-6	20.729002
2509.691101	-3.013000	3.037600	-9.151100	28.613723	-4.636841E-6	20.713362
2510.688570	-3.020600	3.037300	-9.173800	28.618650	-4.570837E-6	20.725437
2511.690700	-3.012100	3.035700	-9.143200	28.598479	-3.646769E-6	20.734046
2512.693550	-3.001000	3.033000	-9.101500	28.560523	-3.877786E-6	20.733278
2513.689811	-3.011900	3.032400	-9.132500	28.532055	-3.778778E-6	20.731634
2514.689747	-2.992900	3.030200	-9.067900	28.558745	-6.947012E-6	20.715839
2515.688713	-3.011000	3.030200	-9.122800	28.602310	-5.527907E-6	20.745017
2516.694928	-3.012000	3.028400	-9.120900	28.596579	-6.022944E-6	20.735452
2517.689844	-3.028800	3.026600	-9.166000	28.609218	-3.382749E-6	20.729688
2518.691123	-2.980800	3.026900	-9.021800	28.674362	-3.976793E-6	20.734610
2519.688827	-2.994700	3.024400	-9.055800	28.700505	-3.052725E-6	20.756201
2520.692429	-3.007300	3.022900	-9.090100	28.727127	-5.032871E-6	20.743660
2521.692003	-2.992700	3.021000	-9.040600	28.676619	-3.085727E-6	20.723606
2522.691355	-3.000200	3.020300	-9.060600	28.605191	-3.877786E-6	20.737962
2523.691521	-2.992200	3.020500	-9.037000	28.614453	-4.867859E-6	20.699872
2524.690391	-3.025500	3.016600	-9.125700	28.665272	-4.207810E-6	20.705537
2525.691484	-3.004100	3.016300	-9.060500	28.701000	-5.527907E-6	20.718291
2526.698619	-3.013500	3.014500	-9.083900	28.720771	-5.824929E-6	20.717817
2527.693729	-3.017800	3.014500	-9.096000	28.697527	-3.778778E-6	20.722854
2528.690884	-2.993700	3.013700	-9.021000	28.673169	-5.527907E-6	20.731512
2529.691590	-3.003900	3.010800	-9.043100	28.685758	-6.782000E-6	20.727121
2530.693721	-3.023100	3.008200	-9.093500	28.663283	-3.316744E-6	20.721554
2531.691231	-3.004800	3.008300	-9.038600	28.747003	-2.821708E-6	20.736180
2532.695503	-3.015100	3.007400	-9.066000	28.765288	-5.395897E-6	20.729468
2533.691144	-3.005900	3.005800	-9.033600	28.665288	-4.669844E-6	20.733531
2534.693623	-3.010500	3.004000	-9.042400	28.649721	-4.669844E-6	20.746775
2535.695861	-3.016200	3.002000	-9.052300	28.623861	-5.164880E-6	20.722151
2536.696131	-2.990000	3.002100	-8.975400	28.697770	-5.824929E-6	20.713141
2537.692912	-2.990100	2.998800	-8.965200	28.735349	-6.088948E-6	20.700731
2538.696880	-3.001000	2.999100	-8.999500	28.796517	-4.537834E-6	20.715406
2539.704766	-2.990400	2.997400	-8.962200	28.709255	-4.174807E-6	20.728503
2540.696922	-2.991700	2.995900	-8.961100	28.676944	-5.560910E-6	20.726779
2541.693810	-3.024000	2.994500	-9.054500	28.593674	-6.319965E-6	20.717352
2542.696667	-3.024000	2.992900	-9.049400	28.623918	-3.448754E-6	20.715096
2543.697371	-2.986500	2.990800	-8.930100	28.652465	-3.349747E-6	20.729149
2544.695398	-3.029500	2.989600	-9.055300	28.719628	-7.013017E-6	20.712398
2545.696928	-3.003600	2.989600	-8.979300	28.735016	-3.712773E-6	20.715096
2546.697564	-3.007300	2.987600	-8.983500	28.667253	-6.055946E-6	20.725078
2547.701179	-3.011000	2.986600	-8.992300	28.677269	-4.042798E-6	20.731373
2548.695089	-3.013500	2.985200	-8.995500	28.753740	-5.659917E-6	20.708351
2549.696754	-3.018700	2.981700	-8.998700	28.768657	-5.626914E-6	20.703462
2550.698636	-2.974300	2.982700	-8.869300	28.729514	-5.395897E-6	20.718088
2551.697179	-2.958200	2.981700	-8.819600	28.702625	-6.649990E-6	20.725618
2552.698019	-2.990800	2.979600	-8.910200	28.705181	-5.395897E-6	20.698794
2553.708785	-3.021800	2.977000	-8.994300	28.710903	-4.702846E-6	20.722102
2554.697204	-2.996100	2.976500	-8.917400	28.715928	-8.333114E-6	20.720051
2555.696144	-2.990900	2.974800	-8.896800	28.691368	-8.168102E-6	20.714753
2556.698775	-2.988500	2.972900	-8.883900	28.724149	-7.013017E-6	20.703675
2557.697722	-2.985000	2.972800	-8.873400	28.678828	-5.428900E-6	20.701173
2558.699340	-2.989900	2.970700	-8.881400	28.614081	-7.640063E-6	20.700446
2559.695789	-2.998800	2.967500	-8.897900	28.584421	-6.616987E-6	20.734587
2560.698805	-3.042000	2.965500	-9.019500	28.572895	-5.824929E-6	20.709227
2561.699019	-3.016300	2.965500	-8.943900	28.604731	-5.131878E-6	20.692450
2562.698667	-2.983700	2.965000	-8.846000	28.710831	-5.725922E-6	20.710649
2563.700875	-3.000800	2.962000	-8.887700	28.799636	-5.593912E-6	20.714280
2564.700128	-3.021900	2.960800	-8.946200	28.728687	-5.758924E-6	20.691649
2565.701333	-2.984600	2.959600	-8.831800	28.724345	-5.494905E-6	20.692492
2566.701010	-3.019900	2.957900	-8.931600	28.738930	-4.141805E-6	20.710503
2567.703404	-2.997400	2.956300	-8.860500	28.714233	-7.871080E-6	20.693211
2568.702543	-2.974100	2.955900	-8.790000	28.687303	-5.098876E-6	20.710184
2569.703444	-3.017000	2.953800	-8.911200	28.707667	-4.273815E-6	20.704616
2570.699559	-2.994200	2.953000	-8.841100	28.768326	-6.286963E-6	20.717829
2571.710890	-3.024900	2.948600	-8.919300	28.824794	-5.758924E-6	20.705958
2572.700005	-3.025000	2.947800	-8.916000	28.849887	-8.102097E-6	20.701837
2573.701698	-3.004600	2.946100	-8.851600	28.917540	-4.933863E-6	20.704559
2574.704381	-3.015100	2.945500	-8.880000	28.939539	-6.848004E-6	20.701117
2575.704700	-3.004400	2.945100	-8.846600	28.929623	-3.580764E-6	20.705353
2576.706885	-2.994300	2.942200	-8.809200	28.894008	-7.574058E-6	20.695550
2577.703475	-2.993100	2.941000	-8.801600	28.825362	-8.102097E-6	20.695623
2578.707267	-2.984200	2.939800	-8.771900	28.860510	-4.801854E-6	20.718229
2579.705152	-2.987300	2.936700	-8.772000	28.891590	-7.640063E-6	20.696433
2580.704393	-2.977300	2.936100	-8.739600	28.858115	-6.418973E-6	20.712972
2581.711151	-2.982800	2.934600	-8.752100	28.825630	-6.253961E-6	20.705852
2582.708244	-2.981000	2.932100	-8.739500	28.829793	-8.597133E-6	20.715736
2583.702333	-3.004000	2.932100	-8.807000	28.866604	-6.418973E-6	20.706824
2584.708561	-2.990200	2.929400	-8.758400	28.860234	-8.531128E-6	20.696613
2585.708195	-3.007100	2.928300	-8.804900	28.855308	-6.154953E-6	20.689753
2586.703963	-2.992000	2.925600	-8.752800	28.799791	-9.026165E-6	20.726291
2587.705418	-3.006100	2.923800	-8.788000	28.791838	-5.758924E-6	20.705475
2588.708493	-3.002400	2.923200	-8.775600	28.787374	-5.527907E-6	20.691495
2589.708935	-3.012600	2.921300	-8.799500	28.804839	-5.989941E-6	20.716202
2590.704986	-2.980200	2.920600	-8.703200	28.792844	-4.636841E-6	20.707912
2591.710140	-2.979300	2.917400	-8.689900	28.816014	-5.956939E-6	20.718450
2592.712382	-2.970200	2.916200	-8.659600	28.893732	-5.362895E-6	20.703807
2593.708660	-3.006000	2.914800	-8.760200	28.930379	-8.234107E-6	20.710856
2594.703618	-2.997200	2.911100	-8.723900	28.928537	-5.923936E-6	20.726545
2595.712331	-3.028100	2.910600	-8.812200	28.951055	-7.706068E-6	20.720781
2596.707226	-3.009100	2.907800	-8.748600	28.979892	-8.201104E-6	20.736560
2597.707741	-3.016400	2.907100	-8.768100	29.047781	-6.980014E-6	20.704912
2598.710992	-3.007200	2.904000	-8.732700	29.020187	-7.739070E-6	20.722155
2599.709086	-2.989900	2.902800	-8.678600	28.983723	-9.191177E-6	20.704381
2600.709254	-2.989300	2.901300	-8.672300	28.885683	-5.989941E-6	20.715140
2601.713970	-2.985000	2.899200	-8.653600	28.848297	-7.574058E-6	20.717781
2602.711226	-2.983800	2.899900	-8.652200	28.905889	-6.385970E-6	20.720798
2603.712831	-2.981900	2.895900	-8.634000	28.950771	-6.088948E-6	20.711960
2604.706740	-2.997800	2.894600	-8.676600	28.946333	-7.046019E-6	20.729775
2605.711670	-2.969200	2.894300	-8.592100	29.034833	-6.715995E-6	20.701822
2606.712628	-2.985700	2.890400	-8.628400	29.009299	-7.739070E-6	20.713080
2607.710062	-3.008800	2.889000	-8.691500	28.958845	-8.366116E-6	20.705869
2608.709698	-2.990800	2.885900	-8.629200	28.844402	-6.055946E-6	20.702002
2609.715495	-3.005900	2.885000	-8.671700	28.860666	-8.069094E-6	20.702264
2610.714006	-2.997800	2.883500	-8.643600	28.885473	-6.616987E-6	20.699754
2611.714230	-3.007700	2.881400	-8.665100	28.849743	-6.154953E-6	20.723979
2612.717916	-2.993100	2.878800	-8.615600	28.914102	-7.211031E-6	20.726227
2613.713089	-2.970500	2.878600	-8.550000	28.897426	-5.659917E-6	20.713220
2614.714096	-2.977200	2.876600	-8.563300	28.973305	-5.527907E-6	20.718068
2615.714308	-3.009800	2.873800	-8.648600	29.016821	-5.989941E-6	20.708331
2616.716345	-3.007300	2.871400	-8.634700	29.081535	-6.286963E-6	20.727069
2617.712823	-2.977500	2.869500	-8.543600	29.056497	-7.739070E-6	20.719858
2618.712667	-2.975800	2.869400	-8.537600	29.034776	-7.442048E-6	20.697498
2619.720515	-3.013700	2.865300	-8.633700	29.078817	-5.164880E-6	20.706311
2620.716124	-2.983300	2.864400	-8.544600	29.171160	-5.428900E-6	20.729661
2621.716136	-2.966600	2.863700	-8.494700	29.179329	-5.197883E-6	20.720349
2622.716451	-2.980800	2.860400	-8.525800	29.085373	-7.541055E-6	20.706279
2623.721129	-3.004300	2.857400	-8.583700	29.042403	-6.121951E-6	20.718460
2624.717509	-2.975600	2.856500	-8.499000	29.015263	-7.376043E-6	20.726677
2625.721658	-3.005300	2.852900	-8.573200	29.007903	-5.692919E-6	20.713571
2626.717876	-2.998200	2.853600	-8.554800	29.047653	-6.649990E-6	20.720431
2627.719006	-3.002700	2.849500	-8.555500	29.052181	-8.663138E-6	20.715035
2628.720586	-2.991500	2.848500	-8.520100	29.032067	-7.178029E-6	20.704726
2629.716824	-3.005300	2.846000	-8.551600	29.115562	-6.980014E-6	20.723423
2630.719795	-2.992600	2.845000	-8.513200	29.098192	-4.834856E-6	20.714929
2631.718867	-3.014100	2.840500	-8.560400	29.159169	-7.871080E-6	20.729907
2632.720927	-3.034100	2.838000	-8.610300	29.159543	-7.013017E-6	20.730283
2633.718255	-3.004000	2.838200	-8.525100	29.163558	-6.220958E-6	20.705404
2634.720076	-2.998500	2.835300	-8.500600	29.164694	-7.079021E-6	20.712713
2635.724018	-3.008800	2.831500	-8.518400	29.174154	-6.022944E-6	20.704701
2636.720447	-3.001000	2.830300	-8.492500	29.177740	-6.649990E-6	20.717799
2637.723296	-3.021700	2.827600	-8.542900	29.195474	-8.333114E-6	20.727135
2638.720856	-3.000100	2.825000	-8.474500	29.156200	-4.966866E-6	20.733079
2639.723443	-3.028000	2.823200	-8.547300	29.168312	-7.640063E-6	20.715411
2640.725854	-3.006700	2.820600	-8.479700	29.174941	-4.735849E-6	20.733471
2641.737519	-3.001900	2.819000	-8.461100	29.195101	-4.966866E-6	20.744778
2642.726583	-2.997800	2.817300	-8.444300	29.203740	-6.682992E-6	20.725983
2643.732340	-2.998100	2.815800	-8.441100	29.221036	-7.013017E-6	20.733455
2644.730783	-2.996500	2.811000	-8.422500	29.260055	-6.418973E-6	20.743380
2645.724053	-3.005700	2.807800	-8.438000	29.255277	-6.187956E-6	20.735245
2646.731065	-2.981100	2.807200	-8.366400	29.169221	-6.319965E-6	20.725337
2647.726443	-3.007900	2.803500	-8.432100	29.160062	-6.815002E-6	20.736496
2648.726738	-3.034100	2.801000	-8.497500	29.214530	-7.211031E-6	20.756298
2649.727086	-3.010800	2.799300	-8.427400	29.233578	-4.999868E-6	20.727602
2650.727674	-3.007300	2.794800	-8.404000	29.238421	-6.451975E-6	20.729638
2651.726886	-3.007400	2.793100	-8.399500	29.249843	-7.541055E-6	20.733088
2652.726513	-3.030100	2.789400	-8.451200	29.262919	-6.782000E-6	20.728248
2653.726425	-3.014500	2.786900	-8.399800	29.239411	-5.527907E-6	20.725893
2654.726319	-3.016700	2.785100	-8.401000	29.277270	-6.914009E-6	20.736546
2655.726518	-3.031800	2.781800	-8.431800	29.332243	-7.376043E-6	20.729360
2656.727062	-3.008500	2.779800	-8.362000	29.327384	-5.263888E-6	20.718299
2657.734790	-2.991700	2.777700	-8.309700	29.326070	-6.815002E-6	20.736416
2658.735343	-3.001600	2.774400	-8.326200	29.410256	-5.857931E-6	20.733546
2659.730418	-3.046900	2.769700	-8.438400	29.425748	-5.626914E-6	20.734462
2660.731595	-3.007500	2.767200	-8.321200	29.501264	-6.782000E-6	20.727129
2661.731745	-3.001700	2.764100	-8.295800	29.575980	-5.197883E-6	20.730374
2662.732776	-3.003800	2.762000	-8.295600	29.573004	-6.682992E-6	20.730693
2663.728567	-3.003800	2.758000	-8.283900	29.427946	-5.824929E-6	20.751377
2664.733641	-3.021400	2.754500	-8.320900	29.280158	-5.494905E-6	20.743251
2665.728688	-3.013700	2.752400	-8.294300	29.292878	-7.079021E-6	20.739948
2666.735190	-3.008900	2.749100	-8.270100	29.296049	-6.385970E-6	20.743145
2667.734555	-2.975400	2.746300	-8.170500	29.305849	-6.022944E-6	20.746382
2668.734360	-2.998300	2.741800	-8.219800	29.366044	-5.890934E-6	20.743513
2669.734091	-2.998300	2.738900	-8.211200	29.344451	-5.329893E-6	20.725069
2670.735224	-2.972800	2.737400	-8.136800	29.361022	-2.788705E-6	20.744616
2671.740225	-2.991300	2.733700	-8.176400	29.319046	-8.003089E-6	20.742139
2672.738269	-2.991600	2.730400	-8.167700	29.286762	-5.560910E-6	20.732835
2673.735991	-2.997500	2.725100	-8.167700	29.322981	-4.009795E-6	20.747053
2674.741031	-2.979300	2.723200	-8.112800	29.415829	-6.319965E-6	20.742009
2675.735354	-2.993100	2.719700	-8.139300	29.471484	-8.069094E-6	20.757804
2676.737362	-2.994700	2.714200	-8.127400	29.458191	-2.491683E-6	20.755310
2677.737086	-2.998000	2.711600	-8.128900	29.496626	-6.220958E-6	20.733359
2678.737369	-2.981500	2.706900	-8.069600	29.544743	-8.498126E-6	20.754362
2679.739214	-2.988100	2.703900	-8.078500	29.601227	-4.966866E-6	20.750610
2680.733415	-3.013500	2.699000	-8.132300	29.654228	-5.164880E-6	20.740979
2681.733119	-2.988200	2.696400	-8.056700	29.625862	-6.088948E-6	20.746996
2682.742146	-3.019100	2.690900	-8.123000	29.575601	-5.824929E-6	20.751804
2683.738497	-2.953100	2.688200	-7.937200	29.578374	-6.055946E-6	20.716191
2684.740585	-3.005400	2.682400	-8.060900	29.557135	-6.286963E-6	20.756897
2685.749387	-2.989000	2.677100	-8.000400	29.576249	-5.494905E-6	20.740603
2686.740894	-3.014900	2.675000	-8.063400	29.618329	-7.145026E-6	20.749359
2687.742155	-2.972400	2.670500	-7.937000	29.605282	-6.220958E-6	20.775561
2688.740968	-2.989600	2.665800	-7.969000	29.626820	-7.112024E-6	20.754125
2689.745181	-2.988800	2.662100	-7.956000	29.580970	-4.339820E-6	20.743465
2690.740478	-3.042200	2.655500	-8.077400	29.479814	-5.923936E-6	20.750553
2691.741374	-2.997400	2.651800	-7.947900	29.478501	-7.475051E-6	20.766773
2692.738065	-2.995600	2.647700	-7.930500	29.457057	-5.329893E-6	20.748951
2693.739334	-2.957000	2.644800	-7.819200	29.483026	-6.319965E-6	20.763274
2694.746868	-3.029900	2.636100	-7.986200	29.536229	-3.283742E-6	20.796515
2695.740251	-3.001900	2.633100	-7.902400	29.608193	-5.362895E-6	20.768539
2696.751387	-2.980300	2.627500	-7.829900	29.561589	-6.319965E-6	20.758542
2697.742017	-2.985000	2.623400	-7.828900	29.527016	-7.145026E-6	20.761149
2698.742409	-3.000700	2.617700	-7.853900	29.587369	-4.801854E-6	20.752287
2699.738467	-2.970200	2.612300	-7.757800	29.634873	-3.646769E-6	20.767460
2700.739581	-3.019100	2.607400	-7.870700	29.702664	-3.712773E-6	20.767526
2701.739311	-2.991100	2.601600	-7.780800	29.745419	-4.801854E-6	20.754208
2702.739948	-3.031100	2.595900	-7.867700	29.789843	-5.032871E-6	20.773870
2703.741014	-3.000900	2.591200	-7.774900	29.841295	-4.768851E-6	20.778808
2704.744344	-2.996100	2.584600	-7.742700	29.865326	-4.075800E-6	20.744717
2705.744404	-3.062400	2.577300	-7.890700	29.748209	-6.583985E-6	20.767453
2706.742645	-2.991000	2.574700	-7.699800	29.699396	-7.079021E-6	20.773715
2707.746732	-3.023600	2.566900	-7.759500	29.714470	-5.362895E-6	20.764256
2708.742419	-2.969100	2.563400	-7.610300	29.603791	-4.339820E-6	20.788758
2709.743558	-3.009600	2.555700	-7.690800	29.648278	-6.451975E-6	20.774336
2710.745490	-2.999300	2.548400	-7.642400	29.656614	-6.220958E-6	20.778473
2711.748156	-3.030100	2.541500	-7.699900	29.687331	-4.570837E-6	20.781940
2712.741902	-3.010100	2.536400	-7.634200	29.701813	-2.359674E-6	20.806972
2713.746436	-2.992300	2.530400	-7.570800	29.713384	-5.065873E-6	20.783551
2714.750990	-2.982800	2.524900	-7.530200	29.648862	-3.778778E-6	20.793892
2715.740979	-2.978500	2.519600	-7.503400	29.746117	-8.003089E-6	20.757283
2716.749657	-2.980700	2.513000	-7.489600	29.719028	-5.065873E-6	20.791612
2717.742732	-2.976100	2.507500	-7.461000	29.711560	-4.009795E-6	20.776021
2718.744246	-3.002800	2.498600	-7.500700	29.783285	-5.428900E-6	20.794285
