LabVIEW Measurement	
Writer_Version	2
Reader_Version	2
Separator	Tab
Decimal_Separator	.
Multi_Headings	No
X_Columns	One
Time_Pref	Absolute
Operator	admin
Description	Clolumns are: time, Current, Voltage, Power, Battery Temp, and Chamber Temp
Date	2024/08/16
Time	13:07:17.8513970375061035156
***End_of_Header***	
	
Channels	6						
Samples	1	1	1	1	1	1	
Date	2024/09/03	2024/09/03	2024/09/03	2024/09/03	2024/09/03	2024/09/03	
Time	22:25:30.7640933990478515625	22:25:30.7692880630493164063	22:25:30.7773647308349609375	22:25:30.7473816871643066406	22:25:30.7473816871643066406	22:25:30.7473816871643066406	
X_Dimension	Time	Time	Time	Time	Time	Time	
X0	0.0000000000000000E+0	0.0000000000000000E+0	0.0000000000000000E+0	0.0000000000000000E+0	0.0000000000000000E+0	0.0000000000000000E+0	
Delta_X	1.000000	1.000000	1.000000	1.000000	1.000000	1.000000	
***End_of_Header***							
X_Value	Untitled	Untitled 1	Untitled 2	Untitled 3	Untitled 4	Untitled 5	Comment
0.000000	0.001296	4.085600	0.005414	20.911714	0.000463	20.836803
1.003500	-3.002700	3.922700	-11.778000	20.889131	0.000461	20.811847
2.001830	-3.008100	3.916400	-11.780000	20.895396	0.000460	20.824751
2.999285	-2.995400	3.912100	-11.717000	20.896319	0.000460	20.824726
3.999550	-2.988300	3.909200	-11.681000	20.883319	0.000459	20.831639
4.998671	-2.987500	3.906900	-11.671000	20.894671	0.000459	20.826871
5.998734	-3.003300	3.902200	-11.719000	20.907300	0.000458	20.830492
6.999225	-2.975200	3.901800	-11.608000	20.881922	0.000456	20.825500
8.011995	-3.029900	3.899500	-11.814000	20.906102	0.000457	20.825026
9.000329	-3.012600	3.898200	-11.743000	20.912766	0.000456	20.821260
10.001498	-3.021300	3.896000	-11.770000	20.929908	0.000458	20.818964
11.006018	-2.999200	3.896500	-11.685000	20.906977	0.000454	20.812152
12.001908	-2.992300	3.893500	-11.649000	20.919478	0.000454	20.832240
13.006410	-3.013200	3.892600	-11.728000	20.932830	0.000453	20.836110
14.013384	-2.998400	3.892500	-11.671000	20.937920	0.000455	20.821287
15.002987	-3.002800	3.890800	-11.682000	20.942887	0.000454	20.818194
16.002605	-2.995100	3.889800	-11.649000	20.957135	0.000453	20.811580
17.002445	-3.020200	3.889200	-11.746000	20.969461	0.000452	20.805417
18.003999	-3.009000	3.888300	-11.699000	20.974427	0.000453	20.817496
19.002338	-2.981800	3.888400	-11.594000	20.977996	0.000451	20.824385
20.005523	-2.996000	3.885900	-11.642000	20.975601	0.000450	20.825308
21.003955	-3.004900	3.885100	-11.674000	20.989401	0.000450	20.808291
22.005635	-2.994200	3.884200	-11.629000	20.987631	0.000452	20.810788
23.006616	-3.009500	3.885000	-11.691000	21.007969	0.000449	20.814059
24.007598	-3.001700	3.884200	-11.659000	21.014308	0.000451	20.810916
25.006258	-3.005100	3.881200	-11.663000	21.033096	0.000449	20.836346
26.005902	-2.970500	3.882300	-11.531000	21.047318	0.000450	20.805527
27.007152	-3.006700	3.881200	-11.669000	21.077011	0.000450	20.808674
28.007200	-2.988000	3.881200	-11.596000	21.052088	0.000448	20.817409
29.009847	-2.988300	3.880400	-11.595000	21.083054	0.000450	20.811873
30.008777	-2.988800	3.881400	-11.600000	21.072476	0.000447	20.778533
31.009680	-2.990500	3.879500	-11.601000	21.083130	0.000447	20.808631
32.009845	-2.995800	3.877900	-11.617000	21.088645	0.000447	20.825052
33.010807	-3.011000	3.878900	-11.678000	21.089821	0.000446	20.801098
34.014512	-3.018500	3.878700	-11.707000	21.097755	0.000445	20.797655
35.014311	-3.007200	3.878900	-11.664000	21.106238	0.000448	20.813727
36.014556	-3.006100	3.877800	-11.656000	21.121960	0.000448	20.801003
37.017604	-2.995100	3.877400	-11.612000	21.127849	0.000445	20.795989
38.015370	-2.993000	3.876700	-11.602000	21.111658	0.000448	20.804449
39.016596	-2.997500	3.876000	-11.617000	21.146410	0.000448	20.805072
40.015728	-3.008700	3.876300	-11.662000	21.161456	0.000445	20.801631
41.015238	-3.008000	3.876000	-11.658000	21.159037	0.000445	20.795417
42.015082	-3.014000	3.875900	-11.681000	21.179746	0.000446	20.797167
43.015271	-3.007300	3.873700	-11.648000	21.163179	0.000445	20.801457
44.014899	-2.990300	3.874200	-11.583000	21.194763	0.000447	20.806025
45.021951	-2.996800	3.874400	-11.609000	21.193020	0.000446	20.789583
46.016272	-2.978400	3.874400	-11.538000	21.208312	0.000444	20.774534
47.016245	-2.987900	3.873900	-11.573000	21.218218	0.000446	20.805307
48.022016	-2.988200	3.873400	-11.573000	21.250699	0.000443	20.797023
49.014760	-2.999800	3.873600	-11.618000	21.197412	0.000444	20.793503
50.017584	-2.987800	3.873300	-11.571000	21.204202	0.000444	20.788914
51.015750	-3.009000	3.872900	-11.653000	21.222111	0.000444	20.788339
52.017243	-2.986000	3.872300	-11.561000	21.237854	0.000443	20.797923
53.017183	-2.975300	3.872600	-11.521000	21.255592	0.000445	20.771097
54.017356	-3.012900	3.870700	-11.661000	21.259609	0.000444	20.783651
55.019726	-2.995300	3.870700	-11.593000	21.279441	0.000444	20.802069
56.018856	-3.017200	3.871000	-11.678000	21.282860	0.000443	20.772299
57.019215	-2.986400	3.872200	-11.563000	21.294836	0.000446	20.776218
58.022455	-3.017900	3.870400	-11.679000	21.296233	0.000444	20.781409
59.019720	-3.011900	3.870700	-11.658000	21.309377	0.000448	20.778438
60.022017	-3.011700	3.870500	-11.655000	21.311101	0.000444	20.788224
61.022447	-2.990400	3.869400	-11.570000	21.315491	0.000443	20.800202
62.020562	-2.991900	3.869700	-11.577000	21.331331	0.000443	20.791868
63.024722	-2.995200	3.868700	-11.587000	21.323024	0.000444	20.782134
64.022978	-3.002300	3.869700	-11.618000	21.341009	0.000443	20.758401
65.026664	-2.995900	3.869400	-11.591000	21.346721	0.000443	20.776444
66.023198	-3.017300	3.868400	-11.671000	21.364780	0.000444	20.763691
67.032471	-2.998300	3.868700	-11.598000	21.381615	0.000444	20.766785
68.024795	-2.986700	3.868000	-11.552000	21.375754	0.000444	20.780836
69.026254	-2.983400	3.869100	-11.542000	21.383612	0.000445	20.755032
70.026973	-3.001100	3.869800	-11.613000	21.385979	0.000445	20.777790
71.029690	-3.016800	3.868400	-11.670000	21.399849	0.000443	20.780761
72.027022	-3.005500	3.868600	-11.626000	21.416061	0.000444	20.768532
73.026419	-2.991100	3.868900	-11.572000	21.412245	0.000446	20.782732
74.029652	-2.992000	3.867800	-11.572000	21.411049	0.000444	20.775372
75.026227	-3.014700	3.867000	-11.657000	21.424194	0.000443	20.764342
76.032137	-3.002800	3.868000	-11.614000	21.427586	0.000445	20.779115
77.026254	-2.991100	3.867600	-11.567000	21.456394	0.000447	20.776645
78.031157	-3.016100	3.866600	-11.661000	21.442825	0.000445	20.770181
79.027150	-3.002100	3.867600	-11.610000	21.470211	0.000445	20.787151
80.028025	-2.970900	3.868200	-11.492000	21.507796	0.000445	20.767859
81.030521	-3.000600	3.865900	-11.599000	21.483229	0.000445	20.758925
82.029890	-3.005000	3.865700	-11.616000	21.509765	0.000446	20.771253
83.026711	-2.998400	3.866300	-11.592000	21.523656	0.000445	20.773773
84.028678	-3.010100	3.866400	-11.637000	21.519240	0.000447	20.769828
85.028700	-2.987500	3.865600	-11.547000	21.507942	0.000444	20.751410
86.029075	-2.983900	3.867500	-11.539000	21.519692	0.000446	20.749891
87.030936	-3.013800	3.865800	-11.649000	21.548418	0.000446	20.769153
88.030293	-2.996000	3.864300	-11.576000	21.550063	0.000444	20.763687
89.030472	-2.976800	3.864600	-11.504000	21.546300	0.000447	20.775094
90.031831	-2.991100	3.864600	-11.559000	21.551011	0.000446	20.761790
91.031995	-2.980600	3.865100	-11.520000	21.556474	0.000447	20.752083
92.033683	-2.988400	3.864300	-11.548000	21.579692	0.000445	20.758247
93.031946	-3.000200	3.865500	-11.596000	21.575502	0.000446	20.759744
94.032013	-3.003000	3.864600	-11.604000	21.597645	0.000447	20.760092
95.033045	-2.990900	3.865700	-11.560000	21.606747	0.000446	20.754027
96.032442	-3.009200	3.864800	-11.629000	21.605053	0.000447	20.773669
97.035311	-3.006200	3.864600	-11.617000	21.624479	0.000448	20.763712
98.037258	-3.020400	3.862900	-11.666000	21.623060	0.000448	20.765136
99.035646	-2.999400	3.862700	-11.585000	21.631961	0.000447	20.766457
100.036719	-2.968300	3.863900	-11.468000	21.645952	0.000449	20.751060
101.036400	-3.006900	3.862600	-11.614000	21.651613	0.000447	20.750561
102.036654	-2.984600	3.862700	-11.528000	21.655329	0.000447	20.754280
103.039340	-2.994700	3.862800	-11.567000	21.673581	0.000449	20.785349
104.037272	-3.012300	3.861300	-11.630000	21.679165	0.000448	20.759169
105.038891	-2.988000	3.862400	-11.540000	21.691263	0.000448	20.753257
106.041211	-3.013100	3.861900	-11.635000	21.691836	0.000446	20.760469
107.038717	-2.999500	3.861400	-11.582000	21.700887	0.000450	20.757674
108.041831	-2.995200	3.861900	-11.566000	21.702410	0.000448	20.755405
109.038215	-3.007900	3.862000	-11.615000	21.718769	0.000449	20.753759
110.047987	-2.995900	3.860700	-11.564000	21.714604	0.000448	20.740581
111.038826	-2.980700	3.862900	-11.513000	21.732707	0.000448	20.759173
112.038424	-3.002000	3.861000	-11.590000	21.715304	0.000450	20.748868
113.040592	-2.999700	3.860900	-11.581000	21.724682	0.000450	20.762047
114.041653	-2.978900	3.860500	-11.499000	21.764104	0.000450	20.745077
115.039948	-3.000800	3.860900	-11.584000	21.772058	0.000449	20.765367
116.040606	-3.000800	3.860200	-11.583000	21.767919	0.000452	20.759801
117.044453	-3.010200	3.859900	-11.618000	21.783280	0.000449	20.764269
118.041583	-3.018900	3.860700	-11.654000	21.805198	0.000448	20.752542
119.043197	-2.994900	3.861300	-11.563000	21.803978	0.000450	20.758907
120.040285	-3.002700	3.860100	-11.590000	21.810161	0.000452	20.765570
121.040919	-2.993100	3.860600	-11.553000	21.817240	0.000455	20.757008
122.041346	-3.031100	3.859200	-11.697000	21.804402	0.000451	20.748425
123.039987	-3.004600	3.859300	-11.595000	21.815519	0.000452	20.750543
124.041574	-3.029700	3.858500	-11.689000	21.840031	0.000453	20.766069
125.041513	-3.025800	3.858800	-11.675000	21.852695	0.000452	20.741286
126.041221	-3.007600	3.858700	-11.605000	21.845292	0.000453	20.745255
127.045760	-3.016000	3.857800	-11.634000	21.863340	0.000455	20.750044
128.041758	-3.007500	3.858200	-11.603000	21.883958	0.000454	20.737490
129.041494	-3.026300	3.857500	-11.673000	21.872291	0.000453	20.751417
130.042019	-2.998100	3.858900	-11.568000	21.878447	0.000452	20.766114
131.043201	-2.982200	3.859200	-11.508000	21.898968	0.000452	20.746350
132.043348	-3.002100	3.858400	-11.583000	21.896200	0.000452	20.760650
133.046109	-2.995600	3.858700	-11.558000	21.929009	0.000455	20.749868
134.044842	-3.007300	3.858100	-11.601000	21.933295	0.000456	20.747994
135.049153	-2.992200	3.858000	-11.543000	21.924669	0.000454	20.748843
136.046696	-3.000000	3.857400	-11.571000	21.949199	0.000455	20.746371
137.045734	-3.015200	3.857900	-11.631000	21.964880	0.000455	20.746894
138.046910	-3.011400	3.856000	-11.610000	21.969041	0.000457	20.753431
139.046831	-3.006000	3.856300	-11.591000	21.964751	0.000455	20.748188
140.059173	-2.993000	3.857800	-11.545000	21.989060	0.000456	20.742649
141.045826	-3.004400	3.857300	-11.588000	21.986540	0.000457	20.745343
142.048777	-2.996600	3.856700	-11.556000	21.985789	0.000456	20.754549
143.046411	-3.003100	3.857700	-11.584000	21.994315	0.000457	20.753601
144.045608	-3.021200	3.855200	-11.646000	21.995386	0.000459	20.759415
145.047859	-3.014800	3.855800	-11.624000	21.977662	0.000459	20.735982
146.045876	-3.002900	3.855800	-11.578000	21.984715	0.000460	20.747310
147.047763	-2.995600	3.857000	-11.553000	21.994489	0.000458	20.754723
148.046924	-2.974300	3.856300	-11.469000	22.012885	0.000461	20.760336
149.046589	-2.993400	3.856100	-11.542000	22.035521	0.000459	20.737476
150.049263	-3.020500	3.854200	-11.640000	22.042973	0.000458	20.741618
151.047624	-3.013300	3.854700	-11.613000	22.052944	0.000460	20.754919
152.048482	-3.000800	3.854900	-11.567000	22.027640	0.000458	20.752822
153.049403	-2.983900	3.855000	-11.501000	22.055585	0.000460	20.777478
154.048448	-3.005600	3.855100	-11.586000	22.032850	0.000461	20.762779
155.050015	-2.984700	3.854900	-11.504000	22.087841	0.000463	20.762355
156.053256	-3.005200	3.853400	-11.580000	22.081657	0.000462	20.759483
157.049748	-3.004400	3.854000	-11.578000	22.067148	0.000463	20.773882
158.049964	-2.985600	3.853700	-11.504000	22.081556	0.000462	20.769339
159.055315	-3.004800	3.852500	-11.575000	22.113211	0.000464	20.755985
160.051825	-3.020400	3.852300	-11.634000	22.127269	0.000462	20.736393
161.052230	-2.983100	3.853700	-11.495000	22.128716	0.000463	20.760129
162.050150	-2.995300	3.853000	-11.540000	22.143396	0.000463	20.767239
163.050546	-3.006700	3.853100	-11.584000	22.163862	0.000464	20.767815
164.051009	-2.979600	3.853800	-11.482000	22.143094	0.000464	20.755082
165.050683	-3.005500	3.851400	-11.575000	22.162313	0.000464	20.762944
166.053436	-3.001200	3.852200	-11.560000	22.168244	0.000464	20.755132
167.052151	-2.986200	3.852000	-11.502000	22.178938	0.000463	20.753036
168.052694	-3.018100	3.850900	-11.622000	22.186414	0.000464	20.750564
169.053906	-3.007800	3.852100	-11.586000	22.181727	0.000464	20.760571
170.052290	-3.013700	3.851800	-11.608000	22.197631	0.000465	20.734293
171.059809	-2.997300	3.851100	-11.542000	22.188581	0.000463	20.750837
172.052804	-2.997500	3.850900	-11.542000	22.201692	0.000466	20.768232
173.052924	-3.007900	3.850100	-11.580000	22.207727	0.000466	20.765740
174.053133	-3.011000	3.850200	-11.592000	22.227242	0.000467	20.754459
175.051254	-3.013700	3.851100	-11.605000	22.234492	0.000466	20.752709
176.052029	-3.023600	3.849300	-11.638000	22.247630	0.000469	20.769657
177.055592	-3.003800	3.851200	-11.568000	22.231355	0.000469	20.760474
178.052725	-2.979300	3.850500	-11.471000	22.229112	0.000468	20.751115
179.052878	-2.991400	3.849600	-11.514000	22.228690	0.000468	20.757331
180.056269	-2.991900	3.850400	-11.519000	22.247208	0.000467	20.741733
181.053033	-2.994800	3.849900	-11.529000	22.266901	0.000469	20.753391
182.055958	-3.004100	3.849400	-11.563000	22.277592	0.000467	20.783536
183.053144	-2.988400	3.850000	-11.504000	22.299251	0.000468	20.766817
184.052711	-2.992000	3.848900	-11.515000	22.291302	0.000469	20.762176
185.053350	-3.013100	3.848100	-11.593000	22.317570	0.000470	20.767142
186.053886	-2.987500	3.849900	-11.501000	22.311193	0.000470	20.754592
187.053479	-2.981000	3.848300	-11.470000	22.305109	0.000472	20.777424
188.053297	-3.028800	3.846500	-11.649000	22.322359	0.000471	20.766722
189.054759	-3.017500	3.848000	-11.610000	22.329563	0.000469	20.769668
190.054113	-3.003700	3.848300	-11.558000	22.324454	0.000470	20.761233
191.054907	-3.007200	3.846500	-11.567000	22.344091	0.000470	20.788483
192.054272	-2.991000	3.848000	-11.508000	22.365625	0.000472	20.776855
193.055917	-2.974800	3.848200	-11.446000	22.372578	0.000471	20.777654
194.054669	-3.014100	3.845800	-11.590000	22.354062	0.000472	20.749629
195.054497	-3.001400	3.845600	-11.541000	22.365428	0.000472	20.769072
196.054272	-3.006600	3.846400	-11.563000	22.390673	0.000471	20.732710
197.054558	-2.993100	3.847200	-11.514000	22.389478	0.000472	20.786991
198.058558	-2.985900	3.846200	-11.483000	22.396731	0.000472	20.771969
199.055158	-3.007100	3.844300	-11.559000	22.402614	0.000473	20.751781
200.055242	-3.005500	3.845800	-11.558000	22.404807	0.000477	20.771996
201.057632	-2.999600	3.845400	-11.534000	22.418739	0.000474	20.791637
202.056937	-2.997400	3.844500	-11.523000	22.436033	0.000474	20.767704
203.060174	-3.002800	3.844100	-11.542000	22.449067	0.000473	20.774593
204.061535	-3.018400	3.844600	-11.603000	22.437656	0.000475	20.761743
205.058086	-3.000800	3.845800	-11.539000	22.469678	0.000473	20.761569
206.058530	-3.017300	3.843300	-11.595000	22.446354	0.000476	20.769031
207.061946	-3.004700	3.843300	-11.547000	22.456647	0.000473	20.758475
208.059956	-3.004600	3.843700	-11.548000	22.449371	0.000475	20.764466
209.062850	-3.004300	3.843600	-11.546000	22.450270	0.000476	20.799032
210.060718	-2.980300	3.843000	-11.452000	22.478703	0.000478	20.770133
211.060162	-3.009500	3.842100	-11.561000	22.490941	0.000477	20.785234
212.060408	-2.979000	3.845200	-11.453000	22.524905	0.000480	20.767092
213.061590	-3.017500	3.842300	-11.594000	22.533803	0.000477	20.760830
214.063526	-3.006600	3.842500	-11.552000	22.553613	0.000476	20.769765
215.062877	-2.997400	3.842100	-11.515000	22.547312	0.000478	20.782895
216.061944	-3.007800	3.841000	-11.552000	22.546466	0.000477	20.770194
217.062721	-3.015400	3.840800	-11.581000	22.530271	0.000478	20.759189
218.062691	-3.017100	3.841900	-11.590000	22.536901	0.000480	20.782899
219.062528	-3.008500	3.840700	-11.554000	22.565133	0.000478	20.765182
220.065206	-2.993000	3.841700	-11.497000	22.578763	0.000479	20.786420
221.063711	-3.001100	3.842100	-11.529000	22.615094	0.000479	20.775866
222.065403	-2.990000	3.841100	-11.485000	22.592348	0.000480	20.795758
223.065601	-3.010300	3.840700	-11.560000	22.593173	0.000480	20.782360
224.065614	-2.983000	3.841700	-11.458000	22.568682	0.000480	20.763994
225.068566	-3.011600	3.840300	-11.565000	22.575686	0.000479	20.775751
226.066442	-3.001000	3.840800	-11.525000	22.606884	0.000480	20.782342
227.065691	-2.969600	3.840100	-11.403000	22.601753	0.000484	20.779100
228.066088	-3.000700	3.839700	-11.520000	22.602278	0.000482	20.775358
229.067721	-3.008500	3.840300	-11.553000	22.608762	0.000481	20.762886
230.069280	-2.992000	3.839400	-11.486000	22.629294	0.000482	20.773968
231.070488	-2.998200	3.839300	-11.510000	22.620976	0.000483	20.766584
232.068814	-3.001300	3.839600	-11.523000	22.632139	0.000482	20.769231
233.068450	-3.000800	3.838400	-11.517000	22.648286	0.000483	20.798681
234.069071	-2.981600	3.838600	-11.444000	22.665680	0.000484	20.786231
235.067142	-3.012900	3.837200	-11.560000	22.657932	0.000482	20.768513
236.070473	-2.976400	3.838200	-11.424000	22.673331	0.000486	20.779669
237.069289	-3.006800	3.838300	-11.540000	22.657265	0.000485	20.788234
238.068870	-3.009500	3.838700	-11.551000	22.677799	0.000484	20.801215
239.071819	-2.980800	3.837700	-11.438000	22.680765	0.000483	20.785694
240.069344	-2.980900	3.837600	-11.438000	22.682064	0.000485	20.768028
241.075115	-2.995800	3.837800	-11.497000	22.699878	0.000487	20.788243
242.071658	-2.989400	3.836700	-11.468000	22.735707	0.000487	20.781933
243.071641	-2.971200	3.837000	-11.399000	22.724250	0.000485	20.768559
244.071148	-3.005900	3.837000	-11.533000	22.747618	0.000486	20.787225
245.083926	-3.002800	3.835700	-11.517000	22.720617	0.000488	20.780567
246.070221	-3.015800	3.835900	-11.567000	22.724205	0.000489	20.784636
247.073258	-2.982700	3.836400	-11.442000	22.719548	0.000486	20.780920
248.071732	-2.999700	3.835400	-11.504000	22.724287	0.000489	20.789459
249.069942	-3.015100	3.835200	-11.563000	22.719481	0.000489	20.800767
250.072790	-3.004300	3.837000	-11.526000	22.743399	0.000489	20.780155
251.072250	-3.008600	3.835600	-11.539000	22.761089	0.000489	20.795504
252.076666	-2.991100	3.833100	-11.464000	22.754192	0.000490	20.790966
253.074115	-3.001500	3.833700	-11.506000	22.773376	0.000489	20.796907
254.075472	-2.994900	3.832700	-11.477000	22.761745	0.000492	20.804697
255.077424	-2.992900	3.833900	-11.473000	22.801084	0.000492	20.795266
256.076458	-2.998900	3.833400	-11.494000	22.786862	0.000493	20.785286
257.078242	-2.999400	3.833500	-11.497000	22.787660	0.000493	20.778025
258.078672	-3.006000	3.834000	-11.525000	22.800043	0.000490	20.785214
259.081317	-3.010100	3.833200	-11.538000	22.799845	0.000492	20.779800
260.076639	-3.016200	3.832800	-11.559000	22.839558	0.000494	20.784496
261.077335	-2.987400	3.833700	-11.451000	22.854132	0.000493	20.791510
262.085365	-2.980800	3.832200	-11.422000	22.826036	0.000494	20.788493
263.085434	-2.998000	3.833200	-11.490000	22.837197	0.000496	20.782605
264.080226	-2.998800	3.831700	-11.489000	22.848311	0.000494	20.787101
265.080168	-2.992100	3.832500	-11.467000	22.826965	0.000494	20.791321
266.082252	-3.001100	3.832500	-11.501000	22.853398	0.000494	20.783662
267.080503	-3.013300	3.831600	-11.545000	22.849813	0.000494	20.788605
268.089134	-2.996600	3.830200	-11.477000	22.865808	0.000495	20.802733
269.081868	-3.012000	3.829900	-11.535000	22.884817	0.000494	20.792379
270.081447	-2.997900	3.832300	-11.488000	22.901882	0.000496	20.799992
271.083368	-3.002600	3.831100	-11.502000	22.896676	0.000497	20.790509
272.082842	-2.991000	3.831400	-11.458000	22.913840	0.000497	20.774989
273.082979	-3.016000	3.830500	-11.551000	22.905002	0.000497	20.795531
274.087080	-2.999600	3.829200	-11.486000	22.935643	0.000498	20.782134
275.084059	-3.004700	3.830500	-11.508000	22.923291	0.000496	20.778293
276.083724	-3.005200	3.830000	-11.508000	22.912579	0.000499	20.784631
277.091710	-2.988600	3.830100	-11.445000	22.936771	0.000499	20.794169
278.084398	-2.977800	3.829600	-11.403000	22.935577	0.000496	20.788705
279.088684	-3.015700	3.828100	-11.543000	22.958068	0.000500	20.817876
280.083860	-2.996600	3.828800	-11.473000	22.954735	0.000499	20.806951
281.084163	-2.983500	3.828400	-11.420000	22.951598	0.000500	20.795748
282.084555	-3.010100	3.828400	-11.523000	22.967067	0.000500	20.783271
283.084163	-2.985100	3.830200	-11.432000	22.963157	0.000500	20.796423
284.086770	-2.980600	3.827800	-11.408000	22.961663	0.000502	20.795400
285.085273	-3.002500	3.826600	-11.488000	22.995388	0.000502	20.807378
286.086230	-3.004500	3.826800	-11.497000	22.975759	0.000501	20.786290
287.085968	-3.012100	3.827600	-11.528000	22.976158	0.000502	20.781474
288.087227	-2.993700	3.826900	-11.455000	22.990105	0.000502	20.812043
289.085416	-3.013300	3.826500	-11.529000	23.003058	0.000502	20.810797
290.087371	-3.009400	3.826600	-11.514000	22.993348	0.000503	20.794904
291.085402	-3.000100	3.827000	-11.480000	23.014542	0.000504	20.796699
292.086443	-3.014700	3.825800	-11.532000	23.029909	0.000502	20.800715
293.085543	-3.028500	3.824600	-11.582000	23.027892	0.000503	20.805807
294.088599	-2.986600	3.826500	-11.427000	23.022662	0.000506	20.824748
295.085628	-2.990400	3.825300	-11.438000	23.052722	0.000503	20.810298
296.087771	-3.012400	3.825000	-11.522000	23.041264	0.000506	20.802609
297.087499	-3.004100	3.825500	-11.492000	23.033992	0.000506	20.808125
298.086548	-2.974100	3.825100	-11.375000	23.014716	0.000508	20.803037
299.087452	-3.001600	3.824900	-11.480000	23.034614	0.000506	20.810645
300.088799	-2.995000	3.824100	-11.452000	23.044777	0.000507	20.800914
301.087763	-2.984200	3.825800	-11.416000	23.059620	0.000505	20.822898
302.089450	-3.009500	3.823900	-11.507000	23.069733	0.000507	20.819282
303.090101	-2.997700	3.823900	-11.462000	23.081786	0.000507	20.819505
304.091242	-3.001500	3.824000	-11.476000	23.100563	0.000507	20.806552
305.092052	-2.988600	3.824300	-11.428000	23.135978	0.000509	20.805055
306.089458	-3.002200	3.823200	-11.477000	23.119937	0.000508	20.799886
307.091667	-3.012300	3.823400	-11.516000	23.118542	0.000509	20.808920
308.093436	-3.020700	3.823300	-11.548000	23.129802	0.000510	20.820677
309.095534	-3.022000	3.822100	-11.549000	23.150267	0.000510	20.823166
310.098697	-2.993900	3.822000	-11.441000	23.148424	0.000510	20.820845
311.094572	-3.010500	3.821600	-11.504000	23.167227	0.000508	20.820721
312.094694	-3.021300	3.821700	-11.546000	23.172083	0.000509	20.819423
313.094699	-3.005900	3.821900	-11.487000	23.181320	0.000510	20.834369
314.094217	-3.035100	3.820200	-11.593000	23.172677	0.000509	20.837562
315.096742	-3.004800	3.820300	-11.477000	23.180347	0.000511	20.818221
316.097836	-3.010400	3.820100	-11.499000	23.191452	0.000511	20.823660
317.094361	-2.981500	3.821000	-11.391000	23.212321	0.000513	20.831296
318.093884	-2.981400	3.821400	-11.392000	23.264712	0.000512	20.824532
319.097706	-2.980000	3.821200	-11.386000	23.249971	0.000512	20.842000
320.094025	-2.993400	3.819400	-11.432000	23.246733	0.000509	20.836859
321.098444	-3.005500	3.818300	-11.475000	23.248975	0.000511	20.850011
322.097315	-2.972200	3.820200	-11.353000	23.236594	0.000513	20.839026
323.097041	-3.001000	3.819200	-11.461000	23.232509	0.000512	20.852476
324.095572	-3.006400	3.818200	-11.479000	23.258207	0.000513	20.846461
325.097776	-2.992600	3.818500	-11.426000	23.260471	0.000513	20.844463
326.097450	-2.988300	3.818000	-11.409000	23.242569	0.000513	20.841695
327.097372	-2.999300	3.817800	-11.450000	23.251683	0.000513	20.841345
328.097179	-3.013800	3.819000	-11.509000	23.256287	0.000514	20.839796
329.096464	-3.023800	3.817000	-11.541000	23.261816	0.000516	20.841543
330.098868	-2.991900	3.817100	-11.419000	23.291373	0.000512	20.857413
331.098641	-3.007800	3.816900	-11.480000	23.306438	0.000515	20.849752
332.100829	-2.991200	3.818300	-11.420000	23.293815	0.000513	20.837102
333.098623	-3.008900	3.817000	-11.484000	23.288883	0.000515	20.839272
334.099765	-3.015800	3.816000	-11.508000	23.321927	0.000514	20.857689
335.103081	-3.019400	3.816400	-11.523000	23.313287	0.000515	20.855194
336.100375	-3.015700	3.815800	-11.506000	23.331986	0.000516	20.854494
337.105994	-3.002200	3.815100	-11.453000	23.352579	0.000517	20.869442
338.101109	-3.005400	3.814600	-11.464000	23.351583	0.000518	20.883142
339.102019	-2.992700	3.815400	-11.417000	23.334079	0.000518	20.845686
340.102749	-3.002300	3.813800	-11.449000	23.334648	0.000519	20.849102
341.107668	-3.004200	3.814500	-11.458000	23.352059	0.000517	20.860387
342.103663	-3.017500	3.814600	-11.509000	23.358429	0.000519	20.867246
343.105021	-3.028600	3.814300	-11.551000	23.336967	0.000516	20.849529
344.103634	-3.021700	3.812600	-11.520000	23.372899	0.000518	20.852352
345.103737	-3.004400	3.814100	-11.458000	23.387141	0.000519	20.862358
346.102857	-2.995700	3.813300	-11.422000	23.386145	0.000520	20.876532
347.103800	-2.998400	3.814600	-11.437000	23.379346	0.000521	20.868770
348.103514	-3.028300	3.811400	-11.541000	23.406812	0.000519	20.860263
349.101942	-3.002000	3.811600	-11.442000	23.397199	0.000521	20.862482
350.102809	-2.990100	3.813100	-11.401000	23.399466	0.000519	20.864279
351.102711	-2.978500	3.812100	-11.353000	23.401784	0.000520	20.890309
352.105060	-2.982200	3.812200	-11.368000	23.378378	0.000522	20.880601
353.107342	-3.019300	3.809900	-11.503000	23.413809	0.000522	20.853526
354.103651	-2.975500	3.812400	-11.343000	23.433405	0.000520	20.860365
355.105957	-3.009400	3.811400	-11.470000	23.407661	0.000521	20.869174
356.110705	-2.982000	3.811500	-11.364000	23.433528	0.000521	20.855747
357.106355	-2.973800	3.810600	-11.331000	23.473163	0.000523	20.875559
358.108428	-2.994500	3.810100	-11.409000	23.429271	0.000521	20.879928
359.107298	-2.999000	3.809400	-11.423000	23.486110	0.000520	20.866253
360.106522	-2.988100	3.809000	-11.381000	23.449986	0.000522	20.885044
361.107522	-2.996700	3.810500	-11.418000	23.457607	0.000521	20.896001
362.108551	-2.998700	3.809000	-11.421000	23.480511	0.000523	20.886717
363.109222	-2.997400	3.808100	-11.414000	23.470503	0.000523	20.879057
364.108316	-3.005100	3.808200	-11.443000	23.464752	0.000523	20.882301
365.108463	-2.996000	3.808900	-11.410000	23.494083	0.000523	20.880407
366.108200	-2.997600	3.808600	-11.415000	23.480714	0.000521	20.881231
367.107899	-2.984300	3.808500	-11.364000	23.503169	0.000523	20.877187
368.108527	-2.999600	3.807200	-11.418000	23.500381	0.000525	20.913744
369.110336	-2.975700	3.807900	-11.329000	23.507327	0.000525	20.891786
370.108724	-2.997100	3.807400	-11.410000	23.535585	0.000526	20.885972
371.107647	-2.993300	3.807400	-11.396000	23.504514	0.000523	20.890862
372.110940	-3.003400	3.805700	-11.429000	23.529386	0.000525	20.904413
373.109335	-3.003700	3.806700	-11.433000	23.543579	0.000525	20.893037
374.112731	-2.992600	3.807900	-11.393000	23.587689	0.000525	20.890314
375.110375	-3.015000	3.805700	-11.473000	23.582238	0.000524	20.897651
376.110896	-3.008600	3.807200	-11.454000	23.590155	0.000525	20.887571
377.111255	-2.987900	3.806100	-11.371000	23.596081	0.000527	20.903942
378.112846	-2.992100	3.805100	-11.384000	23.599788	0.000527	20.888693
379.114048	-3.004300	3.804500	-11.429000	23.580745	0.000527	20.894258
380.114347	-2.984100	3.804400	-11.351000	23.602827	0.000528	20.891739
381.113099	-3.015500	3.805000	-11.473000	23.582412	0.000528	20.904463
382.113834	-3.011800	3.804000	-11.456000	23.615023	0.000526	20.887370
383.115041	-3.020400	3.802900	-11.484000	23.600558	0.000526	20.888043
384.112905	-2.985100	3.804400	-11.356000	23.602601	0.000528	20.898150
385.118022	-2.993400	3.802900	-11.383000	23.595680	0.000529	20.893109
386.114563	-2.993000	3.803700	-11.383000	23.612930	0.000527	20.878635
387.114077	-3.002300	3.802900	-11.416000	23.638171	0.000528	20.903462
388.114708	-2.991800	3.802300	-11.375000	23.657315	0.000527	20.884250
389.115018	-3.002300	3.802400	-11.413000	23.670731	0.000527	20.910500
390.117115	-2.980600	3.802500	-11.333000	23.684521	0.000528	20.884024
391.115447	-3.007200	3.801900	-11.432000	23.649569	0.000527	20.855149
392.116982	-3.006700	3.803200	-11.434000	23.657387	0.000528	20.876736
393.119463	-2.989400	3.802400	-11.366000	23.702616	0.000527	20.875140
394.121344	-2.989800	3.801500	-11.365000	23.695096	0.000526	20.892729
395.125574	-3.009300	3.801100	-11.437000	23.681381	0.000528	20.893203
396.116951	-3.001200	3.800800	-11.406000	23.721256	0.000529	20.884818
397.117334	-3.004500	3.801200	-11.420000	23.729051	0.000531	20.893580
398.118374	-3.001500	3.801200	-11.409000	23.729898	0.000527	20.881154
399.118940	-2.998700	3.800900	-11.397000	23.723423	0.000530	20.871344
400.118401	-3.020500	3.799300	-11.475000	23.742392	0.000529	20.891783
401.122987	-3.006700	3.799700	-11.423000	23.743065	0.000531	20.870175
402.122136	-3.030100	3.798600	-11.509000	23.751779	0.000530	20.868005
403.122019	-2.967300	3.799600	-11.273000	23.782892	0.000530	20.880707
404.126401	-2.986400	3.799900	-11.347000	23.737967	0.000529	20.877865
405.123036	-2.991600	3.798300	-11.362000	23.696696	0.000530	20.877739
406.124270	-2.999700	3.798100	-11.392000	23.729455	0.000528	20.873124
407.121980	-3.004000	3.798200	-11.409000	23.721519	0.000530	20.882237
408.123006	-3.009200	3.798000	-11.428000	23.697446	0.000531	20.876594
409.122507	-3.024500	3.797300	-11.484000	23.702577	0.000532	20.890746
410.123810	-3.003100	3.797100	-11.402000	23.734514	0.000532	20.889574
411.125520	-3.010200	3.797300	-11.430000	23.756567	0.000531	20.877548
412.124127	-2.992200	3.797200	-11.361000	23.764362	0.000531	20.862130
413.123865	-2.970400	3.797700	-11.280000	23.773325	0.000531	20.865901
414.124836	-2.999200	3.795500	-11.383000	23.772280	0.000533	20.861060
415.130064	-3.013000	3.796600	-11.438000	23.757620	0.000535	20.868172
416.124630	-2.988700	3.796700	-11.347000	23.774301	0.000535	20.865457
417.128089	-2.993800	3.796700	-11.366000	23.781592	0.000534	20.859966
418.126208	-3.003100	3.795600	-11.398000	23.770644	0.000534	20.859894
419.126584	-3.011700	3.794700	-11.427000	23.790657	0.000533	20.843451
420.126427	-3.015200	3.794400	-11.440000	23.801110	0.000532	20.865785
421.126395	-3.006800	3.794300	-11.408000	23.815899	0.000535	20.849793
422.129422	-2.995000	3.795000	-11.365000	23.842081	0.000535	20.858027
423.126071	-2.998100	3.794600	-11.376000	23.826431	0.000532	20.846130
424.126793	-2.999300	3.795200	-11.382000	23.827127	0.000532	20.841138
425.127324	-3.016500	3.792800	-11.441000	23.811524	0.000532	20.843511
426.126968	-3.019300	3.793100	-11.452000	23.867275	0.000533	20.838720
427.129161	-3.009200	3.793000	-11.413000	23.863294	0.000534	20.842314
428.127944	-3.003400	3.793100	-11.392000	23.859560	0.000533	20.841890
429.126867	-2.986700	3.793300	-11.328000	23.844060	0.000534	20.850055
430.143282	-2.999100	3.792900	-11.374000	23.876589	0.000534	20.850430
431.128803	-3.005800	3.790700	-11.393000	23.889609	0.000533	20.856847
432.128185	-3.021000	3.790600	-11.449000	23.890456	0.000535	20.854851
433.129314	-3.018300	3.791400	-11.442000	23.885081	0.000534	20.862263
434.128442	-3.009400	3.790800	-11.407000	23.865795	0.000536	20.867581
435.128758	-2.991300	3.790600	-11.338000	23.883615	0.000534	20.866009
436.128915	-3.001800	3.790700	-11.379000	23.858531	0.000532	20.827582
437.128649	-2.996400	3.791000	-11.359000	23.853580	0.000533	20.843480
438.132153	-3.004300	3.789700	-11.385000	23.877124	0.000535	20.823467
439.129642	-3.022900	3.789800	-11.454000	23.871156	0.000535	20.839766
440.129349	-3.015400	3.789400	-11.426000	23.893009	0.000535	20.847454
441.134152	-2.994200	3.789600	-11.346000	23.932129	0.000535	20.816034
442.129250	-3.014800	3.790000	-11.425000	23.927156	0.000534	20.825746
443.132265	-3.015700	3.788900	-11.425000	23.923274	0.000535	20.837500
444.130661	-3.002500	3.789200	-11.376000	23.896200	0.000534	20.844965
445.130483	-3.015700	3.787800	-11.421000	23.874523	0.000535	20.837453
446.130329	-2.995700	3.788500	-11.348000	23.915117	0.000536	20.826002
447.132067	-2.992100	3.788300	-11.334000	23.922411	0.000533	20.832841
448.133213	-2.994200	3.787500	-11.339000	23.942718	0.000536	20.842773
449.132691	-3.004100	3.787800	-11.377000	23.963528	0.000536	20.838512
450.133545	-2.995700	3.787100	-11.344000	23.934462	0.000536	20.835918
451.139772	-3.000000	3.787300	-11.361000	23.936403	0.000537	20.834545
452.139040	-3.003100	3.786700	-11.370000	23.975849	0.000534	20.847073
453.139882	-3.017800	3.785300	-11.422000	23.974881	0.000534	20.866965
454.134271	-2.977200	3.785700	-11.270000	23.989764	0.000536	20.843484
455.134072	-2.991300	3.785200	-11.322000	24.003079	0.000535	20.811320
456.138060	-2.985800	3.785500	-11.301000	23.995767	0.000535	20.819160
457.134279	-3.002900	3.784900	-11.366000	23.974042	0.000537	20.851900
458.138231	-2.975500	3.784600	-11.259000	23.987859	0.000539	20.831143
459.134780	-2.998500	3.784700	-11.347000	24.001870	0.000535	20.834288
460.135355	-2.987100	3.784100	-11.303000	23.980843	0.000535	20.829797
461.136228	-2.998300	3.784200	-11.346000	23.983309	0.000536	20.830848
462.134198	-3.002200	3.783000	-11.357000	24.001751	0.000537	20.832747
463.136874	-3.016800	3.783600	-11.414000	24.009267	0.000536	20.817525
464.139353	-2.994500	3.783200	-11.328000	23.981849	0.000538	20.821798
465.136240	-2.979100	3.783700	-11.271000	23.985060	0.000538	20.809845
466.136942	-3.001400	3.782500	-11.352000	24.015397	0.000536	20.817508
467.137688	-2.992200	3.782800	-11.318000	24.008082	0.000537	20.824871
468.138551	-3.001700	3.782400	-11.352000	24.001067	0.000537	20.824000
469.140695	-3.004500	3.780800	-11.359000	23.984496	0.000538	20.829668
470.138503	-2.994800	3.781500	-11.323000	24.008412	0.000538	20.813348
471.138408	-3.002700	3.781500	-11.353000	24.024339	0.000539	20.820312
472.138737	-2.986600	3.780900	-11.291000	24.037429	0.000538	20.816844
473.138891	-2.992700	3.781300	-11.315000	24.063113	0.000540	20.815576
474.140574	-2.987200	3.781000	-11.293000	24.058262	0.000538	20.804072
475.140514	-3.000200	3.780700	-11.342000	24.042162	0.000538	20.832496
476.139362	-3.008300	3.780000	-11.370000	24.038484	0.000537	20.818377
477.138455	-3.001900	3.779500	-11.345000	24.070334	0.000537	20.832775
478.139942	-2.996500	3.778900	-11.322000	24.083998	0.000539	20.813288
479.139974	-3.016500	3.778300	-11.396000	24.111567	0.000540	20.805850
480.140314	-3.020000	3.778300	-11.409000	24.090642	0.000541	20.794821
481.141438	-2.989700	3.779600	-11.298000	24.091664	0.000538	20.820502
482.138854	-2.997200	3.778100	-11.322000	24.081665	0.000540	20.824698
483.141724	-3.027200	3.777600	-11.435000	24.090199	0.000539	20.775411
484.141228	-2.980500	3.778100	-11.260000	24.093286	0.000540	20.802689
485.145380	-2.980400	3.777600	-11.257000	24.085647	0.000542	20.804037
486.143263	-3.008500	3.776900	-11.361000	24.060565	0.000540	20.809702
487.141903	-2.992400	3.777500	-11.302000	24.052058	0.000539	20.792161
488.145959	-2.973300	3.777600	-11.231000	24.064252	0.000540	20.807234
489.141788	-2.981800	3.777200	-11.262000	24.083685	0.000541	20.793059
490.145967	-2.996600	3.776400	-11.315000	24.098544	0.000542	20.816497
491.144149	-2.986800	3.776600	-11.278000	24.125965	0.000540	20.803695
492.142437	-2.998000	3.775600	-11.318000	24.109470	0.000539	20.779565
493.143930	-2.986500	3.776000	-11.276000	24.132987	0.000540	20.800307
494.142475	-3.004600	3.775200	-11.342000	24.153662	0.000541	20.778843
495.145603	-2.990200	3.775300	-11.288000	24.151004	0.000539	20.806049
496.147606	-2.988500	3.775500	-11.282000	24.151155	0.000538	20.803830
497.144807	-2.992200	3.774800	-11.294000	24.141027	0.000539	20.782766
498.144667	-3.017500	3.774400	-11.388000	24.140007	0.000540	20.797865
499.144288	-3.003100	3.772700	-11.329000	24.142028	0.000540	20.780451
500.144539	-2.994900	3.772200	-11.297000	24.148720	0.000539	20.798543
501.146601	-3.020100	3.773600	-11.396000	24.135835	0.000539	20.792732
502.145983	-2.998100	3.773500	-11.313000	24.129791	0.000537	20.820809
503.147612	-3.009600	3.773400	-11.355000	24.151241	0.000541	20.804390
504.150228	-2.992600	3.771700	-11.286000	24.167660	0.000540	20.797151
505.149282	-3.002600	3.771800	-11.325000	24.173435	0.000539	20.782554
506.152872	-2.978700	3.772700	-11.236000	24.172641	0.000542	20.798353
507.148272	-3.012100	3.771200	-11.359000	24.195085	0.000541	20.769181
508.148545	-2.999900	3.773000	-11.319000	24.169656	0.000541	20.802472
509.148505	-3.005700	3.771600	-11.336000	24.184388	0.000540	20.776470
510.149203	-2.959100	3.772300	-11.162000	24.163340	0.000540	20.800878
511.150464	-2.987600	3.772300	-11.269000	24.136075	0.000540	20.786808
512.152964	-2.994200	3.770800	-11.290000	24.143762	0.000541	20.786458
513.149951	-2.988700	3.769800	-11.265000	24.152720	0.000542	20.794494
514.150582	-2.981600	3.771600	-11.244000	24.145082	0.000541	20.787781
515.150858	-2.986900	3.769400	-11.257000	24.162898	0.000542	20.776253
516.148387	-3.000300	3.768700	-11.307000	24.199199	0.000541	20.809344
517.152514	-2.996900	3.770300	-11.299000	24.213208	0.000542	20.776454
518.150129	-2.993400	3.768900	-11.281000	24.242494	0.000542	20.793502
519.150569	-2.985600	3.769700	-11.254000	24.202811	0.000540	20.778354
520.153142	-2.995800	3.767600	-11.286000	24.194228	0.000541	20.792504
521.152643	-3.009700	3.767500	-11.338000	24.203558	0.000541	20.794276
522.152867	-3.010900	3.768700	-11.347000	24.218210	0.000539	20.785739
523.151934	-3.006200	3.768000	-11.327000	24.249807	0.000540	20.780449
524.152016	-3.016700	3.767400	-11.364000	24.273099	0.000544	20.769673
525.151793	-3.007600	3.767300	-11.330000	24.294515	0.000541	20.769819
526.154715	-2.994100	3.768100	-11.281000	24.272623	0.000539	20.775360
527.155755	-3.001000	3.767200	-11.305000	24.231850	0.000542	20.763859
528.152862	-3.001100	3.766400	-11.302000	24.271607	0.000540	20.783823
529.153466	-3.000800	3.766200	-11.301000	24.309221	0.000540	20.774139
530.152600	-2.977600	3.766200	-11.214000	24.296560	0.000543	20.771396
531.153879	-2.995500	3.765800	-11.279000	24.300614	0.000541	20.772617
532.155966	-3.001300	3.765000	-11.299000	24.288324	0.000540	20.797747
533.157959	-2.994700	3.765700	-11.276000	24.286161	0.000541	20.758593
534.153955	-2.977400	3.764800	-11.209000	24.283127	0.000543	20.783051
535.154331	-2.992600	3.764800	-11.265000	24.327485	0.000540	20.766855
536.156819	-2.989500	3.765900	-11.257000	24.356015	0.000542	20.786467
537.155663	-3.017400	3.763500	-11.355000	24.380871	0.000543	20.781530
538.161406	-2.994000	3.764400	-11.270000	24.361915	0.000541	20.745443
539.154803	-3.015200	3.761800	-11.341000	24.331420	0.000539	20.775071
540.155361	-3.009600	3.762400	-11.322000	24.345798	0.000540	20.780485
541.156142	-2.983400	3.763100	-11.225000	24.363685	0.000539	20.767134
542.156963	-2.997500	3.762700	-11.277000	24.329755	0.000541	20.787625
543.160834	-3.004500	3.761600	-11.300000	24.339236	0.000541	20.767264
544.156196	-2.994400	3.761700	-11.263000	24.313959	0.000543	20.772253
545.155764	-2.974600	3.762200	-11.190000	24.302216	0.000539	20.774699
546.157737	-3.004000	3.761700	-11.299000	24.303535	0.000540	20.769384
547.157499	-3.018200	3.759700	-11.347000	24.307270	0.000538	20.760328
548.156235	-3.021900	3.759800	-11.361000	24.310975	0.000540	20.770682
549.159410	-3.007900	3.759900	-11.308000	24.277689	0.000540	20.766216
550.155490	-2.979200	3.760900	-11.203000	24.286571	0.000537	20.770385
551.159191	-2.999800	3.760200	-11.279000	24.308315	0.000540	20.774178
552.159643	-3.007900	3.759500	-11.308000	24.343617	0.000541	20.766442
553.159564	-2.992500	3.760900	-11.254000	24.329288	0.000539	20.767716
554.163131	-3.002700	3.759500	-11.288000	24.325059	0.000537	20.761577
555.158970	-3.005600	3.759200	-11.297000	24.303563	0.000539	20.743806
556.158573	-2.983400	3.758600	-11.213000	24.338420	0.000541	20.753643
557.159961	-2.996100	3.759800	-11.264000	24.383996	0.000541	20.752896
558.160338	-2.973800	3.759400	-11.178000	24.419320	0.000540	20.770790
559.161071	-2.997300	3.759800	-11.269000	24.428998	0.000539	20.752998
560.160193	-3.005400	3.758200	-11.294000	24.436961	0.000539	20.749607
561.160874	-2.994400	3.757200	-11.250000	24.454847	0.000538	20.753326
562.164745	-3.000200	3.757400	-11.272000	24.486836	0.000541	20.747013
563.160628	-3.026400	3.757300	-11.370000	24.446117	0.000538	20.740774
564.166656	-3.011100	3.756700	-11.311000	24.410821	0.000538	20.743297
565.165375	-2.986600	3.756400	-11.218000	24.389204	0.000542	20.753853
566.160723	-3.007000	3.755800	-11.293000	24.397961	0.000539	20.747465
567.161463	-2.989200	3.756600	-11.229000	24.419782	0.000538	20.751813
568.162022	-2.986400	3.756200	-11.216000	24.421719	0.000541	20.754231
569.162391	-2.996100	3.754600	-11.249000	24.394683	0.000538	20.751289
570.179501	-3.015500	3.755600	-11.325000	24.428988	0.000538	20.737340
571.163275	-2.976800	3.756100	-11.180000	24.424163	0.000539	20.750992
572.163415	-3.009800	3.755500	-11.302000	24.439086	0.000539	20.761222
573.167137	-3.004100	3.754500	-11.277000	24.456180	0.000539	20.746603
574.164164	-2.992400	3.754200	-11.233000	24.468345	0.000539	20.725141
575.165814	-2.998200	3.755000	-11.257000	24.466525	0.000540	20.741335
576.163382	-3.018000	3.752900	-11.326000	24.443073	0.000538	20.757162
577.163320	-2.997400	3.754200	-11.252000	24.480731	0.000540	20.749898
578.164643	-3.004500	3.753300	-11.276000	24.482798	0.000538	20.733952
579.165629	-2.979800	3.753400	-11.183000	24.454741	0.000538	20.734253
580.166584	-3.006100	3.753300	-11.282000	24.469864	0.000538	20.726666
581.164722	-3.001400	3.751900	-11.260000	24.431085	0.000538	20.739918
582.164996	-2.985700	3.751900	-11.202000	24.432002	0.000538	20.741787
583.167314	-2.974400	3.753300	-11.163000	24.422405	0.000538	20.738322
584.167201	-2.995400	3.751300	-11.236000	24.416359	0.000539	20.746482
585.167917	-3.003500	3.751500	-11.267000	24.459241	0.000538	20.748726
586.169272	-2.968700	3.752600	-11.140000	24.451157	0.000539	20.733503
587.167466	-3.004500	3.751900	-11.272000	24.423894	0.000538	20.729858
588.170199	-2.994400	3.750100	-11.228000	24.423721	0.000537	20.736323
589.170813	-2.997500	3.749500	-11.239000	24.400064	0.000537	20.723495
590.170439	-3.004800	3.749200	-11.265000	24.461805	0.000539	20.740392
591.173743	-2.994900	3.750300	-11.231000	24.499388	0.000538	20.727363
592.170789	-3.029200	3.748800	-11.354000	24.512049	0.000537	20.721100
593.170897	-3.012600	3.750200	-11.296000	24.515879	0.000538	20.727788
594.173468	-2.992700	3.749500	-11.219000	24.507175	0.000538	20.722373
595.171763	-2.996400	3.748300	-11.230000	24.494717	0.000537	20.730738
596.171884	-3.015500	3.747300	-11.299000	24.471310	0.000537	20.740919
597.174516	-2.997600	3.748600	-11.235000	24.504197	0.000539	20.733137
598.174566	-2.984300	3.748400	-11.186000	24.522603	0.000537	20.728370
599.172505	-2.999800	3.747200	-11.240000	24.489920	0.000538	20.723080
600.173398	-3.015300	3.746500	-11.296000	24.510090	0.000537	20.721031
601.174495	-2.970800	3.747500	-11.131000	24.535585	0.000535	20.741396
602.173075	-2.993400	3.747100	-11.216000	24.545065	0.000540	20.726250
603.173211	-3.019400	3.746100	-11.310000	24.525618	0.000537	20.722385
604.174592	-2.993900	3.748200	-11.221000	24.520570	0.000537	20.708786
605.173744	-3.005000	3.746700	-11.258000	24.525818	0.000535	20.731596
606.173918	-3.029900	3.744000	-11.343000	24.497688	0.000537	20.724235
607.174081	-2.994400	3.746300	-11.218000	24.541243	0.000538	20.715303
608.173800	-3.011300	3.745100	-11.277000	24.566441	0.000539	20.713084
609.174076	-3.011200	3.745000	-11.276000	24.572486	0.000536	20.730530
610.174696	-2.991400	3.744500	-11.200000	24.571615	0.000536	20.723017
611.174711	-2.986600	3.745100	-11.184000	24.567263	0.000538	20.721970
612.175146	-2.986900	3.745200	-11.186000	24.548214	0.000536	20.730359
613.176523	-2.997200	3.744900	-11.224000	24.583058	0.000536	20.721223
614.179388	-3.023000	3.742500	-11.312000	24.582066	0.000536	20.733031
615.175200	-2.993700	3.743000	-11.204000	24.594031	0.000538	20.733657
616.175241	-2.996800	3.742800	-11.216000	24.602661	0.000533	20.738997
617.179067	-3.009100	3.743800	-11.264000	24.605249	0.000535	20.725946
618.175463	-3.009500	3.743900	-11.266000	24.603634	0.000535	20.741869
619.177007	-3.014300	3.742700	-11.281000	24.653352	0.000535	20.733436
620.178404	-2.993000	3.742900	-11.201000	24.643061	0.000536	20.730222
621.177088	-2.974700	3.743200	-11.134000	24.613140	0.000535	20.707784
622.176470	-3.021800	3.742700	-11.309000	24.579518	0.000535	20.715774
623.181744	-2.995800	3.740900	-11.206000	24.591804	0.000534	20.715774
624.177318	-3.001600	3.740100	-11.225000	24.550123	0.000534	20.710461
625.178709	-2.982600	3.742000	-11.160000	24.550351	0.000535	20.703104
626.178458	-2.997800	3.740500	-11.212000	24.530824	0.000534	20.718600
627.183172	-2.992800	3.742300	-11.198000	24.526299	0.000532	20.714534
628.179979	-3.000200	3.740600	-11.222000	24.516155	0.000535	20.707675
629.178640	-3.006800	3.740800	-11.247000	24.545381	0.000535	20.718981
630.183891	-3.010200	3.739300	-11.254000	24.558144	0.000532	20.723252
631.181170	-2.996400	3.738500	-11.201000	24.584610	0.000534	20.713297
632.181363	-2.995300	3.738700	-11.198000	24.586331	0.000534	20.720713
633.184682	-3.013500	3.738200	-11.264000	24.530391	0.000534	20.718166
634.182498	-3.011400	3.739200	-11.260000	24.575215	0.000535	20.705766
635.183294	-3.004200	3.737900	-11.227000	24.546091	0.000537	20.728229
636.185036	-3.027500	3.738200	-11.317000	24.503086	0.000532	20.727755
637.182414	-3.015600	3.738500	-11.273000	24.506098	0.000533	20.694738
638.186127	-3.014700	3.738200	-11.269000	24.525777	0.000533	20.709268
639.184359	-3.015400	3.737500	-11.269000	24.547040	0.000533	20.686977
640.182086	-3.017600	3.737200	-11.277000	24.544433	0.000533	20.722297
641.184209	-2.997900	3.737700	-11.204000	24.575070	0.000533	20.700878
642.183047	-3.009400	3.737300	-11.246000	24.588703	0.000533	20.701755
643.183385	-3.003700	3.735900	-11.221000	24.587109	0.000534	20.701578
644.183989	-2.997600	3.736500	-11.199000	24.599300	0.000532	20.727563
645.185157	-2.996800	3.736600	-11.197000	24.639216	0.000534	20.703602
646.188282	-2.987800	3.736300	-11.162000	24.635435	0.000532	20.716405
647.185200	-2.988700	3.736600	-11.166000	24.633891	0.000532	20.701578
648.184914	-2.987200	3.735300	-11.157000	24.623594	0.000533	20.704997
649.188821	-3.006000	3.734800	-11.225000	24.614693	0.000533	20.729258
650.186956	-3.022900	3.734800	-11.289000	24.613473	0.000531	20.697686
651.186681	-2.997700	3.736200	-11.199000	24.632795	0.000531	20.720394
652.190452	-2.984200	3.734500	-11.144000	24.630009	0.000530	20.705270
653.187886	-2.997300	3.734600	-11.193000	24.651844	0.000532	20.720069
654.187568	-3.014200	3.733300	-11.252000	24.664081	0.000531	20.685403
655.187294	-2.997800	3.733600	-11.192000	24.699566	0.000530	20.701098
656.186729	-3.017900	3.733100	-11.266000	24.697852	0.000531	20.713604
657.190227	-2.994000	3.734000	-11.179000	24.677509	0.000531	20.743452
658.190811	-2.985100	3.733100	-11.142000	24.669671	0.000531	20.715197
659.189127	-2.998900	3.732500	-11.193000	24.657459	0.000531	20.716694
660.189490	-3.001200	3.731900	-11.199000	24.656140	0.000531	20.718215
661.190383	-3.011000	3.731400	-11.235000	24.646690	0.000532	20.715844
662.189114	-2.988100	3.733200	-11.155000	24.637736	0.000530	20.695953
663.189703	-2.996000	3.731100	-11.178000	24.682904	0.000531	20.735590
664.191430	-3.003500	3.732000	-11.208000	24.696181	0.000529	20.720462
665.190297	-3.001500	3.731300	-11.198000	24.662833	0.000529	20.698377
666.190427	-3.019100	3.730800	-11.263000	24.672478	0.000530	20.719911
667.189455	-2.994200	3.729700	-11.166000	24.699912	0.000530	20.722309
668.190412	-3.001400	3.731200	-11.198000	24.730325	0.000529	20.719164
669.190566	-3.013400	3.731000	-11.241000	24.761484	0.000530	20.735261
670.190785	-3.009000	3.730500	-11.224000	24.723911	0.000529	20.740703
671.188491	-3.010200	3.730000	-11.227000	24.732168	0.000530	20.726230
672.188514	-2.996000	3.730500	-11.176000	24.763251	0.000529	20.727550
673.189669	-2.985900	3.729200	-11.135000	24.748233	0.000529	20.735239
674.192790	-3.009900	3.728500	-11.221000	24.731298	0.000529	20.730098
675.189406	-3.008900	3.728600	-11.218000	24.721150	0.000527	20.710430
676.189239	-2.998600	3.729400	-11.182000	24.691132	0.000527	20.733888
677.191965	-2.984900	3.728800	-11.129000	24.666931	0.000529	20.721457
678.191268	-3.000200	3.728600	-11.186000	24.687701	0.000527	20.705313
679.197223	-3.008200	3.728300	-11.213000	24.681283	0.000527	20.716418
680.193642	-2.968500	3.728000	-11.066000	24.685211	0.000529	20.730318
681.191325	-2.989200	3.728200	-11.143000	24.699708	0.000527	20.697921
682.193256	-2.982000	3.727500	-11.114000	24.734747	0.000528	20.714118
683.196860	-3.003500	3.726700	-11.191000	24.697920	0.000527	20.719836
684.192724	-3.023100	3.726100	-11.263000	24.708658	0.000526	20.708326
685.193920	-2.994100	3.726600	-11.157000	24.745093	0.000528	20.715491
686.198373	-2.983200	3.726400	-11.116000	24.740219	0.000524	20.739052
687.195407	-3.006700	3.725900	-11.202000	24.757822	0.000527	20.724473
688.195156	-3.016300	3.723900	-11.232000	24.723355	0.000526	20.726869
689.195791	-3.019700	3.724900	-11.247000	24.696073	0.000524	20.736476
690.195044	-2.995800	3.724500	-11.157000	24.711666	0.000526	20.736002
691.195023	-3.000500	3.725600	-11.178000	24.730692	0.000528	20.725697
692.195309	-2.974000	3.726000	-11.080000	24.757399	0.000528	20.722626
693.198193	-3.001200	3.724300	-11.177000	24.765332	0.000527	20.720156
694.194828	-2.999200	3.724800	-11.170000	24.764088	0.000526	20.733132
695.195804	-2.985200	3.725300	-11.120000	24.763319	0.000526	20.746112
696.198880	-3.001200	3.724400	-11.177000	24.779383	0.000524	20.740896
697.195440	-2.987500	3.724200	-11.124000	24.780498	0.000525	20.725892
698.199026	-2.972100	3.724600	-11.069000	24.818795	0.000526	20.723075
699.198923	-2.985200	3.723200	-11.112000	24.817597	0.000526	20.730882
700.195045	-2.992700	3.723800	-11.143000	24.793106	0.000527	20.748978
701.199324	-2.997900	3.724300	-11.165000	24.798056	0.000526	20.757265
702.198031	-2.976100	3.722600	-11.077000	24.795768	0.000525	20.729838
703.195694	-2.991900	3.721200	-11.132000	24.809198	0.000524	20.751851
704.197619	-2.975700	3.722300	-11.076000	24.790349	0.000525	20.753323
705.196643	-2.990200	3.723000	-11.131000	24.799875	0.000524	20.761462
706.196310	-2.979900	3.721200	-11.088000	24.771549	0.000525	20.735404
707.197011	-2.990100	3.721700	-11.128000	24.748005	0.000522	20.755400
708.198311	-2.979000	3.720400	-11.083000	24.750614	0.000524	20.741897
709.196126	-2.977300	3.722400	-11.081000	24.747032	0.000523	20.743043
710.197646	-2.991700	3.719700	-11.127000	24.763396	0.000521	20.738128
711.197452	-2.998500	3.720700	-11.156000	24.754743	0.000523	20.747937
712.197002	-2.990700	3.720000	-11.125000	24.764217	0.000521	20.755548
713.198710	-2.991900	3.719500	-11.128000	24.759542	0.000521	20.746589
714.197502	-2.996000	3.718800	-11.141000	24.778120	0.000521	20.742947
715.198134	-3.003200	3.720600	-11.174000	24.783144	0.000523	20.764585
716.199080	-3.006900	3.719400	-11.183000	24.804282	0.000523	20.763987
717.198215	-3.001500	3.718900	-11.161000	24.822386	0.000520	20.753707
718.201562	-2.997400	3.718200	-11.144000	24.808614	0.000521	20.748420
719.197824	-2.995600	3.718700	-11.139000	24.815923	0.000520	20.749592
720.199046	-3.006500	3.718700	-11.180000	24.752467	0.000521	20.758929
721.202016	-3.008000	3.717500	-11.181000	24.774003	0.000521	20.760628
722.200071	-3.001100	3.717500	-11.155000	24.786411	0.000519	20.747475
723.201000	-2.992100	3.717400	-11.121000	24.811381	0.000521	20.769690
724.210116	-3.006500	3.718100	-11.178000	24.852987	0.000520	20.735580
725.201481	-3.003000	3.716000	-11.159000	24.880611	0.000520	20.756193
726.201918	-2.957900	3.717500	-10.995000	24.833991	0.000521	20.744490
727.204598	-3.006600	3.715300	-11.170000	24.871542	0.000519	20.739504
728.202258	-3.006200	3.715900	-11.169000	24.857496	0.000521	20.755753
729.202051	-2.978000	3.717500	-11.070000	24.861025	0.000519	20.778262
730.208857	-2.999400	3.715200	-11.143000	24.882961	0.000519	20.746223
731.204138	-3.008100	3.715100	-11.174000	24.890992	0.000519	20.760448
732.203903	-2.991100	3.716000	-11.114000	24.866478	0.000518	20.746750
733.207057	-2.991100	3.715900	-11.114000	24.819610	0.000519	20.767517
734.202721	-3.007500	3.714200	-11.169000	24.795518	0.000518	20.748553
735.203541	-2.998700	3.713800	-11.136000	24.798180	0.000519	20.760234
736.207710	-2.982800	3.714500	-11.079000	24.835575	0.000519	20.749399
737.203447	-3.005800	3.713400	-11.160000	24.836724	0.000517	20.767148
738.204029	-3.002000	3.712700	-11.145000	24.805643	0.000518	20.736429
739.206783	-2.999300	3.715000	-11.141000	24.780108	0.000518	20.760116
740.204484	-3.017300	3.712300	-11.200000	24.808154	0.000520	20.762658
741.204397	-3.001600	3.713300	-11.145000	24.811711	0.000518	20.788987
742.207017	-2.990200	3.713300	-11.103000	24.828099	0.000515	20.764182
743.204521	-2.983200	3.713500	-11.077000	24.875022	0.000520	20.746316
744.209835	-3.014800	3.710900	-11.186000	24.867513	0.000517	20.767229
745.206262	-3.005500	3.711800	-11.154000	24.862341	0.000517	20.756348
746.207566	-2.994300	3.711700	-11.112000	24.857419	0.000517	20.760417
747.206026	-2.996500	3.712200	-11.122000	24.865052	0.000517	20.760491
748.208838	-2.997100	3.712900	-11.127000	24.892604	0.000517	20.777713
749.208185	-3.013200	3.711200	-11.181000	24.893079	0.000515	20.757327
750.206127	-3.010300	3.710800	-11.169000	24.896013	0.000515	20.774970
751.208498	-3.015900	3.710500	-11.189000	24.930175	0.000516	20.749514
752.212978	-3.027500	3.709100	-11.228000	24.908395	0.000514	20.779811
753.206892	-3.014600	3.710500	-11.185000	24.932540	0.000515	20.770855
754.206257	-2.986000	3.711100	-11.080000	24.874380	0.000513	20.760845
755.207291	-2.976700	3.709900	-11.041000	24.845614	0.000515	20.762794
756.206784	-2.980600	3.710800	-11.059000	24.855510	0.000514	20.767511
757.208918	-2.996000	3.708700	-11.109000	24.864811	0.000514	20.782535
758.208786	-3.013400	3.707100	-11.171000	24.866849	0.000515	20.770830
759.211816	-3.006100	3.708700	-11.147000	24.854491	0.000512	20.762695
760.208415	-2.996100	3.709000	-11.112000	24.874655	0.000513	20.772500
761.208573	-3.008900	3.706700	-11.153000	24.887265	0.000512	20.778519
762.211796	-3.004700	3.706600	-11.136000	24.852975	0.000512	20.781562
763.210557	-3.026100	3.706300	-11.214000	24.839024	0.000512	20.779415
764.210341	-2.992400	3.708200	-11.096000	24.845364	0.000512	20.765862
765.214938	-2.992900	3.707600	-11.096000	24.884949	0.000512	20.779040
766.210872	-2.982500	3.709000	-11.062000	24.874207	0.000512	20.767309
767.210866	-2.975800	3.709000	-11.036000	24.903226	0.000513	20.754708
768.215159	-2.998900	3.707300	-11.117000	24.944400	0.000513	20.783707
769.211926	-2.982600	3.706500	-11.055000	24.980922	0.000514	20.793813
770.211942	-3.007300	3.706900	-11.147000	24.910781	0.000513	20.785526
771.214427	-2.995000	3.705200	-11.097000	24.905511	0.000512	20.766959
772.212310	-2.991700	3.707200	-11.090000	24.919856	0.000514	20.784203
773.212851	-2.983600	3.706900	-11.059000	24.919955	0.000511	20.783353
774.211480	-2.979300	3.707000	-11.044000	24.923212	0.000515	20.788994
775.213718	-2.979200	3.705000	-11.037000	24.940963	0.000512	20.773619
776.213041	-2.973000	3.705800	-11.017000	24.953987	0.000512	20.791907
777.216227	-3.004700	3.704800	-11.130000	24.919328	0.000514	20.794104
778.214299	-3.003600	3.704000	-11.123000	24.909429	0.000511	20.804083
779.213326	-3.004700	3.704100	-11.128000	24.889738	0.000513	20.797123
780.213646	-2.997100	3.704200	-11.102000	24.874769	0.000512	20.776882
781.214025	-3.007700	3.703400	-11.138000	24.889782	0.000510	20.791950
782.212396	-2.987100	3.704900	-11.066000	24.925435	0.000512	20.799286
783.213630	-2.994800	3.703500	-11.090000	24.940231	0.000510	20.801334
784.214684	-2.996900	3.703000	-11.097000	24.934359	0.000510	20.780741
785.212905	-3.002800	3.701800	-11.114000	24.980879	0.000511	20.797088
786.214496	-3.010800	3.702200	-11.146000	25.026752	0.000511	20.811840
787.216047	-2.999400	3.702300	-11.104000	24.987764	0.000509	20.798309
788.216009	-3.004600	3.702200	-11.123000	24.959368	0.000509	20.785455
789.214855	-3.005200	3.703000	-11.126000	24.920483	0.000508	20.795737
790.216784	-2.998700	3.701800	-11.099000	24.937310	0.000507	20.797928
791.220099	-3.006500	3.700800	-11.126000	24.924784	0.000508	20.813804
792.217223	-2.984800	3.701600	-11.047000	24.904569	0.000507	20.810585
793.218048	-3.011600	3.699000	-11.139000	24.913693	0.000507	20.809785
794.220245	-3.017000	3.701400	-11.166000	24.914243	0.000506	20.808914
795.216392	-2.991400	3.700800	-11.070000	24.909565	0.000507	20.811331
796.217537	-2.990500	3.701200	-11.068000	24.926099	0.000509	20.821763
797.219932	-3.013700	3.699600	-11.149000	24.925701	0.000507	20.799552
798.218202	-3.008000	3.700500	-11.130000	24.952804	0.000506	20.804470
799.218604	-2.996300	3.700100	-11.085000	24.991142	0.000507	20.818295
800.219079	-3.022800	3.698100	-11.176000	24.986517	0.000507	20.810808
801.222592	-3.003300	3.699700	-11.109000	25.011602	0.000506	20.800900
802.219414	-2.999200	3.699600	-11.095000	25.008274	0.000505	20.788076
803.223092	-3.007300	3.698200	-11.121000	24.970758	0.000505	20.810163
804.222706	-3.001700	3.697900	-11.099000	24.993726	0.000505	20.829423
805.220399	-2.974800	3.698900	-11.003000	24.993856	0.000506	20.817700
806.226335	-3.015900	3.697300	-11.150000	24.968869	0.000504	20.833870
807.225471	-3.005200	3.697500	-11.110000	25.004322	0.000505	20.836266
808.223420	-3.009000	3.697700	-11.125000	25.018268	0.000503	20.814229
809.223377	-2.996700	3.697600	-11.080000	25.049175	0.000503	20.825813
810.224022	-3.007600	3.697300	-11.120000	25.036940	0.000503	20.814006
811.223199	-3.002100	3.697600	-11.099000	25.013396	0.000504	20.818348
812.223635	-2.958000	3.698700	-10.940000	25.030975	0.000502	20.804700
813.225471	-2.989900	3.696500	-11.051000	25.033458	0.000503	20.816674
814.223623	-2.973200	3.697200	-10.992000	25.006638	0.000502	20.802555
815.222911	-3.002300	3.696500	-11.097000	25.021479	0.000501	20.836418
816.224582	-2.999600	3.695600	-11.085000	24.975707	0.000502	20.806122
817.223380	-3.002600	3.696400	-11.098000	24.968378	0.000503	20.819628
818.225425	-2.987200	3.695600	-11.038000	24.936572	0.000502	20.821369
819.227031	-3.025400	3.694100	-11.175000	24.976133	0.000501	20.829783
820.227132	-3.000900	3.694800	-11.087000	25.009923	0.000502	20.818180
821.226927	-3.016100	3.694000	-11.141000	25.032596	0.000500	20.827189
822.225347	-3.009300	3.695400	-11.120000	25.086617	0.000502	20.819776
823.226574	-3.002300	3.693900	-11.089000	25.109938	0.000500	20.820427
824.232775	-3.000400	3.693100	-11.080000	25.083490	0.000499	20.825646
825.226878	-3.012400	3.694400	-11.128000	25.034538	0.000498	20.833880
826.227092	-3.017300	3.692500	-11.141000	25.005603	0.000500	20.846086
827.226941	-2.988700	3.692200	-11.034000	24.973827	0.000500	20.832683
828.230881	-2.988800	3.694500	-11.042000	24.967513	0.000498	20.839622
829.226994	-2.996400	3.692800	-11.064000	25.015125	0.000500	20.834307
830.228163	-2.980700	3.692500	-11.005000	25.053337	0.000499	20.823353
831.228546	-3.009800	3.691500	-11.110000	25.044168	0.000497	20.837382
832.229769	-2.997300	3.691900	-11.065000	25.031689	0.000497	20.837657
833.228188	-3.009200	3.691200	-11.107000	25.019308	0.000498	20.839929
834.229858	-3.002600	3.690700	-11.080000	24.986964	0.000497	20.831171
835.233051	-3.007700	3.690400	-11.099000	24.996066	0.000497	20.830824
836.232896	-2.983300	3.691800	-11.013000	25.000889	0.000498	20.829501
837.232107	-2.994000	3.690400	-11.048000	25.034554	0.000497	20.861395
838.235661	-2.968900	3.691400	-10.959000	25.060438	0.000499	20.833799
839.234635	-3.011700	3.689400	-11.110000	25.050719	0.000497	20.815509
840.235363	-2.994800	3.690100	-11.050000	25.035107	0.000494	20.825916
841.237537	-3.012400	3.689300	-11.113000	25.016163	0.000496	20.848625
842.239157	-3.001300	3.690000	-11.074000	25.017132	0.000494	20.845805
843.232868	-2.986100	3.689200	-11.015000	24.997894	0.000495	20.850202
844.235917	-2.998700	3.690100	-11.065000	25.009006	0.000494	20.840019
845.236000	-2.957900	3.689700	-10.912000	25.047370	0.000495	20.839173
846.232449	-2.997000	3.688100	-11.052000	25.063704	0.000496	20.849406
847.237076	-3.004900	3.688100	-11.082000	25.062216	0.000493	20.849809
848.235525	-2.978200	3.689200	-10.986000	25.062587	0.000495	20.839275
849.232022	-3.010400	3.686900	-11.099000	25.063189	0.000492	20.851733
850.234242	-2.994000	3.688500	-11.041000	25.028386	0.000494	20.849514
851.233128	-2.990900	3.687600	-11.028000	25.036941	0.000493	20.850515
852.234930	-3.009200	3.687300	-11.094000	25.018892	0.000492	20.832399
853.234238	-3.001100	3.686400	-11.063000	25.019340	0.000494	20.855607
854.234354	-3.026100	3.685100	-11.151000	25.062427	0.000491	20.848597
855.235199	-3.018200	3.686000	-11.124000	25.082265	0.000493	20.845278
856.235518	-2.977600	3.687400	-10.978000	25.098427	0.000492	20.849648
857.236504	-3.010900	3.685800	-11.096000	25.098726	0.000490	20.851371
858.236424	-3.017900	3.685200	-11.120000	25.078789	0.000491	20.846056
859.239010	-3.014800	3.686100	-11.112000	25.084584	0.000492	20.848554
860.240320	-3.003200	3.685800	-11.069000	25.097711	0.000493	20.837076
861.238035	-3.008900	3.684000	-11.084000	25.077576	0.000492	20.849580
862.238519	-2.996300	3.684200	-11.037000	25.078224	0.000491	20.861136
863.238380	-3.000000	3.684100	-11.051000	25.091030	0.000492	20.864507
864.237685	-2.979800	3.686200	-10.984000	25.103265	0.000491	20.855927
865.244121	-3.008800	3.683800	-11.083000	25.167846	0.000488	20.866230
866.238698	-3.001900	3.684400	-11.060000	25.165984	0.000489	20.865784
867.238553	-3.001600	3.684300	-11.058000	25.196261	0.000489	20.856351
868.245331	-3.013400	3.683000	-11.097000	25.172575	0.000488	20.836841
869.238624	-3.010700	3.682900	-11.087000	25.185451	0.000487	20.860671
870.238774	-3.022800	3.682900	-11.132000	25.171659	0.000489	20.849196
871.244756	-2.995000	3.683000	-11.030000	25.154782	0.000487	20.864969
872.244339	-2.997500	3.682800	-11.038000	25.158610	0.000489	20.877820
873.246255	-3.004200	3.683400	-11.065000	25.143104	0.000488	20.859410
874.242019	-3.025000	3.681000	-11.133000	25.129055	0.000488	20.867117
875.243953	-2.973700	3.681300	-10.946000	25.097162	0.000488	20.865447
876.247908	-2.985400	3.681500	-10.990000	25.138430	0.000488	20.854244
877.245219	-2.968500	3.682300	-10.930000	25.152949	0.000486	20.860284
878.245014	-3.001000	3.680800	-11.045000	25.178953	0.000484	20.883070
879.243022	-3.011900	3.678700	-11.079000	25.162472	0.000487	20.868896
880.244733	-3.009700	3.680300	-11.076000	25.174033	0.000485	20.864381
881.243857	-2.999800	3.680500	-11.040000	25.175326	0.000487	20.862835
882.244374	-3.005500	3.679600	-11.058000	25.158249	0.000487	20.884570
883.244346	-3.002900	3.680300	-11.050000	25.175675	0.000485	20.882150
884.245184	-2.970900	3.680200	-10.933000	25.181494	0.000485	20.871871
885.244998	-2.981000	3.681000	-10.973000	25.185921	0.000483	20.894806
886.246920	-2.989100	3.679000	-10.996000	25.165016	0.000484	20.882829
887.244787	-3.004300	3.677700	-11.048000	25.161880	0.000485	20.888688
888.244362	-2.999400	3.679800	-11.036000	25.181593	0.000484	20.873867
889.245813	-3.012300	3.677400	-11.076000	25.199046	0.000484	20.876690
890.245954	-3.011100	3.678800	-11.076000	25.146769	0.000485	20.878261
891.248064	-3.002100	3.677000	-11.038000	25.107739	0.000483	20.879857
892.245043	-3.015500	3.677500	-11.088000	25.124122	0.000483	20.880656
893.247934	-3.008900	3.677000	-11.061000	25.153279	0.000483	20.879581
894.249187	-3.019200	3.676200	-11.098000	25.136054	0.000482	20.878410
895.245165	-3.009600	3.677500	-11.066000	25.155048	0.000485	20.871874
896.246130	-2.995300	3.676200	-11.010000	25.140499	0.000483	20.879553
897.248751	-3.002900	3.676000	-11.038000	25.124094	0.000482	20.868775
898.245798	-2.994600	3.676300	-11.009000	25.149621	0.000482	20.887762
899.247366	-3.015000	3.676500	-11.083000	25.176768	0.000481	20.872816
900.249181	-3.016900	3.675700	-11.088000	25.183377	0.000481	20.892726
901.248012	-3.019100	3.675600	-11.096000	25.218299	0.000479	20.867095
902.247808	-3.006300	3.674200	-11.045000	25.201818	0.000479	20.871886
903.254457	-3.013500	3.675100	-11.073000	25.170819	0.000479	20.867793
904.251399	-3.013600	3.674400	-11.072000	25.142681	0.000480	20.890752
905.251313	-3.006400	3.674000	-11.044000	25.144641	0.000479	20.865695
906.249851	-3.022700	3.673500	-11.103000	25.182377	0.000478	20.880343
907.252035	-3.015300	3.674300	-11.078000	25.165321	0.000479	20.881712
908.251046	-3.005500	3.672800	-11.037000	25.201642	0.000477	20.868391
909.254142	-2.993500	3.673100	-10.994000	25.204571	0.000477	20.879391
910.253202	-3.002000	3.672700	-11.024000	25.161342	0.000477	20.872028
911.252203	-3.010700	3.673100	-11.058000	25.203577	0.000475	20.870808
912.253043	-3.014800	3.672500	-11.071000	25.212822	0.000476	20.863968
913.254618	-3.016700	3.673400	-11.080000	25.223237	0.000477	20.843606
914.253297	-2.996800	3.672500	-11.005000	25.229303	0.000474	20.860126
915.255029	-2.998000	3.672400	-11.009000	25.221870	0.000475	20.870680
916.253460	-3.003700	3.672000	-11.028000	25.204022	0.000475	20.885477
917.254024	-2.999500	3.670700	-11.009000	25.166016	0.000476	20.862496
918.254811	-2.994800	3.671100	-10.993000	25.152322	0.000473	20.874827
919.254170	-2.996000	3.670100	-10.994000	25.127391	0.000476	20.855016
920.257061	-2.990000	3.671300	-10.976000	25.136686	0.000473	20.881415
921.255630	-3.002300	3.669700	-11.017000	25.175567	0.000476	20.866395
922.259339	-2.990700	3.671800	-10.980000	25.174449	0.000474	20.874756
923.258931	-3.015000	3.669200	-11.062000	25.157023	0.000473	20.869590
924.256078	-3.015700	3.669200	-11.063000	25.186232	0.000473	20.849128
925.260070	-2.995300	3.669700	-10.991000	25.211612	0.000474	20.872711
926.258452	-2.988000	3.670200	-10.966000	25.235026	0.000472	20.854966
927.255221	-2.994600	3.668900	-10.986000	25.237415	0.000471	20.840296
928.256670	-3.004200	3.669000	-11.022000	25.238384	0.000470	20.860709
929.262464	-3.004600	3.669000	-11.023000	25.209378	0.000473	20.862881
930.257636	-3.009000	3.668400	-11.038000	25.200704	0.000470	20.875035
931.258471	-3.017300	3.667700	-11.065000	25.187779	0.000472	20.856845
932.261059	-3.019200	3.667900	-11.072000	25.160710	0.000471	20.860489
933.258279	-2.980900	3.667200	-10.931000	25.199985	0.000469	20.846339
934.260712	-2.999200	3.666400	-10.996000	25.189869	0.000473	20.859891
935.263401	-3.017700	3.667800	-11.067000	25.216123	0.000469	20.852110
936.264937	-3.022600	3.665700	-11.079000	25.216148	0.000469	20.835540
937.265016	-3.005500	3.666500	-11.019000	25.238693	0.000470	20.864812
938.261365	-2.968800	3.667100	-10.887000	25.245506	0.000469	20.821393
939.264342	-3.010700	3.666000	-11.036000	25.249858	0.000469	20.844254
940.261940	-2.982800	3.666400	-10.936000	25.206958	0.000470	20.850021
941.261865	-2.996700	3.665100	-10.982000	25.199130	0.000469	20.858283
942.263003	-2.994500	3.665800	-10.976000	25.200720	0.000468	20.847552
943.263849	-3.000300	3.665000	-10.996000	25.240194	0.000466	20.833129
944.264152	-3.027200	3.663700	-11.089000	25.298035	0.000468	20.842838
945.263753	-2.995600	3.664300	-10.976000	25.242908	0.000467	20.847233
946.263937	-2.991600	3.665200	-10.964000	25.217482	0.000467	20.825026
947.265524	-3.004100	3.662700	-11.002000	25.221683	0.000467	20.822606
948.265822	-3.008500	3.662500	-11.017000	25.241395	0.000465	20.823904
949.267039	-3.003300	3.663200	-11.000000	25.221387	0.000465	20.836532
950.266887	-2.997600	3.662900	-10.978000	25.222060	0.000465	20.836734
951.265964	-3.006400	3.664300	-11.015000	25.261533	0.000466	20.824208
952.268287	-2.997300	3.663700	-10.981000	25.242945	0.000465	20.835891
953.265847	-3.008700	3.662600	-11.019000	25.238445	0.000465	20.837063
954.265733	-3.004500	3.662200	-11.002000	25.239911	0.000464	20.832371
955.270974	-2.987300	3.662800	-10.940000	25.268645	0.000465	20.828029
956.267932	-2.987200	3.660800	-10.935000	25.292536	0.000466	20.839214
957.267712	-3.004300	3.662200	-11.001000	25.280878	0.000466	20.827035
958.268069	-3.008000	3.660400	-11.010000	25.270118	0.000463	20.830456
959.267119	-2.974500	3.662700	-10.894000	25.302404	0.000463	20.836319
960.268167	-3.017200	3.660200	-11.043000	25.308744	0.000461	20.818503
961.268491	-3.022400	3.659900	-11.060000	25.311204	0.000462	20.819551
962.270639	-3.025700	3.659900	-11.073000	25.289629	0.000462	20.817803
963.268291	-3.003300	3.658400	-10.986000	25.262386	0.000463	20.830279
964.268910	-2.999900	3.659700	-10.978000	25.250403	0.000461	20.818723
965.270926	-2.994100	3.660600	-10.959000	25.217819	0.000460	20.810192
966.269399	-2.993300	3.658500	-10.951000	25.193902	0.000459	20.826957
967.270990	-3.016700	3.659600	-11.040000	25.221048	0.000461	20.821968
968.270220	-3.016500	3.657700	-11.032000	25.262432	0.000460	20.833645
969.273565	-2.989500	3.658200	-10.935000	25.305710	0.000460	20.825414
970.271935	-2.989500	3.658300	-10.936000	25.319401	0.000460	20.823514
971.272014	-3.009500	3.656300	-11.001000	25.308716	0.000459	20.815631
972.272253	-2.992600	3.657700	-10.945000	25.274242	0.000460	20.827010
973.273348	-2.997900	3.657600	-10.964000	25.229175	0.000459	20.813058
974.273438	-3.012500	3.657100	-11.016000	25.211108	0.000460	20.808670
975.273731	-3.025100	3.657300	-11.062000	25.205265	0.000458	20.809442
976.273833	-3.020300	3.656800	-11.043000	25.251823	0.000458	20.805450
977.272934	-3.020900	3.657100	-11.047000	25.290125	0.000461	20.828733
978.274190	-2.977500	3.656300	-10.885000	25.337473	0.000457	20.802305
979.273947	-2.995000	3.654000	-10.943000	25.369337	0.000457	20.797315
980.277241	-2.983300	3.655800	-10.905000	25.391503	0.000457	20.825736
981.274706	-2.991600	3.654100	-10.930000	25.346918	0.000457	20.804201
982.274342	-2.982000	3.655600	-10.900000	25.307553	0.000459	20.813988
983.274592	-3.004200	3.654800	-10.979000	25.334495	0.000458	20.814013
984.274301	-3.005600	3.654200	-10.982000	25.299250	0.000455	20.804229
985.279494	-3.007000	3.654300	-10.988000	25.287916	0.000457	20.810868
986.275699	-3.007900	3.653500	-10.988000	25.314312	0.000458	20.825517
987.276050	-3.001800	3.653000	-10.964000	25.298506	0.000455	20.818181
988.279008	-2.977800	3.654000	-10.880000	25.302707	0.000458	20.805330
989.288935	-3.016300	3.652100	-11.016000	25.357437	0.000458	20.823298
990.280886	-2.991100	3.652100	-10.923000	25.370535	0.000456	20.811794
991.282560	-2.998700	3.652200	-10.951000	25.360069	0.000455	20.807924
992.279441	-2.998900	3.652400	-10.952000	25.301417	0.000453	20.803560
993.281962	-3.004000	3.652100	-10.970000	25.317145	0.000454	20.815559
994.282491	-3.019900	3.650100	-11.022000	25.355794	0.000455	20.807425
995.280798	-2.981400	3.652300	-10.888000	25.376001	0.000454	20.794998
996.283415	-2.996000	3.651100	-10.937000	25.389593	0.000456	20.799637
997.284935	-3.016500	3.651500	-11.014000	25.398541	0.000453	20.795345
998.281955	-2.996700	3.651000	-10.941000	25.351347	0.000454	20.810071
999.284968	-2.973200	3.650600	-10.852000	25.351594	0.000454	20.802259
1000.281754	-2.998700	3.649500	-10.943000	25.348140	0.000454	20.823921
1001.282251	-3.010900	3.649600	-10.988000	25.355125	0.000454	20.793476
1002.282052	-2.990600	3.650200	-10.916000	25.321146	0.000453	20.811515
1003.286884	-2.988000	3.650500	-10.907000	25.328208	0.000453	20.805330
1004.282930	-2.979400	3.648700	-10.870000	25.331161	0.000451	20.788381
1005.282532	-3.008100	3.647700	-10.972000	25.331739	0.000451	20.813142
1006.283404	-3.004000	3.648000	-10.958000	25.316500	0.000453	20.792627
1007.283047	-2.994200	3.648400	-10.923000	25.282745	0.000451	20.785762
1008.283298	-3.007600	3.647100	-10.968000	25.292018	0.000449	20.811193
1009.283520	-3.009100	3.647400	-10.974000	25.334492	0.000451	20.801208
1010.284574	-2.994700	3.647400	-10.922000	25.308022	0.000450	20.794071
1011.284991	-2.988900	3.646900	-10.900000	25.283637	0.000449	20.789977
1012.285769	-3.019900	3.645600	-11.008000	25.296286	0.000449	20.785133
1013.286522	-3.011700	3.645800	-10.979000	25.301654	0.000449	20.794315
1014.285493	-3.017600	3.645100	-10.998000	25.274661	0.000447	20.795189
1015.289198	-3.000900	3.644900	-10.937000	25.313558	0.000448	20.764542
1016.286960	-2.987000	3.645400	-10.888000	25.332074	0.000448	20.790720
1017.287721	-3.005400	3.645200	-10.954000	25.347852	0.000447	20.799924
1018.288487	-2.991400	3.645800	-10.905000	25.397562	0.000447	20.809060
1019.290258	-3.001700	3.644400	-10.939000	25.425495	0.000447	20.808660
1020.289576	-3.022200	3.643700	-11.011000	25.371189	0.000449	20.793484
1021.290246	-3.004700	3.644900	-10.950000	25.305397	0.000445	20.807557
1022.289960	-2.989100	3.644500	-10.892000	25.313771	0.000445	20.796524
1023.288880	-3.001900	3.644400	-10.938000	25.322046	0.000444	20.799143
1024.289603	-2.999100	3.641900	-10.922000	25.342704	0.000445	20.779582
1025.290083	-3.014100	3.642200	-10.976000	25.343148	0.000444	20.785244
1026.291447	-3.002200	3.643300	-10.937000	25.309172	0.000445	20.790958
1027.291253	-2.993800	3.641600	-10.901000	25.301616	0.000444	20.792381
1028.292748	-2.988400	3.641800	-10.882000	25.335561	0.000443	20.793273
1029.292632	-3.006900	3.641200	-10.948000	25.339191	0.000442	20.787434
1030.292385	-3.016400	3.641000	-10.981000	25.328323	0.000443	20.795014
1031.292516	-3.004300	3.640600	-10.937000	25.342071	0.000442	20.781317
1032.294851	-3.004300	3.641200	-10.939000	25.391249	0.000443	20.793238
1033.293837	-3.002100	3.641400	-10.930000	25.378326	0.000441	20.782159
1034.291996	-3.011200	3.641600	-10.965000	25.364083	0.000440	20.789194
1035.293224	-2.987900	3.640200	-10.875000	25.364058	0.000442	20.784428
1036.295385	-2.991300	3.639200	-10.884000	25.347552	0.000440	20.783975
1037.292478	-2.986400	3.640400	-10.870000	25.361246	0.000439	20.798674
1038.293355	-2.985400	3.640200	-10.867000	25.352545	0.000437	20.796576
1039.296694	-2.994900	3.639200	-10.898000	25.386989	0.000439	20.791806
1040.293946	-3.000600	3.637900	-10.915000	25.386715	0.000437	20.793427
1041.294683	-2.993600	3.639700	-10.895000	25.425386	0.000438	20.792903
1042.296143	-2.987800	3.638500	-10.870000	25.405402	0.000438	20.790855
1043.299974	-2.999100	3.637400	-10.908000	25.363795	0.000439	20.787009
1044.296311	-2.996300	3.637900	-10.899000	25.379801	0.000435	20.778424
1045.298232	-3.010500	3.636000	-10.945000	25.270835	0.000438	20.787080
1046.302283	-2.973000	3.637900	-10.814000	25.296234	0.000435	20.782710
1047.297406	-3.002500	3.637800	-10.922000	25.303343	0.000435	20.772777
1048.297807	-2.999500	3.635200	-10.903000	25.335180	0.000435	20.788149
1049.301822	-3.017100	3.635600	-10.968000	25.333964	0.000436	20.777445
1050.298448	-2.978500	3.636300	-10.830000	25.332072	0.000435	20.760372
1051.297983	-2.983000	3.636700	-10.847000	25.327152	0.000434	20.788149
1052.303675	-3.002900	3.635100	-10.915000	25.301398	0.000433	20.789317
1053.300364	-2.999800	3.634200	-10.901000	25.301179	0.000433	20.775347
1054.299067	-3.016400	3.634200	-10.962000	25.321532	0.000431	20.771125
1055.298132	-2.990600	3.634400	-10.868000	25.320164	0.000433	20.783029
1056.299445	-3.025100	3.633800	-10.991000	25.324763	0.000433	20.783853
1057.300007	-3.008200	3.632900	-10.928000	25.378822	0.000431	20.759897
1058.299819	-3.011400	3.633500	-10.941000	25.395998	0.000432	20.773825
1059.300625	-2.978200	3.633300	-10.820000	25.438094	0.000432	20.770103
1060.300429	-3.001100	3.633100	-10.902000	25.471622	0.000432	20.789547
1061.301654	-2.988500	3.632000	-10.853000	25.473483	0.000431	20.769130
1062.302603	-3.000800	3.631500	-10.896000	25.487404	0.000431	20.775523
1063.302414	-3.009900	3.631300	-10.929000	25.464317	0.000431	20.778418
1064.302704	-3.027500	3.630300	-10.990000	25.450201	0.000430	20.778942
1065.303035	-3.016400	3.631400	-10.952000	25.452538	0.000428	20.768959
1066.303172	-3.009500	3.631200	-10.926000	25.385686	0.000425	20.783860
1067.305423	-2.996000	3.631000	-10.877000	25.375393	0.000426	20.773524
1068.303526	-2.974900	3.630900	-10.800000	25.384791	0.000428	20.763046
1069.305372	-2.988700	3.631400	-10.852000	25.422244	0.000427	20.763195
1070.305272	-3.001900	3.630200	-10.897000	25.423092	0.000427	20.775902
1071.309059	-3.012800	3.630000	-10.936000	25.475301	0.000426	20.773800
1072.310964	-3.030300	3.628600	-10.994000	25.440786	0.000426	20.760003
1073.307795	-3.005300	3.629600	-10.907000	25.401396	0.000424	20.752692
1074.308153	-2.996000	3.629300	-10.872000	25.378532	0.000425	20.758658
1075.312016	-3.008900	3.628800	-10.918000	25.381267	0.000426	20.751446
1076.306684	-2.995200	3.627100	-10.863000	25.395878	0.000425	20.767066
1077.313568	-3.019800	3.627000	-10.952000	25.408285	0.000425	20.757713
1078.310410	-2.994900	3.628200	-10.865000	25.437385	0.000422	20.754217
1079.309910	-2.999300	3.627700	-10.880000	25.450186	0.000423	20.764227
1080.310555	-2.991700	3.626200	-10.847000	25.428466	0.000424	20.766598
1081.308682	-2.993600	3.626300	-10.855000	25.450933	0.000422	20.755494
1082.310072	-2.997200	3.625900	-10.867000	25.406269	0.000421	20.772759
1083.310790	-2.996700	3.626100	-10.865000	25.364419	0.000422	20.771039
1084.311313	-3.009800	3.624500	-10.908000	25.405201	0.000422	20.753668
1085.311674	-2.997800	3.625000	-10.866000	25.423416	0.000422	20.776701
1086.310769	-2.980800	3.625000	-10.804000	25.431419	0.000420	20.741588
1087.311922	-2.974900	3.625900	-10.785000	25.405501	0.000420	20.761082
1088.310657	-2.980800	3.624900	-10.804000	25.417901	0.000421	20.744135
1089.312150	-2.989500	3.624100	-10.833000	25.444415	0.000421	20.754164
1090.313401	-3.000900	3.623300	-10.872000	25.491558	0.000421	20.751245
1091.317455	-3.006900	3.623800	-10.896000	25.472820	0.000420	20.765144
1092.314248	-2.999700	3.623500	-10.869000	25.476893	0.000419	20.759752
1093.313878	-3.008700	3.622000	-10.896000	25.449433	0.000419	20.742607
1094.319336	-3.001400	3.622300	-10.871000	25.442745	0.000421	20.760548
1095.315400	-3.000600	3.621700	-10.866000	25.415383	0.000419	20.761521
1096.314862	-2.995200	3.621400	-10.846000	25.426592	0.000418	20.749069
1097.318635	-2.989500	3.621600	-10.826000	25.410040	0.000416	20.731026
1098.315601	-3.002200	3.621400	-10.871000	25.406210	0.000417	20.756104
1099.315033	-3.015000	3.620900	-10.916000	25.432706	0.000417	20.736242
1100.320343	-2.980800	3.622700	-10.798000	25.426465	0.000417	20.729501
1101.315244	-3.016500	3.620400	-10.920000	25.400149	0.000417	20.736740
1102.316171	-3.007300	3.619200	-10.882000	25.342362	0.000417	20.743202
1103.320168	-2.998500	3.618700	-10.849000	25.367887	0.000417	20.733743
1104.314731	-2.995300	3.620400	-10.843000	25.408000	0.000414	20.752686
1105.317781	-3.024600	3.618800	-10.944000	25.447118	0.000416	20.748818
1106.320640	-2.995900	3.617700	-10.837000	25.432554	0.000414	20.742254
1107.315486	-2.981000	3.618500	-10.786000	25.429052	0.000417	20.755332
1108.316539	-2.990200	3.618100	-10.818000	25.408871	0.000415	20.772526
1109.315331	-3.019500	3.618500	-10.925000	25.403951	0.000415	20.758577
1110.318697	-3.004600	3.617800	-10.869000	25.445353	0.000414	20.769805
1111.319453	-3.027800	3.615900	-10.947000	25.426339	0.000413	20.742176
1112.318487	-2.991300	3.617700	-10.821000	25.397633	0.000414	20.738956
1113.320206	-2.990100	3.616800	-10.814000	25.386177	0.000413	20.741203
1114.318658	-3.000200	3.617300	-10.852000	25.436650	0.000411	20.750634
1115.321786	-3.007400	3.615700	-10.873000	25.442591	0.000412	20.751858
1116.319890	-2.993200	3.616500	-10.824000	25.496792	0.000412	20.733266
1117.319697	-2.999500	3.616000	-10.845000	25.506257	0.000412	20.743245
1118.321608	-2.989100	3.614800	-10.804000	25.462172	0.000413	20.749236
1119.319236	-2.992800	3.614900	-10.818000	25.472088	0.000411	20.752081
1120.319485	-3.008800	3.614800	-10.876000	25.458296	0.000409	20.739654
1121.320949	-3.006500	3.614800	-10.867000	25.439557	0.000409	20.741699
1122.320856	-2.984200	3.614600	-10.786000	25.410281	0.000411	20.753553
1123.319858	-2.996300	3.613200	-10.825000	25.401257	0.000410	20.753975
1124.320861	-3.010800	3.612800	-10.877000	25.441492	0.000409	20.753600
1125.322553	-3.007400	3.612300	-10.862000	25.456722	0.000408	20.771265
1126.323219	-2.994500	3.613100	-10.818000	25.461024	0.000410	20.725323
1127.324457	-3.010500	3.612200	-10.873000	25.444797	0.000408	20.732736
1128.324731	-3.004000	3.612500	-10.851000	25.459932	0.000408	20.747460
1129.327694	-3.010300	3.611900	-10.872000	25.433835	0.000410	20.728366
1130.325684	-2.996400	3.611500	-10.821000	25.407191	0.000408	20.732906
1131.325044	-3.013700	3.610700	-10.880000	25.384325	0.000407	20.741240
1132.327239	-3.004000	3.611600	-10.849000	25.398843	0.000407	20.747758
1133.325736	-3.002300	3.610300	-10.838000	25.436489	0.000407	20.731031
1134.324842	-2.992600	3.610500	-10.804000	25.458533	0.000408	20.745582
1135.327136	-2.984600	3.610700	-10.775000	25.429332	0.000406	20.747079
1136.330256	-3.011900	3.611000	-10.875000	25.424042	0.000406	20.754095
1137.326730	-3.000300	3.610700	-10.832000	25.449136	0.000405	20.757008
1138.329011	-3.001300	3.609300	-10.832000	25.448593	0.000403	20.736074
1139.331167	-3.002800	3.609600	-10.838000	25.434625	0.000404	20.728685
1140.328536	-2.984000	3.609100	-10.768000	25.439125	0.000404	20.732730
1141.328637	-3.009700	3.608800	-10.861000	25.360785	0.000402	20.750795
1142.328665	-2.966500	3.609100	-10.706000	25.397543	0.000402	20.738866
1143.329926	-2.974800	3.608600	-10.733000	25.421823	0.000404	20.755186
1144.328432	-2.981200	3.609000	-10.758000	25.436412	0.000403	20.742334
1145.330929	-3.010300	3.607900	-10.860000	25.472794	0.000404	20.743307
1146.332623	-3.023100	3.606000	-10.901000	25.466307	0.000403	20.755285
1147.329830	-3.019200	3.606100	-10.887000	25.449161	0.000402	20.758930
1148.330275	-3.011200	3.607400	-10.862000	25.468721	0.000401	20.757235
1149.331681	-3.016800	3.605300	-10.876000	25.462382	0.000399	20.759878
1150.330852	-2.984900	3.605600	-10.762000	25.440884	0.000398	20.769585
1151.330999	-2.975500	3.605600	-10.728000	25.447793	0.000400	20.754238
1152.331011	-2.977400	3.605800	-10.734000	25.454676	0.000400	20.762571
1153.331964	-2.986200	3.605100	-10.764000	25.452318	0.000397	20.772058
1154.331861	-3.010100	3.603500	-10.846000	25.446451	0.000399	20.737716
1155.331716	-3.017500	3.603800	-10.874000	25.408031	0.000399	20.734697
1156.333104	-3.001600	3.604600	-10.819000	25.381538	0.000397	20.746502
1157.334832	-3.009400	3.602000	-10.839000	25.435418	0.000397	20.756984
1158.335085	-3.015700	3.602700	-10.864000	25.444587	0.000398	20.746750
1159.337267	-3.019300	3.602100	-10.875000	25.421527	0.000397	20.745405
1160.335343	-3.015300	3.603400	-10.864000	25.449883	0.000396	20.737843
1161.338670	-2.983200	3.603700	-10.750000	25.445210	0.000394	20.757334
1162.340473	-3.040100	3.601700	-10.949000	25.425181	0.000396	20.733427
1163.337043	-2.995500	3.601400	-10.787000	25.438159	0.000395	20.749304
1164.338767	-2.983800	3.601100	-10.744000	25.460175	0.000394	20.764301
1165.338142	-2.995800	3.600600	-10.786000	25.479834	0.000393	20.738522
1166.336470	-2.980300	3.603100	-10.738000	25.496014	0.000393	20.751926
1167.336589	-2.979700	3.600900	-10.729000	25.500041	0.000393	20.741271
1168.338954	-3.018900	3.600200	-10.868000	25.484086	0.000395	20.752276
1169.348825	-2.995200	3.599500	-10.780000	25.532472	0.000391	20.754873
1170.339216	-3.006200	3.599100	-10.818000	25.550540	0.000392	20.751681
1171.338691	-2.997600	3.599700	-10.790000	25.545075	0.000391	20.758521
1172.336532	-2.984400	3.599200	-10.741000	25.510836	0.000389	20.745474
1173.336882	-2.997100	3.597500	-10.781000	25.470474	0.000391	20.757573
1174.337736	-3.003100	3.599400	-10.809000	25.468240	0.000390	20.738259
1175.341375	-2.985100	3.599500	-10.745000	25.463049	0.000391	20.744901
1176.338233	-2.997900	3.598300	-10.786000	25.491453	0.000391	20.763468
1177.338052	-2.993800	3.597500	-10.769000	25.521079	0.000390	20.759554
1178.340843	-3.001200	3.596200	-10.792000	25.580075	0.000389	20.751945
1179.338051	-2.963200	3.597800	-10.660000	25.547868	0.000391	20.778396
1180.338676	-2.999100	3.596700	-10.785000	25.528939	0.000389	20.757016
1181.340437	-3.002600	3.596200	-10.797000	25.553811	0.000390	20.757812
1182.338633	-2.989100	3.597200	-10.752000	25.535003	0.000389	20.753622
1183.338435	-3.014700	3.595000	-10.837000	25.519077	0.000388	20.735731
1184.339751	-3.018600	3.594400	-10.849000	25.490225	0.000390	20.734733
1185.337453	-3.008400	3.594200	-10.812000	25.498107	0.000387	20.755451
1186.338521	-2.992000	3.594200	-10.753000	25.497110	0.000389	20.762985
1187.342036	-3.000200	3.595100	-10.785000	25.522110	0.000387	20.760115
1188.341442	-2.994700	3.592700	-10.758000	25.500320	0.000387	20.769527
1189.343657	-2.998100	3.593500	-10.772000	25.530288	0.000387	20.765009
1190.344757	-2.978800	3.594100	-10.705000	25.479073	0.000385	20.754828
1191.342245	-2.997100	3.594100	-10.772000	25.433571	0.000386	20.767457
1192.345860	-3.015200	3.592900	-10.832000	25.428003	0.000384	20.732467
1193.343306	-3.010400	3.592400	-10.813000	25.443885	0.000384	20.760270
1194.343319	-2.996200	3.592600	-10.764000	25.473061	0.000385	20.759223
1195.343365	-2.996300	3.591200	-10.758000	25.473188	0.000385	20.764092
1196.342103	-3.018800	3.590500	-10.838000	25.474231	0.000383	20.749966
1197.344216	-2.997500	3.590100	-10.760000	25.437648	0.000385	20.760171
1198.343481	-3.009600	3.591000	-10.807000	25.453332	0.000383	20.756480
1199.346707	-2.989900	3.589700	-10.732000	25.476567	0.000383	20.771753
1200.346543	-3.037900	3.590200	-10.906000	25.458723	0.000384	20.783706
1201.345347	-3.001000	3.590400	-10.774000	25.457483	0.000383	20.751165
1202.345628	-3.000200	3.588900	-10.766000	25.455220	0.000381	20.766912
1203.349249	-3.020200	3.589400	-10.841000	25.447394	0.000380	20.739611
1204.346301	-3.000100	3.589000	-10.767000	25.496821	0.000381	20.764116
1205.346480	-2.978600	3.589100	-10.689000	25.504203	0.000382	20.741657
1206.348343	-3.001400	3.587400	-10.766000	25.561230	0.000379	20.763366
1207.346433	-2.999600	3.588500	-10.763000	25.552016	0.000381	20.751267
1208.346424	-3.027000	3.587100	-10.857000	25.540583	0.000380	20.777718
1209.349792	-3.016300	3.587900	-10.822000	25.527067	0.000380	20.766041
1210.346194	-3.006100	3.586900	-10.782000	25.488646	0.000378	20.770606
1211.349460	-2.973900	3.587600	-10.668000	25.462553	0.000378	20.781388
1212.350397	-2.975300	3.588500	-10.676000	25.446376	0.000379	20.769410
1213.347022	-2.987600	3.586100	-10.712000	25.451298	0.000377	20.782414
1214.351678	-2.970000	3.586100	-10.650000	25.498787	0.000375	20.760401
1215.348136	-3.001000	3.586500	-10.762000	25.516355	0.000378	20.773776
1216.349616	-2.994600	3.586600	-10.739000	25.519086	0.000377	20.780312
1217.349286	-2.999600	3.584200	-10.751000	25.514513	0.000376	20.780461
1218.350257	-2.999200	3.585900	-10.754000	25.518265	0.000376	20.781859
1219.351484	-2.988300	3.585100	-10.712000	25.552880	0.000377	20.791016
1220.350107	-2.999600	3.584500	-10.751000	25.499006	0.000374	20.764888
1221.354616	-2.999500	3.583800	-10.749000	25.533621	0.000374	20.796331
1222.353919	-2.992100	3.584000	-10.722000	25.557305	0.000377	20.767959
1223.352796	-2.988300	3.583100	-10.707000	25.541866	0.000374	20.774740
1224.355881	-3.022800	3.582600	-10.828000	25.539456	0.000374	20.773268
1225.355690	-3.006700	3.582700	-10.771000	25.511525	0.000375	20.766555
1226.355002	-3.021000	3.580000	-10.814000	25.471363	0.000372	20.770795
1227.358572	-2.999300	3.582400	-10.744000	25.474073	0.000372	20.786792
1228.356303	-3.014300	3.581700	-10.795000	25.446588	0.000371	20.776261
1229.353218	-2.983400	3.582400	-10.687000	25.473622	0.000373	20.797719
1230.357127	-2.999900	3.581900	-10.744000	25.484109	0.000372	20.761308
1231.358229	-3.009800	3.579300	-10.772000	25.502023	0.000372	20.765547
1232.354811	-3.032700	3.578600	-10.851000	25.527544	0.000373	20.794022
1233.359746	-2.997800	3.580500	-10.733000	25.575554	0.000370	20.787709
1234.359863	-3.012200	3.580700	-10.785000	25.582114	0.000370	20.767745
1235.357839	-3.002500	3.578100	-10.743000	25.608152	0.000370	20.786782
1236.358511	-2.985600	3.580800	-10.691000	25.561711	0.000367	20.773807
1237.361740	-3.031000	3.577400	-10.842000	25.509331	0.000368	20.796594
1238.359354	-3.004000	3.578700	-10.750000	25.476724	0.000368	20.782816
1239.358384	-2.987700	3.578600	-10.690000	25.473091	0.000368	20.782961
1240.358956	-2.976700	3.578800	-10.652000	25.491185	0.000368	20.795915
1241.360143	-2.988900	3.577900	-10.693000	25.539866	0.000367	20.795965
1242.358401	-2.993800	3.576800	-10.707000	25.542844	0.000367	20.799429
1243.359791	-2.992400	3.577500	-10.705000	25.554376	0.000366	20.809114
1244.359470	-2.999000	3.577100	-10.727000	25.587079	0.000366	20.796439
1245.360018	-3.000400	3.576200	-10.729000	25.584317	0.000366	20.800778
1246.360307	-2.995600	3.575500	-10.709000	25.592618	0.000366	20.792519
1247.360410	-2.991900	3.575600	-10.697000	25.589088	0.000363	20.789922
1248.365486	-3.027200	3.575600	-10.823000	25.644353	0.000365	20.800381
1249.362998	-3.001800	3.576900	-10.736000	25.666044	0.000364	20.801779
1250.361802	-2.996400	3.575900	-10.714000	25.659731	0.000365	20.805869
1251.365213	-2.990400	3.574600	-10.688000	25.614234	0.000364	20.803796
1252.362184	-3.007200	3.573800	-10.746000	25.628696	0.000364	20.803622
1253.362886	-2.981000	3.574800	-10.656000	25.645343	0.000362	20.780513
1254.364503	-2.986300	3.572700	-10.668000	25.648549	0.000362	20.784681
1255.362605	-3.002200	3.573500	-10.728000	25.624722	0.000364	20.798208
1256.365299	-3.000300	3.573600	-10.721000	25.564217	0.000361	20.814729
1257.364188	-2.998500	3.571500	-10.708000	25.553431	0.000362	20.809588
1258.363788	-3.006300	3.572800	-10.739000	25.496181	0.000360	20.784811
1259.366006	-3.012200	3.571700	-10.758000	25.494687	0.000361	20.797062
1260.367496	-3.000700	3.570600	-10.714000	25.504035	0.000361	20.788905
1261.366638	-2.984400	3.571100	-10.656000	25.536567	0.000359	20.822049
1262.368512	-3.001700	3.572100	-10.721000	25.564618	0.000358	20.803279
1263.369437	-3.007100	3.571300	-10.738000	25.561143	0.000357	20.798367
1264.369942	-2.988100	3.570300	-10.667000	25.536913	0.000357	20.798215
1265.367942	-2.977600	3.570100	-10.629000	25.520987	0.000359	20.810670
1266.368412	-3.006900	3.569500	-10.732000	25.514623	0.000359	20.806176
1267.370655	-3.013100	3.569100	-10.753000	25.557098	0.000358	20.798572
1268.370156	-3.014400	3.568800	-10.757000	25.532846	0.000358	20.805510
1269.370158	-2.999700	3.569900	-10.707000	25.522406	0.000356	20.813044
1270.370174	-2.988600	3.568100	-10.663000	25.496564	0.000356	20.819809
1271.369938	-2.999400	3.568600	-10.703000	25.495793	0.000356	20.806232
1272.370610	-2.997800	3.568300	-10.696000	25.496317	0.000356	20.793483
1273.371262	-2.995400	3.568600	-10.688000	25.546214	0.000356	20.801866
1274.370801	-3.017000	3.567500	-10.763000	25.587191	0.000357	20.809353
1275.372686	-3.016100	3.566300	-10.756000	25.585700	0.000354	20.807382
1276.376095	-2.995800	3.566500	-10.684000	25.577502	0.000356	20.828071
1277.375253	-2.985900	3.567200	-10.650000	25.609232	0.000355	20.811101
1278.372015	-3.012700	3.566200	-10.743000	25.610828	0.000354	20.813178
1279.372389	-2.998100	3.565500	-10.689000	25.648149	0.000355	20.836909
1280.376132	-2.990600	3.565000	-10.661000	25.634754	0.000354	20.817767
1281.372135	-2.991900	3.565200	-10.666000	25.605536	0.000353	20.838682
1282.374700	-2.983900	3.564500	-10.636000	25.562051	0.000352	20.816822
1283.378102	-3.012800	3.563600	-10.735000	25.602460	0.000353	20.813308
1284.375055	-3.015200	3.563500	-10.743000	25.583201	0.000352	20.814355
1285.376074	-3.011500	3.564200	-10.733000	25.591302	0.000353	20.822964
1286.377651	-3.017600	3.563700	-10.753000	25.649522	0.000353	20.833073
1287.375251	-2.994800	3.563400	-10.670000	25.682025	0.000353	20.807873
1288.376886	-3.020400	3.562800	-10.760000	25.701599	0.000351	20.816627
1289.378999	-3.007700	3.561400	-10.711000	25.701056	0.000350	20.807547
1290.377806	-3.013700	3.562000	-10.733000	25.661824	0.000352	20.818877
1291.378413	-2.988700	3.561700	-10.644000	25.641404	0.000349	20.820653
1292.384405	-2.977800	3.561300	-10.604000	25.659072	0.000349	20.825122
1293.377694	-3.001600	3.560500	-10.686000	25.680834	0.000350	20.820427
1294.378483	-3.009600	3.559900	-10.714000	25.646224	0.000349	20.823597
1295.381288	-2.975600	3.562000	-10.598000	25.631641	0.000349	20.831236
1296.383626	-3.018800	3.560700	-10.748000	25.611288	0.000348	20.825494
1297.379603	-2.980300	3.559900	-10.609000	25.600158	0.000348	20.831385
1298.380394	-3.001300	3.559100	-10.681000	25.634946	0.000349	20.848305
1299.385163	-3.021400	3.558600	-10.750000	25.660091	0.000347	20.822825
1300.381757	-2.998500	3.558100	-10.668000	25.676913	0.000346	20.830712
1301.383631	-3.005700	3.559000	-10.696000	25.683321	0.000346	20.831459
1302.388031	-3.007300	3.558100	-10.699000	25.709360	0.000346	20.841490
1303.384045	-2.991400	3.557700	-10.641000	25.681405	0.000347	20.841862
1304.384864	-2.980800	3.558900	-10.607000	25.629380	0.000344	20.822327
1305.386938	-2.981700	3.557700	-10.607000	25.607092	0.000347	20.819857
1306.385763	-2.978300	3.557400	-10.594000	25.624032	0.000347	20.842085
1307.386156	-3.016000	3.555900	-10.724000	25.650297	0.000344	20.824369
1308.389057	-2.988300	3.556600	-10.627000	25.587975	0.000345	20.841908
1309.385734	-2.989500	3.556200	-10.630000	25.598387	0.000346	20.841933
1310.385248	-2.980300	3.555600	-10.596000	25.552467	0.000344	20.832327
1311.386339	-2.988000	3.555700	-10.624000	25.559070	0.000344	20.839906
1312.385691	-2.999800	3.554700	-10.663000	25.595125	0.000341	20.850037
1313.385327	-3.002000	3.554400	-10.669000	25.629737	0.000343	20.851133
1314.389034	-3.010400	3.555100	-10.702000	25.617959	0.000345	20.831719
1315.385495	-2.963500	3.556100	-10.537000	25.633986	0.000341	20.855401
1316.386707	-3.001100	3.553700	-10.664000	25.664098	0.000342	20.844867
1317.387504	-2.997300	3.552800	-10.648000	25.644865	0.000343	20.852577
1318.383762	-2.955500	3.554600	-10.504000	25.632094	0.000341	20.857294
1319.387437	-2.980200	3.554200	-10.591000	25.668569	0.000342	20.827547
1320.389038	-2.997600	3.552500	-10.648000	25.716619	0.000342	20.842617
1321.386240	-3.005800	3.552400	-10.677000	25.703524	0.000341	20.859810
1322.386059	-2.994600	3.551900	-10.635000	25.749959	0.000340	20.845285
1323.385863	-3.010700	3.551500	-10.692000	25.757959	0.000342	20.862329
1324.386652	-3.010300	3.552400	-10.693000	25.771599	0.000340	20.870340
1325.386950	-3.011200	3.550600	-10.691000	25.773138	0.000342	20.844387
1326.386818	-3.004700	3.550800	-10.668000	25.771398	0.000339	20.849277
1327.388169	-3.007500	3.550500	-10.676000	25.721234	0.000340	20.840141
1328.386707	-2.998800	3.550400	-10.646000	25.727797	0.000336	20.859060
1329.386629	-3.005200	3.549800	-10.667000	25.717905	0.000340	20.858133
1330.391241	-3.005500	3.549700	-10.668000	25.743618	0.000339	20.855038
1331.388625	-2.991200	3.549900	-10.617000	25.770102	0.000338	20.852716
1332.390342	-3.011300	3.548100	-10.684000	25.728188	0.000337	20.870358
1333.390939	-3.012700	3.548200	-10.689000	25.692114	0.000337	20.867789
1334.389618	-3.007800	3.547300	-10.669000	25.668683	0.000337	20.864644
1335.390409	-3.014100	3.547200	-10.691000	25.644757	0.000336	20.870485
1336.390894	-2.990900	3.547600	-10.609000	25.641622	0.000334	20.873975
1337.391227	-3.031200	3.547200	-10.750000	25.666322	0.000336	20.863696
1338.390311	-3.004000	3.546300	-10.652000	25.677300	0.000335	20.860972
1339.391524	-3.006200	3.545700	-10.658000	25.649845	0.000334	20.866587
1340.393352	-3.001900	3.546000	-10.644000	25.663782	0.000334	20.855456
1341.390502	-2.991600	3.544200	-10.602000	25.634065	0.000334	20.876816
1342.390164	-3.017500	3.546200	-10.700000	25.588767	0.000333	20.871151
1343.391899	-2.975800	3.544400	-10.547000	25.563621	0.000333	20.862967
1344.392022	-3.007500	3.544700	-10.660000	25.621216	0.000332	20.853956
1345.395154	-2.982400	3.544900	-10.571000	25.667433	0.000334	20.871449
1346.398698	-2.992100	3.544200	-10.603000	25.682518	0.000333	20.861945
1347.394280	-2.974500	3.544900	-10.543000	25.661221	0.000332	20.868056
1348.394201	-2.998100	3.543700	-10.624000	25.660700	0.000331	20.877014
1349.405166	-3.009300	3.543900	-10.665000	25.701000	0.000330	20.888093
1350.395916	-3.016000	3.543300	-10.686000	25.715908	0.000331	20.905911
1351.395620	-2.993500	3.542600	-10.604000	25.663782	0.000330	20.878214
1352.400167	-2.971600	3.543900	-10.530000	25.698198	0.000330	20.908511
1353.398974	-2.965700	3.543100	-10.506000	25.731789	0.000328	20.878242
1354.402196	-2.981100	3.542100	-10.559000	25.725702	0.000329	20.881136
1355.403220	-3.010000	3.540700	-10.657000	25.694848	0.000330	20.884284
1356.400862	-3.005500	3.540500	-10.640000	25.672163	0.000328	20.889001
1357.399426	-3.000700	3.541300	-10.625000	25.656507	0.000327	20.889397
1358.402639	-3.002600	3.540600	-10.631000	25.660636	0.000327	20.881217
1359.400719	-3.023000	3.540100	-10.701000	25.664659	0.000329	20.873405
1360.401223	-2.996100	3.540300	-10.606000	25.695372	0.000330	20.888604
1361.404969	-2.989000	3.539800	-10.580000	25.720043	0.000327	20.884935
1362.402014	-2.974400	3.539900	-10.528000	25.719497	0.000327	20.891973
1363.402726	-2.987300	3.538200	-10.568000	25.731971	0.000327	20.907820
1364.402431	-2.998000	3.538100	-10.607000	25.759378	0.000325	20.891728
1365.405303	-2.998700	3.538400	-10.609000	25.785291	0.000327	20.901161
1366.403953	-3.005700	3.537000	-10.630000	25.827721	0.000326	20.908694
1367.403736	-2.990500	3.537700	-10.578000	25.773191	0.000324	20.893274
1368.406495	-3.012200	3.537900	-10.656000	25.773540	0.000324	20.894573
1369.403166	-3.004600	3.535100	-10.620000	25.714484	0.000325	20.904005
1370.407211	-2.946300	3.537600	-10.421000	25.733863	0.000325	20.875583
1371.406154	-3.025600	3.536100	-10.697000	25.730784	0.000322	20.876284
1372.404773	-3.018100	3.535500	-10.669000	25.746312	0.000325	20.896621
1373.405596	-3.017200	3.535100	-10.665000	25.770165	0.000325	20.886916
1374.407245	-3.005300	3.535300	-10.623000	25.761967	0.000322	20.898121
1375.405473	-3.001000	3.535300	-10.608000	25.712577	0.000323	20.895927
1376.405657	-2.994400	3.534500	-10.583000	25.711161	0.000322	20.901143
1377.406543	-3.019500	3.534800	-10.672000	25.699754	0.000323	20.914340
1378.407391	-3.003200	3.534200	-10.613000	25.676252	0.000322	20.899271
1379.407423	-3.012200	3.532800	-10.640000	25.691732	0.000322	20.881155
1380.408760	-2.994500	3.532600	-10.576000	25.690862	0.000321	20.908728
1381.407863	-2.996700	3.532800	-10.586000	25.652746	0.000322	20.899844
1382.406839	-2.967300	3.533000	-10.483000	25.694959	0.000320	20.896724
1383.408998	-2.996400	3.532900	-10.585000	25.696601	0.000321	20.890312
1384.409104	-3.005100	3.532900	-10.616000	25.742394	0.000322	20.892686
1385.408380	-2.986900	3.532400	-10.550000	25.787534	0.000320	20.885872
1386.408313	-3.011100	3.532400	-10.635000	25.799036	0.000319	20.872770
1387.409348	-3.004300	3.530900	-10.605000	25.760678	0.000318	20.871698
1388.409370	-2.986600	3.530500	-10.543000	25.703262	0.000318	20.873771
1389.409281	-2.995700	3.530500	-10.575000	25.701071	0.000317	20.868252
1390.411721	-2.981300	3.531800	-10.528000	25.685021	0.000318	20.886268
1391.410446	-3.006000	3.529100	-10.607000	25.679927	0.000318	20.864558
1392.411560	-3.013400	3.529700	-10.635000	25.703404	0.000319	20.862534
1393.411924	-3.001400	3.529300	-10.592000	25.707779	0.000317	20.878307
1394.412841	-3.003300	3.528300	-10.596000	25.695826	0.000318	20.871518
1395.413636	-3.002200	3.527800	-10.590000	25.691799	0.000318	20.884542
1396.412965	-3.006600	3.527400	-10.605000	25.656270	0.000317	20.871617
1397.413517	-2.989300	3.527300	-10.543000	25.681886	0.000317	20.866525
1398.413197	-3.003900	3.528100	-10.597000	25.668516	0.000316	20.875382
1399.414875	-2.974200	3.528100	-10.492000	25.717637	0.000316	20.864502
1400.413916	-3.016900	3.526700	-10.639000	25.742533	0.000315	20.872438
1401.414264	-3.024600	3.524300	-10.659000	25.734758	0.000316	20.861784
1402.419831	-2.994600	3.526900	-10.561000	25.730185	0.000314	20.864303
1403.417444	-3.000900	3.525900	-10.580000	25.682605	0.000315	20.862506
1404.415551	-2.983800	3.525900	-10.520000	25.712567	0.000313	20.872212
1405.420187	-2.998800	3.525000	-10.568000	25.742409	0.000315	20.868047
1406.418808	-2.975600	3.526400	-10.492000	25.738287	0.000312	20.854424
1407.414920	-3.013400	3.524500	-10.619000	25.703675	0.000313	20.877505
1408.419422	-3.004800	3.523800	-10.587000	25.677612	0.000310	20.869819
1409.420118	-3.021200	3.523800	-10.645000	25.676915	0.000314	20.857266
1410.416892	-3.034600	3.522600	-10.688000	25.704567	0.000313	20.884089
1411.417171	-2.998400	3.523300	-10.563000	25.730855	0.000311	20.846959
1412.420101	-2.996300	3.522600	-10.554000	25.723622	0.000310	20.853919
1413.416773	-2.994400	3.521400	-10.543000	25.726109	0.000312	20.842667
1414.417423	-2.984200	3.522000	-10.509000	25.736519	0.000310	20.851700
1415.419212	-3.016300	3.522000	-10.622000	25.738781	0.000309	20.848756
1416.417681	-3.012200	3.521500	-10.607000	25.713342	0.000308	20.839801
1417.418850	-3.008200	3.522000	-10.593000	25.713089	0.000311	20.844762
1418.419144	-2.998400	3.521600	-10.558000	25.720071	0.000307	20.863154
1419.419343	-3.009600	3.519300	-10.591000	25.737143	0.000307	20.857542
1420.418813	-2.994500	3.519800	-10.539000	25.763553	0.000309	20.871741
1421.421132	-3.013100	3.519800	-10.605000	25.729093	0.000308	20.840448
1422.419919	-3.004000	3.518900	-10.569000	25.746883	0.000310	20.862110
1423.419950	-2.992800	3.519400	-10.531000	25.738935	0.000308	20.866928
1424.420428	-2.996200	3.518700	-10.542000	25.724548	0.000309	20.842996
1425.420305	-2.990800	3.519100	-10.524000	25.744973	0.000308	20.861614
1426.421350	-2.995500	3.518400	-10.538000	25.737149	0.000306	20.840479
1427.420154	-3.008200	3.516800	-10.578000	25.722117	0.000307	20.839131
1428.421320	-2.987500	3.517400	-10.507000	25.768255	0.000306	20.858921
1429.421537	-3.012700	3.516700	-10.593000	25.729170	0.000306	20.838629
1430.422364	-3.003700	3.517600	-10.565000	25.706295	0.000304	20.832723
1431.421526	-3.014200	3.515000	-10.593000	25.692454	0.000305	20.847269
1432.421659	-3.009900	3.515500	-10.579000	25.650118	0.000306	20.844576
1433.423068	-2.987600	3.516300	-10.504000	25.651784	0.000304	20.849569
1434.423220	-3.015000	3.515300	-10.598000	25.627978	0.000304	20.837988
1435.427969	-2.995800	3.514700	-10.528000	25.668705	0.000303	20.860874
1436.424270	-2.995700	3.516000	-10.532000	25.630620	0.000303	20.835426
1437.424016	-2.996600	3.513900	-10.528000	25.639639	0.000303	20.854441
1438.424316	-3.001600	3.513600	-10.546000	25.701732	0.000303	20.840468
1439.425458	-3.003600	3.513100	-10.551000	25.769311	0.000302	20.816361
1440.425184	-2.990100	3.514300	-10.507000	25.759725	0.000301	20.839448
1441.425696	-3.014700	3.512800	-10.589000	25.751601	0.000302	20.853573
1442.425782	-2.994400	3.513000	-10.519000	25.735083	0.000301	20.839353
1443.426424	-3.003700	3.513700	-10.553000	25.727231	0.000300	20.839052
1444.429179	-3.004400	3.511500	-10.550000	25.749198	0.000302	20.836936
1445.427243	-3.012700	3.513200	-10.583000	25.762370	0.000301	20.836415
1446.426987	-2.995800	3.510400	-10.515000	25.728058	0.000300	20.816650
1447.427019	-3.034500	3.509300	-10.649000	25.761302	0.000299	20.840558
1448.427511	-2.995500	3.511900	-10.519000	25.771468	0.000300	20.820425
1449.426443	-2.979800	3.510700	-10.461000	25.757878	0.000298	20.814360
1450.429311	-3.021500	3.509700	-10.604000	25.752068	0.000298	20.845508
1451.429859	-2.991900	3.510600	-10.502000	25.737037	0.000298	20.839893
1452.429050	-2.999800	3.509200	-10.526000	25.713190	0.000299	20.831114
1453.428817	-3.028600	3.508800	-10.625000	25.756972	0.000297	20.812976
1454.428459	-3.021100	3.507700	-10.596000	25.722067	0.000296	20.852357
1455.428935	-2.991400	3.508400	-10.493000	25.716057	0.000295	20.829726
1456.430181	-3.026700	3.507600	-10.616000	25.712629	0.000297	20.806369
1457.432038	-2.980500	3.507300	-10.452000	25.680356	0.000295	20.822791
1458.429748	-3.000500	3.507900	-10.524000	25.709529	0.000293	20.818428
1459.429752	-3.014000	3.506100	-10.567000	25.666446	0.000296	20.781794
1460.444144	-3.026200	3.504900	-10.605000	25.679467	0.000296	20.805303
1461.433297	-2.990700	3.505600	-10.483000	25.635048	0.000295	20.824226
1462.431479	-2.984600	3.506600	-10.465000	25.658181	0.000294	20.826597
1463.433074	-2.982400	3.507100	-10.458000	25.604611	0.000294	20.805512
1464.446919	-3.012900	3.504500	-10.558000	25.625141	0.000293	20.830871
1465.434424	-3.001600	3.504900	-10.519000	25.643753	0.000293	20.818745
1466.434423	-3.001700	3.504700	-10.519000	25.693597	0.000292	20.801477
1467.434108	-2.999900	3.504100	-10.511000	25.679586	0.000292	20.791672
1468.432624	-2.996600	3.504500	-10.501000	25.653051	0.000292	20.800108
1469.434646	-2.996800	3.503300	-10.498000	25.666004	0.000291	20.818334
1470.437772	-3.004800	3.503400	-10.526000	25.704912	0.000292	20.812842
1471.434171	-2.999200	3.502800	-10.504000	25.707100	0.000292	20.789435
1472.434287	-3.002900	3.501300	-10.513000	25.661213	0.000293	20.820634
1473.437582	-2.994100	3.503000	-10.487000	25.732450	0.000290	20.797354
1474.433031	-3.020400	3.501800	-10.576000	25.736057	0.000289	20.812357
1475.433247	-2.999600	3.500800	-10.500000	25.725947	0.000290	20.796038
1476.437078	-2.993800	3.501400	-10.481000	25.740461	0.000289	20.820573
1477.434546	-3.001900	3.500800	-10.508000	25.797750	0.000289	20.807944
1478.434222	-3.025200	3.500000	-10.588000	25.778080	0.000289	20.802410
1479.434324	-3.022500	3.499800	-10.577000	25.791173	0.000288	20.803234
1480.438488	-3.022600	3.499900	-10.577000	25.793262	0.000288	20.793005
1481.434031	-3.008200	3.499700	-10.527000	25.767902	0.000289	20.801196
1482.434542	-2.976400	3.499800	-10.415000	25.717075	0.000288	20.802774
1483.439971	-3.009000	3.497500	-10.524000	25.705724	0.000287	20.782364
1484.435616	-2.986300	3.498000	-10.445000	25.665450	0.000287	20.781741
1485.436768	-3.000700	3.497800	-10.495000	25.672034	0.000287	20.795467
1486.437901	-3.021100	3.496900	-10.564000	25.705284	0.000286	20.812741
1487.434940	-3.008800	3.496900	-10.521000	25.728665	0.000285	20.818682
1488.435385	-2.986800	3.497200	-10.445000	25.764101	0.000286	20.788368
1489.436977	-2.991800	3.497800	-10.464000	25.766531	0.000286	20.782749
1490.436810	-3.020600	3.495800	-10.558000	25.748354	0.000285	20.785827
1491.435691	-2.970600	3.497200	-10.388000	25.767810	0.000285	20.784508
1492.435926	-2.976300	3.496300	-10.405000	25.726649	0.000282	20.793899
1493.438105	-2.967600	3.497200	-10.378000	25.767447	0.000286	20.779875
1494.437335	-2.996700	3.496400	-10.477000	25.797259	0.000284	20.793226
1495.436388	-3.023400	3.495000	-10.566000	25.787776	0.000285	20.774217
1496.440655	-3.000600	3.495600	-10.488000	25.823678	0.000282	20.785151
1497.437614	-3.001000	3.494700	-10.487000	25.805044	0.000285	20.782080
1498.436615	-3.000700	3.494000	-10.484000	25.783137	0.000283	20.776195
1499.439938	-2.995700	3.494400	-10.468000	25.781375	0.000282	20.797185
1500.438540	-2.976000	3.494200	-10.397000	25.758622	0.000282	20.763899
1501.438574	-2.989500	3.493000	-10.442000	25.708633	0.000283	20.786708
1502.442643	-2.977900	3.493500	-10.402000	25.709331	0.000284	20.781245
1503.439555	-2.996200	3.492800	-10.464000	25.765086	0.000283	20.760909
1504.439094	-2.997900	3.492900	-10.470000	25.769514	0.000282	20.770098
1505.438645	-3.002500	3.492200	-10.484000	25.803673	0.000280	20.770272
1506.440573	-3.008700	3.491600	-10.503000	25.767527	0.000281	20.779482
1507.441137	-3.004000	3.491400	-10.488000	25.776996	0.000280	20.775243
1508.444237	-2.989700	3.491000	-10.436000	25.780847	0.000281	20.771050
1509.443207	-2.988900	3.490500	-10.432000	25.761201	0.000279	20.769808
1510.442332	-2.991800	3.492000	-10.446000	25.725494	0.000283	20.778039
1511.444979	-2.997300	3.490700	-10.462000	25.700946	0.000281	20.769978
1512.443917	-3.004300	3.488800	-10.481000	25.670194	0.000281	20.759479
1513.444727	-3.004900	3.489200	-10.484000	25.657571	0.000280	20.776199
1514.447022	-3.000800	3.490000	-10.471000	25.670789	0.000281	20.763396
1515.446604	-2.998700	3.488500	-10.460000	25.733899	0.000279	20.767989
1516.447148	-3.015100	3.488600	-10.517000	25.742322	0.000280	20.764121
1517.447114	-3.020700	3.488500	-10.537000	25.732906	0.000278	20.778371
1518.449369	-2.995100	3.488000	-10.446000	25.749776	0.000279	20.763074
1519.450376	-3.020300	3.487300	-10.532000	25.755987	0.000279	20.778322
1520.447902	-2.996100	3.485900	-10.443000	25.784535	0.000279	20.772384
1521.453766	-2.981800	3.486600	-10.396000	25.755938	0.000275	20.755038
1522.448044	-2.987300	3.486700	-10.415000	25.790076	0.000280	20.767044
1523.452044	-3.006800	3.485200	-10.478000	25.805973	0.000277	20.773056
1524.454108	-2.991700	3.485100	-10.425000	25.849124	0.000277	20.752865
1525.450006	-2.994700	3.485400	-10.437000	25.797924	0.000278	20.754065
1526.457122	-3.002500	3.483500	-10.457000	25.771022	0.000274	20.752646
1527.456282	-2.998800	3.483900	-10.446000	25.723218	0.000274	20.752993
1528.453144	-2.983100	3.484300	-10.394000	25.739490	0.000275	20.760802
1529.453548	-2.990800	3.484300	-10.420000	25.752478	0.000276	20.766262
1530.453918	-2.999600	3.482000	-10.444000	25.790442	0.000273	20.767412
1531.457464	-2.982500	3.484100	-10.390000	25.773174	0.000275	20.750540
1532.454810	-2.983700	3.482400	-10.390000	25.808355	0.000275	20.757430
1533.456166	-2.996100	3.481700	-10.431000	25.788050	0.000272	20.780657
1534.456618	-2.988400	3.482500	-10.406000	25.794888	0.000272	20.751963
1535.455571	-3.002500	3.481700	-10.453000	25.730588	0.000273	20.755654
1536.460587	-2.966900	3.481200	-10.327000	25.720227	0.000271	20.782232
1537.456184	-3.007600	3.480100	-10.466000	25.727857	0.000273	20.766662
1538.455748	-2.994000	3.481000	-10.421000	25.715083	0.000271	20.756202
1539.455723	-2.974800	3.480700	-10.354000	25.727012	0.000271	20.765813
1540.455981	-3.019200	3.478900	-10.502000	25.744548	0.000269	20.760194
1541.455735	-3.002600	3.479300	-10.447000	25.744450	0.000273	20.744921
1542.456119	-2.998300	3.478000	-10.427000	25.807132	0.000270	20.757625
1543.455863	-3.015600	3.479100	-10.490000	25.785845	0.000272	20.750940
1544.458316	-2.998300	3.479700	-10.432000	25.765519	0.000269	20.757550
1545.458103	-3.017300	3.477900	-10.493000	25.750365	0.000269	20.791166
1546.459791	-2.997800	3.478800	-10.428000	25.708996	0.000269	20.761468
1547.461042	-3.013100	3.476600	-10.474000	25.726089	0.000268	20.763463
1548.459419	-2.974400	3.478100	-10.345000	25.670360	0.000269	20.758223
1549.458062	-3.026900	3.476900	-10.523000	25.662338	0.000266	20.766761
1550.462149	-2.983700	3.477200	-10.373000	25.720153	0.000267	20.763665
1551.460536	-2.999900	3.475900	-10.426000	25.696796	0.000266	20.753955
1552.460583	-2.987000	3.476100	-10.382000	25.763931	0.000268	20.740781
1553.463417	-2.986200	3.476400	-10.380000	25.795684	0.000268	20.760824
1554.459314	-2.990700	3.474500	-10.390000	25.764378	0.000268	20.735540
1555.461680	-3.004100	3.475000	-10.438000	25.817045	0.000268	20.735813
1556.461006	-2.992900	3.473900	-10.396000	25.833569	0.000268	20.758577
1557.460135	-2.987700	3.475500	-10.382000	25.834041	0.000264	20.741506
1558.460388	-2.978700	3.474400	-10.349000	25.768376	0.000264	20.754256
1559.464099	-2.997500	3.474500	-10.414000	25.784503	0.000266	20.760024
1560.462584	-3.011200	3.473400	-10.458000	25.830490	0.000265	20.762122
1561.463087	-2.991600	3.473700	-10.391000	25.792827	0.000264	20.742780
1562.464230	-3.015100	3.472800	-10.470000	25.788875	0.000263	20.749716
1563.463257	-2.996000	3.472700	-10.403000	25.826957	0.000263	20.737709
1564.463444	-3.001400	3.472500	-10.422000	25.775059	0.000265	20.732992
1565.466622	-3.001300	3.471900	-10.420000	25.727005	0.000265	20.736407
1566.465424	-3.012600	3.472500	-10.460000	25.731553	0.000264	20.738605
1567.464080	-3.002200	3.471400	-10.421000	25.769592	0.000263	20.770650
1568.469779	-2.992800	3.471900	-10.390000	25.738408	0.000264	20.748810
1569.465897	-2.995600	3.469300	-10.391000	25.711074	0.000261	20.748382
1570.465256	-3.029300	3.470200	-10.511000	25.709838	0.000262	20.740027
1571.470953	-3.000900	3.470200	-10.413000	25.710331	0.000260	20.757593
1572.466686	-3.016800	3.469400	-10.466000	25.735026	0.000260	20.737352
1573.466544	-3.013600	3.470200	-10.457000	25.732737	0.000261	20.765399
1574.468522	-3.021200	3.469400	-10.480000	25.723394	0.000259	20.730883
1575.464984	-3.003800	3.469800	-10.421000	25.709257	0.000260	20.739918
1576.465816	-3.004700	3.467600	-10.418000	25.764065	0.000262	20.721948
1577.467182	-2.993300	3.468000	-10.379000	25.708436	0.000259	20.737671
1578.467328	-3.013800	3.466500	-10.446000	25.757949	0.000257	20.731927
1579.467458	-3.011900	3.467500	-10.442000	25.780907	0.000259	20.736496
1580.472518	-2.999400	3.467500	-10.399000	25.797449	0.000257	20.735095
1581.468684	-3.024700	3.466100	-10.483000	25.857444	0.000258	20.746050
1582.468415	-3.008100	3.466000	-10.426000	25.853295	0.000261	20.767487
1583.472482	-2.999500	3.467200	-10.399000	25.872076	0.000257	20.751740
1584.472114	-2.973500	3.467000	-10.308000	25.833397	0.000257	20.747972
1585.469806	-3.003800	3.465100	-10.407000	25.836902	0.000255	20.747699
1586.470226	-2.987800	3.464500	-10.350000	25.784676	0.000257	20.764465
1587.471371	-3.009900	3.464900	-10.428000	25.795237	0.000254	20.740459
1588.470177	-2.977000	3.465000	-10.314000	25.802416	0.000256	20.747197
1589.471378	-2.989400	3.464400	-10.355000	25.791358	0.000256	20.738934
1590.471808	-3.019200	3.464000	-10.458000	25.775612	0.000255	20.735919
1591.473999	-2.986700	3.463800	-10.344000	25.771860	0.000254	20.729779
1592.470213	-3.020400	3.461400	-10.454000	25.777398	0.000252	20.737713
1593.470182	-3.014900	3.463700	-10.442000	25.761201	0.000253	20.728081
1594.472007	-2.994400	3.462400	-10.366000	25.790266	0.000252	20.747795
1595.470720	-2.996800	3.463700	-10.379000	25.763888	0.000254	20.732203
1596.469750	-3.010500	3.460500	-10.416000	25.776679	0.000252	20.737465
1597.473219	-3.023100	3.460800	-10.461000	25.805206	0.000251	20.739093
1598.470711	-2.996900	3.460400	-10.370000	25.786596	0.000252	20.733201
1599.469732	-3.013000	3.461100	-10.427000	25.785183	0.000251	20.735576
1600.472584	-3.007600	3.458200	-10.400000	25.812487	0.000253	20.763003
1601.472334	-3.008200	3.460500	-10.409000	25.779124	0.000250	20.728067
1602.472445	-3.013100	3.460700	-10.426000	25.771867	0.000250	20.731209
1603.472667	-2.998000	3.459700	-10.372000	25.764096	0.000251	20.753276
1604.472557	-2.988500	3.459400	-10.338000	25.834527	0.000250	20.735830
1605.476264	-3.011000	3.459900	-10.417000	25.853485	0.000250	20.749659
1606.472415	-2.994400	3.457500	-10.353000	25.840195	0.000249	20.733463
1607.472019	-2.989300	3.458400	-10.337000	25.773195	0.000248	20.732069
1608.473566	-2.980300	3.459500	-10.309000	25.753271	0.000250	20.732444
1609.474909	-3.010600	3.457600	-10.409000	25.749769	0.000250	20.739833
1610.479340	-3.001500	3.458100	-10.378000	25.732497	0.000248	20.733863
1611.484249	-3.003000	3.457200	-10.381000	25.735833	0.000249	20.755707
1612.478632	-3.006000	3.457400	-10.392000	25.733501	0.000250	20.720172
1613.477909	-3.018300	3.456100	-10.430000	25.773819	0.000250	20.757352
1614.476070	-2.994700	3.457300	-10.353000	25.768433	0.000247	20.757158
1615.478869	-3.016700	3.455900	-10.424000	25.778497	0.000247	20.739291
1616.475167	-3.015400	3.454500	-10.415000	25.857501	0.000247	20.733778
1617.474893	-2.987300	3.457100	-10.326000	25.839564	0.000247	20.741839
1618.474886	-3.021100	3.454000	-10.433000	25.858892	0.000246	20.717157
1619.477704	-3.015900	3.454700	-10.418000	25.837729	0.000245	20.729563
1620.476242	-3.000600	3.454400	-10.364000	25.859019	0.000246	20.754270
1621.476014	-2.999900	3.454700	-10.362000	25.834126	0.000244	20.732582
1622.477869	-3.017000	3.454400	-10.421000	25.864260	0.000246	20.733456
1623.486228	-3.020900	3.453000	-10.431000	25.837409	0.000245	20.754847
1624.476828	-3.010100	3.452600	-10.392000	25.829011	0.000244	20.754472
1625.479153	-3.013500	3.452500	-10.404000	25.812916	0.000245	20.751107
1626.480678	-2.997800	3.452900	-10.350000	25.807971	0.000245	20.742345
1627.477897	-2.994700	3.451900	-10.336000	25.783799	0.000245	20.752678
1628.478000	-3.019400	3.450600	-10.418000	25.831054	0.000242	20.751308
1629.478596	-2.993700	3.451100	-10.331000	25.868769	0.000244	20.765962
1630.479327	-2.969200	3.451100	-10.246000	25.888022	0.000243	20.728877
1631.478434	-2.986400	3.450700	-10.304000	25.885116	0.000244	20.741605
1632.477562	-2.989500	3.451400	-10.317000	25.882062	0.000243	20.754659
1633.478230	-3.002500	3.450000	-10.358000	25.914879	0.000242	20.740685
1634.478694	-2.990100	3.450300	-10.315000	25.948217	0.000244	20.742409
1635.478505	-2.982900	3.450600	-10.292000	25.955173	0.000243	20.746552
1636.478491	-2.992400	3.449900	-10.323000	25.934949	0.000241	20.759426
1637.478068	-3.013000	3.449400	-10.392000	25.871957	0.000242	20.730282
1638.482152	-3.012100	3.446800	-10.381000	25.838846	0.000241	20.762929
1639.480968	-3.007200	3.447000	-10.365000	25.801680	0.000242	20.774907
1640.477391	-2.991200	3.447400	-10.311000	25.841280	0.000240	20.758736
1641.483886	-3.012300	3.447100	-10.382000	25.869051	0.000239	20.742536
1642.485165	-3.004100	3.447500	-10.356000	25.892703	0.000239	20.753021
1643.480325	-3.008400	3.446700	-10.368000	25.906120	0.000241	20.752274
1644.486703	-2.994800	3.446400	-10.321000	25.898469	0.000238	20.756443
1645.483198	-3.015700	3.446500	-10.392000	25.874669	0.000240	20.752448
1646.482583	-3.003400	3.444900	-10.345000	25.848684	0.000239	20.766174
1647.485912	-2.987000	3.444600	-10.288000	25.866004	0.000238	20.756546
1648.484209	-3.004900	3.444000	-10.348000	25.849603	0.000237	20.752398
1649.482867	-2.985700	3.443400	-10.280000	25.880731	0.000236	20.730087
1650.486249	-2.983400	3.445000	-10.277000	25.880217	0.000238	20.766556
1651.481973	-2.997000	3.445000	-10.324000	25.840163	0.000236	20.753821
1652.483489	-2.989900	3.444300	-10.297000	25.808341	0.000236	20.762632
1653.484068	-3.005700	3.444200	-10.352000	25.845507	0.000236	20.750654
1654.484107	-3.003500	3.443500	-10.342000	25.893852	0.000235	20.751330
1655.486020	-3.009000	3.444000	-10.362000	25.881280	0.000235	20.759564
1656.484202	-3.007700	3.442700	-10.354000	25.900086	0.000233	20.767076
1657.485866	-3.009700	3.442400	-10.360000	25.876360	0.000235	20.765526
1658.488830	-3.014800	3.441300	-10.374000	25.848888	0.000233	20.754999
1659.485805	-3.008200	3.441800	-10.352000	25.844165	0.000233	20.750254
1660.485059	-3.023800	3.440600	-10.403000	25.808172	0.000233	20.754401
1661.488347	-3.028300	3.440200	-10.416000	25.772494	0.000234	20.755074
1662.485664	-3.031000	3.441100	-10.429000	25.791059	0.000234	20.752384
1663.488033	-2.980800	3.440800	-10.255000	25.864341	0.000232	20.772894
1664.488022	-3.022500	3.440300	-10.397000	25.845486	0.000234	20.743520
1665.485969	-2.992300	3.439200	-10.290000	25.832594	0.000235	20.761864
1666.487131	-2.989300	3.440800	-10.284000	25.835003	0.000233	20.752430
1667.486541	-2.994100	3.437900	-10.292000	25.851847	0.000232	20.756075
1668.486892	-2.993000	3.440700	-10.297000	25.871097	0.000233	20.757395
1669.486042	-2.999500	3.438800	-10.313000	25.900611	0.000232	20.782777
1670.486359	-2.994600	3.437100	-10.292000	25.876462	0.000233	20.758042
1671.486751	-2.973800	3.437000	-10.220000	25.844862	0.000232	20.759964
1672.487939	-3.002500	3.436600	-10.317000	25.883193	0.000230	20.765753
1673.486556	-2.969400	3.438700	-10.210000	25.846550	0.000230	20.757391
1674.487028	-2.985700	3.437900	-10.264000	25.854102	0.000230	20.763555
1675.488988	-2.974400	3.438600	-10.227000	25.838078	0.000230	20.768796
1676.487241	-2.982600	3.435700	-10.247000	25.813681	0.000227	20.764203
1677.489132	-2.986300	3.437400	-10.263000	25.796663	0.000230	20.761807
1678.488254	-3.022200	3.434500	-10.378000	25.817256	0.000230	20.764475
1679.487943	-2.993900	3.435100	-10.283000	25.875317	0.000228	20.778704
1680.488536	-3.024800	3.436100	-10.392000	25.876331	0.000228	20.776878
1681.488959	-3.023200	3.433400	-10.379000	25.892009	0.000228	20.769868
1682.489508	-3.009200	3.433900	-10.333000	25.914041	0.000227	20.774458
1683.490731	-3.001800	3.434200	-10.308000	25.919134	0.000228	20.766298
1684.490287	-2.997200	3.432700	-10.288000	25.904203	0.000225	20.774532
1685.489849	-3.003100	3.433000	-10.309000	25.884056	0.000226	20.789854
1686.494669	-2.987800	3.434000	-10.259000	25.831417	0.000224	20.769691
1687.493715	-2.994300	3.433200	-10.279000	25.841629	0.000224	20.766673
1688.491578	-2.985600	3.433000	-10.249000	25.847465	0.000227	20.766372
1689.494671	-3.001800	3.431600	-10.299000	25.883017	0.000225	20.794500
1690.492137	-2.996500	3.430200	-10.277000	25.848980	0.000225	20.779274
1691.491552	-3.000600	3.431400	-10.295000	25.866768	0.000225	20.781022
1692.498116	-3.011900	3.430300	-10.330000	25.916401	0.000223	20.765449
1693.491283	-3.008000	3.429400	-10.315000	25.966753	0.000223	20.775732
1694.492059	-2.967100	3.432600	-10.184000	25.949943	0.000226	20.780654
1695.492262	-2.993800	3.430400	-10.270000	25.887709	0.000224	20.793997
1696.492628	-3.010200	3.429500	-10.323000	25.867737	0.000223	20.782943
1697.493446	-3.006800	3.428900	-10.309000	25.889153	0.000221	20.785017
1698.492863	-2.987500	3.429500	-10.245000	25.834277	0.000223	20.782522
1699.493479	-3.009600	3.429200	-10.319000	25.833330	0.000221	20.781096
1700.493409	-3.023200	3.428100	-10.364000	25.848807	0.000221	20.785264
1701.492839	-3.000800	3.427300	-10.283000	25.850572	0.000223	20.782295
1702.496232	-2.992900	3.428100	-10.259000	25.846398	0.000222	20.773361
1703.493883	-2.995100	3.427400	-10.264000	25.918137	0.000220	20.793272
1704.497186	-2.977900	3.428300	-10.208000	25.890565	0.000221	20.785487
1705.496420	-2.970800	3.427000	-10.180000	25.851960	0.000220	20.796966
1706.494973	-2.996100	3.426100	-10.265000	25.843316	0.000221	20.781170
1707.497217	-2.979900	3.426000	-10.208000	25.898737	0.000220	20.796067
1708.496063	-2.986600	3.425700	-10.230000	25.920075	0.000219	20.803753
1709.496392	-2.990500	3.426000	-10.244000	25.951619	0.000221	20.785183
1710.495111	-2.998900	3.426100	-10.274000	25.962273	0.000220	20.781662
1711.497875	-2.990800	3.425700	-10.244000	25.965331	0.000221	20.801803
1712.496465	-2.998100	3.425100	-10.268000	25.944286	0.000220	20.794411
1713.496169	-2.992200	3.423500	-10.243000	25.962492	0.000220	20.798477
1714.495593	-2.993800	3.423900	-10.249000	25.942817	0.000218	20.809057
1715.495980	-2.973400	3.425300	-10.183000	25.975284	0.000218	20.788095
1716.496312	-2.980800	3.423900	-10.205000	26.004914	0.000221	20.814071
1717.496872	-3.010800	3.422500	-10.304000	26.021133	0.000217	20.788640
1718.500367	-3.005400	3.422600	-10.286000	25.974160	0.000219	20.829640
1719.497764	-3.001200	3.422500	-10.271000	25.982507	0.000216	20.804361
1720.497418	-3.028600	3.421200	-10.361000	26.007320	0.000218	20.807004
1721.498013	-2.967400	3.421700	-10.152000	26.021650	0.000217	20.811919
1722.501038	-2.980900	3.421400	-10.198000	25.968370	0.000218	20.800589
1723.496508	-2.986000	3.421100	-10.215000	25.944402	0.000217	20.797847
1724.499404	-2.994900	3.419600	-10.240000	25.926788	0.000217	20.804807
1725.503763	-3.009800	3.419200	-10.290000	25.913770	0.000215	20.789358
1726.499825	-2.987000	3.419500	-10.213000	25.910589	0.000216	20.802284
1727.500252	-2.991900	3.421200	-10.235000	25.991372	0.000215	20.804259
1728.503168	-2.997200	3.420000	-10.250000	25.988762	0.000215	20.796421
1729.500955	-2.998300	3.419100	-10.250000	25.953190	0.000214	20.805727
1730.501154	-2.997500	3.417500	-10.243000	25.891062	0.000213	20.805900
1731.503659	-3.000500	3.418700	-10.257000	25.860854	0.000212	20.806375
1732.503463	-2.987000	3.419400	-10.213000	25.860780	0.000213	20.825740
1733.503594	-3.002300	3.417200	-10.259000	25.899089	0.000213	20.810646
1734.510822	-3.005800	3.417600	-10.272000	25.931655	0.000212	20.839568
1735.504488	-3.009400	3.417100	-10.282000	25.929940	0.000211	20.826466
1736.504513	-3.025300	3.417300	-10.337000	25.917447	0.000212	20.821975
1737.509677	-2.996400	3.417400	-10.239000	25.950333	0.000214	20.812340
1738.505513	-2.992200	3.416600	-10.222000	25.948622	0.000211	20.831483
1739.504838	-2.973900	3.416500	-10.160000	25.964894	0.000213	20.831235
1740.510850	-2.996100	3.416000	-10.234000	25.963055	0.000212	20.818483
1741.505977	-3.017100	3.414500	-10.301000	25.935731	0.000213	20.826119
1742.509255	-2.999900	3.416000	-10.246000	25.940401	0.000212	20.819431
1743.512453	-2.988200	3.415200	-10.204000	25.969934	0.000212	20.819230
1744.508795	-3.007100	3.414000	-10.264000	25.959378	0.000210	20.814789
1745.509981	-3.006400	3.413500	-10.262000	25.908553	0.000211	20.825843
1746.510075	-3.012700	3.414100	-10.285000	25.907638	0.000210	20.821130
1747.507407	-3.007500	3.414900	-10.270000	25.924456	0.000209	20.836603
1748.507880	-3.010100	3.413400	-10.273000	25.926119	0.000209	20.819308
1749.507848	-3.018000	3.412000	-10.296000	25.946861	0.000209	20.829714
1750.506848	-2.996800	3.414300	-10.230000	25.936153	0.000208	20.827018
1751.507952	-3.008700	3.413100	-10.268000	25.926267	0.000207	20.812344
1752.506341	-3.019800	3.410500	-10.298000	25.930490	0.000207	20.831759
1753.507237	-3.004800	3.412400	-10.253000	25.890621	0.000206	20.833433
1754.507615	-3.008400	3.412000	-10.264000	25.846176	0.000207	20.845208
1755.508729	-3.017100	3.411400	-10.292000	25.859667	0.000205	20.838372
1756.509196	-2.996600	3.410300	-10.218000	25.888085	0.000207	20.840368
1757.508994	-2.997500	3.410900	-10.223000	25.895810	0.000206	20.848127
1758.508446	-2.995600	3.410900	-10.217000	25.942092	0.000205	20.836302
1759.509567	-3.063000	3.408100	-10.437000	25.937224	0.000205	20.845162
1760.511027	-3.009000	3.409500	-10.258000	25.947829	0.000204	20.830687
1761.508146	-2.984300	3.410000	-10.175000	25.946611	0.000205	20.847006
1762.510894	-3.003400	3.407800	-10.235000	25.990802	0.000205	20.834505
1763.509264	-3.003100	3.408000	-10.234000	25.967401	0.000205	20.843237
1764.509675	-2.999900	3.409400	-10.228000	26.002505	0.000205	20.853849
1765.514636	-3.028600	3.407400	-10.318000	25.998106	0.000205	20.831886
1766.512018	-2.990200	3.408100	-10.190000	26.032931	0.000205	20.846011
1767.509294	-3.000700	3.406900	-10.222000	26.032163	0.000203	20.834809
1768.512243	-2.991600	3.407200	-10.192000	26.021457	0.000203	20.828794
1769.510985	-2.995600	3.406200	-10.203000	26.029377	0.000203	20.845760
1770.509522	-2.985000	3.407200	-10.169000	26.006577	0.000203	20.847982
1771.509857	-2.990900	3.406700	-10.187000	25.957445	0.000204	20.843191
1772.515464	-3.001800	3.405600	-10.222000	25.964475	0.000201	20.864478
1773.513905	-3.006600	3.405800	-10.239000	25.923812	0.000201	20.861085
1774.511594	-2.984700	3.407000	-10.168000	25.967852	0.000201	20.849854
1775.511726	-2.997800	3.404400	-10.205000	25.994031	0.000200	20.856715
1776.513870	-2.987600	3.405800	-10.174000	26.028831	0.000199	20.866548
1777.513013	-3.001200	3.404700	-10.217000	26.071899	0.000201	20.846758
1778.513337	-2.999500	3.404300	-10.211000	26.122794	0.000199	20.830092
1779.514617	-3.021600	3.402900	-10.281000	26.115385	0.000201	20.869587
1780.515919	-3.013100	3.403100	-10.253000	26.083873	0.000198	20.845513
1781.516006	-3.013200	3.403000	-10.253000	26.044581	0.000199	20.843966
1782.518275	-2.970900	3.402500	-10.108000	26.013680	0.000197	20.842792
1783.515697	-2.982400	3.402300	-10.147000	26.013708	0.000199	20.862259
1784.519852	-2.987700	3.403600	-10.168000	26.002505	0.000199	20.860012
1785.516002	-2.992500	3.401800	-10.178000	26.044708	0.000198	20.866700
1786.517994	-2.963900	3.401500	-10.080000	26.076823	0.000197	20.865454
1787.517350	-2.972400	3.401200	-10.107000	26.100615	0.000197	20.874187
1788.517951	-2.991400	3.400700	-10.172000	26.149617	0.000197	20.863682
1789.517351	-3.009000	3.401000	-10.232000	26.138718	0.000196	20.854627
1790.519014	-2.990100	3.401200	-10.169000	26.182701	0.000198	20.865631
1791.519357	-3.008100	3.399600	-10.225000	26.164700	0.000196	20.847069
1792.519644	-2.990000	3.400000	-10.165000	26.147166	0.000195	20.860745
1793.518672	-3.015900	3.398500	-10.249000	26.079858	0.000195	20.853806
1794.518583	-2.997400	3.398600	-10.186000	26.063764	0.000193	20.855179
1795.520919	-3.004000	3.400000	-10.213000	26.079813	0.000193	20.861821
1796.519508	-2.967800	3.399900	-10.089000	26.055298	0.000195	20.884129
1797.520360	-2.980600	3.398600	-10.129000	26.059394	0.000194	20.860271
1798.519747	-3.022100	3.396100	-10.262000	26.071191	0.000193	20.875443
1799.520623	-2.990200	3.397700	-10.159000	26.083141	0.000193	20.863742
1800.522458	-3.010400	3.396500	-10.223000	26.095364	0.000193	20.863222
1801.523378	-2.979700	3.397700	-10.123000	26.059771	0.000193	20.858279
1802.520459	-3.009500	3.395400	-10.217000	26.043003	0.000193	20.863717
1803.520309	-3.002000	3.395700	-10.193000	26.081028	0.000191	20.893385
1804.522775	-3.015900	3.396000	-10.241000	26.115328	0.000191	20.883280
1805.520793	-3.009800	3.395900	-10.220000	26.111652	0.000190	20.883853
1806.521598	-3.012600	3.395000	-10.227000	26.067268	0.000192	20.894259
1807.520969	-2.994600	3.395200	-10.166000	26.033565	0.000191	20.871777
1808.520562	-3.036700	3.393500	-10.304000	26.004428	0.000191	20.882806
1809.520828	-2.994500	3.393600	-10.161000	26.073329	0.000191	20.898926
1810.521728	-3.011900	3.394700	-10.224000	26.125981	0.000188	20.869803
1811.521782	-2.975800	3.393700	-10.098000	26.109444	0.000189	20.880686
1812.521002	-3.013300	3.393000	-10.223000	26.113170	0.000191	20.870206
1813.523930	-3.007600	3.393100	-10.204000	26.124167	0.000188	20.883627
1814.522874	-3.001200	3.391800	-10.179000	26.077925	0.000186	20.891216
1815.520978	-2.991300	3.393700	-10.151000	26.015307	0.000188	20.881882
1816.524827	-3.011200	3.391500	-10.210000	26.024922	0.000187	20.889171
1817.524604	-3.002700	3.390900	-10.181000	26.029071	0.000186	20.878167
1818.523080	-3.000700	3.391300	-10.176000	26.043426	0.000188	20.904442
1819.522144	-3.017800	3.389300	-10.227000	26.079566	0.000186	20.902347
1820.521363	-3.015200	3.388900	-10.218000	26.036372	0.000185	20.890243
1821.524307	-3.000000	3.390100	-10.169000	26.025151	0.000187	20.870436
1822.523028	-2.984300	3.391900	-10.122000	26.049191	0.000187	20.895536
1823.523026	-2.981600	3.391000	-10.110000	26.062556	0.000185	20.908015
1824.524188	-3.002400	3.389300	-10.174000	26.076590	0.000185	20.890349
1825.521730	-3.013900	3.387900	-10.210000	26.047656	0.000184	20.882615
1826.523606	-3.001700	3.389200	-10.173000	26.085162	0.000184	20.880471
1827.524361	-3.002700	3.388200	-10.173000	26.070808	0.000188	20.891651
1828.526129	-3.020900	3.388400	-10.235000	26.057770	0.000185	20.904155
1829.532830	-3.012700	3.388400	-10.207000	26.034671	0.000185	20.912714
1830.524863	-3.026800	3.387300	-10.252000	26.022774	0.000184	20.902659
1831.527439	-3.020400	3.386700	-10.228000	26.030455	0.000184	20.887144
1832.526216	-3.021500	3.386300	-10.231000	26.094209	0.000183	20.897146
1833.525683	-3.012500	3.386900	-10.202000	26.061303	0.000183	20.902489
1834.530386	-2.990500	3.386700	-10.126000	26.056957	0.000183	20.904286
1835.525665	-2.987100	3.386900	-10.117000	26.068582	0.000185	20.913121
1836.527288	-3.005400	3.385700	-10.174000	26.127319	0.000181	20.891535
1837.531377	-2.992300	3.386000	-10.131000	26.172598	0.000183	20.917590
1838.528860	-2.976200	3.385000	-10.073000	26.179299	0.000181	20.895876
1839.530519	-2.970800	3.384600	-10.053000	26.114533	0.000183	20.897652
1840.530985	-3.018500	3.384400	-10.214000	26.167654	0.000184	20.897925
1841.531208	-3.016400	3.384400	-10.207000	26.196962	0.000182	20.906512
1842.530902	-3.013300	3.385000	-10.199000	26.199917	0.000180	20.883404
1843.530107	-2.997500	3.383600	-10.142000	26.121759	0.000181	20.900646
1844.530926	-3.002900	3.385000	-10.164000	26.126900	0.000178	20.908182
1845.530235	-2.988800	3.383500	-10.112000	26.130425	0.000182	20.894655
1846.531569	-3.029600	3.382600	-10.247000	26.152382	0.000179	20.897751
1847.533463	-3.003100	3.383200	-10.159000	26.163682	0.000180	20.889193
1848.533724	-3.003000	3.381700	-10.154000	26.138923	0.000179	20.906512
1849.534565	-2.984800	3.383100	-10.097000	26.113490	0.000179	20.893760
1850.535244	-2.981400	3.382700	-10.084000	26.091339	0.000177	20.895211
1851.542344	-3.003900	3.382100	-10.158000	26.032674	0.000177	20.914501
1852.535526	-2.996900	3.382600	-10.136000	26.015882	0.000176	20.899053
1853.536235	-3.037700	3.379600	-10.265000	25.971149	0.000177	20.896311
1854.536483	-3.024400	3.380800	-10.224000	25.966356	0.000175	20.894341
1855.536370	-3.011600	3.380700	-10.180000	25.959875	0.000178	20.891623
1856.537535	-2.983700	3.380800	-10.087000	25.942437	0.000175	20.888803
1857.539493	-2.976800	3.379000	-10.058000	25.969438	0.000176	20.889377
1858.539598	-2.984500	3.379900	-10.087000	26.041003	0.000174	20.883992
1859.539633	-3.037400	3.378500	-10.261000	26.103193	0.000173	20.886260
1860.540173	-3.014900	3.378300	-10.185000	26.182670	0.000174	20.864178
1861.541324	-3.004500	3.376500	-10.144000	26.187068	0.000174	20.893251
1862.541174	-2.973700	3.379000	-10.047000	26.130221	0.000175	20.873115
1863.543678	-3.004300	3.378000	-10.148000	26.153963	0.000172	20.903607
1864.541382	-2.968200	3.378700	-10.027000	26.144329	0.000171	20.899616
1865.543841	-2.998900	3.377100	-10.127000	26.162161	0.000172	20.870122
1866.546805	-3.003900	3.377500	-10.144000	26.174233	0.000172	20.880355
1867.549810	-2.993800	3.376700	-10.108000	26.197579	0.000170	20.867780
1868.547168	-3.003000	3.377000	-10.141000	26.217154	0.000172	20.894086
1869.546695	-3.011900	3.375600	-10.166000	26.192118	0.000173	20.877938
1870.543260	-3.008500	3.374500	-10.151000	26.182311	0.000170	20.876618
1871.543980	-3.002500	3.376000	-10.136000	26.163912	0.000170	20.893216
1872.545639	-2.990200	3.375000	-10.092000	26.127207	0.000169	20.898060
1873.546823	-2.967900	3.375900	-10.018000	26.156119	0.000169	20.879697
1874.545718	-2.994600	3.374200	-10.104000	26.088269	0.000167	20.865102
1875.547123	-3.011000	3.372100	-10.152000	26.082064	0.000169	20.862186
1876.551057	-2.988400	3.375000	-10.084000	26.048337	0.000167	20.859593
1877.546108	-2.985200	3.372900	-10.068000	26.069474	0.000170	20.864709
1878.548129	-2.989900	3.372800	-10.084000	26.136389	0.000168	20.854657
1879.551976	-2.985400	3.372900	-10.068000	26.181716	0.000167	20.871754
1880.548742	-3.026500	3.371900	-10.204000	26.239236	0.000170	20.864122
1881.548659	-3.005200	3.371600	-10.131000	26.241821	0.000167	20.897063
1882.552020	-2.999900	3.371900	-10.114000	26.217810	0.000167	20.857764
1883.554328	-3.017500	3.371100	-10.170000	26.178079	0.000167	20.861936
1884.554070	-2.994500	3.370800	-10.092000	26.196658	0.000166	20.855001
1885.557674	-2.993600	3.371500	-10.092000	26.205828	0.000168	20.866111
1886.552115	-2.987900	3.369600	-10.067000	26.178784	0.000165	20.857429
1887.552543	-3.003400	3.368500	-10.116000	26.194412	0.000166	20.876451
1888.554918	-2.983200	3.369300	-10.051000	26.209166	0.000165	20.859510
1889.552366	-3.004200	3.369700	-10.122000	26.229459	0.000163	20.850031
1890.554727	-3.020000	3.368700	-10.173000	26.282160	0.000165	20.856998
1891.562967	-2.996600	3.369200	-10.096000	26.326239	0.000166	20.879483
1892.555711	-2.975300	3.368100	-10.021000	26.321972	0.000163	20.842955
1893.555644	-2.983200	3.368400	-10.047000	26.253932	0.000164	20.837640
1894.560075	-3.014700	3.367800	-10.152000	26.206579	0.000164	20.853591
1895.556942	-3.004800	3.366800	-10.116000	26.236580	0.000164	20.851022
1896.555035	-2.996700	3.367500	-10.089000	26.244236	0.000164	20.838801
1897.556137	-3.024600	3.364900	-10.177000	26.248884	0.000163	20.863386
1898.558329	-3.005300	3.365300	-10.112000	26.220573	0.000164	20.846791
1899.557108	-2.986400	3.366100	-10.052000	26.203767	0.000163	20.829903
1900.558243	-3.006800	3.365000	-10.117000	26.219366	0.000162	20.845104
1901.557291	-3.017100	3.365800	-10.154000	26.200295	0.000161	20.834001
1902.559367	-2.991100	3.365600	-10.066000	26.173251	0.000163	20.837171
1903.558819	-2.986000	3.364900	-10.047000	26.148049	0.000162	20.836503
1904.562638	-2.994500	3.365600	-10.076000	26.126071	0.000160	20.824851
1905.561585	-2.998500	3.364000	-10.086000	26.162262	0.000158	20.837508
1906.558310	-2.989000	3.363800	-10.054000	26.181210	0.000159	20.830944
1907.563165	-3.009100	3.363800	-10.121000	26.184665	0.000161	20.844847
1908.559083	-2.996400	3.362900	-10.076000	26.186950	0.000160	20.816798
1909.559588	-3.011500	3.363200	-10.127000	26.287004	0.000158	20.821564
1910.560182	-2.988800	3.362700	-10.049000	26.283082	0.000159	20.826157
1911.560998	-3.001700	3.362700	-10.093000	26.255248	0.000157	20.821894
1912.561045	-2.981600	3.361600	-10.023000	26.258002	0.000159	20.844100
1913.558509	-2.999300	3.361100	-10.080000	26.268759	0.000159	20.830255
1914.558324	-2.993900	3.360900	-10.061000	26.236551	0.000157	20.836769
1915.559777	-3.021200	3.360100	-10.150000	26.242463	0.000158	20.837021
1916.560073	-3.004000	3.359700	-10.092000	26.282716	0.000158	20.826264
1917.559106	-2.984500	3.361600	-10.032000	26.294910	0.000158	20.829983
1918.558953	-2.993400	3.359500	-10.055000	26.323665	0.000158	20.851768
1919.565443	-3.014600	3.358700	-10.124000	26.346012	0.000156	20.827286
1920.560120	-3.003900	3.358400	-10.087000	26.309983	0.000157	20.815734
1921.563287	-3.000300	3.359000	-10.077000	26.327813	0.000156	20.835549
1922.564410	-3.019300	3.357900	-10.137000	26.309560	0.000155	20.835223
1923.561567	-3.015900	3.358600	-10.128000	26.320186	0.000155	20.810815
1924.561793	-3.023700	3.356400	-10.147000	26.334242	0.000156	20.812139
1925.564211	-3.000600	3.357300	-10.073000	26.353782	0.000156	20.822294
1926.562252	-3.014100	3.356700	-10.117000	26.341614	0.000157	20.828082
1927.563895	-3.016800	3.356900	-10.126000	26.302159	0.000153	20.831104
1928.566091	-2.974100	3.357700	-9.984400	26.293864	0.000155	20.844104
1929.563146	-3.000400	3.356100	-10.069000	26.292748	0.000154	20.819750
1930.565548	-3.014700	3.355700	-10.115000	26.286959	0.000155	20.792596
1931.566817	-3.000300	3.356100	-10.069000	26.273473	0.000155	20.829777
1932.567588	-3.001100	3.356500	-10.072000	26.324999	0.000152	20.822290
1933.565461	-3.006200	3.354500	-10.084000	26.350529	0.000154	20.814757
1934.568027	-2.996900	3.355200	-10.055000	26.360707	0.000154	20.826409
1935.564610	-3.000300	3.353900	-10.062000	26.346304	0.000152	20.822838
1936.566738	-2.983700	3.354100	-10.006000	26.325820	0.000152	20.809838
1937.565695	-2.997400	3.355700	-10.056000	26.312757	0.000152	20.812358
1938.566595	-3.005200	3.353600	-10.077000	26.339403	0.000149	20.813532
1939.565945	-3.005700	3.353100	-10.078000	26.377544	0.000151	20.812036
1940.565992	-3.008300	3.353400	-10.087000	26.347370	0.000150	20.818221
1941.568640	-3.000100	3.351700	-10.055000	26.295378	0.000148	20.826660
1942.569672	-3.003700	3.352200	-10.068000	26.316831	0.000149	20.821667
1943.568353	-2.997500	3.353700	-10.051000	26.394503	0.000150	20.813908
1944.567473	-2.986000	3.352500	-10.010000	26.361105	0.000149	20.817326
1945.566614	-3.012300	3.351900	-10.095000	26.342336	0.000148	20.799885
1946.568025	-3.004300	3.351100	-10.067000	26.351800	0.000147	20.801336
1947.568371	-2.996900	3.352000	-10.044000	26.353860	0.000148	20.823794
1948.572414	-3.045300	3.349100	-10.198000	26.382938	0.000146	20.809396
1949.569508	-2.975100	3.350700	-9.967900	26.372661	0.000147	20.801913
1950.571691	-2.998900	3.349800	-10.045000	26.402604	0.000146	20.829636
1951.570311	-3.003900	3.348600	-10.059000	26.373084	0.000148	20.812295
1952.570238	-3.000000	3.348400	-10.044000	26.352628	0.000146	20.822082
1953.571583	-3.021900	3.347900	-10.116000	26.358684	0.000146	20.802090
1954.572793	-3.011600	3.348600	-10.084000	26.384463	0.000146	20.787696
1955.572140	-2.993700	3.347800	-10.021000	26.329834	0.000145	20.802494
1956.572446	-3.003200	3.347300	-10.051000	26.348460	0.000145	20.815522
1957.576596	-3.019600	3.347200	-10.106000	26.365797	0.000143	20.800704
1958.573166	-3.001300	3.346900	-10.044000	26.366638	0.000144	20.797282
1959.573967	-3.012100	3.347100	-10.081000	26.404433	0.000144	20.805870
1960.576297	-3.001400	3.347000	-10.045000	26.476163	0.000142	20.797360
1961.575515	-2.997600	3.345800	-10.028000	26.460078	0.000142	20.789728
1962.573499	-3.018000	3.346100	-10.097000	26.435798	0.000143	20.817006
1963.573730	-2.994500	3.346200	-10.019000	26.440959	0.000143	20.824563
1964.578157	-3.014400	3.346000	-10.086000	26.421497	0.000143	20.811167
1965.576278	-2.990900	3.344100	-10.001000	26.429222	0.000143	20.784318
1966.576915	-2.998000	3.343200	-10.022000	26.382517	0.000144	20.808974
1967.577378	-2.999800	3.343900	-10.030000	26.298116	0.000141	20.789109
1968.573814	-2.995200	3.343600	-10.013000	26.271694	0.000143	20.789109
1969.575001	-3.000800	3.343900	-10.033000	26.269039	0.000141	20.809200
1970.576932	-3.011000	3.343700	-10.066000	26.354284	0.000140	20.781073
1971.577216	-2.981400	3.343200	-9.966700	26.384880	0.000142	20.801391
1972.579875	-3.010900	3.341800	-10.061000	26.377081	0.000141	20.789286
1973.578506	-3.008400	3.341900	-10.052000	26.378817	0.000139	20.794349
1974.583038	-2.994200	3.341100	-10.003000	26.384158	0.000139	20.789760
1975.578430	-3.007300	3.341500	-10.048000	26.365706	0.000138	20.809147
1976.578774	-2.996500	3.341000	-10.011000	26.312467	0.000138	20.811592
1977.578164	-2.980800	3.340600	-9.957000	26.285598	0.000139	20.807824
1978.580663	-2.991200	3.341600	-9.994700	26.275145	0.000136	20.816284
1979.580307	-3.007600	3.339800	-10.043000	26.281352	0.000135	20.787909
1980.580729	-3.011200	3.339400	-10.055000	26.306083	0.000135	20.804703
1981.580546	-3.000800	3.338900	-10.018000	26.309756	0.000135	20.806496
1982.580854	-2.987800	3.339600	-9.976700	26.315364	0.000136	20.801702
1983.583060	-3.012200	3.338400	-10.055000	26.342630	0.000136	20.781688
1984.581730	-3.005400	3.339100	-10.035000	26.344841	0.000137	20.773479
1985.581907	-2.998400	3.339500	-10.012000	26.412178	0.000134	20.779041
1986.586454	-3.010100	3.338100	-10.047000	26.376746	0.000135	20.784207
1987.581346	-3.018600	3.338900	-10.077000	26.420395	0.000133	20.787300
1988.581249	-2.986000	3.339100	-9.969400	26.421338	0.000134	20.777817
1989.583754	-3.005300	3.337700	-10.030000	26.412769	0.000134	20.788644
1990.583362	-3.016800	3.335900	-10.063000	26.402689	0.000132	20.814075
1991.584009	-3.018900	3.336200	-10.071000	26.422106	0.000133	20.789019
1992.585700	-3.015300	3.335700	-10.057000	26.431241	0.000131	20.780658
1993.584722	-3.006200	3.336400	-10.028000	26.464907	0.000133	20.791737
1994.588241	-3.011900	3.335600	-10.046000	26.459620	0.000135	20.794483
1995.586390	-3.006000	3.334400	-10.022000	26.444323	0.000131	20.782427
1996.585387	-3.010700	3.334900	-10.039000	26.466946	0.000132	20.788096
1997.582751	-2.990500	3.335300	-9.973100	26.520124	0.000131	20.801719
1998.582882	-2.989100	3.335100	-9.968100	26.508930	0.000130	20.778138
1999.587425	-3.005800	3.334300	-10.022000	26.517544	0.000129	20.786323
2000.583652	-2.970000	3.334100	-9.901600	26.571244	0.000130	20.789094
2001.583638	-2.975900	3.335700	-9.926000	26.650960	0.000130	20.793365
2002.586338	-2.982500	3.333700	-9.941800	26.641080	0.000127	20.778691
2003.584744	-3.000800	3.334300	-10.004000	26.595455	0.000128	20.778344
2004.585574	-2.978000	3.333300	-9.925700	26.534036	0.000131	20.788677
2005.586208	-2.991800	3.331800	-9.967000	26.494983	0.000128	20.792569
2006.586330	-3.016200	3.332300	-10.050000	26.516883	0.000130	20.778072
2007.587673	-2.987900	3.331100	-9.951800	26.485084	0.000127	20.785938
2008.584133	-2.985700	3.331800	-9.945800	26.459660	0.000127	20.772237
2009.587080	-3.018000	3.331100	-10.052000	26.407525	0.000128	20.776261
2010.584545	-2.998600	3.330600	-9.986800	26.394886	0.000125	20.778257
2011.586131	-2.982200	3.331600	-9.933900	26.394738	0.000126	20.784746
2012.584920	-2.995900	3.329500	-9.974200	26.415992	0.000126	20.780504
2013.586234	-2.977600	3.329700	-9.913000	26.439784	0.000128	20.778813
2014.586566	-2.996300	3.329700	-9.976200	26.470254	0.000126	20.774351
2015.584960	-3.005900	3.329200	-10.006000	26.462411	0.000128	20.780692
2016.584808	-3.012400	3.328600	-10.026000	26.469240	0.000126	20.756262
2017.585698	-2.996700	3.329400	-9.976100	26.510330	0.000127	20.790452
2018.585908	-3.018000	3.327300	-10.041000	26.560141	0.000124	20.782675
2019.588583	-3.007300	3.327700	-10.006000	26.586207	0.000124	20.760513
2020.586236	-3.012100	3.327100	-10.020000	26.564612	0.000125	20.760616
2021.591898	-3.018700	3.326800	-10.042000	26.606219	0.000123	20.767827
2022.595214	-3.014700	3.326800	-10.029000	26.575514	0.000123	20.758772
2023.586323	-3.000400	3.326300	-9.979100	26.610591	0.000126	20.756575
2024.586680	-2.995900	3.326900	-9.965800	26.622809	0.000125	20.773125
2025.588902	-3.001500	3.326100	-9.982600	26.650711	0.000126	20.762293
2026.588608	-2.978800	3.325200	-9.904600	26.676852	0.000124	20.762021
2027.588763	-2.989400	3.326300	-9.943000	26.692416	0.000123	20.756805
2028.589121	-2.996600	3.325000	-9.962600	26.682860	0.000122	20.763320
2029.588495	-2.983200	3.325400	-9.919800	26.673698	0.000122	20.765015
2030.588464	-2.991700	3.324500	-9.945100	26.695919	0.000120	20.780241
2031.589401	-3.007500	3.323900	-9.995600	26.700434	0.000121	20.755857
2032.589268	-3.017800	3.323200	-10.028000	26.715227	0.000120	20.754608
2033.589554	-2.999500	3.323600	-9.968500	26.768302	0.000119	20.756760
2034.589999	-3.037000	3.322100	-10.088000	26.721809	0.000120	20.756484
2035.590656	-3.019100	3.322700	-10.031000	26.693363	0.000120	20.771034
2036.594775	-3.022200	3.321400	-10.037000	26.667198	0.000121	20.750892
2037.589990	-3.011400	3.321500	-10.001000	26.664392	0.000118	20.748546
2038.590329	-2.988500	3.321100	-9.924000	26.637434	0.000118	20.750369
2039.590122	-2.990000	3.320700	-9.928100	26.634850	0.000118	20.779540
2040.596160	-3.008800	3.320400	-9.989100	26.627804	0.000118	20.752067
2041.593293	-3.017400	3.320300	-10.017000	26.606550	0.000119	20.737814
2042.591376	-3.038900	3.318200	-10.083000	26.617649	0.000118	20.758929
2043.596255	-3.017900	3.318900	-10.015000	26.540243	0.000119	20.744180
2044.592144	-3.015900	3.318900	-10.009000	26.553426	0.000118	20.759329
2045.592119	-2.986200	3.319200	-9.911200	26.564004	0.000118	20.735348
2046.591871	-2.978200	3.319500	-9.885300	26.573336	0.000118	20.759428
2047.594043	-2.990900	3.318900	-9.925500	26.654959	0.000117	20.743805
2048.592395	-3.012700	3.317500	-9.992900	26.679735	0.000116	20.754962
2049.592181	-2.965500	3.318300	-9.839200	26.734616	0.000115	20.749919
2050.593941	-2.987600	3.319300	-9.915800	26.684501	0.000115	20.753115
2051.592782	-3.009800	3.318100	-9.985700	26.703912	0.000114	20.747025
2052.593098	-3.007500	3.317500	-9.976100	26.687905	0.000115	20.760330
2053.592832	-3.014600	3.316900	-9.998200	26.692716	0.000114	20.752365
2054.593217	-3.008600	3.316000	-9.975800	26.715752	0.000116	20.746600
2055.594507	-2.998600	3.315700	-9.941100	26.727993	0.000114	20.746579
2056.594828	-2.976900	3.316300	-9.871700	26.655410	0.000113	20.758009
2057.598626	-3.012900	3.315400	-9.987300	26.677574	0.000111	20.744254
2058.595591	-2.985900	3.314700	-9.896000	26.644784	0.000110	20.728359
2059.596703	-2.988900	3.313700	-9.902900	26.639542	0.000112	20.743953
2060.596246	-3.006800	3.313600	-9.962200	26.655931	0.000113	20.747627
2061.596626	-3.019300	3.312100	-9.999100	26.644960	0.000111	20.752245
2062.597546	-3.009000	3.313100	-9.967900	26.654172	0.000111	20.746806
2063.595952	-3.001200	3.313000	-9.941300	26.662034	0.000109	20.763246
2064.595848	-3.007900	3.313200	-9.965000	26.622366	0.000109	20.748497
2065.597485	-3.016700	3.312100	-9.991300	26.611517	0.000109	20.759403
2066.599177	-3.006500	3.312500	-9.958300	26.711482	0.000107	20.757956
2067.599827	-3.002400	3.312400	-9.944300	26.745168	0.000109	20.746777
2068.599789	-2.994000	3.310600	-9.910500	26.687601	0.000110	20.720195
2069.602270	-3.009700	3.309700	-9.959900	26.692666	0.000109	20.736667
2070.604386	-3.018700	3.311400	-9.995200	26.724635	0.000109	20.736564
2071.599870	-3.006300	3.310300	-9.949900	26.752087	0.000109	20.753734
2072.602816	-3.023000	3.310100	-10.006000	26.773510	0.000109	20.753461
2073.607897	-3.019300	3.309300	-9.990800	26.813841	0.000108	20.724784
2074.600362	-2.996800	3.309800	-9.918400	26.811680	0.000107	20.732095
2075.602746	-3.018000	3.308000	-9.982700	26.808031	0.000107	20.738383
2076.600474	-3.003200	3.309100	-9.936600	26.778768	0.000106	20.730771
2077.603467	-3.028700	3.308400	-10.019000	26.711852	0.000106	20.740782
2078.600730	-3.005600	3.309400	-9.945500	26.702862	0.000105	20.740754
2079.601331	-3.042800	3.306500	-10.060000	26.697301	0.000105	20.748440
2080.601438	-2.998600	3.306600	-9.914400	26.660041	0.000106	20.728524
2081.601998	-3.003400	3.306300	-9.929400	26.621562	0.000104	20.756699
2082.601691	-3.009200	3.306600	-9.949800	26.631418	0.000104	20.741001
2083.603114	-2.981000	3.306900	-9.856900	26.598774	0.000104	20.718142
2084.604792	-3.001800	3.305300	-9.920800	26.631791	0.000103	20.724306
2085.605618	-3.002700	3.305700	-9.925100	26.718574	0.000103	20.746118
2086.608277	-2.994800	3.305400	-9.898400	26.768015	0.000105	20.735608
2087.607078	-2.978500	3.305200	-9.844000	26.822453	0.000101	20.743401
2088.606123	-3.020200	3.304100	-9.977800	26.847393	0.000105	20.736235
2089.608248	-2.991800	3.305700	-9.888000	26.836100	0.000101	20.756649
2090.609748	-3.018400	3.304600	-9.973700	26.766281	0.000102	20.748089
2091.606839	-3.005800	3.303500	-9.929100	26.773949	0.000101	20.760067
2092.611071	-3.012900	3.303300	-9.952000	26.782220	0.000103	20.746572
2093.606217	-3.008000	3.302000	-9.931500	26.805251	0.000102	20.735113
2094.607912	-3.021000	3.301500	-9.973100	26.859982	9.988182E-5	20.739409
2095.612556	-3.001400	3.302800	-9.912800	26.876261	0.000101	20.749140
2096.606015	-2.995900	3.301000	-9.888400	26.897358	0.000102	20.732895
2097.607188	-3.018100	3.301800	-9.964300	26.872763	0.000101	20.736614
2098.607571	-3.001400	3.300300	-9.905100	26.879615	9.809969E-5	20.735917
2099.607359	-3.009100	3.301200	-9.932600	26.824966	0.000101	20.768214
2100.607285	-2.992900	3.299700	-9.875300	26.864107	9.839671E-5	20.728383
2101.615609	-3.009400	3.299600	-9.928600	26.851969	9.984882E-5	20.745103
2102.609130	-3.008700	3.299700	-9.927100	26.855348	9.823170E-5	20.736646
2103.611531	-2.998200	3.299400	-9.891200	26.834152	9.724163E-5	20.738568
2104.612395	-2.984200	3.301200	-9.850200	26.870712	9.809969E-5	20.740716
2105.609188	-3.022600	3.298500	-9.968700	26.911118	9.925478E-5	20.743887
2106.609334	-3.001300	3.298000	-9.897900	26.927298	9.582253E-5	20.750199
2107.610070	-3.014000	3.298300	-9.940500	26.897398	9.635057E-5	20.737677
2108.611831	-3.003500	3.297800	-9.904300	26.813857	9.539350E-5	20.748034
2109.610726	-3.005200	3.298300	-9.910900	26.873000	9.611955E-5	20.734007
2110.611541	-2.987600	3.297700	-9.851100	26.915193	9.691161E-5	20.752252
2111.615268	-2.997500	3.297700	-9.883600	26.925768	9.598754E-5	20.741074
2112.613228	-3.013400	3.294300	-9.925800	26.907796	9.466744E-5	20.737702
2113.613301	-3.004600	3.295900	-9.901700	26.942919	9.390839E-5	20.749312
2114.616980	-3.003600	3.295400	-9.896500	26.847814	9.588853E-5	20.744719
2115.614129	-2.983100	3.296700	-9.833800	26.821537	9.361137E-5	20.760498
2116.615306	-3.006100	3.294500	-9.902400	26.844148	9.545950E-5	20.743403
2117.616372	-3.016500	3.296000	-9.941300	26.887113	9.390839E-5	20.756734
2118.614667	-3.000200	3.294500	-9.883100	26.953677	9.344635E-5	20.750648
2119.614527	-3.003100	3.293100	-9.888200	26.957597	9.324834E-5	20.767392
2120.617268	-3.001500	3.294800	-9.888400	26.999885	9.179623E-5	20.762502
2121.614688	-3.002100	3.293200	-9.885800	26.930601	9.314933E-5	20.752573
2122.620956	-3.004000	3.291900	-9.888000	26.876849	9.054214E-5	20.729816
2123.617837	-3.011000	3.291900	-9.911300	26.902735	9.110318E-5	20.754898
2124.617575	-2.983200	3.293900	-9.825500	26.859327	9.189524E-5	20.753451
2125.616530	-2.985500	3.291800	-9.826700	26.888592	8.991510E-5	20.761540
2126.618582	-3.005000	3.290800	-9.888100	26.935845	8.975008E-5	20.747888
2127.618310	-3.004700	3.290800	-9.885800	26.950712	9.252229E-5	20.740079
2128.618692	-2.997900	3.291100	-9.864700	26.983370	9.209325E-5	20.752057
2129.619921	-2.993200	3.291800	-9.851900	26.995883	9.113618E-5	20.765589
2130.621599	-3.004000	3.291000	-9.885400	26.991635	8.872701E-5	20.746144
2131.619604	-3.010800	3.289600	-9.903400	26.995530	8.998110E-5	20.750061
2132.621382	-2.997200	3.289900	-9.860100	26.989081	8.833098E-5	20.763491
2133.622830	-3.019900	3.289000	-9.931400	27.007248	8.793495E-5	20.752362
2134.622045	-3.013600	3.288200	-9.908100	26.965309	8.813297E-5	20.738161
2135.623947	-2.986500	3.289900	-9.824800	26.928210	8.945306E-5	20.764867
2136.622693	-3.007500	3.288100	-9.887800	26.932482	8.783594E-5	20.763948
2137.623257	-3.006200	3.287100	-9.880900	26.992139	8.833098E-5	20.772256
2138.622304	-2.984700	3.287300	-9.810100	26.982139	8.506374E-5	20.766467
2139.622620	-2.966400	3.288300	-9.753500	26.993382	8.618582E-5	20.762600
2140.622933	-3.018000	3.286100	-9.916500	26.981495	8.803396E-5	20.750172
2141.622852	-2.994500	3.286100	-9.838800	26.954718	8.605381E-5	20.756435
2142.623213	-2.978400	3.285800	-9.785500	26.939657	8.592180E-5	20.752197
2143.623868	-2.999600	3.285800	-9.855300	26.951343	8.450270E-5	20.763948
2144.629123	-3.021400	3.283900	-9.920600	26.999839	8.427168E-5	20.756765
2145.623970	-2.985700	3.285000	-9.807200	27.002996	8.516275E-5	20.761362
2146.626479	-3.011700	3.284300	-9.890300	27.082627	8.437069E-5	20.765106
2147.626290	-2.986900	3.283700	-9.807200	27.095205	8.357863E-5	20.773963
2148.625726	-2.962900	3.285400	-9.733000	27.036996	8.301759E-5	20.766157
2149.630291	-3.022000	3.282200	-9.918500	27.078141	8.427168E-5	20.763440
2150.626691	-3.009000	3.282800	-9.877600	27.099136	8.318260E-5	20.764640
2151.626390	-3.016000	3.282300	-9.897500	27.102834	8.443669E-5	20.751289
2152.629776	-3.017800	3.281600	-9.902500	27.058196	8.100444E-5	20.774201
2153.628479	-2.998300	3.280600	-9.834200	27.040058	8.440369E-5	20.764021
2154.627739	-3.013300	3.281100	-9.886200	27.022318	8.272057E-5	20.744757
2155.629807	-3.009600	3.282300	-9.877400	26.987132	8.159849E-5	20.776704
2156.628553	-3.020200	3.279900	-9.904400	26.979592	8.011338E-5	20.760586
2157.628181	-3.011800	3.279700	-9.877200	26.967308	8.189551E-5	20.759613
2158.628071	-3.007600	3.278500	-9.859900	26.943412	8.285258E-5	20.766878
2159.628579	-2.993200	3.278400	-9.812200	26.981162	7.965135E-5	20.746043
2160.629425	-3.002800	3.280300	-9.848400	27.009723	8.034440E-5	20.768127
2161.628219	-2.992600	3.277800	-9.807700	26.977841	8.110345E-5	20.773998
2162.630192	-3.019000	3.276900	-9.891700	26.998361	8.103745E-5	20.770927
2163.628407	-2.994100	3.276500	-9.808500	27.090251	8.120246E-5	20.750488
2164.640019	-3.005100	3.277500	-9.848600	27.121473	8.004737E-5	20.764820
2165.630756	-2.995200	3.276600	-9.813100	27.110782	7.928832E-5	20.754541
2166.634112	-2.987900	3.275800	-9.787300	27.122096	8.067442E-5	20.764024
2167.631002	-3.001900	3.275000	-9.830400	27.046072	8.041040E-5	20.749205
2168.631609	-3.013000	3.276000	-9.869300	26.983363	7.641711E-5	20.767698
2169.633141	-3.008600	3.274600	-9.850300	26.963912	7.790222E-5	20.783226
2170.630051	-3.012200	3.275000	-9.864100	27.010813	7.849626E-5	20.761163
2171.630002	-3.006600	3.274000	-9.842700	27.037769	7.879328E-5	20.789220
2172.630250	-3.000600	3.274400	-9.823600	27.090742	7.648311E-5	20.785596
2173.634161	-2.996400	3.274400	-9.811000	27.075635	7.664813E-5	20.769454
2174.631378	-2.997000	3.273300	-9.809600	27.093005	7.724217E-5	20.757526
2175.630226	-2.988400	3.274300	-9.784500	27.121124	7.744018E-5	20.764943
2176.636493	-3.016900	3.272800	-9.872100	27.153408	7.661512E-5	20.777972
2177.632616	-3.006900	3.272500	-9.838900	27.165439	7.730817E-5	20.768737
2178.638987	-2.988100	3.272600	-9.777900	27.106411	7.747319E-5	20.773853
2179.636185	-2.976100	3.270700	-9.732800	27.096121	7.559205E-5	20.774884
2180.634619	-2.988200	3.270600	-9.772700	27.048773	7.635110E-5	20.781320
2181.634697	-2.998400	3.271000	-9.807100	27.042992	7.301786E-5	20.786412
2182.633400	-2.998500	3.270300	-9.805700	26.991079	7.532803E-5	20.781147
2183.633874	-2.977600	3.270100	-9.736200	26.999566	7.476699E-5	20.794898
2184.632305	-2.998200	3.268400	-9.797900	27.039147	7.404093E-5	20.775907
2185.633552	-3.019800	3.267600	-9.866800	27.110092	7.331488E-5	20.760012
2186.633364	-2.989900	3.269400	-9.773600	27.175224	7.443696E-5	20.757241
2187.635019	-2.996900	3.267400	-9.791000	27.215098	7.275384E-5	20.799243
2188.635948	-2.988100	3.267500	-9.763000	27.180512	7.357890E-5	20.771095
2189.637445	-2.983000	3.268500	-9.748900	27.179246	7.215980E-5	20.775985
2190.637017	-3.011300	3.267700	-9.838800	27.177286	7.130173E-5	20.765479
2191.638020	-3.008100	3.267700	-9.828500	27.207358	7.004764E-5	20.772492
2192.638403	-3.023100	3.264200	-9.867300	27.216487	7.107072E-5	20.771717
2193.637026	-2.997800	3.266500	-9.790700	27.243361	7.328188E-5	20.771247
2194.637798	-3.000400	3.264800	-9.795200	27.209096	7.239081E-5	20.776137
2195.644836	-3.007500	3.265900	-9.821500	27.180316	7.206079E-5	20.788441
2196.638352	-3.001000	3.263700	-9.793200	27.202698	7.202779E-5	20.770649
2197.639652	-2.995300	3.264100	-9.776400	27.184509	6.945360E-5	20.806883
2198.639385	-2.985500	3.265100	-9.745700	27.158060	7.225880E-5	20.787393
2199.639669	-2.989900	3.263700	-9.758000	27.176499	7.017965E-5	20.777015
2200.641883	-3.011800	3.262200	-9.823900	27.174490	7.298486E-5	20.782582
2201.642426	-2.989400	3.262700	-9.752700	27.201857	7.143374E-5	20.804892
2202.640962	-3.001700	3.262300	-9.792100	27.247136	7.067469E-5	20.779312
2203.642680	-2.991500	3.262600	-9.759200	27.283334	7.070769E-5	20.792489
2204.641894	-2.995800	3.261700	-9.770800	27.328561	7.050968E-5	20.799103
2205.643137	-2.974500	3.261300	-9.699800	27.374826	6.994864E-5	20.822885
2206.644646	-2.994400	3.260700	-9.762200	27.335902	6.918958E-5	20.785150
2207.646745	-2.984300	3.261100	-9.730500	27.246989	6.846353E-5	20.817570
2208.645906	-3.001100	3.259800	-9.781300	27.270931	6.730844E-5	20.783806
2209.645983	-2.976500	3.260700	-9.704700	27.273239	7.008064E-5	20.800352
2210.647439	-2.977900	3.259900	-9.706100	27.225653	6.994864E-5	20.783307
2211.647203	-3.017000	3.258900	-9.831100	27.204440	6.836452E-5	20.786626
2212.648202	-3.025300	3.257400	-9.853300	27.196819	6.859554E-5	20.797928
2213.651833	-3.008900	3.259400	-9.806100	27.147893	6.885956E-5	20.790919
2214.647227	-2.983900	3.257800	-9.719900	27.204218	6.912357E-5	20.798732
2215.647837	-2.995100	3.259000	-9.760300	27.297184	6.737445E-5	20.787455
2216.652730	-3.021400	3.255600	-9.836000	27.338115	6.925558E-5	20.788325
2217.648411	-2.995300	3.257000	-9.754200	27.393807	6.602135E-5	20.808788
2218.649470	-2.990400	3.256400	-9.736900	27.388897	6.780348E-5	20.794840
2219.650500	-3.001600	3.255700	-9.771600	27.413754	6.819951E-5	20.771008
2220.649035	-2.995400	3.254600	-9.746600	27.365801	6.826551E-5	20.807642
2221.653520	-2.997300	3.254500	-9.753600	27.334074	6.509728E-5	20.798959
2222.653555	-3.009600	3.253900	-9.791800	27.330479	6.615336E-5	20.803403
2223.650412	-2.999200	3.253600	-9.757200	27.313633	6.836452E-5	20.785509
2224.650982	-2.995500	3.253400	-9.744200	27.296069	6.671440E-5	20.808619
2225.655985	-2.985500	3.253500	-9.712200	27.279547	6.849653E-5	20.804327
2226.652046	-3.036400	3.251100	-9.870200	27.318896	6.635137E-5	20.813562
2227.652750	-3.000400	3.251900	-9.756000	27.398827	6.466825E-5	20.811468
2228.657428	-2.973700	3.251900	-9.668900	27.440131	6.608735E-5	20.819355
2229.653441	-3.002500	3.251600	-9.761900	27.427852	6.536130E-5	20.816011
2230.653232	-2.985000	3.250900	-9.702700	27.426315	6.783648E-5	20.805456
2231.656869	-3.003000	3.250900	-9.761100	27.392507	6.278711E-5	20.804636
2232.653683	-2.982600	3.249600	-9.691100	27.327364	6.536130E-5	20.797899
2233.655489	-3.011000	3.250500	-9.786300	27.298660	6.258910E-5	20.806957
2234.658774	-3.004200	3.250100	-9.763000	27.235347	6.585634E-5	20.814869
2235.656588	-2.982500	3.249300	-9.690300	27.257949	6.291912E-5	20.816741
2236.657442	-3.022500	3.247800	-9.815300	27.291171	6.311713E-5	20.796579
2237.660813	-2.994300	3.248600	-9.726800	27.340914	6.463525E-5	20.816271
2238.664652	-3.001100	3.246300	-9.741400	27.426647	6.315014E-5	20.816696
2239.657236	-2.982800	3.248000	-9.687200	27.379638	6.216006E-5	20.800698
2240.660143	-3.001200	3.246000	-9.741600	27.372695	6.067496E-5	20.822163
2241.656070	-2.981300	3.246400	-9.678000	27.331716	6.202806E-5	20.798958
2242.657215	-2.996500	3.245600	-9.725100	27.347099	6.136801E-5	20.799733
2243.658974	-2.985100	3.244600	-9.684800	27.296536	6.024592E-5	20.821416
2244.656726	-2.997800	3.244500	-9.725800	27.333926	5.918985E-5	20.828681
2245.659348	-2.992300	3.243800	-9.706100	27.397286	6.153302E-5	20.818452
2246.659815	-3.017600	3.243300	-9.786100	27.398007	6.136801E-5	20.830557
2247.656826	-2.968600	3.245200	-9.632800	27.313862	6.044394E-5	20.819878
2248.661706	-3.012800	3.244800	-9.775600	27.323716	6.216006E-5	20.812247
2249.658947	-3.006300	3.242900	-9.748500	27.321084	5.852980E-5	20.819557
2250.659993	-3.008800	3.243500	-9.758200	27.347382	5.968488E-5	20.811872
2251.659624	-3.013700	3.242000	-9.769000	27.330220	6.130200E-5	20.820212
2252.656871	-3.040100	3.241400	-9.853000	27.354185	6.024592E-5	20.839578
2253.659272	-3.005900	3.240400	-9.739800	27.404397	6.021292E-5	20.841726
2254.657094	-3.001500	3.241700	-9.729200	27.409159	5.955287E-5	20.830396
2255.658070	-2.973500	3.242100	-9.639600	27.444536	5.998191E-5	20.814778
2256.658277	-3.009600	3.240500	-9.752000	27.518282	5.862881E-5	20.823540
2257.658827	-2.981700	3.239100	-9.656900	27.473908	5.915684E-5	20.827258
2258.658685	-2.994500	3.238900	-9.698700	27.441712	5.813377E-5	20.827584
2259.659030	-3.009000	3.238000	-9.742700	27.452429	5.958588E-5	20.837892
2260.657992	-2.985400	3.237600	-9.664700	27.497550	5.661566E-5	20.833975
2261.658740	-2.978700	3.238100	-9.644200	27.548820	5.717670E-5	20.839091
2262.657864	-2.981800	3.238400	-9.655600	27.495321	5.595561E-5	20.841689
2263.658600	-2.985600	3.236400	-9.661400	27.480736	5.654965E-5	20.850248
2264.658208	-2.996300	3.236500	-9.696700	27.441093	5.796876E-5	20.831703
2265.657927	-2.999100	3.236500	-9.705900	27.364247	5.562559E-5	20.820303
2266.658582	-3.021200	3.235600	-9.775100	27.313587	5.757273E-5	20.859904
2267.660743	-3.013700	3.233900	-9.745000	27.373547	5.612062E-5	20.840563
2268.661373	-2.994800	3.234200	-9.685300	27.435962	5.443750E-5	20.859731
2269.661861	-2.991400	3.234200	-9.674100	27.447864	5.562559E-5	20.832350
2270.663412	-2.982800	3.235600	-9.650400	27.467962	5.539457E-5	20.839767
2271.663365	-2.995900	3.232300	-9.682300	27.451368	5.437149E-5	20.833979
2272.664380	-3.018800	3.233100	-9.759700	27.411979	5.364544E-5	20.846983
2273.663653	-2.999000	3.232900	-9.694800	27.388113	5.549358E-5	20.836725
2274.664654	-3.002000	3.231300	-9.699600	27.466351	5.592261E-5	20.845733
2275.665683	-3.014600	3.231100	-9.739800	27.522266	5.308440E-5	20.840823
2276.665054	-2.991700	3.233100	-9.671300	27.493637	5.473452E-5	20.852322
2277.666522	-3.018800	3.230300	-9.750700	27.498722	5.407447E-5	20.839895
2278.667960	-3.032900	3.229600	-9.793800	27.459679	5.321641E-5	20.851349
2279.668562	-3.001100	3.230000	-9.693200	27.404614	5.196232E-5	20.844315
2280.670816	-2.967600	3.229800	-9.583500	27.422376	5.110425E-5	20.863132
2281.667358	-2.986700	3.228600	-9.641200	27.463031	5.404147E-5	20.843342
2282.669031	-2.971000	3.230000	-9.595700	27.493219	5.258936E-5	20.839100
2283.670678	-3.008100	3.229000	-9.711800	27.524298	5.014718E-5	20.870367
2284.668725	-2.993400	3.227900	-9.660700	27.536850	5.282038E-5	20.849333
2285.672211	-2.979200	3.229400	-9.619400	27.579538	5.070823E-5	20.849609
2286.670336	-2.993700	3.226500	-9.658900	27.623985	5.291939E-5	20.863985
2287.671466	-3.004100	3.226100	-9.690200	27.559126	4.889309E-5	20.864158
2288.670369	-2.985300	3.228400	-9.636900	27.592732	5.018019E-5	20.847238
2289.674021	-3.021200	3.226100	-9.745500	27.602804	5.018019E-5	20.855476
2290.672030	-3.003200	3.224900	-9.683800	27.573264	5.044421E-5	20.861314
2291.672274	-2.997900	3.226000	-9.670700	27.538493	4.952014E-5	20.874218
2292.673108	-3.006000	3.225200	-9.693600	27.513594	4.783702E-5	20.857228
2293.672553	-3.005700	3.224500	-9.691200	27.563720	5.004818E-5	20.855979
2294.673388	-2.982600	3.223700	-9.614100	27.562507	4.889309E-5	20.871353
2295.673194	-3.002800	3.221700	-9.673200	27.537481	4.879409E-5	20.856605
2296.672571	-3.011300	3.222700	-9.703300	27.511836	4.727597E-5	20.847873
2297.673650	-2.997500	3.221600	-9.654900	27.542247	4.849706E-5	20.860926
2298.676229	-3.001800	3.222800	-9.673600	27.577964	4.849706E-5	20.869362
2299.674667	-2.998500	3.221500	-9.659400	27.619855	4.691295E-5	20.864571
2300.674936	-2.976600	3.221400	-9.587500	27.664723	5.014718E-5	20.869889
2301.676381	-2.994600	3.220500	-9.643200	27.648161	4.919011E-5	20.868397
2302.676864	-2.976000	3.219900	-9.582000	27.635114	4.691295E-5	20.871390
2303.676625	-2.999700	3.220700	-9.660300	27.685611	4.687994E-5	20.871943
2304.679192	-2.995200	3.218800	-9.639900	27.758792	4.608789E-5	20.879677
2305.677245	-2.974700	3.220200	-9.578700	27.690946	4.833205E-5	20.849811
2306.677499	-3.013300	3.217700	-9.694400	27.681203	4.608789E-5	20.851860
2307.679811	-2.973400	3.220100	-9.573800	27.643264	4.645091E-5	20.879116
2308.681061	-2.997700	3.216400	-9.641000	27.620773	4.400873E-5	20.873081
2309.676937	-3.024700	3.215800	-9.725800	27.600383	4.635191E-5	20.855410
2310.680649	-3.020200	3.215700	-9.710800	27.572260	4.661593E-5	20.858882
2311.675958	-2.986100	3.217000	-9.605900	27.585660	4.674794E-5	20.881846
2312.676780	-2.995400	3.216100	-9.632400	27.658606	4.654992E-5	20.879380
2313.678665	-2.991100	3.215000	-9.615300	27.698932	4.641791E-5	20.869226
2314.677300	-2.994400	3.215200	-9.626500	27.765766	4.539484E-5	20.874367
2315.676368	-2.986900	3.213300	-9.597300	27.774148	4.585687E-5	20.877113
2316.677112	-3.012600	3.212500	-9.676500	27.816879	4.483379E-5	20.870805
2317.675443	-3.001300	3.213800	-9.644700	27.749701	4.390973E-5	20.883804
2318.678768	-3.006000	3.212300	-9.655400	27.705541	4.526283E-5	20.875402
2319.679475	-2.974700	3.213000	-9.556700	27.684162	4.602188E-5	20.872380
2320.679127	-2.999700	3.211300	-9.631600	27.688206	4.288665E-5	20.869812
2321.678212	-3.034700	3.211500	-9.744600	27.719874	4.272164E-5	20.870385
2322.680830	-3.000000	3.210200	-9.630000	27.617151	4.397573E-5	20.874178
2323.678341	-3.016800	3.210200	-9.683100	27.585931	4.351370E-5	20.869317
2324.678206	-2.991800	3.209700	-9.601900	27.597511	4.460278E-5	20.866270
2325.680892	-3.008700	3.209200	-9.654100	27.640245	4.219360E-5	20.886509
2326.678535	-2.991300	3.209300	-9.599100	27.701624	4.344769E-5	20.892322
2327.683475	-2.996200	3.210700	-9.618900	27.758268	4.480079E-5	20.870142
2328.682284	-3.018100	3.208700	-9.683300	27.764266	4.371171E-5	20.881867
2329.681038	-3.018900	3.206300	-9.678600	27.703612	4.344769E-5	20.889581
2330.690354	-2.997900	3.206400	-9.611400	27.645728	4.199559E-5	20.870216
2331.684715	-3.013500	3.205800	-9.659700	27.654931	4.229261E-5	20.884217
2332.685505	-3.003600	3.207200	-9.632000	27.701530	4.318367E-5	20.855246
2333.682826	-2.981300	3.206900	-9.559500	27.746415	4.051048E-5	20.889506
2334.687941	-3.017700	3.204900	-9.669800	27.769826	4.427275E-5	20.875134
2335.683054	-3.006500	3.204100	-9.631400	27.836507	4.146755E-5	20.863059
2336.683720	-3.008500	3.204600	-9.639500	27.797899	4.225961E-5	20.862135
2337.688780	-3.024500	3.202600	-9.685200	27.754085	4.169856E-5	20.853131
2338.686391	-2.983400	3.203200	-9.555400	27.799615	4.074149E-5	20.875716
2339.685824	-3.002800	3.202800	-9.616100	27.845688	4.222660E-5	20.866609
2340.689079	-2.991000	3.202400	-9.577400	27.802094	4.123653E-5	20.882003
2341.687408	-3.009100	3.200800	-9.630500	27.713941	3.994944E-5	20.865838
2342.686475	-2.991200	3.201000	-9.574200	27.713249	4.034547E-5	20.850443
2343.690059	-2.999100	3.200200	-9.597100	27.735595	3.965241E-5	20.877670
2344.686421	-2.995700	3.199400	-9.583400	27.753250	3.928939E-5	20.854661
2345.686313	-2.996200	3.199000	-9.584000	27.765008	3.902537E-5	20.866493
2346.690733	-2.989000	3.200000	-9.563300	27.779098	4.027946E-5	20.854595
2347.687463	-3.006100	3.198000	-9.612500	27.827651	3.958641E-5	20.842766
2348.686832	-3.008900	3.197800	-9.620300	27.761022	4.034547E-5	20.859163
2349.693471	-2.978800	3.196900	-9.521900	27.794130	4.014745E-5	20.860239
2350.685743	-2.984900	3.198400	-9.545700	27.747735	3.945440E-5	20.841051
2351.691103	-3.012500	3.197100	-9.630700	27.742925	3.922338E-5	20.861340
2352.693704	-2.989800	3.195500	-9.552000	27.724697	4.031246E-5	20.854377
2353.690141	-2.985900	3.196100	-9.542200	27.797133	3.882735E-5	20.848563
2354.690551	-2.993200	3.194700	-9.562100	27.857619	4.199559E-5	20.844004
2355.693469	-2.978800	3.194400	-9.514500	27.782708	3.674820E-5	20.849219
2356.688494	-2.982500	3.195000	-9.528200	27.778316	3.826631E-5	20.841480
2357.688569	-2.996200	3.193800	-9.567800	27.825685	3.575813E-5	20.833676
2358.693056	-2.995700	3.194700	-9.569400	27.849143	3.955341E-5	20.833103
2359.688135	-3.029600	3.191400	-9.667400	27.832408	3.694622E-5	20.834752
2360.690168	-3.031800	3.190900	-9.673600	27.864243	3.664919E-5	20.839766
2361.688725	-3.005400	3.191100	-9.590200	27.905357	3.740825E-5	20.830411
2362.690241	-3.007400	3.192100	-9.597400	27.872507	3.631917E-5	20.848082
2363.690583	-3.020700	3.189700	-9.634600	27.826238	3.684721E-5	20.837552
2364.691072	-2.983300	3.189100	-9.513600	27.786318	3.585714E-5	20.850955
2365.690325	-3.016400	3.187200	-9.613400	27.832592	3.691321E-5	20.829722
2366.690696	-3.047400	3.188000	-9.714700	27.916573	3.608815E-5	20.850234
2367.690547	-2.995500	3.188400	-9.550200	27.914964	3.615416E-5	20.833441
2368.690947	-3.008300	3.187400	-9.588200	27.875194	3.684721E-5	20.847942
2369.691186	-3.015500	3.186400	-9.607700	27.887001	3.638517E-5	20.837540
2370.692699	-2.994100	3.185700	-9.537600	27.869893	3.476806E-5	20.832650
2371.692192	-3.017500	3.185600	-9.611500	27.864510	3.519709E-5	20.837189
2372.692460	-3.006400	3.185000	-9.574600	27.825063	3.357997E-5	20.833998
2373.693996	-3.012500	3.182800	-9.587000	27.879668	3.331595E-5	20.816884
2374.694027	-3.009800	3.182900	-9.578700	27.830647	3.381099E-5	20.839618
2375.695667	-2.976300	3.183000	-9.473100	27.826485	3.483406E-5	20.842541
2376.694819	-3.003200	3.182600	-9.557000	27.797893	3.301893E-5	20.818983
2377.695181	-3.007200	3.181500	-9.566900	27.771955	3.417401E-5	20.817536
2378.693863	-3.023900	3.181400	-9.619800	27.779723	3.361297E-5	20.838629
2379.695880	-3.009200	3.180300	-9.569500	27.820315	3.526309E-5	20.829220
2380.694839	-3.006600	3.180600	-9.561800	27.884863	3.506508E-5	20.818319
2381.695508	-3.021100	3.178900	-9.603000	27.866416	3.136881E-5	20.804021
2382.695792	-3.000100	3.180300	-9.540300	27.852582	3.126980E-5	20.826133
2383.695689	-3.003500	3.178100	-9.544200	27.853352	3.308493E-5	20.826908
2384.696255	-3.018200	3.176000	-9.584900	27.867535	3.268890E-5	20.798508
2385.696515	-3.012300	3.177200	-9.570200	27.857195	3.229287E-5	20.810387
2386.697458	-3.018900	3.176700	-9.589900	27.838698	3.331595E-5	20.813582
2387.696880	-3.009500	3.174800	-9.554000	27.817349	3.354697E-5	20.803477
2388.697681	-2.975400	3.175700	-9.448600	27.809713	3.331595E-5	20.825663
2389.696527	-3.003300	3.174700	-9.533600	27.792825	3.199585E-5	20.838065
2390.697467	-3.021400	3.172600	-9.584800	27.827268	3.093978E-5	20.811562
2391.697844	-3.012300	3.174400	-9.561800	27.822409	3.278791E-5	20.802879
2392.698831	-3.005500	3.173600	-9.537500	27.853102	3.242488E-5	20.792517
2393.697186	-2.988700	3.173000	-9.482300	27.837338	3.123680E-5	20.801308
2394.697869	-2.990600	3.172000	-9.485100	27.817865	3.196285E-5	20.824858
2395.697050	-2.990500	3.171000	-9.482100	27.854049	3.067576E-5	20.815755
2396.697783	-2.980200	3.170200	-9.446800	27.900287	3.166583E-5	20.812980
2397.698185	-3.015300	3.169500	-9.555300	27.906936	3.192985E-5	20.826784
2398.698640	-3.015900	3.168600	-9.555400	27.845961	3.070876E-5	20.832272
2399.699519	-3.003500	3.167300	-9.511900	27.820197	3.120379E-5	20.822463
2400.701784	-3.001700	3.167700	-9.508000	27.836666	3.067576E-5	20.816279
2401.700016	-2.994200	3.167500	-9.483900	27.817198	3.242488E-5	20.817074
2402.699610	-3.008100	3.165500	-9.520900	27.810749	3.117079E-5	20.795412
2403.700167	-3.012600	3.165200	-9.534800	27.792625	2.965268E-5	20.807517
2404.700357	-3.002100	3.164700	-9.499800	27.803260	2.952067E-5	20.801625
2405.700894	-3.024000	3.163500	-9.565200	27.830168	3.087377E-5	20.823490
2406.701870	-3.003700	3.162600	-9.498800	27.840382	2.945467E-5	20.798207
2407.701988	-3.008600	3.161900	-9.512400	27.858383	2.942166E-5	20.815376
2408.700274	-2.983500	3.161900	-9.432800	27.908398	3.060975E-5	20.809764
2409.700346	-3.007500	3.160300	-9.502900	27.957313	3.054375E-5	20.797358
2410.700940	-3.002200	3.161400	-9.490400	27.925554	2.922365E-5	20.794789
2411.702604	-3.016700	3.158900	-9.528400	27.921613	2.803556E-5	20.797461
2412.702247	-2.991300	3.158200	-9.445700	27.920176	2.991670E-5	20.786057
2413.703986	-2.980600	3.159100	-9.415100	27.970635	2.948767E-5	20.805077
2414.702745	-2.993200	3.158400	-9.453200	27.993565	3.001571E-5	20.798760
2415.703713	-2.990000	3.156200	-9.435800	28.001991	2.757353E-5	20.800603
2416.705393	-3.001700	3.156900	-9.475600	28.012035	2.882762E-5	20.796014
2417.704342	-2.993300	3.155300	-9.443700	27.981215	2.721050E-5	20.796760
2418.705031	-3.009000	3.153400	-9.487800	27.946601	2.453730E-5	20.791792
2419.704815	-2.973400	3.154800	-9.378500	27.958673	2.711149E-5	20.794459
2420.705463	-2.975500	3.153300	-9.381900	27.994646	2.691348E-5	20.783253
2421.705091	-3.008700	3.151500	-9.481200	28.015839	2.625343E-5	20.803637
2422.705643	-2.977100	3.151000	-9.379900	28.093937	2.608842E-5	20.784576
2423.704614	-3.012700	3.151200	-9.492400	28.130450	2.509835E-5	20.792410
2424.706600	-2.979900	3.150100	-9.386200	28.113244	2.592341E-5	20.796426
2425.705960	-3.018300	3.150200	-9.506000	28.058880	2.595641E-5	20.784374
2426.706058	-3.000000	3.147900	-9.442700	28.013111	2.711149E-5	20.797572
2427.706155	-3.007500	3.148200	-9.467600	28.032522	2.684747E-5	20.809050
2428.706145	-2.977600	3.147500	-9.371400	28.094551	2.777154E-5	20.786143
2429.706685	-2.984100	3.146900	-9.389000	28.147922	2.424028E-5	20.791507
2430.705966	-2.985300	3.145400	-9.389500	28.090901	2.509835E-5	20.799538
2431.707260	-3.035000	3.143000	-9.537800	28.101558	2.608842E-5	20.788930
2432.708668	-2.985200	3.143900	-9.384000	28.144665	2.506534E-5	20.779694
2433.707174	-3.002500	3.143600	-9.437500	28.193570	2.453730E-5	20.777244
2434.706910	-2.995200	3.142100	-9.410300	28.236706	2.661646E-5	20.803129
2435.706625	-3.006000	3.139900	-9.437700	28.198574	2.509835E-5	20.772325
2436.706644	-3.009000	3.139600	-9.446000	28.209627	2.691348E-5	20.793885
2437.706207	-3.019000	3.139100	-9.476200	28.225566	2.717750E-5	20.786224
2438.705644	-3.029900	3.138700	-9.509000	28.229236	2.631944E-5	20.799402
2439.706962	-2.984600	3.138000	-9.364600	28.228859	2.582440E-5	20.792384
2440.707649	-3.001700	3.136400	-9.414000	28.197849	2.556038E-5	20.776337
2441.708255	-2.973400	3.137300	-9.327300	28.158979	2.618743E-5	20.790784
2442.710475	-2.988600	3.136200	-9.371200	28.168394	2.641844E-5	20.795047
2443.709915	-3.009500	3.134900	-9.433500	28.145385	2.447130E-5	20.807445
2444.710643	-2.977300	3.133900	-9.329400	28.113681	2.519735E-5	20.799236
2445.708648	-2.994600	3.132600	-9.379900	28.083954	2.262316E-5	20.785432
2446.709192	-2.993300	3.132300	-9.375400	28.045743	2.338222E-5	20.787271
2447.709943	-3.001200	3.131600	-9.397800	28.055237	2.371224E-5	20.790190
2448.710194	-3.008200	3.130700	-9.417100	28.076188	2.499934E-5	20.794210
2449.712383	-2.974900	3.131200	-9.313900	28.046705	2.259016E-5	20.795826
2450.711354	-3.008400	3.129500	-9.413800	28.021515	2.216113E-5	20.774262
2451.712791	-2.997200	3.127900	-9.373700	28.014596	2.344822E-5	20.779152
2452.714899	-3.016300	3.126600	-9.429000	28.025451	2.325021E-5	20.789130
2453.712073	-2.985800	3.127300	-9.336600	28.096527	2.232614E-5	20.812314
2454.712317	-3.016400	3.124200	-9.422700	28.103387	2.021399E-5	20.778443
2455.715621	-3.018100	3.123900	-9.426800	28.209085	1.948793E-5	20.801874
2456.712179	-2.999000	3.123200	-9.365500	28.254199	2.229314E-5	20.773326
2457.711922	-3.017200	3.122100	-9.419100	28.249166	2.189711E-5	20.785328
2458.716504	-2.997900	3.121000	-9.355900	28.203184	2.364624E-5	20.793088
2459.713166	-2.996300	3.121000	-9.350600	28.218951	2.024699E-5	20.773400
2460.714436	-3.003600	3.118700	-9.366400	28.185135	2.077503E-5	20.784875
2461.717250	-2.999300	3.118500	-9.352800	28.226728	2.110505E-5	20.794980
2462.713361	-2.969900	3.118100	-9.259400	28.221719	2.130307E-5	20.779032
2463.712992	-3.005200	3.117600	-9.368300	28.276374	2.113806E-5	20.783798
2464.718288	-2.984200	3.116700	-9.299600	28.319649	2.008198E-5	20.767153
2465.715900	-3.006200	3.115800	-9.365800	28.371224	1.945493E-5	20.783996
2466.715200	-2.997300	3.114000	-9.332700	28.338113	2.153408E-5	20.763933
2467.718854	-2.995000	3.114000	-9.325200	28.245832	2.008198E-5	20.780549
2468.716943	-2.996600	3.113200	-9.327900	28.250914	1.816784E-5	20.774286
2469.720319	-2.993700	3.111000	-9.312500	28.296128	1.734278E-5	20.771920
2470.720008	-2.999100	3.110500	-9.326800	28.349710	1.945493E-5	20.774187
2471.717932	-2.993900	3.110700	-9.311400	28.316644	1.760680E-5	20.776455
2472.719207	-2.978200	3.108700	-9.257900	28.319420	1.978496E-5	20.766922
2473.719786	-3.016900	3.108000	-9.376000	28.327004	1.750779E-5	20.764601
2474.715974	-2.987500	3.107100	-9.281500	28.255447	2.051101E-5	20.766522
2475.717083	-3.006300	3.105600	-9.335600	28.235422	1.922391E-5	20.790457
2476.721683	-2.985500	3.105500	-9.271000	28.189214	1.836585E-5	20.770963
2477.715818	-2.970500	3.103700	-9.218600	28.211104	1.988396E-5	20.774983
2478.717395	-2.991600	3.103100	-9.282400	28.230114	1.763980E-5	20.778949
2479.722686	-3.006300	3.101100	-9.320900	28.199752	1.714476E-5	20.751699
2480.716625	-2.980000	3.101100	-9.240700	28.149259	1.843186E-5	20.781947
2481.715959	-3.025400	3.098000	-9.372000	28.199825	1.787081E-5	20.772637
2482.720583	-3.022100	3.098500	-9.363600	28.292705	1.994997E-5	20.767524
2483.716825	-3.007200	3.097300	-9.313500	28.286210	1.750779E-5	20.775210
2484.715805	-2.999000	3.096900	-9.286300	28.280706	1.678173E-5	20.760185
2485.719770	-2.997900	3.094600	-9.276100	28.243825	1.496660E-5	20.766201
2486.717172	-3.011900	3.094900	-9.321000	28.262888	1.671573E-5	20.769273
2487.716936	-3.007300	3.095400	-9.308300	28.257860	1.780481E-5	20.786495
2488.719958	-2.986000	3.093300	-9.235600	28.244477	1.655072E-5	20.758321
2489.715863	-3.016200	3.091900	-9.324800	28.206800	1.542864E-5	20.768279
2490.716834	-3.018100	3.089700	-9.324600	28.195943	1.608868E-5	20.751658
2491.719241	-3.012200	3.089700	-9.306200	28.202610	1.546164E-5	20.757897
2492.714788	-2.993000	3.089900	-9.246300	28.178964	1.598968E-5	20.778187
2493.716781	-3.011600	3.088400	-9.299600	28.196340	1.480159E-5	20.760119
2494.722568	-3.008200	3.087200	-9.286800	28.177207	1.397653E-5	20.749391
2495.716594	-2.988000	3.086100	-9.220500	28.209454	1.572566E-5	20.778063
2496.716913	-3.010500	3.085300	-9.287200	28.262721	1.579166E-5	20.758672
2497.721073	-2.992600	3.083000	-9.225100	28.299756	1.460357E-5	20.739062
2498.717665	-3.001900	3.082400	-9.252800	28.299978	1.509861E-5	20.753036
2499.717238	-3.033800	3.079300	-9.340700	28.338814	1.453757E-5	20.752310
2500.719089	-2.992900	3.079400	-9.215500	28.278835	1.724377E-5	20.755930
2501.719539	-3.021400	3.080000	-9.304900	28.243097	1.539563E-5	20.748397
2502.719766	-3.017400	3.078800	-9.288700	28.323724	1.420755E-5	20.740909
2503.721642	-3.004800	3.077500	-9.246600	28.383750	1.549464E-5	20.767685
2504.720922	-3.000500	3.075600	-9.227100	28.448435	1.532963E-5	20.749370
2505.719662	-2.995000	3.074300	-9.206900	28.432680	1.509861E-5	20.753419
2506.723655	-2.988600	3.073500	-9.184600	28.406876	1.437256E-5	20.764420
2507.720664	-3.019600	3.071700	-9.274400	28.312054	1.602268E-5	20.768040
2508.720798	-3.012400	3.070600	-9.249200	28.260178	1.265643E-5	20.733826
2509.724113	-2.992900	3.069300	-9.184100	28.301075	1.473558E-5	20.755563
2510.721503	-3.023000	3.068800	-9.275900	28.336889	1.331648E-5	20.740889
2511.721198	-3.014200	3.068600	-9.248500	28.350943	1.542864E-5	20.756462
2512.722868	-2.996000	3.068100	-9.190900	28.307869	1.552764E-5	20.762404
2513.723627	-3.012100	3.064900	-9.230400	28.288458	1.348149E-5	20.744756
2514.724131	-2.995400	3.063800	-9.176600	28.266079	1.407554E-5	20.749725
2515.724411	-3.023500	3.061600	-9.256100	28.306481	1.259043E-5	20.746307
2516.723119	-2.969400	3.063000	-9.095200	28.429781	1.282144E-5	20.741491
2517.722446	-2.984900	3.060000	-9.133100	28.441332	1.417454E-5	20.760235
2518.725482	-3.007900	3.059500	-9.202200	28.421604	1.298646E-5	20.753646
2519.722825	-2.986500	3.058300	-9.132600	28.416548	1.394353E-5	20.736700
2520.722615	-3.002500	3.058100	-9.180300	28.379102	1.321747E-5	20.725546
2521.728512	-2.999500	3.056600	-9.167700	28.433675	1.239241E-5	20.754421
2522.723324	-2.990700	3.054400	-9.134200	28.452612	1.288745E-5	20.740774
2523.723060	-2.985700	3.054900	-9.120100	28.466635	1.255742E-5	20.749680
2524.725930	-2.998800	3.052900	-9.154500	28.549108	1.216140E-5	20.725101
2525.724170	-2.988200	3.051900	-9.119200	28.607786	1.275544E-5	20.752904
2526.724771	-2.988200	3.050800	-9.114500	28.651716	1.249142E-5	20.765381
2527.728066	-3.004500	3.050200	-9.163400	28.618766	1.229340E-5	20.744522
2528.723196	-2.996300	3.047600	-9.131000	28.517842	1.275544E-5	20.747668
2529.726938	-3.029100	3.045700	-9.225200	28.510583	1.318447E-5	20.750315
2530.732082	-2.984900	3.045100	-9.088600	28.505433	1.176537E-5	20.737541
2531.724060	-2.977600	3.045000	-9.065200	28.444247	1.047827E-5	20.735669
2532.724214	-3.005900	3.041100	-9.140300	28.419488	1.156735E-5	20.746773
2533.728169	-2.993000	3.040800	-9.100300	28.501990	1.232641E-5	20.741660
2534.726115	-2.975000	3.041100	-9.046000	28.529199	1.103931E-5	20.730655
2535.729352	-3.013700	3.038100	-9.155200	28.496544	1.113832E-5	20.734280
2536.728188	-2.980900	3.037600	-9.053500	28.505810	1.117132E-5	20.745508
2537.726653	-3.031000	3.034900	-9.196900	28.478329	1.024725E-5	20.751025
2538.727627	-3.013000	3.034800	-9.142600	28.494043	1.235941E-5	20.724174
2539.729364	-2.996000	3.032100	-9.083600	28.439228	1.222740E-5	20.743891
2540.726757	-2.994300	3.032400	-9.079100	28.418215	9.686213E-6	20.722731
2541.726028	-2.993900	3.031600	-9.075600	28.446070	1.047827E-5	20.749833
2542.731586	-2.975400	3.030200	-9.015000	28.443249	1.094031E-5	20.743199
2543.726969	-3.006200	3.029700	-9.107100	28.501859	1.229340E-5	20.725881
2544.726743	-3.028200	3.026700	-9.164000	28.541138	9.191176E-6	20.724661
2545.730567	-2.989000	3.026500	-9.045300	28.534674	1.097331E-5	20.744704
2546.726627	-3.003700	3.025200	-9.086300	28.487591	1.146834E-5	20.742333
2547.727708	-3.016000	3.023200	-9.117100	28.477904	9.323186E-6	20.741587
2548.730614	-2.948800	3.023600	-8.915200	28.523256	9.983235E-6	20.739369
2549.729661	-2.996800	3.021300	-9.053300	28.535301	1.051127E-5	20.739645
2550.731545	-3.010600	3.019100	-9.088900	28.561474	1.183137E-5	20.751306
2551.731862	-3.016700	3.017900	-9.103700	28.628826	1.028026E-5	20.744697
2552.728982	-3.002500	3.016600	-9.056200	28.621441	1.103931E-5	20.736784
2553.733527	-3.007400	3.015400	-9.067300	28.586656	1.090730E-5	20.733519
2554.737722	-3.015700	3.014600	-9.090300	28.644243	9.851225E-6	20.736042
2555.734972	-3.036700	3.012400	-9.146500	28.636068	8.894155E-6	20.734447
2556.735221	-3.003000	3.011000	-9.041100	28.626014	1.090730E-5	20.729062
2557.736980	-3.017700	3.010500	-9.084100	28.633424	1.021425E-5	20.728464
2558.735851	-2.999500	3.008000	-9.021400	28.666656	1.202939E-5	20.729693
2559.737139	-2.988400	3.008200	-8.988800	28.718816	9.290184E-6	20.734814
2560.744362	-2.998800	3.006400	-9.014600	28.707592	9.620208E-6	20.732043
2561.734719	-2.977200	3.005900	-8.948400	28.632942	8.663138E-6	20.755006
2562.740949	-2.991600	3.003300	-8.984200	28.538488	1.107231E-5	20.737165
2563.739054	-3.006500	3.000800	-9.020200	28.479167	1.080830E-5	20.736221
2564.739331	-3.001100	3.001300	-9.006100	28.465939	1.051127E-5	20.745659
2565.743738	-2.984600	2.999400	-8.950800	28.583076	8.432121E-6	20.734180
2566.742759	-3.016700	2.997200	-9.040800	28.581070	1.275544E-5	20.722676
2567.739640	-3.012400	2.995300	-9.022300	28.579563	8.630135E-6	20.734436
2568.740151	-3.022200	2.995300	-9.051400	28.647753	8.432121E-6	20.724404
2569.742021	-3.029500	2.992200	-9.063300	28.641863	9.389191E-6	20.745025
2570.741077	-2.984900	2.993200	-8.933200	28.638985	1.117132E-5	20.745920
2571.742915	-2.984400	2.992500	-8.929700	28.603804	8.135099E-6	20.733245
2572.743765	-2.968700	2.990500	-8.876400	28.544610	1.014825E-5	20.730528
2573.740428	-3.010600	2.987900	-8.994200	28.569768	8.960159E-6	20.719828
2574.743414	-2.991600	2.987100	-8.935400	28.598859	8.861152E-6	20.712616
2575.744281	-2.994700	2.986200	-8.941900	28.658001	9.158174E-6	20.746106
2576.741144	-2.991100	2.985500	-8.929300	28.554505	9.059167E-6	20.739546
2577.742224	-2.999200	2.981800	-8.942000	28.594175	1.047827E-5	20.726392
2578.745884	-2.990900	2.981300	-8.916100	28.608774	8.531128E-6	20.742993
2579.746718	-3.001200	2.980400	-8.943600	28.659741	9.158174E-6	20.734582
2580.744339	-3.008800	2.977900	-8.959100	28.611423	1.051127E-5	20.730013
2581.747567	-3.005100	2.976000	-8.941800	28.627728	1.031326E-5	20.737427
2582.744453	-2.986200	2.974800	-8.881800	28.694327	8.267109E-6	20.740968
2583.745004	-2.999500	2.973700	-8.918800	28.647280	1.133633E-5	20.743843
2584.743930	-3.006000	2.972600	-8.934700	28.588923	8.069094E-6	20.737699
2585.745253	-2.984100	2.971000	-8.864700	28.548360	8.828150E-6	20.730038
2586.746068	-2.985600	2.968900	-8.862600	28.594827	1.166636E-5	20.746016
2587.744618	-2.986100	2.967200	-8.860300	28.601790	8.168101E-6	20.759668
2588.745047	-2.963300	2.966700	-8.790500	28.675996	1.057728E-5	20.731988
2589.745132	-3.010000	2.965200	-8.924200	28.740762	9.587206E-6	20.747438
2590.746574	-2.975100	2.963200	-8.815000	28.804284	1.054428E-5	20.742198
2591.748095	-3.006700	2.961400	-8.903500	28.702780	8.663138E-6	20.768924
2592.746663	-3.004000	2.960300	-8.891600	28.650256	9.950232E-6	20.737357
2593.746574	-3.021000	2.958700	-8.937300	28.588481	9.983235E-6	20.739624
2594.746265	-3.019100	2.957000	-8.926900	28.665816	9.521201E-6	20.735959
2595.745913	-3.006900	2.956800	-8.889800	28.719481	1.054428E-5	20.737856
2596.745837	-2.980600	2.953500	-8.802400	28.761851	1.044527E-5	20.754456
2597.745568	-3.011200	2.952100	-8.888100	28.840086	1.113832E-5	20.755029
2598.746626	-2.993100	2.950900	-8.831600	28.841174	8.366116E-6	20.731943
2599.750710	-2.975500	2.951200	-8.780500	28.815164	9.257181E-6	20.733716
2600.750784	-3.003100	2.947400	-8.850300	28.762199	8.300111E-6	20.749591
2601.749109	-2.993700	2.946300	-8.819700	28.752765	1.028026E-5	20.741984
2602.747846	-3.033600	2.943400	-8.928100	28.773570	9.125172E-6	20.753458
2603.753181	-3.033600	2.942200	-8.923800	28.744390	7.706067E-6	20.741134
2604.747747	-2.994800	2.941900	-8.809500	28.677471	6.088948E-6	20.740586
2605.748688	-2.994900	2.939900	-8.804100	28.712134	6.715994E-6	20.756535
2606.761144	-3.022300	2.938200	-8.879500	28.681683	9.224179E-6	20.729181
2607.748487	-2.994900	2.938300	-8.799400	28.710501	8.531128E-6	20.745406
2608.750519	-2.987700	2.936000	-8.770900	28.756764	9.488198E-6	20.744590
2609.754964	-3.012000	2.933400	-8.834800	28.769646	8.267109E-6	20.749979
2610.751807	-3.006400	2.932900	-8.816400	28.777922	1.054428E-5	20.736505
2611.750526	-2.992500	2.930800	-8.769300	28.820392	7.607060E-6	20.745148
2612.755635	-3.023000	2.927800	-8.849600	28.813503	8.927157E-6	20.746743
2613.750728	-3.001500	2.928100	-8.788100	28.766265	8.300111E-6	20.742781
2614.750354	-2.996700	2.925500	-8.766000	28.810713	7.640062E-6	20.743932
2615.753809	-3.023000	2.923800	-8.837900	28.802563	9.158174E-6	20.748999
2616.749800	-3.015900	2.920700	-8.807700	28.760552	8.630135E-6	20.744612
2617.749996	-2.986500	2.920200	-8.720100	28.698096	8.333113E-6	20.732911
2618.752819	-3.017700	2.918300	-8.805700	28.722854	6.715994E-6	20.746943
2619.750334	-2.993300	2.915800	-8.727200	28.689832	9.125172E-6	20.745925
2620.752308	-3.005000	2.914900	-8.758700	28.720607	7.805075E-6	20.761276
2621.755302	-2.997600	2.914300	-8.734500	28.735351	7.178028E-6	20.750048
2622.751197	-2.990500	2.912700	-8.709800	28.783099	9.950232E-6	20.748833
2623.752597	-2.998700	2.911200	-8.728600	28.850118	9.950232E-6	20.743799
2624.755786	-2.982900	2.908800	-8.675500	28.823858	7.739070E-6	20.738682
2625.752938	-2.976200	2.906900	-8.651300	28.784819	9.158174E-6	20.739659
2626.755313	-3.008900	2.904300	-8.737400	28.834992	8.861152E-6	20.745156
2627.756609	-2.982300	2.904300	-8.660700	28.797115	9.224179E-6	20.752994
2628.756022	-2.995100	2.902300	-8.691900	28.802744	8.762145E-6	20.750603
2629.755479	-2.987900	2.900300	-8.664900	28.805249	9.290184E-6	20.748385
2630.759155	-2.976800	2.897600	-8.625100	28.772554	9.125172E-6	20.747219
2631.756906	-2.987100	2.896800	-8.652400	28.742408	8.663138E-6	20.760950
2632.760106	-3.022100	2.893000	-8.741800	28.774126	7.277036E-6	20.739320
2633.762787	-3.010200	2.892400	-8.706300	28.789738	6.121951E-6	20.759314
2634.758405	-3.021300	2.889900	-8.730500	28.767595	9.323186E-6	20.731791
2635.760659	-3.013500	2.888000	-8.702400	28.694562	7.607060E-6	20.743576
2636.761197	-2.978100	2.887400	-8.597700	28.720874	1.034626E-5	20.748268
2637.763174	-2.991800	2.885100	-8.630000	28.701054	8.597133E-6	20.765763
2638.760244	-3.010100	2.882500	-8.675900	28.747760	9.026164E-6	20.747374
2639.762734	-3.003400	2.879900	-8.648400	28.757625	7.508053E-6	20.753992
2640.759935	-3.007100	2.879400	-8.657500	28.847508	9.455196E-6	20.741644
2641.762144	-3.005700	2.876900	-8.645900	28.869905	9.554203E-6	20.761835
2642.761614	-2.989800	2.874500	-8.593100	28.889280	8.597133E-6	20.748163
2643.759867	-2.978000	2.874400	-8.559100	28.913141	7.112024E-6	20.761770
2644.761116	-3.021500	2.870700	-8.673200	28.913841	8.102096E-6	20.763898
2645.762782	-2.995300	2.869500	-8.594100	28.934873	6.682992E-6	20.751422
2646.762148	-3.007600	2.867900	-8.623800	28.921376	9.356189E-6	20.764377
2647.759954	-3.010700	2.866400	-8.629100	28.912537	7.706067E-6	20.754523
2648.765506	-3.001600	2.864400	-8.596900	28.878433	7.706067E-6	20.752883
2649.762151	-2.983300	2.861700	-8.536400	28.906182	7.838077E-6	20.777519
2650.762072	-3.005200	2.859000	-8.590700	28.857311	6.220958E-6	20.748199
2651.766326	-2.999100	2.858000	-8.570900	28.918948	7.343041E-6	20.753869
2652.761734	-2.977800	2.857100	-8.506900	28.950559	6.616987E-6	20.752526
2653.762434	-3.006000	2.855100	-8.580700	28.902131	7.376043E-6	20.747833
2654.765555	-2.973100	2.852400	-8.479500	28.874597	8.465123E-6	20.769881
2655.762451	-2.957500	2.851400	-8.432200	28.935041	7.508053E-6	20.782886
2656.763300	-2.998200	2.848500	-8.539100	28.922412	8.795147E-6	20.759731
2657.766239	-2.992100	2.847000	-8.517500	28.971294	6.484977E-6	20.744966
2658.764046	-3.016400	2.845000	-8.581100	29.059351	8.069094E-6	20.740753
2659.763232	-3.019700	2.841600	-8.580400	29.107006	6.583985E-6	20.770280
2660.772304	-2.989700	2.840000	-8.490200	29.122220	8.366116E-6	20.768066
2661.766066	-2.991100	2.838000	-8.488200	29.065678	6.550982E-6	20.764673
2662.765442	-3.000300	2.835600	-8.505700	28.944471	6.451975E-6	20.784799
2663.773226	-3.006200	2.834000	-8.518600	29.020241	7.145026E-6	20.750660
2664.764258	-2.984200	2.831800	-8.449100	29.092917	7.838077E-6	20.754660
2665.763740	-2.993900	2.829200	-8.469500	29.197162	8.729143E-6	20.760606
2666.768636	-3.015500	2.825600	-8.519800	29.205293	7.508053E-6	20.732763
2667.770173	-2.971600	2.825100	-8.394500	29.214659	7.013016E-6	20.744573
2668.767195	-2.977600	2.822100	-8.401900	29.170483	7.145026E-6	20.775922
2669.771334	-2.980100	2.818800	-8.399000	29.133466	6.385970E-6	20.774657
2670.768634	-3.015800	2.816800	-8.493800	29.172751	6.947011E-6	20.747387
2671.772171	-3.012700	2.814700	-8.478900	29.191185	6.682992E-6	20.756954
2672.772089	-2.997900	2.812800	-8.431500	29.207609	9.455196E-6	20.778247
2673.770994	-2.977600	2.811100	-8.369300	29.191915	5.824929E-6	20.765276
2674.772768	-2.982700	2.807700	-8.373200	29.209672	5.857931E-6	20.758514
2675.772095	-2.987500	2.804300	-8.375800	29.195223	8.861152E-6	20.766713
2676.771753	-2.994100	2.803400	-8.392700	29.205084	7.244033E-6	20.748200
2677.774171	-3.017100	2.798400	-8.441600	29.224703	7.376043E-6	20.765127
2678.772155	-3.032400	2.795900	-8.477400	29.175430	7.640062E-6	20.744870
2679.773827	-2.999500	2.793600	-8.378400	29.143688	7.442048E-6	20.752714
2680.772449	-3.025200	2.791000	-8.442700	29.173013	7.904082E-6	20.758557
2681.772534	-3.000600	2.788900	-8.367800	29.261058	8.960159E-6	20.769996
2682.772294	-2.996500	2.786400	-8.348900	29.296006	9.884227E-6	20.785776
2683.779829	-3.056100	2.783100	-8.504300	29.289027	8.828150E-6	20.777794
2684.773146	-3.014500	2.778900	-8.376200	29.264596	8.531128E-6	20.753646
2685.773580	-2.991200	2.779100	-8.312400	29.296368	7.574058E-6	20.762433
2686.773121	-2.995700	2.776000	-8.315100	29.232562	4.867858E-6	20.764038
2687.773158	-3.008400	2.771400	-8.335700	29.239973	7.640062E-6	20.757281
2688.773934	-2.982700	2.769900	-8.261200	29.246638	9.818223E-6	20.761153
2689.773833	-2.996000	2.765100	-8.283200	29.313182	8.465123E-6	20.786017
2690.772468	-2.988800	2.763400	-8.258600	29.321357	7.772072E-6	20.758693
2691.774915	-3.008100	2.760100	-8.301400	29.294098	9.191176E-6	20.773896
2692.775980	-3.021400	2.755600	-8.325200	29.233537	7.013016E-6	20.787780
2693.775541	-3.010300	2.753500	-8.288300	29.222499	7.772072E-6	20.763380
2694.775164	-3.010300	2.750700	-8.279400	29.261257	7.838077E-6	20.764032
2695.776926	-3.036000	2.746200	-8.336200	29.298131	9.356189E-6	20.769900
2696.776268	-2.979000	2.745000	-8.176800	29.276548	9.059167E-6	20.773278
2697.776095	-2.986300	2.740100	-8.181600	29.312152	8.696140E-6	20.766961
2698.776754	-3.001900	2.738200	-8.219000	29.301513	9.884227E-6	20.759083
2699.775886	-2.961300	2.734400	-8.095500	29.334054	8.069094E-6	20.766274
2700.778780	-3.012600	2.731000	-8.226800	29.446645	7.211031E-6	20.767854
2701.777533	-3.025900	2.726100	-8.248000	29.428764	7.607060E-6	20.772117
2702.780071	-2.998600	2.724000	-8.167300	29.332583	8.531128E-6	20.781862
2703.777480	-3.020500	2.719700	-8.213300	29.271646	8.300111E-6	20.780667
2704.778388	-2.991700	2.717100	-8.128200	29.297028	9.686213E-6	20.778271
2705.778288	-2.998700	2.712400	-8.133000	29.293416	7.442048E-6	20.771786
2706.779561	-2.984700	2.708900	-8.084700	29.350073	9.356189E-6	20.791903
2707.779562	-3.004100	2.704500	-8.123700	29.362016	9.290184E-6	20.777861
2708.780114	-2.992900	2.702600	-8.087400	29.366294	8.003089E-6	20.771741
2709.780681	-2.964200	2.699500	-8.000700	29.392899	8.927157E-6	20.779590
2710.780052	-3.007200	2.693400	-8.098100	29.381534	8.135099E-6	20.780464
2711.782398	-3.010100	2.689900	-8.095700	29.467975	8.135099E-6	20.786509
2712.786813	-3.017500	2.685700	-8.103200	29.471390	8.663138E-6	20.786633
2713.779897	-2.975800	2.682200	-7.980800	29.463991	8.531128E-6	20.778700
2714.781478	-3.003300	2.677700	-8.041000	29.481773	7.706067E-6	20.794728
2715.783369	-2.991900	2.674100	-8.000000	29.542110	9.917230E-6	20.784425
2716.783047	-3.014600	2.668000	-8.042200	29.585260	9.554203E-6	20.791888
2717.783089	-3.011300	2.664900	-8.022900	29.612540	1.057728E-5	20.775767
2718.785426	-3.018100	2.659900	-8.027000	29.582899	9.191176E-6	20.791878
2719.783403	-3.022800	2.654600	-8.022400	29.558959	9.224179E-6	20.783867
2720.785741	-3.016200	2.650500	-7.993700	29.523785	1.044527E-5	20.765478
2721.788038	-3.004700	2.647300	-7.953200	29.428543	7.904082E-6	20.799395
2722.784384	-2.984300	2.642100	-7.884200	29.355601	9.521201E-6	20.794155
2723.784571	-3.022000	2.637000	-7.968200	29.360604	9.917230E-6	20.795405
2724.787525	-2.994200	2.633000	-7.882900	29.441774	8.729143E-6	20.791394
2725.784807	-2.976700	2.626900	-7.818700	29.480572	9.158174E-6	20.781664
2726.786108	-3.007400	2.621700	-7.884000	29.520262	6.715994E-6	20.792747
2727.786478	-3.016800	2.616300	-7.891700	29.599532	7.805075E-6	20.799163
2728.785721	-3.019800	2.609600	-7.879500	29.584364	9.719215E-6	20.799519
2729.791808	-2.974500	2.607300	-7.754800	29.555500	9.059167E-6	20.774690
2730.787257	-3.012600	2.600700	-7.834200	29.613976	7.739070E-6	20.779585
2731.787943	-2.979900	2.596800	-7.737300	29.611997	9.950232E-6	20.779012
2732.787183	-3.013800	2.589800	-7.804100	29.564300	9.818223E-6	20.764120
2733.788850	-3.005600	2.583200	-7.763100	29.582918	9.257181E-6	20.791424
2734.786380	-3.026000	2.577200	-7.797100	29.644783	1.202939E-5	20.807323
2735.791479	-3.006000	2.573400	-7.734600	29.626837	1.008224E-5	20.776903
2736.794078	-2.964900	2.568100	-7.613400	29.650309	9.554203E-6	20.799618
2737.792117	-3.002900	2.561500	-7.690000	29.628752	8.861152E-6	20.801593
2738.794491	-2.986300	2.555900	-7.631700	29.636846	8.498126E-6	20.817813
2739.795943	-2.991100	2.548300	-7.621500	29.633858	1.087430E-5	20.791093
2740.792913	-3.006100	2.542100	-7.640700	29.615990	9.950232E-6	20.810538
2741.795885	-3.036500	2.537100	-7.702600	29.682550	1.127033E-5	20.792293
2742.793083	-2.979600	2.531400	-7.541500	29.703474	1.034626E-5	20.802008
2743.792204	-3.002800	2.525200	-7.582000	29.661494	9.488198E-6	20.813739
2744.793902	-2.993600	2.519400	-7.541100	29.701745	9.191176E-6	20.796472
2745.795746	-3.012700	2.512700	-7.569200	29.781002	1.127033E-5	20.824224
2746.794948	-2.989100	2.506800	-7.492500	29.812759	9.752218E-6	20.814993
2747.794356	-3.011000	2.500900	-7.529700	29.844314	9.422193E-6	20.802241
2748.797241	-2.999000	2.494400	-7.479300	29.828018	1.080830E-5	20.811887
