LabVIEW Measurement	
Writer_Version	2
Reader_Version	2
Separator	Tab
Decimal_Separator	.
Multi_Headings	No
X_Columns	One
Time_Pref	Absolute
Operator	admin
Description	Clolumns are: time, Current, Voltage, Power, Battery Temp, and Chamber Temp
Date	2024/08/16
Time	13:07:17.8513970375061035156
***End_of_Header***	
	
Channels	6						
Samples	1	1	1	1	1	1	
Date	2024/09/08	2024/09/08	2024/09/08	2024/09/08	2024/09/08	2024/09/08	
Time	21:54:33.4246110916137695313	21:54:33.4306263923645019531	21:54:33.4487786293029785157	21:54:33.4085369110107421875	21:54:33.4085369110107421875	21:54:33.4085369110107421875	
X_Dimension	Time	Time	Time	Time	Time	Time	
X0	0.0000000000000000E+0	0.0000000000000000E+0	0.0000000000000000E+0	0.0000000000000000E+0	0.0000000000000000E+0	0.0000000000000000E+0	
Delta_X	1.000000	1.000000	1.000000	1.000000	1.000000	1.000000	
***End_of_Header***							
X_Value	Untitled	Untitled 1	Untitled 2	Untitled 3	Untitled 4	Untitled 5	Comment
0.000000	0.022021	4.087500	0.090005	20.712658	0.000453	20.682784
0.999732	-2.986900	3.920900	-11.710000	20.710082	0.000452	20.688270
1.999503	-2.974600	3.913400	-11.639000	20.711783	0.000451	20.684754
3.002899	-3.002100	3.909200	-11.735000	20.703378	0.000450	20.704801
4.001040	-2.998200	3.906300	-11.711000	20.736383	0.000450	20.707932
5.001358	-3.026100	3.902800	-11.809000	20.714170	0.000450	20.691883
6.003829	-2.994900	3.901600	-11.683000	20.724284	0.000449	20.701997
7.002998	-3.005800	3.898600	-11.716000	20.742981	0.000449	20.700304
8.006207	-3.012800	3.897000	-11.740000	20.729802	0.000449	20.711309
9.003778	-3.004200	3.894500	-11.698000	20.760476	0.000448	20.695039
10.004123	-3.010500	3.893000	-11.719000	20.755988	0.000447	20.704777
11.009062	-2.990700	3.892300	-11.640000	20.769894	0.000447	20.708251
12.005575	-3.008900	3.891800	-11.709000	20.766003	0.000447	20.706731
13.006847	-3.019700	3.889100	-11.743000	20.786007	0.000446	20.703501
14.004469	-2.975900	3.889600	-11.574000	20.767474	0.000446	20.707254
15.004015	-2.993900	3.887800	-11.638000	20.801638	0.000446	20.715814
16.003827	-3.007700	3.885000	-11.684000	20.808505	0.000445	20.711775
17.003514	-3.014200	3.884500	-11.708000	20.793807	0.000444	20.719836
18.006466	-3.004000	3.884300	-11.668000	20.819484	0.000444	20.710426
19.006483	-3.008100	3.883800	-11.681000	20.807361	0.000443	20.713476
20.008502	-3.003700	3.882800	-11.661000	20.816247	0.000442	20.704818
21.006958	-2.991600	3.882500	-11.614000	20.851963	0.000443	20.710189
22.009198	-3.008400	3.882300	-11.679000	20.865443	0.000442	20.690477
23.007286	-2.989700	3.882000	-11.605000	20.839815	0.000442	20.706101
24.007234	-3.014400	3.879400	-11.694000	20.860603	0.000440	20.686586
25.013466	-2.991400	3.879300	-11.604000	20.858486	0.000440	20.700591
26.017267	-3.006600	3.878600	-11.661000	20.885585	0.000439	20.691181
27.010578	-2.977500	3.879000	-11.549000	20.907598	0.000440	20.708456
28.014997	-2.988000	3.877400	-11.585000	20.889133	0.000438	20.704687
29.014008	-2.995200	3.878100	-11.615000	20.905972	0.000442	20.717735
30.010331	-3.007900	3.876000	-11.658000	20.924143	0.000439	20.718365
31.017486	-2.986400	3.876600	-11.576000	20.908669	0.000440	20.719011
32.014453	-3.005800	3.875700	-11.649000	20.937565	0.000439	20.723728
33.010437	-2.994400	3.875700	-11.604000	20.938047	0.000439	20.714253
34.014198	-3.015500	3.873500	-11.680000	20.952638	0.000443	20.707033
35.016419	-3.010900	3.874600	-11.665000	20.957052	0.000438	20.717138
36.016150	-3.000500	3.874500	-11.624000	20.973694	0.000438	20.715291
37.015625	-2.994900	3.874000	-11.601000	20.973146	0.000439	20.718062
38.019255	-3.006000	3.873100	-11.641000	20.972975	0.000438	20.727374
39.015839	-2.977300	3.874400	-11.535000	20.978238	0.000437	20.714620
40.018983	-2.997400	3.872600	-11.608000	21.006282	0.000438	20.724178
41.018616	-2.992400	3.872500	-11.587000	21.000397	0.000436	20.733939
42.015527	-3.008500	3.872400	-11.649000	21.012993	0.000438	20.707181
43.020504	-2.970100	3.872100	-11.499000	21.031506	0.000438	20.712895
44.017633	-3.008400	3.870900	-11.645000	21.052487	0.000437	20.726769
45.014735	-2.998000	3.871700	-11.607000	21.040889	0.000437	20.709478
46.019755	-2.987100	3.871300	-11.562000	21.041134	0.000435	20.724423
47.015678	-3.022700	3.870200	-11.697000	21.059794	0.000437	20.732656
48.015824	-2.997000	3.869900	-11.597000	21.079376	0.000437	20.718577
49.018545	-3.008100	3.868900	-11.637000	21.098093	0.000437	20.724496
50.017363	-2.991900	3.869900	-11.577000	21.085171	0.000436	20.699716
51.016846	-2.996100	3.869400	-11.592000	21.090892	0.000437	20.725829
52.018579	-2.984100	3.869300	-11.545000	21.123175	0.000436	20.712127
53.017592	-2.988500	3.870000	-11.565000	21.114765	0.000435	20.738329
54.015845	-2.977100	3.868600	-11.516000	21.129852	0.000437	20.725919
55.015471	-2.987100	3.869500	-11.557000	21.122325	0.000436	20.720286
56.018112	-2.998200	3.867900	-11.596000	21.144228	0.000435	20.717065
57.018151	-3.009600	3.867500	-11.638000	21.152368	0.000435	20.738011
58.016818	-3.013700	3.868100	-11.657000	21.169383	0.000434	20.727056
59.020730	-2.997000	3.867700	-11.591000	21.180408	0.000435	20.729075
60.015459	-2.989100	3.867800	-11.560000	21.181307	0.000435	20.729974
61.015841	-2.999300	3.868100	-11.601000	21.188392	0.000434	20.731372
62.019672	-3.000900	3.866800	-11.603000	21.197856	0.000434	20.750797
63.018553	-2.997900	3.866800	-11.592000	21.198428	0.000436	20.730506
64.021986	-3.004800	3.867700	-11.620000	21.212124	0.000439	20.725241
65.022485	-2.990900	3.864900	-11.558000	21.212378	0.000436	20.717433
66.022572	-2.982100	3.866600	-11.530000	21.235627	0.000435	20.728838
67.021294	-2.986500	3.865800	-11.544000	21.248473	0.000436	20.733629
68.019995	-3.004200	3.865900	-11.613000	21.240204	0.000437	20.738632
69.022653	-2.979900	3.866700	-11.522000	21.250435	0.000436	20.729427
70.020347	-3.004100	3.865900	-11.611000	21.291187	0.000439	20.729893
71.022798	-3.007000	3.864600	-11.620000	21.291735	0.000435	20.722379
72.021214	-3.012200	3.863100	-11.635000	21.306836	0.000436	20.715675
73.020832	-2.998700	3.863900	-11.586000	21.294309	0.000437	20.741077
74.022199	-2.994500	3.864000	-11.570000	21.307710	0.000437	20.741208
75.020938	-2.993900	3.864400	-11.568000	21.322500	0.000436	20.743202
76.021257	-3.009300	3.864000	-11.627000	21.334357	0.000434	20.735150
77.021346	-2.995500	3.863400	-11.572000	21.351941	0.000436	20.747053
78.020701	-3.004100	3.864500	-11.608000	21.335158	0.000437	20.728838
79.020682	-3.001000	3.862300	-11.590000	21.346842	0.000435	20.737684
80.024891	-3.026000	3.862100	-11.686000	21.378383	0.000438	20.728462
81.022126	-3.004700	3.863200	-11.607000	21.378538	0.000436	20.732885
82.023276	-3.004800	3.863600	-11.608000	21.384348	0.000438	20.734905
83.024191	-3.009900	3.862900	-11.626000	21.385639	0.000438	20.739515
84.022954	-3.010400	3.863600	-11.630000	21.411034	0.000436	20.736948
85.021088	-3.023500	3.860900	-11.673000	21.428666	0.000434	20.749849
86.024967	-3.007500	3.861900	-11.613000	21.398018	0.000436	20.759014
87.024711	-2.992200	3.862000	-11.555000	21.419744	0.000436	20.751828
88.024518	-2.988600	3.863000	-11.544000	21.437425	0.000438	20.726369
89.023315	-2.989900	3.862600	-11.548000	21.441796	0.000439	20.725053
90.023085	-2.993100	3.861000	-11.555000	21.436379	0.000437	20.728642
91.023662	-2.991500	3.862900	-11.554000	21.430456	0.000437	20.734095
92.024243	-2.981100	3.862400	-11.513000	21.470834	0.000438	20.720442
93.023626	-2.990200	3.861100	-11.544000	21.454248	0.000435	20.743677
94.023633	-2.994300	3.861300	-11.561000	21.470082	0.000439	20.751934
95.025850	-2.989300	3.861600	-11.543000	21.495426	0.000439	20.752163
96.025266	-2.993800	3.861600	-11.560000	21.494201	0.000440	20.737660
97.026915	-2.995500	3.861100	-11.566000	21.515320	0.000440	20.741723
98.026257	-2.999200	3.860500	-11.578000	21.512534	0.000441	20.753635
99.025946	-3.002400	3.860500	-11.590000	21.502363	0.000442	20.737766
100.027382	-3.011700	3.860300	-11.626000	21.512085	0.000439	20.739908
101.030555	-3.018400	3.858300	-11.644000	21.535843	0.000440	20.744241
102.028161	-2.974500	3.859400	-11.479000	21.545974	0.000439	20.724980
103.028688	-2.981000	3.860500	-11.507000	21.533882	0.000440	20.738960
104.031175	-2.949500	3.859900	-11.384000	21.558694	0.000439	20.728699
105.030919	-3.002500	3.858400	-11.584000	21.565875	0.000440	20.744421
106.029763	-3.004600	3.857700	-11.590000	21.577598	0.000438	20.740505
107.030163	-3.008500	3.858600	-11.607000	21.586323	0.000441	20.754452
108.031897	-2.996600	3.858600	-11.562000	21.606200	0.000441	20.756798
109.032117	-3.001400	3.859100	-11.581000	21.584747	0.000440	20.767573
110.032810	-3.013700	3.858400	-11.626000	21.605906	0.000441	20.756978
111.033688	-3.014800	3.858200	-11.630000	21.625250	0.000444	20.767328
112.031979	-2.990800	3.859300	-11.541000	21.614132	0.000441	20.759521
113.035604	-3.000900	3.856100	-11.571000	21.648271	0.000442	20.757174
114.036410	-2.996900	3.858300	-11.561000	21.656375	0.000442	20.760543
115.032215	-2.988600	3.858100	-11.529000	21.675384	0.000442	20.745901
116.039487	-2.996300	3.857600	-11.557000	21.684672	0.000442	20.780801
117.035753	-3.009200	3.857100	-11.606000	21.694556	0.000443	20.761295
118.033532	-3.003500	3.856700	-11.582000	21.709815	0.000442	20.790317
119.035426	-2.999300	3.856600	-11.566000	21.698640	0.000443	20.761589
120.035027	-3.013300	3.855400	-11.616000	21.703133	0.000444	20.765137
121.032423	-3.014400	3.856300	-11.624000	21.700388	0.000445	20.753855
122.036958	-2.998500	3.856100	-11.562000	21.734549	0.000444	20.753904
123.036550	-2.985600	3.856900	-11.514000	21.717175	0.000446	20.767336
124.033930	-3.003000	3.855500	-11.577000	21.754300	0.000445	20.749490
125.038227	-2.974300	3.856500	-11.470000	21.729419	0.000444	20.777694
126.040659	-3.018500	3.854600	-11.634000	21.734811	0.000445	20.773607
127.034151	-3.005000	3.854800	-11.582000	21.767614	0.000446	20.776092
128.041279	-3.005200	3.854100	-11.581000	21.768619	0.000445	20.774727
129.037634	-2.976500	3.855000	-11.473000	21.781631	0.000445	20.790595
130.035717	-2.984700	3.856100	-11.509000	21.768374	0.000445	20.782542
131.042834	-3.005200	3.855200	-11.584000	21.803758	0.000447	20.753945
132.040082	-3.024300	3.854400	-11.655000	21.802802	0.000447	20.763895
133.039378	-2.983000	3.853900	-11.495000	21.821507	0.000447	20.776452
134.040474	-3.016200	3.854900	-11.627000	21.829168	0.000447	20.773689
135.039886	-2.998400	3.854700	-11.557000	21.839313	0.000450	20.780049
136.039759	-3.001900	3.853200	-11.566000	21.862909	0.000449	20.771899
137.042098	-3.014400	3.853000	-11.614000	21.864436	0.000447	20.780066
138.042752	-3.000700	3.854700	-11.565000	21.876491	0.000450	20.768424
139.042197	-3.001400	3.852300	-11.561000	21.874556	0.000449	20.771228
140.039382	-2.972500	3.853700	-11.454000	21.896673	0.000450	20.766339
141.042142	-3.008800	3.851800	-11.588000	21.922800	0.000451	20.783957
142.038758	-2.975100	3.853500	-11.464000	21.890115	0.000450	20.780638
143.038823	-2.994600	3.852200	-11.535000	21.899940	0.000451	20.786679
144.043399	-2.988600	3.853800	-11.517000	21.902929	0.000449	20.787301
145.039666	-2.968600	3.852100	-11.434000	21.903664	0.000449	20.778553
146.037542	-2.999700	3.850500	-11.550000	21.918765	0.000452	20.783712
147.043678	-3.006000	3.852400	-11.580000	21.929105	0.000449	20.770353
148.042589	-2.996500	3.852700	-11.544000	21.933981	0.000452	20.795623
149.042518	-2.990100	3.853500	-11.522000	21.950012	0.000451	20.790808
150.044538	-3.009200	3.850900	-11.588000	21.953622	0.000451	20.783516
151.042023	-3.002600	3.851600	-11.563000	21.956913	0.000451	20.796768
152.044855	-3.005300	3.851800	-11.575000	21.983145	0.000452	20.791732
153.044409	-2.998500	3.851000	-11.546000	21.985709	0.000453	20.780548
154.046077	-2.986300	3.852200	-11.503000	21.962181	0.000456	20.782126
155.044730	-3.006900	3.851200	-11.579000	21.988674	0.000454	20.778300
156.046497	-3.016700	3.850600	-11.615000	22.010397	0.000454	20.794356
157.049197	-3.000300	3.850500	-11.552000	22.010748	0.000456	20.801346
158.046619	-2.998000	3.850700	-11.544000	22.011769	0.000454	20.789565
159.049966	-3.013100	3.849600	-11.599000	22.034430	0.000454	20.789966
160.046397	-3.019600	3.849400	-11.622000	22.028257	0.000456	20.813183
161.047531	-2.997800	3.850100	-11.541000	22.055777	0.000456	20.793318
162.047913	-2.985800	3.849500	-11.493000	22.046206	0.000456	20.794642
163.047276	-3.006700	3.849500	-11.573000	22.060162	0.000456	20.789647
164.046390	-3.010400	3.850200	-11.588000	22.068247	0.000456	20.795844
165.049097	-3.021400	3.849200	-11.628000	22.068590	0.000456	20.790972
166.054516	-2.996200	3.849200	-11.533000	22.078699	0.000457	20.793980
167.048359	-3.000500	3.848800	-11.547000	22.049350	0.000456	20.809169
168.047432	-3.014300	3.848700	-11.601000	22.087959	0.000457	20.812260
169.051081	-3.014300	3.846200	-11.593000	22.097873	0.000457	20.794209
170.049226	-3.017100	3.847900	-11.609000	22.098338	0.000458	20.788985
171.049781	-3.007800	3.847000	-11.570000	22.113004	0.000460	20.792762
172.054591	-3.008000	3.847500	-11.573000	22.142490	0.000460	20.783876
173.049222	-3.002900	3.847300	-11.551000	22.153930	0.000461	20.796278
174.050041	-3.003700	3.847400	-11.555000	22.169420	0.000460	20.797087
175.054490	-3.008000	3.847400	-11.572000	22.156420	0.000457	20.816789
176.051007	-3.010600	3.846200	-11.578000	22.168873	0.000458	20.808393
177.051703	-3.013800	3.847000	-11.593000	22.145838	0.000460	20.797659
178.057744	-3.007800	3.845600	-11.565000	22.146655	0.000460	20.823132
179.052482	-2.996500	3.846300	-11.525000	22.165762	0.000461	20.810494
180.052136	-3.000700	3.846800	-11.541000	22.184321	0.000461	20.808213
181.054587	-3.026600	3.845400	-11.638000	22.185579	0.000462	20.806628
182.051701	-3.032700	3.843900	-11.656000	22.187343	0.000461	20.813609
183.057934	-3.005400	3.844400	-11.553000	22.207461	0.000462	20.823321
184.055602	-3.016100	3.845000	-11.595000	22.212401	0.000461	20.798870
185.056703	-2.974700	3.845300	-11.437000	22.239648	0.000461	20.828994
186.054940	-2.999200	3.845000	-11.530000	22.259390	0.000461	20.824106
187.057371	-3.036200	3.843600	-11.669000	22.252017	0.000462	20.820517
188.056635	-2.983600	3.846000	-11.474000	22.267196	0.000463	20.825283
189.057823	-2.989700	3.844100	-11.491000	22.290432	0.000464	20.815833
190.059763	-3.009400	3.843600	-11.566000	22.307438	0.000463	20.796352
191.054214	-3.023000	3.844600	-11.621000	22.304173	0.000465	20.812997
192.056187	-3.030200	3.842200	-11.642000	22.296400	0.000464	20.803792
193.059073	-3.001600	3.843900	-11.537000	22.304385	0.000466	20.836442
194.057150	-3.001200	3.844000	-11.536000	22.328560	0.000467	20.822243
195.057889	-3.001400	3.842800	-11.532000	22.329335	0.000466	20.805476
196.062234	-3.000900	3.843200	-11.533000	22.351721	0.000466	20.813193
197.061237	-3.022300	3.842600	-11.613000	22.337426	0.000465	20.828750
198.059538	-2.996400	3.843100	-11.514000	22.353477	0.000467	20.800253
199.061730	-3.005900	3.841900	-11.548000	22.357592	0.000465	20.825235
200.059237	-3.007400	3.841500	-11.551000	22.349273	0.000466	20.824966
201.060192	-3.005600	3.841900	-11.546000	22.365919	0.000466	20.790900
202.063494	-2.997100	3.842600	-11.515000	22.373797	0.000468	20.827712
203.060425	-2.991000	3.841900	-11.490000	22.381635	0.000467	20.809008
204.060942	-3.021400	3.840700	-11.603000	22.375357	0.000470	20.813627
205.063066	-3.005100	3.842100	-11.545000	22.393154	0.000468	20.839035
206.062193	-2.990900	3.840600	-11.486000	22.430755	0.000468	20.822162
207.060477	-3.000500	3.840000	-11.521000	22.426551	0.000470	20.826487
208.064869	-3.034600	3.840300	-11.653000	22.426527	0.000468	20.825988
209.062912	-2.997100	3.840300	-11.509000	22.403481	0.000469	20.798643
210.062955	-3.001300	3.841000	-11.527000	22.427400	0.000469	20.821173
211.064270	-2.985700	3.840000	-11.465000	22.430184	0.000471	20.821590
212.063380	-3.016600	3.839300	-11.580000	22.440935	0.000470	20.832831
213.066345	-3.002800	3.839200	-11.527000	22.427041	0.000473	20.808486
214.064583	-2.992500	3.839600	-11.490000	22.463099	0.000470	20.816620
215.063437	-3.009000	3.838800	-11.550000	22.459417	0.000472	20.818623
216.063251	-3.025000	3.838400	-11.610000	22.479254	0.000473	20.818100
217.064519	-3.003500	3.838600	-11.528000	22.470887	0.000471	20.822997
218.063726	-2.986500	3.839600	-11.465000	22.465760	0.000472	20.825449
219.063541	-3.013400	3.838000	-11.564000	22.475132	0.000472	20.824403
220.064740	-2.997900	3.838300	-11.505000	22.524370	0.000475	20.804015
221.065619	-3.010500	3.838700	-11.555000	22.493523	0.000474	20.812002
222.064922	-3.002200	3.837700	-11.520000	22.512371	0.000474	20.805274
223.065101	-3.014700	3.837500	-11.568000	22.547773	0.000473	20.796159
224.065080	-3.014000	3.837000	-11.564000	22.543757	0.000473	20.822956
225.066818	-3.008800	3.836000	-11.540000	22.517735	0.000474	20.799740
226.067601	-3.014500	3.836400	-11.564000	22.507621	0.000476	20.796249
227.066806	-3.021400	3.836800	-11.591000	22.551846	0.000475	20.817782
228.067140	-3.021000	3.836000	-11.588000	22.534934	0.000476	20.818861
229.065888	-2.990200	3.837000	-11.472000	22.536632	0.000475	20.803967
230.072556	-3.007000	3.836900	-11.537000	22.574890	0.000476	20.804351
231.067124	-3.016500	3.836200	-11.571000	22.566588	0.000476	20.800304
232.066350	-3.004700	3.835600	-11.524000	22.607579	0.000476	20.808643
233.066814	-3.013900	3.834300	-11.555000	22.616231	0.000478	20.797869
234.067770	-3.026900	3.834800	-11.606000	22.595337	0.000475	20.784527
235.067067	-3.014300	3.834300	-11.557000	22.603882	0.000478	20.794983
236.069617	-3.009100	3.834400	-11.537000	22.599769	0.000479	20.775690
237.067989	-3.009300	3.834100	-11.537000	22.596479	0.000478	20.804638
238.066784	-3.009200	3.833300	-11.534000	22.615473	0.000479	20.788574
239.070267	-2.981600	3.835500	-11.435000	22.626647	0.000481	20.771791
240.069258	-2.980600	3.834100	-11.427000	22.631372	0.000479	20.799757
241.073218	-2.995600	3.834600	-11.487000	22.635666	0.000480	20.788411
242.070625	-2.984900	3.834800	-11.446000	22.634825	0.000480	20.765283
243.070393	-2.997600	3.833200	-11.489000	22.648178	0.000482	20.779132
244.072483	-2.986300	3.833400	-11.446000	22.649305	0.000481	20.791640
245.071284	-3.009100	3.834000	-11.536000	22.691435	0.000483	20.783105
246.069648	-3.009900	3.831900	-11.533000	22.658928	0.000480	20.820719
247.074471	-3.041400	3.832700	-11.655000	22.677692	0.000480	20.793521
248.072851	-3.005800	3.833100	-11.521000	22.669375	0.000483	20.782820
249.072196	-3.010200	3.832000	-11.534000	22.673227	0.000482	20.792842
250.072736	-2.998500	3.832200	-11.490000	22.700593	0.000482	20.772838
251.070893	-3.022000	3.832300	-11.580000	22.720205	0.000482	20.780155
252.074711	-2.971600	3.832100	-11.387000	22.723943	0.000484	20.764933
253.074777	-2.970000	3.832600	-11.382000	22.707947	0.000481	20.795377
254.072797	-3.007700	3.830600	-11.520000	22.698961	0.000485	20.783057
255.074586	-3.007500	3.830200	-11.518000	22.711742	0.000486	20.788747
256.073792	-2.978500	3.833200	-11.416000	22.712762	0.000483	20.778389
257.073050	-2.998300	3.831300	-11.487000	22.709800	0.000484	20.778741
258.076330	-3.030200	3.828900	-11.601000	22.703164	0.000485	20.777310
259.075043	-2.989800	3.830600	-11.452000	22.716157	0.000486	20.778945
260.072698	-2.995100	3.830600	-11.472000	22.720785	0.000485	20.766985
261.073445	-2.993500	3.830400	-11.465000	22.775024	0.000486	20.783859
262.076561	-2.996900	3.829000	-11.473000	22.766993	0.000487	20.793358
263.073062	-2.989200	3.831100	-11.451000	22.768119	0.000486	20.760346
264.077202	-3.015200	3.828300	-11.542000	22.779504	0.000486	20.765113
265.083351	-2.994900	3.829800	-11.468000	22.769662	0.000487	20.772797
266.079149	-3.011100	3.828800	-11.528000	22.766601	0.000489	20.762619
267.077271	-2.982900	3.829500	-11.422000	22.779855	0.000489	20.764516
268.077000	-2.989100	3.829700	-11.447000	22.778435	0.000488	20.769258
269.078230	-3.017800	3.826500	-11.546000	22.817867	0.000488	20.767508
270.079913	-2.997400	3.828700	-11.475000	22.831545	0.000491	20.765088
271.078289	-3.015500	3.827600	-11.540000	22.847417	0.000488	20.762023
272.079125	-3.008600	3.827200	-11.513000	22.866193	0.000489	20.750487
273.082921	-2.982200	3.828600	-11.416000	22.877830	0.000487	20.771628
274.082363	-2.967300	3.827700	-11.356000	22.884978	0.000488	20.765513
275.079050	-3.002200	3.828100	-11.492000	22.878148	0.000490	20.774318
276.080852	-2.990300	3.826200	-11.441000	22.884170	0.000489	20.771816
277.082754	-3.000600	3.826100	-11.480000	22.903999	0.000489	20.760861
278.079015	-3.001300	3.826200	-11.483000	22.899144	0.000489	20.783498
279.083352	-2.979000	3.826300	-11.398000	22.902228	0.000491	20.772364
280.078792	-3.018500	3.825000	-11.544000	22.920139	0.000491	20.772290
281.081194	-3.002700	3.825000	-11.485000	22.942252	0.000493	20.771211
282.094632	-2.991100	3.824800	-11.440000	22.967237	0.000493	20.779648
283.081977	-2.997200	3.825500	-11.464000	22.955699	0.000491	20.776149
284.081144	-3.002900	3.824500	-11.483000	22.974107	0.000491	20.770884
285.081741	-3.016100	3.824300	-11.533000	22.945589	0.000491	20.768865
286.080709	-3.009500	3.824100	-11.507000	22.961745	0.000494	20.768930
287.081214	-2.999600	3.823500	-11.467000	23.006761	0.000493	20.760926
288.080017	-2.997700	3.824200	-11.463000	22.982764	0.000493	20.763910
289.079525	-3.016800	3.822800	-11.532000	22.982984	0.000495	20.772665
290.081537	-2.990200	3.822500	-11.429000	22.983588	0.000494	20.757149
291.082226	-2.997700	3.822900	-11.459000	22.979998	0.000495	20.784372
292.080841	-3.000100	3.822000	-11.465000	22.964209	0.000493	20.751009
293.080689	-3.000200	3.823300	-11.469000	22.984053	0.000494	20.747657
294.082072	-2.991000	3.822400	-11.432000	22.971308	0.000495	20.749587
295.081120	-2.985100	3.822900	-11.412000	22.974743	0.000495	20.769150
296.082860	-3.002900	3.822900	-11.479000	22.989087	0.000494	20.760288
297.085739	-3.011100	3.820600	-11.504000	23.014993	0.000497	20.758743
298.082240	-3.003400	3.820900	-11.475000	23.022320	0.000495	20.743324
299.082730	-2.994300	3.821100	-11.440000	22.990083	0.000496	20.736628
300.087892	-3.002900	3.820600	-11.472000	23.020370	0.000496	20.764605
301.086421	-3.005400	3.819900	-11.479000	23.014879	0.000495	20.765267
302.083214	-3.001000	3.821200	-11.466000	23.016445	0.000498	20.749293
303.083594	-2.998200	3.821100	-11.455000	23.054401	0.000498	20.769780
304.089031	-3.007300	3.820400	-11.488000	23.025094	0.000497	20.762226
305.084780	-2.994600	3.820500	-11.439000	23.058636	0.000500	20.749840
306.085805	-2.993200	3.820400	-11.434000	23.063523	0.000499	20.739090
307.085858	-2.970500	3.820400	-11.348000	23.079172	0.000501	20.741494
308.086819	-3.010900	3.819000	-11.497000	23.069079	0.000499	20.744183
309.084748	-3.009400	3.817700	-11.488000	23.044097	0.000499	20.732427
310.089656	-2.981000	3.820100	-11.387000	23.044154	0.000498	20.726320
311.086923	-2.988300	3.819400	-11.413000	23.037758	0.000499	20.749310
312.086230	-2.986800	3.819200	-11.407000	23.067252	0.000501	20.766061
313.087532	-2.981300	3.819100	-11.385000	23.070785	0.000500	20.739254
314.089572	-2.999600	3.817400	-11.451000	23.074350	0.000499	20.763216
315.086678	-3.001800	3.818000	-11.460000	23.085960	0.000502	20.753512
316.086362	-2.996700	3.817600	-11.440000	23.114034	0.000501	20.756038
317.086802	-2.982300	3.817600	-11.385000	23.112157	0.000502	20.750364
318.086668	-2.984300	3.817700	-11.393000	23.073535	0.000503	20.731577
319.086240	-2.988000	3.816600	-11.403000	23.120259	0.000502	20.749948
320.085475	-3.007000	3.815500	-11.472000	23.134470	0.000502	20.740954
321.087191	-2.979700	3.816600	-11.371000	23.135694	0.000505	20.738862
322.087326	-3.003500	3.815800	-11.459000	23.125782	0.000505	20.735093
323.089457	-3.011100	3.815400	-11.487000	23.182889	0.000506	20.739213
324.089263	-2.997600	3.815700	-11.437000	23.175898	0.000505	20.738846
325.087467	-2.968500	3.814800	-11.322000	23.159133	0.000504	20.732951
326.087731	-2.999900	3.815200	-11.444000	23.175898	0.000504	20.739794
327.088810	-2.987100	3.814700	-11.393000	23.178002	0.000505	20.739532
328.087717	-2.978400	3.814400	-11.360000	23.199849	0.000504	20.737717
329.088439	-3.002500	3.813300	-11.449000	23.201456	0.000507	20.733637
330.104118	-2.998100	3.814500	-11.435000	23.220986	0.000506	20.744674
331.087143	-2.993900	3.813300	-11.415000	23.232439	0.000506	20.749988
332.088475	-2.989100	3.814000	-11.399000	23.236044	0.000504	20.761188
333.090257	-2.997400	3.813800	-11.430000	23.260916	0.000506	20.748181
334.089187	-3.003900	3.812300	-11.450000	23.311613	0.000507	20.734029
335.090178	-3.003200	3.811700	-11.446000	23.308587	0.000507	20.744748
336.091910	-2.969200	3.814500	-11.325000	23.274246	0.000507	20.734038
337.089840	-2.994200	3.813000	-11.416000	23.232659	0.000506	20.720810
338.091831	-3.012400	3.811200	-11.480000	23.253232	0.000504	20.729100
339.096870	-3.006900	3.811400	-11.460000	23.233426	0.000506	20.747658
340.092099	-3.001700	3.812400	-11.442000	23.263943	0.000509	20.742680
341.089908	-2.984500	3.812400	-11.377000	23.274197	0.000508	20.733040
342.090390	-2.995400	3.810000	-11.412000	23.292901	0.000508	20.738984
343.093410	-2.991700	3.811000	-11.401000	23.283088	0.000508	20.734365
344.090052	-2.999700	3.809600	-11.427000	23.280160	0.000508	20.726689
345.092409	-3.000100	3.810600	-11.431000	23.276016	0.000509	20.721112
346.094334	-3.004100	3.810700	-11.447000	23.290813	0.000508	20.727882
347.091020	-2.994700	3.810500	-11.411000	23.308123	0.000510	20.716305
348.092666	-2.989900	3.809600	-11.389000	23.318351	0.000508	20.735093
349.095595	-3.017300	3.809600	-11.493000	23.329812	0.000512	20.736148
350.094566	-3.020800	3.808200	-11.503000	23.359666	0.000509	20.716281
351.094666	-2.997500	3.808200	-11.414000	23.374225	0.000508	20.735616
352.101007	-3.013500	3.808600	-11.476000	23.373638	0.000511	20.729812
353.094811	-3.015400	3.808300	-11.482000	23.392308	0.000508	20.730032
354.096879	-2.997300	3.808300	-11.414000	23.424452	0.000511	20.725266
355.094683	-3.030800	3.807900	-11.540000	23.399233	0.000511	20.724645
356.099244	-3.007500	3.808000	-11.451000	23.397667	0.000512	20.706953
357.095519	-3.011800	3.806100	-11.461000	23.381738	0.000511	20.722756
358.095515	-3.003700	3.808000	-11.438000	23.371273	0.000513	20.730286
359.097795	-3.024600	3.805900	-11.510000	23.410782	0.000511	20.718202
360.094539	-3.014300	3.806200	-11.472000	23.405236	0.000511	20.740146
361.096635	-3.009200	3.806200	-11.452000	23.405489	0.000512	20.713371
362.097535	-3.017800	3.805000	-11.482000	23.416467	0.000513	20.730065
363.095144	-3.000700	3.805400	-11.418000	23.410644	0.000511	20.738453
364.096554	-3.005000	3.806400	-11.437000	23.411892	0.000511	20.707934
365.097572	-2.999800	3.804900	-11.413000	23.416427	0.000512	20.704893
366.095805	-3.008500	3.804700	-11.446000	23.417291	0.000513	20.702914
367.094828	-3.004500	3.805300	-11.432000	23.429028	0.000513	20.700928
368.097374	-3.022000	3.804400	-11.496000	23.428278	0.000515	20.680733
369.098343	-3.009000	3.803800	-11.445000	23.421688	0.000515	20.704476
370.097075	-3.011300	3.802800	-11.450000	23.440904	0.000514	20.700503
371.102198	-3.005300	3.804400	-11.433000	23.444370	0.000515	20.712039
372.100083	-2.972700	3.805100	-11.309000	23.386615	0.000515	20.715791
373.100434	-2.992300	3.804000	-11.382000	23.404201	0.000513	20.696431
374.102498	-3.006500	3.802300	-11.430000	23.421835	0.000516	20.702727
375.099949	-2.992300	3.802200	-11.375000	23.444786	0.000516	20.710559
376.100948	-3.004400	3.803000	-11.426000	23.484945	0.000515	20.717148
377.102372	-3.000600	3.803600	-11.412000	23.479538	0.000514	20.708883
378.104869	-2.992600	3.802600	-11.379000	23.489806	0.000517	20.711115
379.101816	-2.996700	3.802500	-11.394000	23.459401	0.000517	20.715726
380.103059	-3.012900	3.802600	-11.456000	23.489072	0.000516	20.719388
381.102307	-3.004700	3.801400	-11.422000	23.508939	0.000517	20.703740
382.104047	-3.003900	3.799700	-11.413000	23.502732	0.000516	20.702260
383.105298	-2.990900	3.800900	-11.368000	23.500620	0.000517	20.715317
384.104019	-2.999600	3.799200	-11.395000	23.505399	0.000516	20.700666
385.106215	-2.984000	3.800500	-11.340000	23.515308	0.000516	20.712022
386.107224	-2.988800	3.801100	-11.360000	23.537385	0.000519	20.706650
387.104700	-2.990700	3.800500	-11.366000	23.536048	0.000517	20.702939
388.104913	-2.985600	3.800500	-11.346000	23.559167	0.000518	20.700510
389.106194	-3.000600	3.799400	-11.399000	23.541316	0.000519	20.683087
390.103349	-2.992100	3.799600	-11.368000	23.535713	0.000518	20.707345
391.105319	-2.989100	3.799600	-11.356000	23.537409	0.000519	20.703830
392.107136	-2.994900	3.799900	-11.379000	23.572900	0.000519	20.701000
393.104799	-2.986400	3.799800	-11.346000	23.593590	0.000519	20.698507
394.104008	-2.966100	3.799200	-11.268000	23.600334	0.000518	20.682981
395.108097	-2.983500	3.799000	-11.334000	23.616815	0.000520	20.694288
396.107200	-2.998700	3.797600	-11.387000	23.584994	0.000518	20.722134
397.106621	-2.992200	3.797400	-11.362000	23.601508	0.000518	20.676097
398.108370	-2.964300	3.798600	-11.260000	23.560929	0.000519	20.694689
399.108578	-2.984800	3.796200	-11.329000	23.561532	0.000518	20.686284
400.107405	-3.025000	3.795100	-11.479000	23.587514	0.000519	20.678664
401.106745	-2.994400	3.797000	-11.368000	23.597251	0.000522	20.679416
402.106554	-3.020400	3.795900	-11.464000	23.630955	0.000520	20.688075
403.107422	-2.989700	3.797200	-11.352000	23.607363	0.000519	20.689555
404.108241	-2.998500	3.796600	-11.383000	23.609557	0.000520	20.698867
405.107244	-2.996400	3.795300	-11.372000	23.652850	0.000520	20.675411
406.107563	-2.992800	3.796300	-11.361000	23.663631	0.000520	20.696177
407.109802	-3.013800	3.794600	-11.435000	23.667439	0.000520	20.680553
408.110188	-3.009800	3.794500	-11.420000	23.644321	0.000522	20.666385
409.115162	-3.007100	3.795400	-11.412000	23.636052	0.000521	20.695556
410.110942	-2.989900	3.794500	-11.344000	23.597203	0.000521	20.676997
411.108726	-2.988000	3.794400	-11.337000	23.661829	0.000521	20.670661
412.110676	-2.996200	3.793800	-11.366000	23.671345	0.000519	20.693006
413.112005	-3.015500	3.793100	-11.438000	23.666738	0.000519	20.686964
414.110744	-3.001000	3.793500	-11.383000	23.666860	0.000520	20.683293
415.109694	-2.978500	3.794300	-11.301000	23.654972	0.000523	20.674218
416.111176	-2.989600	3.791700	-11.335000	23.666029	0.000521	20.700953
417.110968	-3.001500	3.791400	-11.378000	23.676385	0.000522	20.679091
418.110091	-2.985700	3.792600	-11.322000	23.683382	0.000523	20.689426
419.112255	-2.993500	3.791500	-11.349000	23.690876	0.000522	20.679394
420.112019	-3.000400	3.791200	-11.373000	23.699446	0.000522	20.681822
421.110792	-2.994600	3.791000	-11.351000	23.705366	0.000523	20.697242
422.112067	-3.024200	3.790700	-11.462000	23.748378	0.000525	20.679198
423.110515	-2.982600	3.791300	-11.307000	23.739816	0.000523	20.691478
424.111090	-2.958900	3.792500	-11.220000	23.752325	0.000526	20.688846
425.110634	-3.004500	3.788900	-11.383000	23.753091	0.000522	20.684398
426.110603	-2.997300	3.790200	-11.359000	23.770768	0.000526	20.663713
427.113879	-2.978100	3.789300	-11.283000	23.772684	0.000526	20.688870
428.113671	-2.995900	3.789100	-11.351000	23.748925	0.000524	20.676901
429.111796	-3.002500	3.788700	-11.375000	23.758448	0.000524	20.666534
430.115261	-3.000700	3.788200	-11.366000	23.766618	0.000525	20.676623
431.118944	-2.994100	3.788700	-11.343000	23.778392	0.000524	20.681790
432.114194	-2.991100	3.788400	-11.331000	23.770972	0.000524	20.669134
433.118182	-3.005900	3.788200	-11.387000	23.777715	0.000524	20.683483
434.116231	-2.990200	3.788200	-11.327000	23.741163	0.000524	20.663427
435.113954	-2.996900	3.786900	-11.348000	23.759109	0.000525	20.654393
436.118109	-3.013400	3.786200	-11.409000	23.783431	0.000524	20.672617
437.117182	-3.010400	3.787200	-11.400000	23.802013	0.000526	20.692672
438.114369	-2.994600	3.786800	-11.339000	23.828952	0.000525	20.662308
439.121209	-2.994100	3.787900	-11.341000	23.814920	0.000526	20.674318
440.121709	-3.000800	3.788000	-11.365000	23.843709	0.000525	20.664302
441.113204	-3.009000	3.786000	-11.391000	23.855506	0.000527	20.656216
442.114179	-3.000500	3.786700	-11.361000	23.836191	0.000525	20.664826
443.112807	-2.993400	3.786800	-11.334000	23.798091	0.000528	20.670721
444.114787	-3.010500	3.784400	-11.392000	23.836771	0.000525	20.668252
445.115632	-3.023300	3.785500	-11.444000	23.838833	0.000525	20.691185
446.114638	-3.009500	3.784100	-11.387000	23.829702	0.000527	20.662111
447.114861	-3.009000	3.783600	-11.384000	23.845780	0.000527	20.668276
448.115644	-3.026500	3.783300	-11.450000	23.835947	0.000526	20.664581
449.118176	-3.026400	3.782900	-11.448000	23.840276	0.000528	20.683148
450.118182	-3.007700	3.783500	-11.378000	23.862257	0.000526	20.671996
451.115687	-3.020500	3.783300	-11.425000	23.863667	0.000526	20.666297
452.119287	-3.009000	3.783100	-11.382000	23.863765	0.000527	20.687260
453.118907	-3.004200	3.783000	-11.364000	23.820790	0.000528	20.679731
454.119192	-2.988700	3.783500	-11.306000	23.863023	0.000529	20.674187
455.121196	-2.987700	3.782400	-11.300000	23.865567	0.000529	20.681480
456.117659	-2.994100	3.783300	-11.327000	23.883463	0.000526	20.696581
457.121076	-2.992400	3.781700	-11.316000	23.869448	0.000528	20.693907
458.121684	-2.987300	3.782100	-11.297000	23.877804	0.000527	20.676207
459.121311	-2.981400	3.781100	-11.272000	23.890221	0.000527	20.658309
460.122750	-3.005600	3.781200	-11.364000	23.888036	0.000528	20.663706
461.120523	-3.007600	3.781700	-11.372000	23.895748	0.000527	20.671914
462.119764	-2.999900	3.780500	-11.340000	23.897640	0.000529	20.680924
463.119114	-2.997700	3.780000	-11.330000	23.915388	0.000526	20.685445
464.119222	-2.998400	3.779600	-11.332000	23.913439	0.000529	20.682068
465.119715	-3.001600	3.779700	-11.344000	23.921511	0.000528	20.688266
466.121231	-2.979600	3.779500	-11.261000	23.937767	0.000524	20.666633
467.124243	-2.979800	3.780400	-11.263000	23.921861	0.000528	20.690989
468.123189	-3.006300	3.779200	-11.360000	23.903371	0.000529	20.669126
469.119136	-3.011500	3.779000	-11.379000	23.911459	0.000528	20.694308
470.120898	-3.002900	3.778500	-11.346000	23.927886	0.000529	20.672372
471.121872	-3.010700	3.778500	-11.374000	23.932020	0.000528	20.687424
472.121440	-3.005100	3.778700	-11.354000	23.931522	0.000529	20.668906
473.121375	-3.020600	3.778200	-11.411000	23.936047	0.000529	20.660640
474.121097	-3.021800	3.777100	-11.413000	23.924723	0.000529	20.689116
475.122032	-3.017200	3.776700	-11.394000	23.943148	0.000528	20.683410
476.121179	-3.001500	3.776000	-11.333000	23.956159	0.000528	20.680810
477.122806	-2.997400	3.776600	-11.319000	23.968681	0.000527	20.686255
478.128025	-2.992100	3.776200	-11.297000	23.992444	0.000530	20.686378
479.121836	-2.999600	3.775200	-11.324000	24.023454	0.000529	20.680017
480.123102	-2.999000	3.775400	-11.321000	24.018432	0.000529	20.685888
481.123250	-3.010800	3.775200	-11.366000	24.035184	0.000530	20.677557
482.128906	-3.014800	3.774100	-11.377000	24.008357	0.000531	20.699492
483.122937	-3.017000	3.773100	-11.382000	24.014308	0.000531	20.684122
484.123789	-3.017500	3.774100	-11.386000	23.992436	0.000528	20.683051
485.122798	-2.985100	3.775100	-11.268000	23.971958	0.000529	20.693336
486.123677	-2.999800	3.773900	-11.320000	23.965690	0.000530	20.694636
487.123152	-2.988000	3.774600	-11.277000	23.959070	0.000530	20.681359
488.125769	-2.992100	3.773800	-11.289000	23.989257	0.000530	20.682234
489.124762	-2.986000	3.773800	-11.268000	23.982516	0.000531	20.674524
490.125203	-3.022900	3.772900	-11.404000	24.008969	0.000530	20.692993
491.123937	-3.015100	3.771800	-11.371000	23.990334	0.000530	20.684262
492.125426	-3.032300	3.771800	-11.436000	23.974926	0.000531	20.678293
493.126106	-3.015300	3.771700	-11.372000	23.987497	0.000528	20.695642
494.125653	-2.968300	3.772900	-11.198000	24.028134	0.000529	20.696092
495.129721	-3.004100	3.770100	-11.325000	24.016615	0.000530	20.688808
496.125687	-2.979100	3.772200	-11.237000	24.054537	0.000530	20.668989
497.126383	-3.006000	3.771400	-11.336000	24.029658	0.000531	20.703786
498.130109	-3.011100	3.771500	-11.355000	24.032879	0.000529	20.694212
499.130186	-2.991100	3.772300	-11.282000	24.054097	0.000531	20.687990
500.127088	-3.003700	3.770600	-11.324000	24.054456	0.000531	20.693092
501.129233	-3.001300	3.770100	-11.315000	24.010331	0.000531	20.710008
502.125669	-2.994200	3.770800	-11.289000	24.009288	0.000533	20.682406
503.125763	-3.014200	3.770000	-11.362000	23.990555	0.000530	20.698709
504.131706	-2.995100	3.770100	-11.291000	24.041307	0.000533	20.687017
505.126501	-3.006300	3.768600	-11.328000	24.070775	0.000528	20.689070
506.127485	-3.009600	3.767000	-11.336000	24.132357	0.000532	20.702944
507.130148	-3.017300	3.768200	-11.368000	24.113169	0.000530	20.690811
508.127710	-3.011400	3.768600	-11.348000	24.090354	0.000530	20.706337
509.128905	-3.016600	3.767000	-11.363000	24.109746	0.000528	20.700655
510.133161	-2.999600	3.766800	-11.298000	24.122185	0.000533	20.688947
511.129510	-2.972500	3.768300	-11.200000	24.152710	0.000531	20.699175
512.126698	-2.972700	3.768900	-11.204000	24.171228	0.000532	20.703050
513.133603	-2.990100	3.768300	-11.267000	24.159157	0.000531	20.686674
514.129044	-2.999900	3.767700	-11.301000	24.180781	0.000531	20.711684
515.129875	-3.005500	3.765700	-11.317000	24.144917	0.000532	20.708430
516.133497	-2.987400	3.767100	-11.253000	24.130670	0.000531	20.708365
517.129914	-3.020400	3.765100	-11.371000	24.147159	0.000533	20.728697
518.131691	-3.009600	3.765000	-11.331000	24.174456	0.000532	20.702968
519.135134	-2.997400	3.766000	-11.287000	24.171970	0.000531	20.707114
520.129635	-2.996900	3.766000	-11.284000	24.195134	0.000528	20.697630
521.132970	-2.999400	3.764500	-11.290000	24.216610	0.000532	20.710163
522.135117	-2.996100	3.765400	-11.280000	24.222430	0.000531	20.734020
523.129773	-2.993900	3.764100	-11.268000	24.238779	0.000532	20.705847
524.133819	-3.018900	3.763600	-11.360000	24.193447	0.000532	20.679815
525.133420	-3.008800	3.764200	-11.325000	24.202054	0.000531	20.704097
526.132348	-3.018900	3.762800	-11.358000	24.232512	0.000532	20.692921
527.140313	-2.996800	3.763200	-11.277000	24.227556	0.000531	20.699805
528.136750	-3.006300	3.761500	-11.308000	24.201019	0.000532	20.706378
529.134018	-2.997400	3.762700	-11.277000	24.223799	0.000533	20.674222
530.136406	-2.983600	3.762600	-11.225000	24.236196	0.000530	20.710368
531.136355	-2.998100	3.761400	-11.276000	24.240190	0.000533	20.719116
532.136810	-3.018600	3.762800	-11.357000	24.246335	0.000533	20.697304
533.137141	-3.004400	3.762200	-11.302000	24.238543	0.000531	20.725052
534.135999	-2.973700	3.760900	-11.183000	24.245496	0.000532	20.702152
535.135859	-2.988800	3.762200	-11.243000	24.244901	0.000530	20.706772
536.140738	-3.022100	3.761700	-11.368000	24.262961	0.000532	20.720621
537.139615	-3.007500	3.761200	-11.311000	24.262562	0.000533	20.710737
538.137282	-2.989100	3.761600	-11.243000	24.231836	0.000531	20.719272
539.140345	-2.997600	3.760900	-11.271000	24.162443	0.000532	20.689970
540.139408	-3.003300	3.759000	-11.288000	24.138635	0.000532	20.714457
541.138968	-2.972000	3.760200	-11.174000	24.165410	0.000532	20.700059
542.139042	-2.995100	3.759400	-11.259000	24.155638	0.000530	20.727244
543.141813	-3.002400	3.758600	-11.284000	24.223931	0.000532	20.714187
544.147512	-3.037600	3.757800	-11.414000	24.204354	0.000530	20.709249
545.141851	-3.013600	3.757800	-11.322000	24.238112	0.000534	20.716084
546.145207	-2.993600	3.757700	-11.248000	24.199023	0.000532	20.735672
547.141534	-2.991800	3.758900	-11.245000	24.229008	0.000531	20.727342
548.142957	-2.990800	3.757400	-11.237000	24.192185	0.000532	20.728813
549.143771	-2.987000	3.757100	-11.222000	24.206407	0.000530	20.730276
550.143679	-3.015700	3.757600	-11.331000	24.223809	0.000532	20.720229
551.142579	-3.007900	3.756700	-11.299000	24.265081	0.000531	20.721324
552.142567	-3.008700	3.756600	-11.301000	24.272008	0.000532	20.736335
553.145426	-3.014400	3.757000	-11.323000	24.274608	0.000533	20.719027
554.142440	-3.010500	3.757300	-11.311000	24.290255	0.000533	20.729508
555.143105	-2.988800	3.756300	-11.226000	24.343048	0.000532	20.726990
556.142850	-2.981200	3.755900	-11.196000	24.317320	0.000531	20.726311
557.144176	-2.988300	3.756100	-11.224000	24.299139	0.000532	20.736997
558.144610	-2.983700	3.755600	-11.205000	24.263931	0.000531	20.720171
559.144015	-3.016400	3.755400	-11.326000	24.228429	0.000531	20.731977
560.149959	-3.008100	3.754500	-11.293000	24.208649	0.000531	20.729680
561.152240	-2.994700	3.753900	-11.241000	24.223434	0.000531	20.730759
562.146767	-2.993000	3.754500	-11.236000	24.269286	0.000529	20.726491
563.150657	-2.990700	3.753400	-11.225000	24.308470	0.000530	20.715536
564.147669	-3.009500	3.753000	-11.293000	24.317899	0.000531	20.728315
565.145157	-2.987200	3.753300	-11.211000	24.326676	0.000530	20.726687
566.148848	-3.007700	3.753300	-11.288000	24.274494	0.000530	20.734087
567.146655	-3.019300	3.753900	-11.333000	24.313221	0.000529	20.744486
568.148161	-2.996500	3.753300	-11.246000	24.289856	0.000531	20.740488
569.147198	-3.003200	3.753600	-11.272000	24.249213	0.000529	20.715839
570.146474	-2.988600	3.753200	-11.215000	24.265562	0.000531	20.730817
571.146576	-3.004400	3.750700	-11.267000	24.289270	0.000531	20.746538
572.146292	-2.987000	3.751500	-11.205000	24.335690	0.000530	20.743317
573.145627	-2.982400	3.751800	-11.189000	24.334671	0.000531	20.755572
574.147121	-3.015300	3.750000	-11.306000	24.332813	0.000528	20.742802
575.147084	-2.998500	3.751400	-11.248000	24.307884	0.000531	20.744821
576.147688	-3.001500	3.751200	-11.257000	24.327492	0.000530	20.756431
577.147415	-3.015300	3.751100	-11.309000	24.337141	0.000530	20.744772
578.147257	-3.011000	3.751500	-11.295000	24.353464	0.000532	20.729378
579.150676	-2.986600	3.750000	-11.199000	24.319212	0.000531	20.745280
580.150931	-2.971800	3.749500	-11.142000	24.328739	0.000532	20.731602
581.148732	-2.992900	3.750500	-11.224000	24.308618	0.000530	20.759783
582.149730	-3.008300	3.748400	-11.276000	24.318642	0.000530	20.728585
583.151471	-3.019600	3.749000	-11.320000	24.364091	0.000530	20.766119
584.151058	-2.999600	3.748600	-11.244000	24.364197	0.000530	20.736827
585.149211	-2.995500	3.749200	-11.230000	24.415242	0.000530	20.730188
586.156927	-3.012100	3.749100	-11.292000	24.434775	0.000530	20.757372
587.152780	-3.010100	3.748400	-11.282000	24.426056	0.000528	20.732976
588.152621	-2.998200	3.748600	-11.237000	24.357433	0.000530	20.751379
589.157883	-2.995800	3.747100	-11.225000	24.361712	0.000528	20.731014
590.152550	-3.019400	3.745700	-11.309000	24.359870	0.000528	20.756668
591.151781	-3.013100	3.746700	-11.288000	24.362632	0.000529	20.746637
592.156498	-2.981100	3.747900	-11.172000	24.404087	0.000529	20.749344
593.151134	-2.991500	3.745700	-11.205000	24.397087	0.000532	20.755597
594.150971	-2.998800	3.745100	-11.230000	24.401496	0.000529	20.765236
595.154607	-2.986800	3.745300	-11.186000	24.368663	0.000529	20.740833
596.153720	-3.003700	3.745900	-11.250000	24.391350	0.000529	20.760748
597.151443	-3.018900	3.745400	-11.306000	24.399483	0.000528	20.738086
598.157115	-3.004800	3.745100	-11.251000	24.376951	0.000528	20.733026
599.154363	-2.993200	3.744500	-11.207000	24.367343	0.000527	20.754208
600.153555	-2.976800	3.745900	-11.150000	24.401578	0.000528	20.743033
601.157304	-3.000600	3.744700	-11.236000	24.425673	0.000532	20.761517
602.153618	-3.004700	3.744100	-11.249000	24.450935	0.000528	20.744660
603.155050	-2.996600	3.745100	-11.221000	24.443071	0.000530	20.753841
604.160287	-2.995300	3.743400	-11.211000	24.431207	0.000529	20.733402
605.155727	-2.969300	3.743700	-11.115000	24.446209	0.000531	20.744660
606.158491	-3.022400	3.741900	-11.308000	24.474639	0.000530	20.746630
607.162083	-3.018200	3.743000	-11.296000	24.498333	0.000528	20.768981
608.159405	-3.019100	3.741300	-11.294000	24.499800	0.000528	20.752908
609.158535	-2.998200	3.742600	-11.221000	24.517539	0.000528	20.744152
610.163393	-2.998100	3.742600	-11.220000	24.492394	0.000527	20.771082
611.160488	-3.009700	3.741900	-11.261000	24.497470	0.000529	20.780443
612.160206	-2.995800	3.741600	-11.208000	24.494031	0.000527	20.738585
613.162107	-2.994100	3.741600	-11.202000	24.541787	0.000530	20.772750
614.166502	-3.008300	3.741600	-11.255000	24.517938	0.000527	20.756407
615.160156	-3.012300	3.740300	-11.267000	24.534690	0.000527	20.769422
616.164796	-2.986900	3.741100	-11.174000	24.544769	0.000527	20.762939
617.161294	-3.002600	3.741500	-11.233000	24.544891	0.000529	20.773967
618.162466	-3.005600	3.741100	-11.244000	24.491586	0.000527	20.757944
619.167892	-2.981600	3.739400	-11.149000	24.459165	0.000529	20.777573
620.161222	-3.036800	3.739100	-11.353000	24.461690	0.000526	20.745967
621.163043	-2.996400	3.738700	-11.202000	24.477466	0.000528	20.759424
622.163661	-3.003500	3.739000	-11.229000	24.453558	0.000527	20.780957
623.164751	-2.976700	3.739100	-11.129000	24.453558	0.000525	20.772897
624.162629	-2.985400	3.740300	-11.165000	24.488613	0.000527	20.758754
625.163409	-2.998700	3.739300	-11.212000	24.540638	0.000526	20.765907
626.162231	-2.985800	3.737300	-11.158000	24.567632	0.000527	20.775448
627.162934	-3.008900	3.737100	-11.243000	24.571876	0.000526	20.774016
628.165895	-2.995500	3.737800	-11.195000	24.556193	0.000527	20.798583
629.164326	-3.018700	3.737700	-11.282000	24.530698	0.000527	20.788651
630.166110	-3.008700	3.737200	-11.243000	24.495832	0.000525	20.784016
631.164129	-3.004200	3.735900	-11.223000	24.516675	0.000527	20.772211
632.166186	-3.012100	3.737000	-11.255000	24.524554	0.000525	20.771581
633.163980	-2.990400	3.737600	-11.176000	24.537664	0.000525	20.789476
634.164754	-2.991000	3.736200	-11.174000	24.515974	0.000528	20.769136
635.167225	-3.001900	3.736700	-11.216000	24.480978	0.000525	20.793768
636.164806	-2.991000	3.735100	-11.171000	24.507370	0.000526	20.785160
637.168068	-2.989700	3.736200	-11.169000	24.543792	0.000527	20.766227
638.163344	-2.986800	3.736000	-11.157000	24.575527	0.000526	20.782422
639.162934	-3.016800	3.734600	-11.266000	24.592369	0.000524	20.790311
640.167175	-2.999900	3.734000	-11.200000	24.594292	0.000526	20.782283
641.165883	-2.988000	3.735500	-11.160000	24.628763	0.000525	20.792216
642.166983	-3.008300	3.734800	-11.235000	24.581834	0.000524	20.778792
643.164415	-3.009600	3.733700	-11.236000	24.565042	0.000526	20.779961
644.167832	-2.976700	3.734200	-11.115000	24.606481	0.000522	20.783608
645.164605	-2.996100	3.734000	-11.186000	24.619419	0.000524	20.773830
646.166140	-2.987600	3.733600	-11.153000	24.624080	0.000525	20.780878
647.167584	-2.989000	3.732900	-11.157000	24.612193	0.000524	20.788391
648.166350	-3.000900	3.733200	-11.202000	24.570160	0.000523	20.779881
649.163063	-2.998100	3.731400	-11.185000	24.583269	0.000522	20.791138
650.168334	-3.023900	3.731000	-11.281000	24.602302	0.000524	20.778941
651.168988	-2.994200	3.732500	-11.175000	24.642590	0.000524	20.785702
652.168797	-3.017600	3.731700	-11.261000	24.650648	0.000523	20.788571
653.166690	-3.017400	3.731900	-11.260000	24.637889	0.000523	20.790468
654.165728	-2.988100	3.731800	-11.150000	24.647056	0.000523	20.771690
655.167484	-2.972100	3.730700	-11.086000	24.669835	0.000524	20.786013
656.168266	-2.984300	3.732300	-11.137000	24.696752	0.000522	20.791687
657.167710	-3.007000	3.731200	-11.218000	24.713119	0.000521	20.799102
658.169823	-3.028300	3.730500	-11.296000	24.689738	0.000522	20.804088
659.166571	-3.009400	3.729300	-11.223000	24.686113	0.000521	20.800925
660.168155	-2.987900	3.730800	-11.147000	24.644726	0.000521	20.781206
661.168639	-2.999200	3.728700	-11.182000	24.638714	0.000523	20.813580
662.167249	-3.000600	3.728800	-11.188000	24.641802	0.000522	20.789178
663.170440	-2.991100	3.728700	-11.152000	24.681958	0.000522	20.794385
664.168445	-2.982000	3.730400	-11.123000	24.666202	0.000522	20.796119
665.168229	-3.024900	3.726900	-11.272000	24.662715	0.000522	20.818223
666.170908	-3.003300	3.727600	-11.194000	24.663114	0.000522	20.794917
667.169808	-3.006700	3.728900	-11.211000	24.662666	0.000522	20.811536
668.169830	-2.987200	3.727500	-11.134000	24.641606	0.000523	20.784240
669.168540	-2.992200	3.726900	-11.151000	24.632726	0.000521	20.796192
670.171989	-3.009200	3.726200	-11.212000	24.684003	0.000520	20.816825
671.174051	-2.993900	3.727700	-11.160000	24.681893	0.000522	20.803803
672.170644	-3.022800	3.726700	-11.264000	24.663090	0.000520	20.812436
673.175390	-2.984900	3.728400	-11.129000	24.682512	0.000523	20.789251
674.168581	-3.017600	3.725400	-11.240000	24.685454	0.000522	20.815436
675.171022	-3.022400	3.725700	-11.260000	24.665901	0.000523	20.812411
676.170428	-3.021200	3.725200	-11.254000	24.708826	0.000521	20.796691
677.172551	-2.990000	3.725500	-11.138000	24.703474	0.000522	20.811234
678.173892	-3.006800	3.725200	-11.199000	24.706129	0.000521	20.805364
679.175605	-2.986700	3.725100	-11.124000	24.694431	0.000521	20.815436
680.172736	-2.995100	3.725300	-11.156000	24.678186	0.000521	20.814782
681.173220	-2.991400	3.724800	-11.142000	24.680915	0.000519	20.827477
682.175547	-3.021600	3.724600	-11.254000	24.688704	0.000519	20.803999
683.173767	-3.011100	3.725100	-11.215000	24.724361	0.000521	20.805168
684.183411	-3.007200	3.725100	-11.201000	24.691963	0.000519	20.825287
685.186635	-2.976700	3.723900	-11.084000	24.711979	0.000518	20.818346
686.173963	-3.007500	3.722900	-11.196000	24.628245	0.000519	20.816351
687.175253	-2.996000	3.721800	-11.150000	24.640921	0.000520	20.802519
688.176228	-3.006000	3.722200	-11.188000	24.629181	0.000518	20.835308
689.177248	-3.018200	3.722300	-11.233000	24.611380	0.000519	20.831671
690.177911	-2.970400	3.722600	-11.056000	24.621987	0.000521	20.816236
691.177282	-2.961700	3.722500	-11.024000	24.683090	0.000519	20.832978
692.177890	-3.007600	3.722200	-11.194000	24.683025	0.000518	20.814896
693.177068	-2.996000	3.721800	-11.150000	24.686519	0.000518	20.819350
694.179459	-3.001000	3.721400	-11.167000	24.715016	0.000518	20.816178
695.178510	-3.006400	3.720700	-11.185000	24.737672	0.000520	20.826111
696.178786	-3.009600	3.721100	-11.198000	24.728597	0.000517	20.831228
697.182414	-3.015500	3.721100	-11.220000	24.743570	0.000519	20.840564
698.180063	-3.001800	3.721000	-11.169000	24.719799	0.000517	20.813391
699.188150	-3.015800	3.718700	-11.213000	24.708182	0.000516	20.848199
700.184682	-2.991400	3.719900	-11.127000	24.745688	0.000517	20.841742
701.182405	-3.004000	3.719500	-11.172000	24.784578	0.000516	20.830983
702.180295	-2.966100	3.721000	-11.036000	24.814792	0.000518	20.800614
703.182535	-3.022100	3.718600	-11.236000	24.802157	0.000514	20.839616
704.181176	-3.020200	3.718600	-11.231000	24.823744	0.000514	20.829512
705.186886	-2.997400	3.719200	-11.147000	24.813676	0.000515	20.821305
706.183005	-3.029900	3.717200	-11.261000	24.847888	0.000516	20.815811
707.181436	-2.988000	3.718900	-11.112000	24.803901	0.000516	20.824297
708.183922	-2.994500	3.718300	-11.134000	24.788285	0.000515	20.845134
709.182438	-2.981600	3.718700	-11.087000	24.761109	0.000516	20.825924
710.185541	-3.000800	3.718400	-11.157000	24.783462	0.000513	20.844088
711.183515	-3.025200	3.716800	-11.243000	24.770559	0.000515	20.830191
712.183720	-2.992700	3.718500	-11.127000	24.760173	0.000515	20.811234
713.183583	-3.021100	3.716900	-11.228000	24.760018	0.000515	20.812975
714.184655	-3.005200	3.717200	-11.170000	24.765133	0.000513	20.815263
715.188829	-3.008300	3.716000	-11.178000	24.754153	0.000513	20.835537
716.185218	-3.004900	3.715800	-11.164000	24.768653	0.000514	20.836813
717.185696	-2.987600	3.717100	-11.104000	24.775496	0.000512	20.828982
718.184986	-3.007300	3.714800	-11.171000	24.756247	0.000513	20.818673
719.185246	-3.024900	3.713700	-11.233000	24.731653	0.000514	20.830502
720.187906	-2.990000	3.715000	-11.107000	24.703580	0.000515	20.817978
721.188175	-2.999800	3.714400	-11.142000	24.713649	0.000513	20.803901
722.186242	-3.018500	3.714800	-11.212000	24.753787	0.000513	20.830429
723.185203	-3.007700	3.713800	-11.169000	24.766430	0.000513	20.814668
724.185080	-3.007900	3.714200	-11.172000	24.765982	0.000511	20.819908
725.186122	-2.975800	3.715000	-11.054000	24.760923	0.000513	20.819098
726.189435	-2.985700	3.715600	-11.093000	24.768311	0.000513	20.810392
727.187766	-2.975200	3.714500	-11.050000	24.747873	0.000511	20.815011
728.189216	-3.026100	3.711900	-11.231000	24.758886	0.000511	20.805201
729.187539	-3.003300	3.712800	-11.150000	24.751009	0.000512	20.813891
730.187555	-2.995500	3.713700	-11.123000	24.747848	0.000511	20.816409
731.191785	-2.966600	3.712100	-11.012000	24.742333	0.000510	20.817513
732.188732	-3.033700	3.710400	-11.254000	24.736322	0.000511	20.817170
733.187762	-2.993200	3.713000	-11.113000	24.734008	0.000511	20.809158
734.188159	-2.996500	3.712900	-11.125000	24.761315	0.000511	20.815224
735.188169	-2.981300	3.712400	-11.066000	24.792352	0.000511	20.803698
736.192183	-3.004500	3.711400	-11.150000	24.800880	0.000508	20.793291
737.189754	-3.000400	3.711600	-11.135000	24.799862	0.000510	20.822615
738.189275	-3.000400	3.710800	-11.133000	24.807056	0.000510	20.799962
739.188723	-2.982400	3.712700	-11.072000	24.796881	0.000509	20.808243
740.188804	-3.008200	3.709700	-11.159000	24.809686	0.000509	20.790749
741.190156	-3.034300	3.709500	-11.255000	24.816611	0.000509	20.777783
742.192173	-3.013400	3.709500	-11.177000	24.795268	0.000509	20.805677
743.190049	-3.007600	3.709600	-11.156000	24.838930	0.000507	20.802079
744.194818	-3.006000	3.708700	-11.147000	24.830931	0.000510	20.800690
745.192080	-3.008100	3.709000	-11.156000	24.838572	0.000508	20.801720
746.190850	-3.004200	3.708200	-11.139000	24.816709	0.000508	20.795899
747.192740	-3.019800	3.708000	-11.196000	24.804702	0.000510	20.797126
748.189703	-3.015300	3.708600	-11.181000	24.818077	0.000508	20.810549
749.192425	-3.003800	3.707200	-11.135000	24.851548	0.000509	20.785820
750.192000	-2.969700	3.710600	-11.019000	24.871920	0.000507	20.812904
751.190883	-2.993100	3.706900	-11.094000	24.870927	0.000508	20.795311
752.195323	-2.988800	3.708200	-11.082000	24.830793	0.000508	20.776370
753.194823	-2.991000	3.707300	-11.087000	24.838499	0.000507	20.788371
754.191779	-2.997800	3.706100	-11.109000	24.833701	0.000507	20.801099
755.192893	-2.995000	3.706300	-11.099000	24.823380	0.000508	20.785526
756.191109	-2.997900	3.705400	-11.107000	24.830166	0.000507	20.797077
757.193782	-2.999100	3.705700	-11.114000	24.786928	0.000505	20.796832
758.195811	-3.010200	3.706800	-11.158000	24.773470	0.000508	20.789965
759.193507	-3.010600	3.706100	-11.157000	24.765145	0.000506	20.793464
760.193592	-3.021100	3.706500	-11.196000	24.752095	0.000506	20.786058
761.204397	-3.014800	3.705200	-11.168000	24.756094	0.000504	20.799554
762.196105	-2.993600	3.706100	-11.094000	24.766285	0.000505	20.783228
763.197350	-2.983900	3.704700	-11.053000	24.804857	0.000506	20.804868
764.193975	-2.975000	3.705300	-11.022000	24.836935	0.000502	20.792017
765.194341	-2.973500	3.705500	-11.017000	24.851849	0.000504	20.793709
766.196482	-2.973500	3.704900	-11.015000	24.894850	0.000506	20.788976
767.195349	-2.978700	3.705900	-11.038000	24.872042	0.000504	20.768930
768.198563	-3.001200	3.704400	-11.117000	24.863449	0.000505	20.768841
769.197670	-3.008200	3.704400	-11.143000	24.861005	0.000502	20.788673
770.201534	-2.991900	3.703700	-11.080000	24.913795	0.000504	20.780964
771.198983	-2.995300	3.703300	-11.091000	24.933173	0.000502	20.782870
772.199178	-2.988600	3.703500	-11.067000	24.924612	0.000505	20.775225
773.198776	-2.979900	3.703000	-11.033000	24.923627	0.000502	20.791781
774.201682	-2.991600	3.703000	-11.078000	24.935681	0.000503	20.778749
775.199521	-3.011900	3.702200	-11.149000	24.936650	0.000504	20.776877
776.202503	-2.994000	3.701900	-11.083000	24.941456	0.000502	20.764631
777.200595	-3.006000	3.702000	-11.127000	24.945211	0.000503	20.784995
778.201334	-3.014400	3.701700	-11.158000	24.949984	0.000501	20.776509
779.203228	-3.015000	3.701400	-11.159000	24.913054	0.000502	20.774057
780.202210	-2.985400	3.700800	-11.048000	24.906449	0.000501	20.793032
781.203567	-2.986600	3.700700	-11.051000	24.934867	0.000500	20.795950
782.205403	-3.014500	3.700000	-11.153000	24.947695	0.000501	20.788437
783.203987	-2.997800	3.700500	-11.093000	24.915449	0.000501	20.763184
784.208259	-3.030100	3.701000	-11.213000	24.931707	0.000501	20.784717
785.205953	-3.017300	3.699900	-11.163000	24.935348	0.000503	20.772725
786.204399	-2.985000	3.701100	-11.047000	24.936537	0.000501	20.780082
787.205938	-2.972300	3.699800	-10.996000	24.934705	0.000501	20.773502
788.206957	-2.985200	3.700700	-11.046000	24.944592	0.000501	20.757347
789.211155	-3.018000	3.698100	-11.159000	24.900463	0.000499	20.775643
790.209886	-3.023800	3.699000	-11.184000	24.882706	0.000499	20.782003
791.209438	-3.014600	3.698100	-11.148000	24.918985	0.000499	20.771948
792.208521	-2.998600	3.699700	-11.093000	24.925379	0.000498	20.779788
793.210609	-2.992100	3.699300	-11.067000	24.945872	0.000499	20.754838
794.208366	-2.994100	3.698600	-11.073000	24.944552	0.000497	20.758255
795.213442	-2.993000	3.697300	-11.064000	24.959123	0.000498	20.779519
796.209783	-2.999400	3.697600	-11.090000	24.948877	0.000496	20.754061
797.209162	-2.982800	3.697500	-11.028000	24.939267	0.000496	20.763381
798.208868	-3.011800	3.696200	-11.131000	24.970917	0.000497	20.747734
799.210776	-2.996400	3.696900	-11.076000	24.944210	0.000499	20.758860
800.210663	-2.994300	3.697300	-11.070000	24.936009	0.000496	20.766750
801.210978	-3.008700	3.695300	-11.117000	24.962301	0.000497	20.762793
802.210851	-3.016300	3.694800	-11.144000	24.992997	0.000498	20.772742
803.210537	-3.007600	3.695100	-11.113000	24.947697	0.000497	20.771369
804.209186	-2.993000	3.696400	-11.062000	24.992208	0.000495	20.776691
805.211930	-3.032000	3.694500	-11.200000	24.986865	0.000496	20.768483
806.211592	-2.990400	3.695000	-11.048000	24.994822	0.000493	20.737115
807.210074	-3.009200	3.694800	-11.118000	24.962154	0.000494	20.761224
808.212617	-3.000900	3.695000	-11.087000	24.915142	0.000495	20.747228
809.210892	-3.005200	3.694400	-11.102000	24.887391	0.000495	20.751618
810.210310	-3.014100	3.693700	-11.131000	24.891847	0.000495	20.757987
811.212365	-2.984400	3.695100	-11.026000	24.899348	0.000492	20.754136
812.209576	-2.989900	3.694200	-11.044000	24.942338	0.000492	20.741807
813.209609	-2.995000	3.694100	-11.062000	24.973720	0.000495	20.736796
814.210827	-3.015700	3.693000	-11.135000	24.954181	0.000493	20.750850
815.213722	-2.996400	3.693000	-11.065000	24.957382	0.000494	20.754537
816.214323	-3.018300	3.691600	-11.142000	24.951103	0.000495	20.757243
817.210926	-3.003800	3.693300	-11.092000	24.990473	0.000490	20.752664
818.211385	-3.001600	3.692700	-11.083000	25.007488	0.000491	20.757415
819.212780	-2.996700	3.693500	-11.068000	24.998187	0.000491	20.760407
820.212774	-3.010900	3.692300	-11.116000	25.008042	0.000491	20.761764
821.214386	-3.005200	3.690200	-11.089000	24.984447	0.000494	20.754202
822.211090	-3.009900	3.691900	-11.111000	24.980367	0.000490	20.763857
823.211782	-3.019600	3.689500	-11.140000	24.993675	0.000493	20.749240
824.217155	-2.999000	3.691200	-11.069000	24.951005	0.000491	20.747188
825.211322	-3.006100	3.689300	-11.089000	24.973330	0.000492	20.747784
826.216441	-2.990800	3.689900	-11.034000	24.977361	0.000491	20.731442
827.212174	-2.997200	3.691200	-11.062000	24.987053	0.000491	20.744964
828.213338	-2.991900	3.691000	-11.042000	24.983877	0.000488	20.744621
829.213631	-2.981600	3.690700	-11.004000	25.027988	0.000490	20.750965
830.214454	-2.985400	3.688900	-11.011000	25.047973	0.000489	20.736413
831.215063	-2.995700	3.688900	-11.050000	25.056939	0.000491	20.756319
832.219067	-3.022700	3.688000	-11.146000	25.014655	0.000488	20.734737
833.214315	-2.986700	3.688600	-11.016000	24.964314	0.000488	20.750115
834.216056	-3.026200	3.688400	-11.161000	24.951185	0.000487	20.750687
835.220648	-3.024600	3.687100	-11.151000	24.985075	0.000488	20.728278
836.213544	-2.997300	3.688400	-11.054000	25.021097	0.000490	20.756851
837.221931	-2.998800	3.688200	-11.059000	25.023240	0.000487	20.736716
838.215643	-3.002200	3.687200	-11.068000	24.946591	0.000488	20.745602
839.216693	-2.999400	3.687700	-11.060000	24.946216	0.000486	20.748545
840.216895	-3.002400	3.687600	-11.071000	24.953034	0.000484	20.753492
841.217993	-2.974700	3.687500	-10.968000	24.986891	0.000488	20.756181
842.219345	-2.981000	3.686900	-10.990000	24.985172	0.000487	20.732170
843.218306	-2.997900	3.685900	-11.050000	24.953400	0.000487	20.756230
844.217513	-2.978100	3.686200	-10.977000	24.953742	0.000488	20.748986
845.218143	-2.995100	3.686100	-11.040000	24.990076	0.000486	20.738040
846.216383	-3.000500	3.685700	-11.058000	24.984627	0.000486	20.703645
847.218443	-2.999900	3.684500	-11.052000	24.984170	0.000488	20.737328
848.223939	-3.013600	3.686200	-11.108000	25.000215	0.000487	20.729725
849.221188	-3.010200	3.684600	-11.090000	25.033403	0.000487	20.721313
850.219003	-3.013100	3.684300	-11.100000	25.058723	0.000482	20.733452
851.222803	-2.983900	3.683800	-10.991000	25.068675	0.000483	20.733011
852.221602	-2.991300	3.685400	-11.023000	25.080761	0.000484	20.744196
853.225574	-2.988800	3.684500	-11.012000	25.061093	0.000484	20.733461
854.223905	-2.984000	3.684000	-10.992000	25.049936	0.000483	20.719416
855.223636	-3.008600	3.684300	-11.084000	25.072234	0.000483	20.737058
856.222837	-2.986400	3.685000	-11.004000	25.072804	0.000484	20.715344
857.222200	-2.991600	3.683600	-11.019000	25.067861	0.000484	20.742626
858.226795	-3.013800	3.683100	-11.100000	25.049040	0.000484	20.719465
859.229405	-3.004500	3.682600	-11.063000	25.087944	0.000480	20.727223
860.224209	-3.003900	3.681700	-11.059000	25.111341	0.000481	20.732693
861.223786	-2.992400	3.683900	-11.022000	25.052143	0.000482	20.709302
862.226885	-3.008900	3.682100	-11.078000	25.026994	0.000479	20.714879
863.226818	-3.002200	3.681300	-11.050000	25.040937	0.000482	20.713701
864.229844	-2.978100	3.682300	-10.965000	25.043543	0.000482	20.720585
865.229795	-3.002500	3.681600	-11.054000	25.026382	0.000481	20.729913
866.224042	-3.011000	3.681600	-11.084000	25.057217	0.000481	20.725776
867.225228	-3.002700	3.680500	-11.051000	25.100925	0.000480	20.724133
868.225029	-2.987900	3.682100	-11.001000	25.081812	0.000481	20.735293
869.231119	-2.988200	3.679300	-10.993000	25.072381	0.000480	20.736731
870.230457	-2.995400	3.680100	-11.022000	25.062641	0.000481	20.725057
871.226617	-2.999900	3.680500	-11.039000	25.053389	0.000479	20.718140
872.229825	-3.021500	3.678200	-11.112000	25.108531	0.000481	20.741253
873.224990	-3.000900	3.678800	-11.038000	25.134085	0.000478	20.713325
874.225921	-2.982600	3.679100	-10.972000	25.121333	0.000480	20.728499
875.227168	-2.984000	3.678800	-10.977000	25.134085	0.000476	20.722334
876.225983	-2.990600	3.677900	-10.997000	25.061541	0.000479	20.699769
877.225451	-3.005400	3.679500	-11.058000	25.006494	0.000478	20.728915
878.231455	-3.002200	3.679400	-11.044000	24.996102	0.000478	20.711845
879.227018	-3.016500	3.678300	-11.095000	24.996501	0.000477	20.718884
880.233553	-2.974300	3.677600	-10.938000	25.011023	0.000476	20.701216
881.229637	-2.992600	3.678400	-11.006000	25.002291	0.000475	20.703358
882.235872	-2.981100	3.678600	-10.965000	24.989903	0.000477	20.720322
883.231538	-3.003600	3.676300	-11.041000	25.006909	0.000477	20.700881
884.227902	-2.984900	3.676700	-10.973000	25.044405	0.000476	20.710070
885.233331	-3.007100	3.676400	-11.054000	25.059472	0.000478	20.701012
886.230067	-3.006500	3.676000	-11.050000	25.062306	0.000476	20.701486
887.230605	-3.003100	3.675700	-11.037000	25.086844	0.000476	20.698142
888.229914	-2.991300	3.675800	-10.995000	25.064480	0.000473	20.710307
889.229728	-2.994500	3.675500	-11.006000	25.090891	0.000474	20.697937
890.230458	-2.984400	3.674900	-10.967000	25.132529	0.000472	20.708917
891.229955	-3.028400	3.675000	-11.128000	25.086436	0.000475	20.704371
892.229844	-2.982000	3.675900	-10.961000	25.077291	0.000473	20.719848
893.229889	-2.997800	3.674000	-11.013000	25.080874	0.000472	20.699736
894.231216	-2.985900	3.674200	-10.970000	25.101267	0.000474	20.699818
895.230784	-3.026700	3.673800	-11.118000	25.158865	0.000473	20.704062
896.230719	-3.007900	3.673600	-11.049000	25.181405	0.000472	20.710095
897.231585	-3.020200	3.673400	-11.094000	25.150453	0.000472	20.699883
898.231199	-3.003100	3.673400	-11.031000	25.115607	0.000473	20.692403
899.234561	-2.991800	3.673600	-10.989000	25.117448	0.000473	20.713218
900.235266	-2.972700	3.672900	-10.917000	25.083138	0.000471	20.677825
901.235237	-3.012200	3.671900	-11.059000	25.122122	0.000472	20.710798
902.232409	-2.994100	3.671100	-10.991000	25.158841	0.000472	20.694553
903.234449	-2.994600	3.672400	-10.997000	25.124207	0.000473	20.692501
904.236518	-2.997500	3.670600	-11.002000	25.104149	0.000472	20.717887
905.235842	-2.998200	3.671700	-11.007000	25.124158	0.000468	20.700039
906.234215	-3.003700	3.670400	-11.023000	25.098457	0.000470	20.698894
907.234329	-3.004600	3.669900	-11.025000	25.081355	0.000470	20.691209
908.234118	-3.003100	3.670800	-11.023000	25.133434	0.000468	20.683745
909.235223	-2.999800	3.669700	-11.007000	25.136764	0.000470	20.700366
910.235819	-2.998500	3.669500	-11.001000	25.133613	0.000468	20.719489
911.235468	-2.998100	3.669700	-11.000000	25.154216	0.000469	20.699393
912.233909	-2.984000	3.670100	-10.951000	25.191878	0.000471	20.680303
913.235738	-2.983100	3.670500	-10.948000	25.195909	0.000468	20.688144
914.235991	-3.006200	3.668600	-11.028000	25.214206	0.000468	20.688495
915.233894	-2.982600	3.668100	-10.939000	25.240075	0.000465	20.689337
916.240169	-3.011300	3.668500	-11.046000	25.249765	0.000467	20.681521
917.236739	-3.018400	3.666900	-11.067000	25.248829	0.000467	20.695281
918.240318	-3.004200	3.668300	-11.019000	25.245791	0.000466	20.686067
919.236527	-2.994600	3.666800	-10.978000	25.240133	0.000468	20.676591
920.236852	-3.010100	3.666900	-11.037000	25.201372	0.000466	20.705010
921.235602	-3.021100	3.666900	-11.077000	25.169884	0.000465	20.693785
922.239513	-3.015200	3.668500	-11.060000	25.212015	0.000464	20.694357
923.236526	-2.989800	3.666800	-10.962000	25.203335	0.000464	20.688961
924.237334	-3.010000	3.665800	-11.033000	25.150617	0.000466	20.716644
925.244543	-2.976000	3.666300	-10.910000	25.134403	0.000463	20.692779
926.236712	-3.005400	3.664400	-11.011000	25.099450	0.000463	20.716014
927.240680	-3.010300	3.665500	-11.033000	25.146463	0.000465	20.696352
928.238511	-2.993400	3.666500	-10.973000	25.144525	0.000463	20.689190
929.238895	-3.023600	3.665400	-11.082000	25.173205	0.000463	20.688110
930.238686	-2.999400	3.664500	-10.990000	25.189312	0.000464	20.673933
931.240133	-2.988200	3.665000	-10.951000	25.211062	0.000463	20.683916
932.240695	-3.006600	3.664600	-11.017000	25.206649	0.000463	20.696083
933.241194	-3.024800	3.662900	-11.079000	25.206519	0.000461	20.693580
934.238440	-3.009000	3.663100	-11.021000	25.189907	0.000463	20.671211
935.240671	-3.018700	3.662800	-11.056000	25.197944	0.000461	20.677384
936.239802	-3.014500	3.662600	-11.039000	25.188987	0.000463	20.699687
937.238170	-2.997600	3.663800	-10.982000	25.218579	0.000463	20.681505
938.245640	-3.018800	3.662300	-11.055000	25.216567	0.000462	20.697505
939.239536	-3.010400	3.661600	-11.022000	25.228171	0.000462	20.701568
940.240770	-2.990100	3.661500	-10.947000	25.229384	0.000461	20.711796
941.241136	-3.015600	3.662200	-11.043000	25.249968	0.000461	20.702116
942.241964	-3.016900	3.661900	-11.046000	25.235711	0.000460	20.691594
943.242263	-2.994200	3.661900	-10.963000	25.186365	0.000458	20.716497
944.240170	-3.003100	3.661100	-10.993000	25.106446	0.000458	20.693638
945.240862	-2.992200	3.661700	-10.954000	25.159916	0.000457	20.683778
946.240793	-3.008400	3.660000	-11.010000	25.160959	0.000458	20.690515
947.239455	-3.017400	3.659000	-11.040000	25.213905	0.000460	20.716644
948.242710	-3.006700	3.659900	-11.003000	25.232649	0.000459	20.679036
949.244435	-3.026400	3.660000	-11.075000	25.250401	0.000459	20.692117
950.241584	-3.003000	3.659400	-10.988000	25.265757	0.000456	20.693311
951.242671	-2.983500	3.659000	-10.916000	25.174713	0.000455	20.690572
952.244930	-2.985900	3.659100	-10.924000	25.189997	0.000456	20.724411
953.243771	-2.996200	3.658600	-10.961000	25.203018	0.000458	20.696230
954.244518	-3.025300	3.657300	-11.064000	25.193343	0.000457	20.694578
955.242717	-3.020800	3.657400	-11.047000	25.194035	0.000455	20.708550
956.245217	-2.999500	3.657500	-10.970000	25.188572	0.000454	20.673664
957.249006	-2.998500	3.658600	-10.969000	25.160746	0.000456	20.696940
958.246142	-3.001100	3.658500	-10.979000	25.190769	0.000454	20.708116
959.251591	-3.026400	3.657100	-11.066000	25.152440	0.000453	20.709939
960.246574	-2.978200	3.656400	-10.889000	25.181397	0.000456	20.695386
961.247482	-3.006500	3.657100	-10.995000	25.199564	0.000453	20.714100
962.246291	-3.010900	3.656800	-11.010000	25.206721	0.000455	20.697103
963.249177	-3.018400	3.655800	-11.034000	25.222054	0.000452	20.717713
964.250002	-3.019900	3.655700	-11.038000	25.157797	0.000453	20.720534
965.254314	-2.976100	3.656200	-10.880000	25.180264	0.000451	20.692352
966.249885	-3.014700	3.655700	-11.019000	25.186135	0.000452	20.719112
967.251866	-2.974800	3.656500	-10.877000	25.141355	0.000451	20.694543
968.253730	-3.006900	3.655500	-10.991000	25.149507	0.000451	20.710314
969.254396	-2.991400	3.654500	-10.931000	25.148635	0.000448	20.704697
970.259303	-2.985700	3.655000	-10.911000	25.177120	0.000453	20.710534
971.252956	-2.986200	3.653800	-10.910000	25.190466	0.000452	20.703544
972.254676	-2.997000	3.654100	-10.950000	25.198349	0.000450	20.698655
973.255701	-2.969400	3.654400	-10.850000	25.168911	0.000451	20.694232
974.253416	-3.001600	3.653900	-10.967000	25.157893	0.000447	20.706405
975.255432	-3.016200	3.653300	-11.017000	25.194025	0.000449	20.698582
976.253483	-2.998500	3.652800	-10.952000	25.218079	0.000448	20.700919
977.252075	-3.027700	3.652000	-11.055000	25.197323	0.000449	20.694779
978.254701	-2.997200	3.652500	-10.947000	25.162080	0.000450	20.707288
979.253547	-3.004600	3.652900	-10.974000	25.205766	0.000448	20.699938
980.259466	-3.012700	3.652800	-11.003000	25.164661	0.000447	20.716519
981.254257	-3.005900	3.650900	-10.974000	25.185393	0.000447	20.680431
982.259474	-3.008800	3.651100	-10.984000	25.173659	0.000450	20.708008
983.253873	-3.002200	3.652000	-10.963000	25.174823	0.000447	20.698270
984.253964	-3.003400	3.651700	-10.966000	25.150549	0.000447	20.703299
985.255570	-2.989300	3.649600	-10.909000	25.224389	0.000447	20.711997
986.256276	-2.996800	3.650100	-10.938000	25.205474	0.000447	20.695376
987.255367	-2.978300	3.649900	-10.869000	25.188797	0.000445	20.702342
988.254643	-2.982200	3.650500	-10.885000	25.232997	0.000447	20.698352
989.257039	-3.006200	3.649400	-10.970000	25.224194	0.000447	20.715121
990.255510	-3.001400	3.648100	-10.949000	25.189497	0.000445	20.703519
991.259834	-2.996600	3.647300	-10.929000	25.264313	0.000447	20.709406
992.257039	-2.999300	3.647900	-10.941000	25.264687	0.000445	20.726378
993.257521	-3.017400	3.647300	-11.004000	25.296304	0.000445	20.710706
994.257871	-2.973300	3.648200	-10.847000	25.298462	0.000447	20.717140
995.258238	-2.979100	3.647400	-10.865000	25.263597	0.000445	20.713428
996.260285	-2.993700	3.647500	-10.919000	25.264891	0.000444	20.701925
997.259061	-3.009000	3.647400	-10.974000	25.282015	0.000443	20.725283
998.260321	-3.000500	3.646800	-10.942000	25.274206	0.000445	20.720288
999.260357	-2.998800	3.647100	-10.936000	25.296932	0.000442	20.710861
1000.261334	-3.023700	3.644300	-11.019000	25.272244	0.000441	20.715472
1001.261880	-3.017400	3.646000	-11.001000	25.308290	0.000442	20.731276
1002.264199	-2.993400	3.646200	-10.913000	25.289848	0.000442	20.714655
1003.260260	-3.015800	3.644400	-10.990000	25.284108	0.000442	20.706520
1004.261636	-2.980400	3.645800	-10.865000	25.261153	0.000441	20.724253
1005.262406	-2.985100	3.644400	-10.878000	25.252579	0.000442	20.710428
1006.262497	-2.986000	3.644800	-10.883000	25.292795	0.000443	20.732314
1007.267038	-3.009600	3.644100	-10.966000	25.264435	0.000441	20.722331
1008.262306	-2.998000	3.644200	-10.924000	25.290817	0.000439	20.722741
1009.262499	-2.990000	3.643900	-10.894000	25.293797	0.000439	20.727155
1010.263342	-2.963400	3.643000	-10.795000	25.323963	0.000439	20.736107
1011.263414	-2.998400	3.643700	-10.924000	25.346264	0.000439	20.722937
1012.265376	-2.977700	3.644700	-10.852000	25.315316	0.000438	20.706086
1013.265388	-2.991000	3.642900	-10.895000	25.275069	0.000438	20.706928
1014.263974	-3.011200	3.642300	-10.966000	25.307678	0.000437	20.733507
1015.263731	-2.971800	3.642300	-10.823000	25.342697	0.000438	20.722200
1016.268163	-2.994300	3.642600	-10.906000	25.315414	0.000436	20.709030
1017.265179	-3.015900	3.640600	-10.977000	25.321617	0.000437	20.721423
1018.267838	-2.996900	3.641600	-10.913000	25.336525	0.000437	20.713632
1019.265161	-3.008300	3.641700	-10.955000	25.343870	0.000436	20.726223
1020.263608	-3.013000	3.640400	-10.967000	25.324695	0.000435	20.716452
1021.263415	-3.001800	3.639300	-10.923000	25.333716	0.000434	20.722191
1022.264271	-3.007600	3.640600	-10.948000	25.352011	0.000434	20.714956
1023.264551	-2.998500	3.640400	-10.915000	25.357726	0.000433	20.717376
1024.263785	-3.003600	3.638700	-10.927000	25.316088	0.000434	20.725355
1025.264546	-3.012100	3.639000	-10.960000	25.298134	0.000432	20.728192
1026.263170	-2.989300	3.639700	-10.879000	25.320030	0.000433	20.709871
1027.264617	-2.992500	3.637600	-10.884000	25.305382	0.000434	20.750168
1028.265012	-3.018000	3.637400	-10.976000	25.307727	0.000432	20.734504
1029.264464	-2.990600	3.638200	-10.879000	25.321243	0.000433	20.735273
1030.265289	-2.988200	3.637500	-10.869000	25.307344	0.000433	20.721317
1031.264969	-3.005900	3.635900	-10.928000	25.267626	0.000431	20.735967
1032.265872	-2.998000	3.635700	-10.899000	25.252815	0.000434	20.727260
1033.270705	-2.969700	3.637300	-10.801000	25.245283	0.000431	20.741985
1034.267900	-3.004500	3.636000	-10.923000	25.279408	0.000430	20.741633
1035.264684	-2.977800	3.635600	-10.825000	25.313906	0.000430	20.724113
1036.263799	-2.988800	3.636700	-10.869000	25.328082	0.000431	20.715112
1037.265695	-3.009000	3.635900	-10.940000	25.337893	0.000429	20.732076
1038.265845	-2.974700	3.636200	-10.816000	25.343934	0.000429	20.724391
1039.267763	-2.994100	3.634800	-10.882000	25.323034	0.000429	20.715259
1040.270820	-3.005900	3.634200	-10.923000	25.372146	0.000429	20.729959
1041.267266	-3.011400	3.633400	-10.941000	25.345701	0.000428	20.726165
1042.266431	-3.023100	3.634300	-10.985000	25.307539	0.000429	20.734790
1043.268445	-3.012200	3.633900	-10.945000	25.303998	0.000425	20.729812
1044.267067	-3.020200	3.632600	-10.971000	25.297028	0.000428	20.733719
1045.270693	-2.988300	3.634300	-10.859000	25.264475	0.000427	20.741813
1046.267255	-3.005600	3.632900	-10.918000	25.253881	0.000426	20.735444
1047.268166	-3.006000	3.633200	-10.920000	25.233753	0.000428	20.729460
1048.270176	-3.024400	3.631300	-10.982000	25.261161	0.000426	20.735640
1049.268209	-3.008200	3.633500	-10.929000	25.258555	0.000425	20.737766
1050.268649	-3.007800	3.632600	-10.926000	25.310625	0.000426	20.731250
1051.266797	-2.981300	3.631500	-10.825000	25.294870	0.000425	20.748149
1052.267411	-2.993600	3.630800	-10.869000	25.256487	0.000425	20.744224
1053.266979	-2.977300	3.630700	-10.809000	25.309257	0.000425	20.745998
1054.268182	-2.989000	3.630300	-10.850000	25.339106	0.000425	20.743251
1055.269522	-2.982000	3.629800	-10.823000	25.390081	0.000424	20.735640
1056.267688	-2.974600	3.631500	-10.802000	25.362522	0.000424	20.724562
1057.268472	-2.966600	3.630500	-10.769000	25.327919	0.000422	20.750511
1058.269359	-2.995200	3.628200	-10.866000	25.344496	0.000425	20.751982
1059.270819	-2.980600	3.629800	-10.818000	25.338381	0.000423	20.755326
1060.269304	-2.969800	3.630700	-10.782000	25.346653	0.000423	20.760787
1061.275480	-3.001300	3.628300	-10.889000	25.343893	0.000422	20.768447
1062.274333	-2.988500	3.629800	-10.846000	25.304974	0.000421	20.752129
1063.276145	-3.000200	3.627700	-10.882000	25.325101	0.000423	20.757639
1064.274002	-2.985300	3.627300	-10.828000	25.364019	0.000422	20.773009
1065.273107	-2.978900	3.627700	-10.806000	25.363864	0.000420	20.751516
1066.275803	-3.023400	3.626100	-10.962000	25.361722	0.000420	20.736562
1067.274093	-2.987300	3.628000	-10.837000	25.396706	0.000422	20.746560
1068.273277	-2.999700	3.626600	-10.878000	25.349305	0.000421	20.763450
1069.273942	-2.982100	3.626400	-10.813000	25.323211	0.000420	20.754319
1070.274448	-2.998700	3.625600	-10.871000	25.336595	0.000420	20.764439
1071.276315	-3.007400	3.624700	-10.900000	25.380813	0.000420	20.765690
1072.274590	-3.001600	3.626400	-10.884000	25.398252	0.000420	20.754751
1073.273138	-2.974400	3.626200	-10.785000	25.406752	0.000418	20.788891
1074.274423	-2.984500	3.625300	-10.819000	25.393253	0.000421	20.765379
1075.276741	-2.991300	3.625100	-10.843000	25.385363	0.000416	20.771207
1076.274108	-2.974200	3.625400	-10.781000	25.376294	0.000417	20.757358
1077.275778	-3.005800	3.623800	-10.891000	25.379697	0.000417	20.768362
1078.275230	-2.986700	3.624500	-10.824000	25.374771	0.000416	20.749665
1079.278660	-3.007600	3.623200	-10.897000	25.379599	0.000416	20.754039
1080.279832	-3.008600	3.622600	-10.898000	25.382342	0.000416	20.766277
1081.276008	-2.996700	3.623600	-10.858000	25.382244	0.000414	20.769024
1082.280717	-3.017200	3.622400	-10.928000	25.404072	0.000414	20.766285
1083.276949	-3.009600	3.621900	-10.899000	25.360587	0.000413	20.776675
1084.278737	-3.016100	3.621300	-10.921000	25.389465	0.000414	20.773430
1085.278705	-3.009300	3.621300	-10.896000	25.426126	0.000414	20.768517
1086.279929	-3.004200	3.622100	-10.881000	25.459033	0.000414	20.756041
1087.281898	-3.000600	3.621100	-10.864000	25.439363	0.000412	20.763791
1088.282829	-3.013800	3.618900	-10.906000	25.436205	0.000411	20.753506
1089.282769	-3.012500	3.618700	-10.900000	25.390654	0.000413	20.752337
1090.284335	-2.997500	3.619000	-10.847000	25.440235	0.000412	20.780313
1091.284419	-2.998600	3.618500	-10.850000	25.481314	0.000410	20.789322
1092.283794	-2.995200	3.619000	-10.838000	25.465081	0.000410	20.789616
1093.286016	-3.008100	3.619300	-10.887000	25.458193	0.000412	20.791235
1094.285794	-3.009600	3.618500	-10.889000	25.493883	0.000414	20.782029
1095.285586	-2.998400	3.617400	-10.846000	25.478692	0.000410	20.766774
1096.288096	-3.020500	3.618000	-10.928000	25.438858	0.000409	20.778457
1097.287864	-3.019000	3.617000	-10.919000	25.422950	0.000407	20.765327
1098.290475	-2.989900	3.618000	-10.817000	25.415867	0.000408	20.778604
1099.289481	-3.020300	3.616600	-10.922000	25.408418	0.000409	20.782978
1100.289150	-3.008700	3.616600	-10.880000	25.424668	0.000409	20.783648
1101.287861	-2.994500	3.616800	-10.830000	25.443580	0.000409	20.783198
1102.287701	-2.978200	3.616600	-10.770000	25.432842	0.000407	20.775734
1103.287298	-2.992700	3.615100	-10.818000	25.422250	0.000407	20.775530
1104.294463	-3.010700	3.614600	-10.881000	25.398323	0.000406	20.777108
1105.289017	-2.991800	3.616300	-10.818000	25.401327	0.000408	20.800039
1106.288030	-2.975900	3.615400	-10.758000	25.405650	0.000407	20.783043
1107.291249	-2.995600	3.614200	-10.826000	25.452193	0.000406	20.794692
1108.288987	-2.987100	3.614600	-10.796000	25.484431	0.000407	20.789607
1109.289095	-3.017500	3.612500	-10.899000	25.455287	0.000406	20.793058
1110.288648	-3.003300	3.615400	-10.857000	25.519761	0.000406	20.782413
1111.288081	-3.025400	3.613800	-10.931000	25.483015	0.000404	20.789607
1112.291643	-3.006700	3.612800	-10.861000	25.468947	0.000402	20.782119
1113.288518	-3.011400	3.613300	-10.880000	25.427094	0.000404	20.780394
1114.290478	-3.005600	3.613500	-10.859000	25.439965	0.000404	20.788577
1115.290443	-2.961900	3.614000	-10.703000	25.445183	0.000403	20.815628
1116.291813	-2.990700	3.612200	-10.802000	25.458673	0.000404	20.794561
1117.292447	-3.001900	3.611900	-10.841000	25.430521	0.000404	20.799008
1118.290380	-3.034500	3.610200	-10.955000	25.389757	0.000402	20.785102
1119.293324	-3.002500	3.610800	-10.841000	25.439338	0.000402	20.790792
1120.292606	-2.996700	3.611700	-10.822000	25.474075	0.000401	20.801493
1121.290450	-3.027400	3.611100	-10.931000	25.474002	0.000400	20.811377
1122.292583	-3.002600	3.610600	-10.839000	25.439052	0.000401	20.816584
1123.295565	-2.979800	3.610100	-10.756000	25.455986	0.000401	20.815096
1124.293158	-3.009700	3.609800	-10.864000	25.457809	0.000399	20.782314
1125.296413	-3.006100	3.608100	-10.845000	25.508608	0.000399	20.803929
1126.291362	-3.010900	3.609000	-10.865000	25.544458	0.000398	20.781610
1127.296635	-2.982800	3.609300	-10.765000	25.520997	0.000402	20.793611
1128.299109	-3.007800	3.608800	-10.853000	25.511636	0.000400	20.819298
1129.294862	-3.005100	3.607400	-10.840000	25.419318	0.000399	20.798190
1130.298840	-2.974900	3.607900	-10.733000	25.398207	0.000398	20.803544
1131.294702	-3.015100	3.606800	-10.874000	25.452631	0.000398	20.795132
1132.295666	-2.983100	3.608100	-10.763000	25.395105	0.000399	20.803275
1133.295473	-2.974900	3.607100	-10.730000	25.398703	0.000399	20.823009
1134.294394	-2.989300	3.608000	-10.785000	25.437944	0.000398	20.822583
1135.296965	-3.003500	3.607100	-10.833000	25.494931	0.000396	20.814376
1136.298134	-3.009100	3.606500	-10.851000	25.482199	0.000397	20.807754
1137.294978	-2.986800	3.606400	-10.770000	25.510333	0.000395	20.826049
1138.296755	-3.007500	3.606800	-10.846000	25.545988	0.000395	20.810174
1139.293823	-3.006100	3.605900	-10.838000	25.550295	0.000394	20.817817
1140.297448	-3.009900	3.604000	-10.846000	25.525019	0.000393	20.820883
1141.296593	-3.023600	3.603500	-10.895000	25.546420	0.000395	20.828151
1142.300549	-2.988900	3.605200	-10.774000	25.530880	0.000395	20.819182
1143.298691	-3.004100	3.603900	-10.824000	25.502306	0.000395	20.803765
1144.299850	-2.992500	3.603500	-10.782000	25.507354	0.000395	20.818316
1145.299396	-3.000600	3.602400	-10.809000	25.542211	0.000394	20.826769
1146.301209	-3.007200	3.603000	-10.834000	25.570515	0.000393	20.822951
1147.300109	-3.002500	3.601800	-10.814000	25.574861	0.000393	20.809299
1148.300938	-2.979600	3.602300	-10.733000	25.546485	0.000392	20.831060
1149.300607	-2.987600	3.601300	-10.759000	25.529935	0.000392	20.818234
1150.298834	-2.978400	3.600800	-10.723000	25.505253	0.000393	20.843706
1151.299825	-3.000400	3.600600	-10.803000	25.517008	0.000391	20.826589
1152.302175	-3.019300	3.600900	-10.872000	25.517553	0.000391	20.816705
1153.300403	-2.999800	3.602400	-10.806000	25.543122	0.000392	20.830055
1154.304283	-3.013800	3.599400	-10.847000	25.563848	0.000389	20.843281
1155.304827	-2.988500	3.599600	-10.756000	25.561951	0.000389	20.837109
1156.303518	-2.988500	3.600700	-10.760000	25.593762	0.000388	20.838712
1157.306026	-3.004200	3.599200	-10.812000	25.584369	0.000389	20.839709
1158.302866	-3.002600	3.598100	-10.803000	25.558198	0.000388	20.830970
1159.302096	-3.002800	3.600100	-10.809000	25.548234	0.000389	20.835188
1160.302446	-3.003500	3.598000	-10.806000	25.566574	0.000387	20.820890
1161.302186	-3.010100	3.598900	-10.832000	25.533215	0.000388	20.834329
1162.305806	-3.000700	3.598600	-10.797000	25.492252	0.000387	20.830651
1163.301978	-3.005700	3.597500	-10.812000	25.445392	0.000387	20.861355
1164.310246	-3.005600	3.598500	-10.815000	25.482230	0.000388	20.843820
1165.301450	-3.000600	3.597900	-10.795000	25.510030	0.000386	20.834280
1166.301843	-3.022700	3.595900	-10.868000	25.541567	0.000386	20.836079
1167.302612	-2.988800	3.596200	-10.748000	25.546663	0.000386	20.824127
1168.303699	-3.023200	3.595700	-10.869000	25.575601	0.000385	20.847973
1169.306532	-3.026800	3.595300	-10.881000	25.572125	0.000384	20.853965
1170.304108	-3.014800	3.595100	-10.837000	25.563423	0.000384	20.831002
1171.303930	-2.994900	3.595200	-10.766000	25.576993	0.000384	20.848422
1172.304664	-3.032600	3.594500	-10.900000	25.554656	0.000384	20.829784
1173.317309	-3.001100	3.595400	-10.789000	25.524040	0.000384	20.841237
1174.304071	-3.002900	3.593900	-10.791000	25.528582	0.000386	20.857651
1175.304914	-2.972200	3.594800	-10.683000	25.502410	0.000383	20.847490
1176.305415	-2.997300	3.595300	-10.775000	25.493341	0.000384	20.830797
1177.305382	-3.010500	3.592600	-10.815000	25.439912	0.000381	20.816499
1178.311294	-3.000200	3.592800	-10.778000	25.464881	0.000381	20.833037
1179.312524	-3.026300	3.592600	-10.871000	25.466867	0.000384	20.829816
1180.306396	-3.005100	3.591800	-10.793000	25.434914	0.000382	20.821911
1181.306679	-3.027000	3.591400	-10.870000	25.480079	0.000380	20.837393
1182.304974	-3.003100	3.591400	-10.785000	25.513530	0.000382	20.825466
1183.308852	-2.967400	3.591700	-10.657000	25.525976	0.000381	20.828009
1184.326641	-2.983000	3.592000	-10.713000	25.497525	0.000379	20.834524
1185.307254	-2.985100	3.591500	-10.720000	25.508775	0.000379	20.848666
1186.316969	-2.971400	3.591100	-10.669000	25.491500	0.000380	20.829897
1187.308264	-2.995500	3.590800	-10.755000	25.481202	0.000380	20.830934
1188.307955	-2.966200	3.590400	-10.649000	25.478491	0.000378	20.842910
1189.309141	-2.999500	3.590400	-10.769000	25.532366	0.000379	20.834899
1190.308135	-3.014300	3.589800	-10.820000	25.531617	0.000378	20.833673
1191.309319	-3.006500	3.590600	-10.794000	25.570658	0.000376	20.844431
1192.312586	-2.994700	3.589400	-10.748000	25.566945	0.000378	20.819366
1193.309204	-2.997200	3.589200	-10.757000	25.601109	0.000377	20.833762
1194.310318	-3.003500	3.588000	-10.776000	25.640449	0.000376	20.828702
1195.310886	-3.002900	3.586900	-10.770000	25.625781	0.000377	20.835307
1196.311198	-2.989800	3.588700	-10.728000	25.580360	0.000376	20.839950
1197.308474	-2.979400	3.588700	-10.692000	25.567677	0.000374	20.826265
1198.310511	-2.994400	3.586700	-10.739000	25.560702	0.000376	20.819260
1199.309469	-2.983000	3.586000	-10.696000	25.552642	0.000376	20.821598
1200.309010	-3.011400	3.585600	-10.797000	25.489170	0.000373	20.810962
1201.308738	-2.990300	3.586400	-10.724000	25.500706	0.000373	20.807373
1202.311797	-2.990700	3.584700	-10.719000	25.495936	0.000374	20.802108
1203.309741	-2.985400	3.586600	-10.707000	25.482633	0.000374	20.820518
1204.310219	-2.993800	3.585500	-10.734000	25.498492	0.000374	20.812262
1205.312550	-3.015000	3.583700	-10.804000	25.485890	0.000372	20.817150
1206.313231	-2.998300	3.584700	-10.746000	25.504524	0.000371	20.823535
1207.313447	-2.991100	3.583200	-10.717000	25.516474	0.000372	20.815621
1208.312395	-2.974300	3.584000	-10.658000	25.580213	0.000371	20.804716
1209.315629	-3.008300	3.582400	-10.775000	25.576777	0.000372	20.805059
1210.312820	-3.003400	3.583400	-10.762000	25.580082	0.000371	20.813594
1211.311399	-2.981700	3.583600	-10.685000	25.592577	0.000371	20.812392
1212.310690	-3.013800	3.582900	-10.796000	25.556614	0.000370	20.807568
1213.310894	-3.006600	3.581400	-10.767000	25.515147	0.000369	20.798641
1214.315082	-2.981800	3.582900	-10.681000	25.506737	0.000370	20.792567
1215.311184	-2.987300	3.582000	-10.699000	25.494062	0.000370	20.805442
1216.315911	-2.985800	3.580000	-10.689000	25.520120	0.000367	20.814067
1217.315506	-2.998600	3.580700	-10.736000	25.530817	0.000367	20.807266
1218.314362	-2.997200	3.580100	-10.730000	25.529766	0.000366	20.791986
1219.318005	-2.998500	3.580400	-10.735000	25.526933	0.000368	20.800521
1220.315522	-2.987100	3.581300	-10.697000	25.482697	0.000367	20.810151
1221.314132	-2.983900	3.579600	-10.680000	25.481460	0.000366	20.803219
1222.315798	-3.010300	3.578800	-10.773000	25.489682	0.000366	20.789190
1223.317400	-2.984700	3.580400	-10.686000	25.520494	0.000363	20.804960
1224.317263	-2.999500	3.578700	-10.733000	25.524597	0.000366	20.824727
1225.320312	-2.986000	3.578700	-10.685000	25.543727	0.000365	20.779928
1226.315874	-2.995000	3.578600	-10.717000	25.535774	0.000364	20.803235
1227.319011	-3.013700	3.577500	-10.781000	25.513111	0.000363	20.808925
1228.324674	-2.979200	3.579300	-10.662000	25.530263	0.000362	20.805287
1229.319258	-3.000100	3.578100	-10.734000	25.511198	0.000364	20.788986
1230.321053	-2.998300	3.577800	-10.727000	25.561220	0.000363	20.801289
1231.317838	-3.030500	3.575800	-10.835000	25.568074	0.000364	20.785413
1232.317219	-2.999600	3.577400	-10.729000	25.559975	0.000361	20.779650
1233.317374	-2.992100	3.576000	-10.699000	25.606121	0.000361	20.789484
1234.317801	-3.015200	3.574400	-10.776000	25.604729	0.000361	20.807527
1235.319426	-3.004600	3.574800	-10.739000	25.635489	0.000361	20.790531
1236.318681	-2.996300	3.576200	-10.715000	25.627512	0.000362	20.782519
1237.317811	-3.013600	3.574900	-10.772000	25.599894	0.000360	20.800775
1238.317854	-3.023200	3.574600	-10.806000	25.569158	0.000358	20.795510
1239.318895	-2.998700	3.574200	-10.717000	25.591461	0.000361	20.786141
1240.318867	-3.014600	3.572300	-10.767000	25.579137	0.000358	20.771867
1241.320364	-3.016500	3.574100	-10.780000	25.616434	0.000358	20.778031
1242.319033	-2.991100	3.574500	-10.690000	25.625901	0.000360	20.785168
1243.316941	-3.010200	3.573900	-10.756000	25.653136	0.000359	20.784073
1244.320193	-3.004900	3.572300	-10.734000	25.591917	0.000360	20.774745
1245.320463	-2.970000	3.571600	-10.607000	25.521862	0.000359	20.783100
1246.326418	-2.995700	3.571200	-10.697000	25.516294	0.000360	20.800267
1247.319731	-3.007100	3.571300	-10.739000	25.521731	0.000358	20.778227
1248.319289	-2.993600	3.571500	-10.691000	25.526184	0.000357	20.793131
1249.322432	-2.995300	3.571200	-10.695000	25.528146	0.000357	20.783721
1250.322122	-2.987700	3.571200	-10.668000	25.538427	0.000355	20.784563
1251.328870	-3.002400	3.569700	-10.716000	25.585665	0.000357	20.778897
1252.321659	-2.991100	3.570800	-10.680000	25.580195	0.000355	20.753963
1253.321002	-2.990500	3.571200	-10.679000	25.556222	0.000356	20.785838
1254.322883	-2.983100	3.569500	-10.647000	25.547219	0.000355	20.792443
1255.323627	-3.012200	3.567600	-10.746000	25.602783	0.000355	20.767166
1256.325410	-3.010200	3.569000	-10.742000	25.644679	0.000354	20.778423
1257.323055	-3.008700	3.568900	-10.737000	25.683536	0.000352	20.799433
1258.324130	-3.018200	3.568600	-10.769000	25.591949	0.000353	20.765768
1259.325106	-3.018200	3.567500	-10.767000	25.556393	0.000353	20.771785
1260.326466	-2.981500	3.567700	-10.636000	25.573512	0.000354	20.776175
1261.330654	-2.994400	3.566400	-10.678000	25.558696	0.000351	20.772676
1262.332021	-2.989700	3.566000	-10.660000	25.511661	0.000352	20.778072
1263.328535	-3.011100	3.566500	-10.738000	25.542449	0.000354	20.763470
1264.329453	-2.996600	3.566900	-10.688000	25.589369	0.000350	20.766021
1265.331433	-2.997100	3.566400	-10.688000	25.612380	0.000351	20.762580
1266.330243	-3.010000	3.566000	-10.733000	25.657474	0.000351	20.793645
1267.332981	-2.989900	3.565300	-10.659000	25.699888	0.000350	20.771760
1268.334507	-2.999700	3.564700	-10.692000	25.677904	0.000350	20.769594
1269.332819	-2.986800	3.566100	-10.650000	25.619837	0.000349	20.790457
1270.336450	-2.996400	3.563800	-10.678000	25.584876	0.000349	20.747758
1271.335164	-2.988800	3.564000	-10.651000	25.584379	0.000348	20.767174
1272.339738	-2.988900	3.564200	-10.652000	25.579609	0.000350	20.778979
1273.333866	-2.995700	3.563000	-10.674000	25.619063	0.000349	20.747480
1274.331624	-2.993000	3.564200	-10.667000	25.594896	0.000347	20.764934
1275.334234	-3.002300	3.563300	-10.697000	25.584632	0.000346	20.763160
1276.333779	-2.985700	3.562800	-10.636000	25.591616	0.000347	20.762114
1277.335888	-2.992900	3.561800	-10.659000	25.578942	0.000348	20.748911
1278.339853	-2.989100	3.561800	-10.645000	25.593529	0.000346	20.746491
1279.336342	-3.011700	3.560600	-10.723000	25.562694	0.000346	20.761991
1280.335722	-2.996400	3.560500	-10.667000	25.491294	0.000346	20.761411
1281.335958	-3.012900	3.560300	-10.726000	25.512851	0.000344	20.751764
1282.334953	-2.996800	3.560000	-10.667000	25.567098	0.000344	20.760250
1283.336979	-3.004700	3.560800	-10.698000	25.572340	0.000345	20.750816
1284.337314	-3.013300	3.560700	-10.729000	25.561921	0.000345	20.761215
1285.338516	-3.002500	3.559400	-10.686000	25.615279	0.000345	20.738463
1286.339286	-3.020300	3.559200	-10.749000	25.570077	0.000346	20.753285
1287.338342	-3.015200	3.557900	-10.728000	25.587945	0.000342	20.763643
1288.342147	-3.016000	3.558000	-10.729000	25.607123	0.000343	20.755876
1289.339122	-3.009400	3.558200	-10.707000	25.622165	0.000342	20.747276
1290.338660	-2.994100	3.557400	-10.650000	25.598885	0.000342	20.762777
1291.340244	-2.991000	3.557800	-10.640000	25.616354	0.000339	20.757561
1292.344792	-2.993200	3.557900	-10.649000	25.613594	0.000341	20.753367
1293.343571	-2.991100	3.557900	-10.641000	25.602711	0.000342	20.741488
1294.343232	-2.986200	3.557500	-10.623000	25.576769	0.000342	20.748625
1295.340465	-2.994900	3.555900	-10.648000	25.589288	0.000340	20.742232
1296.342714	-2.988300	3.558200	-10.633000	25.633276	0.000342	20.756065
1297.344455	-2.995500	3.556700	-10.654000	25.668927	0.000341	20.758207
1298.342686	-3.013800	3.556200	-10.717000	25.635604	0.000340	20.731375
1299.345254	-3.025200	3.555400	-10.755000	25.612047	0.000340	20.756081
1300.341304	-2.996200	3.554600	-10.650000	25.605535	0.000338	20.731048
1301.342035	-3.019300	3.553800	-10.729000	25.584494	0.000337	20.747848
1302.343748	-2.980100	3.555800	-10.596000	25.565185	0.000339	20.741259
1303.341880	-3.010000	3.552600	-10.693000	25.543117	0.000335	20.731898
1304.342525	-2.999700	3.553000	-10.657000	25.546772	0.000338	20.724188
1305.343887	-3.029700	3.554000	-10.766000	25.518044	0.000337	20.738013
1306.342816	-2.982800	3.553300	-10.598000	25.518191	0.000338	20.732944
1307.347500	-2.973600	3.552000	-10.560000	25.535904	0.000338	20.753579
1308.343721	-2.996700	3.552600	-10.645000	25.576426	0.000337	20.757290
1309.345122	-2.999600	3.551700	-10.653000	25.569100	0.000336	20.730966
1310.350541	-2.998100	3.552000	-10.649000	25.570729	0.000338	20.731653
1311.344530	-2.966100	3.551800	-10.534000	25.606691	0.000334	20.744062
1312.345991	-2.980900	3.551200	-10.585000	25.560651	0.000336	20.741921
1313.352087	-3.009200	3.549800	-10.681000	25.577599	0.000335	20.743768
1314.347770	-3.023800	3.549500	-10.731000	25.572153	0.000333	20.734980
1315.351186	-2.991300	3.549500	-10.617000	25.591933	0.000334	20.746785
1316.348411	-3.029200	3.549100	-10.749000	25.631216	0.000333	20.733132
1317.347875	-3.006800	3.548700	-10.669000	25.623678	0.000333	20.743580
1318.347560	-3.005100	3.548000	-10.662000	25.611046	0.000333	20.732315
1319.347830	-3.003000	3.548400	-10.655000	25.600423	0.000332	20.746302
1320.352852	-3.006500	3.548800	-10.668000	25.556466	0.000330	20.721122
1321.354078	-2.975800	3.550000	-10.563000	25.617712	0.000331	20.739958
1322.351170	-2.979200	3.548200	-10.569000	25.631866	0.000332	20.729992
1323.350848	-2.995700	3.546200	-10.623000	25.656872	0.000330	20.751788
1324.351520	-2.999600	3.546100	-10.636000	25.639078	0.000329	20.732019
1325.349578	-2.994800	3.546700	-10.620000	25.668291	0.000331	20.721530
1326.350426	-2.990000	3.547200	-10.605000	25.664571	0.000329	20.722062
1327.351657	-3.009700	3.545400	-10.670000	25.636937	0.000330	20.742198
1328.350458	-2.997500	3.547200	-10.632000	25.594423	0.000328	20.733638
1329.351995	-3.001500	3.545900	-10.642000	25.607170	0.000331	20.721784
1330.351435	-2.995700	3.546000	-10.622000	25.503862	0.000328	20.739892
1331.353996	-2.987200	3.544100	-10.586000	25.527372	0.000326	20.723672
1332.349767	-3.013900	3.545300	-10.683000	25.533510	0.000329	20.720827
1333.349279	-3.014600	3.544400	-10.684000	25.565566	0.000329	20.736426
1334.356254	-2.998200	3.543800	-10.624000	25.580723	0.000326	20.738371
1335.349836	-3.003500	3.542900	-10.640000	25.579877	0.000328	20.737521
1336.360713	-2.993000	3.544100	-10.607000	25.547397	0.000327	20.733352
1337.352998	-2.973900	3.543300	-10.536000	25.548829	0.000327	20.731945
1338.352417	-2.988700	3.543200	-10.589000	25.554593	0.000327	20.718292
1339.350192	-2.989400	3.542000	-10.587000	25.611524	0.000325	20.723786
1340.352568	-2.984300	3.542100	-10.569000	25.631573	0.000326	20.730171
1341.353365	-2.967000	3.542000	-10.508000	25.663773	0.000324	20.713198
1342.352415	-3.010700	3.540800	-10.660000	25.696118	0.000324	20.713918
1343.354288	-3.002800	3.540100	-10.629000	25.718232	0.000323	20.705783
1344.354608	-2.978400	3.540900	-10.545000	25.650481	0.000324	20.706486
1345.354436	-3.000300	3.539300	-10.618000	25.638100	0.000323	20.718708
1346.357780	-3.005000	3.539500	-10.636000	25.681899	0.000324	20.717179
1347.353883	-2.997800	3.538600	-10.607000	25.686620	0.000322	20.709592
1348.355275	-3.004500	3.539500	-10.634000	25.684064	0.000326	20.712716
1349.357743	-3.001500	3.537500	-10.617000	25.705234	0.000323	20.721177
1350.357312	-2.990400	3.539700	-10.584000	25.674370	0.000321	20.704401
1351.357583	-2.994000	3.537600	-10.591000	25.649813	0.000321	20.719092
1352.354255	-3.008200	3.537200	-10.640000	25.663211	0.000322	20.733498
1353.354891	-2.999200	3.536900	-10.606000	25.641559	0.000322	20.714121
1354.353967	-2.990300	3.538100	-10.580000	25.601585	0.000321	20.700999
1355.355525	-2.990300	3.537200	-10.576000	25.588365	0.000321	20.715225
1356.358174	-3.012300	3.536500	-10.653000	25.617351	0.000320	20.720629
1357.361643	-3.026500	3.535900	-10.700000	25.661485	0.000320	20.704736
1358.358247	-3.008800	3.534900	-10.634000	25.693407	0.000320	20.707875
1359.359002	-2.988000	3.536200	-10.565000	25.696321	0.000319	20.706060
1360.360170	-2.988700	3.535000	-10.565000	25.664333	0.000320	20.707123
1361.359658	-2.998500	3.535300	-10.600000	25.671789	0.000318	20.715086
1362.361233	-2.973900	3.534600	-10.510000	25.673824	0.000316	20.695791
1363.359377	-2.997800	3.534000	-10.593000	25.683339	0.000318	20.701555
1364.359750	-2.976900	3.534000	-10.520000	25.708538	0.000317	20.714064
1365.360609	-2.992600	3.533900	-10.575000	25.738204	0.000316	20.695023
1366.360490	-3.015100	3.531800	-10.647000	25.726867	0.000316	20.710188
1367.368178	-3.008200	3.531900	-10.623000	25.696728	0.000317	20.705994
1368.362136	-3.005600	3.532400	-10.617000	25.685544	0.000316	20.706141
1369.360464	-2.989200	3.532300	-10.558000	25.653613	0.000316	20.712951
1370.361732	-2.992600	3.531800	-10.567000	25.602504	0.000317	20.701923
1371.359769	-2.999600	3.531300	-10.592000	25.629040	0.000315	20.714349
1372.361584	-2.994800	3.531100	-10.573000	25.632442	0.000314	20.705912
1373.363924	-2.995900	3.530800	-10.577000	25.633874	0.000314	20.706877
1374.364079	-3.004800	3.529600	-10.605000	25.629894	0.000314	20.694343
1375.360826	-2.999200	3.529100	-10.584000	25.630716	0.000313	20.717456
1376.369173	-3.000800	3.530000	-10.591000	25.631554	0.000313	20.713556
1377.364015	-2.994900	3.529200	-10.569000	25.583521	0.000312	20.693762
1378.365802	-2.992700	3.528600	-10.558000	25.559287	0.000316	20.729645
1379.364142	-2.990700	3.529500	-10.554000	25.547028	0.000312	20.695520
1380.366210	-3.021900	3.528600	-10.662000	25.564049	0.000313	20.693647
1381.365269	-3.009800	3.529000	-10.620000	25.580361	0.000310	20.716196
1382.364698	-2.994000	3.527400	-10.560000	25.585978	0.000312	20.725630
1383.366284	-3.034400	3.527100	-10.702000	25.642705	0.000312	20.688717
1384.364611	-2.987700	3.528900	-10.543000	25.668531	0.000311	20.707545
1385.364110	-2.991200	3.526700	-10.548000	25.706077	0.000309	20.697367
1386.365293	-3.007600	3.526400	-10.604000	25.682368	0.000310	20.692992
1387.364427	-3.008100	3.525100	-10.602000	25.680243	0.000311	20.710774
1388.364446	-2.989000	3.527200	-10.542000	25.720963	0.000311	20.705681
1389.366136	-2.993400	3.525300	-10.551000	25.688162	0.000310	20.698339
1390.365981	-2.955500	3.526600	-10.422000	25.710024	0.000310	20.713186
1391.372103	-2.975700	3.525400	-10.490000	25.720410	0.000310	20.704176
1392.366951	-3.026000	3.523700	-10.662000	25.714582	0.000309	20.707332
1393.368784	-3.003200	3.525500	-10.587000	25.690408	0.000309	20.715295
1394.370522	-3.001900	3.523200	-10.575000	25.704513	0.000309	20.715237
1395.366713	-2.980400	3.523200	-10.499000	25.746600	0.000307	20.695395
1396.364885	-3.007800	3.523300	-10.596000	25.751817	0.000309	20.697316
1397.366047	-2.987500	3.522200	-10.522000	25.759703	0.000305	20.694806
1398.365831	-3.006900	3.523500	-10.594000	25.719253	0.000307	20.703963
1399.364733	-2.993700	3.521300	-10.540000	25.745908	0.000308	20.709400
1400.369944	-3.002300	3.520500	-10.569000	25.734058	0.000305	20.709825
1401.367097	-3.012700	3.520800	-10.607000	25.687046	0.000305	20.707650
1402.368433	-2.999300	3.519100	-10.553000	25.675309	0.000305	20.703922
1403.376758	-3.010700	3.521300	-10.601000	25.676652	0.000305	20.694364
1404.370764	-3.011600	3.519100	-10.597000	25.711341	0.000303	20.730631
1405.375895	-2.973400	3.521400	-10.469000	25.760272	0.000304	20.700120
1406.370498	-2.995500	3.520000	-10.544000	25.781530	0.000303	20.714361
1407.370431	-2.990100	3.519400	-10.522000	25.801941	0.000304	20.726804
1408.371916	-2.994400	3.519900	-10.539000	25.778421	0.000304	20.700332
1409.368987	-3.023300	3.518500	-10.637000	25.714222	0.000302	20.709816
1410.370829	-3.001400	3.517700	-10.557000	25.676366	0.000303	20.703561
1411.373038	-2.995200	3.517300	-10.534000	25.688567	0.000301	20.706333
1412.372233	-2.996900	3.518500	-10.543000	25.630663	0.000302	20.703651
1413.370742	-3.006400	3.518300	-10.576000	25.674454	0.000302	20.724401
1414.370692	-3.025400	3.516200	-10.637000	25.676781	0.000301	20.707771
1415.372187	-3.006000	3.515900	-10.568000	25.699864	0.000300	20.726690
1416.372405	-3.010800	3.516600	-10.587000	25.716460	0.000299	20.720125
1417.371507	-3.015000	3.516000	-10.600000	25.740511	0.000300	20.704926
1418.373366	-2.982400	3.515800	-10.484000	25.791638	0.000299	20.708393
1419.375504	-3.000400	3.515200	-10.546000	25.752385	0.000298	20.685558
1420.374617	-2.999600	3.514600	-10.541000	25.774937	0.000298	20.722438
1421.379607	-3.009100	3.513600	-10.572000	25.787853	0.000297	20.725455
1422.375428	-2.992500	3.514600	-10.517000	25.749919	0.000299	20.720067
1423.375482	-2.985200	3.514500	-10.491000	25.731305	0.000299	20.717018
1424.376434	-3.018700	3.514300	-10.608000	25.718389	0.000299	20.715898
1425.377984	-2.987000	3.513500	-10.494000	25.712439	0.000299	20.701860
1426.383566	-2.991200	3.513300	-10.507000	25.700613	0.000298	20.717958
1427.376709	-2.990400	3.513000	-10.504000	25.723369	0.000296	20.704304
1428.377572	-2.974600	3.512100	-10.447000	25.738280	0.000297	20.700315
1429.376099	-3.011400	3.512000	-10.576000	25.749333	0.000295	20.710943
1430.376705	-2.996300	3.512400	-10.523000	25.726422	0.000295	20.708319
1431.376551	-2.964500	3.512000	-10.410000	25.741999	0.000293	20.704999
1432.376159	-2.982900	3.512900	-10.477000	25.686466	0.000297	20.701377
1433.375728	-2.962000	3.510600	-10.398000	25.696144	0.000297	20.701614
1434.376616	-3.007000	3.510400	-10.555000	25.709215	0.000296	20.696251
1435.376476	-3.003300	3.510000	-10.541000	25.744660	0.000293	20.707672
1436.377579	-2.995700	3.510000	-10.514000	25.741991	0.000294	20.715423
1437.379729	-3.004200	3.509700	-10.543000	25.716939	0.000294	20.702587
1438.374649	-2.998000	3.508700	-10.518000	25.730718	0.000292	20.708841
1439.377700	-3.008900	3.508600	-10.556000	25.693263	0.000293	20.713420
1440.376198	-3.008700	3.508400	-10.555000	25.720366	0.000293	20.714090
1441.375963	-2.994200	3.507300	-10.500000	25.682470	0.000292	20.702105
1442.377864	-2.986000	3.507500	-10.472000	25.682551	0.000293	20.716886
1443.377156	-3.009200	3.507400	-10.553000	25.752457	0.000292	20.743481
1444.378341	-3.003800	3.506600	-10.533000	25.766000	0.000291	20.723893
1445.377052	-3.013400	3.506700	-10.567000	25.759505	0.000290	20.717843
1446.378092	-2.993000	3.506900	-10.495000	25.717769	0.000291	20.711482
1447.380478	-2.980400	3.506400	-10.450000	25.685302	0.000288	20.715856
1448.379378	-2.983900	3.506200	-10.461000	25.658141	0.000291	20.706119
1449.383256	-2.990400	3.504500	-10.479000	25.664921	0.000291	20.710084
1450.377805	-3.000400	3.505500	-10.516000	25.695606	0.000291	20.722413
1451.383855	-2.983900	3.505900	-10.460000	25.694361	0.000289	20.725904
1452.378487	-3.002000	3.503500	-10.516000	25.688574	0.000292	20.730997
1453.383227	-3.020400	3.504700	-10.584000	25.687597	0.000288	20.746612
1454.378564	-2.989800	3.503300	-10.473000	25.640616	0.000289	20.728348
1455.379021	-2.986600	3.504700	-10.466000	25.680793	0.000287	20.729820
1456.380926	-3.005500	3.502300	-10.525000	25.715132	0.000289	20.711204
1457.391405	-2.994900	3.502700	-10.489000	25.716719	0.000287	20.723704
1458.379878	-2.997800	3.504400	-10.504000	25.703843	0.000287	20.723574
1459.377448	-3.032500	3.501200	-10.616000	25.677333	0.000287	20.731087
1460.378551	-3.002900	3.502400	-10.516000	25.669308	0.000286	20.726819
1461.379861	-2.993900	3.501100	-10.481000	25.690324	0.000286	20.715684
1462.379490	-2.989700	3.501300	-10.467000	25.703517	0.000287	20.732256
1463.379962	-2.983100	3.500800	-10.443000	25.724557	0.000285	20.733948
1464.381768	-2.993100	3.501200	-10.479000	25.724687	0.000287	20.718905
1465.380686	-2.996800	3.499900	-10.487000	25.774969	0.000285	20.710615
1466.379948	-2.977100	3.500300	-10.420000	25.784776	0.000286	20.735640
1467.385978	-2.998000	3.499700	-10.492000	25.767929	0.000282	20.715872
1468.383206	-3.011900	3.497900	-10.534000	25.765796	0.000286	20.735542
1469.382246	-2.990500	3.499000	-10.462000	25.757194	0.000287	20.726427
1470.382304	-3.012000	3.498900	-10.537000	25.752196	0.000282	20.731365
1471.381332	-3.018500	3.497700	-10.556000	25.772771	0.000282	20.734488
1472.380190	-3.016000	3.497900	-10.549000	25.719877	0.000283	20.731144
1473.382668	-2.958500	3.498900	-10.350000	25.664619	0.000285	20.731594
1474.386508	-2.982800	3.497700	-10.432000	25.671872	0.000285	20.747413
1475.384360	-3.005800	3.495800	-10.507000	25.647347	0.000283	20.707132
1476.383438	-2.990900	3.497800	-10.461000	25.641902	0.000281	20.744339
1477.385719	-3.001900	3.496700	-10.496000	25.662991	0.000285	20.747977
1478.390703	-3.011300	3.495300	-10.524000	25.707920	0.000282	20.738101
1479.385354	-2.998400	3.496400	-10.482000	25.778598	0.000282	20.737022
1480.386660	-2.999100	3.496100	-10.484000	25.795396	0.000281	20.733506
1481.385613	-3.005900	3.495100	-10.505000	25.807172	0.000281	20.736801
1482.388405	-3.001800	3.495000	-10.490000	25.733005	0.000279	20.723941
1483.390403	-3.014000	3.495000	-10.533000	25.751594	0.000280	20.714163
1484.387691	-3.014700	3.493600	-10.531000	25.742698	0.000280	20.737472
1485.393232	-2.997200	3.493400	-10.470000	25.746475	0.000280	20.727040
1486.388910	-2.981500	3.492400	-10.412000	25.735821	0.000278	20.745737
1487.388473	-3.002700	3.492500	-10.486000	25.740094	0.000278	20.741494
1488.390179	-3.014500	3.492900	-10.528000	25.770582	0.000278	20.750307
1489.392698	-3.000900	3.491700	-10.478000	25.763867	0.000279	20.741191
1490.389669	-2.988000	3.492000	-10.433000	25.775945	0.000277	20.752375
1491.399397	-2.969700	3.491400	-10.367000	25.806326	0.000278	20.744486
1492.389376	-3.005300	3.491200	-10.491000	25.772681	0.000277	20.720172
1493.389184	-3.001600	3.492000	-10.481000	25.702947	0.000276	20.748754
1494.391675	-3.007400	3.491500	-10.499000	25.714993	0.000275	20.748999
1495.389323	-2.984600	3.490800	-10.418000	25.747036	0.000275	20.722862
1496.390650	-3.011800	3.490600	-10.511000	25.753303	0.000274	20.747650
1497.390335	-3.002400	3.488800	-10.474000	25.734869	0.000276	20.747625
1498.388784	-2.999700	3.489900	-10.468000	25.737815	0.000277	20.723557
1499.390030	-3.009500	3.488800	-10.498000	25.760522	0.000275	20.744944
1500.388387	-3.002800	3.488100	-10.473000	25.747581	0.000275	20.757550
1501.392359	-2.983100	3.487700	-10.403000	25.782659	0.000275	20.739205
1502.395329	-2.989800	3.489300	-10.431000	25.795201	0.000275	20.754174
1503.388978	-3.005200	3.486800	-10.477000	25.775171	0.000273	20.761556
1504.390367	-3.004700	3.488400	-10.481000	25.781332	0.000274	20.754942
1505.391186	-3.023300	3.485400	-10.536000	25.753181	0.000274	20.761278
1506.398263	-2.970800	3.486600	-10.356000	25.741249	0.000273	20.752612
1507.393467	-3.019200	3.486100	-10.524000	25.742169	0.000273	20.756855
1508.392114	-2.980500	3.487300	-10.393000	25.751878	0.000273	20.735313
1509.393750	-2.979900	3.486200	-10.388000	25.775700	0.000273	20.780580
1510.392715	-2.975900	3.486000	-10.373000	25.792344	0.000272	20.734708
1511.394170	-2.986200	3.485400	-10.407000	25.795892	0.000273	20.772412
1512.397207	-3.006700	3.484900	-10.477000	25.800287	0.000272	20.760231
1513.395256	-3.012800	3.482500	-10.491000	25.812136	0.000271	20.728985
1514.393909	-2.995500	3.485200	-10.440000	25.813845	0.000272	20.751565
1515.394385	-3.009800	3.484000	-10.485000	25.791082	0.000273	20.746717
1516.394815	-3.016600	3.482500	-10.504000	25.791212	0.000271	20.754435
1517.400488	-2.997400	3.483200	-10.439000	25.788551	0.000271	20.770254
1518.402670	-2.995300	3.483600	-10.434000	25.794655	0.000269	20.744142
1519.397058	-2.984900	3.481300	-10.390000	25.792742	0.000270	20.759765
1520.397249	-2.996800	3.482100	-10.434000	25.799790	0.000271	20.749775
1521.408439	-2.992600	3.481800	-10.418000	25.819241	0.000272	20.761727
1522.401075	-3.020500	3.480600	-10.512000	25.811167	0.000268	20.749824
1523.396821	-3.011000	3.480900	-10.480000	25.760904	0.000269	20.757656
1524.398919	-3.005400	3.480100	-10.458000	25.782439	0.000267	20.746096
1525.398983	-3.010100	3.479500	-10.473000	25.739629	0.000267	20.762839
1526.396541	-3.001500	3.479900	-10.444000	25.728991	0.000267	20.754999
1527.400373	-3.007400	3.479900	-10.464000	25.754181	0.000265	20.744739
1528.397748	-2.994000	3.479500	-10.417000	25.752911	0.000267	20.753895
1529.396184	-2.992400	3.480700	-10.415000	25.771842	0.000266	20.770540
1530.396747	-3.027100	3.477400	-10.526000	25.822593	0.000267	20.743283
1531.402784	-3.000400	3.478600	-10.436000	25.822968	0.000266	20.765471
1532.397115	-2.982600	3.478500	-10.374000	25.868525	0.000266	20.770932
1533.400518	-3.005400	3.478200	-10.453000	25.843704	0.000266	20.756903
1534.399661	-3.004700	3.478200	-10.450000	25.856057	0.000264	20.773581
1535.396874	-2.977200	3.477600	-10.352000	25.862771	0.000263	20.756617
1536.399183	-3.007900	3.477800	-10.461000	25.818532	0.000267	20.765283
1537.399751	-3.002300	3.475400	-10.433000	25.832913	0.000264	20.785893
1538.401130	-2.983900	3.476100	-10.371000	25.837600	0.000264	20.779222
1539.399862	-2.983100	3.476500	-10.370000	25.849148	0.000264	20.779442
1540.399592	-2.984200	3.476300	-10.373000	25.845095	0.000264	20.761620
1541.399268	-2.992800	3.475200	-10.399000	25.805169	0.000261	20.783154
1542.404447	-3.014800	3.474700	-10.474000	25.741712	0.000262	20.768251
1543.402347	-3.010300	3.474500	-10.459000	25.737016	0.000262	20.791509
1544.400497	-2.985400	3.475500	-10.375000	25.720917	0.000262	20.787667
1545.399555	-3.013700	3.473000	-10.466000	25.739075	0.000261	20.772240
1546.399743	-2.993600	3.473200	-10.396000	25.762653	0.000261	20.763206
1547.400483	-3.015400	3.473400	-10.472000	25.739620	0.000260	20.784168
1548.397841	-2.989000	3.472900	-10.380000	25.773380	0.000258	20.761653
1549.404043	-2.983000	3.472600	-10.358000	25.813731	0.000257	20.787487
1550.400160	-2.975800	3.473100	-10.335000	25.787216	0.000260	20.774129
1551.400909	-2.976400	3.474400	-10.340000	25.754392	0.000260	20.790945
1552.404250	-3.023600	3.470900	-10.493000	25.782634	0.000259	20.779009
1553.399316	-2.994700	3.471100	-10.394000	25.817946	0.000256	20.780342
1554.404297	-2.995000	3.471500	-10.396000	25.832798	0.000257	20.780562
1555.400293	-2.983300	3.471800	-10.356000	25.842458	0.000257	20.791689
1556.401705	-3.025500	3.468700	-10.493000	25.850011	0.000258	20.790266
1557.403415	-2.999700	3.470100	-10.408000	25.830683	0.000259	20.783653
1558.402868	-3.001200	3.469000	-10.410000	25.826727	0.000257	20.787740
1559.403323	-2.996300	3.470300	-10.397000	25.844094	0.000256	20.770572
1560.409191	-3.022100	3.468200	-10.480000	25.823423	0.000257	20.795327
1561.403308	-3.013200	3.468800	-10.450000	25.831545	0.000256	20.796373
1562.404740	-2.983200	3.468200	-10.346000	25.840041	0.000255	20.792106
1563.403258	-2.990500	3.466500	-10.365000	25.839887	0.000254	20.795269
1564.407893	-2.977000	3.466900	-10.320000	25.824424	0.000255	20.778314
1565.411427	-3.003000	3.468600	-10.415000	25.857847	0.000255	20.809518
1566.405453	-2.999300	3.466200	-10.394000	25.863308	0.000254	20.773278
1567.403904	-2.986500	3.466800	-10.353000	25.840033	0.000253	20.795417
1568.407606	-3.003100	3.466200	-10.408000	25.821600	0.000254	20.806772
1569.405465	-2.987200	3.465900	-10.352000	25.804054	0.000252	20.808112
1570.409422	-2.985300	3.466000	-10.346000	25.810768	0.000253	20.799210
1571.404559	-3.011900	3.464900	-10.435000	25.808823	0.000251	20.824282
1572.406299	-2.994800	3.464700	-10.376000	25.828444	0.000253	20.811276
1573.408001	-3.022900	3.465100	-10.474000	25.864219	0.000253	20.807385
1574.407024	-3.004900	3.462600	-10.404000	25.835110	0.000252	20.793316
1575.410105	-2.995700	3.464700	-10.378000	25.825710	0.000250	20.784822
1576.406950	-3.008000	3.464300	-10.419000	25.811452	0.000252	20.773818
1577.405675	-2.979400	3.463800	-10.318000	25.805633	0.000252	20.797844
1578.405994	-3.009800	3.463600	-10.424000	25.823244	0.000250	20.796569
1579.407166	-2.996300	3.462100	-10.372000	25.820640	0.000251	20.805333
1580.408073	-2.993500	3.463900	-10.367000	25.801661	0.000250	20.793855
1581.412042	-2.986600	3.462500	-10.340000	25.788404	0.000251	20.794288
1582.408101	-2.992600	3.461400	-10.358000	25.788713	0.000249	20.811668
1583.409323	-3.010400	3.462200	-10.421000	25.776782	0.000249	20.820072
1584.411036	-3.030000	3.460800	-10.485000	25.773876	0.000248	20.810042
1585.408426	-3.011800	3.460300	-10.421000	25.785783	0.000249	20.808725
1586.409803	-3.022000	3.459600	-10.454000	25.819663	0.000249	20.810516
1587.409477	-3.016100	3.460000	-10.435000	25.861526	0.000248	20.812265
1588.408770	-2.985700	3.460200	-10.330000	25.818166	0.000248	20.827977
1589.409303	-2.997800	3.459300	-10.370000	25.837429	0.000248	20.788533
1590.408886	-3.011000	3.458800	-10.414000	25.874693	0.000248	20.812216
1591.409337	-3.025700	3.458000	-10.462000	25.921517	0.000249	20.827961
1592.410658	-2.990700	3.459600	-10.346000	25.866718	0.000246	20.826964
1593.409180	-3.013500	3.457600	-10.418000	25.851842	0.000245	20.836201
1594.410370	-2.998100	3.457800	-10.366000	25.852061	0.000245	20.813189
1595.415241	-2.995600	3.458000	-10.357000	25.875637	0.000245	20.808423
1596.412419	-2.990400	3.457000	-10.337000	25.882269	0.000246	20.811767
1597.413032	-3.006900	3.457500	-10.396000	25.910499	0.000246	20.800771
1598.411501	-3.000400	3.457100	-10.372000	25.940030	0.000244	20.829490
1599.411335	-3.000300	3.456700	-10.370000	25.912200	0.000245	20.819549
1600.412731	-2.996800	3.455800	-10.356000	25.882098	0.000244	20.834828
1601.410669	-3.017600	3.455300	-10.426000	25.880642	0.000245	20.809183
1602.415686	-3.013400	3.454800	-10.410000	25.848684	0.000243	20.815960
1603.415140	-2.991700	3.455800	-10.337000	25.852883	0.000245	20.816385
1604.411541	-3.011500	3.455200	-10.404000	25.875596	0.000244	20.813124
1605.409502	-3.001100	3.454700	-10.367000	25.912265	0.000244	20.830994
1606.413111	-2.999800	3.455600	-10.365000	25.953074	0.000240	20.810352
1607.412213	-3.019600	3.453600	-10.427000	25.973417	0.000242	20.833160
1608.414520	-2.997100	3.453100	-10.348000	25.988471	0.000243	20.837378
1609.411030	-2.991400	3.453300	-10.329000	26.000692	0.000241	20.820734
1610.411834	-2.987000	3.453900	-10.315000	25.959812	0.000240	20.826604
1611.414357	-3.002800	3.451900	-10.365000	25.973791	0.000240	20.836855
1612.413070	-2.998100	3.451300	-10.347000	25.956565	0.000240	20.833773
1613.417015	-3.004100	3.451100	-10.367000	25.934285	0.000240	20.815184
1614.413976	-2.995300	3.451900	-10.339000	25.969926	0.000240	20.818274
1615.422139	-3.002100	3.450500	-10.358000	25.966053	0.000241	20.830503
1616.416153	-3.020300	3.451200	-10.423000	25.904672	0.000239	20.827160
1617.415535	-3.024300	3.450200	-10.433000	25.890659	0.000240	20.823514
1618.417731	-3.003000	3.450500	-10.361000	25.911728	0.000240	20.816230
1619.415035	-3.017000	3.449400	-10.406000	25.926978	0.000237	20.843403
1620.415075	-3.013900	3.449200	-10.394000	25.855927	0.000239	20.833193
1621.414667	-2.996000	3.449100	-10.333000	25.914600	0.000240	20.827650
1622.415625	-3.012800	3.449700	-10.392000	25.888047	0.000238	20.859295
1623.424443	-2.996500	3.449400	-10.335000	25.891725	0.000238	20.828852
1624.418272	-2.973900	3.448800	-10.256000	25.860126	0.000238	20.829825
1625.417812	-2.983700	3.448300	-10.288000	25.846511	0.000238	20.831321
1626.416276	-2.966300	3.448200	-10.228000	25.829795	0.000235	20.846771
1627.417301	-2.976800	3.448100	-10.264000	25.840229	0.000235	20.855829
1628.416743	-2.978500	3.447500	-10.268000	25.867605	0.000239	20.848717
1629.421497	-3.003600	3.446900	-10.352000	25.930924	0.000236	20.846420
1630.417597	-2.986200	3.447800	-10.295000	25.895420	0.000235	20.847262
1631.422476	-2.978400	3.446900	-10.265000	25.917652	0.000234	20.810328
1632.417525	-2.988000	3.446300	-10.296000	25.917180	0.000235	20.860586
1633.417727	-2.987600	3.445100	-10.291000	25.943114	0.000234	20.833062
1634.422466	-3.014600	3.445400	-10.385000	25.893304	0.000235	20.855093
1635.422369	-3.008200	3.445600	-10.364000	25.872764	0.000234	20.845839
1636.421765	-3.044000	3.444300	-10.483000	25.867686	0.000235	20.859703
1637.422575	-3.007700	3.443400	-10.355000	25.859939	0.000232	20.849551
1638.423693	-3.035300	3.443100	-10.450000	25.884190	0.000231	20.867747
1639.422638	-3.016600	3.443200	-10.386000	25.915235	0.000234	20.832081
1640.425127	-2.989600	3.443100	-10.293000	25.941023	0.000230	20.849927
1641.424836	-3.014700	3.442500	-10.378000	25.928548	0.000231	20.856834
1642.423463	-3.017200	3.443300	-10.388000	25.918213	0.000230	20.839814
1643.424489	-2.995100	3.443600	-10.313000	25.910068	0.000232	20.850123
1644.422826	-3.022400	3.441100	-10.399000	25.933984	0.000231	20.863717
1645.428218	-2.968100	3.443100	-10.219000	25.965581	0.000230	20.857055
1646.422533	-3.024600	3.440100	-10.404000	25.960642	0.000229	20.862050
1647.423024	-3.000000	3.441400	-10.324000	25.948615	0.000230	20.882682
1648.426798	-2.992500	3.440900	-10.296000	25.934057	0.000227	20.850989
1649.426621	-2.968400	3.440400	-10.211000	25.948387	0.000228	20.862066
1650.428598	-2.986000	3.440100	-10.271000	25.904445	0.000229	20.866758
1651.425706	-3.006800	3.439400	-10.341000	25.887551	0.000229	20.847417
1652.425731	-3.002500	3.438500	-10.323000	25.922624	0.000227	20.859417
1653.425845	-3.025900	3.437800	-10.402000	25.940616	0.000226	20.855207
1654.424408	-3.001700	3.439400	-10.323000	25.966867	0.000227	20.850286
1655.428288	-2.986800	3.438500	-10.269000	26.018528	0.000225	20.850507
1656.429525	-2.970100	3.439500	-10.215000	26.038154	0.000228	20.844147
1657.432265	-2.997700	3.437800	-10.305000	26.034484	0.000225	20.848995
1658.427419	-2.993800	3.438100	-10.292000	25.992303	0.000227	20.843125
1659.428219	-2.992800	3.437500	-10.287000	26.007063	0.000226	20.845627
1660.429834	-2.988100	3.437300	-10.270000	25.966151	0.000225	20.864739
1661.431294	-2.977700	3.436500	-10.232000	25.942805	0.000226	20.869260
1662.428719	-2.978900	3.436400	-10.236000	25.889195	0.000225	20.837215
1663.430642	-3.005400	3.436700	-10.327000	25.862266	0.000226	20.830078
1664.431521	-2.990500	3.435000	-10.272000	25.874717	0.000224	20.839741
1665.429846	-2.994800	3.435700	-10.288000	25.893719	0.000224	20.840812
1666.432911	-3.010100	3.433800	-10.335000	25.969706	0.000224	20.834648
1667.431363	-2.986700	3.434000	-10.255000	25.979447	0.000224	20.844907
1668.431243	-2.983500	3.434700	-10.247000	26.001636	0.000224	20.828795
1669.432868	-3.016300	3.434300	-10.357000	26.065908	0.000224	20.817031
1670.432123	-3.010000	3.433800	-10.335000	26.041547	0.000220	20.846608
1671.433527	-3.006700	3.434100	-10.324000	26.035957	0.000224	20.849526
1672.439421	-2.993800	3.434600	-10.281000	26.029798	0.000221	20.834329
1673.435685	-3.030500	3.433500	-10.404000	26.029448	0.000223	20.841090
1674.434234	-3.005100	3.432400	-10.313000	26.061612	0.000219	20.833103
1675.436683	-3.010600	3.430400	-10.327000	26.034419	0.000220	20.850826
1676.433990	-3.020700	3.430800	-10.363000	25.997470	0.000221	20.829825
1677.435178	-3.005200	3.430400	-10.308000	25.988796	0.000221	20.833438
1678.440007	-2.998700	3.431700	-10.290000	25.983157	0.000221	20.819713
1679.434066	-3.014300	3.430400	-10.340000	26.015599	0.000220	20.806314
1680.434546	-3.008900	3.430300	-10.319000	25.974393	0.000218	20.816124
1681.435749	-2.990700	3.431100	-10.261000	25.948558	0.000219	20.810557
1682.438319	-2.994800	3.430000	-10.271000	25.919800	0.000220	20.808693
1683.438634	-3.001500	3.431200	-10.297000	25.933007	0.000218	20.838081
1684.440820	-2.991100	3.428500	-10.254000	25.990082	0.000219	20.832359
1685.439004	-3.008700	3.427500	-10.312000	26.038512	0.000216	20.827912
1686.437358	-3.011300	3.427100	-10.319000	26.022759	0.000219	20.827258
1687.435204	-2.999500	3.429300	-10.286000	26.016185	0.000217	20.815437
1688.437521	-3.000500	3.427600	-10.283000	26.009228	0.000218	20.812715
1689.439353	-3.010500	3.428100	-10.320000	25.968836	0.000215	20.807695
1690.437395	-3.003500	3.428200	-10.295000	25.976249	0.000217	20.807082
1691.443539	-3.007000	3.425700	-10.300000	26.044558	0.000216	20.818339
1692.438363	-3.004600	3.427100	-10.296000	26.049944	0.000215	20.825173
1693.444760	-2.997000	3.427800	-10.272000	26.022727	0.000215	20.840975
1694.438995	-3.003700	3.425600	-10.288000	25.992083	0.000215	20.836741
1695.437459	-3.005300	3.425700	-10.293000	26.018056	0.000215	20.845766
1696.439784	-2.991800	3.424200	-10.243000	26.030302	0.000216	20.832940
1697.439248	-2.980900	3.425200	-10.208000	26.047942	0.000213	20.806093
1698.437566	-2.980200	3.425500	-10.208000	26.071017	0.000215	20.814105
1699.440121	-2.996200	3.424500	-10.259000	26.087990	0.000215	20.809347
1700.439548	-3.015700	3.423700	-10.324000	26.047804	0.000214	20.805480
1701.442822	-3.012900	3.423400	-10.314000	26.007462	0.000213	20.809044
1702.444355	-3.000600	3.423300	-10.271000	26.030319	0.000211	20.809723
1703.439726	-3.010200	3.423800	-10.306000	26.052304	0.000210	20.822803
1704.443183	-3.013500	3.422600	-10.313000	26.068772	0.000212	20.808529
1705.439031	-3.028100	3.422300	-10.362000	26.029749	0.000211	20.812944
1706.440305	-2.992700	3.422200	-10.240000	26.059358	0.000211	20.797648
1707.441186	-2.987300	3.421300	-10.219000	26.036242	0.000213	20.799079
1708.440053	-2.988700	3.422600	-10.228000	26.054069	0.000208	20.807507
1709.441518	-2.989300	3.420700	-10.225000	26.074044	0.000208	20.802921
1710.440151	-2.987600	3.421100	-10.220000	26.066494	0.000210	20.812404
1711.442218	-3.023400	3.420000	-10.339000	26.043492	0.000209	20.792138
1712.442482	-3.010900	3.420700	-10.299000	26.019602	0.000211	20.805595
1713.442207	-2.989600	3.420000	-10.223000	26.073206	0.000207	20.819149
1714.443370	-2.988800	3.419400	-10.218000	26.090146	0.000208	20.786857
1715.444578	-2.993600	3.418900	-10.234000	26.114961	0.000209	20.824119
1716.443404	-2.994900	3.418900	-10.238000	26.074183	0.000209	20.817759
1717.445074	-2.990400	3.419000	-10.224000	26.021840	0.000209	20.798834
1718.443997	-2.984200	3.418800	-10.202000	26.026389	0.000208	20.819525
1719.442698	-3.004000	3.416900	-10.263000	26.053020	0.000208	20.796970
1720.446643	-3.003000	3.419000	-10.266000	26.071945	0.000207	20.791329
1721.445182	-2.997600	3.418500	-10.247000	26.064419	0.000207	20.793250
1722.443618	-3.031500	3.416400	-10.356000	26.057991	0.000207	20.804810
1723.456401	-3.026900	3.416800	-10.341000	26.059643	0.000206	20.805047
1724.445640	-2.979200	3.416200	-10.177000	26.075672	0.000205	20.793651
1725.449880	-3.007600	3.415600	-10.272000	26.081701	0.000206	20.794967
1726.447468	-3.018500	3.414700	-10.306000	26.052450	0.000205	20.792605
1727.448920	-2.998700	3.415700	-10.242000	26.012654	0.000205	20.794346
1728.448601	-2.999900	3.414700	-10.243000	26.061034	0.000207	20.794591
1729.450879	-2.991900	3.415000	-10.216000	26.071245	0.000206	20.785410
1730.453348	-3.011400	3.414500	-10.281000	26.066526	0.000204	20.802480
1731.448839	-2.989100	3.415000	-10.207000	26.075444	0.000202	20.782042
1732.450112	-3.022100	3.413900	-10.316000	26.040123	0.000205	20.797763
1733.452847	-3.029100	3.413400	-10.339000	26.026616	0.000204	20.780873
1734.451135	-3.003600	3.413500	-10.251000	26.005469	0.000202	20.793765
1735.457345	-2.967000	3.414700	-10.130000	25.972042	0.000205	20.790054
1736.454138	-2.988800	3.414400	-10.204000	25.969813	0.000206	20.784495
1737.454158	-2.985000	3.413000	-10.187000	25.955100	0.000203	20.785835
1738.458227	-3.019000	3.412100	-10.299000	26.002198	0.000203	20.780047
1739.454394	-3.006700	3.412100	-10.258000	26.038439	0.000202	20.792277
1740.460059	-3.019900	3.411200	-10.301000	26.081619	0.000202	20.795359
1741.453596	-3.003500	3.412900	-10.250000	26.077860	0.000202	20.785893
1742.454516	-2.986500	3.411700	-10.188000	26.065607	0.000202	20.791125
1743.455392	-2.969000	3.410300	-10.124000	26.082897	0.000200	20.770090
1744.454501	-2.990500	3.411000	-10.200000	26.113537	0.000201	20.772428
1745.456994	-2.995600	3.409400	-10.212000	26.118305	0.000200	20.794289
1746.456669	-3.017000	3.408900	-10.283000	26.057226	0.000200	20.805938
1747.455776	-3.004100	3.409000	-10.240000	26.010530	0.000200	20.775616
1748.455198	-3.006800	3.409400	-10.250000	25.998634	0.000198	20.768880
1749.456228	-2.998000	3.409600	-10.221000	25.983824	0.000199	20.782925
1750.459459	-3.011800	3.407100	-10.261000	25.976151	0.000198	20.786122
1751.456985	-2.986000	3.409600	-10.181000	26.014029	0.000197	20.775813
1752.455242	-2.996400	3.408500	-10.213000	25.999187	0.000199	20.759004
1753.455841	-2.985500	3.406600	-10.170000	26.028683	0.000198	20.774889
1754.460561	-3.014700	3.406000	-10.268000	26.077234	0.000198	20.784315
1755.458958	-3.024100	3.406200	-10.299000	26.086452	0.000198	20.765602
1756.463593	-3.011100	3.404900	-10.251000	26.106020	0.000197	20.772461
1757.459937	-2.998200	3.405400	-10.209000	26.072783	0.000197	20.790274
1758.459215	-2.989200	3.407000	-10.183000	26.044468	0.000196	20.783162
1759.464991	-2.964800	3.405700	-10.096000	26.018838	0.000196	20.771635
1760.460378	-2.991500	3.405100	-10.185000	26.029611	0.000194	20.778666
1761.464033	-3.007200	3.404700	-10.238000	26.055143	0.000193	20.776344
1762.461433	-3.014800	3.404600	-10.264000	26.069520	0.000196	20.764711
1763.461129	-2.999200	3.405300	-10.213000	26.090561	0.000196	20.784429
1764.461932	-3.014500	3.403100	-10.258000	26.113545	0.000195	20.773385
1765.462021	-2.982500	3.403600	-10.150000	26.057901	0.000194	20.774848
1766.463831	-2.989100	3.403200	-10.172000	26.085199	0.000194	20.765765
1767.462841	-2.984500	3.403100	-10.155000	26.061604	0.000192	20.753911
1768.463023	-2.978200	3.403700	-10.135000	26.080179	0.000193	20.783007
1769.465543	-2.986300	3.401800	-10.158000	26.121348	0.000193	20.797346
1770.463236	-3.016500	3.401200	-10.259000	26.102008	0.000191	20.784552
1771.464605	-3.022000	3.401700	-10.280000	26.106931	0.000192	20.771006
1772.465894	-3.008600	3.402800	-10.237000	26.104140	0.000190	20.767727
1773.465391	-3.016100	3.400200	-10.254000	26.108265	0.000191	20.755276
1774.465977	-2.984000	3.399700	-10.144000	26.098827	0.000190	20.787045
1775.467947	-3.002700	3.400000	-10.209000	26.073784	0.000192	20.775633
1776.471951	-3.012900	3.400200	-10.244000	26.106670	0.000190	20.769321
1777.471389	-3.024500	3.400100	-10.281000	26.076143	0.000188	20.763304
1778.472026	-2.997300	3.398200	-10.184000	26.103050	0.000189	20.775167
1779.470884	-2.975900	3.399300	-10.114000	26.070562	0.000190	20.760541
1780.470442	-3.017600	3.398200	-10.253000	26.074736	0.000188	20.759045
1781.473543	-3.002900	3.398900	-10.205000	26.018357	0.000189	20.772101
1782.472613	-3.009600	3.398500	-10.228000	26.032808	0.000189	20.771447
1783.473941	-3.021700	3.397500	-10.266000	26.102920	0.000190	20.754647
1784.471376	-3.021200	3.397500	-10.264000	26.152899	0.000188	20.767408
1785.472210	-3.001800	3.396800	-10.196000	26.186442	0.000186	20.764604
1786.474846	-2.977000	3.396300	-10.109000	26.189574	0.000186	20.774390
1787.472857	-3.001000	3.396800	-10.193000	26.198149	0.000186	20.764040
1788.474021	-3.012300	3.394800	-10.226000	26.149905	0.000185	20.753020
1789.474200	-2.998900	3.395900	-10.183000	26.117752	0.000187	20.759593
1790.473032	-3.018500	3.395000	-10.247000	26.124358	0.000187	20.750584
1791.476346	-2.983900	3.396100	-10.132000	26.111910	0.000186	20.752300
1792.476185	-2.997700	3.395000	-10.176000	26.112585	0.000186	20.755350
1793.479907	-2.987800	3.394500	-10.140000	26.092815	0.000186	20.738803
1794.475280	-2.998700	3.394600	-10.178000	26.108859	0.000186	20.751131
1795.476288	-2.994800	3.393900	-10.163000	26.133641	0.000186	20.759912
1796.475801	-2.994600	3.393900	-10.162000	26.185929	0.000186	20.759822
1797.477595	-2.990800	3.393400	-10.148000	26.224003	0.000184	20.764890
1798.475179	-2.985800	3.393200	-10.129000	26.196009	0.000182	20.765209
1799.480258	-3.008400	3.392100	-10.203000	26.174719	0.000184	20.749504
1800.479116	-2.985300	3.393300	-10.130000	26.162727	0.000182	20.764008
1801.477687	-3.014700	3.389800	-10.217000	26.115815	0.000183	20.772346
1802.477643	-3.010300	3.392400	-10.211000	26.081765	0.000183	20.759470
1803.481700	-3.008100	3.390600	-10.198000	26.052808	0.000182	20.764040
1804.480324	-2.994400	3.390600	-10.153000	26.078137	0.000181	20.755824
1805.477835	-3.026800	3.389800	-10.259000	26.116092	0.000182	20.747019
1806.478799	-3.009800	3.390500	-10.204000	26.132226	0.000183	20.754222
1807.479986	-3.008900	3.391300	-10.204000	26.137612	0.000180	20.762005
1808.477620	-3.025400	3.390100	-10.255000	26.187508	0.000180	20.766149
1809.481348	-3.005300	3.388600	-10.183000	26.240428	0.000179	20.760533
1810.477849	-3.010000	3.388700	-10.199000	26.264939	0.000180	20.739645
1811.479122	-3.000500	3.389900	-10.171000	26.199548	0.000179	20.744583
1812.481462	-3.003800	3.387700	-10.174000	26.157894	0.000180	20.746823
1813.480196	-3.001000	3.387900	-10.165000	26.182334	0.000179	20.766640
1814.484514	-2.977000	3.387800	-10.084000	26.206886	0.000178	20.744370
1815.481264	-2.974000	3.388100	-10.075000	26.188191	0.000179	20.769681
1816.483407	-3.021000	3.387600	-10.233000	26.176289	0.000177	20.760566
1817.479687	-3.006800	3.386700	-10.182000	26.187190	0.000178	20.750657
1818.479789	-3.005600	3.387600	-10.181000	26.176761	0.000178	20.745866
1819.480842	-3.015800	3.386700	-10.213000	26.150808	0.000176	20.748711
1820.482606	-2.998200	3.386500	-10.152000	26.165924	0.000175	20.770065
1821.482035	-3.015300	3.385500	-10.207000	26.171708	0.000177	20.736996
1822.481131	-3.009500	3.384600	-10.185000	26.184278	0.000175	20.744885
1823.482089	-2.994500	3.385400	-10.136000	26.229429	0.000176	20.744738
1824.482244	-2.993900	3.384100	-10.131000	26.263043	0.000177	20.749594
1825.483384	-3.019900	3.383600	-10.218000	26.252565	0.000174	20.741435
1826.481488	-2.981200	3.385000	-10.091000	26.226940	0.000173	20.745556
1827.481454	-2.999100	3.383800	-10.147000	26.184237	0.000175	20.738680
1828.481503	-2.970700	3.384400	-10.053000	26.197303	0.000173	20.748491
1829.482201	-2.997100	3.383100	-10.138000	26.160815	0.000172	20.751180
1830.484809	-3.003900	3.382400	-10.159000	26.186328	0.000174	20.744575
1831.485037	-2.967800	3.384300	-10.043000	26.230902	0.000173	20.720138
1832.482083	-2.980200	3.383400	-10.082000	26.248181	0.000174	20.734658
1833.482244	-2.999600	3.383200	-10.148000	26.278524	0.000173	20.717260
1834.483712	-3.003900	3.382000	-10.158000	26.235596	0.000171	20.725804
1835.482036	-2.989500	3.381400	-10.108000	26.164061	0.000172	20.722198
1836.482568	-3.008200	3.380600	-10.168000	26.125570	0.000171	20.735680
1837.483530	-3.013000	3.380700	-10.185000	26.148367	0.000172	20.722550
1838.484587	-2.986900	3.379600	-10.094000	26.171261	0.000172	20.720898
1839.488291	-3.001400	3.381000	-10.146000	26.192080	0.000170	20.722378
1840.484774	-3.005000	3.379100	-10.154000	26.187524	0.000169	20.721593
1841.485841	-2.985000	3.379300	-10.086000	26.217926	0.000170	20.737920
1842.485267	-3.013100	3.379900	-10.183000	26.183749	0.000169	20.723016
1843.486130	-3.002800	3.378300	-10.143000	26.175858	0.000169	20.721250
1844.486319	-2.988700	3.378800	-10.097000	26.194773	0.000168	20.750690
1845.487731	-3.017000	3.378000	-10.191000	26.205723	0.000168	20.715699
1846.487504	-3.006400	3.377900	-10.155000	26.193260	0.000169	20.738263
1847.491180	-3.014400	3.377700	-10.181000	26.201606	0.000168	20.731478
1848.489668	-2.964200	3.376800	-10.009000	26.221888	0.000170	20.730047
1849.490542	-3.012300	3.376800	-10.171000	26.174654	0.000168	20.724308
1850.493482	-3.019900	3.376000	-10.194000	26.168593	0.000166	20.711104
1851.492652	-3.006500	3.375800	-10.149000	26.188923	0.000169	20.704032
1852.495053	-2.990700	3.377000	-10.099000	26.218560	0.000166	20.719116
1853.493284	-3.015700	3.376600	-10.182000	26.231121	0.000166	20.728894
1854.493368	-2.993500	3.375200	-10.103000	26.252671	0.000165	20.725894
1855.494047	-2.992000	3.374700	-10.096000	26.229893	0.000164	20.725763
1856.494514	-3.017000	3.373800	-10.178000	26.164850	0.000164	20.739114
1857.493804	-2.968100	3.374300	-10.015000	26.169642	0.000165	20.705520
1858.494779	-3.004100	3.373700	-10.133000	26.179551	0.000166	20.712159
1859.494047	-2.984800	3.374200	-10.070000	26.197775	0.000167	20.712927
1860.493866	-2.985000	3.374300	-10.070000	26.264597	0.000164	20.714170
1861.492936	-2.981100	3.373600	-10.056000	26.301033	0.000163	20.704318
1862.496012	-3.006000	3.371900	-10.135000	26.311876	0.000164	20.715216
1863.493248	-2.993000	3.373900	-10.097000	26.293101	0.000162	20.702037
1864.496560	-3.016300	3.372400	-10.171000	26.326347	0.000162	20.719803
1865.497170	-2.987700	3.371300	-10.071000	26.364562	0.000162	20.702732
1866.498206	-2.972800	3.371300	-10.022000	26.331602	0.000162	20.710385
1867.496223	-3.009300	3.369900	-10.139000	26.322435	0.000161	20.695480
1868.498625	-3.010500	3.371700	-10.149000	26.341575	0.000163	20.711399
1869.497520	-2.987900	3.371700	-10.073000	26.364945	0.000161	20.703591
1870.497056	-3.007200	3.370800	-10.136000	26.375901	0.000161	20.725510
1871.497202	-2.992300	3.370600	-10.084000	26.394740	0.000161	20.700819
1872.498143	-2.989700	3.370300	-10.075000	26.379041	0.000160	20.715388
1873.501620	-2.974600	3.369600	-10.021000	26.339289	0.000159	20.719533
1874.510399	-2.994200	3.369600	-10.088000	26.295640	0.000160	20.725927
1875.499434	-3.018600	3.368500	-10.166000	26.297022	0.000159	20.711668
1876.500312	-2.994600	3.368200	-10.085000	26.272138	0.000159	20.694720
1877.502998	-3.026900	3.367600	-10.192000	26.308118	0.000158	20.684885
1878.505645	-3.005500	3.367300	-10.119000	26.327486	0.000157	20.703403
1879.505566	-3.015900	3.366300	-10.152000	26.308313	0.000156	20.714955
1880.501052	-3.000000	3.366900	-10.100000	26.304669	0.000157	20.711292
1881.504306	-2.977000	3.367100	-10.023000	26.291499	0.000158	20.699478
1882.502775	-2.991300	3.367000	-10.071000	26.290531	0.000157	20.709412
1883.505889	-3.018500	3.367600	-10.163000	26.313747	0.000157	20.715675
1884.508176	-3.005100	3.364800	-10.111000	26.265281	0.000155	20.703476
1885.505672	-3.002700	3.365400	-10.104000	26.258968	0.000154	20.716574
1886.507341	-3.002300	3.365900	-10.105000	26.281615	0.000154	20.717522
1887.508916	-2.992000	3.363900	-10.064000	26.293557	0.000156	20.711031
1888.510102	-2.996500	3.364600	-10.081000	26.340436	0.000154	20.694606
1889.509987	-2.994700	3.365500	-10.077000	26.359284	0.000156	20.716394
1890.507675	-3.005200	3.363600	-10.107000	26.312950	0.000154	20.714873
1891.507426	-3.021000	3.363400	-10.160000	26.325087	0.000153	20.695301
1892.507563	-2.976900	3.364400	-10.015000	26.340355	0.000152	20.719182
1893.511319	-3.015100	3.362600	-10.138000	26.345097	0.000152	20.714465
1894.512516	-3.014800	3.361900	-10.134000	26.345317	0.000153	20.703779
1895.511019	-3.009100	3.361200	-10.112000	26.378293	0.000152	20.708946
1896.510487	-3.013800	3.362200	-10.132000	26.378968	0.000151	20.721005
1897.512914	-2.986100	3.364000	-10.045000	26.370915	0.000153	20.716705
1898.519793	-3.010300	3.361700	-10.119000	26.325526	0.000149	20.707597
1899.511645	-3.035700	3.360000	-10.199000	26.320776	0.000152	20.726058
1900.512962	-3.009000	3.360800	-10.112000	26.342649	0.000152	20.718168
1901.512184	-3.014700	3.360300	-10.130000	26.420174	0.000148	20.702675
1902.511046	-3.019400	3.359600	-10.143000	26.380619	0.000153	20.727881
1903.516512	-2.989800	3.360100	-10.045000	26.386395	0.000148	20.711399
1904.513246	-3.012200	3.358700	-10.116000	26.341982	0.000150	20.712282
1905.519423	-2.981600	3.359500	-10.016000	26.391560	0.000151	20.704736
1906.513147	-2.981400	3.359900	-10.016000	26.370061	0.000149	20.697353
1907.512627	-2.987800	3.359300	-10.035000	26.380335	0.000149	20.719534
1908.517877	-3.014100	3.357200	-10.118000	26.416783	0.000150	20.718234
1909.513658	-2.983800	3.359300	-10.022000	26.485356	0.000148	20.710819
1910.515661	-3.007800	3.358700	-10.101000	26.440671	0.000147	20.713320
1911.517478	-3.009200	3.356400	-10.099000	26.416091	0.000148	20.728919
1912.515201	-2.987100	3.356700	-10.026000	26.405306	0.000148	20.699585
1913.519088	-3.006400	3.356600	-10.091000	26.397115	0.000147	20.716484
1914.519392	-2.986200	3.356900	-10.024000	26.451221	0.000146	20.688360
1915.517076	-3.011900	3.355100	-10.104000	26.447569	0.000147	20.708873
1916.520144	-3.022400	3.355400	-10.140000	26.460525	0.000147	20.699610
1917.519360	-3.008800	3.355300	-10.095000	26.456125	0.000144	20.705619
1918.519272	-2.962100	3.355400	-9.938100	26.463104	0.000144	20.715005
1919.519804	-2.996000	3.354300	-10.049000	26.426682	0.000145	20.715381
1920.520543	-2.972600	3.355700	-9.974400	26.402720	0.000145	20.710263
1921.521472	-2.988900	3.354800	-10.026000	26.359788	0.000144	20.713108
1922.520167	-2.973500	3.355800	-9.977100	26.320329	0.000144	20.709486
1923.522110	-3.003100	3.355100	-10.074000	26.348563	0.000145	20.705619
1924.521577	-3.000800	3.354000	-10.064000	26.391544	0.000144	20.697607
1925.522005	-2.976100	3.353000	-9.977900	26.406087	0.000143	20.754427
1926.521870	-2.981800	3.352600	-9.995300	26.381116	0.000142	20.717948
1927.522660	-2.979500	3.353300	-9.990700	26.385028	0.000142	20.725200
1928.521164	-3.000300	3.351900	-10.056000	26.356925	0.000141	20.718291
1929.522573	-3.015500	3.350200	-10.102000	26.372396	0.000142	20.703493
1930.522736	-2.999700	3.351100	-10.051000	26.412521	0.000141	20.702569
1931.521313	-2.996000	3.351100	-10.040000	26.444852	0.000142	20.710884
1932.524870	-2.998500	3.350100	-10.043000	26.461933	0.000142	20.724734
1933.522170	-2.994900	3.350200	-10.032000	26.475190	0.000139	20.716721
1934.523658	-3.004300	3.349600	-10.062000	26.491969	0.000141	20.723156
1935.521993	-3.008100	3.350200	-10.077000	26.534025	0.000140	20.703788
1936.522586	-3.011800	3.349900	-10.088000	26.472856	0.000138	20.718169
1937.525831	-3.006700	3.348300	-10.067000	26.398970	0.000139	20.714081
1938.529858	-2.995300	3.349200	-10.030000	26.320866	0.000138	20.716664
1939.522868	-2.990100	3.348600	-10.012000	26.367207	0.000139	20.720564
1940.522754	-3.008600	3.347400	-10.070000	26.467862	0.000138	20.727848
1941.526777	-3.002000	3.347800	-10.049000	26.456337	0.000142	20.714367
1942.521970	-2.999200	3.348200	-10.041000	26.512212	0.000136	20.723115
1943.529434	-2.985600	3.347700	-9.993000	26.510220	0.000136	20.711628
1944.523655	-2.990800	3.348000	-10.012000	26.452490	0.000138	20.723303
1945.523419	-3.009400	3.346900	-10.072000	26.455792	0.000136	20.732312
1946.522393	-3.002300	3.345900	-10.045000	26.400182	0.000133	20.715773
1947.524654	-2.961000	3.346200	-9.907500	26.368524	0.000136	20.715724
1948.526175	-3.011500	3.345400	-10.074000	26.373812	0.000134	20.721512
1949.525700	-3.031100	3.344400	-10.136000	26.336313	0.000137	20.717016
1950.525664	-3.017000	3.344000	-10.088000	26.388363	0.000136	20.722387
1951.526031	-3.007300	3.344100	-10.056000	26.438264	0.000134	20.722755
1952.525857	-2.997700	3.343700	-10.021000	26.504527	0.000135	20.713966
1953.526309	-2.994000	3.343600	-10.010000	26.508276	0.000133	20.718210
1954.528278	-3.007200	3.344000	-10.056000	26.537823	0.000134	20.712822
1955.527695	-2.990400	3.344400	-10.000000	26.524119	0.000132	20.706159
1956.527977	-3.005000	3.344000	-10.048000	26.541897	0.000133	20.704589
1957.532456	-2.994700	3.343000	-10.010000	26.583350	0.000133	20.718757
1958.529333	-2.987200	3.341900	-9.981900	26.610731	0.000131	20.725895
1959.532510	-3.003000	3.342000	-10.035000	26.624190	0.000132	20.709077
1960.529251	-3.019800	3.340800	-10.088000	26.611382	0.000135	20.718487
1961.528027	-2.988300	3.342600	-9.987300	26.626394	0.000132	20.739270
1962.528680	-2.985000	3.341600	-9.973700	26.630395	0.000131	20.734757
1963.529240	-3.006000	3.340600	-10.041000	26.584496	0.000129	20.735084
1964.528471	-2.998400	3.340000	-10.013000	26.623393	0.000131	20.739572
1965.534352	-3.009400	3.340900	-10.054000	26.584016	0.000128	20.736024
1966.530757	-3.010800	3.340500	-10.058000	26.568434	0.000132	20.731266
1967.533335	-2.997300	3.340500	-10.012000	26.571980	0.000128	20.724873
1968.539271	-2.983900	3.341400	-9.969600	26.574664	0.000127	20.729467
1969.534137	-2.988200	3.339800	-9.979400	26.599460	0.000128	20.729737
1970.532593	-3.003400	3.339100	-10.027000	26.583301	0.000128	20.731511
1971.532459	-3.022400	3.338800	-10.090000	26.601794	0.000128	20.719755
1972.532544	-3.003600	3.337400	-10.023000	26.549713	0.000128	20.741371
1973.534323	-2.997400	3.338800	-10.007000	26.517865	0.000126	20.731642
1974.531401	-2.979500	3.338900	-9.947200	26.546167	0.000127	20.719313
1975.533549	-2.995800	3.336700	-9.995700	26.457264	0.000126	20.723834
1976.536495	-3.005400	3.337000	-10.028000	26.448919	0.000126	20.716869
1977.531375	-3.006100	3.335300	-10.025000	26.446861	0.000126	20.728552
1978.534741	-3.002600	3.337000	-10.018000	26.418304	0.000128	20.725927
1979.534492	-3.020400	3.335400	-10.073000	26.395716	0.000125	20.727881
1980.537008	-2.967700	3.338100	-9.905500	26.494832	0.000125	20.731249
1981.535023	-3.004100	3.335600	-10.019000	26.488919	0.000124	20.746170
1982.536189	-3.003400	3.335400	-10.017000	26.482437	0.000123	20.730645
1983.536822	-3.016300	3.334700	-10.058000	26.510992	0.000121	20.735640
1984.534897	-2.989800	3.333500	-9.966000	26.570679	0.000124	20.724987
1985.535235	-3.012200	3.333100	-10.038000	26.601330	0.000124	20.731617
1986.538486	-2.999400	3.333800	-9.999100	26.620896	0.000122	20.743701
1987.535756	-2.993800	3.332600	-9.976700	26.647261	0.000123	20.742703
1988.535329	-2.983500	3.333100	-9.943000	26.640080	0.000122	20.744494
1989.540191	-3.002900	3.332700	-10.007000	26.667233	0.000123	20.734332
1990.536142	-2.977100	3.332500	-9.920300	26.654880	0.000123	20.744674
1991.538783	-2.980900	3.332200	-9.932300	26.655222	0.000123	20.738379
1992.536923	-2.981500	3.331500	-9.932400	26.666468	0.000122	20.723605
1993.537523	-2.966500	3.331700	-9.882100	26.705167	0.000119	20.760141
1994.537065	-2.990200	3.330200	-9.956400	26.708420	0.000119	20.730219
1995.540025	-2.987800	3.331300	-9.952700	26.703110	0.000120	20.719191
1996.539319	-2.990000	3.330600	-9.958300	26.719934	0.000118	20.739899
1997.537031	-3.008600	3.330100	-10.018000	26.708818	0.000119	20.760493
1998.537967	-2.997800	3.330000	-9.981500	26.722918	0.000120	20.747167
1999.537249	-3.021300	3.329800	-10.060000	26.727260	0.000117	20.742998
2000.540616	-3.001000	3.328500	-9.988300	26.715421	0.000118	20.756700
2001.538024	-3.023500	3.328700	-10.063000	26.606836	0.000119	20.764654
2002.540392	-2.992400	3.329300	-9.961600	26.574640	0.000118	20.751255
2003.539019	-3.026600	3.327900	-10.071000	26.579975	0.000121	20.741919
2004.539856	-3.015700	3.327800	-10.034000	26.566401	0.000117	20.750086
2005.540572	-3.017900	3.326500	-10.038000	26.547306	0.000113	20.751279
2006.538738	-3.007100	3.326000	-10.001000	26.560464	0.000116	20.730841
2007.541960	-3.013000	3.327600	-10.025000	26.560814	0.000116	20.745418
2008.541244	-2.986800	3.327200	-9.935900	26.591140	0.000115	20.748402
2009.538811	-2.991100	3.326400	-9.948500	26.562595	0.000116	20.737725
2010.537714	-2.981400	3.326300	-9.915700	26.609869	0.000114	20.729296
2011.539656	-2.996700	3.326200	-9.966200	26.651246	0.000114	20.751451
2012.541991	-2.992200	3.325700	-9.950300	26.636226	0.000113	20.761956
2013.542472	-2.993700	3.324200	-9.950600	26.702403	0.000113	20.765897
2014.543203	-2.996400	3.324300	-9.959200	26.698459	0.000114	20.752449
2015.539259	-3.005700	3.323500	-9.988300	26.666330	0.000112	20.760452
2016.543686	-3.004900	3.322700	-9.983700	26.671648	0.000114	20.769118
2017.542288	-3.026600	3.322000	-10.054000	26.694084	0.000112	20.755163
2018.544147	-3.004600	3.322100	-9.980400	26.698768	0.000114	20.740905
2019.540514	-3.015000	3.321900	-10.014000	26.649229	0.000110	20.767916
2020.541202	-3.007000	3.320700	-9.984400	26.645350	0.000112	20.767810
2021.544591	-3.015300	3.322500	-10.017000	26.660833	0.000110	20.763935
2022.542175	-3.016400	3.320800	-10.016000	26.703159	0.000110	20.757648
2023.544776	-3.012400	3.320100	-10.000000	26.745296	0.000110	20.754019
2024.541134	-3.006200	3.320900	-9.981900	26.751728	0.000108	20.764279
2025.542926	-2.999100	3.322000	-9.962500	26.747654	0.000108	20.763976
2026.542686	-3.002500	3.320400	-9.968700	26.738295	0.000108	20.756937
2027.540284	-3.002600	3.320100	-9.967900	26.720146	0.000110	20.768088
2028.544848	-3.025600	3.317900	-10.038000	26.746955	0.000109	20.775601
2029.547762	-3.016800	3.319300	-10.012000	26.758152	0.000109	20.764099
2030.544180	-3.023100	3.317600	-10.028000	26.782025	0.000109	20.760600
2031.544215	-3.022500	3.317800	-10.027000	26.728562	0.000107	20.775127
2032.547839	-3.010400	3.318700	-9.990100	26.707388	0.000108	20.783711
2033.554505	-2.979800	3.319600	-9.891200	26.697979	0.000108	20.778520
2034.550691	-2.997000	3.318500	-9.944500	26.694304	0.000107	20.761548
2035.543562	-3.012500	3.316600	-9.991000	26.708396	0.000108	20.765759
2036.545990	-3.007900	3.316200	-9.974200	26.721504	0.000107	20.776092
2037.545975	-3.004400	3.316000	-9.961400	26.706266	0.000104	20.763142
2038.544713	-3.020200	3.315200	-10.012000	26.723439	0.000104	20.791788
2039.548641	-3.002800	3.316000	-9.955300	26.708250	0.000105	20.767034
2040.545331	-2.999600	3.315400	-9.944100	26.688417	0.000105	20.772225
2041.544656	-2.984700	3.314600	-9.892300	26.735474	0.000104	20.773067
2042.545628	-3.007000	3.315500	-9.969000	26.724195	0.000104	20.768366
2043.545603	-3.014100	3.313600	-9.986400	26.750199	0.000102	20.769854
2044.548130	-3.007200	3.313400	-9.962800	26.804905	0.000103	20.771751
2045.546457	-2.986400	3.313800	-9.896100	26.809426	0.000103	20.788624
2046.547690	-3.009300	3.312200	-9.966600	26.777333	0.000102	20.778168
2047.547071	-2.999900	3.312900	-9.936500	26.786017	0.000102	20.776468
2048.548258	-3.005800	3.312800	-9.956500	26.814109	0.000103	20.772470
2049.547485	-3.001200	3.314600	-9.946000	26.783813	0.000102	20.796538
2050.548606	-2.997900	3.311800	-9.927800	26.818987	0.000101	20.760780
2051.547490	-2.984500	3.311700	-9.882500	26.816898	0.000100	20.755359
2052.547638	-2.974400	3.312000	-9.850100	26.798864	0.000102	20.771366
2053.549018	-2.972900	3.312200	-9.845100	26.848843	0.000103	20.782738
2054.550149	-2.996900	3.311100	-9.921700	26.828736	0.000100	20.794764
2055.547452	-2.971500	3.311200	-9.838000	26.790546	9.872674E-5	20.768693
2056.548946	-3.017000	3.310000	-9.984800	26.762103	9.819870E-5	20.772814
2057.549529	-2.976000	3.311100	-9.852500	26.769275	0.000100	20.788085
2058.550258	-3.001100	3.309600	-9.931200	26.769852	9.958480E-5	20.781553
2059.553257	-3.010000	3.309200	-9.959500	26.806393	9.836371E-5	20.780833
2060.553515	-3.003100	3.307500	-9.931500	26.847420	9.819870E-5	20.786049
2061.549656	-3.014100	3.307400	-9.967300	26.841590	9.750565E-5	20.784929
2062.555871	-2.985200	3.308500	-9.874900	26.847225	9.773667E-5	20.785379
2063.553508	-3.010500	3.308300	-9.958600	26.893388	9.842972E-5	20.783907
2064.551018	-3.007400	3.306800	-9.943600	26.940689	9.595454E-5	20.793063
2065.555844	-3.039600	3.306100	-10.048000	26.890380	9.529449E-5	20.782779
2066.554193	-2.990800	3.307100	-9.889400	26.851469	9.473345E-5	20.782534
2067.553324	-3.014200	3.304900	-9.960900	26.793351	9.605354E-5	20.784790
2068.560552	-3.002800	3.305200	-9.924200	26.749955	9.512948E-5	20.770557
2069.555365	-3.005600	3.307400	-9.940300	26.780146	9.539350E-5	20.781945
2070.558812	-3.007900	3.305800	-9.942600	26.784341	9.473345E-5	20.796121
2071.555355	-3.009400	3.306400	-9.949600	26.847973	9.380938E-5	20.797036
2072.558793	-2.977100	3.305400	-9.839600	26.878429	9.367737E-5	20.793047
2073.555671	-2.993300	3.304800	-9.891500	26.853021	9.156522E-5	20.780776
2074.557993	-2.974900	3.305900	-9.834000	26.869542	9.427141E-5	20.806397
2075.558554	-2.959600	3.304900	-9.780200	26.920551	9.146621E-5	20.796995
2076.561436	-3.008700	3.303700	-9.938700	26.966915	9.159822E-5	20.765856
2077.556580	-2.992600	3.303100	-9.883600	26.972548	9.272030E-5	20.814195
2078.558960	-2.999200	3.302500	-9.903300	26.972939	9.262129E-5	20.799415
2079.564029	-3.008500	3.303100	-9.936600	26.934900	9.166422E-5	20.810476
2080.557775	-2.993700	3.302200	-9.884500	26.957785	9.133420E-5	20.781806
2081.563753	-2.987300	3.302100	-9.862600	26.996359	9.192824E-5	20.806846
2082.558736	-2.991200	3.302000	-9.876200	27.008757	9.225827E-5	20.773320
2083.566092	-2.980500	3.301700	-9.839500	27.001424	8.988209E-5	20.800085
2084.560266	-2.999500	3.301700	-9.903000	26.953647	9.037713E-5	20.795663
2085.561253	-3.007400	3.299600	-9.922400	26.918006	9.107018E-5	20.785427
2086.561189	-3.003600	3.300100	-9.910800	26.918160	8.816597E-5	20.807868
2087.562560	-3.008300	3.298500	-9.922000	26.866892	8.790195E-5	20.808947
2088.563189	-2.976900	3.300700	-9.824700	26.867087	8.681287E-5	20.793496
2089.564315	-2.994200	3.298800	-9.876600	26.899778	8.720890E-5	20.784168
2090.565077	-3.001300	3.299700	-9.902600	26.861729	8.836398E-5	20.790005
2091.567056	-3.000400	3.298500	-9.896300	26.907103	8.760493E-5	20.792956
2092.562612	-3.004300	3.296600	-9.902500	26.931404	8.641684E-5	20.787046
2093.563797	-3.011300	3.297600	-9.929700	26.888632	8.925505E-5	20.815634
2094.564274	-3.020900	3.296400	-9.957000	26.938591	8.691188E-5	20.812290
2095.565101	-3.022400	3.296300	-9.962100	26.975353	8.684587E-5	20.814645
2096.562445	-2.993700	3.296200	-9.866500	26.977954	8.493173E-5	20.799717
2097.568422	-2.994100	3.296700	-9.869600	26.951224	8.618582E-5	20.789907
2098.563797	-2.983700	3.296300	-9.833600	26.975003	8.602081E-5	20.812397
2099.567807	-3.009500	3.295900	-9.917300	26.998725	8.532776E-5	20.805906
2100.568236	-3.021100	3.294700	-9.952300	26.946712	8.453570E-5	20.819983
2101.565052	-2.988300	3.295400	-9.846800	26.954476	8.417268E-5	20.810721
2102.569912	-2.990800	3.295000	-9.853400	26.903177	8.341362E-5	20.815086
2103.567995	-3.003300	3.293600	-9.890400	26.923014	8.404067E-5	20.808955
2104.566151	-2.988000	3.293200	-9.839500	26.983604	8.390866E-5	20.810140
2105.567273	-2.995600	3.292700	-9.861500	26.991205	8.354563E-5	20.827267
2106.566159	-2.993400	3.293500	-9.858300	26.973662	8.202752E-5	20.833333
2107.570383	-3.016600	3.291900	-9.929300	26.978849	8.146648E-5	20.823850
2108.573673	-2.989200	3.292700	-9.841300	26.998879	8.377665E-5	20.824553
2109.570170	-2.991800	3.293000	-9.850800	26.999798	8.252256E-5	20.822157
2110.569688	-2.997200	3.292600	-9.867400	27.012837	8.354563E-5	20.802080
2111.570182	-2.989800	3.291300	-9.839100	27.017967	8.159849E-5	20.827152
2112.571859	-2.985200	3.290600	-9.822300	27.046207	8.321561E-5	20.837534
2113.573990	-3.011700	3.291400	-9.911800	27.014520	8.077343E-5	20.825109
2114.574453	-2.980000	3.291700	-9.808000	27.015715	8.242355E-5	20.798336
2115.572453	-2.972000	3.291100	-9.780100	27.052735	8.268757E-5	20.831771
2116.575282	-2.979200	3.291000	-9.802700	27.065099	8.057541E-5	20.818127
2117.574639	-2.989700	3.288500	-9.830200	27.120755	8.090544E-5	20.829057
2118.575222	-3.004600	3.288800	-9.880800	27.112245	7.895829E-5	20.840412
2119.574153	-3.001600	3.287400	-9.866500	27.046711	7.760520E-5	20.846101
2120.574970	-3.008500	3.289400	-9.894700	27.019893	7.938733E-5	20.826245
2121.574889	-3.000100	3.290100	-9.870100	27.022316	7.763820E-5	20.834845
2122.573822	-3.002000	3.288200	-9.870400	27.070439	7.988236E-5	20.849101
2123.577404	-3.012800	3.286200	-9.898700	27.129843	7.763820E-5	20.826817
2124.578617	-2.999100	3.286600	-9.855900	27.107384	7.925532E-5	20.842635
2125.577469	-2.987300	3.286500	-9.816700	27.130290	7.615309E-5	20.849077
2126.578370	-3.000700	3.285600	-9.857600	27.081307	7.707716E-5	20.834428
2127.578688	-3.008300	3.285000	-9.881600	27.100970	7.681314E-5	20.838556
2128.578535	-3.010000	3.284600	-9.885400	27.101735	7.440396E-5	20.840273
2129.581750	-3.010600	3.285300	-9.889200	27.069399	7.618609E-5	20.842840
2130.578390	-3.018800	3.283900	-9.912500	27.020722	7.641711E-5	20.841303
2131.578275	-2.986300	3.284000	-9.805800	27.008041	7.796822E-5	20.866955
2132.587696	-3.027600	3.282500	-9.937000	26.985588	7.427195E-5	20.843428
2133.581553	-2.977000	3.283600	-9.774800	27.017641	7.612009E-5	20.848161
2134.584375	-3.001800	3.282600	-9.853100	27.091744	7.466798E-5	20.815527
2135.579021	-3.010100	3.281200	-9.876300	27.139426	7.615309E-5	20.843567
2136.580834	-2.999200	3.281500	-9.840500	27.133622	7.509701E-5	20.834411
2137.578677	-2.991000	3.282000	-9.815200	27.110725	7.285285E-5	20.870175
2138.580203	-2.993400	3.282700	-9.825700	27.100572	7.229181E-5	20.853328
2139.582415	-3.017500	3.281700	-9.902100	27.055124	7.219280E-5	20.835122
2140.582653	-3.003300	3.279700	-9.849000	27.076162	7.222580E-5	20.852960
2141.581219	-3.024900	3.280000	-9.920800	27.091127	7.173077E-5	20.842406
2142.584188	-3.013700	3.279000	-9.881200	27.121917	7.196178E-5	20.846346
2143.581842	-2.994300	3.279800	-9.820500	27.108863	7.351290E-5	20.864511
2144.586353	-2.986100	3.278800	-9.789600	27.150448	7.199478E-5	20.848488
2145.587585	-2.986700	3.277700	-9.788400	27.196631	7.301786E-5	20.853687
2146.582110	-2.995000	3.278400	-9.817600	27.195688	7.212679E-5	20.861747
2147.582607	-3.002400	3.277200	-9.839100	27.227077	7.192878E-5	20.855862
2148.590199	-3.023100	3.277000	-9.905800	27.220201	6.968462E-5	20.845627
2149.583862	-2.996400	3.276400	-9.816900	27.184870	7.107072E-5	20.848970
2150.592619	-2.978700	3.277300	-9.761200	27.187032	6.905757E-5	20.879118
2151.585981	-3.027500	3.275400	-9.915700	27.184764	7.064169E-5	20.846968
2152.585428	-3.011300	3.277200	-9.867100	27.232222	7.060868E-5	20.858191
2153.586331	-3.014500	3.275900	-9.875000	27.252589	6.786948E-5	20.856867
2154.583605	-3.021500	3.275500	-9.896100	27.247794	7.017965E-5	20.859156
2155.590855	-2.993200	3.275300	-9.802300	27.215959	6.968462E-5	20.858903
2156.588064	-2.996300	3.274200	-9.809700	27.151732	6.978362E-5	20.855469
2157.585328	-3.011500	3.273800	-9.858300	27.189763	6.981663E-5	20.868115
2158.586377	-3.005200	3.274400	-9.839500	27.241122	6.843052E-5	20.874729
2159.587136	-3.029100	3.273400	-9.913200	27.254654	6.730844E-5	20.885020
2160.585462	-3.000000	3.274200	-9.821200	27.309967	6.701142E-5	20.865271
2161.594104	-3.011900	3.273400	-9.858400	27.341150	6.770447E-5	20.844957
2162.588888	-3.006300	3.271000	-9.832300	27.355729	6.777048E-5	20.856777
2163.587811	-2.995500	3.271600	-9.799600	27.363831	6.773747E-5	20.862083
2164.590972	-3.004400	3.271800	-9.828800	27.309114	6.592234E-5	20.866783
2165.586938	-3.004300	3.270900	-9.825200	27.277662	6.575733E-5	20.860276
2166.590337	-2.979500	3.271800	-9.747200	27.254987	6.430522E-5	20.859753
2167.590971	-2.968700	3.270300	-9.707400	27.259693	6.664839E-5	20.872072
2168.587143	-2.986500	3.269500	-9.763800	27.256621	6.456924E-5	20.870404
2169.589702	-2.985200	3.270600	-9.762600	27.299963	6.493227E-5	20.872276
2170.588531	-3.000300	3.269500	-9.808400	27.281872	6.249009E-5	20.862140
2171.589771	-2.972300	3.269700	-9.717700	27.250517	6.440423E-5	20.887497
2172.589896	-3.015500	3.268800	-9.856200	27.260335	6.315014E-5	20.880304
2173.588854	-3.024500	3.267500	-9.881300	27.272030	6.252309E-5	20.902497
2174.590987	-2.996800	3.267300	-9.791100	27.298305	6.354617E-5	20.896685
2175.589418	-3.012300	3.266500	-9.838100	27.337347	6.384319E-5	20.889492
2176.589854	-3.001500	3.268800	-9.810200	27.354340	6.417321E-5	20.884775
2177.590502	-3.001300	3.266700	-9.803500	27.366148	6.074096E-5	20.878162
2178.590034	-2.997600	3.265700	-9.787900	27.405203	6.229207E-5	20.883312
2179.588756	-3.004800	3.265400	-9.811300	27.455804	6.008091E-5	20.880165
2180.592110	-2.980000	3.266400	-9.732500	27.430703	6.169803E-5	20.880042
2181.589842	-3.005500	3.264200	-9.809800	27.459054	6.192905E-5	20.880116
2182.593805	-2.990300	3.264400	-9.760800	27.458233	5.938786E-5	20.876919
2183.592066	-3.007600	3.263800	-9.815000	27.440852	6.080697E-5	20.882192
2184.591543	-3.003600	3.263200	-9.800100	27.441421	5.892583E-5	20.879445
2185.590605	-2.978900	3.264100	-9.722500	27.482594	5.905784E-5	20.864919
2186.593457	-3.007400	3.262300	-9.809600	27.477735	6.047694E-5	20.878996
2187.592815	-2.988600	3.263700	-9.753200	27.483366	5.882682E-5	20.864747
2188.594539	-2.997900	3.262800	-9.780800	27.481286	5.773774E-5	20.868818
2189.593023	-2.983200	3.262300	-9.731100	27.516209	5.760573E-5	20.876453
2190.593274	-2.986900	3.262600	-9.743700	27.509790	5.843079E-5	20.888960
2191.601409	-3.016200	3.261400	-9.835000	27.487689	5.714370E-5	20.861036
2192.595631	-2.985700	3.261000	-9.736000	27.482277	5.595561E-5	20.866023
2193.598595	-3.020200	3.259900	-9.845100	27.511163	5.747372E-5	20.868532
2194.593750	-3.005100	3.259200	-9.793600	27.398994	5.592261E-5	20.867110
2195.601871	-2.976400	3.261100	-9.705400	27.391648	5.720970E-5	20.854979
2196.597591	-2.994100	3.260200	-9.760200	27.414946	5.681367E-5	20.876519
2197.595513	-2.997000	3.257900	-9.763800	27.483309	5.760573E-5	20.872750
2198.596633	-2.990800	3.258000	-9.743200	27.489290	5.572459E-5	20.857431
2199.597282	-3.009500	3.259100	-9.807200	27.465108	5.664866E-5	20.865344
2200.595594	-3.006300	3.257700	-9.793400	27.452236	5.631864E-5	20.867093
2201.595761	-2.988600	3.256500	-9.731400	27.461963	5.598861E-5	20.849853
2202.599843	-3.020200	3.254600	-9.828400	27.426989	5.394246E-5	20.838376
2203.596580	-3.007500	3.256900	-9.794400	27.509766	5.552658E-5	20.851480
2204.597175	-3.011400	3.255200	-9.801600	27.521353	5.450350E-5	20.861240
2205.596000	-3.000600	3.255200	-9.767000	27.460533	5.225934E-5	20.866905
2206.597456	-2.975500	3.255100	-9.684600	27.520841	5.371145E-5	20.869734
2207.601266	-2.989400	3.253800	-9.726100	27.556982	5.397547E-5	20.866268
2208.599281	-3.005500	3.252400	-9.774100	27.547703	5.390946E-5	20.854088
2209.599195	-2.980800	3.254200	-9.698600	27.513755	5.407447E-5	20.849804
2210.597634	-2.975900	3.253400	-9.681300	27.474915	5.410747E-5	20.870944
2211.597875	-3.012400	3.252400	-9.795900	27.487047	5.315040E-5	20.848537
2212.597651	-2.994600	3.254100	-9.743900	27.430759	5.341442E-5	20.831264
2213.596565	-2.989000	3.252400	-9.721300	27.376866	5.374445E-5	20.851962
2214.596962	-3.017100	3.251400	-9.808400	27.380555	5.140128E-5	20.846191
2215.601966	-3.000900	3.250800	-9.754200	27.426404	5.100525E-5	20.853908
2216.598173	-2.984700	3.250300	-9.699800	27.415019	5.216033E-5	20.853360
2217.598082	-2.993800	3.250500	-9.730700	27.381986	5.295239E-5	20.855690
2218.600612	-2.990500	3.249400	-9.716900	27.372632	5.176430E-5	20.849125
2219.598478	-2.999200	3.249800	-9.745400	27.364327	5.140128E-5	20.846461
2220.602248	-3.001700	3.249300	-9.752800	27.376110	5.070823E-5	20.830814
2221.599293	-2.964300	3.249000	-9.629500	27.395589	5.064222E-5	20.872693
2222.599205	-3.041700	3.247100	-9.874900	27.416669	5.070823E-5	20.846959
2223.599598	-2.990800	3.248700	-9.715100	27.348407	5.107125E-5	20.834713
2224.598705	-2.964800	3.248300	-9.629500	27.360280	4.968515E-5	20.849976
2225.601390	-3.008400	3.247200	-9.768300	27.394842	4.823304E-5	20.846338
2226.599532	-3.011600	3.245900	-9.775100	27.438942	4.886009E-5	20.839496
2227.601822	-3.005000	3.246800	-9.755300	27.460281	4.985016E-5	20.846738
2228.600101	-3.001300	3.246700	-9.743500	27.501015	4.862907E-5	20.836986
2229.602993	-3.002600	3.245700	-9.745000	27.536059	4.892610E-5	20.840951
2230.601564	-3.003400	3.245200	-9.745400	27.592244	4.800203E-5	20.840109
2231.602802	-3.032400	3.244600	-9.838000	27.573743	4.806803E-5	20.839512
2232.601285	-3.037000	3.242600	-9.846900	27.534280	4.770501E-5	20.834893
2233.603518	-2.989800	3.245100	-9.700900	27.599507	4.826605E-5	20.825133
2234.602642	-3.021200	3.242400	-9.794600	27.648303	4.625290E-5	20.821127
2235.602075	-3.014300	3.243500	-9.776200	27.674017	4.539484E-5	20.847000
2236.606493	-2.977200	3.243200	-9.654400	27.703239	4.661593E-5	20.824250
2237.602281	-3.022300	3.241200	-9.795000	27.733549	4.546084E-5	20.830095
2238.602911	-2.989800	3.241200	-9.689500	27.730145	4.447077E-5	20.849902
2239.603086	-3.006600	3.242200	-9.746900	27.717529	4.427275E-5	20.834362
2240.602027	-2.999400	3.240300	-9.718500	27.644672	4.344769E-5	20.818895
2241.606359	-2.991200	3.241900	-9.696800	27.627480	4.770501E-5	20.825304
2242.606704	-3.000900	3.240300	-9.722600	27.633411	4.588987E-5	20.821789
2243.604043	-2.987000	3.239100	-9.674000	27.631583	4.565886E-5	20.816157
2244.604879	-2.990600	3.240500	-9.689900	27.617048	4.371171E-5	20.827610
2245.606826	-3.002600	3.238000	-9.721800	27.558639	4.440476E-5	20.848496
2246.622758	-3.024300	3.237500	-9.790100	27.600913	4.315067E-5	20.835556
2247.608739	-3.020700	3.238400	-9.780600	27.609021	4.387672E-5	20.839447
2248.604796	-3.010200	3.236700	-9.742400	27.629211	4.354670E-5	20.825149
2249.605262	-3.006100	3.237600	-9.731900	27.646573	4.612089E-5	20.830765
2250.608187	-2.992500	3.236800	-9.685600	27.632428	4.334869E-5	20.830283
2251.607199	-3.015500	3.236000	-9.757200	27.560500	4.361271E-5	20.822868
2252.611976	-3.013400	3.235000	-9.747700	27.568739	4.295266E-5	20.806028
2253.608147	-3.041600	3.235800	-9.840900	27.634240	4.321668E-5	20.806502
2254.613407	-2.991300	3.235700	-9.677300	27.645972	4.417375E-5	20.793177
2255.610402	-2.978600	3.235300	-9.635800	27.684131	4.153355E-5	20.816402
2256.607835	-3.008100	3.233500	-9.725600	27.715051	4.522982E-5	20.807688
2257.608487	-2.990300	3.234000	-9.669800	27.659629	4.348070E-5	20.825411
2258.611847	-2.993700	3.233500	-9.680000	27.680784	4.136854E-5	20.817775
2259.609856	-3.006000	3.232100	-9.715200	27.737432	4.133554E-5	20.820252
2260.609476	-2.968100	3.231700	-9.591100	27.675357	4.037847E-5	20.812315
2261.612430	-3.008400	3.231700	-9.721500	27.681150	4.196258E-5	20.814824
2262.612335	-3.018200	3.231000	-9.750600	27.724995	4.113752E-5	20.795883
2263.615494	-3.000100	3.230900	-9.691500	27.749650	3.955341E-5	20.814056
2264.613821	-3.019500	3.230300	-9.752500	27.762989	4.084050E-5	20.808513
2265.612095	-3.001400	3.231000	-9.697000	27.668184	3.948740E-5	20.822640
2266.612647	-3.035400	3.229300	-9.800600	27.609461	3.932239E-5	20.802905
2267.612963	-3.005500	3.229900	-9.706700	27.615838	4.143455E-5	20.830659
2268.614079	-2.989700	3.228700	-9.651900	27.635687	3.777128E-5	20.815070
2269.614454	-3.020600	3.228900	-9.752400	27.670508	3.882735E-5	20.795581
2270.612915	-3.006000	3.228200	-9.702600	27.656225	3.820031E-5	20.806339
2271.611884	-3.028700	3.229300	-9.780000	27.637003	3.872835E-5	20.816394
2272.615423	-2.993400	3.227000	-9.658600	27.612702	3.793629E-5	20.791943
2273.613848	-2.975300	3.226300	-9.598200	27.581755	3.816731E-5	20.799210
2274.614853	-2.983800	3.227900	-9.630700	27.583738	3.853033E-5	20.811636
2275.615607	-2.984400	3.224600	-9.623100	27.622330	3.787028E-5	20.800682
2276.613523	-2.983200	3.224100	-9.616200	27.648353	3.806830E-5	20.822599
2277.616570	-2.998000	3.224800	-9.667300	27.637458	3.579113E-5	20.791248
2278.614718	-2.999200	3.224100	-9.668300	27.659239	3.994944E-5	20.806053
2279.616470	-2.978200	3.223400	-9.598900	27.718074	3.628617E-5	20.805988
2280.614734	-2.997000	3.222300	-9.656600	27.737083	3.681421E-5	20.802358
2281.618607	-3.006700	3.223000	-9.689900	27.691509	3.490007E-5	20.792532
2282.614987	-2.977200	3.222100	-9.592400	27.695457	3.582413E-5	20.811203
2283.617595	-3.037700	3.220900	-9.782500	27.715336	3.473505E-5	20.801810
2284.615705	-3.002600	3.220200	-9.668400	27.730820	3.546111E-5	20.788469
2285.621289	-2.970900	3.221600	-9.570100	27.710486	3.483406E-5	20.794559
2286.616940	-2.997000	3.220900	-9.651300	27.764793	3.519709E-5	20.791363
2287.619990	-3.011600	3.219600	-9.695300	27.773648	3.457004E-5	20.795532
2288.622866	-2.978500	3.222000	-9.596100	27.727254	3.357997E-5	20.801001
2289.619081	-2.996200	3.219800	-9.645800	27.667981	3.433902E-5	20.794461
2290.622702	-3.016800	3.217900	-9.705700	27.628651	3.179784E-5	20.782861
2291.618749	-2.994600	3.217800	-9.635700	27.637410	3.262290E-5	20.790725
2292.621557	-3.007900	3.219000	-9.681200	27.700055	3.255689E-5	20.808718
2293.619998	-3.006000	3.216700	-9.668700	27.769594	3.453704E-5	20.796194
2294.619726	-3.000400	3.217100	-9.651200	27.812761	3.348096E-5	20.784160
2295.622790	-2.995100	3.215300	-9.629700	27.841411	3.598915E-5	20.793554
2296.620422	-2.998700	3.215700	-9.641600	27.779862	3.245789E-5	20.784716
2297.623041	-2.995600	3.215700	-9.631900	27.790942	3.361297E-5	20.793496
2298.621003	-2.997700	3.215200	-9.637700	27.773071	3.153382E-5	20.797797
2299.620970	-3.007800	3.213300	-9.664300	27.768766	3.414101E-5	20.776868
2300.620977	-2.972300	3.216100	-9.558300	27.706441	3.245789E-5	20.766306
2301.622728	-2.994000	3.213800	-9.620800	27.681419	3.209486E-5	20.808931
2302.621194	-3.016300	3.212500	-9.689700	27.674229	3.364597E-5	20.780833
2303.622796	-2.999500	3.214300	-9.640800	27.635021	3.275491E-5	20.769355
2304.625527	-2.999600	3.212800	-9.636100	27.700470	2.955367E-5	20.795385
2305.624419	-2.995000	3.211800	-9.617900	27.767109	3.008171E-5	20.771407
2306.627345	-3.011300	3.211000	-9.667600	27.876908	3.367898E-5	20.787553
2307.622990	-3.016900	3.210000	-9.683600	27.924359	3.087377E-5	20.776991
2308.625146	-2.988100	3.209700	-9.589300	27.889709	3.087377E-5	20.779100
2309.625721	-2.998300	3.209200	-9.621300	27.939475	2.909164E-5	20.782248
2310.626303	-2.993300	3.210000	-9.607800	27.950594	2.876162E-5	20.775421
2311.630918	-3.016900	3.207800	-9.676700	27.913158	3.014772E-5	20.791322
2312.634546	-2.976800	3.210500	-9.556600	27.860224	3.242488E-5	20.793521
2313.629306	-2.956700	3.208900	-9.487700	27.918608	2.965268E-5	20.779264
2314.628303	-2.997300	3.207400	-9.613400	27.878670	3.064275E-5	20.796914
2315.630376	-2.962300	3.207900	-9.501400	27.766670	3.034573E-5	20.780449
2316.629267	-2.974800	3.207800	-9.541800	27.817749	2.994970E-5	20.784913
2317.631939	-2.995000	3.206600	-9.603400	27.831339	3.051074E-5	20.788633
2318.630557	-3.008100	3.204700	-9.639200	27.858713	2.952067E-5	20.781569
2319.629074	-3.000500	3.205200	-9.615800	27.824816	2.932266E-5	20.755041
2320.629609	-3.019300	3.205400	-9.677700	27.782543	2.714450E-5	20.782673
2321.628329	-3.017700	3.204500	-9.669300	27.802575	2.763953E-5	20.763477
2322.632366	-2.998200	3.204600	-9.607000	27.830770	2.816757E-5	20.761507
2323.630058	-3.015400	3.204100	-9.660700	27.839966	2.754053E-5	20.776926
2324.632601	-3.022100	3.201500	-9.673900	27.834393	2.902563E-5	20.785068
2325.633876	-2.995300	3.202700	-9.592600	27.835360	2.866261E-5	20.789360
2326.632666	-3.002500	3.201300	-9.610400	27.801958	2.790355E-5	20.769020
2327.633961	-2.991800	3.202200	-9.579500	27.746784	2.697948E-5	20.767549
2328.633828	-2.984200	3.202200	-9.554600	27.768384	2.744152E-5	20.787390
2329.633616	-2.981500	3.199500	-9.538700	27.793404	2.859660E-5	20.764679
2330.633102	-3.010000	3.200200	-9.631900	27.748538	2.635244E-5	20.762676
2331.638346	-3.024100	3.197600	-9.668900	27.775549	2.463631E-5	20.773263
2332.633528	-3.010200	3.199500	-9.629900	27.839096	2.552738E-5	20.758033
2333.635696	-3.005100	3.197100	-9.606800	27.874284	2.783755E-5	20.774007
2334.637163	-2.993700	3.199700	-9.578500	27.906003	2.839859E-5	20.771792
2335.633611	-2.996200	3.198200	-9.581900	27.825133	2.470232E-5	20.763420
2336.635939	-2.990400	3.196800	-9.558500	27.912168	2.648445E-5	20.771833
2337.635559	-2.975700	3.196300	-9.510900	27.963898	2.770554E-5	20.759889
2338.640281	-3.006300	3.197400	-9.611600	27.877810	2.556038E-5	20.751002
2339.637029	-3.002400	3.193500	-9.587500	27.897515	2.750752E-5	20.769887
2340.634567	-3.011400	3.192900	-9.614500	27.813363	2.483433E-5	20.766273
2341.637088	-2.991000	3.193900	-9.552400	27.809293	2.410827E-5	20.790627
2342.637572	-2.986900	3.193600	-9.538200	27.750529	2.344822E-5	20.760886
2343.639303	-3.009700	3.192300	-9.607600	27.802356	2.565939E-5	20.769421
2344.638565	-3.010300	3.193400	-9.612200	27.879986	2.457031E-5	20.760305
2345.638752	-3.006100	3.191800	-9.594000	27.939255	2.466931E-5	20.756896
2346.636723	-2.998000	3.190800	-9.565900	28.005132	2.490033E-5	20.784799
2347.638033	-3.008200	3.190900	-9.597900	27.982342	2.526336E-5	20.764704
2348.637892	-2.990700	3.190200	-9.540600	28.010216	2.410827E-5	20.754828
2349.641309	-2.989600	3.190300	-9.536500	27.984560	2.612142E-5	20.749392
2350.639662	-2.986500	3.190600	-9.528000	27.946127	2.493333E-5	20.764761
2351.638235	-2.993100	3.190600	-9.548100	27.919575	2.410827E-5	20.753684
2352.640180	-3.001600	3.187200	-9.565300	27.894307	2.447130E-5	20.751484
2353.642984	-3.015300	3.187400	-9.610600	27.874975	2.377825E-5	20.749572
2354.646403	-3.020300	3.187000	-9.624500	27.884292	2.427329E-5	20.742353
2355.640789	-3.000700	3.184900	-9.556100	27.923247	2.288718E-5	20.759276
2356.640176	-2.989100	3.186600	-9.524300	27.939735	2.341522E-5	20.764491
2357.640152	-2.992800	3.184900	-9.530500	27.958286	2.183111E-5	20.771310
2358.640831	-2.978200	3.184900	-9.484200	27.968868	2.169910E-5	20.751141
2359.641057	-3.003900	3.183200	-9.561500	28.029781	2.199612E-5	20.742753
2360.646087	-3.009100	3.182300	-9.574900	28.041110	2.120406E-5	20.744200
2361.645691	-3.002700	3.182400	-9.554900	28.031422	2.229314E-5	20.746301
2362.640827	-3.003800	3.181700	-9.556500	28.034841	2.094004E-5	20.737889
2363.647398	-2.988400	3.180200	-9.503200	27.995305	2.278818E-5	20.729861
2364.640963	-3.038300	3.179500	-9.659200	28.059586	2.031299E-5	20.767541
2365.643287	-2.993700	3.180900	-9.521600	28.063152	2.127006E-5	20.739360
2366.640156	-3.001300	3.179100	-9.540000	28.024356	2.130307E-5	20.747724
2367.640240	-3.003100	3.178200	-9.543200	28.070095	1.942193E-5	20.750618
2368.640505	-3.008500	3.177200	-9.558200	28.105552	2.189711E-5	20.723721
2369.640702	-3.016600	3.177000	-9.582500	28.095335	2.041200E-5	20.721023
2370.641493	-2.983900	3.177100	-9.479000	28.048525	1.952094E-5	20.738387
2371.642077	-2.993000	3.176900	-9.507700	28.019475	2.004897E-5	20.740914
2372.642010	-3.004700	3.176900	-9.544900	28.019727	1.876188E-5	20.755392
2373.642323	-3.001600	3.175900	-9.531800	28.083113	2.021399E-5	20.725315
2374.641435	-2.978600	3.176000	-9.459000	28.118813	1.727677E-5	20.739442
2375.642264	-3.002700	3.175400	-9.534000	28.131481	2.179810E-5	20.755515
2376.643076	-3.015500	3.172500	-9.565700	28.125009	1.843186E-5	20.720549
2377.641050	-3.019300	3.172900	-9.579100	28.093435	1.981796E-5	20.730016
2378.642613	-2.994300	3.173100	-9.500300	28.078834	1.694675E-5	20.748035
2379.642055	-2.992400	3.170900	-9.486800	28.045415	1.572566E-5	20.723876
2380.643871	-3.002000	3.170600	-9.517700	28.054072	1.820084E-5	20.719788
2381.649507	-3.001600	3.170700	-9.516100	28.020279	1.651772E-5	20.737930
2382.645418	-2.987000	3.169800	-9.467600	28.029059	1.978496E-5	20.726378
2383.641026	-2.993800	3.168200	-9.484100	28.044270	1.744178E-5	20.721301
2384.643530	-2.976600	3.167300	-9.426200	28.082675	1.816784E-5	20.733409
2385.642768	-3.000800	3.168000	-9.504800	28.082553	1.846486E-5	20.729967
2386.645535	-3.009100	3.165900	-9.525000	28.095076	1.668273E-5	20.737832
2387.646600	-3.019300	3.166500	-9.558500	28.100103	1.876188E-5	20.714916
2388.645338	-2.984700	3.165800	-9.448400	28.118399	1.688074E-5	20.736180
2389.647885	-2.995000	3.164800	-9.477600	28.137929	1.747479E-5	20.705105
2390.646915	-2.993200	3.165100	-9.472200	28.115102	1.965295E-5	20.714368
2391.646134	-3.011600	3.162500	-9.523300	28.158360	1.826684E-5	20.737055
2392.647699	-2.996800	3.163300	-9.478600	28.175909	1.724377E-5	20.733858
2393.647221	-3.002800	3.161600	-9.492600	28.153301	1.410854E-5	20.729117
2394.648432	-2.988900	3.160800	-9.446700	28.077120	1.605568E-5	20.723075
2395.649874	-3.000400	3.159800	-9.479400	28.048217	1.292045E-5	20.724326
2396.646224	-2.978100	3.160600	-9.411800	28.081213	1.427355E-5	20.721031
2397.650157	-2.990800	3.157900	-9.442500	28.116856	1.496660E-5	20.717082
2398.647792	-3.014200	3.158100	-9.518400	28.112243	1.509861E-5	20.726190
2399.646670	-3.006200	3.158000	-9.492100	28.098584	1.344849E-5	20.722870
2400.650762	-3.004600	3.158500	-9.489300	28.089667	1.420755E-5	20.717687
2401.645380	-3.007000	3.156700	-9.491600	28.043255	1.169936E-5	20.726443
2402.648875	-3.027900	3.155600	-9.553900	28.023820	1.354750E-5	20.709724
2403.647547	-2.995500	3.155000	-9.450000	28.018037	1.268943E-5	20.718603
2404.649222	-2.964800	3.154100	-9.350000	28.021489	1.381152E-5	20.723974
2405.650703	-2.995900	3.153100	-9.445000	28.017964	1.120432E-5	20.709520
2406.648643	-3.012000	3.152600	-9.493900	27.981872	1.047827E-5	20.724874
2407.650671	-2.996800	3.150700	-9.440200	27.969080	1.156735E-5	20.710100
2408.648030	-3.015600	3.150400	-9.499400	28.009989	1.328348E-5	20.698172
2409.648541	-2.996500	3.150800	-9.439300	28.130661	1.404253E-5	20.714384
2410.649085	-2.995400	3.150200	-9.434400	28.155656	1.341549E-5	20.715840
2411.648064	-3.019600	3.147600	-9.503200	28.161876	1.430655E-5	20.696022
2412.650146	-3.005200	3.147700	-9.458200	28.234901	1.166636E-5	20.696994
2413.648830	-2.947300	3.148600	-9.279100	28.269483	1.136934E-5	20.710476
2414.649013	-3.007900	3.146700	-9.464400	28.194991	1.173236E-5	20.713240
2415.649655	-3.022700	3.144700	-9.503900	28.177500	1.024725E-5	20.707484
2416.649778	-2.999100	3.144900	-9.430700	28.193083	1.239241E-5	20.688557
2417.650777	-3.000500	3.143000	-9.429900	28.147373	9.488198E-6	20.679523
2418.650069	-3.006200	3.142800	-9.447400	28.150435	9.719215E-6	20.693038
2419.650067	-3.001800	3.142900	-9.433400	28.119463	1.044527E-5	20.699791
2420.651969	-2.995300	3.140500	-9.405500	28.170655	1.117132E-5	20.706282
2421.653849	-3.012700	3.139900	-9.459000	28.195795	7.541055E-6	20.712152
2422.653399	-3.004100	3.140000	-9.431600	28.175186	1.199638E-5	20.693773
2423.661504	-2.975200	3.138600	-9.337300	28.174739	8.201104E-6	20.705178
2424.658007	-3.022800	3.135700	-9.477500	28.205158	8.927157E-6	20.703560
2425.652773	-2.987300	3.136700	-9.369600	28.256759	9.620208E-6	20.697191
2426.650585	-2.986800	3.136100	-9.366000	28.266649	9.521201E-6	20.683913
2427.654247	-2.998100	3.135700	-9.399900	28.257604	1.113832E-5	20.710844
2428.652138	-2.978800	3.135200	-9.338200	28.186571	9.257181E-6	20.720884
2429.656574	-2.984600	3.133700	-9.352600	28.168316	8.861152E-6	20.709144
2430.654130	-2.993600	3.133100	-9.378900	28.168990	9.158174E-6	20.695596
2431.655491	-3.002400	3.133000	-9.405500	28.167845	8.465123E-6	20.691124
2432.661946	-3.018600	3.131500	-9.452100	28.131424	9.884227E-6	20.708514
2433.657390	-3.022600	3.130300	-9.460400	28.093078	6.715994E-6	20.702153
2434.661157	-3.007200	3.128500	-9.407600	28.141356	6.980014E-6	20.712822
2435.658953	-3.006700	3.130000	-9.409700	28.129930	7.937084E-6	20.694680
2436.657354	-2.972500	3.129300	-9.300400	28.224101	8.762145E-6	20.706985
2437.656878	-3.033200	3.124600	-9.476400	28.300394	8.762145E-6	20.711727
2438.657642	-3.017200	3.124400	-9.425400	28.338863	7.277036E-6	20.714899
2439.658173	-2.982100	3.124500	-9.316300	28.332684	7.706067E-6	20.712945
2440.658407	-2.990900	3.123600	-9.341200	28.252131	5.890934E-6	20.709127
2441.658759	-3.007700	3.122200	-9.389100	28.193805	5.758924E-6	20.700191
2442.658962	-3.000200	3.121100	-9.363500	28.177492	5.989941E-6	20.686137
2443.658434	-3.001100	3.121800	-9.367800	28.158506	5.923936E-6	20.693102
2444.659786	-3.002300	3.120100	-9.366600	28.196136	5.923936E-6	20.699692
2445.662820	-3.010900	3.118100	-9.387700	28.206911	6.088948E-6	20.689203
2446.659652	-3.015100	3.118700	-9.401500	28.183013	5.494905E-6	20.708767
2447.659379	-2.984800	3.118500	-9.307500	28.189055	7.541055E-6	20.677388
2448.661737	-3.000100	3.117800	-9.353200	28.260795	4.603839E-6	20.689873
2449.674456	-3.012800	3.116700	-9.389200	28.252009	5.857931E-6	20.715643
2450.663713	-2.976400	3.115400	-9.271800	28.316754	4.570836E-6	20.709233
2451.664122	-2.987400	3.115700	-9.307900	28.306515	1.600618E-6	20.712675
2452.659265	-3.014400	3.113700	-9.385300	28.336159	4.933863E-6	20.691786
2453.661110	-2.998200	3.112800	-9.332600	28.406695	4.042798E-6	20.710656
2454.660574	-2.997200	3.113700	-9.331400	28.364218	3.415751E-6	20.703919
2455.663300	-3.028700	3.110100	-9.418400	28.288945	4.108802E-6	20.706363
2456.664515	-2.985000	3.109600	-9.281400	28.311801	3.943790E-6	20.690020
2457.662352	-2.997100	3.109500	-9.318800	28.331303	4.042798E-6	20.695432
2458.661595	-3.003700	3.106800	-9.331300	28.298713	3.943790E-6	20.706241
2459.663337	-3.012700	3.106700	-9.358500	28.385505	4.603839E-6	20.729623
2460.664032	-2.967200	3.106700	-9.216400	28.385262	3.712773E-6	20.693814
2461.666288	-2.967700	3.105500	-9.215000	28.381820	2.326671E-6	20.698408
2462.662406	-2.987600	3.102700	-9.267900	28.431148	2.491683E-6	20.707778
2463.663093	-2.972800	3.103500	-9.224500	28.431911	4.504832E-6	20.691950
2464.667976	-3.001900	3.102500	-9.312400	28.410478	1.072579E-6	20.714466
2465.664533	-3.005400	3.099900	-9.315800	28.386780	2.755703E-6	20.692972
2466.667938	-3.007800	3.100000	-9.322800	28.426642	1.699625E-6	20.704189
2467.665869	-2.994000	3.098900	-9.276000	28.443017	1.831635E-6	20.701712
2468.665598	-3.000900	3.098000	-9.295600	28.514618	3.283742E-6	20.709806
2469.668477	-3.001200	3.096600	-9.292700	28.496231	3.085727E-6	20.706462
2470.666729	-3.011600	3.096500	-9.324000	28.365996	2.986720E-6	20.714719
2471.669771	-3.006900	3.093400	-9.300800	28.290512	3.679771E-6	20.697509
2472.664550	-2.989300	3.094200	-9.248600	28.268476	8.415620E-7	20.715627
2473.667018	-2.992600	3.094300	-9.258800	28.288531	3.349747E-6	20.690773
2474.666528	-3.017800	3.091700	-9.329500	28.313295	3.019722E-6	20.686309
2475.667532	-3.026100	3.089900	-9.349500	28.382072	5.065873E-6	20.692024
2476.668974	-3.009700	3.089200	-9.296800	28.347696	1.633620E-6	20.715733
2477.669927	-3.015600	3.087100	-9.309300	28.283108	-1.567615E-6	20.730359
2478.666275	-2.999300	3.087900	-9.260000	28.329567	1.765630E-6	20.701745
2479.668821	-2.980000	3.085700	-9.194700	28.275654	3.085727E-6	20.719061
2480.670939	-2.983100	3.086000	-9.205300	28.330451	1.270594E-6	20.710223
2481.668169	-2.962300	3.084900	-9.136700	28.324484	1.567615E-6	20.717017
2482.671326	-3.018000	3.081800	-9.300100	28.339253	8.085595E-7	20.711498
2483.667526	-2.990700	3.081800	-9.216200	28.471350	4.785352E-7	20.710803
2484.668054	-2.991500	3.080000	-9.213000	28.422535	1.798632E-6	20.713804
2485.671221	-2.999100	3.079400	-9.234700	28.471942	1.666623E-6	20.724203
2486.666854	-2.975500	3.080100	-9.164400	28.463199	1.501611E-6	20.720614
2487.674170	-2.988900	3.077700	-9.198000	28.465448	5.445401E-7	20.717188
2488.671034	-3.012700	3.075700	-9.265200	28.527014	2.920715E-6	20.712807
2489.670870	-3.001900	3.073800	-9.226100	28.570029	2.392676E-6	20.723410
2490.671635	-3.001400	3.073900	-9.225400	28.501987	1.237591E-6	20.702301
2491.671279	-3.014200	3.071500	-9.257100	28.447946	1.996647E-6	20.697665
2492.672195	-3.014600	3.071400	-9.258200	28.398456	3.019722E-6	20.696194
2493.674252	-2.967600	3.070900	-9.111900	28.443838	-9.735717E-7	20.708228
2494.672317	-2.989900	3.070200	-9.179000	28.473672	-2.475182E-7	20.700339
2495.672222	-3.000600	3.069100	-9.207800	28.530545	1.501611E-6	20.707354
2496.672901	-2.992000	3.067300	-9.176300	28.574948	-5.115377E-7	20.726942
2497.672250	-3.003200	3.065900	-9.206600	28.545019	-1.485109E-7	20.724302
2498.677480	-2.990800	3.064900	-9.165900	28.536520	-1.105581E-6	20.694403
2499.674995	-2.975400	3.062800	-9.111800	28.561035	4.785352E-7	20.713878
2500.675047	-2.995400	3.061900	-9.170800	28.562025	8.745644E-7	20.721988
2501.674541	-2.987000	3.062100	-9.145100	28.595079	-1.336598E-6	20.710232
2502.672852	-2.992400	3.059700	-9.153700	28.594900	8.085595E-7	20.710052
2503.675346	-3.002900	3.058600	-9.183600	28.647408	-1.798632E-6	20.740179
2504.674551	-2.990500	3.057000	-9.140600	28.607693	-2.475182E-7	20.712979
2505.674339	-3.003200	3.055600	-9.176000	28.561092	-2.227664E-6	20.710616
2506.673683	-3.001100	3.055200	-9.168700	28.508734	-7.095522E-7	20.703879
2507.674368	-2.995800	3.054100	-9.148800	28.461398	-1.666623E-6	20.716429
2508.673923	-2.992800	3.052200	-9.133000	28.525854	-2.491683E-6	20.711164
2509.679199	-2.974300	3.053600	-9.080800	28.630696	-1.435606E-6	20.707223
2510.675703	-2.970600	3.050000	-9.059100	28.689030	-2.425679E-6	20.719511
2511.674993	-2.962800	3.049900	-9.035000	28.656499	-2.623693E-6	20.737481
2512.679816	-2.996100	3.048600	-9.133300	28.655193	-1.336598E-6	20.707240
2513.677342	-2.992100	3.046100	-9.113700	28.706724	-4.785352E-7	20.718841
2514.682143	-3.003900	3.045900	-9.148700	28.576913	-1.039577E-6	20.715644
2515.676963	-3.008600	3.044800	-9.159400	28.532689	-3.679771E-6	20.719945
2516.675665	-2.987600	3.042700	-9.089500	28.538160	-3.019722E-6	20.746319
2517.676318	-2.994900	3.041900	-9.108800	28.587555	-3.547761E-6	20.712611
2518.677262	-2.996000	3.039800	-9.106000	28.652644	-3.135231E-7	20.729330
2519.677829	-2.984700	3.039600	-9.071500	28.729498	-1.270594E-6	20.723763
2520.681901	-3.006600	3.038400	-9.134700	28.722364	7.755571E-7	20.720370
2521.679293	-3.010200	3.036900	-9.140200	28.690548	-5.445401E-7	20.715350
2522.676371	-2.990800	3.035700	-9.077500	28.668480	-1.633620E-6	20.728210
2523.675058	-2.995000	3.034900	-9.089000	28.679161	-1.666623E-6	20.726167
2524.678655	-2.990900	3.032700	-9.069700	28.642612	-1.072579E-6	20.724916
2525.683035	-3.018800	3.031700	-9.151500	28.682708	-2.623693E-6	20.735429
2526.679024	-3.005900	3.029300	-9.104500	28.711050	-8.250608E-8	20.721776
2527.687452	-3.005400	3.028300	-9.100800	28.719670	-1.468608E-6	20.725243
2528.678968	-3.007500	3.028400	-9.106700	28.723915	-1.930642E-6	20.721932
2529.683234	-2.978200	3.026100	-9.010800	28.760850	-3.514759E-6	20.700340
2530.681750	-2.996200	3.024600	-9.061100	28.637523	1.006574E-6	20.724057
2531.682524	-3.012600	3.024900	-9.111300	28.511397	-2.656696E-6	20.727900
2532.681061	-3.001700	3.021100	-9.067400	28.507914	-2.821708E-6	20.715857
2533.681596	-2.973400	3.021600	-8.983500	28.586508	-4.174807E-6	20.722937
2534.682301	-2.962700	3.020500	-8.948100	28.677270	-1.336598E-6	20.713356
2535.682324	-2.985200	3.019900	-9.014200	28.673204	-1.006574E-6	20.719218
2536.682580	-2.989800	3.017200	-9.019300	28.654276	-1.336598E-6	20.734293
2537.682804	-3.021300	3.015200	-9.109100	28.698235	-2.029649E-6	20.731628
2538.683425	-2.985000	3.016700	-9.003600	28.701449	-4.174807E-6	20.727279
2539.683566	-3.021500	3.013600	-9.103900	28.602572	-9.735717E-7	20.734849
2540.682897	-2.994800	3.013300	-9.023200	28.565598	-1.155085E-7	20.732225
2541.684970	-3.009600	3.011400	-9.062400	28.643286	-1.897640E-6	20.725595
2542.684472	-3.010900	3.008800	-9.058400	28.727096	-1.996647E-6	20.717076
2543.686459	-2.990700	3.006900	-8.991900	28.739895	-1.732628E-6	20.723804
2544.684429	-2.982800	3.007800	-8.971300	28.744116	-2.821708E-6	20.731849
2545.685160	-2.997400	3.005900	-9.009200	28.722186	-2.887713E-6	20.714500
2546.689351	-2.987600	3.004400	-8.975200	28.697618	-2.854710E-6	20.746181
2547.687718	-3.012100	3.002700	-9.043800	28.744440	-3.217737E-6	20.752565
2548.686690	-2.994600	3.001800	-8.988400	28.762328	-2.029649E-6	20.732650
2549.688011	-2.994200	2.999100	-8.979100	28.755389	-2.128657E-6	20.724237
2550.688298	-2.990700	2.997800	-8.964500	28.746445	-2.062652E-6	20.739411
2551.689777	-2.989200	2.996400	-8.956500	28.791780	-4.669844E-6	20.757103
2552.691619	-2.999000	2.994400	-8.979700	28.785790	-3.613766E-6	20.708867
2553.692473	-3.013800	2.993300	-9.019500	28.841551	-5.593912E-6	20.747497
2554.689334	-2.994500	2.993400	-8.962700	28.822302	-1.798632E-6	20.750865
2555.691655	-3.010800	2.990100	-9.001600	28.788825	-2.656696E-6	20.745592
2556.691089	-3.004100	2.989000	-8.978500	28.827723	-4.075800E-6	20.726453
2557.692886	-2.969500	2.990300	-8.878800	28.824777	-5.065873E-6	20.740082
2558.690978	-3.015600	2.986300	-9.004600	28.801445	-1.930642E-6	20.751192
2559.691992	-2.997600	2.985900	-8.949100	28.852913	-1.732628E-6	20.740449
2560.692757	-2.993800	2.984000	-8.933100	28.752313	-1.699625E-6	20.730622
2561.693482	-2.988900	2.982400	-8.913200	28.772748	-2.623693E-6	20.735086
2562.698231	-2.975400	2.982000	-8.871600	28.735983	-5.098876E-6	20.738831
2563.692603	-2.998300	2.980400	-8.935000	28.724061	-3.481756E-6	20.731562
2564.697257	-3.002300	2.977400	-8.938800	28.666565	-3.943790E-6	20.743352
2565.695912	-2.992000	2.976800	-8.905700	28.698795	-4.075800E-6	20.739779
2566.691514	-3.005600	2.974500	-8.938800	28.722275	-3.250739E-6	20.755369
2567.692301	-3.004900	2.973700	-8.935200	28.783266	-3.877786E-6	20.745208
2568.697912	-2.990900	2.972400	-8.889400	28.708689	-3.448754E-6	20.728881
2569.691096	-2.998200	2.971700	-8.908800	28.757077	-3.679771E-6	20.753440
2570.692846	-3.000300	2.969100	-8.907300	28.774664	-4.933863E-6	20.763095
2571.695979	-3.003700	2.966900	-8.910600	28.870141	-4.372822E-6	20.743581
2572.692502	-2.972900	2.966700	-8.818500	28.890948	-3.349747E-6	20.758378
2573.695013	-3.011500	2.964200	-8.925600	28.923106	-4.306817E-6	20.743360
2574.691144	-2.977600	2.963500	-8.823300	28.954274	-2.491683E-6	20.735405
2575.691071	-3.004800	2.961500	-8.897800	28.969902	-3.547761E-6	20.734081
2576.691154	-3.004400	2.959500	-8.891100	28.973797	-2.986720E-6	20.755076
2577.695554	-3.010700	2.958300	-8.905600	28.912639	-3.316744E-6	20.747039
2578.693188	-3.027000	2.957800	-8.951700	28.888968	-6.782000E-6	20.772031
2579.692729	-3.019800	2.954400	-8.920600	28.872487	-1.897640E-6	20.750211
2580.693343	-3.019300	2.953500	-8.917000	28.828348	-5.197883E-6	20.760275
2581.693453	-3.009800	2.952200	-8.884800	28.878338	-5.164880E-6	20.763693
2582.694546	-2.972700	2.951300	-8.772700	28.831116	-4.966866E-6	20.768279
2583.698173	-2.990800	2.950400	-8.823800	28.916421	-5.296890E-6	20.768394
2584.696395	-3.018300	2.947400	-8.895400	28.828397	-2.062652E-6	20.731400
2585.695325	-3.021500	2.946200	-8.900700	28.777935	-3.547761E-6	20.739363
2586.703319	-2.997600	2.944900	-8.826000	28.732657	-3.745776E-6	20.746386
2587.699022	-3.005900	2.943100	-8.845900	28.807386	-4.603839E-6	20.766660
2588.699290	-2.974500	2.942900	-8.752800	28.870069	-4.009795E-6	20.772432
2589.697245	-2.981000	2.940100	-8.763600	28.824242	-2.722700E-6	20.753768
2590.699319	-2.996300	2.938700	-8.804400	28.845147	-3.382749E-6	20.761077
2591.698036	-3.000700	2.937000	-8.811900	28.910643	-2.590691E-6	20.744554
2592.699603	-3.022400	2.935100	-8.870700	28.905587	-2.491683E-6	20.757479
2593.701966	-2.982300	2.933600	-8.747400	28.889439	-4.108803E-6	20.752591
2594.702533	-2.989500	2.933100	-8.766900	28.796934	-4.867859E-6	20.778890
2595.699429	-3.001300	2.930600	-8.794600	28.798719	-5.494905E-6	20.784482
2596.698828	-2.993600	2.928000	-8.764700	28.762353	-4.240812E-6	20.750220
2597.699328	-3.012300	2.927400	-8.817700	28.757645	-3.349747E-6	20.765393
2598.704209	-2.997200	2.925100	-8.766800	28.761509	-4.504832E-6	20.753163
2599.711871	-2.987800	2.924500	-8.737200	28.737769	-3.679771E-6	20.771451
2600.700360	-3.002200	2.922300	-8.772600	28.724321	-6.649990E-6	20.767862
2601.701038	-2.957000	2.920700	-8.635900	28.768326	-4.174807E-6	20.776626
2602.701365	-2.999300	2.918600	-8.752400	28.840522	-4.669844E-6	20.764952
2603.702282	-3.021500	2.917300	-8.814000	28.866279	-3.481756E-6	20.763398
2604.706169	-2.998000	2.915100	-8.738800	28.844530	-5.032871E-6	20.774206
2605.703133	-3.022400	2.912400	-8.800900	28.935733	-4.108803E-6	20.763194
2606.703118	-2.968800	2.911600	-8.643400	28.936261	-5.791927E-6	20.760880
2607.703235	-2.989900	2.909100	-8.696800	28.892271	-4.702846E-6	20.776307
2608.702783	-2.984600	2.907900	-8.677100	28.927513	-6.319965E-6	20.772931
2609.705860	-2.987700	2.907300	-8.685400	28.968369	-3.019722E-6	20.765729
2610.704598	-2.985000	2.904400	-8.669300	28.997280	-7.343041E-6	20.766407
2611.701922	-3.023700	2.902800	-8.775600	29.037817	-3.184735E-6	20.757463
2612.702868	-2.980500	2.901600	-8.647800	29.003001	-4.768851E-6	20.772645
2613.705454	-3.002000	2.899100	-8.702200	28.923740	-5.626914E-6	20.799002
2614.709311	-2.990000	2.897600	-8.663100	28.910213	-4.339820E-6	20.783477
2615.706390	-3.027500	2.896000	-8.766500	28.877015	-4.504832E-6	20.768050
2616.705494	-3.024100	2.893700	-8.750300	28.883434	-5.296890E-6	20.772146
2617.705025	-3.015900	2.892200	-8.721700	28.858968	-3.151732E-6	20.772155
2618.706447	-2.972000	2.891400	-8.592600	28.868381	-2.557688E-6	20.804397
2619.706977	-2.982600	2.888200	-8.613300	28.877576	-3.316744E-6	20.770512
2620.712170	-2.993600	2.886900	-8.641600	28.926572	-5.197883E-6	20.767241
2621.708149	-3.020500	2.883900	-8.710100	29.008592	-4.768851E-6	20.787287
2622.707555	-3.006400	2.882100	-8.664200	29.033704	-4.240812E-6	20.780820
2623.709210	-3.006900	2.881400	-8.662200	29.087326	-6.055946E-6	20.767045
2624.710093	-3.047300	2.877500	-8.767900	29.067124	-5.032871E-6	20.800743
2625.710917	-2.981600	2.878800	-8.581900	29.068308	-3.844783E-6	20.787238
2626.712349	-2.999400	2.874900	-8.622500	29.092835	-4.834856E-6	20.786347
2627.709858	-2.984400	2.873500	-8.575800	29.029647	-2.986720E-6	20.786216
2628.712208	-2.972600	2.872300	-8.537500	29.060438	-5.263888E-6	20.780731
2629.713972	-2.973900	2.870400	-8.535300	29.106312	-3.019722E-6	20.785227
2630.713639	-2.984200	2.866600	-8.553600	29.083797	-6.253961E-6	20.795258
2631.713593	-3.002900	2.866000	-8.605200	29.031919	-7.145026E-6	20.776178
2632.710313	-2.985000	2.862500	-8.543700	29.081485	-4.372822E-6	20.774911
2633.708876	-3.010600	2.861700	-8.615000	29.008405	-4.504832E-6	20.788522
2634.709742	-2.977100	2.861100	-8.516600	29.010669	-3.547761E-6	20.789855
2635.711173	-3.028000	2.858000	-8.652400	29.034873	-6.352968E-6	20.806180
2636.713696	-3.004600	2.854600	-8.575600	29.053900	-5.395897E-6	20.758495
2637.712732	-3.028700	2.854200	-8.642900	29.061494	-6.121951E-6	20.798864
2638.711205	-3.028800	2.851500	-8.635600	29.123268	-5.098876E-6	20.784770
2639.712774	-2.992800	2.849800	-8.528000	29.221391	-2.491683E-6	20.775540
2640.712139	-2.998800	2.847500	-8.538300	29.244617	-5.098876E-6	20.774289
2641.712415	-3.012800	2.844500	-8.569500	29.230607	-4.636841E-6	20.783879
2642.712436	-3.003800	2.842800	-8.538800	29.280228	-5.032871E-6	20.792634
2643.714246	-3.008500	2.841400	-8.547400	29.299891	-6.484978E-6	20.795381
2644.711393	-2.978400	2.840600	-8.459600	29.283725	-5.428900E-6	20.792365
2645.710833	-2.980400	2.837500	-8.455900	29.279004	-2.986720E-6	20.807996
2646.713147	-2.998600	2.834900	-8.499600	29.217335	-4.339820E-6	20.803221
2647.713511	-3.007400	2.834400	-8.523500	29.169301	-4.768851E-6	20.804603
2648.711249	-3.005000	2.830500	-8.505100	29.160783	-4.603839E-6	20.805502
2649.714017	-2.991800	2.828100	-8.460200	29.219217	-5.230885E-6	20.810808
2650.716680	-2.988500	2.826700	-8.446700	29.295430	-3.910788E-6	20.785670
2651.715482	-2.993400	2.822000	-8.446400	29.413044	-3.448754E-6	20.806533
2652.716858	-2.995800	2.821600	-8.451600	29.367209	-4.636841E-6	20.799216
2653.714371	-2.944500	2.820200	-8.303300	29.338884	-4.372822E-6	20.781574
2654.714932	-2.991200	2.817000	-8.424700	29.292648	-4.009795E-6	20.815582
2655.715467	-2.995900	2.813800	-8.428000	29.269821	-5.725922E-6	20.802535
2656.716712	-3.002500	2.810200	-8.437600	29.272555	-3.052725E-6	20.809558
2657.720840	-2.981300	2.808700	-8.371600	29.237706	-4.603839E-6	20.811421
2658.718537	-2.993500	2.806600	-8.400900	29.257345	-4.669844E-6	20.796600
2659.717336	-2.999600	2.804200	-8.410500	29.252300	-3.795279E-7	20.804792
2660.719330	-3.001600	2.801900	-8.408700	29.244407	-2.953718E-6	20.812010
2661.718887	-3.000400	2.799100	-8.397500	29.273350	-5.560910E-6	20.798505
2662.718975	-3.021000	2.796200	-8.446700	29.305238	-4.570837E-6	20.800295
2663.718795	-2.995000	2.793000	-8.364100	29.352544	-4.141805E-6	20.813833
2664.718422	-3.001600	2.790500	-8.375100	29.465593	-2.293669E-6	20.809713
2665.721935	-3.012600	2.787500	-8.396800	29.490500	-3.844783E-6	20.797835
2666.728359	-2.992700	2.783100	-8.328100	29.435187	-3.877786E-6	20.816049
2667.722764	-3.042400	2.780700	-8.458800	29.327650	-4.834856E-6	20.805813
2668.727874	-2.978800	2.778700	-8.276500	29.258773	-1.666623E-6	20.815109
2669.721632	-2.994000	2.776700	-8.312600	29.324065	-5.395897E-6	20.820692
2670.722161	-3.007100	2.772500	-8.336200	29.345187	-5.857931E-6	20.836764
2671.724764	-2.989000	2.770700	-8.280300	29.388079	-4.669844E-6	20.820251
2672.723488	-2.971700	2.766500	-8.220200	29.484247	-3.415752E-6	20.810972
2673.725729	-3.007900	2.764700	-8.315500	29.551057	-2.986720E-6	20.811463
2674.726627	-2.992600	2.762100	-8.265000	29.541285	-4.735849E-6	20.836699
2675.723991	-2.991700	2.759500	-8.255000	29.545519	-4.042798E-6	20.808724
2676.723723	-2.998100	2.755200	-8.259100	29.555194	-3.184735E-6	20.825115
2677.727906	-2.963200	2.752600	-8.156000	29.532600	-3.811781E-6	20.824150
2678.726841	-2.993000	2.748600	-8.226000	29.457231	-4.141805E-6	20.832578
2679.730473	-2.992700	2.744300	-8.212200	29.456104	-4.933863E-6	20.813425
2680.726499	-2.985300	2.741300	-8.182800	29.458691	-1.963645E-6	20.818403
2681.726190	-2.984200	2.739900	-8.176200	29.501871	-4.900861E-6	20.835848
2682.726114	-3.004100	2.736100	-8.218200	29.531480	-5.593912E-6	20.820651
2683.727274	-3.011000	2.732000	-8.225200	29.516899	-1.963645E-6	20.844832
2684.729981	-2.984400	2.728200	-8.139300	29.545291	-2.821708E-6	20.837892
2685.727622	-3.005100	2.724700	-8.187200	29.575500	-3.283742E-6	20.826145
2686.728034	-2.980000	2.721600	-8.109500	29.558089	-5.329893E-6	20.817128
2687.729270	-3.008600	2.715700	-8.170000	29.618472	-4.834856E-6	20.835325
2688.734646	-2.990800	2.714000	-8.116000	29.564658	-4.141805E-6	20.824224
2689.731702	-2.996700	2.711600	-8.124700	29.612731	-3.085727E-6	20.844236
2690.728753	-3.009200	2.704900	-8.138900	29.677165	-4.900861E-6	20.836650
2691.729817	-3.010800	2.701400	-8.131400	29.615358	-1.006574E-6	20.838824
2692.732050	-3.005800	2.697000	-8.105500	29.672259	-2.491683E-6	20.827436
2693.729704	-3.008000	2.694000	-8.103000	29.720409	-2.689698E-6	20.848953
2694.732971	-2.988600	2.689400	-8.036000	29.583326	-3.316744E-6	20.843517
2695.741286	-2.990800	2.686200	-8.032000	29.558503	-3.085727E-6	20.849313
2696.730565	-3.022800	2.681600	-8.104600	29.594290	-1.534613E-6	20.835603
2697.730538	-3.013400	2.677600	-8.067400	29.575971	-4.768851E-6	20.828042
2698.733050	-3.003600	2.673100	-8.028300	29.545219	-3.778778E-6	20.841137
2699.738623	-3.016000	2.668100	-8.046100	29.558284	-5.428900E-6	20.870902
2700.736034	-2.968100	2.664900	-7.908200	29.567212	-2.524686E-6	20.864256
2701.735172	-2.999800	2.660200	-7.979000	29.608773	-3.448754E-6	20.842617
2702.731952	-2.978500	2.654800	-7.905900	29.508716	-5.362895E-6	20.847964
2703.733280	-2.982700	2.652000	-7.908800	29.476616	-2.986720E-6	20.841686
2704.736106	-2.991000	2.646500	-7.914800	29.537117	-3.943790E-6	20.857626
2705.733536	-2.994700	2.641100	-7.908200	29.608263	-2.986720E-6	20.834042
2706.733129	-2.997400	2.636600	-7.902300	29.641332	-3.547761E-6	20.854103
2707.734452	-2.997900	2.632300	-7.890400	29.627725	-1.501611E-6	20.861248
2708.740345	-3.003900	2.626800	-7.890000	29.713022	-3.085727E-6	20.834868
2709.733957	-3.009400	2.622400	-7.891000	29.806185	-3.679771E-6	20.851038
2710.734046	-2.992600	2.618400	-7.834700	29.857020	-3.778778E-6	20.827854
2711.736185	-3.009600	2.612300	-7.860900	29.859574	-3.415752E-6	20.847972
2712.735324	-2.988000	2.605500	-7.783600	29.898635	-2.821708E-6	20.836152
2713.736697	-2.969100	2.601800	-7.723400	29.922931	-3.679771E-6	20.837893
2714.739983	-2.989300	2.594900	-7.756400	29.940134	-4.702846E-6	20.847179
2715.735365	-2.990800	2.589000	-7.742300	29.897394	-5.791927E-6	20.859082
2716.740707	-3.008000	2.582800	-7.767900	29.880791	-3.811781E-6	20.859409
2717.740067	-2.995600	2.578800	-7.723400	29.949295	-2.854710E-6	20.843141
2718.738450	-3.005000	2.573700	-7.733000	29.915473	-3.613766E-6	20.830847
2719.739005	-3.014400	2.565100	-7.731800	29.776608	-1.237591E-6	20.848717
2720.740134	-3.039000	2.559800	-7.777900	29.795670	-2.887713E-6	20.846600
2721.743175	-2.977900	2.555800	-7.610300	29.789014	-2.623693E-6	20.834199
2722.743026	-3.014800	2.547700	-7.680100	29.833120	-1.105581E-6	20.858281
2723.740770	-2.964500	2.543900	-7.540400	29.834085	-1.996647E-6	20.827487
2724.744458	-3.018600	2.535700	-7.654100	29.936746	-1.930642E-6	20.852298
2725.745807	-3.025800	2.530100	-7.654700	30.023089	-4.075800E-6	20.825574
2726.741471	-2.982500	2.525700	-7.530400	30.031835	-9.735717E-7	20.834870
2727.745714	-3.006400	2.519000	-7.572700	29.996816	-1.072579E-6	20.840804
2728.745609	-3.029000	2.510400	-7.603200	29.985095	-1.699625E-6	20.832777
2729.742906	-3.030800	2.505600	-7.593300	30.031617	-1.501611E-6	20.828959
2730.745206	-2.976800	2.500600	-7.442700	29.904125	-1.963645E-6	20.835524
2731.742960	-2.994400	2.492700	-7.463300	29.880898	-1.072579E-6	20.858569
