LabVIEW Measurement	
Writer_Version	2
Reader_Version	2
Separator	Tab
Decimal_Separator	.
Multi_Headings	No
X_Columns	One
Time_Pref	Absolute
Operator	admin
Description	Clolumns are: time, Current, Voltage, Power, Battery Temp, and Chamber Temp
Date	2024/08/16
Time	13:07:17.8513970375061035156
***End_of_Header***	
	
Channels	6						
Samples	1	1	1	1	1	1	
Date	2024/09/08	2024/09/08	2024/09/08	2024/09/08	2024/09/08	2024/09/08	
Time	18:11:57.779842376708984375	18:11:57.7858557701110839844	18:11:57.7908582687377929688	18:11:57.7639942169189453125	18:11:57.7639942169189453125	18:11:57.7639942169189453125	
X_Dimension	Time	Time	Time	Time	Time	Time	
X0	0.0000000000000000E+0	0.0000000000000000E+0	0.0000000000000000E+0	0.0000000000000000E+0	0.0000000000000000E+0	0.0000000000000000E+0	
Delta_X	1.000000	1.000000	1.000000	1.000000	1.000000	1.000000	
***End_of_Header***							
X_Value	Untitled	Untitled 1	Untitled 2	Untitled 3	Untitled 4	Untitled 5	Comment
0.000000	0.019727	4.086400	0.080611	20.802833	0.000459	20.865894
1.002131	-2.977300	3.918400	-11.666000	20.807866	0.000456	20.871400
2.004333	-2.994400	3.912400	-11.714000	20.785783	0.000457	20.861172
3.005282	-3.005100	3.908900	-11.745000	20.802527	0.000456	20.883130
4.003342	-2.982000	3.906400	-11.648000	20.820095	0.000456	20.872250
5.005440	-3.015500	3.902100	-11.766000	20.802151	0.000458	20.883702
6.003866	-3.000000	3.901000	-11.702000	20.826837	0.000455	20.880888
7.006178	-2.996700	3.897900	-11.679000	20.822021	0.000455	20.876547
8.007223	-3.003900	3.896400	-11.704000	20.804823	0.000453	20.881159
9.007202	-3.006700	3.893700	-11.706000	20.845550	0.000455	20.871153
10.006581	-2.986300	3.891800	-11.621000	20.835144	0.000452	20.877342
11.005517	-3.010100	3.890400	-11.710000	20.836794	0.000451	20.878991
12.007269	-3.000200	3.889600	-11.668000	20.850722	0.000451	20.879643
13.008732	-3.002500	3.889200	-11.677000	20.862644	0.000450	20.876867
14.006858	-3.009200	3.886400	-11.694000	20.869089	0.000451	20.888528
15.006636	-2.986100	3.887500	-11.608000	20.859207	0.000450	20.880068
16.008125	-2.983400	3.885800	-11.592000	20.890529	0.000448	20.882943
17.011685	-2.994000	3.885800	-11.633000	20.881545	0.000449	20.866847
18.008424	-2.974500	3.883400	-11.550000	20.905602	0.000449	20.886637
19.008220	-2.987200	3.883700	-11.601000	20.910842	0.000448	20.873861
20.013681	-2.989300	3.880600	-11.600000	20.910299	0.000448	20.882800
21.006485	-2.980200	3.882800	-11.571000	20.908531	0.000447	20.857800
22.006401	-3.006800	3.880500	-11.667000	20.924903	0.000447	20.868009
23.012506	-3.013500	3.879000	-11.688000	20.929466	0.000446	20.864038
24.007667	-3.003800	3.878700	-11.650000	20.958193	0.000444	20.883285
25.009206	-2.997100	3.878800	-11.625000	20.959942	0.000444	20.867965
26.014086	-3.018400	3.878800	-11.707000	20.960366	0.000447	20.882139
27.008479	-3.006900	3.876500	-11.655000	20.967053	0.000443	20.867017
28.009118	-3.004400	3.876900	-11.647000	20.985227	0.000443	20.857219
29.011041	-3.018000	3.874700	-11.693000	20.972106	0.000445	20.861165
30.009188	-2.985500	3.876700	-11.573000	20.978995	0.000443	20.841978
31.009729	-2.988500	3.876100	-11.582000	20.989178	0.000444	20.864490
32.011202	-3.022300	3.873700	-11.706000	20.996546	0.000444	20.833454
33.008007	-2.998800	3.875200	-11.620000	21.017405	0.000443	20.848627
34.008263	-2.989300	3.875100	-11.583000	21.015860	0.000442	20.858460
35.010363	-3.007400	3.874500	-11.651000	21.016893	0.000441	20.853803
36.009904	-3.001400	3.873100	-11.623000	21.019466	0.000443	20.839308
37.009453	-2.998400	3.874200	-11.615000	21.043144	0.000442	20.852559
38.014002	-3.011900	3.873900	-11.667000	21.052329	0.000445	20.837091
39.010636	-2.998400	3.872000	-11.608000	21.062961	0.000441	20.853414
40.012949	-2.997800	3.871400	-11.605000	21.072748	0.000440	20.843290
41.013965	-2.973600	3.871600	-11.512000	21.094075	0.000442	20.828586
42.011508	-2.979200	3.871000	-11.531000	21.087918	0.000442	20.840445
43.013358	-3.001200	3.871400	-11.618000	21.104095	0.000440	20.839083
44.013767	-2.985200	3.870100	-11.551000	21.113255	0.000439	20.828805
45.012745	-2.985100	3.871100	-11.555000	21.104026	0.000442	20.818626
46.013567	-2.992600	3.870900	-11.583000	21.101429	0.000440	20.853959
47.018586	-3.015600	3.868500	-11.665000	21.146017	0.000440	20.851618
48.015588	-3.004300	3.870000	-11.625000	21.148096	0.000442	20.823828
49.015006	-3.009000	3.868700	-11.640000	21.170750	0.000441	20.818040
50.019830	-3.008900	3.867600	-11.636000	21.166785	0.000440	20.832091
51.015010	-2.972700	3.868700	-11.500000	21.163873	0.000439	20.851936
52.015396	-3.001700	3.868600	-11.612000	21.185381	0.000441	20.822718
53.031487	-2.978900	3.869000	-11.523000	21.174953	0.000439	20.838364
54.017383	-2.999800	3.867100	-11.600000	21.181416	0.000440	20.836769
55.016405	-2.987300	3.867500	-11.552000	21.195874	0.000441	20.828947
56.019215	-3.016200	3.866900	-11.663000	21.177862	0.000441	20.823732
57.016831	-3.005800	3.867000	-11.622000	21.210074	0.000441	20.822290
58.018634	-3.004200	3.866300	-11.614000	21.210420	0.000439	20.830222
59.017967	-2.988500	3.867700	-11.557000	21.227094	0.000441	20.813712
60.017484	-2.987800	3.867100	-11.553000	21.236425	0.000441	20.822098
61.018569	-2.993000	3.865300	-11.567000	21.250453	0.000442	20.812898
62.024449	-2.963600	3.866200	-11.457000	21.276121	0.000442	20.827670
63.019598	-3.018600	3.865300	-11.667000	21.272082	0.000441	20.828846
64.020381	-2.992100	3.864600	-11.562000	21.263606	0.000441	20.792391
65.025260	-2.997600	3.865700	-11.586000	21.281726	0.000441	20.811467
66.017616	-2.989100	3.864500	-11.551000	21.298117	0.000440	20.803209
67.019251	-2.988700	3.866500	-11.555000	21.290109	0.000439	20.826491
68.020825	-2.988900	3.864300	-11.549000	21.308569	0.000440	20.816510
69.019623	-3.003900	3.865200	-11.609000	21.310716	0.000441	20.812020
70.024973	-2.986900	3.864400	-11.542000	21.319672	0.000441	20.802962
71.024313	-3.019000	3.864400	-11.666000	21.317554	0.000440	20.811749
72.021240	-3.008500	3.864100	-11.624000	21.339681	0.000441	20.798325
73.024602	-2.986000	3.864200	-11.537000	21.324392	0.000441	20.811952
74.027027	-3.012100	3.863300	-11.635000	21.352987	0.000442	20.812585
75.021369	-3.007500	3.862900	-11.617000	21.352839	0.000441	20.810066
76.023676	-2.997700	3.862900	-11.579000	21.376130	0.000441	20.798281
77.024334	-2.983700	3.862400	-11.523000	21.386260	0.000441	20.799882
78.026228	-3.005700	3.862700	-11.609000	21.386567	0.000441	20.800663
79.025999	-2.988600	3.862800	-11.544000	21.369758	0.000443	20.806131
80.024625	-3.004500	3.862700	-11.605000	21.365597	0.000442	20.811450
81.024766	-2.997000	3.861900	-11.573000	21.395508	0.000441	20.807712
82.024070	-2.984800	3.863400	-11.531000	21.392517	0.000441	20.787650
83.025038	-3.004300	3.862700	-11.603000	21.400001	0.000442	20.799405
84.026011	-3.016900	3.860800	-11.647000	21.406991	0.000441	20.804977
85.025762	-3.006400	3.861400	-11.608000	21.418814	0.000443	20.805426
86.030590	-3.018000	3.860800	-11.651000	21.454460	0.000443	20.815013
87.025332	-3.011600	3.860600	-11.625000	21.468811	0.000444	20.801397
88.026266	-3.001600	3.860600	-11.587000	21.494099	0.000446	20.802993
89.025981	-3.028600	3.859500	-11.688000	21.491834	0.000444	20.792665
90.025372	-3.015600	3.861900	-11.645000	21.487150	0.000446	20.798410
91.026351	-3.026500	3.861000	-11.684000	21.478817	0.000443	20.787228
92.028381	-2.974500	3.860200	-11.481000	21.489396	0.000443	20.794019
93.030129	-2.989200	3.859900	-11.537000	21.511914	0.000447	20.799482
94.027681	-2.970200	3.861500	-11.468000	21.502215	0.000444	20.776500
95.029199	-2.973900	3.862200	-11.484000	21.523070	0.000445	20.796420
96.030003	-2.982800	3.860000	-11.513000	21.538529	0.000447	20.788182
97.035347	-3.006000	3.859800	-11.602000	21.553421	0.000448	20.776056
98.031374	-2.987100	3.859300	-11.528000	21.558757	0.000444	20.791353
99.030144	-3.021200	3.858400	-11.656000	21.557157	0.000447	20.807770
100.032279	-3.000700	3.858600	-11.577000	21.559453	0.000445	20.770712
101.029972	-2.978600	3.861000	-11.500000	21.578129	0.000448	20.782763
102.036860	-2.995300	3.858500	-11.556000	21.579354	0.000447	20.796316
103.031626	-3.000600	3.859600	-11.580000	21.588775	0.000445	20.798158
104.034819	-3.027700	3.857600	-11.679000	21.616035	0.000447	20.792246
105.035819	-3.018100	3.858400	-11.644000	21.612417	0.000446	20.782461
106.033538	-2.982600	3.858700	-11.507000	21.618128	0.000447	20.787228
107.037534	-3.004300	3.859200	-11.593000	21.641117	0.000447	20.784629
108.038868	-3.024600	3.857400	-11.666000	21.640865	0.000448	20.788645
109.033060	-3.019700	3.858600	-11.651000	21.644231	0.000445	20.797703
110.035054	-2.997600	3.857700	-11.563000	21.646126	0.000448	20.802444
111.038047	-2.993000	3.857700	-11.545000	21.656501	0.000448	20.782955
112.037918	-3.004400	3.857500	-11.588000	21.681527	0.000448	20.786189
113.036179	-2.990100	3.856700	-11.531000	21.693648	0.000451	20.774612
114.046216	-2.994100	3.856800	-11.547000	21.697789	0.000447	20.782549
115.037173	-2.970400	3.857800	-11.458000	21.705389	0.000448	20.774982
116.035774	-2.959100	3.858000	-11.415000	21.699925	0.000448	20.774729
117.036670	-3.015300	3.855800	-11.625000	21.717055	0.000450	20.790451
118.035389	-2.993800	3.856300	-11.544000	21.720796	0.000451	20.754365
119.037889	-2.991600	3.857100	-11.538000	21.729072	0.000451	20.771183
120.037154	-2.977800	3.855400	-11.480000	21.723929	0.000448	20.771251
121.037601	-2.980200	3.856600	-11.492000	21.761337	0.000450	20.780241
122.041089	-3.010800	3.854900	-11.605000	21.755203	0.000449	20.750868
123.043849	-2.979700	3.856200	-11.489000	21.757597	0.000449	20.781713
124.036139	-2.980200	3.854600	-11.486000	21.790324	0.000450	20.794079
125.039751	-2.995900	3.854100	-11.545000	21.769484	0.000450	20.772748
126.038411	-2.991300	3.855000	-11.530000	21.780005	0.000449	20.792287
127.040635	-2.985900	3.854300	-11.507000	21.787432	0.000450	20.783124
128.037365	-3.000800	3.853900	-11.563000	21.801127	0.000451	20.781184
129.043170	-3.013300	3.854600	-11.614000	21.782024	0.000450	20.799997
130.037300	-2.977400	3.853400	-11.473000	21.791395	0.000450	20.774762
131.038422	-2.998400	3.854300	-11.556000	21.796365	0.000449	20.765986
132.042910	-3.028900	3.852100	-11.666000	21.817554	0.000451	20.777237
133.040275	-3.012800	3.852700	-11.607000	21.840970	0.000450	20.783604
134.040509	-3.008100	3.852500	-11.588000	21.845006	0.000453	20.774368
135.041329	-3.019000	3.852300	-11.630000	21.848505	0.000451	20.778819
136.039779	-3.012400	3.852800	-11.605000	21.880496	0.000452	20.773381
137.037251	-2.982100	3.853100	-11.490000	21.877506	0.000453	20.766120
138.039635	-3.010400	3.852400	-11.597000	21.871545	0.000451	20.781965
139.038429	-2.987500	3.853300	-11.511000	21.889965	0.000452	20.785229
140.037698	-3.004500	3.853000	-11.575000	21.906328	0.000455	20.758934
141.040226	-2.988500	3.851300	-11.509000	21.906679	0.000452	20.774458
142.037685	-3.000600	3.851600	-11.557000	21.912185	0.000455	20.753417
143.038615	-3.003900	3.852400	-11.572000	21.928321	0.000453	20.779526
144.041807	-3.010500	3.851700	-11.595000	21.918324	0.000456	20.754346
145.038975	-2.996700	3.851000	-11.539000	21.953179	0.000457	20.764580
146.039814	-2.994800	3.851100	-11.532000	21.954951	0.000454	20.743593
147.039865	-2.991600	3.851100	-11.520000	21.979661	0.000454	20.782555
148.038393	-3.004600	3.850800	-11.569000	21.985296	0.000455	20.773970
149.038595	-3.005100	3.851700	-11.574000	21.979262	0.000455	20.755601
150.041261	-3.033700	3.849400	-11.676000	21.992253	0.000455	20.757701
151.040965	-2.990700	3.851300	-11.517000	22.003177	0.000456	20.744928
152.039164	-2.980200	3.851700	-11.478000	22.013573	0.000455	20.745852
153.041769	-3.001600	3.849000	-11.552000	22.011106	0.000458	20.776574
154.040286	-3.008900	3.849400	-11.581000	22.016021	0.000456	20.755889
155.041267	-3.010000	3.850500	-11.589000	22.019361	0.000456	20.744534
156.041244	-3.015700	3.849700	-11.608000	22.021083	0.000458	20.744835
157.040560	-3.016500	3.848600	-11.608000	22.025228	0.000455	20.747088
158.039236	-3.004000	3.849400	-11.562000	22.028913	0.000459	20.753622
159.043193	-2.986600	3.850500	-11.498000	22.044174	0.000456	20.737130
160.041294	-3.003800	3.848300	-11.559000	22.059207	0.000460	20.774941
161.042345	-3.002100	3.849800	-11.556000	22.065395	0.000458	20.771178
162.044814	-2.973100	3.850400	-11.446000	22.100246	0.000458	20.764816
163.043448	-3.014500	3.847800	-11.598000	22.064896	0.000459	20.779688
164.042427	-3.003300	3.847100	-11.553000	22.068894	0.000460	20.762352
165.048287	-2.977600	3.848200	-11.458000	22.068943	0.000459	20.740590
166.046008	-2.989900	3.847800	-11.503000	22.085150	0.000460	20.733107
167.047063	-3.018600	3.848000	-11.615000	22.090089	0.000458	20.746587
168.048342	-2.993800	3.846600	-11.515000	22.085703	0.000458	20.755947
169.046690	-2.989700	3.849300	-11.507000	22.122202	0.000462	20.758348
170.046247	-3.008900	3.846100	-11.571000	22.115922	0.000462	20.758225
171.047558	-3.008400	3.847300	-11.573000	22.124526	0.000462	20.763520
172.046824	-3.009500	3.846500	-11.575000	22.161848	0.000463	20.737348
173.048790	-3.011400	3.847200	-11.585000	22.177999	0.000462	20.744035
174.046805	-3.018500	3.845300	-11.606000	22.154497	0.000462	20.748955
175.048213	-3.022500	3.844800	-11.620000	22.168963	0.000461	20.745894
176.046859	-2.981900	3.846200	-11.468000	22.170236	0.000464	20.754755
177.047309	-3.012800	3.844500	-11.581000	22.185070	0.000462	20.764392
178.047298	-3.005100	3.845800	-11.556000	22.192119	0.000463	20.738258
179.047414	-3.003100	3.845200	-11.546000	22.172787	0.000464	20.747826
180.048591	-3.026400	3.844000	-11.632000	22.188046	0.000463	20.755517
181.048813	-2.996400	3.846000	-11.523000	22.218029	0.000465	20.750450
182.048070	-2.982400	3.845400	-11.467000	22.207794	0.000463	20.727873
183.049951	-3.008600	3.844900	-11.567000	22.222622	0.000465	20.724227
184.053319	-3.002500	3.844500	-11.542000	22.202836	0.000465	20.731919
185.050455	-2.996700	3.843100	-11.515000	22.202289	0.000467	20.727577
186.052565	-2.982500	3.844800	-11.466000	22.209374	0.000468	20.756483
187.052304	-2.968100	3.843900	-11.408000	22.238986	0.000465	20.728758
188.051202	-3.002500	3.843900	-11.541000	22.233802	0.000466	20.748699
189.053062	-2.989300	3.844200	-11.490000	22.250573	0.000468	20.736567
190.053515	-2.989300	3.843000	-11.487000	22.242405	0.000468	20.719379
191.054726	-2.981800	3.844200	-11.461000	22.267430	0.000468	20.749178
192.053426	-2.965800	3.844300	-11.400000	22.256642	0.000467	20.748808
193.051275	-2.983500	3.842400	-11.463000	22.271175	0.000467	20.721158
194.054377	-3.000300	3.842600	-11.527000	22.280750	0.000469	20.733117
195.055226	-2.985900	3.841300	-11.469000	22.284636	0.000468	20.756450
196.058619	-2.988000	3.842300	-11.480000	22.297649	0.000470	20.723960
197.054668	-3.000500	3.842400	-11.528000	22.320907	0.000471	20.740137
198.057848	-2.988000	3.842100	-11.479000	22.337954	0.000468	20.729230
199.056022	-3.018900	3.840100	-11.592000	22.323926	0.000469	20.747902
200.055295	-3.012900	3.840700	-11.571000	22.331533	0.000471	20.737500
201.062748	-2.997900	3.842200	-11.517000	22.361868	0.000471	20.746540
202.059863	-3.001700	3.841300	-11.530000	22.352847	0.000471	20.728496
203.057711	-3.007300	3.841100	-11.550000	22.359881	0.000471	20.726057
204.063673	-3.028900	3.838800	-11.627000	22.326957	0.000471	20.727702
205.061571	-3.017000	3.840800	-11.587000	22.353646	0.000471	20.727874
206.059081	-3.030300	3.839300	-11.633000	22.375561	0.000472	20.752666
207.064665	-3.029500	3.840000	-11.631000	22.408257	0.000472	20.740836
208.062798	-2.965100	3.840100	-11.385000	22.399340	0.000473	20.727165
209.058679	-3.019700	3.839100	-11.591000	22.407193	0.000472	20.729813
210.061587	-2.997800	3.839700	-11.510000	22.437994	0.000473	20.725570
211.060991	-3.010900	3.838600	-11.556000	22.467557	0.000472	20.741900
212.058699	-3.000300	3.839000	-11.517000	22.457885	0.000475	20.735533
213.059865	-3.015000	3.838100	-11.570000	22.450137	0.000473	20.742947
214.062873	-2.992200	3.839300	-11.486000	22.443440	0.000475	20.743827
215.060057	-2.984700	3.839500	-11.459000	22.458364	0.000475	20.724633
216.062541	-3.003800	3.836900	-11.525000	22.457866	0.000476	20.727453
217.067446	-2.994600	3.837800	-11.491000	22.466709	0.000477	20.740576
218.068273	-3.000800	3.838000	-11.516000	22.502229	0.000476	20.756235
219.064684	-3.001200	3.837800	-11.517000	22.485179	0.000476	20.730624
220.067319	-3.014700	3.836800	-11.566000	22.466892	0.000476	20.739338
221.064443	-3.009600	3.836400	-11.545000	22.506632	0.000477	20.728876
222.064553	-3.006500	3.836900	-11.535000	22.506613	0.000476	20.726960
223.066682	-2.994900	3.836800	-11.490000	22.491167	0.000479	20.732828
224.065271	-3.006300	3.835000	-11.528000	22.520614	0.000478	20.730076
225.068097	-3.037200	3.833800	-11.642000	22.522612	0.000477	20.738241
226.066302	-3.020500	3.835500	-11.584000	22.501627	0.000478	20.733346
227.066368	-3.001300	3.836400	-11.513000	22.494254	0.000480	20.752042
228.066602	-3.002400	3.835200	-11.513000	22.499148	0.000479	20.734657
229.072667	-2.992200	3.834400	-11.473000	22.508783	0.000479	20.755213
230.065667	-2.993300	3.834800	-11.478000	22.526405	0.000482	20.728764
231.066280	-2.984400	3.834000	-11.441000	22.541831	0.000480	20.738050
232.070437	-3.002300	3.834900	-11.513000	22.574768	0.000481	20.739744
233.067590	-2.977200	3.835000	-11.416000	22.605264	0.000482	20.731880
234.067833	-2.981600	3.835300	-11.434000	22.593527	0.000480	20.742410
235.070086	-2.985500	3.833900	-11.443000	22.617701	0.000484	20.722999
236.068561	-2.989100	3.832800	-11.455000	22.615900	0.000482	20.730205
237.067990	-2.988300	3.834600	-11.458000	22.638604	0.000483	20.746308
238.071334	-2.991300	3.833300	-11.466000	22.625398	0.000481	20.759634
239.069810	-2.991000	3.832600	-11.462000	22.619121	0.000484	20.728690
240.071601	-2.989700	3.832000	-11.455000	22.634245	0.000485	20.738149
241.070824	-3.007800	3.832300	-11.526000	22.620093	0.000482	20.746259
242.070556	-3.018700	3.833100	-11.571000	22.651170	0.000484	20.760791
243.073205	-3.005300	3.832000	-11.514000	22.649252	0.000486	20.737532
244.072021	-3.008300	3.831100	-11.525000	22.637565	0.000487	20.735783
245.073707	-2.993700	3.831600	-11.470000	22.624310	0.000486	20.732464
246.080295	-3.006300	3.831600	-11.518000	22.648157	0.000484	20.751609
247.073211	-3.015800	3.831600	-11.555000	22.636120	0.000486	20.739078
248.073151	-3.018500	3.831000	-11.563000	22.627426	0.000489	20.743647
249.072261	-2.995700	3.831500	-11.477000	22.651692	0.000489	20.742348
250.072699	-2.986800	3.831500	-11.444000	22.671728	0.000486	20.751511
251.078739	-2.989600	3.830900	-11.452000	22.687275	0.000487	20.735789
252.074881	-2.991700	3.829800	-11.457000	22.689746	0.000489	20.744903
253.077812	-2.969700	3.831700	-11.378000	22.720085	0.000490	20.753481
254.078041	-2.986800	3.829200	-11.436000	22.708675	0.000490	20.758648
255.079143	-3.007400	3.829700	-11.516000	22.722526	0.000489	20.725579
256.079041	-2.986500	3.829900	-11.436000	22.719809	0.000488	20.747514
257.085279	-2.998700	3.830000	-11.484000	22.741552	0.000490	20.762658
258.075198	-3.004400	3.827400	-11.499000	22.763898	0.000491	20.770817
259.075675	-2.981600	3.829600	-11.418000	22.765723	0.000488	20.739453
260.083005	-2.997100	3.829800	-11.477000	22.756060	0.000490	20.754430
261.075362	-2.968200	3.829500	-11.365000	22.777699	0.000490	20.757614
262.075721	-2.988100	3.828200	-11.438000	22.795907	0.000492	20.764949
263.080189	-2.983000	3.828900	-11.420000	22.808145	0.000490	20.744965
264.076217	-2.986400	3.828400	-11.432000	22.818927	0.000492	20.727791
265.076867	-2.984100	3.827500	-11.421000	22.827269	0.000491	20.745157
266.079117	-2.996700	3.828300	-11.470000	22.829985	0.000492	20.748827
267.077445	-3.011400	3.827700	-11.526000	22.830385	0.000492	20.743537
268.075926	-2.999800	3.827800	-11.482000	22.848444	0.000492	20.766845
269.082755	-3.014100	3.826400	-11.532000	22.842494	0.000492	20.750927
270.078037	-3.000700	3.826900	-11.482000	22.825277	0.000494	20.735101
271.079757	-2.998100	3.826500	-11.471000	22.841296	0.000493	20.738346
272.081812	-2.997100	3.827700	-11.471000	22.840073	0.000491	20.757984
273.079570	-2.994100	3.826300	-11.455000	22.836212	0.000494	20.755065
274.080675	-2.997200	3.826600	-11.468000	22.843293	0.000493	20.755995
275.084799	-2.984300	3.825800	-11.416000	22.873264	0.000496	20.748087
276.079422	-3.014200	3.823800	-11.525000	22.866490	0.000494	20.754578
277.080157	-2.999600	3.824900	-11.473000	22.890401	0.000494	20.759092
278.083632	-3.010000	3.825000	-11.512000	22.876005	0.000494	20.754153
279.079607	-3.001200	3.824400	-11.477000	22.848037	0.000493	20.762644
280.086024	-2.995300	3.825300	-11.457000	22.853268	0.000496	20.761246
281.081951	-3.008500	3.824300	-11.505000	22.871204	0.000495	20.772103
282.084151	-2.999800	3.824600	-11.473000	22.882944	0.000497	20.750198
283.083705	-3.016800	3.824200	-11.536000	22.920234	0.000495	20.765747
284.088691	-2.992800	3.823000	-11.441000	22.949405	0.000498	20.748979
285.082313	-3.032400	3.823100	-11.592000	22.938845	0.000496	20.776807
286.084451	-2.992800	3.823100	-11.441000	22.938501	0.000496	20.749434
287.085213	-3.001800	3.822000	-11.473000	22.969391	0.000499	20.753830
288.090872	-2.986800	3.823100	-11.418000	22.960276	0.000498	20.755130
289.084765	-2.979900	3.822600	-11.390000	22.977855	0.000501	20.773690
290.087801	-2.996000	3.823300	-11.454000	22.989796	0.000499	20.769533
291.085452	-3.001500	3.821700	-11.471000	23.004767	0.000500	20.759877
292.085437	-3.012600	3.820700	-11.509000	23.020034	0.000498	20.777070
293.089259	-2.994100	3.821400	-11.441000	23.036473	0.000501	20.771731
294.085251	-2.983000	3.820900	-11.397000	23.004226	0.000498	20.750800
295.086723	-3.008800	3.820400	-11.494000	23.006592	0.000502	20.777353
296.087521	-2.998700	3.820600	-11.455000	22.987884	0.000501	20.775678
297.085847	-2.985200	3.820300	-11.404000	23.010028	0.000502	20.792175
298.088974	-2.982300	3.820300	-11.392000	23.001288	0.000503	20.782944
299.093079	-2.985800	3.820200	-11.405000	22.987170	0.000503	20.768799
300.087715	-2.985400	3.820600	-11.405000	23.010033	0.000501	20.778904
301.090076	-2.992500	3.819500	-11.429000	23.020715	0.000503	20.761632
302.088320	-2.997800	3.819700	-11.450000	23.045697	0.000503	20.749679
303.086002	-2.990000	3.819200	-11.419000	23.068964	0.000503	20.771570
304.088774	-2.992200	3.818900	-11.426000	23.096213	0.000504	20.771373
305.090754	-2.994200	3.818300	-11.432000	23.102463	0.000502	20.793757
306.085806	-2.992700	3.819200	-11.429000	23.103410	0.000505	20.774316
307.087955	-2.997900	3.818600	-11.446000	23.132704	0.000504	20.779489
308.089058	-3.004600	3.817300	-11.467000	23.132975	0.000504	20.777863
309.092247	-2.998200	3.817600	-11.445000	23.137036	0.000503	20.783356
310.091894	-3.011300	3.817300	-11.494000	23.089988	0.000504	20.792162
311.093089	-3.018200	3.817200	-11.520000	23.098856	0.000502	20.756002
312.088130	-3.013600	3.816500	-11.501000	23.120924	0.000504	20.782857
313.097339	-3.006400	3.816300	-11.473000	23.127474	0.000507	20.758601
314.092036	-2.993500	3.817400	-11.426000	23.104245	0.000506	20.766618
315.090825	-3.014600	3.817400	-11.506000	23.116443	0.000505	20.778842
316.097441	-3.001200	3.816000	-11.452000	23.158519	0.000506	20.789710
317.093372	-3.012400	3.816300	-11.496000	23.168677	0.000506	20.772388
318.091735	-3.000500	3.815600	-11.447000	23.177076	0.000508	20.785547
319.093977	-3.020000	3.814000	-11.518000	23.172019	0.000507	20.794704
320.093673	-3.001800	3.815700	-11.452000	23.165720	0.000506	20.780331
321.095162	-3.001400	3.815800	-11.452000	23.148194	0.000506	20.776519
322.094896	-3.014400	3.814400	-11.498000	23.150910	0.000505	20.777344
323.094728	-3.013300	3.814500	-11.494000	23.184904	0.000507	20.778218
324.095123	-3.005100	3.814800	-11.463000	23.154849	0.000509	20.788403
325.094613	-3.010000	3.813400	-11.477000	23.173806	0.000510	20.777528
326.093585	-2.988300	3.814200	-11.397000	23.159138	0.000510	20.784166
327.094307	-2.994100	3.813500	-11.417000	23.134459	0.000508	20.766074
328.093692	-3.003300	3.813500	-11.452000	23.170598	0.000508	20.798021
329.096031	-2.987200	3.813200	-11.390000	23.174979	0.000509	20.791032
330.094658	-2.987100	3.813100	-11.389000	23.203596	0.000508	20.790785
331.094281	-3.007100	3.812100	-11.462000	23.219062	0.000510	20.778309
332.096698	-3.005700	3.812500	-11.458000	23.208432	0.000511	20.802269
333.093802	-3.003400	3.813500	-11.452000	23.212611	0.000511	20.765205
334.099518	-2.995500	3.811800	-11.418000	23.214410	0.000511	20.786924
335.103983	-2.988900	3.811700	-11.392000	23.236949	0.000512	20.812356
336.097012	-2.979000	3.812400	-11.356000	23.257441	0.000511	20.797331
337.096885	-3.023900	3.810700	-11.523000	23.267555	0.000511	20.786129
338.098609	-2.997100	3.812300	-11.425000	23.264298	0.000513	20.798038
339.097037	-3.006800	3.810900	-11.458000	23.272396	0.000513	20.794300
340.105374	-2.984900	3.811100	-11.375000	23.271069	0.000513	20.776849
341.101533	-2.991100	3.811200	-11.399000	23.270277	0.000512	20.778899
342.098403	-3.022500	3.809500	-11.514000	23.274062	0.000515	20.784589
343.100751	-3.018900	3.808100	-11.495000	23.240647	0.000514	20.804682
344.104435	-3.005500	3.810500	-11.451000	23.276433	0.000515	20.788863
345.100163	-3.003900	3.809200	-11.441000	23.300660	0.000515	20.799867
346.106247	-3.014600	3.809000	-11.481000	23.339080	0.000515	20.806129
347.103975	-3.017400	3.808500	-11.491000	23.363084	0.000514	20.798894
348.099518	-2.986700	3.808800	-11.375000	23.334631	0.000515	20.812102
349.101849	-2.998300	3.808600	-11.419000	23.353757	0.000514	20.805667
350.102683	-2.986200	3.808300	-11.371000	23.343694	0.000517	20.795581
351.100374	-2.987600	3.807300	-11.373000	23.334287	0.000516	20.810334
352.104209	-2.985500	3.808400	-11.368000	23.325347	0.000514	20.809909
353.104733	-2.995200	3.807400	-11.403000	23.327970	0.000518	20.808745
354.105468	-3.000600	3.807900	-11.425000	23.349284	0.000518	20.812089
355.103062	-2.967900	3.806900	-11.298000	23.382498	0.000516	20.820248
356.105977	-3.026900	3.805900	-11.519000	23.396893	0.000516	20.808123
357.100806	-2.997500	3.806800	-11.409000	23.414150	0.000518	20.799816
358.103014	-3.002800	3.806500	-11.429000	23.399584	0.000517	20.804656
359.104129	-3.009700	3.805700	-11.453000	23.412756	0.000520	20.791780
360.101618	-3.014100	3.805000	-11.467000	23.412811	0.000519	20.808430
361.101914	-3.001600	3.804600	-11.418000	23.404941	0.000520	20.804336
362.105693	-2.980100	3.803800	-11.335000	23.410962	0.000518	20.804207
363.101623	-2.979000	3.805500	-11.335000	23.404136	0.000520	20.799736
364.104403	-2.993400	3.804400	-11.387000	23.413223	0.000518	20.804102
365.104271	-3.002700	3.803700	-11.421000	23.412977	0.000518	20.824244
366.102689	-2.949900	3.805400	-11.225000	23.432698	0.000520	20.841165
367.104071	-3.021900	3.803000	-11.492000	23.426045	0.000519	20.828333
368.104337	-2.985500	3.803200	-11.353000	23.448254	0.000519	20.812662
369.103047	-2.982200	3.803600	-11.342000	23.523706	0.000520	20.832342
370.104452	-2.996900	3.804400	-11.400000	23.508753	0.000519	20.819250
371.104660	-2.966400	3.803300	-11.281000	23.463508	0.000518	20.818469
372.103680	-3.000200	3.802800	-11.409000	23.498617	0.000520	20.818099
373.103991	-2.990000	3.802000	-11.367000	23.499305	0.000520	20.818315
374.105759	-2.983200	3.802500	-11.343000	23.472293	0.000521	20.815421
375.103925	-3.005800	3.801800	-11.427000	23.439752	0.000521	20.823106
376.104711	-2.971300	3.801800	-11.296000	23.436465	0.000521	20.834510
377.106277	-3.007700	3.801200	-11.432000	23.445324	0.000520	20.838648
378.104918	-3.006900	3.800300	-11.425000	23.458367	0.000522	20.820902
379.104844	-2.982800	3.802000	-11.340000	23.489686	0.000523	20.845656
380.106337	-2.999900	3.799900	-11.398000	23.485650	0.000522	20.829283
381.103817	-3.013600	3.799600	-11.449000	23.508803	0.000523	20.833999
382.107630	-2.997800	3.800600	-11.392000	23.519923	0.000521	20.824757
383.105277	-3.003200	3.799700	-11.411000	23.546712	0.000523	20.832645
384.105099	-3.012900	3.799200	-11.445000	23.536380	0.000522	20.835564
385.105097	-3.010700	3.798800	-11.435000	23.566874	0.000524	20.826777
386.104708	-3.010500	3.798700	-11.434000	23.584596	0.000525	20.825102
387.105382	-3.013500	3.797700	-11.443000	23.581009	0.000522	20.830989
388.107215	-2.998700	3.797300	-11.386000	23.571174	0.000523	20.832036
389.106171	-3.017900	3.798800	-11.464000	23.568557	0.000524	20.834629
390.108293	-2.987600	3.798300	-11.347000	23.591630	0.000525	20.847326
391.106557	-2.997000	3.797000	-11.379000	23.594246	0.000525	20.841415
392.108643	-2.982600	3.798300	-11.328000	23.620432	0.000526	20.850122
393.109711	-3.003900	3.796500	-11.402000	23.625605	0.000526	20.813582
394.108690	-2.985600	3.797900	-11.338000	23.651022	0.000525	20.834796
395.106617	-3.009500	3.797100	-11.427000	23.632552	0.000525	20.842831
396.106375	-2.981400	3.796000	-11.317000	23.601557	0.000526	20.828355
397.110226	-3.015300	3.795900	-11.445000	23.607306	0.000525	20.850713
398.107853	-3.015800	3.796100	-11.447000	23.642325	0.000525	20.850732
399.110534	-2.997800	3.796000	-11.378000	23.655125	0.000526	20.845547
400.108251	-2.992000	3.796500	-11.358000	23.647724	0.000526	20.872739
401.109521	-3.002600	3.796200	-11.397000	23.661022	0.000526	20.861889
402.108627	-2.993600	3.795300	-11.361000	23.673485	0.000527	20.851625
403.110095	-3.011100	3.793000	-11.420000	23.640323	0.000526	20.855837
404.111475	-3.024000	3.793200	-11.470000	23.645630	0.000527	20.847882
405.110536	-2.998300	3.793800	-11.373000	23.639427	0.000528	20.831706
406.113555	-3.004700	3.793300	-11.397000	23.645452	0.000526	20.846755
407.109492	-3.001100	3.793200	-11.383000	23.657817	0.000526	20.849194
408.111738	-3.016700	3.793900	-11.443000	23.672233	0.000526	20.860326
409.111319	-2.971000	3.794800	-11.274000	23.692638	0.000527	20.852809
410.110958	-3.005200	3.792900	-11.397000	23.685795	0.000527	20.853535
411.110878	-2.989500	3.793900	-11.341000	23.663462	0.000527	20.850586
412.110599	-2.997400	3.793100	-11.369000	23.667290	0.000525	20.853474
413.111901	-2.997900	3.793400	-11.371000	23.703430	0.000528	20.849404
414.108817	-3.015100	3.791600	-11.431000	23.712121	0.000527	20.860013
415.109193	-3.010100	3.791100	-11.411000	23.714400	0.000527	20.862299
416.111463	-2.990100	3.791900	-11.338000	23.726027	0.000529	20.879644
417.109742	-3.013000	3.791300	-11.423000	23.732642	0.000528	20.865889
418.113763	-3.008900	3.790800	-11.405000	23.732489	0.000530	20.881855
419.114873	-2.998500	3.789900	-11.363000	23.756405	0.000527	20.877385
420.113597	-3.011400	3.790200	-11.412000	23.757756	0.000528	20.880636
421.114182	-3.020200	3.790600	-11.447000	23.762056	0.000528	20.855551
422.113394	-3.003900	3.790600	-11.385000	23.731592	0.000529	20.875267
423.113462	-3.004500	3.790800	-11.388000	23.809825	0.000530	20.866936
424.117490	-3.003200	3.788900	-11.378000	23.804341	0.000528	20.885618
425.115339	-3.030300	3.787300	-11.476000	23.813074	0.000528	20.887262
426.115181	-2.989100	3.789100	-11.324000	23.815592	0.000529	20.879830
427.118087	-2.996200	3.787900	-11.347000	23.793164	0.000529	20.882946
428.115993	-3.007900	3.787900	-11.393000	23.782016	0.000529	20.885993
429.118800	-2.989700	3.789500	-11.329000	23.780598	0.000531	20.863236
430.115852	-3.003600	3.788300	-11.378000	23.773449	0.000531	20.890205
431.116684	-2.989200	3.788100	-11.322000	23.816182	0.000532	20.904601
432.114767	-2.998100	3.787200	-11.354000	23.780223	0.000532	20.885144
433.115778	-2.987700	3.785600	-11.309000	23.793287	0.000532	20.900611
434.114659	-2.998000	3.786000	-11.349000	23.801050	0.000531	20.895119
435.118856	-2.977700	3.787200	-11.276000	23.799932	0.000531	20.888309
436.117167	-2.995400	3.787100	-11.343000	23.799582	0.000534	20.882269
437.118021	-2.980300	3.786700	-11.285000	23.850850	0.000533	20.889578
438.119956	-2.980800	3.785700	-11.284000	23.876661	0.000531	20.884639
439.119281	-3.010400	3.785800	-11.396000	23.869396	0.000534	20.867872
440.118629	-2.982600	3.785100	-11.288000	23.855303	0.000532	20.883611
441.117564	-2.994900	3.785400	-11.336000	23.884443	0.000531	20.872528
442.118191	-2.981200	3.783900	-11.280000	23.842007	0.000534	20.883082
443.119806	-3.007200	3.785200	-11.381000	23.856071	0.000533	20.888648
444.118935	-2.993800	3.784700	-11.329000	23.880255	0.000534	20.884924
445.119746	-3.006300	3.784200	-11.376000	23.885052	0.000531	20.877880
446.124875	-2.982500	3.783700	-11.284000	23.864147	0.000531	20.876359
447.119148	-2.994000	3.784100	-11.329000	23.851049	0.000532	20.866545
448.119039	-2.971000	3.784100	-11.241000	23.890671	0.000531	20.875929
449.124023	-2.975900	3.783800	-11.259000	23.930268	0.000534	20.882917
450.119915	-2.997200	3.782000	-11.334000	23.923869	0.000533	20.882665
451.122129	-3.005200	3.782300	-11.365000	23.885759	0.000534	20.879538
452.122680	-3.002800	3.782500	-11.356000	23.890961	0.000533	20.863418
453.122691	-2.989300	3.783000	-11.307000	23.896427	0.000533	20.892604
454.124566	-3.000400	3.781700	-11.346000	23.913953	0.000533	20.881256
455.122128	-2.989600	3.781000	-11.302000	23.937890	0.000532	20.880604
456.125701	-2.983300	3.781400	-11.280000	23.927211	0.000533	20.882223
457.124371	-3.001300	3.779700	-11.343000	23.939254	0.000533	20.893824
458.128956	-2.978900	3.781400	-11.264000	23.957202	0.000534	20.881952
459.124515	-2.989000	3.781400	-11.301000	23.960058	0.000535	20.883867
460.127186	-3.013500	3.779400	-11.388000	23.976908	0.000534	20.880850
461.129204	-3.019200	3.779000	-11.409000	23.963220	0.000533	20.867599
462.127166	-3.009400	3.780800	-11.376000	23.979818	0.000533	20.878079
463.128208	-3.000800	3.779500	-11.341000	23.976337	0.000535	20.879803
464.128791	-3.009500	3.779800	-11.374000	23.924847	0.000533	20.871318
465.129550	-2.983300	3.779000	-11.273000	23.920665	0.000533	20.874711
466.132456	-3.007200	3.777900	-11.361000	23.903588	0.000531	20.878449
467.130698	-3.019700	3.779100	-11.411000	23.919069	0.000534	20.858413
468.129064	-3.007900	3.777500	-11.362000	23.947869	0.000535	20.871645
469.128671	-3.024800	3.777200	-11.425000	23.931467	0.000534	20.869422
470.128678	-3.009300	3.777800	-11.368000	23.967727	0.000533	20.857421
471.129191	-3.008500	3.777600	-11.365000	23.957350	0.000533	20.865506
472.130893	-2.981800	3.777000	-11.261000	23.981040	0.000536	20.877408
473.128731	-2.998800	3.776500	-11.325000	23.991767	0.000532	20.863511
474.128507	-2.983100	3.778100	-11.270000	24.024735	0.000535	20.861485
475.129908	-2.991800	3.776500	-11.298000	24.023765	0.000533	20.865728
476.128615	-2.984500	3.775900	-11.268000	24.004238	0.000535	20.866534
477.131648	-2.990100	3.775500	-11.288000	23.999081	0.000534	20.865629
478.129277	-2.995000	3.775000	-11.305000	23.991614	0.000535	20.851030
479.136045	-3.008700	3.774700	-11.355000	23.957104	0.000534	20.849613
480.131221	-2.997400	3.775000	-11.314000	23.952799	0.000534	20.849089
481.129281	-2.973600	3.774900	-11.224000	23.981095	0.000534	20.860869
482.131163	-2.998100	3.773600	-11.312000	24.041860	0.000535	20.848314
483.132303	-3.005500	3.774500	-11.343000	24.049553	0.000534	20.848443
484.132007	-3.020600	3.773500	-11.398000	24.061570	0.000534	20.861441
485.131465	-3.003000	3.772800	-11.330000	24.099324	0.000537	20.858054
486.134583	-2.991800	3.774100	-11.290000	24.100570	0.000537	20.867838
487.131838	-2.991500	3.772100	-11.283000	24.093527	0.000534	20.855086
488.134244	-3.003500	3.773500	-11.332000	24.065885	0.000536	20.842063
489.132086	-3.007000	3.772700	-11.344000	24.072430	0.000536	20.843411
490.130628	-2.996900	3.772600	-11.305000	24.094902	0.000537	20.870215
491.135296	-2.980200	3.771200	-11.238000	24.115231	0.000537	20.834655
492.133792	-2.982000	3.771400	-11.245000	24.136812	0.000537	20.844445
493.136178	-2.998300	3.771200	-11.307000	24.161493	0.000537	20.860190
494.132804	-3.002100	3.771100	-11.321000	24.173459	0.000535	20.830941
495.135358	-2.995900	3.770500	-11.295000	24.188286	0.000537	20.842493
496.134239	-2.987100	3.772000	-11.266000	24.163108	0.000536	20.833835
497.132595	-2.968700	3.772300	-11.198000	24.166944	0.000536	20.852856
498.137816	-3.004300	3.770600	-11.327000	24.169234	0.000538	20.830023
499.134345	-2.983500	3.770800	-11.249000	24.201306	0.000537	20.838010
500.135834	-3.007800	3.769500	-11.337000	24.164881	0.000537	20.850313
501.139836	-2.995800	3.770000	-11.293000	24.196511	0.000534	20.843157
502.137628	-3.017100	3.768600	-11.369000	24.188327	0.000536	20.838742
503.138830	-2.995400	3.768200	-11.286000	24.210496	0.000536	20.831580
504.138510	-3.021300	3.767600	-11.382000	24.197604	0.000537	20.846624
505.137766	-2.994000	3.768000	-11.281000	24.182102	0.000534	20.844826
506.138771	-2.984900	3.767900	-11.245000	24.226151	0.000536	20.849653
507.138574	-3.007300	3.766400	-11.326000	24.246078	0.000537	20.836451
508.139547	-3.004500	3.768000	-11.320000	24.213756	0.000537	20.855712
509.139793	-2.987300	3.767800	-11.255000	24.191863	0.000536	20.839918
510.136554	-3.003700	3.767300	-11.314000	24.177834	0.000535	20.840545
511.137787	-2.990800	3.767300	-11.267000	24.189585	0.000538	20.834788
512.139060	-3.005000	3.766400	-11.317000	24.175206	0.000539	20.842177
513.142272	-2.994400	3.766100	-11.277000	24.168716	0.000539	20.822866
514.142134	-3.005600	3.765500	-11.317000	24.182874	0.000538	20.827583
515.139275	-3.016200	3.764800	-11.355000	24.216456	0.000538	20.829972
516.139868	-2.996400	3.765400	-11.281000	24.219243	0.000537	20.839406
517.140593	-3.013700	3.763800	-11.343000	24.220612	0.000539	20.838408
518.140394	-3.018500	3.764100	-11.361000	24.250926	0.000537	20.838469
519.146565	-2.998300	3.764000	-11.285000	24.235505	0.000539	20.839121
520.137568	-3.013800	3.764400	-11.344000	24.244929	0.000539	20.823918
521.139103	-3.004100	3.764800	-11.309000	24.237040	0.000540	20.808420
522.140994	-2.999400	3.764000	-11.288000	24.252019	0.000538	20.824867
523.141643	-3.006800	3.763200	-11.314000	24.254112	0.000538	20.835501
524.140512	-2.975100	3.763900	-11.197000	24.260828	0.000540	20.826591
525.144413	-2.990500	3.762300	-11.249000	24.251645	0.000539	20.827336
526.141802	-2.963200	3.763400	-11.151000	24.246874	0.000540	20.842465
527.143973	-3.000900	3.761800	-11.288000	24.257790	0.000539	20.845827
528.143982	-3.008200	3.762000	-11.316000	24.245899	0.000540	20.805926
529.142778	-2.978400	3.761700	-11.204000	24.244947	0.000538	20.821567
530.147663	-2.991500	3.761400	-11.251000	24.274156	0.000539	20.819571
531.143775	-3.002600	3.761000	-11.292000	24.312463	0.000540	20.823384
532.143276	-2.995000	3.761100	-11.264000	24.316993	0.000540	20.815126
533.142004	-2.992700	3.760300	-11.252000	24.328834	0.000539	20.821789
534.141788	-2.995700	3.760600	-11.264000	24.343634	0.000537	20.820514
535.143432	-2.990900	3.760900	-11.247000	24.332217	0.000536	20.823759
536.142938	-2.987000	3.760400	-11.231000	24.293427	0.000537	20.825625
537.143977	-2.992700	3.759000	-11.249000	24.281094	0.000535	20.824159
538.141463	-2.995900	3.759200	-11.262000	24.272530	0.000536	20.805613
539.144384	-3.015200	3.758600	-11.332000	24.272530	0.000536	20.826001
540.143473	-2.988200	3.759100	-11.232000	24.245292	0.000538	20.820015
541.143527	-3.009200	3.759000	-11.311000	24.226359	0.000536	20.819042
542.145217	-2.981300	3.759200	-11.207000	24.251185	0.000536	20.833513
543.145965	-2.996000	3.758500	-11.260000	24.276539	0.000536	20.809159
544.145115	-2.998600	3.756400	-11.263000	24.292586	0.000536	20.823359
545.148026	-2.987000	3.757800	-11.224000	24.308767	0.000536	20.808296
546.149899	-3.000500	3.757000	-11.272000	24.315925	0.000536	20.802675
547.146429	-2.981100	3.757400	-11.201000	24.330129	0.000534	20.820243
548.146581	-2.977800	3.756900	-11.187000	24.325685	0.000536	20.826689
549.149041	-2.994400	3.756900	-11.249000	24.351031	0.000536	20.818451
550.146473	-2.996300	3.756400	-11.255000	24.348102	0.000535	20.805556
551.146927	-2.983600	3.755500	-11.204000	24.342387	0.000536	20.802193
552.148040	-2.997600	3.754600	-11.253000	24.349255	0.000537	20.802445
553.151151	-3.005600	3.754500	-11.284000	24.377093	0.000537	20.791965
554.145806	-3.010100	3.756300	-11.306000	24.344381	0.000535	20.813677
555.150507	-2.993000	3.755700	-11.240000	24.315125	0.000535	20.816571
556.148824	-2.998000	3.754600	-11.255000	24.360384	0.000535	20.811238
557.151133	-2.996000	3.754300	-11.247000	24.344767	0.000538	20.835875
558.150515	-2.971300	3.755800	-11.159000	24.369837	0.000536	20.818824
559.149356	-3.003800	3.754500	-11.277000	24.347303	0.000536	20.800012
560.155791	-2.987300	3.753700	-11.212000	24.366258	0.000536	20.799587
561.151598	-3.018600	3.753900	-11.331000	24.348953	0.000537	20.789814
562.153946	-3.022400	3.750900	-11.336000	24.338727	0.000537	20.827919
563.154143	-2.994300	3.752900	-11.237000	24.321883	0.000537	20.802013
564.152394	-3.015200	3.752600	-11.314000	24.314995	0.000537	20.799371
565.152622	-3.002200	3.752900	-11.265000	24.335350	0.000536	20.811729
566.151116	-3.013400	3.751900	-11.305000	24.375409	0.000537	20.807819
567.153254	-3.000200	3.751600	-11.254000	24.391872	0.000537	20.790670
568.155745	-2.987500	3.752700	-11.209000	24.386053	0.000535	20.804272
569.153960	-3.000800	3.751500	-11.257000	24.414092	0.000536	20.780244
570.154200	-2.992600	3.752500	-11.228000	24.372100	0.000536	20.792172
571.155392	-3.016100	3.750800	-11.312000	24.394885	0.000537	20.788003
572.155382	-3.001900	3.751300	-11.260000	24.407475	0.000535	20.803952
573.156277	-2.989300	3.750700	-11.210000	24.412201	0.000536	20.810116
574.156200	-3.017200	3.750000	-11.314000	24.389840	0.000538	20.797166
575.157148	-3.009000	3.749400	-11.281000	24.405265	0.000537	20.804579
576.160774	-2.999300	3.750000	-11.246000	24.407879	0.000538	20.804832
577.159054	-3.002000	3.748700	-11.253000	24.392558	0.000535	20.790410
578.161764	-3.025900	3.748800	-11.343000	24.411882	0.000537	20.808373
579.160110	-3.018300	3.747800	-11.310000	24.385266	0.000535	20.788784
580.158110	-2.986800	3.748800	-11.195000	24.384745	0.000537	20.799641
581.156686	-3.000600	3.747900	-11.245000	24.372928	0.000535	20.781623
582.158293	-3.007100	3.746500	-11.265000	24.374475	0.000535	20.790761
583.160001	-3.011000	3.748500	-11.285000	24.382682	0.000537	20.801839
584.162767	-2.970300	3.748300	-11.133000	24.356336	0.000537	20.785367
585.158156	-3.001900	3.746500	-11.246000	24.352935	0.000536	20.804714
586.158681	-2.999000	3.747100	-11.237000	24.385395	0.000538	20.799345
587.163845	-2.992600	3.747100	-11.212000	24.420646	0.000537	20.797725
588.159570	-2.989100	3.747200	-11.200000	24.425096	0.000535	20.770421
589.164152	-3.014800	3.746500	-11.294000	24.429577	0.000535	20.795305
590.162306	-3.006800	3.746900	-11.265000	24.417816	0.000535	20.771178
591.160964	-3.005700	3.746400	-11.259000	24.463182	0.000535	20.796303
592.161174	-3.013700	3.744800	-11.284000	24.480822	0.000534	20.797879
593.161393	-3.026000	3.743600	-11.327000	24.469627	0.000536	20.805139
594.161303	-3.013500	3.744100	-11.282000	24.493484	0.000535	20.784978
595.166410	-3.009500	3.744300	-11.268000	24.523060	0.000535	20.787152
596.162169	-3.018000	3.743600	-11.297000	24.479434	0.000534	20.795539
597.166819	-3.004000	3.745400	-11.251000	24.475137	0.000535	20.783167
598.164023	-3.012500	3.743600	-11.276000	24.458443	0.000533	20.768788
599.160560	-3.000400	3.744000	-11.232000	24.510883	0.000536	20.790107
600.165314	-2.999400	3.743400	-11.227000	24.514197	0.000534	20.780155
601.163038	-2.990400	3.743800	-11.195000	24.521157	0.000534	20.778604
602.162600	-3.034400	3.742100	-11.353000	24.544019	0.000534	20.768350
603.164126	-3.013000	3.742600	-11.275000	24.552727	0.000533	20.775666
604.163926	-3.007100	3.742500	-11.253000	24.501295	0.000532	20.774323
605.165996	-2.993000	3.742000	-11.199000	24.523280	0.000533	20.790691
606.164595	-3.012200	3.742100	-11.272000	24.542484	0.000534	20.778190
607.163972	-2.999300	3.741400	-11.221000	24.544576	0.000534	20.776497
608.162970	-2.985000	3.741000	-11.166000	24.514509	0.000532	20.759605
609.164567	-2.980600	3.741000	-11.150000	24.506358	0.000533	20.777032
610.162789	-2.991600	3.742500	-11.196000	24.486804	0.000533	20.758361
611.167963	-3.002500	3.739900	-11.228000	24.523868	0.000532	20.768047
612.166153	-3.012200	3.739700	-11.263000	24.562576	0.000534	20.777013
613.167147	-2.989700	3.740700	-11.182000	24.578244	0.000533	20.759069
614.174759	-2.999100	3.739600	-11.214000	24.596103	0.000534	20.782678
615.166429	-3.004500	3.738600	-11.232000	24.546066	0.000533	20.776095
616.172188	-3.004100	3.740100	-11.235000	24.548055	0.000534	20.760072
617.168792	-2.998900	3.739700	-11.214000	24.556365	0.000533	20.777419
618.167010	-3.006800	3.738800	-11.241000	24.583227	0.000532	20.745102
619.168281	-3.020300	3.737400	-11.286000	24.584271	0.000532	20.748045
620.167567	-3.013800	3.737800	-11.264000	24.552289	0.000532	20.750096
621.165782	-2.986100	3.737800	-11.161000	24.521744	0.000531	20.766864
622.168397	-3.008800	3.737500	-11.244000	24.500354	0.000533	20.762948
623.170935	-2.998400	3.737500	-11.205000	24.490982	0.000532	20.761131
624.168559	-3.003700	3.736900	-11.224000	24.433593	0.000531	20.768040
625.172034	-2.996800	3.736700	-11.196000	24.496058	0.000531	20.749627
626.166891	-3.019600	3.735700	-11.278000	24.509634	0.000533	20.769887
627.167542	-3.006700	3.736600	-11.234000	24.512666	0.000532	20.768188
628.166886	-2.999100	3.735800	-11.203000	24.491050	0.000532	20.754560
629.167049	-3.009000	3.734900	-11.237000	24.484581	0.000533	20.758976
630.166595	-2.995200	3.735900	-11.189000	24.466671	0.000532	20.757603
631.166797	-2.994500	3.735800	-11.186000	24.464529	0.000532	20.758773
632.166848	-2.997000	3.735200	-11.194000	24.461816	0.000533	20.743248
633.172544	-2.997100	3.734900	-11.193000	24.482458	0.000530	20.762062
634.167806	-2.989000	3.734400	-11.160000	24.516933	0.000533	20.751605
635.168767	-3.006500	3.734400	-11.227000	24.533891	0.000530	20.754395
636.170290	-2.998600	3.734200	-11.196000	24.541955	0.000530	20.751580
637.169613	-3.002200	3.733500	-11.208000	24.562393	0.000531	20.750275
638.171801	-2.978700	3.734400	-11.123000	24.578085	0.000532	20.751322
639.172755	-3.009600	3.732800	-11.232000	24.566296	0.000530	20.759408
640.171001	-3.006100	3.732100	-11.218000	24.569948	0.000529	20.736993
641.176610	-3.005500	3.732900	-11.219000	24.576981	0.000530	20.761120
642.170268	-3.017000	3.731800	-11.258000	24.554151	0.000531	20.773775
643.177974	-2.996000	3.733100	-11.183000	24.587648	0.000530	20.755702
644.173649	-3.018100	3.732000	-11.262000	24.611994	0.000531	20.733662
645.172660	-2.998100	3.732700	-11.190000	24.639653	0.000530	20.745769
646.173062	-3.014900	3.731800	-11.251000	24.654743	0.000530	20.763757
647.173620	-2.979300	3.732100	-11.118000	24.653798	0.000533	20.743841
648.173512	-3.014900	3.731900	-11.251000	24.646956	0.000530	20.743140
649.177231	-3.009200	3.730300	-11.225000	24.639218	0.000530	20.756712
650.172791	-3.006500	3.730000	-11.213000	24.636223	0.000530	20.749914
651.173656	-3.002500	3.730500	-11.200000	24.640083	0.000528	20.736717
652.177629	-2.991700	3.730200	-11.159000	24.651792	0.000530	20.745622
653.173319	-3.014700	3.730100	-11.244000	24.650449	0.000531	20.728152
654.178073	-3.003900	3.729500	-11.202000	24.665343	0.000529	20.752107
655.174846	-2.994100	3.730500	-11.168000	24.662729	0.000530	20.722456
656.175603	-2.994800	3.729900	-11.170000	24.691945	0.000529	20.762207
657.175876	-3.013400	3.729300	-11.236000	24.703635	0.000528	20.759238
658.174877	-3.001600	3.729100	-11.192000	24.682913	0.000529	20.753142
659.177250	-2.998500	3.729300	-11.182000	24.673069	0.000528	20.742790
660.175191	-2.979700	3.729500	-11.112000	24.676936	0.000528	20.747145
661.176346	-3.003100	3.728100	-11.195000	24.678127	0.000528	20.759246
662.174991	-2.991800	3.728400	-11.153000	24.690707	0.000528	20.749110
663.176477	-2.981800	3.729200	-11.118000	24.685799	0.000527	20.741813
664.177369	-2.979900	3.727200	-11.106000	24.655410	0.000529	20.748778
665.178442	-2.983700	3.727100	-11.120000	24.711958	0.000529	20.751469
666.177845	-2.994500	3.727100	-11.160000	24.718917	0.000526	20.754185
667.178478	-2.996600	3.725600	-11.163000	24.740622	0.000527	20.748465
668.179790	-3.000800	3.727200	-11.183000	24.746857	0.000527	20.738600
669.181680	-2.999000	3.726100	-11.174000	24.731885	0.000528	20.743490
670.184128	-3.017900	3.726400	-11.244000	24.698908	0.000527	20.736950
671.179513	-3.000300	3.725800	-11.178000	24.653964	0.000528	20.748749
672.180358	-2.992700	3.724500	-11.146000	24.663458	0.000527	20.738361
673.179851	-3.002800	3.724800	-11.184000	24.666361	0.000527	20.746016
674.181670	-3.008100	3.724100	-11.201000	24.705776	0.000528	20.739101
675.182652	-3.010700	3.723900	-11.211000	24.714803	0.000530	20.755272
676.183930	-2.984900	3.724100	-11.115000	24.699027	0.000526	20.729008
677.181226	-2.979400	3.725900	-11.100000	24.726967	0.000529	20.744245
678.183335	-3.017500	3.723000	-11.233000	24.674390	0.000528	20.734632
679.181221	-3.010200	3.723800	-11.208000	24.713780	0.000527	20.771790
680.179491	-2.981700	3.723800	-11.102000	24.695800	0.000526	20.765127
681.184958	-2.992900	3.723300	-11.143000	24.691690	0.000526	20.724490
682.184465	-2.998500	3.722900	-11.162000	24.696035	0.000529	20.743076
683.181470	-2.980500	3.723600	-11.098000	24.697668	0.000526	20.747560
684.182518	-2.999400	3.723300	-11.167000	24.698012	0.000524	20.766872
685.180326	-2.987000	3.723700	-11.121000	24.729290	0.000525	20.756059
686.183952	-3.003900	3.723000	-11.183000	24.739807	0.000525	20.769933
687.180263	-3.024800	3.720800	-11.254000	24.692852	0.000525	20.741305
688.180546	-3.014500	3.721300	-11.216000	24.672124	0.000524	20.767921
689.185957	-3.011500	3.721100	-11.205000	24.631112	0.000525	20.759011
690.185242	-3.013800	3.721600	-11.216000	24.653886	0.000524	20.761949
691.188539	-3.016600	3.719100	-11.218000	24.685545	0.000524	20.767639
692.182563	-2.994000	3.721900	-11.143000	24.743603	0.000527	20.768526
693.182451	-2.998900	3.719800	-11.155000	24.718806	0.000525	20.765928
694.182271	-2.995400	3.721000	-11.145000	24.705620	0.000527	20.737047
695.182679	-2.983100	3.720500	-11.097000	24.670451	0.000524	20.770510
696.184803	-3.017200	3.719100	-11.220000	24.656920	0.000524	20.752190
697.185151	-2.999600	3.719700	-11.157000	24.700263	0.000524	20.757277
698.181009	-2.993100	3.719100	-11.131000	24.737757	0.000524	20.781627
699.185550	-2.986200	3.718700	-11.103000	24.793455	0.000524	20.774934
700.183999	-2.985000	3.719600	-11.102000	24.797500	0.000525	20.765716
701.183690	-2.984900	3.719000	-11.099000	24.768581	0.000524	20.761350
702.184494	-3.026500	3.718300	-11.252000	24.802366	0.000524	20.776764
703.181211	-3.002400	3.718100	-11.162000	24.797538	0.000522	20.766702
704.183943	-2.999500	3.718500	-11.152000	24.817002	0.000524	20.764425
705.183227	-3.008300	3.717400	-11.183000	24.785071	0.000522	20.766045
706.191734	-2.995400	3.716900	-11.133000	24.826795	0.000524	20.765718
707.182894	-3.034000	3.716100	-11.274000	24.809879	0.000520	20.769131
708.187380	-3.020900	3.716100	-11.225000	24.816887	0.000521	20.777586
709.183405	-3.007000	3.718100	-11.179000	24.795970	0.000521	20.767500
710.184458	-3.020700	3.716300	-11.224000	24.810187	0.000522	20.760431
711.183157	-3.011700	3.715800	-11.190000	24.823023	0.000521	20.770468
712.191683	-2.986400	3.716200	-11.097000	24.777710	0.000522	20.764822
713.183490	-3.008300	3.715900	-11.177000	24.813882	0.000520	20.759398
714.183512	-2.994600	3.714400	-11.122000	24.821958	0.000520	20.763235
715.189615	-2.993900	3.715400	-11.122000	24.809950	0.000521	20.782004
716.187133	-2.990100	3.715200	-11.108000	24.832524	0.000520	20.768623
717.190031	-2.958200	3.716500	-10.993000	24.866135	0.000521	20.750673
718.186314	-2.998700	3.714700	-11.139000	24.843035	0.000519	20.768741
719.186555	-3.007500	3.714700	-11.172000	24.835525	0.000518	20.785860
720.186274	-3.002900	3.714300	-11.152000	24.842980	0.000520	20.750668
721.185380	-2.995200	3.714100	-11.124000	24.858964	0.000519	20.754856
722.188879	-2.987700	3.713900	-11.094000	24.821021	0.000520	20.760872
723.187387	-3.002200	3.712500	-11.145000	24.836710	0.000519	20.770928
724.189711	-2.972400	3.713900	-11.038000	24.825917	0.000518	20.750139
725.190129	-2.998000	3.711200	-11.126000	24.790532	0.000519	20.771051
726.188731	-3.010300	3.711900	-11.173000	24.808756	0.000520	20.783177
727.195796	-2.981800	3.713200	-11.070000	24.839012	0.000518	20.798369
728.190655	-2.983400	3.712800	-11.076000	24.850523	0.000521	20.778627
729.188975	-2.967600	3.711900	-11.014000	24.874096	0.000520	20.774310
730.190564	-2.984300	3.712600	-11.078000	24.839356	0.000517	20.772161
731.197726	-2.993700	3.711500	-11.110000	24.864543	0.000516	20.789853
732.192444	-3.014900	3.710900	-11.187000	24.879661	0.000516	20.778473
733.193623	-3.028000	3.711200	-11.237000	24.860930	0.000517	20.777692
734.189311	-2.990400	3.712000	-11.099000	24.828755	0.000514	20.776220
735.191672	-2.995800	3.710900	-11.115000	24.824202	0.000517	20.765961
736.191506	-3.022100	3.711000	-11.214000	24.812839	0.000517	20.783007
737.191213	-2.990000	3.710000	-11.092000	24.815570	0.000517	20.775790
738.193632	-3.020500	3.709300	-11.202000	24.867981	0.000516	20.772441
739.194550	-2.993700	3.710300	-11.106000	24.895259	0.000516	20.776585
740.190184	-2.985300	3.709800	-11.075000	24.923206	0.000516	20.766227
741.191908	-3.003200	3.709400	-11.139000	24.876529	0.000516	20.757785
742.195435	-2.967700	3.710000	-11.010000	24.845624	0.000515	20.744785
743.195416	-3.001100	3.708300	-11.128000	24.840618	0.000516	20.772479
744.196988	-2.983300	3.708200	-11.062000	24.868246	0.000514	20.776500
745.195974	-3.013300	3.707800	-11.171000	24.878536	0.000514	20.774499
746.197681	-3.001100	3.707600	-11.125000	24.846164	0.000514	20.782787
747.196705	-2.988500	3.709400	-11.085000	24.877886	0.000514	20.769105
748.194121	-3.001900	3.707900	-11.130000	24.834249	0.000514	20.790270
749.198651	-3.003800	3.708000	-11.136000	24.824672	0.000515	20.777813
750.197451	-3.005000	3.706700	-11.139000	24.835587	0.000513	20.781655
751.198277	-2.979200	3.707100	-11.043000	24.846183	0.000512	20.788496
752.197903	-2.984500	3.707300	-11.063000	24.832674	0.000511	20.781102
753.195683	-2.999400	3.706000	-11.115000	24.850198	0.000512	20.794896
754.196620	-2.995500	3.705400	-11.099000	24.857039	0.000513	20.795124
755.197971	-2.988900	3.706100	-11.076000	24.852757	0.000513	20.779446
756.195514	-2.997700	3.705300	-11.105000	24.847786	0.000511	20.784415
757.196706	-2.976400	3.707000	-11.033000	24.902337	0.000514	20.796017
758.198489	-3.004400	3.704200	-11.127000	24.885202	0.000511	20.786879
759.196491	-2.983300	3.705500	-11.053000	24.919541	0.000513	20.791947
760.199419	-2.986700	3.705300	-11.065000	24.949322	0.000511	20.798604
761.204746	-2.993100	3.704600	-11.088000	24.955660	0.000511	20.779361
762.196281	-2.993200	3.705300	-11.089000	24.905014	0.000510	20.798703
763.198820	-2.986200	3.705700	-11.065000	24.927537	0.000511	20.800920
764.196094	-2.992200	3.703100	-11.080000	24.942107	0.000511	20.797053
765.199921	-3.009600	3.702500	-11.142000	24.922083	0.000510	20.779800
766.202441	-3.009100	3.701700	-11.138000	24.948361	0.000509	20.804752
767.202487	-3.004900	3.703400	-11.127000	24.933145	0.000511	20.797067
768.202338	-3.018900	3.702300	-11.176000	24.969343	0.000510	20.774603
769.201919	-3.009800	3.701200	-11.139000	24.931747	0.000510	20.782862
770.204453	-2.994500	3.701800	-11.084000	24.905691	0.000509	20.801754
771.201998	-3.023200	3.701400	-11.189000	24.930404	0.000510	20.813755
772.203242	-3.013600	3.699700	-11.149000	24.911434	0.000508	20.781913
773.202171	-3.015100	3.701400	-11.158000	24.913766	0.000509	20.819341
774.205409	-2.999300	3.701700	-11.102000	24.904244	0.000508	20.808362
775.203621	-3.020100	3.701300	-11.177000	24.929282	0.000508	20.800775
776.206612	-3.013000	3.701100	-11.150000	24.960430	0.000506	20.822082
777.205038	-2.989500	3.700100	-11.061000	24.969982	0.000506	20.801323
778.204106	-3.010800	3.699600	-11.138000	24.948669	0.000506	20.796527
779.205633	-2.993400	3.699700	-11.074000	24.966694	0.000508	20.800394
780.204639	-2.994900	3.700700	-11.083000	24.965971	0.000508	20.805358
781.207294	-3.011800	3.698300	-11.138000	24.941884	0.000506	20.814372
782.204710	-3.001700	3.698300	-11.100000	24.939595	0.000506	20.810653
783.205167	-2.998300	3.698200	-11.086000	24.925295	0.000504	20.812895
784.205133	-3.020600	3.699900	-11.175000	24.894765	0.000506	20.815444
785.207431	-2.989100	3.699200	-11.056000	24.895262	0.000506	20.807882
786.208549	-3.024600	3.697900	-11.184000	24.946608	0.000506	20.821010
787.205481	-3.013100	3.697400	-11.140000	24.958816	0.000505	20.806712
788.204947	-2.999800	3.698100	-11.092000	24.977313	0.000503	20.800148
789.209269	-3.013100	3.698000	-11.141000	24.978116	0.000504	20.796686
790.206465	-3.029200	3.696000	-11.194000	25.016453	0.000503	20.819993
791.214767	-3.002500	3.696600	-11.099000	25.029949	0.000504	20.816472
792.204935	-2.989500	3.696900	-11.051000	25.016857	0.000503	20.825614
793.205646	-2.991900	3.697300	-11.061000	24.989557	0.000506	20.816230
794.207466	-2.997900	3.696800	-11.082000	24.953483	0.000504	20.795669
795.205127	-3.000800	3.696200	-11.091000	24.942097	0.000502	20.821224
796.206586	-2.992400	3.695800	-11.059000	24.957637	0.000501	20.806002
797.212352	-3.007400	3.695300	-11.112000	24.956968	0.000502	20.821451
798.210360	-2.984100	3.695700	-11.027000	24.981513	0.000502	20.822380
799.208157	-3.006400	3.695200	-11.108000	24.971421	0.000501	20.802768
800.212557	-2.972000	3.696000	-10.984000	24.998524	0.000502	20.834239
801.208581	-2.984100	3.696200	-11.029000	24.998824	0.000502	20.807989
802.210135	-3.010800	3.694500	-11.122000	25.017070	0.000501	20.802121
803.209872	-2.987300	3.695000	-11.037000	25.063839	0.000502	20.816351
804.210965	-2.992800	3.693900	-11.054000	25.050042	0.000503	20.813881
805.210641	-3.011000	3.694400	-11.123000	25.047601	0.000502	20.817121
806.212274	-2.996400	3.694000	-11.068000	25.072199	0.000501	20.814312
807.216443	-2.980300	3.693900	-11.009000	25.047066	0.000501	20.806627
808.212528	-2.990200	3.693200	-11.042000	25.041993	0.000500	20.827612
809.212299	-3.003500	3.692400	-11.089000	25.017031	0.000499	20.826264
810.212010	-2.991200	3.693400	-11.046000	25.028177	0.000502	20.806158
811.212885	-2.995900	3.693100	-11.063000	24.988940	0.000501	20.823197
812.214907	-3.010000	3.692700	-11.114000	25.011093	0.000500	20.837372
813.225471	-2.991800	3.692000	-11.045000	25.004780	0.000499	20.815389
814.213353	-2.984500	3.692200	-11.018000	25.051814	0.000502	20.832255
815.214511	-3.008200	3.691700	-11.105000	25.052243	0.000498	20.827944
816.214870	-2.998100	3.690800	-11.064000	25.048833	0.000499	20.825469
817.213321	-2.994000	3.690700	-11.049000	25.013853	0.000500	20.815487
818.217274	-3.024900	3.691300	-11.164000	25.006994	0.000498	20.818560
819.212623	-3.018500	3.690100	-11.138000	24.990431	0.000498	20.819004
820.213418	-3.003000	3.690400	-11.081000	25.016294	0.000497	20.823627
821.211476	-3.002800	3.690600	-11.081000	25.034435	0.000499	20.829035
822.212674	-3.007300	3.690500	-11.098000	25.026356	0.000496	20.819503
823.213324	-3.016800	3.688100	-11.126000	25.059096	0.000498	20.850944
824.218289	-3.002000	3.690400	-11.078000	25.042514	0.000499	20.820550
825.211041	-3.004000	3.690300	-11.085000	25.056459	0.000495	20.823641
826.215673	-3.014500	3.688400	-11.118000	25.069488	0.000497	20.839090
827.217845	-2.999100	3.687800	-11.059000	25.082965	0.000497	20.825118
828.211442	-2.993900	3.688500	-11.042000	25.101509	0.000499	20.845630
829.219282	-2.986600	3.688200	-11.014000	25.048262	0.000494	20.836276
830.215017	-3.017100	3.686600	-11.121000	25.056562	0.000494	20.825168
831.212975	-3.018400	3.686900	-11.128000	25.014596	0.000497	20.811966
832.214769	-3.003100	3.687300	-11.072000	24.997369	0.000494	20.825968
833.218081	-2.998700	3.687900	-11.057000	25.020270	0.000495	20.839945
834.217901	-2.971900	3.688100	-10.960000	25.025761	0.000494	20.829810
835.215587	-2.996100	3.687200	-11.045000	25.040562	0.000494	20.847512
836.219039	-3.000500	3.687400	-11.063000	25.071088	0.000494	20.819834
837.220003	-2.991300	3.685600	-11.023000	25.051279	0.000496	20.827451
838.222648	-3.015900	3.685600	-11.114000	25.012840	0.000493	20.829169
839.220530	-2.992400	3.686700	-11.030000	25.020575	0.000493	20.827925
840.233546	-3.003000	3.686500	-11.070000	25.036022	0.000491	20.843429
841.218603	-3.008600	3.685400	-11.087000	25.048647	0.000493	20.844248
842.219045	-3.012000	3.684900	-11.098000	25.071650	0.000493	20.840787
843.220714	-2.988000	3.685800	-11.012000	25.119927	0.000492	20.842782
844.218615	-3.009900	3.684200	-11.088000	25.070239	0.000493	20.832732
845.225922	-2.988500	3.685200	-11.012000	25.074391	0.000490	20.845435
846.220469	-2.982800	3.685100	-10.991000	25.031811	0.000491	20.831142
847.220549	-2.979400	3.684200	-10.976000	25.078801	0.000492	20.822361
848.225975	-3.007800	3.684300	-11.080000	25.087426	0.000491	20.842398
849.221612	-2.995100	3.684400	-11.034000	25.081365	0.000488	20.856228
850.227037	-2.983900	3.682700	-10.987000	25.082058	0.000489	20.825631
851.223257	-3.002700	3.683400	-11.058000	25.054476	0.000490	20.849626
852.226655	-2.999600	3.683300	-11.048000	25.054078	0.000490	20.835950
853.223128	-3.008100	3.681700	-11.074000	25.048238	0.000489	20.849527
854.223375	-3.008600	3.682700	-11.079000	25.077179	0.000487	20.846337
855.223031	-3.014900	3.681800	-11.099000	25.107035	0.000488	20.849280
856.223652	-3.001400	3.681400	-11.048000	25.126013	0.000489	20.852210
857.223979	-3.011700	3.682500	-11.090000	25.128994	0.000488	20.860892
858.223765	-3.026100	3.679800	-11.135000	25.153402	0.000487	20.867851
859.227213	-3.011200	3.681200	-11.084000	25.196490	0.000488	20.841409
860.227853	-3.010700	3.681400	-11.083000	25.168857	0.000488	20.855392
861.225066	-2.998300	3.680900	-11.036000	25.152149	0.000488	20.856636
862.227984	-3.025400	3.679500	-11.131000	25.125576	0.000486	20.844660
863.229976	-2.998500	3.679600	-11.032000	25.166673	0.000485	20.843243
864.234992	-3.001300	3.680500	-11.046000	25.198238	0.000488	20.865922
865.226399	-2.981300	3.680900	-10.973000	25.206395	0.000488	20.863680
866.232850	-2.994100	3.680200	-11.018000	25.180124	0.000486	20.842522
867.232572	-3.013500	3.678500	-11.084000	25.144455	0.000484	20.854603
868.230552	-3.011600	3.679000	-11.078000	25.138738	0.000485	20.846967
869.232558	-2.988800	3.678900	-10.995000	25.168292	0.000484	20.851032
870.225735	-2.980500	3.679000	-10.964000	25.184577	0.000485	20.843673
871.230395	-3.003200	3.678700	-11.047000	25.141897	0.000486	20.860569
872.233255	-3.000900	3.678500	-11.038000	25.147166	0.000484	20.847842
873.229366	-3.015400	3.677900	-11.088000	25.158556	0.000483	20.853112
874.233196	-2.991900	3.679400	-11.007000	25.147423	0.000483	20.865642
875.232069	-2.971300	3.679000	-10.930000	25.138430	0.000482	20.849029
876.231176	-3.003700	3.675900	-11.041000	25.137412	0.000483	20.831886
877.232623	-3.010800	3.677000	-11.070000	25.198388	0.000483	20.854694
878.231514	-2.993700	3.677700	-11.009000	25.179802	0.000483	20.847889
879.235991	-2.995000	3.678100	-11.016000	25.178164	0.000480	20.841977
880.236048	-3.010900	3.675900	-11.067000	25.150396	0.000484	20.860093
881.234998	-3.007400	3.677900	-11.060000	25.195964	0.000481	20.869803
882.236099	-3.012500	3.676900	-11.076000	25.208293	0.000481	20.872223
883.232328	-2.999300	3.675100	-11.021000	25.153083	0.000481	20.857574
884.235850	-3.011400	3.674200	-11.064000	25.144887	0.000482	20.865467
885.233973	-3.007000	3.675200	-11.050000	25.108346	0.000479	20.875725
886.231912	-2.978500	3.675600	-10.946000	25.127736	0.000480	20.850621
887.236607	-2.995600	3.674400	-11.006000	25.168115	0.000479	20.855596
888.238420	-3.007800	3.673100	-11.047000	25.208481	0.000480	20.867671
889.235628	-3.001200	3.672800	-11.022000	25.120938	0.000479	20.867504
890.235353	-2.986900	3.674100	-10.973000	25.134335	0.000480	20.844918
891.240230	-2.988600	3.673400	-10.977000	25.150995	0.000477	20.862116
892.235078	-2.991200	3.672800	-10.985000	25.141150	0.000478	20.865034
893.238112	-3.012500	3.671700	-11.060000	25.142848	0.000477	20.859153
894.234333	-3.000500	3.672500	-11.018000	25.148382	0.000477	20.860441
895.238567	-2.984500	3.670800	-10.953000	25.146528	0.000479	20.862374
896.235438	-2.986200	3.671300	-10.962000	25.139823	0.000478	20.870341
897.236586	-3.007700	3.671900	-11.042000	25.160679	0.000478	20.885112
898.238178	-2.994000	3.671000	-10.990000	25.192825	0.000477	20.884194
899.235483	-2.988500	3.670100	-10.966000	25.208951	0.000476	20.876677
900.236068	-2.971100	3.672100	-10.910000	25.243906	0.000475	20.889484
901.237318	-2.998900	3.671000	-11.008000	25.236478	0.000475	20.886768
902.240469	-3.005800	3.669900	-11.030000	25.197879	0.000477	20.898750
903.235458	-3.017500	3.669300	-11.071000	25.181717	0.000475	20.883474
904.237924	-3.026300	3.669600	-11.104000	25.155126	0.000477	20.874323
905.236957	-3.000800	3.669200	-11.010000	25.161763	0.000477	20.874822
906.235387	-3.008100	3.669000	-11.036000	25.145035	0.000476	20.887426
907.237602	-3.004400	3.668900	-11.022000	25.196394	0.000477	20.887777
908.240116	-2.978900	3.669800	-10.931000	25.184267	0.000476	20.884611
909.239175	-3.004000	3.668400	-11.019000	25.163559	0.000474	20.887530
910.237237	-3.018800	3.668000	-11.072000	25.151536	0.000474	20.870245
911.236172	-3.002200	3.669600	-11.016000	25.143684	0.000474	20.887492
912.234678	-3.008100	3.668700	-11.035000	25.118051	0.000476	20.878355
913.235841	-3.012100	3.668200	-11.048000	25.171128	0.000474	20.888015
914.237120	-3.018300	3.666400	-11.064000	25.211052	0.000473	20.870251
915.239532	-3.003500	3.665700	-11.009000	25.192731	0.000475	20.899745
916.236406	-2.979300	3.666900	-10.924000	25.204593	0.000475	20.898852
917.238597	-3.001100	3.667000	-11.004000	25.238179	0.000471	20.886105
918.241212	-2.984900	3.666800	-10.944000	25.271036	0.000472	20.900600
919.240420	-3.040800	3.664400	-11.141000	25.273747	0.000473	20.895736
920.245306	-2.972300	3.667800	-10.901000	25.295446	0.000473	20.896185
921.242341	-3.002700	3.665600	-11.006000	25.299450	0.000471	20.900680
922.243544	-3.021200	3.664400	-11.070000	25.294157	0.000471	20.875453
923.242418	-3.019000	3.665000	-11.064000	25.264626	0.000471	20.886580
924.241522	-3.008900	3.665200	-11.027000	25.274948	0.000472	20.878925
925.243742	-3.005800	3.666100	-11.019000	25.273231	0.000472	20.882891
926.246605	-2.977100	3.664900	-10.910000	25.279247	0.000472	20.883716
927.243313	-2.982800	3.665200	-10.931000	25.269079	0.000471	20.872085
928.242495	-2.988300	3.664400	-10.950000	25.293090	0.000470	20.868218
929.242600	-2.970700	3.665800	-10.889000	25.235247	0.000473	20.863723
930.244308	-2.992400	3.663500	-10.962000	25.240467	0.000470	20.877497
931.244971	-3.016000	3.663300	-11.048000	25.225796	0.000472	20.896906
932.244127	-2.996200	3.662900	-10.973000	25.236364	0.000470	20.859629
933.241612	-3.001900	3.663100	-10.996000	25.259751	0.000471	20.863668
934.247066	-3.012100	3.661700	-11.029000	25.274164	0.000469	20.864863
935.247802	-3.005000	3.661500	-11.002000	25.248815	0.000468	20.874499
936.252530	-2.984300	3.662600	-10.930000	25.257138	0.000467	20.857252
937.245754	-2.979200	3.663400	-10.913000	25.282113	0.000468	20.857197
938.244684	-3.000500	3.662100	-10.987000	25.269810	0.000467	20.873767
939.249187	-3.015600	3.661200	-11.040000	25.249453	0.000465	20.855227
940.247839	-2.998200	3.661700	-10.977000	25.260316	0.000468	20.858546
941.247740	-2.998000	3.661800	-10.976000	25.241370	0.000468	20.875559
942.250874	-3.008600	3.659800	-11.010000	25.210377	0.000466	20.854402
943.249138	-3.007100	3.659200	-11.002000	25.194363	0.000464	20.883367
944.248450	-3.021800	3.660600	-11.060000	25.197625	0.000466	20.848712
945.253997	-3.022600	3.659900	-11.061000	25.181783	0.000466	20.856041
946.249451	-2.979600	3.659400	-10.903000	25.148593	0.000464	20.841688
947.252425	-3.008300	3.659200	-11.007000	25.183776	0.000465	20.870369
948.248874	-2.993200	3.658700	-10.951000	25.186831	0.000463	20.861108
949.248925	-3.014100	3.657500	-11.023000	25.182659	0.000464	20.845067
950.252891	-3.011900	3.657500	-11.016000	25.167319	0.000464	20.857167
951.250717	-2.961900	3.658900	-10.837000	25.197571	0.000462	20.851502
952.252937	-3.024100	3.656700	-11.057000	25.255538	0.000465	20.847112
953.250714	-3.020000	3.656700	-11.042000	25.214076	0.000463	20.865227
954.250874	-3.023500	3.657300	-11.057000	25.262095	0.000462	20.848479
955.252186	-2.994400	3.658000	-10.953000	25.268884	0.000462	20.848657
956.251720	-2.979600	3.658000	-10.898000	25.277385	0.000462	20.846287
957.252714	-2.964500	3.657200	-10.841000	25.256434	0.000461	20.849433
958.252942	-2.995700	3.657100	-10.954000	25.262972	0.000462	20.827075
959.252087	-2.994400	3.655100	-10.944000	25.272018	0.000460	20.872191
960.253438	-2.981900	3.657100	-10.905000	25.323567	0.000459	20.829593
961.255002	-3.020500	3.654200	-11.037000	25.269007	0.000460	20.850203
962.256745	-2.997500	3.654600	-10.954000	25.260501	0.000460	20.850672
963.257319	-2.988400	3.656000	-10.925000	25.248719	0.000460	20.845481
964.254480	-3.026500	3.654200	-11.059000	25.270836	0.000460	20.844453
965.254493	-3.008100	3.652800	-10.987000	25.295816	0.000458	20.841085
966.254069	-3.023700	3.652800	-11.044000	25.296957	0.000459	20.829903
967.254649	-3.006700	3.653900	-10.984000	25.288905	0.000459	20.836042
968.256388	-2.990800	3.653900	-10.927000	25.275179	0.000457	20.831744
969.256269	-3.004700	3.653500	-10.977000	25.241372	0.000458	20.825778
970.254187	-2.998900	3.652500	-10.953000	25.256761	0.000458	20.830322
971.253977	-2.992100	3.653100	-10.929000	25.287979	0.000457	20.829897
972.257699	-2.993800	3.651500	-10.931000	25.328040	0.000457	20.841671
973.255213	-3.006400	3.652600	-10.981000	25.340092	0.000455	20.844288
974.257131	-3.002100	3.652100	-10.963000	25.355351	0.000454	20.838272
975.255290	-3.015700	3.651000	-11.009000	25.316382	0.000454	20.825698
976.255561	-3.022900	3.650600	-11.034000	25.325030	0.000455	20.849079
977.255764	-3.009600	3.651800	-10.989000	25.345458	0.000453	20.853469
978.255371	-2.997900	3.651100	-10.944000	25.360324	0.000455	20.820507
979.257205	-2.972300	3.650400	-10.849000	25.390049	0.000454	20.842293
980.257098	-2.999600	3.649600	-10.947000	25.361520	0.000454	20.826449
981.257606	-2.997300	3.649800	-10.939000	25.353167	0.000453	20.831339
982.255948	-3.008700	3.649700	-10.980000	25.377968	0.000451	20.826370
983.257147	-3.001400	3.649800	-10.953000	25.365819	0.000449	20.825550
984.257937	-3.005500	3.650200	-10.970000	25.348322	0.000452	20.845439
985.262158	-2.973800	3.649100	-10.851000	25.351928	0.000451	20.826775
986.259018	-2.994300	3.648400	-10.923000	25.358042	0.000454	20.815845
987.259820	-2.967500	3.647800	-10.824000	25.358784	0.000451	20.828444
988.264759	-2.994700	3.648900	-10.927000	25.368554	0.000450	20.810279
989.260149	-3.005500	3.647400	-10.961000	25.368063	0.000450	20.842027
990.263954	-2.987300	3.647900	-10.896000	25.379150	0.000452	20.823289
991.260057	-3.005400	3.647700	-10.962000	25.393114	0.000451	20.814078
992.260087	-3.008300	3.646800	-10.970000	25.402171	0.000452	20.834551
993.262089	-3.024200	3.646900	-11.028000	25.387331	0.000452	20.821072
994.261657	-3.007300	3.646900	-10.966000	25.424487	0.000451	20.819028
995.265537	-2.982000	3.645400	-10.870000	25.428884	0.000449	20.817753
996.262269	-2.994800	3.645800	-10.917000	25.442810	0.000448	20.822254
997.262248	-2.984400	3.646200	-10.881000	25.405752	0.000449	20.818233
998.262476	-3.007700	3.646600	-10.966000	25.419795	0.000447	20.809101
999.260481	-3.012400	3.645100	-10.980000	25.411173	0.000448	20.822254
1000.265260	-2.994200	3.644400	-10.910000	25.381596	0.000447	20.815788
1001.263650	-3.018500	3.642800	-10.995000	25.354955	0.000446	20.828393
1002.262680	-3.020900	3.643200	-11.005000	25.331595	0.000448	20.835283
1003.262526	-3.002700	3.643000	-10.938000	25.363529	0.000448	20.833682
1004.265699	-2.981500	3.643300	-10.861000	25.375089	0.000448	20.809254
1005.266016	-3.022700	3.643000	-11.011000	25.389163	0.000446	20.827179
1006.266111	-3.000800	3.643200	-10.932000	25.384852	0.000448	20.806256
1007.262761	-2.991900	3.642000	-10.895000	25.371459	0.000446	20.828842
1008.264607	-3.005100	3.643400	-10.948000	25.353219	0.000445	20.818115
1009.265477	-2.992800	3.643100	-10.902000	25.360358	0.000446	20.830972
1010.264919	-2.999600	3.642100	-10.924000	25.369256	0.000444	20.821415
1011.267224	-3.009300	3.642200	-10.960000	25.378878	0.000446	20.802628
1012.269433	-3.021400	3.641400	-11.000000	25.394155	0.000445	20.813226
1013.267078	-3.004300	3.640600	-10.937000	25.416403	0.000445	20.811384
1014.267603	-2.973600	3.641900	-10.828000	25.439620	0.000445	20.803403
1015.271290	-3.032800	3.639900	-11.038000	25.377609	0.000442	20.801827
1016.266657	-3.001200	3.640000	-10.924000	25.350790	0.000443	20.802874
1017.274358	-3.009900	3.640300	-10.956000	25.332079	0.000443	20.784560
1018.266959	-2.992000	3.641200	-10.893000	25.328645	0.000441	20.797708
1019.267570	-3.010900	3.639500	-10.957000	25.316249	0.000442	20.799961
1020.270845	-2.962700	3.640100	-10.783000	25.334145	0.000442	20.814610
1021.268574	-3.011600	3.638400	-10.956000	25.317936	0.000441	20.794542
1022.270516	-2.999900	3.638700	-10.914000	25.342394	0.000442	20.803453
1023.268915	-3.003700	3.638300	-10.926000	25.344111	0.000440	20.790478
1024.269773	-3.019900	3.636700	-10.981000	25.370261	0.000440	20.814838
1025.273982	-3.015500	3.636500	-10.964000	25.370285	0.000442	20.813914
1026.272138	-2.983400	3.638100	-10.853000	25.365489	0.000439	20.793926
1027.277322	-3.027900	3.636700	-11.011000	25.346232	0.000438	20.793082
1028.271687	-2.998900	3.637900	-10.909000	25.350433	0.000440	20.799671
1029.272353	-3.008100	3.636100	-10.937000	25.334800	0.000439	20.789664
1030.271040	-3.013800	3.636000	-10.957000	25.353690	0.000437	20.798199
1031.272522	-2.992900	3.635600	-10.880000	25.345637	0.000437	20.778260
1032.271740	-3.009500	3.636100	-10.941000	25.381531	0.000437	20.796283
1033.277034	-2.992700	3.635700	-10.880000	25.397095	0.000437	20.774927
1034.272650	-3.013900	3.635600	-10.956000	25.397145	0.000436	20.804848
1035.274468	-2.985500	3.636300	-10.855000	25.375270	0.000435	20.807065
1036.277102	-3.010800	3.634600	-10.942000	25.386977	0.000437	20.789897
1037.280116	-3.001700	3.635100	-10.910000	25.409299	0.000435	20.804251
1038.274946	-3.035400	3.634100	-11.030000	25.382812	0.000436	20.792353
1039.273715	-2.996300	3.632700	-10.884000	25.421601	0.000436	20.807120
1040.274748	-2.982200	3.634000	-10.836000	25.478219	0.000435	20.782421
1041.273497	-2.995900	3.632600	-10.883000	25.499166	0.000433	20.797292
1042.273061	-3.003700	3.633200	-10.912000	25.444375	0.000433	20.781152
1043.273526	-2.967600	3.633700	-10.782000	25.431828	0.000432	20.799373
1044.276302	-2.999300	3.632000	-10.892000	25.433736	0.000433	20.789434
1045.275404	-2.989100	3.632800	-10.858000	25.403521	0.000433	20.777586
1046.274602	-3.007400	3.630700	-10.919000	25.394672	0.000432	20.782451
1047.274566	-2.977100	3.631700	-10.811000	25.366468	0.000430	20.780683
1048.279348	-2.998900	3.631000	-10.888000	25.386939	0.000431	20.778954
1049.275167	-3.000800	3.631400	-10.896000	25.385086	0.000432	20.788473
1050.274318	-3.012600	3.630400	-10.935000	25.411770	0.000431	20.773066
1051.275587	-3.003800	3.632600	-10.910000	25.445099	0.000430	20.776188
1052.274825	-2.982900	3.630200	-10.828000	25.396856	0.000430	20.793653
1053.274993	-2.992100	3.630400	-10.862000	25.386074	0.000431	20.785672
1054.286356	-3.011100	3.629400	-10.927000	25.413959	0.000432	20.782377
1055.275256	-2.992800	3.629300	-10.861000	25.443431	0.000430	20.783049
1056.276341	-3.009700	3.629300	-10.922000	25.501232	0.000429	20.794626
1057.279778	-3.004800	3.628400	-10.901000	25.509486	0.000428	20.794379
1058.275171	-3.005700	3.629600	-10.908000	25.470916	0.000427	20.775561
1059.277516	-3.003500	3.628800	-10.898000	25.436293	0.000429	20.783942
1060.276129	-3.016000	3.626800	-10.937000	25.414848	0.000427	20.780425
1061.276414	-3.006200	3.628300	-10.907000	25.381794	0.000428	20.776632
1062.278525	-2.994600	3.627500	-10.862000	25.358281	0.000425	20.782895
1063.278089	-2.998100	3.627000	-10.873000	25.390613	0.000426	20.790703
1064.278382	-2.973000	3.627100	-10.783000	25.413647	0.000426	20.760727
1065.284431	-2.983500	3.625700	-10.816000	25.409569	0.000426	20.771805
1066.276869	-2.990800	3.625500	-10.842000	25.446578	0.000425	20.771035
1067.276799	-2.985900	3.625600	-10.823000	25.455156	0.000423	20.777279
1068.284243	-3.005300	3.625500	-10.895000	25.421650	0.000423	20.760228
1069.276461	-2.986800	3.625200	-10.827000	25.435766	0.000423	20.753066
1070.287390	-3.001300	3.625600	-10.880000	25.399058	0.000424	20.774053
1071.279140	-2.997600	3.625600	-10.867000	25.389595	0.000424	20.747480
1072.278471	-2.991900	3.624100	-10.842000	25.384720	0.000422	20.773880
1073.279376	-3.008800	3.624000	-10.902000	25.371050	0.000422	20.761577
1074.277306	-2.999800	3.624900	-10.873000	25.396457	0.000421	20.764803
1075.282448	-3.010000	3.623400	-10.906000	25.386161	0.000422	20.759680
1076.278926	-3.000100	3.623500	-10.870000	25.372374	0.000423	20.754371
1077.279822	-2.995600	3.623400	-10.853000	25.368572	0.000422	20.773787
1078.278436	-2.997400	3.623500	-10.860000	25.371951	0.000422	20.768645
1079.279547	-2.989200	3.621900	-10.825000	25.352418	0.000420	20.767524
1080.282811	-2.980500	3.622100	-10.795000	25.371313	0.000420	20.757573
1081.279471	-3.025900	3.621600	-10.957000	25.390564	0.000421	20.772636
1082.278282	-3.008100	3.621800	-10.894000	25.386197	0.000418	20.752129
1083.284072	-2.970400	3.622000	-10.757000	25.417736	0.000418	20.778110
1084.281724	-3.006600	3.620600	-10.885000	25.463317	0.000419	20.761292
1085.286073	-2.991300	3.619400	-10.826000	25.501612	0.000419	20.769876
1086.283363	-3.012800	3.620700	-10.908000	25.511650	0.000420	20.761939
1087.283006	-3.008600	3.620500	-10.891000	25.487275	0.000420	20.758798
1088.287575	-2.986000	3.618600	-10.804000	25.488845	0.000419	20.755158
1089.283935	-3.002500	3.620100	-10.868000	25.521246	0.000415	20.748816
1090.288085	-3.011700	3.618800	-10.898000	25.488170	0.000417	20.768232
1091.283406	-3.017700	3.618400	-10.917000	25.522442	0.000417	20.769457
1092.283200	-2.988100	3.618300	-10.810000	25.544963	0.000417	20.748451
1093.287708	-2.996700	3.617200	-10.839000	25.560200	0.000417	20.772289
1094.283845	-3.008400	3.617700	-10.882000	25.558188	0.000412	20.761260
1095.284186	-2.997400	3.618300	-10.843000	25.563456	0.000412	20.756118
1096.287525	-3.011300	3.617200	-10.891000	25.573671	0.000414	20.755945
1097.284002	-3.003300	3.616300	-10.860000	25.516542	0.000413	20.766377
1098.284050	-3.004700	3.616100	-10.864000	25.481902	0.000413	20.756247
1099.288300	-3.008700	3.616600	-10.881000	25.445146	0.000411	20.752527
1100.285351	-2.991600	3.616200	-10.816000	25.418826	0.000412	20.748857
1101.289667	-2.997500	3.614900	-10.833000	25.390524	0.000412	20.753155
1102.286487	-3.012900	3.615700	-10.892000	25.425393	0.000412	20.748814
1103.285743	-3.002600	3.615200	-10.854000	25.412024	0.000411	20.746769
1104.287051	-3.025800	3.614300	-10.935000	25.396663	0.000413	20.746043
1105.290420	-3.024500	3.612800	-10.925000	25.381724	0.000411	20.745741
1106.289510	-2.986300	3.614100	-10.792000	25.373364	0.000409	20.748252
1107.287240	-2.990400	3.615100	-10.810000	25.371862	0.000410	20.741054
1108.289606	-3.004200	3.614200	-10.857000	25.368710	0.000410	20.724612
1109.290608	-2.996600	3.613700	-10.827000	25.325167	0.000409	20.738738
1110.289570	-3.005400	3.612100	-10.855000	25.366269	0.000408	20.753457
1111.289811	-3.010500	3.612000	-10.872000	25.390180	0.000408	20.746172
1112.289949	-2.991900	3.611400	-10.804000	25.403132	0.000408	20.755858
1113.292916	-2.992100	3.611400	-10.804000	25.406315	0.000407	20.756683
1114.294963	-3.000700	3.610900	-10.834000	25.362399	0.000407	20.744829
1115.292462	-3.022700	3.611200	-10.914000	25.396447	0.000407	20.745826
1116.289858	-3.008100	3.610500	-10.860000	25.435793	0.000407	20.733177
1117.292215	-3.000000	3.610100	-10.830000	25.493073	0.000406	20.738067
1118.292335	-2.982600	3.610500	-10.768000	25.486911	0.000406	20.730930
1119.292868	-3.007600	3.609300	-10.853000	25.441115	0.000407	20.748480
1120.292978	-2.983900	3.610100	-10.771000	25.445960	0.000405	20.748129
1121.296407	-2.999000	3.607900	-10.820000	25.434726	0.000405	20.743960
1122.293478	-2.994300	3.608900	-10.806000	25.446929	0.000404	20.750050
1123.293551	-3.033400	3.606700	-10.939000	25.432867	0.000404	20.734507
1124.299430	-2.995500	3.608500	-10.808000	25.428869	0.000404	20.749459
1125.295813	-3.005500	3.607100	-10.840000	25.430181	0.000403	20.737026
1126.297615	-2.978100	3.608100	-10.745000	25.437387	0.000403	20.725294
1127.293813	-3.000700	3.607800	-10.825000	25.472181	0.000403	20.737949
1128.292880	-2.952600	3.608000	-10.652000	25.398814	0.000400	20.736823
1129.294913	-2.997300	3.607600	-10.813000	25.427741	0.000404	20.729833
1130.293839	-2.991000	3.607900	-10.790000	25.501106	0.000403	20.747556
1131.294665	-3.024100	3.605900	-10.904000	25.538952	0.000401	20.744785
1132.295102	-2.997300	3.605900	-10.807000	25.554459	0.000403	20.737124
1133.295255	-3.003300	3.605300	-10.826000	25.526032	0.000400	20.733232
1134.294055	-3.003800	3.605600	-10.830000	25.517956	0.000401	20.737451
1135.294450	-3.017300	3.605000	-10.876000	25.501259	0.000400	20.745339
1136.294672	-2.999600	3.604500	-10.811000	25.462388	0.000400	20.737124
1137.297960	-3.018200	3.604400	-10.877000	25.470814	0.000401	20.743215
1138.295155	-3.017300	3.604200	-10.873000	25.508341	0.000399	20.760987
1139.298074	-3.017800	3.604000	-10.875000	25.464026	0.000399	20.746356
1140.298042	-2.978400	3.603400	-10.731000	25.452620	0.000399	20.745807
1141.296506	-2.982000	3.603600	-10.744000	25.461070	0.000400	20.741016
1142.305596	-2.993900	3.603600	-10.788000	25.469004	0.000398	20.739975
1143.297462	-2.999500	3.603300	-10.808000	25.536351	0.000396	20.723680
1144.297573	-3.014800	3.601500	-10.857000	25.573123	0.000396	20.748757
1145.297852	-3.016300	3.603000	-10.867000	25.573595	0.000396	20.714616
1146.299438	-2.995800	3.601900	-10.789000	25.601254	0.000396	20.731489
1147.301148	-3.001400	3.601500	-10.809000	25.625577	0.000395	20.758764
1148.302760	-2.991700	3.602400	-10.777000	25.612989	0.000397	20.733792
1149.301762	-3.009800	3.599800	-10.833000	25.614558	0.000395	20.738687
1150.302692	-2.997600	3.600600	-10.792000	25.619604	0.000396	20.755135
1151.301235	-2.980300	3.600600	-10.730000	25.599524	0.000396	20.743029
1152.302288	-2.992500	3.600800	-10.774000	25.554948	0.000395	20.755634
1153.302680	-3.016800	3.598300	-10.855000	25.611180	0.000394	20.762796
1154.300822	-3.021700	3.598600	-10.873000	25.550600	0.000393	20.757432
1155.302977	-3.003300	3.598300	-10.806000	25.530697	0.000390	20.738866
1156.306968	-3.000100	3.599500	-10.798000	25.511811	0.000394	20.748823
1157.303514	-2.974500	3.598900	-10.703000	25.544291	0.000392	20.748725
1158.315551	-2.991900	3.598300	-10.765000	25.545112	0.000391	20.743385
1159.303082	-2.984500	3.598200	-10.738000	25.561269	0.000391	20.744912
1160.302823	-3.003200	3.597400	-10.803000	25.548865	0.000391	20.745732
1161.304354	-3.008500	3.596900	-10.820000	25.500607	0.000391	20.751797
1162.304493	-3.016100	3.596400	-10.846000	25.499093	0.000390	20.737473
1163.303624	-3.003600	3.597400	-10.804000	25.498841	0.000392	20.757136
1164.307247	-3.007100	3.596400	-10.814000	25.504041	0.000387	20.748607
1165.304333	-2.983500	3.596700	-10.729000	25.509308	0.000391	20.755794
1166.304530	-2.994700	3.596400	-10.769000	25.503569	0.000391	20.723476
1167.309798	-2.988500	3.595100	-10.742000	25.475392	0.000390	20.746390
1168.305317	-2.991600	3.595400	-10.753000	25.458939	0.000388	20.755947
1169.305798	-2.981200	3.595600	-10.718000	25.503771	0.000387	20.748810
1170.305898	-3.019100	3.595000	-10.852000	25.485834	0.000389	20.743126
1171.306310	-2.992100	3.593400	-10.751000	25.467813	0.000390	20.746839
1172.306846	-2.984000	3.594800	-10.726000	25.498877	0.000389	20.748163
1173.306225	-3.011700	3.592600	-10.819000	25.520774	0.000389	20.761144
1174.307149	-3.005200	3.591500	-10.792000	25.505144	0.000387	20.742128
1175.306916	-3.002100	3.594100	-10.789000	25.528580	0.000388	20.761871
1176.307735	-3.019900	3.593500	-10.851000	25.547834	0.000387	20.754654
1177.308879	-3.027400	3.591800	-10.873000	25.531934	0.000387	20.741056
1178.308549	-3.017300	3.592700	-10.839000	25.548587	0.000387	20.743082
1179.311831	-3.039200	3.590000	-10.910000	25.590276	0.000386	20.759346
1180.310047	-2.995400	3.592000	-10.758000	25.621853	0.000387	20.744592
1181.309811	-3.007200	3.590800	-10.797000	25.619272	0.000384	20.751957
1182.312147	-2.973100	3.590700	-10.675000	25.558319	0.000384	20.752381
1183.309356	-3.013400	3.589600	-10.817000	25.582692	0.000384	20.755048
1184.316609	-3.003500	3.590300	-10.782000	25.532327	0.000385	20.768953
1185.312010	-2.997600	3.589800	-10.759000	25.523424	0.000384	20.756693
1186.311476	-2.993900	3.590300	-10.748000	25.560417	0.000384	20.744531
1187.313007	-2.998100	3.588900	-10.758000	25.580222	0.000381	20.739290
1188.313158	-3.005800	3.588500	-10.785000	25.527962	0.000381	20.773104
1189.316900	-3.009500	3.588700	-10.800000	25.499859	0.000383	20.759581
1190.314124	-2.997900	3.588300	-10.757000	25.516428	0.000382	20.766263
1191.312506	-3.003700	3.587900	-10.776000	25.538043	0.000382	20.755727
1192.313626	-2.999500	3.587400	-10.759000	25.513786	0.000382	20.770722
1193.317831	-2.997300	3.587200	-10.751000	25.526283	0.000380	20.765728
1194.313737	-2.976500	3.587000	-10.676000	25.538534	0.000381	20.758591
1195.318398	-3.002700	3.587100	-10.770000	25.555845	0.000380	20.767915
1196.314179	-2.975800	3.586100	-10.670000	25.544489	0.000380	20.780219
1197.317846	-2.991300	3.587500	-10.730000	25.557414	0.000377	20.764275
1198.314178	-2.990900	3.586000	-10.724000	25.534893	0.000378	20.733596
1199.316134	-3.001500	3.585400	-10.761000	25.563093	0.000378	20.775669
1200.318251	-2.994400	3.586300	-10.738000	25.564730	0.000378	20.766407
1201.315301	-2.992800	3.585600	-10.730000	25.543356	0.000377	20.779081
1202.314985	-3.002500	3.584900	-10.763000	25.517535	0.000376	20.769271
1203.315506	-2.997800	3.584000	-10.743000	25.521833	0.000377	20.765053
1204.316569	-3.016700	3.584600	-10.812000	25.534778	0.000376	20.762405
1205.317302	-3.006400	3.583900	-10.773000	25.507393	0.000377	20.761457
1206.318738	-3.004300	3.584100	-10.767000	25.494768	0.000378	20.790504
1207.318397	-3.006900	3.583200	-10.773000	25.486017	0.000376	20.772234
1208.320323	-3.009900	3.582800	-10.783000	25.485589	0.000375	20.768010
1209.320395	-2.993400	3.581900	-10.721000	25.460588	0.000377	20.777044
1210.320705	-2.982800	3.582100	-10.684000	25.487980	0.000376	20.776575
1211.323892	-2.991300	3.581300	-10.711000	25.477758	0.000375	20.758724
1212.321941	-2.985000	3.579900	-10.685000	25.484595	0.000374	20.780289
1213.321368	-3.011200	3.579900	-10.779000	25.552555	0.000376	20.770775
1214.323148	-2.983000	3.581400	-10.681000	25.544602	0.000371	20.788867
1215.323176	-2.993000	3.580900	-10.716000	25.502182	0.000374	20.787519
1216.324511	-2.990900	3.580800	-10.709000	25.521841	0.000372	20.783553
1217.323963	-3.016900	3.580000	-10.800000	25.537692	0.000372	20.775764
1218.324495	-3.018900	3.580100	-10.807000	25.541966	0.000370	20.787168
1219.324126	-3.025500	3.579100	-10.827000	25.519076	0.000371	20.787415
1220.326966	-3.003400	3.580700	-10.752000	25.518972	0.000372	20.763602
1221.324936	-3.012100	3.578400	-10.778000	25.503047	0.000370	20.780801
1222.329172	-2.993400	3.578200	-10.710000	25.481358	0.000371	20.780831
1223.323771	-2.975300	3.578200	-10.645000	25.509284	0.000370	20.778529
1224.324759	-2.984900	3.578300	-10.680000	25.504035	0.000366	20.785586
1225.324804	-3.024000	3.576800	-10.816000	25.506120	0.000370	20.791948
1226.325722	-3.012500	3.576200	-10.772000	25.515490	0.000371	20.803253
1227.325154	-2.990800	3.577800	-10.700000	25.534223	0.000368	20.797884
1228.324713	-3.019100	3.575800	-10.795000	25.507979	0.000369	20.817047
1229.323842	-3.017800	3.577500	-10.794000	25.539288	0.000369	20.794436
1230.326134	-3.016600	3.575300	-10.785000	25.600837	0.000369	20.778013
1231.325102	-3.006900	3.576300	-10.753000	25.605631	0.000368	20.797053
1232.326719	-3.025300	3.574200	-10.813000	25.621604	0.000367	20.776111
1233.324979	-3.019500	3.575200	-10.794000	25.620089	0.000367	20.781228
1234.323840	-3.023500	3.575000	-10.808000	25.604682	0.000365	20.818859
1235.325357	-3.008500	3.574100	-10.752000	25.637705	0.000365	20.815989
1236.324830	-3.023000	3.572500	-10.799000	25.645430	0.000365	20.787238
1237.327680	-2.995800	3.574900	-10.709000	25.632953	0.000365	20.779923
1238.329633	-3.006600	3.572400	-10.740000	25.636302	0.000364	20.811735
1239.324330	-3.017000	3.573300	-10.779000	25.622941	0.000364	20.808748
1240.326081	-2.981400	3.574100	-10.655000	25.643904	0.000364	20.797086
1241.330153	-3.014200	3.571700	-10.765000	25.644278	0.000366	20.801254
1242.325185	-2.989300	3.572100	-10.677000	25.667981	0.000364	20.805620
1243.330024	-3.015000	3.571700	-10.767000	25.629539	0.000364	20.806840
1244.325787	-3.006000	3.572000	-10.736000	25.616271	0.000363	20.816748
1245.328716	-3.022100	3.571700	-10.793000	25.607074	0.000362	20.804192
1246.329933	-2.994200	3.570400	-10.690000	25.583714	0.000363	20.800172
1247.329337	-3.007800	3.570200	-10.738000	25.599845	0.000362	20.812105
1248.334524	-3.005900	3.569200	-10.728000	25.615641	0.000363	20.809476
1249.330678	-3.014200	3.570400	-10.761000	25.618571	0.000363	20.790135
1250.329717	-3.001600	3.568800	-10.711000	25.586566	0.000361	20.806829
1251.329243	-2.998800	3.570600	-10.707000	25.582292	0.000360	20.829089
1252.332008	-2.999800	3.568500	-10.704000	25.604684	0.000359	20.816964
1253.330958	-2.987800	3.569900	-10.665000	25.609896	0.000361	20.789482
1254.334474	-2.969600	3.570000	-10.600000	25.663997	0.000359	20.814421
1255.332763	-2.982600	3.568700	-10.643000	25.721082	0.000358	20.813911
1256.332988	-2.989400	3.567600	-10.664000	25.709275	0.000361	20.824810
1257.337429	-3.026700	3.566400	-10.794000	25.703861	0.000358	20.817476
1258.333606	-2.994200	3.568200	-10.682000	25.699612	0.000359	20.816528
1259.338237	-3.030100	3.565700	-10.804000	25.688779	0.000359	20.822717
1260.333817	-2.991400	3.567800	-10.672000	25.715480	0.000357	20.822508
1261.334852	-3.018900	3.565400	-10.762000	25.715155	0.000357	20.810802
1262.332460	-3.017100	3.565900	-10.758000	25.670240	0.000356	20.829700
1263.335308	-2.996000	3.566300	-10.684000	25.634257	0.000357	20.822483
1264.338006	-3.001800	3.566000	-10.704000	25.625483	0.000354	20.840224
1265.339271	-3.002400	3.564800	-10.703000	25.626556	0.000355	20.817120
1266.337257	-2.982700	3.564300	-10.631000	25.676892	0.000355	20.810778
1267.336962	-2.987000	3.564300	-10.645000	25.693189	0.000354	20.811973
1268.338141	-3.007700	3.564600	-10.721000	25.698136	0.000354	20.829743
1269.339478	-3.020400	3.564900	-10.767000	25.695249	0.000354	20.826844
1270.340182	-2.981700	3.563400	-10.624000	25.711447	0.000354	20.834104
1271.341020	-2.994900	3.563400	-10.671000	25.717884	0.000353	20.809750
1272.338578	-2.983300	3.562600	-10.627000	25.724443	0.000353	20.830563
1273.341911	-2.997400	3.563500	-10.680000	25.705629	0.000353	20.851493
1274.341955	-2.988900	3.563400	-10.650000	25.672234	0.000350	20.825539
1275.339170	-2.986800	3.561600	-10.637000	25.687862	0.000352	20.831752
1276.338849	-2.992400	3.562200	-10.659000	25.720238	0.000351	20.832029
1277.338546	-3.013100	3.561500	-10.730000	25.708412	0.000350	20.848125
1278.340882	-3.001900	3.561100	-10.689000	25.649598	0.000351	20.834098
1279.337833	-2.994600	3.560200	-10.660000	25.677678	0.000349	20.837645
1280.339127	-2.986600	3.561200	-10.635000	25.632387	0.000351	20.850002
1281.339705	-2.997900	3.559800	-10.671000	25.656115	0.000350	20.828315
1282.340216	-2.999600	3.559500	-10.676000	25.661652	0.000348	20.829609
1283.342554	-3.002000	3.560100	-10.686000	25.665355	0.000349	20.843759
1284.343263	-3.008800	3.558200	-10.706000	25.650499	0.000346	20.843063
1285.345240	-2.980400	3.560500	-10.611000	25.631443	0.000349	20.849054
1286.344483	-3.005300	3.559600	-10.697000	25.669560	0.000350	20.818586
1287.343678	-2.979900	3.559800	-10.607000	25.693440	0.000347	20.829768
1288.344911	-3.000100	3.557100	-10.671000	25.696824	0.000348	20.830796
1289.343133	-2.991000	3.557800	-10.640000	25.662209	0.000348	20.839651
1290.345973	-2.981900	3.557300	-10.606000	25.620694	0.000346	20.831147
1291.346097	-2.990300	3.556900	-10.636000	25.651902	0.000346	20.820291
1292.345802	-2.987100	3.557400	-10.625000	25.654967	0.000347	20.832852
1293.347020	-3.015900	3.556200	-10.724000	25.675763	0.000346	20.826713
1294.348677	-2.987000	3.556900	-10.624000	25.698748	0.000344	20.841263
1295.347515	-3.002800	3.555300	-10.675000	25.710378	0.000348	20.855314
1296.348751	-2.994500	3.554700	-10.644000	25.685928	0.000346	20.851620
1297.353171	-3.001400	3.554700	-10.669000	25.687718	0.000344	20.841564
1298.344452	-2.989700	3.554500	-10.626000	25.641778	0.000344	20.853744
1299.346618	-2.991200	3.553300	-10.628000	25.666976	0.000345	20.837327
1300.346774	-3.001000	3.554500	-10.666000	25.693713	0.000341	20.845215
1301.347229	-2.994100	3.554400	-10.641000	25.666455	0.000343	20.832063
1302.349250	-2.985300	3.553900	-10.608000	25.631919	0.000341	20.864230
1303.346876	-2.987300	3.553600	-10.615000	25.626308	0.000342	20.847216
1304.345989	-2.988600	3.554000	-10.620000	25.678612	0.000341	20.851859
1305.353185	-3.006400	3.550900	-10.675000	25.713748	0.000340	20.848743
1306.346724	-2.996100	3.551200	-10.639000	25.698145	0.000339	20.850614
1307.349733	-3.028000	3.550700	-10.750000	25.698071	0.000342	20.854334
1308.345973	-2.986700	3.552300	-10.608000	25.702326	0.000342	20.857184
1309.347730	-3.011500	3.549600	-10.689000	25.674522	0.000339	20.849173
1310.347124	-2.955800	3.552600	-10.500000	25.697850	0.000339	20.838465
1311.348107	-2.999500	3.550400	-10.648000	25.703117	0.000340	20.880737
1312.347024	-3.017300	3.549200	-10.707000	25.689157	0.000338	20.853440
1313.347559	-2.989800	3.549900	-10.613000	25.658024	0.000340	20.860577
1314.348597	-3.006300	3.550300	-10.672000	25.605282	0.000338	20.869720
1315.347937	-2.999100	3.549600	-10.645000	25.637729	0.000336	20.852996
1316.346893	-3.052500	3.547200	-10.826000	25.680959	0.000336	20.852319
1317.356423	-3.007600	3.547800	-10.670000	25.695348	0.000337	20.860607
1318.348114	-2.999500	3.548400	-10.643000	25.737215	0.000334	20.879898
1319.349021	-3.012000	3.547500	-10.684000	25.711399	0.000336	20.862978
1320.349210	-3.019900	3.548600	-10.715000	25.735155	0.000335	20.864080
1321.350730	-3.010600	3.547900	-10.680000	25.757096	0.000335	20.845342
1322.346774	-3.008900	3.546900	-10.672000	25.713918	0.000335	20.871671
1323.350647	-3.007600	3.546800	-10.666000	25.695562	0.000335	20.876467
1324.348672	-2.991000	3.546400	-10.606000	25.689572	0.000335	20.870926
1325.349626	-3.016800	3.546300	-10.698000	25.622191	0.000334	20.861572
1326.352553	-3.020500	3.545800	-10.709000	25.646323	0.000332	20.865420
1327.351043	-2.983900	3.545300	-10.578000	25.645428	0.000333	20.859306
1328.352147	-3.002200	3.544700	-10.641000	25.675593	0.000333	20.858308
1329.349729	-2.997200	3.545300	-10.625000	25.676867	0.000333	20.866226
1330.350460	-3.000500	3.546600	-10.640000	25.710213	0.000333	20.887863
1331.349622	-3.013500	3.542800	-10.676000	25.735636	0.000332	20.877838
1332.350618	-2.983800	3.543900	-10.573000	25.736856	0.000330	20.874797
1333.351492	-3.001700	3.543500	-10.636000	25.772609	0.000331	20.889845
1334.350261	-2.993500	3.543000	-10.605000	25.689827	0.000331	20.886828
1335.352651	-2.981000	3.544500	-10.565000	25.685308	0.000331	20.870911
1336.351712	-2.990400	3.543500	-10.595000	25.649656	0.000330	20.877302
1337.351370	-2.985800	3.543000	-10.578000	25.617559	0.000330	20.853601
1338.352225	-3.005700	3.540300	-10.640000	25.614328	0.000329	20.856046
1339.355507	-2.991000	3.541300	-10.591000	25.625112	0.000328	20.863558
1340.352208	-3.009400	3.540400	-10.653000	25.631998	0.000328	20.894178
1341.351365	-2.997600	3.540600	-10.612000	25.680279	0.000331	20.874394
1342.354270	-3.018000	3.539700	-10.682000	25.679139	0.000330	20.878464
1343.355665	-3.008500	3.540500	-10.651000	25.690125	0.000329	20.865318
1344.357252	-2.993000	3.539500	-10.593000	25.722403	0.000328	20.867867
1345.355625	-3.038500	3.537600	-10.748000	25.735719	0.000328	20.878396
1346.354673	-3.007900	3.538100	-10.641000	25.714752	0.000329	20.882940
1347.354506	-2.997400	3.538700	-10.606000	25.723899	0.000329	20.877429
1348.357521	-2.984300	3.537900	-10.557000	25.746233	0.000330	20.883266
1349.357282	-3.011200	3.537400	-10.650000	25.761270	0.000326	20.887465
1350.354234	-2.994600	3.538900	-10.596000	25.760627	0.000326	20.900094
1351.359231	-2.983700	3.537000	-10.553000	25.745221	0.000327	20.880353
1352.357305	-3.001900	3.537500	-10.618000	25.756004	0.000325	20.875538
1353.356775	-3.015000	3.535200	-10.657000	25.731482	0.000325	20.904484
1354.358718	-3.006800	3.537000	-10.635000	25.712685	0.000326	20.889398
1355.359734	-2.996300	3.536900	-10.597000	25.769435	0.000324	20.881916
1356.356965	-2.995200	3.535800	-10.590000	25.763415	0.000324	20.900998
1357.360966	-3.008200	3.535900	-10.636000	25.763991	0.000325	20.888776
1358.357576	-3.002300	3.535500	-10.614000	25.803618	0.000325	20.889225
1359.363169	-3.015900	3.535500	-10.662000	25.760466	0.000322	20.901829
1360.359028	-3.011400	3.534900	-10.644000	25.779378	0.000322	20.884791
1361.363160	-2.967600	3.533900	-10.486000	25.806033	0.000323	20.882168
1362.360287	-2.981800	3.534800	-10.540000	25.768325	0.000323	20.871793
1363.359140	-2.993000	3.533800	-10.576000	25.761269	0.000321	20.871343
1364.359581	-2.989300	3.533700	-10.562000	25.753550	0.000323	20.901994
1365.364322	-2.998400	3.533300	-10.594000	25.756603	0.000323	20.871398
1366.358465	-3.000900	3.532400	-10.600000	25.729726	0.000321	20.877592
1367.370178	-2.995700	3.531700	-10.579000	25.714197	0.000320	20.889969
1368.361105	-2.986400	3.532900	-10.549000	25.703738	0.000321	20.880886
1369.362381	-2.975500	3.532400	-10.509000	25.719936	0.000320	20.869655
1370.361899	-2.973400	3.532500	-10.503000	25.747449	0.000320	20.892074
1371.360653	-2.990000	3.530100	-10.554000	25.768661	0.000319	20.869286
1372.362321	-3.006200	3.530400	-10.612000	25.720548	0.000320	20.885916
1373.361029	-2.993200	3.531200	-10.569000	25.714110	0.000319	20.859538
1374.368721	-3.010300	3.529600	-10.624000	25.747578	0.000317	20.850006
1375.365042	-3.017700	3.530400	-10.653000	25.772675	0.000317	20.880429
1376.364262	-3.017000	3.529900	-10.649000	25.804657	0.000319	20.863244
1377.364734	-3.006000	3.529200	-10.609000	25.810670	0.000317	20.848896
1378.363855	-3.004400	3.529300	-10.602000	25.830869	0.000316	20.857332
1379.364466	-3.008800	3.528100	-10.614000	25.822550	0.000317	20.857985
1380.368021	-3.008200	3.526800	-10.608000	25.875593	0.000318	20.850577
1381.364828	-3.001500	3.528400	-10.590000	25.798979	0.000317	20.862282
1382.363323	-3.000200	3.527200	-10.581000	25.738631	0.000316	20.862356
1383.368915	-3.008800	3.526500	-10.610000	25.716800	0.000314	20.869825
1384.366852	-2.997500	3.526500	-10.570000	25.750567	0.000315	20.840207
1385.370911	-2.988800	3.525200	-10.535000	25.751934	0.000316	20.849166
1386.366880	-3.007100	3.526700	-10.604000	25.714298	0.000313	20.863993
1387.366897	-2.992800	3.526400	-10.553000	25.703165	0.000314	20.852811
1388.366760	-3.003800	3.524900	-10.587000	25.686451	0.000314	20.854516
1389.368503	-2.992800	3.526100	-10.552000	25.665784	0.000312	20.847509
1390.368707	-3.001200	3.525800	-10.581000	25.666212	0.000311	20.865008
1391.367594	-3.003800	3.524800	-10.587000	25.687953	0.000312	20.848912
1392.368836	-3.004300	3.524500	-10.587000	25.722218	0.000312	20.870999
1393.368803	-2.989700	3.523700	-10.533000	25.764279	0.000310	20.860618
1394.384550	-2.979100	3.524500	-10.499000	25.737507	0.000314	20.851270
1395.373999	-3.007700	3.522300	-10.593000	25.717337	0.000311	20.849028
1396.368895	-3.011300	3.522400	-10.605000	25.730756	0.000310	20.839274
1397.368955	-3.007000	3.523000	-10.593000	25.750539	0.000311	20.843498
1398.370790	-3.006400	3.522100	-10.587000	25.746788	0.000310	20.858695
1399.372118	-3.005800	3.522100	-10.585000	25.715564	0.000310	20.844877
1400.369649	-3.000600	3.522000	-10.567000	25.701831	0.000310	20.815437
1401.372958	-3.004800	3.522100	-10.582000	25.728542	0.000309	20.842740
1402.369147	-2.994500	3.520200	-10.540000	25.759851	0.000309	20.847161
1403.370411	-3.019400	3.520800	-10.630000	25.761622	0.000306	20.833768
1404.370780	-3.018600	3.521500	-10.629000	25.763706	0.000307	20.842025
1405.373229	-2.991700	3.521300	-10.533000	25.782569	0.000308	20.842006
1406.374332	-2.996200	3.520000	-10.545000	25.808984	0.000307	20.847677
1407.374380	-3.011300	3.519300	-10.596000	25.840621	0.000306	20.829197
1408.374753	-3.021300	3.518700	-10.630000	25.804232	0.000306	20.845749
1409.371797	-3.020900	3.518500	-10.628000	25.826933	0.000305	20.829672
1410.373475	-3.024400	3.516800	-10.636000	25.856853	0.000307	20.813261
1411.375614	-2.995200	3.516800	-10.533000	25.871166	0.000305	20.839492
1412.376982	-3.015100	3.517400	-10.603000	25.860837	0.000306	20.821056
1413.375071	-2.987700	3.516800	-10.506000	25.810662	0.000306	20.827078
1414.378128	-2.987600	3.518900	-10.512000	25.787140	0.000306	20.813882
1415.376721	-2.981300	3.516900	-10.484000	25.789249	0.000304	20.829276
1416.381649	-3.009300	3.515300	-10.578000	25.743417	0.000304	20.827810
1417.376826	-2.996300	3.516700	-10.536000	25.748493	0.000303	20.822951
1418.375893	-2.996000	3.514700	-10.529000	25.730659	0.000302	20.835858
1419.376990	-2.988500	3.515500	-10.505000	25.715804	0.000303	20.822360
1420.377872	-2.986600	3.515700	-10.499000	25.681581	0.000304	20.815961
1421.379743	-3.028800	3.514200	-10.643000	25.680411	0.000303	20.812889
1422.381407	-3.004900	3.515100	-10.562000	25.695149	0.000302	20.828166
1423.378463	-2.978200	3.514300	-10.466000	25.700550	0.000303	20.810831
1424.379800	-3.005800	3.512400	-10.556000	25.673764	0.000300	20.806687
1425.380162	-2.992200	3.512900	-10.510000	25.671882	0.000304	20.837038
1426.379528	-2.983600	3.513600	-10.482000	25.724435	0.000302	20.804002
1427.382696	-3.021900	3.512000	-10.612000	25.753482	0.000301	20.814212
1428.378725	-2.994000	3.514000	-10.520000	25.733882	0.000301	20.827715
1429.379672	-2.980000	3.511600	-10.464000	25.769586	0.000298	20.804784
1430.382553	-2.986600	3.512400	-10.489000	25.789117	0.000298	20.819187
1431.381638	-3.002600	3.510800	-10.541000	25.823011	0.000299	20.820042
1432.381700	-2.998000	3.510300	-10.523000	25.784256	0.000297	20.820467
1433.379082	-2.998400	3.509700	-10.523000	25.765822	0.000299	20.801003
1434.378591	-3.014000	3.509700	-10.578000	25.737204	0.000299	20.831052
1435.380966	-2.984900	3.510700	-10.477000	25.789258	0.000297	20.804155
1436.384265	-3.005600	3.509400	-10.546000	25.782054	0.000298	20.813041
1437.379899	-2.989400	3.510100	-10.493000	25.770523	0.000296	20.820424
1438.382042	-3.010900	3.507500	-10.560000	25.777064	0.000298	20.805183
1439.379817	-3.004700	3.508000	-10.540000	25.761861	0.000297	20.801291
1440.380719	-2.993600	3.507400	-10.499000	25.771228	0.000297	20.806433
1441.380916	-2.990100	3.507900	-10.487000	25.822459	0.000295	20.808582
1442.384670	-2.990200	3.508000	-10.487000	25.841866	0.000296	20.811008
1443.384895	-2.992000	3.506500	-10.490000	25.834810	0.000294	20.818619
1444.381816	-2.983300	3.506300	-10.459000	25.826939	0.000296	20.806919
1445.384609	-3.003400	3.506100	-10.529000	25.875832	0.000294	20.800084
1446.383466	-3.012400	3.505500	-10.559000	25.841572	0.000294	20.813557
1447.386747	-3.007200	3.505000	-10.539000	25.818902	0.000292	20.802639
1448.381581	-2.998100	3.505900	-10.511000	25.811920	0.000294	20.809850
1449.384832	-3.046700	3.504000	-10.675000	25.780441	0.000294	20.826119
1450.382257	-2.989200	3.505000	-10.475000	25.782660	0.000293	20.810330
1451.382736	-3.003900	3.504600	-10.526000	25.782041	0.000292	20.795484
1452.385402	-2.992100	3.505400	-10.488000	25.802136	0.000294	20.820410
1453.382875	-3.040200	3.503200	-10.649000	25.830035	0.000292	20.799123
1454.386688	-3.012000	3.502500	-10.548000	25.822464	0.000292	20.818544
1455.385015	-2.975700	3.503100	-10.423000	25.841124	0.000291	20.790822
1456.386121	-2.959600	3.503200	-10.367000	25.815954	0.000293	20.794935
1457.391931	-3.016300	3.502300	-10.563000	25.840357	0.000290	20.809492
1458.385951	-3.000900	3.502100	-10.509000	25.825976	0.000290	20.778925
1459.393896	-2.976100	3.503500	-10.425000	25.798825	0.000290	20.791480
1460.386362	-3.018200	3.500000	-10.562000	25.797532	0.000289	20.809621
1461.386161	-3.007200	3.500300	-10.524000	25.815346	0.000289	20.785316
1462.387445	-2.996600	3.500800	-10.490000	25.772667	0.000288	20.793654
1463.386161	-3.016600	3.501000	-10.560000	25.758389	0.000289	20.804917
1464.386914	-3.006400	3.500900	-10.524000	25.809467	0.000288	20.796955
1465.391866	-2.986700	3.500700	-10.455000	25.817792	0.000288	20.776393
1466.388284	-2.976400	3.500800	-10.419000	25.858544	0.000287	20.789830
1467.387858	-2.989100	3.499400	-10.459000	25.845500	0.000287	20.787157
1468.390546	-2.986600	3.498600	-10.447000	25.876038	0.000288	20.805981
1469.387716	-2.964400	3.498700	-10.371000	25.837757	0.000285	20.797872
1470.390099	-2.971800	3.499800	-10.400000	25.798432	0.000285	20.785396
1471.388590	-3.007800	3.496500	-10.516000	25.828648	0.000286	20.800575
1472.388622	-3.001800	3.496400	-10.494000	25.829469	0.000286	20.777692
1473.388883	-3.000900	3.496100	-10.491000	25.845297	0.000286	20.785531
1474.391298	-2.985900	3.497000	-10.440000	25.793730	0.000283	20.785888
1475.394112	-3.002800	3.495800	-10.496000	25.764930	0.000286	20.793468
1476.390744	-2.987100	3.496200	-10.442000	25.741707	0.000286	20.805230
1477.392202	-2.984300	3.496600	-10.434000	25.742902	0.000284	20.786042
1478.396101	-2.998300	3.495000	-10.478000	25.714432	0.000284	20.799170
1479.391661	-3.005300	3.495800	-10.505000	25.724817	0.000284	20.783997
1480.390906	-3.002600	3.494500	-10.492000	25.735306	0.000283	20.775567
1481.391314	-2.960900	3.495500	-10.348000	25.741897	0.000283	20.798308
1482.391007	-2.981600	3.495700	-10.423000	25.787814	0.000282	20.776152
1483.393396	-3.015300	3.494500	-10.536000	25.847687	0.000283	20.784139
1484.392435	-2.981000	3.493400	-10.412000	25.869258	0.000281	20.801540
1485.391624	-3.006300	3.492200	-10.498000	25.869460	0.000281	20.801269
1486.392476	-2.971400	3.494600	-10.383000	25.872568	0.000284	20.770726
1487.391757	-2.991700	3.492600	-10.447000	25.881744	0.000281	20.784212
1488.393187	-3.004900	3.490500	-10.488000	25.826323	0.000281	20.777377
1489.395002	-2.998600	3.493800	-10.476000	25.779770	0.000279	20.784668
1490.393975	-3.011700	3.491100	-10.513000	25.798155	0.000278	20.782272
1491.396770	-3.021400	3.491200	-10.547000	25.762360	0.000281	20.775240
1492.393750	-3.015500	3.490600	-10.525000	25.764922	0.000281	20.762166
1493.396972	-3.008700	3.489700	-10.498000	25.776968	0.000279	20.784698
1494.395159	-3.002000	3.490200	-10.477000	25.812922	0.000282	20.780985
1495.393965	-3.012800	3.488800	-10.510000	25.847533	0.000280	20.756008
1496.399934	-2.978300	3.489600	-10.392000	25.873995	0.000280	20.764574
1497.400532	-3.012800	3.489700	-10.512000	25.866566	0.000281	20.801681
1498.397642	-2.996500	3.490300	-10.457000	25.819365	0.000280	20.756162
1499.398872	-2.984500	3.488300	-10.410000	25.801054	0.000278	20.791349
1500.401437	-3.004200	3.487800	-10.477000	25.839171	0.000277	20.771791
1501.398962	-3.015500	3.486500	-10.513000	25.898815	0.000277	20.807525
1502.398341	-2.982600	3.486600	-10.399000	25.896455	0.000277	20.762006
1503.398046	-2.994100	3.488200	-10.444000	25.925822	0.000278	20.777284
1504.399000	-2.994100	3.486700	-10.439000	25.892011	0.000278	20.752800
1505.401759	-3.019800	3.486200	-10.526000	25.844388	0.000277	20.756642
1506.399613	-2.999300	3.484800	-10.451000	25.809740	0.000277	20.760719
1507.402518	-2.994700	3.486400	-10.440000	25.840397	0.000275	20.756901
1508.400547	-2.995200	3.485700	-10.440000	25.825936	0.000274	20.768927
1509.410487	-2.981700	3.485700	-10.392000	25.770108	0.000274	20.770221
1510.398445	-2.981600	3.484800	-10.389000	25.792030	0.000273	20.759050
1511.398514	-3.010700	3.484900	-10.492000	25.832594	0.000274	20.768502
1512.401447	-2.992900	3.485000	-10.428000	25.812475	0.000273	20.763939
1513.402051	-3.008100	3.482700	-10.475000	25.795678	0.000272	20.755601
1514.399194	-2.982700	3.483600	-10.390000	25.797891	0.000273	20.763514
1515.403158	-2.988100	3.482800	-10.407000	25.769250	0.000273	20.767936
1516.405730	-3.003200	3.482800	-10.459000	25.754647	0.000273	20.747577
1517.399653	-2.982200	3.482600	-10.385000	25.808189	0.000271	20.752048
1518.401999	-2.977900	3.483500	-10.373000	25.813651	0.000271	20.746155
1519.404965	-3.000300	3.482100	-10.446000	25.849169	0.000273	20.756229
1520.398615	-3.013900	3.480900	-10.490000	25.799865	0.000270	20.764549
1521.399313	-3.000000	3.481900	-10.445000	25.811867	0.000272	20.733457
1522.400759	-2.986800	3.480900	-10.396000	25.795543	0.000271	20.749302
1523.403101	-2.994200	3.482000	-10.424000	25.790853	0.000271	20.762609
1524.404650	-2.999500	3.481200	-10.441000	25.811990	0.000270	20.740693
1525.406729	-2.967900	3.481400	-10.332000	25.793385	0.000269	20.755669
1526.402137	-2.984700	3.480700	-10.388000	25.811622	0.000267	20.772567
1527.403405	-2.997900	3.480000	-10.430000	25.826874	0.000268	20.774137
1528.401406	-3.005700	3.478100	-10.453000	25.808471	0.000268	20.745693
1529.403684	-3.002800	3.478700	-10.444000	25.827947	0.000269	20.729694
1530.401751	-2.999000	3.477700	-10.429000	25.840348	0.000267	20.754955
1531.401917	-2.999000	3.477800	-10.429000	25.876122	0.000268	20.728776
1532.404681	-2.981200	3.478900	-10.370000	25.902553	0.000268	20.728302
1533.401738	-3.016400	3.477300	-10.488000	25.912391	0.000266	20.758575
1534.407264	-2.954200	3.477300	-10.271000	25.937431	0.000266	20.719718
1535.403277	-3.016300	3.475900	-10.484000	25.892727	0.000267	20.740717
1536.404311	-3.024200	3.476100	-10.511000	25.842689	0.000266	20.759204
1537.404066	-2.989400	3.475600	-10.389000	25.806847	0.000265	20.761131
1538.405062	-3.008300	3.474200	-10.451000	25.751667	0.000264	20.732256
1539.404887	-2.989100	3.474400	-10.385000	25.793139	0.000266	20.739301
1540.410512	-3.010600	3.474700	-10.461000	25.841531	0.000265	20.738599
1541.405580	-3.007700	3.473800	-10.447000	25.811346	0.000264	20.750952
1542.405631	-2.982800	3.474400	-10.362000	25.883343	0.000263	20.750256
1543.412940	-3.022100	3.474200	-10.498000	25.872438	0.000263	20.731239
1544.406495	-3.004600	3.474000	-10.437000	25.919422	0.000263	20.740982
1545.417562	-2.993400	3.474300	-10.399000	25.838711	0.000264	20.750465
1546.407835	-3.018500	3.472600	-10.481000	25.815558	0.000264	20.728154
1547.408882	-3.010200	3.472700	-10.453000	25.807594	0.000265	20.740544
1548.408429	-3.010000	3.472800	-10.452000	25.778598	0.000260	20.736074
1549.410825	-2.996800	3.472800	-10.407000	25.790571	0.000263	20.706372
1550.412750	-3.001800	3.472000	-10.421000	25.790325	0.000261	20.748802
1551.409562	-3.019200	3.470200	-10.476000	25.800342	0.000262	20.754597
1552.408730	-3.008100	3.470500	-10.438000	25.824716	0.000263	20.714119
1553.411346	-3.034500	3.469700	-10.527000	25.834929	0.000261	20.739553
1554.410871	-2.996100	3.470800	-10.398000	25.838214	0.000262	20.738112
1555.412522	-3.016700	3.469200	-10.465000	25.770935	0.000260	20.745920
1556.417380	-3.020700	3.469600	-10.480000	25.796750	0.000260	20.734866
1557.412887	-2.975200	3.470600	-10.325000	25.773994	0.000259	20.715801
1558.412276	-2.976100	3.469800	-10.326000	25.789571	0.000258	20.730975
1559.414180	-2.975700	3.469500	-10.323000	25.805798	0.000259	20.739688
1560.414703	-2.976200	3.468700	-10.323000	25.839587	0.000260	20.730956
1561.415996	-2.987900	3.467400	-10.359000	25.883030	0.000257	20.748045
1562.412116	-3.019800	3.466800	-10.468000	25.875686	0.000256	20.728339
1563.414805	-2.996500	3.467600	-10.390000	25.845895	0.000258	20.721171
1564.414863	-3.017000	3.466800	-10.457000	25.854569	0.000258	20.742213
1565.415787	-3.008900	3.467000	-10.431000	25.837846	0.000257	20.740587
1566.419358	-2.973300	3.467900	-10.309000	25.810819	0.000256	20.714858
1567.421165	-2.976500	3.466800	-10.318000	25.809084	0.000257	20.731609
1568.419409	-2.989100	3.465800	-10.359000	25.818059	0.000256	20.725451
1569.421314	-3.010200	3.465500	-10.430000	25.834230	0.000257	20.698071
1570.425696	-2.996600	3.466400	-10.385000	25.853037	0.000257	20.735932
1571.422066	-2.997600	3.463500	-10.381000	25.911435	0.000258	20.728690
1572.423051	-3.024000	3.463500	-10.472000	25.914720	0.000255	20.731042
1573.424302	-2.998600	3.464600	-10.388000	25.893230	0.000255	20.735532
1574.424251	-2.995300	3.464300	-10.375000	25.893530	0.000254	20.743894
1575.423655	-2.997800	3.463100	-10.380000	25.854900	0.000252	20.728795
1576.424521	-2.982100	3.463900	-10.329000	25.858633	0.000253	20.725906
1577.427951	-3.006100	3.462200	-10.407000	25.863703	0.000253	20.701125
1578.426674	-3.007200	3.461300	-10.409000	25.825966	0.000255	20.723911
1579.427215	-2.991700	3.463500	-10.362000	25.833715	0.000253	20.715099
1580.425828	-3.020000	3.461600	-10.453000	25.806191	0.000252	20.732021
1581.427110	-3.030000	3.461000	-10.486000	25.817501	0.000254	20.718252
1582.427580	-2.994200	3.461100	-10.362000	25.884893	0.000252	20.721466
1583.430396	-3.002800	3.460200	-10.389000	25.879058	0.000252	20.726510
1584.426783	-3.017200	3.460700	-10.441000	25.845055	0.000252	20.736449
1585.431685	-2.990300	3.460300	-10.346000	25.856083	0.000251	20.741838
1586.430819	-2.985700	3.460400	-10.331000	25.863212	0.000250	20.723394
1587.431323	-2.988500	3.459600	-10.338000	25.896902	0.000252	20.718831
1588.428254	-2.990300	3.460800	-10.348000	25.887235	0.000250	20.725715
1589.429844	-2.999000	3.459400	-10.373000	25.879983	0.000250	20.717482
1590.431715	-3.013400	3.459300	-10.423000	25.877673	0.000251	20.721325
1591.429892	-3.014800	3.458900	-10.427000	25.817010	0.000250	20.711595
1592.433147	-2.980100	3.458400	-10.306000	25.826181	0.000247	20.731239
1593.432909	-2.994100	3.458400	-10.354000	25.833359	0.000247	20.712845
1594.431258	-2.996800	3.458200	-10.363000	25.821780	0.000247	20.730137
1595.431890	-2.992900	3.458200	-10.349000	25.819180	0.000248	20.735113
1596.429653	-2.992200	3.458300	-10.347000	25.795530	0.000246	20.722735
1597.429880	-3.021900	3.455300	-10.440000	25.820002	0.000248	20.725506
1598.433433	-2.977300	3.456800	-10.291000	25.871745	0.000248	20.715370
1599.431775	-2.987600	3.456200	-10.325000	25.854808	0.000246	20.710683
1600.432828	-2.983000	3.456300	-10.310000	25.863059	0.000248	20.713756
1601.435885	-3.000900	3.454700	-10.367000	25.851958	0.000245	20.722045
1602.434596	-2.991100	3.454700	-10.332000	25.855262	0.000245	20.714932
1603.440171	-3.026200	3.454800	-10.454000	25.894039	0.000247	20.716429
1604.434399	-3.010400	3.454700	-10.398000	25.870666	0.000245	20.748427
1605.434643	-3.014000	3.452800	-10.406000	25.839048	0.000245	20.732311
1606.435944	-2.994200	3.454000	-10.341000	25.846177	0.000243	20.694425
1607.437342	-3.003800	3.453800	-10.374000	25.897037	0.000244	20.723234
1608.438890	-2.988300	3.452700	-10.317000	25.901854	0.000242	20.712426
1609.444684	-2.968200	3.453400	-10.249000	25.954587	0.000244	20.738377
1610.437392	-2.982800	3.451900	-10.295000	25.906574	0.000243	20.738980
1611.438107	-3.000800	3.452100	-10.358000	25.908812	0.000243	20.726054
1612.440781	-2.994300	3.450000	-10.329000	25.933085	0.000244	20.723412
1613.437265	-2.981200	3.451300	-10.288000	25.905943	0.000244	20.724121
1614.440451	-3.007400	3.451000	-10.377000	25.883980	0.000242	20.721023
1615.436898	-2.981900	3.449900	-10.286000	25.875141	0.000241	20.727791
1616.436846	-2.984800	3.450300	-10.297000	25.894683	0.000241	20.732249
1617.435410	-2.996600	3.450100	-10.337000	25.863065	0.000241	20.731307
1618.435950	-3.007600	3.449700	-10.375000	25.853828	0.000242	20.720604
1619.437269	-3.006400	3.449700	-10.370000	25.887910	0.000242	20.724971
1620.437507	-2.983000	3.448500	-10.286000	25.879640	0.000241	20.731363
1621.437609	-3.038400	3.448000	-10.475000	25.861705	0.000240	20.738001
1622.442492	-3.022800	3.448200	-10.422000	25.861870	0.000240	20.738642
1623.435355	-3.012300	3.448500	-10.387000	25.902786	0.000241	20.730907
1624.441681	-2.990400	3.447400	-10.309000	25.898195	0.000239	20.726769
1625.440151	-3.007000	3.447100	-10.364000	25.899930	0.000239	20.764075
1626.436142	-3.004200	3.446700	-10.353000	25.932576	0.000237	20.738549
1627.437692	-3.002400	3.446700	-10.347000	25.957020	0.000239	20.727545
1628.439484	-2.994500	3.447600	-10.322000	25.970486	0.000238	20.738703
1629.437699	-3.011800	3.446700	-10.380000	25.962432	0.000238	20.724921
1630.440785	-3.004700	3.445400	-10.351000	25.981930	0.000237	20.745933
1631.437431	-3.030700	3.445900	-10.442000	25.945344	0.000238	20.718658
1632.438199	-2.997700	3.444800	-10.326000	25.872984	0.000237	20.746961
1633.438181	-2.998100	3.445100	-10.327000	25.885476	0.000236	20.746235
1634.439222	-3.024800	3.444200	-10.417000	25.926532	0.000237	20.751444
1635.438289	-3.013900	3.444100	-10.380000	25.961734	0.000237	20.731332
1636.442127	-2.984700	3.445400	-10.283000	26.007506	0.000235	20.748396
1637.440209	-3.023500	3.443900	-10.411000	25.954329	0.000236	20.735273
1638.440182	-2.987500	3.442200	-10.283000	25.962101	0.000235	20.743556
1639.440279	-3.014500	3.443300	-10.379000	25.944786	0.000236	20.729952
1640.439342	-2.999800	3.442900	-10.327000	25.914990	0.000234	20.737478
1641.443768	-2.990500	3.441500	-10.290000	25.904509	0.000236	20.741647
1642.439864	-3.016100	3.441700	-10.379000	25.917228	0.000232	20.753476
1643.439693	-2.981500	3.442200	-10.262000	25.914267	0.000232	20.748605
1644.443337	-2.997500	3.440400	-10.311000	25.944590	0.000233	20.757732
1645.443033	-3.005200	3.441400	-10.341000	25.907751	0.000234	20.736843
1646.442913	-3.006000	3.439500	-10.338000	25.861269	0.000233	20.744202
1647.442925	-2.984100	3.440500	-10.266000	25.875521	0.000233	20.737182
1648.442616	-2.975700	3.440300	-10.237000	25.881933	0.000232	20.744098
1649.441743	-2.975800	3.440100	-10.236000	25.878874	0.000233	20.738180
1650.441060	-3.024200	3.438400	-10.397000	25.869373	0.000232	20.734325
1651.444596	-3.018600	3.439400	-10.380000	25.860307	0.000231	20.739916
1652.442028	-3.004100	3.438100	-10.328000	25.890606	0.000230	20.738586
1653.442947	-2.993000	3.439700	-10.294000	25.958001	0.000231	20.761722
1654.442108	-3.020100	3.437700	-10.381000	26.010080	0.000231	20.757146
1655.440845	-3.001100	3.438000	-10.317000	26.050317	0.000232	20.768176
1656.441370	-2.999600	3.437700	-10.310000	26.002775	0.000229	20.745064
1657.446441	-2.983000	3.437000	-10.252000	25.969652	0.000229	20.746875
1658.444681	-2.976900	3.437000	-10.231000	25.981617	0.000229	20.757473
1659.444813	-3.006400	3.436500	-10.330000	25.979459	0.000229	20.750564
1660.447740	-2.988700	3.436900	-10.271000	25.951755	0.000229	20.760189
1661.444904	-3.016500	3.434600	-10.360000	25.965619	0.000227	20.753729
1662.449967	-3.012900	3.434200	-10.346000	25.959625	0.000228	20.770466
1663.450298	-3.009500	3.434100	-10.334000	25.976021	0.000228	20.753273
1664.446726	-3.015600	3.434800	-10.357000	25.977945	0.000228	20.769432
1665.446237	-2.995000	3.435700	-10.289000	25.963940	0.000227	20.767215
1666.445673	-3.015700	3.434000	-10.355000	26.003259	0.000225	20.755509
1667.447261	-3.017700	3.433200	-10.359000	26.029166	0.000227	20.767313
1668.445271	-3.016300	3.433300	-10.355000	26.011202	0.000225	20.761119
1669.447062	-3.016700	3.432200	-10.353000	26.008444	0.000224	20.762141
1670.445416	-3.026700	3.431800	-10.387000	25.972754	0.000224	20.767061
1671.449905	-3.009000	3.433100	-10.329000	25.942248	0.000222	20.773872
1672.446758	-2.994000	3.431800	-10.273000	25.965699	0.000225	20.748593
1673.445809	-2.998100	3.430900	-10.284000	25.930694	0.000223	20.760841
1674.445938	-2.961900	3.433300	-10.167000	25.961121	0.000225	20.772917
1675.446521	-2.998400	3.430800	-10.286000	25.964259	0.000222	20.770380
1676.447902	-2.961200	3.431200	-10.159000	25.929125	0.000224	20.769223
1677.446860	-2.986700	3.430000	-10.244000	25.922327	0.000223	20.762867
1678.450062	-3.012500	3.430200	-10.332000	25.934795	0.000221	20.772548
1679.447975	-3.015400	3.429700	-10.341000	25.937081	0.000222	20.776267
1680.447724	-3.018600	3.429500	-10.351000	25.877666	0.000222	20.761149
1681.449115	-2.985500	3.429300	-10.238000	25.867699	0.000221	20.774371
1682.450078	-2.984200	3.430100	-10.235000	25.859847	0.000222	20.776440
1683.451074	-2.998000	3.429600	-10.281000	25.893684	0.000221	20.771550
1684.454091	-2.989800	3.430100	-10.255000	25.920439	0.000219	20.789420
1685.449513	-3.017700	3.427700	-10.342000	25.971436	0.000218	20.779014
1686.453960	-2.990300	3.429100	-10.253000	25.966815	0.000221	20.780535
1687.451561	-2.986300	3.426800	-10.232000	26.020200	0.000219	20.782013
1688.451948	-2.991600	3.427500	-10.253000	25.998968	0.000220	20.791028
1689.450743	-3.004700	3.428200	-10.300000	26.053915	0.000219	20.766100
1690.453434	-2.988500	3.426900	-10.240000	26.087291	0.000219	20.758384
1691.455486	-3.002200	3.426600	-10.286000	26.051359	0.000217	20.775387
1692.451743	-2.984000	3.426500	-10.224000	26.043336	0.000219	20.788189
1693.451489	-3.002300	3.424300	-10.280000	26.010951	0.000217	20.787893
1694.456422	-2.995100	3.425500	-10.259000	25.993140	0.000217	20.795129
1695.452615	-2.997800	3.424300	-10.264000	25.999134	0.000218	20.770805
1696.450342	-3.001700	3.424400	-10.278000	25.977945	0.000217	20.790295
1697.454516	-3.006000	3.424800	-10.294000	25.969603	0.000218	20.770060
1698.453870	-2.999800	3.424000	-10.270000	25.995144	0.000217	20.776279
1699.460319	-3.013900	3.423500	-10.317000	26.038218	0.000217	20.781624
1700.453929	-2.996900	3.424400	-10.262000	26.042815	0.000216	20.790036
1701.454313	-3.030500	3.422100	-10.370000	26.033947	0.000216	20.776858
1702.456219	-2.986000	3.422800	-10.219000	26.014083	0.000214	20.798152
1703.455977	-2.991900	3.422600	-10.239000	25.962971	0.000215	20.779518
1704.459599	-3.006100	3.422100	-10.287000	25.996921	0.000214	20.804144
1705.458692	-2.973400	3.423400	-10.178000	26.048521	0.000213	20.787708
1706.455734	-2.976500	3.423000	-10.188000	26.015161	0.000214	20.777425
1707.458634	-3.005900	3.421500	-10.283000	26.010644	0.000213	20.798491
1708.457675	-3.009600	3.420600	-10.293000	26.016859	0.000214	20.789088
1709.459510	-3.004500	3.420500	-10.276000	26.028363	0.000214	20.786422
1710.459383	-3.009000	3.421500	-10.294000	26.071461	0.000213	20.808387
1711.460425	-2.995000	3.419900	-10.242000	26.063200	0.000213	20.787758
1712.458157	-2.996800	3.420800	-10.250000	26.006342	0.000213	20.795116
1713.462521	-2.988800	3.418900	-10.217000	25.981758	0.000210	20.793651
1714.458491	-2.985100	3.419000	-10.205000	26.019691	0.000214	20.806632
1715.459876	-2.984300	3.420300	-10.205000	26.037299	0.000211	20.788287
1716.459668	-3.002100	3.418400	-10.262000	26.020635	0.000211	20.796200
1717.460346	-3.018000	3.416600	-10.310000	25.999894	0.000209	20.778681
1718.460470	-3.009700	3.418600	-10.288000	25.950793	0.000210	20.801422
1719.460166	-2.996000	3.417500	-10.237000	25.964357	0.000212	20.813153
1720.460918	-3.009900	3.416200	-10.281000	25.947667	0.000209	20.784057
1721.464680	-2.961700	3.416400	-10.117000	26.004804	0.000212	20.778872
1722.460321	-3.009000	3.416000	-10.277000	26.042435	0.000209	20.800560
1723.460922	-3.003800	3.416500	-10.262000	26.035504	0.000209	20.804501
1724.463707	-3.016700	3.414200	-10.298000	26.062808	0.000208	20.795425
1725.460727	-3.007100	3.415100	-10.268000	26.039187	0.000208	20.815314
1726.466280	-2.986000	3.416100	-10.200000	26.040303	0.000208	20.786089
1727.470711	-3.026000	3.413100	-10.328000	26.013930	0.000207	20.799895
1728.462743	-2.997100	3.416200	-10.238000	26.012679	0.000207	20.817605
1729.463908	-3.007200	3.413400	-10.264000	26.012661	0.000208	20.800043
1730.465498	-2.993100	3.413700	-10.216000	26.003474	0.000207	20.825899
1731.464953	-2.995200	3.413600	-10.223000	25.988322	0.000207	20.815893
1732.467001	-3.007100	3.413100	-10.262000	26.007776	0.000209	20.795135
1733.468035	-2.982200	3.414200	-10.182000	26.056857	0.000206	20.787549
1734.466321	-3.043300	3.411400	-10.381000	26.078914	0.000206	20.817297
1735.467605	-3.012700	3.411600	-10.277000	26.117162	0.000207	20.815425
1736.464696	-3.019200	3.411300	-10.299000	26.145800	0.000205	20.817648
1737.465841	-3.018500	3.411800	-10.298000	26.101142	0.000205	20.793165
1738.472041	-3.005500	3.411800	-10.253000	26.028793	0.000206	20.796336
1739.466376	-2.988900	3.411800	-10.196000	26.038507	0.000202	20.788553
1740.467615	-3.013500	3.409400	-10.272000	25.983585	0.000204	20.818720
1741.466835	-2.991000	3.410800	-10.201000	25.960735	0.000203	20.804298
1742.466977	-3.009200	3.409900	-10.260000	25.949156	0.000203	20.804994
1743.468970	-3.011000	3.410000	-10.265000	25.971639	0.000205	20.821891
1744.466891	-3.003800	3.409200	-10.240000	26.000899	0.000204	20.801977
1745.467475	-2.981600	3.408800	-10.162000	26.034634	0.000203	20.815955
1746.468776	-2.996300	3.408400	-10.212000	26.013869	0.000203	20.825912
1747.466465	-2.990300	3.408500	-10.191000	26.003339	0.000202	20.814859
1748.468084	-2.992700	3.407800	-10.197000	25.994666	0.000201	20.812309
1749.467562	-2.993200	3.408100	-10.200000	26.040720	0.000203	20.838190
1750.465822	-3.022100	3.405900	-10.292000	26.100750	0.000201	20.824065
1751.469607	-3.012600	3.406500	-10.261000	26.043502	0.000202	20.815856
1752.469422	-3.000100	3.406800	-10.220000	26.011717	0.000200	20.824699
1753.474403	-3.020700	3.405700	-10.286000	25.984492	0.000200	20.831010
1754.471190	-3.013800	3.406400	-10.264000	25.995347	0.000201	20.823424
1755.470068	-2.996400	3.407200	-10.208000	25.987097	0.000199	20.812765
1756.472868	-2.983300	3.405300	-10.158000	26.033898	0.000200	20.819483
1757.469129	-2.996300	3.404700	-10.200000	26.040352	0.000199	20.811269
1758.471543	-2.989000	3.405800	-10.179000	26.049594	0.000196	20.830986
1759.471798	-2.978200	3.404800	-10.140000	26.069617	0.000199	20.817439
1760.471288	-2.994400	3.404500	-10.194000	26.106401	0.000198	20.822156
1761.470228	-2.986900	3.404700	-10.168000	26.104666	0.000197	20.837956
1762.476770	-2.992000	3.404400	-10.185000	26.068152	0.000196	20.844416
1763.471514	-2.994600	3.404300	-10.193000	26.018257	0.000196	20.842174
1764.477607	-3.004600	3.402000	-10.220000	26.056900	0.000197	20.853024
1765.472733	-2.999200	3.403500	-10.207000	26.082689	0.000196	20.828677
1766.475304	-3.017800	3.401200	-10.263000	26.101265	0.000199	20.816522
1767.475199	-2.997200	3.402300	-10.197000	26.095805	0.000196	20.830001
1768.473706	-3.004900	3.402200	-10.222000	26.126331	0.000196	20.836017
1769.474127	-3.036000	3.401000	-10.324000	26.082340	0.000195	20.842076
1770.474844	-3.003300	3.401600	-10.215000	26.044268	0.000194	20.834170
1771.474458	-2.988000	3.401500	-10.162000	26.072632	0.000196	20.853658
1772.474995	-3.010600	3.401500	-10.240000	26.081372	0.000195	20.849163
1773.475535	-2.999600	3.400100	-10.198000	26.111083	0.000195	20.820697
1774.478682	-2.966200	3.402000	-10.090000	26.096479	0.000194	20.851540
1775.478112	-2.987500	3.400900	-10.160000	26.089327	0.000193	20.831553
1776.476274	-3.002700	3.399700	-10.208000	26.141835	0.000194	20.822673
1777.476259	-2.994900	3.399200	-10.179000	26.125369	0.000193	20.834576
1778.477456	-3.013400	3.398200	-10.239000	26.150948	0.000193	20.851269
1779.476407	-3.008600	3.399100	-10.225000	26.121097	0.000190	20.849724
1780.478756	-2.985400	3.399300	-10.147000	26.072835	0.000192	20.857655
1781.476428	-2.993700	3.397100	-10.169000	26.093831	0.000191	20.859311
1782.476603	-2.993800	3.396900	-10.168000	26.127734	0.000191	20.855918
1783.475574	-3.002300	3.396800	-10.198000	26.175565	0.000191	20.833806
1784.475531	-2.984500	3.397600	-10.139000	26.234473	0.000190	20.836103
1785.478819	-3.003600	3.395100	-10.196000	26.280093	0.000192	20.859662
1786.479342	-2.974000	3.396300	-10.099000	26.243542	0.000192	20.853751
1787.476784	-3.008200	3.395200	-10.211000	26.213393	0.000190	20.844318
1788.476347	-2.997700	3.396100	-10.179000	26.200237	0.000191	20.866657
1789.479737	-3.017300	3.395200	-10.243000	26.163879	0.000189	20.850986
1790.476911	-3.014300	3.393700	-10.229000	26.130578	0.000193	20.863517
1791.481275	-2.989500	3.394200	-10.146000	26.099482	0.000188	20.857402
1792.478330	-3.003900	3.394500	-10.196000	26.115380	0.000189	20.837341
1793.477644	-3.007900	3.394000	-10.208000	26.119749	0.000190	20.876343
1794.480637	-2.972800	3.393500	-10.087000	26.070580	0.000188	20.858708
1795.479818	-2.993400	3.394500	-10.159000	26.033568	0.000187	20.860401
1796.484579	-2.999100	3.392700	-10.174000	26.020679	0.000189	20.851245
1797.480235	-3.027500	3.391600	-10.267000	26.046383	0.000187	20.863794
1798.481018	-3.002200	3.393600	-10.188000	26.041364	0.000186	20.864440
1799.478909	-3.006200	3.392200	-10.197000	26.090345	0.000189	20.861497
1800.479954	-2.985700	3.392400	-10.127000	26.118566	0.000187	20.877999
1801.479963	-2.990400	3.392100	-10.143000	26.151494	0.000185	20.867938
1802.480417	-3.024100	3.390000	-10.251000	26.149380	0.000187	20.868658
1803.480217	-2.988600	3.391200	-10.134000	26.181767	0.000187	20.853314
1804.480976	-2.971400	3.391700	-10.078000	26.177195	0.000187	20.852988
1805.485568	-3.032200	3.388500	-10.274000	26.162096	0.000185	20.862944
1806.481860	-3.035500	3.389400	-10.287000	26.136443	0.000186	20.866565
1807.488374	-2.995600	3.389900	-10.154000	26.145647	0.000183	20.858745
1808.481075	-3.009400	3.388800	-10.197000	26.135591	0.000184	20.877562
1809.482995	-3.013600	3.388500	-10.210000	26.127367	0.000185	20.879729
1810.482832	-2.997800	3.388900	-10.158000	26.100708	0.000186	20.879021
1811.481741	-2.996300	3.388500	-10.152000	26.093930	0.000187	20.873633
1812.482849	-2.983900	3.388900	-10.111000	26.135431	0.000184	20.868393
1813.483544	-2.996000	3.388800	-10.152000	26.154478	0.000184	20.869040
1814.482807	-2.983500	3.387900	-10.107000	26.191320	0.000182	20.880930
1815.482854	-2.978000	3.387700	-10.087000	26.251710	0.000183	20.891354
1816.482104	-3.011300	3.385700	-10.195000	26.243340	0.000184	20.874883
1817.483135	-3.002500	3.387200	-10.169000	26.254804	0.000184	20.883559
1818.484117	-2.997600	3.385400	-10.147000	26.227536	0.000181	20.875597
1819.484013	-3.008200	3.385300	-10.183000	26.239798	0.000185	20.878436
1820.484217	-3.009600	3.384800	-10.186000	26.266588	0.000181	20.885917
1821.484111	-2.998400	3.385600	-10.150000	26.250613	0.000182	20.900682
1822.485206	-2.982900	3.386100	-10.100000	26.255619	0.000181	20.879162
1823.487379	-2.979800	3.385600	-10.087000	26.232125	0.000182	20.868356
1824.484076	-3.012800	3.382600	-10.190000	26.198569	0.000182	20.899592
1825.486354	-2.986600	3.384100	-10.106000	26.151701	0.000180	20.881422
1826.487131	-3.004100	3.382400	-10.160000	26.131184	0.000182	20.882616
1827.485275	-3.007700	3.383100	-10.174000	26.211462	0.000181	20.899272
1828.491921	-3.001900	3.381400	-10.150000	26.242726	0.000180	20.885171
1829.485695	-2.991800	3.384500	-10.124000	26.223828	0.000180	20.861441
1830.486605	-2.995200	3.384500	-10.136000	26.219649	0.000179	20.877155
1831.486297	-2.995900	3.383400	-10.136000	26.263523	0.000181	20.870985
1832.486008	-2.980300	3.383300	-10.082000	26.221444	0.000181	20.886070
1833.487597	-3.000900	3.381800	-10.146000	26.223748	0.000178	20.858990
1834.489738	-2.985900	3.382400	-10.099000	26.276618	0.000179	20.870394
1835.487393	-2.981700	3.382000	-10.083000	26.286122	0.000176	20.873780
1836.487959	-2.989400	3.381600	-10.107000	26.261330	0.000178	20.867832
1837.489658	-2.991400	3.380800	-10.112000	26.243321	0.000179	20.867752
1838.487982	-3.002600	3.379400	-10.146000	26.245747	0.000176	20.876828
1839.492375	-3.009600	3.380000	-10.171000	26.240404	0.000178	20.876200
1840.491003	-3.000000	3.380800	-10.142000	26.269455	0.000177	20.869833
1841.488747	-3.017300	3.378400	-10.192000	26.290779	0.000175	20.863762
1842.495153	-2.999600	3.380000	-10.137000	26.314216	0.000176	20.879728
1843.490325	-3.020000	3.378500	-10.202000	26.372167	0.000174	20.886286
1844.490796	-2.998200	3.378400	-10.129000	26.395449	0.000176	20.887875
1845.489295	-2.988300	3.377100	-10.091000	26.382111	0.000176	20.864514
1846.490910	-3.003900	3.377900	-10.147000	26.300914	0.000174	20.857352
1847.491625	-2.997700	3.377600	-10.123000	26.294474	0.000175	20.865579
1848.494059	-2.999100	3.376700	-10.126000	26.301625	0.000175	20.851429
1849.489489	-2.992000	3.376900	-10.103000	26.339981	0.000175	20.858683
1850.494124	-2.994400	3.377100	-10.111000	26.376652	0.000175	20.870406
1851.491679	-2.996900	3.375900	-10.117000	26.385560	0.000174	20.866558
1852.492286	-2.997200	3.376100	-10.118000	26.437895	0.000172	20.860838
1853.493444	-3.002000	3.375300	-10.132000	26.434575	0.000171	20.872672
1854.492952	-3.017500	3.373800	-10.179000	26.377822	0.000173	20.873479
1855.495952	-3.001800	3.373300	-10.125000	26.330521	0.000172	20.856288
1856.493871	-3.015000	3.373800	-10.171000	26.287857	0.000171	20.867938
1857.496350	-3.006100	3.372100	-10.136000	26.303028	0.000169	20.861848
1858.494934	-2.992700	3.374100	-10.096000	26.331005	0.000170	20.855352
1859.496755	-3.005100	3.373200	-10.136000	26.257973	0.000171	20.846916
1860.495802	-2.980100	3.373200	-10.052000	26.248432	0.000169	20.850604
1861.497962	-2.977100	3.372600	-10.040000	26.260951	0.000170	20.841374
1862.494102	-2.998300	3.373000	-10.113000	26.261294	0.000169	20.862581
1863.495427	-2.974700	3.372100	-10.030000	26.326214	0.000168	20.854330
1864.498651	-3.011700	3.371000	-10.152000	26.340895	0.000168	20.865764
1865.495629	-3.010700	3.371500	-10.150000	26.414664	0.000168	20.854558
1866.496852	-3.021400	3.371000	-10.185000	26.426948	0.000166	20.866904
1867.496973	-3.016500	3.370900	-10.168000	26.447772	0.000167	20.867920
1868.496694	-3.006300	3.371400	-10.135000	26.479752	0.000167	20.863554
1869.498405	-3.016900	3.369100	-10.163000	26.492581	0.000166	20.859854
1870.497081	-3.008000	3.369600	-10.135000	26.398802	0.000166	20.847625
1871.499446	-2.996500	3.370400	-10.099000	26.351373	0.000166	20.862545
1872.498700	-3.023300	3.369700	-10.187000	26.319309	0.000165	20.867779
1873.498324	-3.005800	3.367100	-10.120000	26.275823	0.000163	20.851578
1874.497039	-2.961100	3.369400	-9.976300	26.230724	0.000164	20.834706
1875.498663	-2.996500	3.369400	-10.095000	26.277214	0.000162	20.846812
1876.498487	-2.980700	3.367700	-10.037000	26.320664	0.000165	20.865347
1877.498747	-3.011200	3.367500	-10.139000	26.364884	0.000164	20.853838
1878.499903	-3.004300	3.368000	-10.117000	26.401908	0.000164	20.857385
1879.501551	-3.013400	3.367000	-10.145000	26.397785	0.000162	20.855612
1880.501702	-3.015200	3.365300	-10.146000	26.345001	0.000163	20.855193
1881.502937	-3.016900	3.366500	-10.156000	26.344572	0.000161	20.847650
1882.505123	-2.991400	3.366800	-10.070000	26.319788	0.000160	20.854510
1883.501308	-3.010600	3.365400	-10.131000	26.333023	0.000160	20.848845
1884.503961	-3.004200	3.366100	-10.111000	26.302588	0.000160	20.839596
1885.501694	-3.020800	3.364800	-10.163000	26.288324	0.000161	20.840907
1886.505455	-3.010800	3.364400	-10.128000	26.270646	0.000159	20.841160
1887.501808	-2.992400	3.365200	-10.069000	26.266920	0.000160	20.849744
1888.501144	-2.995600	3.363800	-10.076000	26.290015	0.000159	20.844503
1889.503149	-2.996300	3.363900	-10.078000	26.303220	0.000158	20.826006
1890.503903	-2.997000	3.362900	-10.078000	26.271210	0.000161	20.867804
1891.504345	-3.003300	3.363200	-10.100000	26.276473	0.000159	20.833740
1892.506050	-2.994300	3.362600	-10.068000	26.292717	0.000156	20.824460
1893.503581	-3.003100	3.362300	-10.096000	26.279451	0.000157	20.839103
1894.511108	-3.028400	3.361100	-10.178000	26.333286	0.000157	20.845317
1895.507872	-2.965200	3.363900	-9.973200	26.386298	0.000157	20.839325
1896.506417	-3.016900	3.361000	-10.139000	26.365092	0.000154	20.843143
1897.510645	-2.980500	3.362000	-10.018000	26.400622	0.000155	20.848506
1898.506337	-2.996600	3.360200	-10.068000	26.372071	0.000155	20.829294
1899.505930	-3.024100	3.359200	-10.158000	26.317098	0.000155	20.828100
1900.506068	-2.980400	3.360200	-10.014000	26.352728	0.000155	20.857268
1901.504012	-2.988900	3.360200	-10.043000	26.340063	0.000156	20.826998
1902.508332	-3.017600	3.359500	-10.136000	26.303753	0.000153	20.827016
1903.507409	-3.023300	3.358800	-10.154000	26.324494	0.000155	20.834110
1904.506333	-3.008100	3.357800	-10.100000	26.333311	0.000156	20.832539
1905.505261	-3.003700	3.359000	-10.088000	26.384454	0.000153	20.811394
1906.505170	-3.015300	3.357200	-10.121000	26.410854	0.000154	20.825600
1907.506210	-2.990200	3.358800	-10.043000	26.395359	0.000152	20.828519
1908.506066	-3.012000	3.358200	-10.114000	26.395188	0.000153	20.812699
1909.506989	-2.996600	3.358000	-10.062000	26.368101	0.000151	20.831468
1910.507001	-3.006200	3.357700	-10.093000	26.364394	0.000152	20.832958
1911.517991	-2.982800	3.356600	-10.011000	26.376960	0.000152	20.824251
1912.512871	-2.987600	3.356100	-10.025000	26.371777	0.000150	20.812404
1913.510672	-2.996300	3.356400	-10.056000	26.340712	0.000150	20.812003
1914.509463	-2.987500	3.355900	-10.024000	26.367329	0.000148	20.811252
1915.508133	-2.998000	3.356000	-10.061000	26.385458	0.000148	20.812878
1916.510220	-2.990800	3.355800	-10.035000	26.417893	0.000149	20.822244
1917.508230	-3.011900	3.355300	-10.105000	26.421858	0.000150	20.822435
1918.509207	-3.004200	3.354500	-10.076000	26.379901	0.000150	20.810612
1919.509931	-2.990500	3.355600	-10.034000	26.341564	0.000149	20.808592
1920.510488	-3.003600	3.353500	-10.072000	26.305009	0.000147	20.824485
1921.509651	-3.009100	3.352800	-10.088000	26.339726	0.000148	20.811486
1922.511777	-2.973200	3.353900	-9.971300	26.377616	0.000149	20.817324
1923.510903	-2.999900	3.352400	-10.055000	26.411938	0.000146	20.825741
1924.516069	-3.004700	3.353300	-10.074000	26.472046	0.000146	20.815981
1925.511369	-3.049200	3.350200	-10.215000	26.510727	0.000148	20.781368
1926.512405	-3.001800	3.352300	-10.062000	26.567981	0.000149	20.820901
1927.513430	-3.023900	3.351900	-10.135000	26.519727	0.000146	20.827397
1928.518241	-2.999000	3.351600	-10.051000	26.561610	0.000146	20.826350
1929.516336	-2.982000	3.350400	-9.990000	26.541897	0.000147	20.815544
1930.512945	-2.986100	3.351300	-10.006000	26.486982	0.000145	20.796855
1931.513694	-3.017000	3.349400	-10.104000	26.434147	0.000142	20.803967
1932.513485	-3.021000	3.351100	-10.123000	26.396811	0.000144	20.804847
1933.514454	-3.015700	3.348400	-10.098000	26.373443	0.000147	20.811233
1934.514751	-3.011800	3.349100	-10.086000	26.376175	0.000145	20.820143
1935.516961	-2.985500	3.349900	-10.001000	26.366544	0.000143	20.829429
1936.517354	-3.003600	3.349800	-10.060000	26.341220	0.000143	20.799712
1937.518651	-2.993000	3.347900	-10.019000	26.354976	0.000146	20.809269
1938.516891	-2.997000	3.347600	-10.032000	26.392724	0.000143	20.813068
1939.515861	-3.005200	3.347600	-10.059000	26.430489	0.000141	20.804084
1940.520759	-2.996200	3.347500	-10.029000	26.422818	0.000143	20.795900
1941.516548	-3.005900	3.347100	-10.059000	26.471463	0.000143	20.804964
1942.517031	-3.012100	3.347400	-10.082000	26.458996	0.000141	20.795752
1943.517706	-2.998300	3.347200	-10.036000	26.439287	0.000141	20.806288
1944.518634	-2.984600	3.346500	-9.987300	26.401791	0.000139	20.818862
1945.518089	-2.981900	3.346200	-9.977700	26.437430	0.000140	20.811534
1946.521935	-3.001500	3.345800	-10.042000	26.429362	0.000138	20.783510
1947.519350	-3.027500	3.345300	-10.127000	26.428596	0.000140	20.796491
1948.519384	-3.025200	3.344200	-10.116000	26.341440	0.000139	20.806097
1949.525109	-3.010800	3.343800	-10.066000	26.319787	0.000138	20.795715
1950.519557	-3.000700	3.343500	-10.031000	26.371739	0.000139	20.800512
1951.524318	-3.016000	3.343800	-10.084000	26.361261	0.000141	20.781447
1952.520939	-3.000500	3.344400	-10.033000	26.431873	0.000137	20.814958
1953.521668	-3.011300	3.342900	-10.065000	26.464626	0.000138	20.793824
1954.523258	-3.027100	3.343200	-10.119000	26.483446	0.000138	20.792827
1955.524555	-3.004100	3.342700	-10.040000	26.508846	0.000138	20.797020
1956.524117	-2.981500	3.344700	-9.971900	26.476474	0.000137	20.802414
1957.522891	-2.995500	3.343200	-10.013000	26.426341	0.000136	20.786638
1958.523076	-3.006900	3.342200	-10.049000	26.454419	0.000136	20.784040
1959.523933	-3.003300	3.341700	-10.035000	26.491465	0.000138	20.783344
1960.524925	-2.988300	3.340400	-9.981700	26.564207	0.000136	20.800986
1961.524025	-2.981500	3.340700	-9.959500	26.595981	0.000135	20.800210
1962.524849	-2.980600	3.339600	-9.952700	26.667993	0.000135	20.791996
1963.525549	-3.003200	3.338800	-10.027000	26.635975	0.000135	20.789680
1964.525213	-2.998000	3.340600	-10.014000	26.609439	0.000135	20.786712
1965.524067	-3.010200	3.338000	-10.046000	26.585206	0.000132	20.779421
1966.525299	-3.001500	3.339100	-10.021000	26.601611	0.000137	20.780265
1967.526945	-2.993900	3.340100	-9.998600	26.571974	0.000133	20.786035
1968.524442	-2.993100	3.339300	-9.993200	26.534588	0.000133	20.811990
1969.524192	-3.025500	3.337400	-10.097000	26.497592	0.000131	20.780493
1970.524467	-3.011500	3.337300	-10.050000	26.563778	0.000130	20.786330
1971.525255	-3.034400	3.336500	-10.123000	26.609580	0.000134	20.778793
1972.529734	-3.008100	3.337100	-10.038000	26.651283	0.000133	20.789422
1973.529521	-2.976200	3.339200	-9.937200	26.645206	0.000133	20.813659
1974.535386	-3.015500	3.336400	-10.060000	26.608116	0.000132	20.792969
1975.528139	-3.013100	3.336000	-10.050000	26.569383	0.000130	20.787697
1976.530357	-3.017100	3.336500	-10.066000	26.570651	0.000132	20.777592
1977.528799	-3.007400	3.336700	-10.034000	26.584851	0.000131	20.784280
1978.529832	-2.992500	3.336100	-9.981500	26.558632	0.000130	20.778313
1979.527950	-3.001500	3.335600	-10.011000	26.547085	0.000130	20.783775
1980.527878	-3.000300	3.334000	-10.002000	26.583179	0.000132	20.779754
1981.529026	-2.978900	3.335000	-9.933300	26.597378	0.000132	20.783122
1982.526986	-3.024200	3.333100	-10.078000	26.587295	0.000130	20.781047
1983.530568	-3.009100	3.333400	-10.029000	26.593054	0.000130	20.774033
1984.526836	-3.029100	3.332900	-10.094000	26.599535	0.000129	20.782919
1985.527966	-3.007400	3.333700	-10.024000	26.620111	0.000129	20.769464
1986.528334	-3.018400	3.332100	-10.057000	26.655056	0.000129	20.777568
1987.528589	-3.005100	3.333200	-10.016000	26.651602	0.000129	20.788320
1988.528787	-3.017200	3.332100	-10.053000	26.638169	0.000128	20.796153
1989.531737	-2.977300	3.332500	-9.921000	26.600405	0.000130	20.760560
1990.531297	-2.997000	3.331900	-9.985000	26.568974	0.000127	20.762629
1991.529224	-3.008600	3.330600	-10.019000	26.531458	0.000128	20.781818
1992.532147	-2.990000	3.331700	-9.960600	26.530392	0.000130	20.766995
1993.528703	-3.005000	3.331200	-10.009000	26.527630	0.000126	20.760425
1994.533722	-3.018900	3.330400	-10.053000	26.533609	0.000126	20.761694
1995.527770	-3.028000	3.329700	-10.082000	26.584399	0.000124	20.759643
1996.528729	-2.994900	3.330000	-9.972000	26.631928	0.000127	20.778499
1997.528872	-3.013900	3.328100	-10.030000	26.683160	0.000125	20.774053
1998.528457	-2.983100	3.329700	-9.931300	26.727298	0.000123	20.769114
1999.531487	-2.994000	3.328800	-9.965400	26.693010	0.000124	20.778265
2000.529725	-2.980400	3.329200	-9.920900	26.686401	0.000125	20.773992
2001.530579	-2.974400	3.327200	-9.895400	26.660264	0.000123	20.769053
2002.530756	-2.970900	3.328400	-9.886400	26.706810	0.000122	20.756103
2003.529130	-2.986100	3.327300	-9.934500	26.737753	0.000121	20.765402
2004.528953	-2.996100	3.326800	-9.966500	26.777417	0.000121	20.755019
2005.533034	-2.999300	3.327100	-9.978200	26.787615	0.000120	20.747254
2006.529654	-2.979400	3.326400	-9.910500	26.772371	0.000122	20.756584
2007.531682	-3.014900	3.326000	-10.027000	26.739303	0.000121	20.764115
2008.533503	-3.007100	3.324800	-9.996400	26.732150	0.000120	20.789166
2009.531535	-2.992200	3.326000	-9.951800	26.692153	0.000121	20.750377
2010.536039	-3.004000	3.325200	-9.987900	26.668198	0.000121	20.764700
2011.533900	-2.991300	3.325500	-9.946800	26.634955	0.000118	20.745980
2012.533776	-2.998700	3.324700	-9.968900	26.597914	0.000119	20.777497
2013.534289	-3.020000	3.323800	-10.037000	26.599103	0.000117	20.763044
2014.537252	-2.978100	3.324100	-9.899000	26.671065	0.000119	20.753358
2015.534570	-2.984000	3.323600	-9.917100	26.714951	0.000115	20.773297
2016.532965	-2.988800	3.323300	-9.932400	26.748210	0.000117	20.764061
2017.534353	-2.990800	3.322400	-9.935000	26.723931	0.000116	20.719734
2018.535774	-2.998700	3.322700	-9.962900	26.753894	0.000115	20.755550
2019.533602	-2.986600	3.322300	-9.921600	26.760594	0.000116	20.751381
2020.535705	-2.978000	3.322100	-9.892100	26.811766	0.000116	20.764424
2021.535370	-3.014400	3.321100	-10.010000	26.804967	0.000116	20.765650
2022.536069	-2.998200	3.321500	-9.957300	26.791193	0.000116	20.738049
2023.535903	-2.997300	3.320100	-9.950900	26.790520	0.000114	20.752071
2024.538578	-3.004400	3.321300	-9.978300	26.815514	0.000113	20.762029
2025.539398	-3.004700	3.318600	-9.970800	26.818172	0.000114	20.759485
2026.542929	-3.017000	3.318800	-10.011000	26.822741	0.000114	20.746061
2027.540410	-3.002100	3.317900	-9.960000	26.799186	0.000113	20.754621
2028.537903	-3.025600	3.318500	-10.040000	26.833017	0.000113	20.726995
2029.540021	-2.984500	3.318200	-9.902200	26.819862	0.000111	20.753598
2030.539900	-2.986500	3.318400	-9.909200	26.784989	0.000112	20.755994
2031.542825	-3.001600	3.318600	-9.960400	26.822312	0.000112	20.717179
2032.540187	-3.013000	3.317700	-9.995900	26.806211	0.000110	20.740820
2033.539450	-3.009500	3.317500	-9.982700	26.850514	0.000112	20.741744
2034.543008	-3.023200	3.316800	-10.026000	26.787874	0.000111	20.721434
2035.540411	-3.004400	3.317300	-9.965400	26.810877	0.000111	20.723700
2036.544005	-2.998300	3.316200	-9.941600	26.859572	0.000111	20.753697
2037.542537	-2.981400	3.316300	-9.885600	26.827836	0.000110	20.727475
2038.540598	-3.015400	3.314500	-9.993200	26.827738	0.000109	20.730222
2039.541260	-2.984800	3.315300	-9.894100	26.843147	0.000107	20.749509
2040.541817	-3.001500	3.314100	-9.946200	26.883180	0.000110	20.738080
2041.544398	-3.004700	3.315800	-9.961900	26.861091	0.000109	20.746215
2042.545190	-2.989000	3.314700	-9.906700	26.830439	0.000107	20.771346
2043.544219	-3.030700	3.312900	-10.039000	26.848456	0.000109	20.743468
2044.541829	-3.018500	3.313900	-10.002000	26.847568	0.000106	20.751110
2045.542892	-3.003300	3.313000	-9.949000	26.870001	0.000106	20.747588
2046.545142	-2.975600	3.314400	-9.860200	26.843122	0.000110	20.745217
2047.544662	-3.028300	3.311600	-10.026000	26.851855	0.000106	20.755421
2048.545609	-2.992700	3.312100	-9.910800	26.861311	0.000106	20.738375
2049.547066	-3.001900	3.311500	-9.940300	26.851782	0.000106	20.737803
2050.547338	-3.001600	3.311400	-9.937900	26.815912	0.000106	20.734927
2051.545395	-3.012900	3.311500	-9.975200	26.846546	0.000105	20.754824
2052.550578	-3.000000	3.310100	-9.929600	26.863841	0.000106	20.745186
2053.544518	-2.987800	3.311200	-9.892200	26.924915	0.000104	20.737846
2054.546201	-2.994600	3.310200	-9.911200	26.874932	0.000103	20.735949
2055.547300	-2.999500	3.309200	-9.925000	26.929772	0.000106	20.715701
2056.546230	-3.013000	3.309100	-9.969300	26.897009	0.000104	20.743924
2057.546134	-2.988900	3.311400	-9.896800	26.853528	0.000104	20.757103
2058.548175	-2.988300	3.308800	-9.886800	26.819642	0.000102	20.741523
2059.549541	-2.956300	3.309100	-9.781800	26.789289	0.000104	20.737557
2060.547289	-2.969600	3.309000	-9.825100	26.820261	0.000104	20.748309
2061.551389	-2.992900	3.308400	-9.901000	26.774688	0.000101	20.731886
2062.546556	-2.971700	3.308800	-9.831300	26.762047	0.000103	20.743359
2063.548761	-3.008800	3.306300	-9.946700	26.806751	0.000102	20.749898
2064.545897	-2.982000	3.307000	-9.860800	26.802556	0.000103	20.728136
2065.546897	-2.999400	3.306500	-9.915500	26.875300	9.912277E-5	20.725414
2066.545946	-2.996900	3.306900	-9.909700	26.883482	0.000100	20.729374
2067.546096	-3.000700	3.304600	-9.915200	26.935872	9.740664E-5	20.730371
2068.549326	-2.996000	3.305200	-9.901700	26.892613	0.000101	20.727650
2069.548714	-3.018700	3.303900	-9.972600	26.906760	0.000101	20.726701
2070.547287	-2.984200	3.305600	-9.863100	26.903728	9.948579E-5	20.726972
2071.546443	-3.000500	3.303700	-9.912000	26.895939	9.734064E-5	20.731942
2072.548005	-3.001500	3.303500	-9.914800	26.865710	9.588853E-5	20.730944
2073.546566	-3.017200	3.302900	-9.964000	26.833717	9.763766E-5	20.736234
2074.550679	-2.996800	3.304100	-9.900500	26.819215	9.572352E-5	20.750103
2075.558280	-3.002100	3.303200	-9.915400	26.846597	9.710962E-5	20.730692
2076.549302	-3.022800	3.302100	-9.980700	26.856671	9.918877E-5	20.740822
2077.550918	-2.997700	3.301500	-9.895500	26.873378	9.720863E-5	20.715894
2078.548183	-3.005100	3.302800	-9.924100	26.849794	9.509647E-5	20.720155
2079.551519	-3.001500	3.301500	-9.908900	26.860395	9.407340E-5	20.742670
2080.549639	-2.998500	3.302500	-9.901700	26.873470	9.542650E-5	20.735428
2081.549975	-3.004600	3.301600	-9.919400	26.859795	9.486546E-5	20.762456
2082.548585	-3.014200	3.300800	-9.948300	26.876324	9.499747E-5	20.740194
2083.548571	-3.011800	3.301400	-9.941500	26.924103	9.384238E-5	20.749831
2084.549153	-3.014200	3.301000	-9.949100	26.903802	9.364437E-5	20.756919
2085.555395	-3.021300	3.299400	-9.967600	26.911248	9.433742E-5	20.720783
2086.559217	-3.016200	3.299500	-9.950500	26.928891	9.301732E-5	20.750854
2087.551732	-3.004200	3.298800	-9.908800	26.957954	9.384238E-5	20.748785
2088.551999	-3.017300	3.298500	-9.951500	26.990085	9.463444E-5	20.733205
2089.550605	-3.044600	3.298300	-10.041000	26.905211	9.097117E-5	20.739369
2090.554932	-2.998700	3.298100	-9.889200	26.918493	9.219226E-5	20.740397
2091.552346	-2.995000	3.298700	-9.879200	26.966166	9.212626E-5	20.739498
2092.551215	-2.981200	3.297400	-9.829600	26.970483	9.305032E-5	20.726769
2093.553622	-3.005100	3.297000	-9.907100	26.941966	9.070715E-5	20.748828
2094.552826	-2.991200	3.297200	-9.861300	26.921769	9.008011E-5	20.752227
2095.555918	-2.983700	3.296000	-9.833300	26.941445	8.938706E-5	20.760159
2096.555055	-3.020200	3.294200	-9.948100	26.979412	9.093817E-5	20.739067
2097.557598	-3.008000	3.295400	-9.911400	26.985743	8.942006E-5	20.729787
2098.553398	-3.005700	3.294700	-9.902000	26.986288	8.790195E-5	20.721326
2099.555012	-3.002400	3.295700	-9.893600	27.003960	8.899103E-5	20.736727
2100.553927	-3.019800	3.294700	-9.948300	27.023861	8.876001E-5	20.742516
2101.559823	-2.994000	3.294900	-9.864200	27.025821	8.892502E-5	20.758712
2102.555723	-3.006700	3.294600	-9.904900	27.046070	8.925505E-5	20.738772
2103.555737	-2.997400	3.293200	-9.870100	27.041882	8.816597E-5	20.726972
2104.554695	-3.007700	3.292200	-9.900000	27.071486	8.724190E-5	20.733038
2105.556584	-3.006000	3.291800	-9.893300	27.098213	8.767093E-5	20.765134
2106.561799	-2.998300	3.292700	-9.871600	27.047392	8.661485E-5	20.741050
2107.557454	-2.991000	3.292400	-9.847100	27.044318	8.648284E-5	20.754080
2108.555913	-2.990900	3.291800	-9.844600	26.993844	8.813297E-5	20.728924
2109.556582	-2.993700	3.292300	-9.854600	27.028459	8.585580E-5	20.740502
2110.557064	-2.985600	3.292500	-9.829200	27.080273	8.499774E-5	20.729072
2111.557030	-3.010700	3.290500	-9.906100	27.031992	8.301759E-5	20.726984
2112.560231	-3.018600	3.289500	-9.928900	27.041152	8.536076E-5	20.739516
2113.558299	-3.015700	3.290300	-9.921500	27.097600	8.529476E-5	20.751241
2114.557149	-3.002000	3.289800	-9.875500	27.118895	8.311660E-5	20.733776
2115.564157	-3.000400	3.288600	-9.866500	27.098898	8.225854E-5	20.753021
2116.561012	-3.002400	3.288300	-9.872300	27.081429	8.456870E-5	20.741616
2117.563977	-2.991300	3.288600	-9.836200	27.046761	8.116946E-5	20.722396
2118.557941	-3.008400	3.287000	-9.888000	27.007039	8.110345E-5	20.735556
2119.559585	-2.992500	3.287400	-9.836400	27.040338	8.371064E-5	20.755767
2120.558996	-3.014400	3.287400	-9.908400	27.094416	8.413967E-5	20.730020
2121.560621	-2.980900	3.286900	-9.796800	27.154761	8.305059E-5	20.756573
2122.559832	-2.983800	3.288000	-9.810200	27.157369	8.103745E-5	20.737859
2123.568575	-3.001500	3.286000	-9.862000	27.080100	8.031139E-5	20.738856
2124.558852	-2.989100	3.286500	-9.822300	27.060727	8.047641E-5	20.745926
2125.559929	-2.995000	3.285100	-9.838400	27.046485	8.130147E-5	20.743930
2126.559007	-2.995100	3.285300	-9.838300	27.087797	8.149948E-5	20.751339
2127.558418	-3.016100	3.285600	-9.908800	27.128053	8.044340E-5	20.764326
2128.561658	-3.005300	3.284200	-9.869400	27.149170	7.905730E-5	20.739570
2129.560154	-3.016700	3.283700	-9.905300	27.132700	8.024539E-5	20.735333
2130.560332	-2.986400	3.284600	-9.808200	27.156125	7.694515E-5	20.741350
2131.560700	-2.980800	3.284300	-9.788600	27.189970	7.829825E-5	20.763063
2132.569424	-2.982000	3.283000	-9.788700	27.173445	7.783621E-5	20.751184
2133.565344	-3.001200	3.281500	-9.847500	27.207510	7.720917E-5	20.764584
2134.561305	-2.999600	3.282600	-9.845400	27.200843	7.707716E-5	20.768784
2135.561337	-2.983100	3.282900	-9.792300	27.190643	7.734118E-5	20.742403
2136.568133	-2.998200	3.282000	-9.839000	27.198387	7.786921E-5	20.754934
2137.562582	-3.039900	3.280100	-9.970000	27.140727	7.664813E-5	20.760950
2138.566843	-2.978200	3.282000	-9.772400	27.117160	7.701115E-5	20.756689
2139.566028	-2.997000	3.279800	-9.828200	27.119022	7.701115E-5	20.748129
2140.562164	-2.990400	3.280100	-9.808100	27.169937	7.740718E-5	20.761406
2141.562559	-3.008600	3.279500	-9.865900	27.159688	8.037740E-5	20.730234
2142.561801	-3.000700	3.279200	-9.839000	27.230994	7.522902E-5	20.750272
2143.564414	-3.025600	3.277600	-9.915800	27.242411	7.536103E-5	20.755119
2144.561722	-3.013600	3.278900	-9.880600	27.145471	7.470098E-5	20.763826
2145.561496	-2.999800	3.277000	-9.829300	27.124575	7.347989E-5	20.748025
2146.563567	-2.984100	3.277400	-9.779200	27.180877	7.618609E-5	20.743012
2147.565110	-3.015900	3.277100	-9.882600	27.210026	7.631810E-5	20.764270
2148.564878	-3.008800	3.277600	-9.860400	27.243997	7.536103E-5	20.755291
2149.564958	-3.008100	3.276600	-9.855700	27.302962	7.390893E-5	20.761973
2150.565434	-2.986200	3.276800	-9.784000	27.240477	7.318287E-5	20.768820
2151.565369	-2.993400	3.275900	-9.805400	27.228906	7.176377E-5	20.768088
2152.568949	-3.007100	3.275100	-9.847900	27.267285	7.394193E-5	20.756905
2153.564301	-2.992600	3.274000	-9.797200	27.259443	7.206079E-5	20.764190
2154.570050	-2.987400	3.274600	-9.781600	27.253321	7.272084E-5	20.763722
2155.567551	-2.996900	3.274300	-9.812100	27.175582	7.057568E-5	20.771826
2156.567521	-3.032900	3.272900	-9.924900	27.159088	7.186278E-5	20.769461
2157.567851	-3.017600	3.272600	-9.874300	27.116310	7.159876E-5	20.768162
2158.567626	-3.012300	3.272600	-9.856600	27.164243	7.146675E-5	20.750463
2159.570458	-3.011400	3.272100	-9.851800	27.163006	7.163176E-5	20.760599
2160.572628	-2.972800	3.274100	-9.731400	27.196526	7.027866E-5	20.762071
2161.569303	-3.012400	3.271700	-9.855000	27.241481	6.892556E-5	20.767460
2162.569451	-3.007600	3.271200	-9.837500	27.204069	6.981663E-5	20.777245
2163.573955	-3.005800	3.271100	-9.831800	27.194414	6.819951E-5	20.767534
2164.572086	-2.985900	3.271500	-9.767500	27.170445	6.935459E-5	20.748167
2165.573893	-2.990600	3.271200	-9.782400	27.182390	6.615336E-5	20.754965
2166.572938	-2.981700	3.269200	-9.747000	27.253400	6.829851E-5	20.788458
2167.572546	-2.994300	3.270600	-9.792600	27.274607	6.843052E-5	20.751467
2168.576485	-2.986600	3.269900	-9.765200	27.310878	6.806750E-5	20.758081
2169.579014	-2.990100	3.268300	-9.771900	27.310608	6.988263E-5	20.738369
2170.578814	-3.014200	3.268900	-9.851500	27.361588	6.978362E-5	20.780169
2171.576273	-2.994800	3.271100	-9.795100	27.365297	6.687941E-5	20.769202
2172.576665	-2.997700	3.268900	-9.798500	27.340732	6.641738E-5	20.770095
2173.579378	-3.008100	3.267600	-9.828300	27.269886	6.793549E-5	20.776591
2174.575656	-3.003100	3.268200	-9.814000	27.204834	6.786948E-5	20.785126
2175.576718	-3.032100	3.265500	-9.900500	27.123325	6.565832E-5	20.761941
2176.575934	-2.977900	3.267300	-9.728500	27.116707	6.711043E-5	20.786579
2177.581836	-2.991300	3.266300	-9.769500	27.178116	6.565832E-5	20.769158
2178.577273	-2.999300	3.264500	-9.790300	27.235781	6.595534E-5	20.761726
2179.577378	-3.009800	3.264200	-9.823000	27.323855	6.367818E-5	20.764971
2180.580493	-2.993100	3.265100	-9.771900	27.352980	6.291912E-5	20.756337
2181.580561	-2.999200	3.264800	-9.790400	27.323806	6.582333E-5	20.768715
2182.578229	-3.012000	3.263600	-9.829200	27.389922	6.470125E-5	20.783543
2183.578729	-3.002100	3.262800	-9.794200	27.422174	6.305113E-5	20.761460
2184.576928	-2.994000	3.262700	-9.767600	27.464248	6.486626E-5	20.788617
2185.581172	-3.005300	3.262300	-9.803600	27.458042	6.298513E-5	20.768622
2186.581459	-2.994600	3.262500	-9.768700	27.442813	6.291912E-5	20.766104
2187.578783	-3.016000	3.260900	-9.834800	27.457185	6.311713E-5	20.785778
2188.581975	-2.992100	3.259700	-9.752500	27.462222	6.318314E-5	20.768560
2189.582714	-2.983800	3.260600	-9.728200	27.413824	6.334815E-5	20.778191
2190.580473	-2.988400	3.261300	-9.745200	27.371007	6.169803E-5	20.773524
2191.588069	-3.013500	3.260000	-9.823300	27.399115	6.473425E-5	20.788524
2192.583585	-2.982100	3.260100	-9.721200	27.463893	6.166503E-5	20.760758
2193.582150	-2.995700	3.259100	-9.762200	27.471507	6.153302E-5	20.775531
2194.582471	-3.000400	3.259400	-9.778400	27.434195	6.100498E-5	20.784460
2195.582948	-2.989600	3.259700	-9.744400	27.391727	6.021292E-5	20.777298
2196.584347	-3.004700	3.257600	-9.787100	27.366648	5.882682E-5	20.775777
2197.587372	-2.981700	3.259700	-9.717800	27.333134	5.909084E-5	20.788530
2198.586593	-2.973000	3.258000	-9.685100	27.372011	5.968488E-5	20.794448
2199.585462	-2.996800	3.257300	-9.760600	27.391660	5.872781E-5	20.794300
2200.590490	-2.983500	3.259100	-9.723200	27.434421	5.866181E-5	20.773782
2201.590395	-2.991900	3.255900	-9.739500	27.472327	5.945387E-5	20.777304
2202.587375	-2.980200	3.257000	-9.705400	27.449656	5.747372E-5	20.781048
2203.586794	-3.007300	3.254700	-9.787000	27.461444	5.631864E-5	20.771097
2204.586309	-2.981500	3.254500	-9.702300	27.470791	5.988290E-5	20.788561
2205.586803	-2.993900	3.253100	-9.738500	27.497850	5.734171E-5	20.812466
2206.587663	-3.016100	3.253300	-9.811100	27.498474	5.625263E-5	20.781800
2207.586638	-3.004200	3.253200	-9.772000	27.512686	5.786975E-5	20.791831
2208.588420	-3.015100	3.251800	-9.803900	27.538214	5.829878E-5	20.793807
2209.585877	-2.997300	3.253200	-9.749300	27.535912	5.651665E-5	20.782009
2210.586811	-2.982900	3.252500	-9.701200	27.529706	5.628563E-5	20.807533
2211.587236	-2.996500	3.251700	-9.742600	27.515397	5.720970E-5	20.779860
2212.590535	-2.993800	3.251300	-9.732600	27.481103	5.717670E-5	20.779496
2213.587102	-3.021400	3.251200	-9.821100	27.476440	5.621963E-5	20.804201
2214.587801	-3.013500	3.249900	-9.792900	27.422387	5.529556E-5	20.794866
2215.590733	-2.984700	3.252500	-9.706300	27.491521	5.536157E-5	20.790925
2216.590559	-3.026100	3.249300	-9.831800	27.479169	5.351343E-5	20.767593
2217.590766	-3.004000	3.249300	-9.759500	27.467338	5.516355E-5	20.815907
2218.588749	-2.990400	3.250400	-9.719000	27.518096	5.582360E-5	20.781152
2219.591196	-2.997900	3.249800	-9.741700	27.472302	5.390946E-5	20.789607
2220.590464	-3.009200	3.247900	-9.772700	27.492653	5.334842E-5	20.795857
2221.590386	-2.994500	3.247600	-9.723900	27.479334	5.348043E-5	20.800476
2222.592687	-2.983700	3.247200	-9.687600	27.498112	5.242435E-5	20.806566
2223.596281	-3.015000	3.245700	-9.784700	27.433300	5.202832E-5	20.809164
2224.592128	-3.020700	3.247600	-9.809300	27.453982	5.291939E-5	20.795833
2225.590238	-3.046900	3.244500	-9.884100	27.490828	5.334842E-5	20.796393
2226.590974	-2.991100	3.246900	-9.711100	27.556665	5.318341E-5	20.801467
2227.596468	-2.972000	3.246200	-9.647000	27.555325	5.384346E-5	20.806282
2228.592671	-2.993200	3.246500	-9.716500	27.565986	5.216033E-5	20.800414
2229.591336	-3.022000	3.244100	-9.802900	27.618648	5.140128E-5	20.791762
2230.592815	-3.026400	3.243400	-9.814900	27.636481	5.559258E-5	20.798326
2231.594396	-3.021500	3.243300	-9.799100	27.616623	5.146728E-5	20.792094
2232.593240	-2.998400	3.244600	-9.727400	27.634976	5.245735E-5	20.812458
2233.600498	-3.019300	3.241600	-9.786100	27.574315	5.031220E-5	20.814958
2234.592925	-2.977700	3.242200	-9.653000	27.613826	5.285338E-5	20.792599
2235.594418	-2.995600	3.241600	-9.709300	27.620949	4.945413E-5	20.814939
2236.596125	-3.001200	3.242600	-9.730400	27.651407	5.159929E-5	20.794378
2237.595094	-3.003300	3.242500	-9.736600	27.732679	4.961915E-5	20.801244
2238.597947	-2.994200	3.240800	-9.702700	27.690792	5.074123E-5	20.805561
2239.598084	-2.973600	3.240400	-9.635000	27.688938	4.836505E-5	20.800376
2240.597098	-3.042600	3.238300	-9.851600	27.647380	4.935513E-5	20.812611
2241.596978	-3.000300	3.239500	-9.718500	27.609958	5.202832E-5	20.798664
2242.600607	-3.020900	3.239900	-9.786400	27.583318	5.179731E-5	20.814059
2243.596814	-2.992300	3.239500	-9.692700	27.513779	4.942113E-5	20.821380
2244.598240	-2.992500	3.239200	-9.692800	27.505192	4.826605E-5	20.810370
2245.598193	-2.991200	3.238100	-9.684700	27.572840	5.107125E-5	20.806835
2246.600571	-3.002400	3.237400	-9.718700	27.576016	4.876108E-5	20.791065
2247.599356	-2.978600	3.237300	-9.642000	27.578550	4.925612E-5	20.825382
2248.598492	-3.003600	3.236900	-9.722000	27.584749	4.790302E-5	20.813603
2249.600342	-2.988000	3.235900	-9.668600	27.567295	4.862907E-5	20.797463
2250.598795	-2.983300	3.237900	-9.658200	27.577864	4.935513E-5	20.822796
2251.598726	-3.017000	3.234700	-9.758600	27.571414	4.915711E-5	20.823418
2252.599054	-3.017600	3.234300	-9.758600	27.605092	4.899210E-5	20.826010
2253.599364	-2.990500	3.235500	-9.674800	27.608960	4.645091E-5	20.795763
2254.598913	-3.016800	3.233800	-9.755200	27.579107	4.588987E-5	20.824046
2255.598844	-3.017000	3.233600	-9.755000	27.583819	4.777101E-5	20.825468
2256.597770	-3.001300	3.233000	-9.702800	27.612595	4.720997E-5	20.817439
2257.598964	-2.985300	3.232700	-9.649600	27.611083	4.641791E-5	20.798374
2258.601450	-2.999300	3.231500	-9.690800	27.580728	4.569186E-5	20.820462
2259.600125	-2.987000	3.232600	-9.655400	27.627827	4.625290E-5	20.828498
2260.604085	-2.988500	3.231300	-9.655900	27.689757	4.522982E-5	20.833442
2261.603577	-2.999500	3.231500	-9.692600	27.689659	4.582387E-5	20.823861
2262.603950	-3.013100	3.230200	-9.732300	27.653995	4.354670E-5	20.815948
2263.606687	-3.009800	3.229600	-9.719600	27.690981	4.529583E-5	20.820450
2264.604833	-3.011800	3.230100	-9.727800	27.723615	4.384372E-5	20.811090
2265.610274	-2.998500	3.229500	-9.682900	27.744225	4.265564E-5	20.847476
2266.607770	-2.999300	3.229900	-9.686300	27.734557	4.357970E-5	20.815462
2267.606519	-3.004900	3.228400	-9.699900	27.780406	4.364571E-5	20.820825
2268.606415	-3.000500	3.228700	-9.686400	27.750081	4.447077E-5	20.818756
2269.608180	-3.012000	3.227400	-9.719700	27.721541	4.466878E-5	20.828442
2270.607180	-3.015300	3.225800	-9.725800	27.653891	4.222660E-5	20.830068
2271.608349	-2.995300	3.227200	-9.665600	27.668253	4.473479E-5	20.819865
2272.606908	-3.021500	3.225800	-9.745900	27.724998	4.417375E-5	20.827180
2273.609753	-2.977500	3.225900	-9.604700	27.808645	4.229261E-5	20.826484
2274.607681	-2.996800	3.225200	-9.664100	27.854338	4.427275E-5	20.826952
2275.613163	-3.029400	3.224800	-9.768700	27.848960	4.202859E-5	20.829600
2276.610010	-2.987600	3.224400	-9.632300	27.847149	4.288665E-5	20.837260
2277.607839	-3.005500	3.222700	-9.685300	27.780896	4.051048E-5	20.826533
2278.606576	-3.003900	3.223100	-9.680600	27.728297	4.064249E-5	20.833818
2279.610998	-3.004800	3.224200	-9.687400	27.746348	4.024646E-5	20.838707
2280.607130	-2.988900	3.222300	-9.629200	27.740700	4.041147E-5	20.847248
2281.609464	-2.999000	3.221300	-9.659900	27.694720	4.219360E-5	20.832272
2282.607535	-2.980100	3.222000	-9.600400	27.713096	4.186358E-5	20.841281
2283.608113	-3.005400	3.222500	-9.684500	27.693313	4.051048E-5	20.838916
2284.607709	-3.011200	3.220600	-9.696900	27.746825	4.093951E-5	20.832549
2285.609058	-2.995300	3.221600	-9.648700	27.731130	4.070849E-5	20.848522
2286.608683	-3.002800	3.219800	-9.667600	27.698942	4.047748E-5	20.852168
2287.610684	-3.003000	3.220100	-9.669000	27.712754	4.018045E-5	20.840936
2288.610464	-3.014900	3.219500	-9.705400	27.769147	4.136854E-5	20.840314
2289.610731	-3.005800	3.219800	-9.677000	27.784671	3.605515E-5	20.854039
2290.613979	-2.979100	3.218100	-9.585600	27.731931	3.853033E-5	20.855493
2291.610257	-2.993300	3.217800	-9.631100	27.731503	3.704522E-5	20.849372
2292.615467	-3.003100	3.217400	-9.661300	27.692719	3.938840E-5	20.850172
2293.611905	-2.988600	3.217300	-9.614200	27.688992	3.886036E-5	20.853535
2294.612146	-2.998100	3.215800	-9.640600	27.620942	3.635217E-5	20.840062
2295.615657	-2.993600	3.216100	-9.627100	27.675107	3.707823E-5	20.863744
2296.614263	-3.003200	3.216200	-9.657400	27.740871	3.882735E-5	20.853584
2297.612575	-2.998500	3.215600	-9.641100	27.802544	3.549411E-5	20.859698
2298.614515	-3.001400	3.215200	-9.649500	27.862457	3.697922E-5	20.844132
2299.615919	-3.021800	3.212500	-9.706600	27.906344	3.826631E-5	20.857956
2300.615827	-3.007600	3.213000	-9.662700	27.963890	3.503208E-5	20.857081
2301.615808	-2.993700	3.212500	-9.616000	27.936622	3.460304E-5	20.846232
2302.615715	-2.987400	3.213300	-9.598900	27.953899	3.622016E-5	20.847500
2303.615819	-3.019100	3.210500	-9.692100	27.973715	3.556011E-5	20.861755
2304.616051	-2.987300	3.212200	-9.594500	27.975765	3.529610E-5	20.858128
2305.617764	-2.988800	3.211400	-9.597500	27.951599	3.483406E-5	20.837599
2306.621783	-3.013000	3.211600	-9.675100	27.923365	3.589014E-5	20.868922
2307.616706	-2.979500	3.209000	-9.560300	27.884135	3.453704E-5	20.871163
2308.617512	-3.017900	3.209900	-9.685600	27.866477	3.760626E-5	20.856712
2309.615999	-3.008300	3.212300	-9.662600	27.860506	3.496607E-5	20.869667
2310.617711	-2.991300	3.208700	-9.598000	27.855898	3.258990E-5	20.868349
2311.616037	-2.992200	3.208300	-9.599500	27.817639	3.321694E-5	20.861139
2312.616090	-3.009300	3.208100	-9.653300	27.820845	3.460304E-5	20.861047
2313.618803	-2.992600	3.208000	-9.599300	27.813038	3.357997E-5	20.860302
2314.618412	-2.992800	3.206200	-9.595000	27.800739	3.285392E-5	20.851718
2315.616073	-3.003100	3.206400	-9.628100	27.825318	3.301893E-5	20.862703
2316.617130	-3.011500	3.204900	-9.650900	27.855892	3.486706E-5	20.865024
2317.617936	-2.988500	3.205800	-9.579800	27.877398	3.361297E-5	20.866755
2318.617286	-2.997800	3.204800	-9.606000	27.870479	3.394300E-5	20.875437
2319.623449	-3.002400	3.203700	-9.618100	27.858780	3.476806E-5	20.861767
2320.617522	-3.002400	3.203900	-9.617900	27.875447	3.536210E-5	20.859101
2321.618650	-2.989300	3.203600	-9.575200	27.816660	3.272191E-5	20.865369
2322.620950	-3.005700	3.202700	-9.625500	27.758886	3.272191E-5	20.866496
2323.616920	-2.998600	3.201700	-9.599600	27.758543	3.097278E-5	20.854772
2324.623759	-2.988500	3.202800	-9.570800	27.772311	3.245789E-5	20.856773
2325.622694	-3.023600	3.201000	-9.677800	27.770133	3.268890E-5	20.861219
2326.618711	-3.019600	3.201100	-9.664700	27.776288	3.192985E-5	20.867414
2327.618224	-3.006900	3.199400	-9.619600	27.778840	3.080777E-5	20.855283
2328.620830	-3.010100	3.199500	-9.629300	27.825814	2.991670E-5	20.866047
2329.620579	-3.005600	3.198700	-9.613100	27.819866	2.915764E-5	20.859587
2330.624284	-3.003700	3.198400	-9.606000	27.819426	3.206186E-5	20.855825
2331.623425	-3.004600	3.197700	-9.606900	27.823446	2.955367E-5	20.863190
2332.621019	-3.004700	3.197600	-9.606500	27.805120	3.087377E-5	20.859920
2333.630060	-2.989000	3.196000	-9.551900	27.869898	3.159982E-5	20.824594
2334.621238	-3.010300	3.197600	-9.624900	27.944974	3.179784E-5	20.862223
2335.629833	-3.008500	3.196000	-9.614100	27.986440	3.232588E-5	20.848486
2336.620998	-3.006100	3.195000	-9.604000	28.026621	3.084077E-5	20.842463
2337.621524	-3.021100	3.193700	-9.647700	27.979081	2.961968E-5	20.848190
2338.622298	-3.018200	3.194400	-9.641000	27.914420	3.143481E-5	20.852334
2339.623385	-3.001300	3.194100	-9.585200	27.871305	2.760653E-5	20.860622
2340.624978	-2.990200	3.195100	-9.553300	27.922044	3.126980E-5	20.856688
2341.624333	-2.993600	3.191400	-9.552600	27.901309	2.895963E-5	20.843406
2342.623721	-2.962400	3.193600	-9.459600	27.952266	2.994970E-5	20.842538
2343.626461	-2.958800	3.191800	-9.442800	27.934298	2.948767E-5	20.838203
2344.624759	-2.988300	3.190500	-9.532900	27.951728	3.021372E-5	20.833935
2345.623970	-2.997800	3.189800	-9.561300	27.937553	2.813457E-5	20.823935
2346.625664	-2.972200	3.189400	-9.478800	27.927807	3.060975E-5	20.828825
2347.625160	-2.975700	3.189900	-9.491000	27.965922	2.928965E-5	20.847273
2348.625150	-2.998400	3.188700	-9.560100	27.927721	2.829958E-5	20.832532
2349.627265	-2.986300	3.188100	-9.518800	27.953031	2.928965E-5	20.839040
2350.625748	-3.006100	3.189200	-9.586100	27.928095	2.839859E-5	20.806355
2351.631758	-2.997800	3.188300	-9.557000	27.957253	2.938866E-5	20.818634
2352.627942	-3.003300	3.186600	-9.569800	28.027716	2.796956E-5	20.817963
2353.627794	-2.993000	3.186300	-9.536000	28.113265	2.810157E-5	20.839595
2354.627573	-2.991900	3.185800	-9.530400	28.044105	2.905864E-5	20.822131
2355.629458	-3.006900	3.185000	-9.576300	28.098266	2.635244E-5	20.834927
2356.630697	-3.004400	3.185500	-9.569400	28.144009	2.664946E-5	20.818862
2357.627409	-3.003300	3.183100	-9.559100	28.180293	2.519735E-5	20.824570
2358.627457	-2.993900	3.183600	-9.530400	28.203976	2.681447E-5	20.800050
2359.629206	-2.991800	3.183700	-9.523400	28.192489	2.813457E-5	20.837796
2360.628697	-2.985100	3.182100	-9.498400	28.199413	2.549438E-5	20.815844
2361.628425	-2.984500	3.182500	-9.496600	28.189248	2.760653E-5	20.815567
2362.631695	-3.022100	3.179900	-9.608500	28.208533	2.635244E-5	20.807482
2363.627963	-2.977000	3.180700	-9.467700	28.210239	2.499934E-5	20.807778
2364.627382	-2.986400	3.179700	-9.494800	28.179253	2.843159E-5	20.807876
2365.630193	-2.982100	3.180000	-9.482100	28.108929	2.414128E-5	20.827168
2366.629103	-3.001700	3.179300	-9.542600	28.106971	2.556038E-5	20.806706
2367.629601	-2.970400	3.178000	-9.438900	28.105552	2.410827E-5	20.806700
2368.630835	-2.987400	3.177400	-9.491000	28.145440	2.523036E-5	20.812716
2369.633465	-3.023100	3.175600	-9.599300	28.116140	2.476832E-5	20.803609
2370.627880	-2.985100	3.176900	-9.481900	28.159399	2.569239E-5	20.817285
2371.630835	-3.007000	3.174600	-9.544900	28.165668	2.622043E-5	20.820752
2372.628834	-2.990000	3.175600	-9.494400	28.136418	2.298619E-5	20.794150
2373.627067	-2.992100	3.174500	-9.497400	28.144174	2.301919E-5	20.820924
2374.631589	-3.015700	3.172300	-9.565600	28.117125	2.496634E-5	20.815506
2375.628426	-2.985500	3.174100	-9.474900	28.153894	2.589040E-5	20.817907
2376.630184	-2.997900	3.172700	-9.510400	28.151961	2.308520E-5	20.807901
2377.628694	-2.986600	3.172200	-9.473200	28.129579	2.618743E-5	20.789163
2378.632141	-3.007400	3.171100	-9.535900	28.100670	2.268917E-5	20.787562
2379.631063	-3.034700	3.169100	-9.616300	28.008470	2.189711E-5	20.798590
2380.631424	-3.007700	3.168600	-9.529900	28.028328	2.285418E-5	20.792500
2381.632419	-2.989500	3.169900	-9.475500	27.998896	2.067602E-5	20.792746
2382.632765	-3.034900	3.168400	-9.614700	27.981394	2.120406E-5	20.792198
2383.635537	-2.993400	3.168500	-9.483700	27.984966	2.216113E-5	20.809545
2384.632946	-2.985900	3.167100	-9.455700	28.003913	2.173210E-5	20.784994
2385.635474	-2.988300	3.166900	-9.463500	27.996767	2.047801E-5	20.787284
2386.634546	-3.010900	3.166100	-9.532400	28.018656	2.255716E-5	20.824490
2387.634068	-3.020200	3.166300	-9.561900	28.040397	2.100605E-5	20.777148
2388.638494	-2.998500	3.164100	-9.487000	28.039388	2.130307E-5	20.796047
2389.636407	-2.991700	3.162900	-9.461400	27.983204	2.298619E-5	20.794969
2390.637103	-2.999500	3.163400	-9.487700	27.973012	1.899290E-5	20.788978
2391.635365	-3.016500	3.162100	-9.537300	27.967280	2.090704E-5	20.786053
2392.635969	-3.001700	3.161100	-9.487900	27.983425	2.087404E-5	20.793769
2393.635966	-2.989300	3.161700	-9.450200	27.957387	2.027999E-5	20.824933
2394.636331	-3.014800	3.160500	-9.527800	27.979607	1.866287E-5	20.805099
2395.635015	-3.008000	3.160200	-9.504400	28.008164	1.889389E-5	20.790696
2396.634623	-2.988500	3.160600	-9.444300	28.061637	1.806883E-5	20.793787
2397.637331	-3.002100	3.158600	-9.481500	28.084099	1.763980E-5	20.810234
2398.634295	-3.002800	3.156000	-9.475500	28.065185	1.965295E-5	20.806842
2399.638137	-2.994100	3.157100	-9.451500	28.060841	2.051101E-5	20.796305
2400.642884	-3.007400	3.155900	-9.489600	28.058737	1.919091E-5	20.788023
2401.635982	-3.009200	3.155200	-9.492800	27.983663	1.985096E-5	20.798750
2402.636510	-2.998500	3.154300	-9.457200	27.988569	1.763980E-5	20.805585
2403.636436	-2.965000	3.154000	-9.350900	27.999159	1.767280E-5	20.777838
2404.636287	-2.993900	3.153400	-9.440200	28.005681	2.018098E-5	20.775393
2405.636423	-2.972200	3.152700	-9.369100	28.104769	1.707876E-5	20.767505
2406.637099	-2.999200	3.152700	-9.454300	28.199340	1.598968E-5	20.779735
2407.639933	-3.024300	3.148900	-9.522200	28.202361	1.618769E-5	20.798424
2408.637905	-2.985400	3.150800	-9.405700	28.209866	1.754079E-5	20.763305
2409.645767	-3.004300	3.149100	-9.460200	28.201193	1.816784E-5	20.792506
2410.638870	-3.002400	3.148500	-9.452400	28.172250	1.658372E-5	20.769531
2411.637949	-3.009200	3.148900	-9.474600	28.170629	1.724377E-5	20.788288
2412.637796	-3.027600	3.147600	-9.527700	28.084289	1.829985E-5	20.781028
2413.638927	-3.015400	3.145100	-9.483200	28.030120	1.559365E-5	20.792408
2414.638072	-2.995300	3.144700	-9.418400	28.022363	1.717776E-5	20.771323
2415.638675	-3.002000	3.144600	-9.439400	28.044520	1.516462E-5	20.782721
2416.638258	-2.986600	3.144400	-9.390400	27.998835	1.483459E-5	20.783676
2417.637244	-3.022600	3.142400	-9.496700	27.991273	1.592367E-5	20.772271
2418.640532	-2.990600	3.141900	-9.395800	28.101423	1.503261E-5	20.796854
2419.640713	-2.988900	3.142200	-9.390900	28.166891	1.879488E-5	20.795431
2420.644295	-2.993600	3.141000	-9.401500	28.244399	1.519762E-5	20.781003
2421.637771	-2.958900	3.140400	-9.290400	28.217732	1.321747E-5	20.794932
2422.638935	-2.993900	3.139300	-9.397600	28.133580	1.334948E-5	20.762843
2423.638603	-2.971300	3.138000	-9.323200	28.154523	1.377851E-5	20.796730
2424.640393	-2.982800	3.136300	-9.353500	28.157771	1.325048E-5	20.772499
2425.639534	-2.980900	3.137400	-9.351400	28.195181	1.354750E-5	20.774125
2426.641926	-2.974100	3.135600	-9.323900	28.211395	1.186437E-5	20.786656
2427.640197	-3.019900	3.133700	-9.462800	28.218955	1.196338E-5	20.764395
2428.640513	-3.004100	3.134000	-9.414000	28.254949	1.490060E-5	20.781668
2429.639944	-3.002400	3.133000	-9.405500	28.274185	1.407554E-5	20.752670
2430.639259	-3.017000	3.131600	-9.446700	28.257482	1.249142E-5	20.784692
2431.643067	-2.996700	3.130900	-9.381900	28.231897	1.427355E-5	20.776951
2432.639290	-2.975900	3.131100	-9.316900	28.265261	1.216140E-5	20.778774
2433.639630	-2.982300	3.130300	-9.334600	28.323956	1.245842E-5	20.773386
2434.640598	-2.991000	3.129500	-9.359800	28.345342	1.226040E-5	20.762203
2435.640124	-3.009300	3.128500	-9.412900	28.347929	1.460357E-5	20.770498
2436.640583	-3.005900	3.127300	-9.399100	28.295083	1.232641E-5	20.778928
2437.641434	-2.993100	3.126400	-9.356600	28.270172	1.351449E-5	20.787512
2438.640956	-2.993400	3.125600	-9.355200	28.237635	1.315147E-5	20.789840
2439.640877	-3.023000	3.125100	-9.445700	28.235353	1.565965E-5	20.753403
2440.639191	-3.001300	3.124100	-9.375900	28.210362	1.146834E-5	20.745312
2441.645669	-2.979100	3.123600	-9.304700	28.151221	1.206239E-5	20.759266
2442.639203	-3.018000	3.122000	-9.421700	28.136393	1.447156E-5	20.759512
2443.638744	-3.012900	3.121700	-9.403900	28.232790	1.377851E-5	20.776428
2444.638879	-3.014400	3.118100	-9.397600	28.332872	1.437256E-5	20.778571
2445.639327	-2.997100	3.119300	-9.348400	28.422739	1.325048E-5	20.764272
2446.641094	-2.992100	3.118700	-9.330200	28.394285	1.325048E-5	20.765491
2447.639210	-3.007900	3.118400	-9.378300	28.373939	1.255742E-5	20.767764
2448.640405	-3.002600	3.116500	-9.357000	28.358521	1.315147E-5	20.768835
2449.639371	-3.009700	3.116100	-9.376800	28.405060	1.242541E-5	20.770177
2450.640571	-2.987900	3.114900	-9.305900	28.368373	1.265643E-5	20.765005
2451.641481	-3.026900	3.112300	-9.420200	28.423369	1.186437E-5	20.771070
2452.642634	-3.003200	3.112400	-9.346500	28.453027	1.143534E-5	20.781022
2453.650553	-3.026100	3.110500	-9.411800	28.438626	1.034626E-5	20.765571
2454.639636	-3.005500	3.110800	-9.347700	28.422121	1.252442E-5	20.755589
2455.640230	-2.998900	3.110000	-9.326000	28.401500	9.785220E-6	20.768964
2456.641742	-2.994300	3.108300	-9.306000	28.342810	1.150135E-5	20.760602
2457.643922	-3.023600	3.105600	-9.389100	28.366875	1.021425E-5	20.751167
2458.640995	-2.995600	3.106700	-9.305900	28.420354	1.275544E-5	20.763767
2459.641396	-2.995800	3.107200	-9.307600	28.438540	8.795147E-6	20.733715
2460.646383	-3.003500	3.105400	-9.326000	28.480672	8.993162E-6	20.759074
2461.642462	-2.985500	3.104700	-9.267200	28.513007	1.070929E-5	20.760817
2462.649208	-2.992700	3.102500	-9.283800	28.474887	1.021425E-5	20.758465
2463.643850	-2.987700	3.104400	-9.274500	28.451596	9.488198E-6	20.777684
2464.641764	-3.006400	3.100800	-9.320900	28.430334	7.310038E-6	20.766704
2465.643773	-2.981000	3.101500	-9.244200	28.450104	1.021425E-5	20.751524
2466.643454	-2.997600	3.099700	-9.291000	28.465146	8.102096E-6	20.751026
2467.651377	-2.998700	3.098200	-9.288600	28.536762	1.067629E-5	20.747756
2468.648658	-2.983900	3.098000	-9.242900	28.565904	1.061028E-5	20.751026
2469.647305	-3.011600	3.094700	-9.318500	28.515826	8.102096E-6	20.779777
2470.649818	-2.988800	3.094400	-9.247300	28.501420	9.290184E-6	20.744880
2471.652814	-3.014700	3.094600	-9.328500	28.447596	8.762145E-6	20.767018
2472.647899	-3.003800	3.092800	-9.289200	28.463330	6.848004E-6	20.779543
2473.648427	-3.005700	3.091900	-9.291800	28.481106	7.937084E-6	20.759511
2474.646716	-2.993600	3.090500	-9.250600	28.499512	5.494905E-6	20.769512
2475.646497	-3.012200	3.089400	-9.304600	28.522558	9.059167E-6	20.738666
2476.647600	-3.023300	3.087200	-9.332300	28.567561	8.300111E-6	20.751272
2477.646707	-2.989400	3.086900	-9.226400	28.610972	6.914009E-6	20.761328
2478.647993	-2.994900	3.085500	-9.239800	28.551645	6.286963E-6	20.749942
2479.646209	-3.025600	3.084700	-9.332200	28.532959	6.682992E-6	20.763366
2480.648318	-3.018800	3.083100	-9.305900	28.569535	6.550982E-6	20.761322
2481.647623	-3.016800	3.083700	-9.301900	28.601892	7.046019E-6	20.735587
2482.647298	-2.988600	3.082600	-9.211300	28.611302	8.201104E-6	20.766402
2483.649755	-3.015500	3.081300	-9.291000	28.543464	9.389191E-6	20.749289
2484.648186	-2.997000	3.080200	-9.229700	28.442600	6.947011E-6	20.725475
2485.650150	-3.003900	3.079600	-9.249900	28.421161	4.075800E-6	20.749406
2486.648622	-3.008600	3.077100	-9.256000	28.441561	6.121951E-6	20.744818
2487.650656	-3.010600	3.076600	-9.261800	28.491391	7.706067E-6	20.732409
2488.649873	-3.010100	3.075300	-9.256300	28.537043	7.244033E-6	20.753729
2489.653968	-3.011200	3.073700	-9.254300	28.488273	6.385970E-6	20.756297
2490.651489	-3.006100	3.073500	-9.238600	28.497268	5.296890E-6	20.733112
2491.649195	-3.006800	3.072600	-9.237900	28.535857	4.702846E-6	20.735464
2492.655947	-2.989300	3.071900	-9.181600	28.533405	7.079021E-6	20.730624
2493.651682	-3.027300	3.069800	-9.292000	28.574586	5.032870E-6	20.737484
2494.654757	-3.001600	3.068900	-9.210500	28.505009	5.560909E-6	20.723837
2495.658769	-3.028500	3.066100	-9.285000	28.476930	5.692919E-6	20.751038
2496.654390	-2.975500	3.066600	-9.123800	28.586289	4.570836E-6	20.741684
2497.652977	-2.987100	3.065800	-9.156300	28.549994	6.781999E-6	20.758237
2498.654715	-2.998500	3.064000	-9.187000	28.575515	5.197883E-6	20.738420
2499.653571	-3.005200	3.063600	-9.206100	28.547041	6.583985E-6	20.745305
2500.656749	-3.004100	3.060400	-9.192600	28.534212	3.085727E-6	20.750878
2501.653139	-2.999700	3.060200	-9.179200	28.554360	4.768851E-6	20.741296
2502.653576	-3.001600	3.059500	-9.182700	28.501603	4.372822E-6	20.730365
2503.654355	-3.000500	3.058200	-9.175500	28.514493	5.494905E-6	20.727225
2504.655532	-3.003100	3.056000	-9.176400	28.559019	2.953717E-6	20.754523
2505.659394	-3.001000	3.055500	-9.169100	28.552006	4.735849E-6	20.734183
2506.655995	-3.005600	3.053700	-9.177900	28.532953	4.042798E-6	20.736332
2507.655156	-3.003200	3.053000	-9.168200	28.587071	4.867858E-6	20.741050
2508.656116	-2.992900	3.053100	-9.136300	28.568013	4.108802E-6	20.731812
2509.655612	-2.975700	3.051200	-9.078300	28.572354	4.801853E-6	20.734762
2510.657542	-3.009900	3.049800	-9.178400	28.561153	3.844783E-6	20.735809
2511.659142	-3.030200	3.048000	-9.235500	28.612366	5.725922E-6	20.729066
2512.657851	-3.019200	3.046700	-9.196900	28.619427	3.976793E-6	20.747559
2513.660566	-3.013700	3.045900	-9.178800	28.662237	4.174807E-6	20.726664
2514.658099	-3.021500	3.044600	-9.198400	28.690984	5.230885E-6	20.721005
2515.657800	-3.003200	3.043900	-9.140700	28.740656	3.382749E-6	20.747331
2516.659026	-3.007000	3.042300	-9.146100	28.722762	5.395897E-6	20.730254
2517.658938	-3.002600	3.041100	-9.130800	28.761838	5.197883E-6	20.722674
2518.658701	-2.984300	3.039900	-9.070900	28.746769	3.976793E-6	20.741634
2519.660002	-2.987800	3.039200	-9.079400	28.675070	2.557688E-6	20.738167
2520.659760	-2.992100	3.038400	-9.090000	28.622136	3.316744E-6	20.736536
2521.666903	-2.984700	3.035800	-9.059600	28.575332	1.798632E-6	20.741080
2522.665175	-3.013700	3.035700	-9.148200	28.543091	2.920715E-6	20.754129
2523.661254	-2.999300	3.033100	-9.096000	28.473206	3.217737E-6	20.727372
2524.667557	-3.011200	3.032300	-9.130000	28.492088	2.029649E-6	20.733112
2525.663968	-3.016000	3.030000	-9.137600	28.536566	3.514759E-6	20.718634
2526.663012	-3.000900	3.029700	-9.090700	28.616896	3.118730E-6	20.732206
2527.664645	-2.973400	3.029900	-9.008400	28.567139	2.524686E-6	20.737570
2528.662572	-2.992100	3.026700	-9.055200	28.556677	3.118730E-6	20.753587
2529.661839	-2.999100	3.026200	-9.075100	28.556799	4.075800E-6	20.725734
2530.664402	-2.997500	3.024400	-9.065000	28.534224	3.679771E-6	20.753735
2531.661645	-2.998300	3.022600	-9.061500	28.562326	2.805207E-7	20.740310
2532.664649	-3.001300	3.021500	-9.067600	28.642972	8.745644E-7	20.740926
2533.662359	-3.008500	3.019900	-9.085100	28.675601	3.250739E-6	20.733961
2534.662541	-2.994200	3.019900	-9.041100	28.647478	3.250739E-6	20.725075
2535.661710	-2.972400	3.019200	-8.973400	28.707221	6.435474E-7	20.741628
2536.665700	-2.979500	3.017500	-8.989600	28.631374	4.455328E-7	20.747737
2537.662674	-3.003000	3.015000	-9.052600	28.618461	3.118730E-6	20.738050
2538.664181	-2.997200	3.014300	-9.033500	28.657755	1.567615E-6	20.748230
2539.664629	-3.005600	3.011700	-9.050400	28.686618	1.831635E-6	20.739368
2540.662951	-3.011000	3.011500	-9.066900	28.676910	1.039577E-6	20.753298
2541.666873	-3.022200	3.009000	-9.093200	28.651984	2.095654E-6	20.760435
2542.662849	-3.001800	3.010000	-9.034100	28.661124	9.075668E-7	20.731707
2543.665729	-3.015200	3.008300	-9.069700	28.672771	-1.650122E-8	20.749129
2544.662370	-3.048800	3.005600	-9.162300	28.736768	3.481756E-6	20.752423
2545.662663	-3.003400	3.004500	-9.022000	28.813940	1.765630E-6	20.752399
2546.663938	-3.002700	3.003700	-9.018100	28.869700	1.798632E-6	20.748827
2547.664258	-3.015800	3.000500	-9.047600	28.939956	1.699625E-6	20.742792
2548.665011	-3.025400	2.999600	-9.074400	28.962174	2.590691E-6	20.754745
2549.664839	-2.967100	2.998400	-8.895500	28.929077	2.260666E-6	20.751746
2550.664961	-2.969800	2.997400	-8.900900	28.935299	4.009795E-6	20.762282
2551.664874	-2.971800	2.997800	-8.908300	28.846344	2.623693E-6	20.746161
2552.666465	-2.996800	2.996000	-8.977300	28.865691	1.501611E-6	20.744787
2553.672100	-2.973600	2.993600	-8.900500	28.909407	1.897640E-6	20.739042
2554.664379	-2.988700	2.992100	-8.941300	28.946166	3.778778E-6	20.748574
2555.665537	-3.007100	2.988900	-8.986800	28.915526	3.217737E-6	20.753741
2556.666268	-3.007200	2.990200	-8.990800	28.905538	3.250739E-6	20.760275
2557.665793	-3.006700	2.986700	-8.979600	28.918649	3.943790E-6	20.766371
2558.664885	-2.999200	2.986500	-8.955100	28.939626	2.095654E-6	20.750995
2559.666628	-3.017500	2.986000	-9.008800	28.992581	1.369601E-6	20.736541
2560.664902	-3.010500	2.982900	-8.979100	28.950054	6.352968E-6	20.762923
2561.664115	-3.010700	2.982300	-8.977400	28.959185	1.798632E-6	20.770226
2562.672174	-3.000200	2.980900	-8.941200	28.869713	3.283742E-6	20.757374
2563.665418	-2.990900	2.978600	-8.907800	28.837756	2.854710E-6	20.753156
2564.667919	-2.996100	2.977300	-8.918600	28.744978	3.613766E-6	20.739356
2565.666770	-2.959600	2.977400	-8.810700	28.689577	2.029649E-6	20.733339
2566.665582	-3.000500	2.975300	-8.925700	28.646432	1.435606E-6	20.749628
2567.666551	-2.993500	2.972500	-8.897000	28.665312	1.930642E-6	20.739245
2568.667111	-3.001600	2.969900	-8.913600	28.737085	1.633620E-6	20.754166
2569.668159	-2.973800	2.971200	-8.834900	28.769241	4.141805E-6	20.745779
2570.673024	-3.005600	2.969500	-8.924300	28.817999	1.303596E-6	20.751746
2571.669317	-3.012600	2.967200	-8.938000	28.859260	2.887713E-6	20.758224
2572.671391	-3.038800	2.964200	-9.006400	28.898130	1.996647E-6	20.767985
2573.667030	-3.014600	2.964700	-8.935900	28.929712	3.481756E-6	20.765189
2574.666850	-3.001200	2.962300	-8.889700	28.831759	7.425547E-7	20.758969
2575.670693	-3.027800	2.959400	-8.959000	28.792465	1.798632E-6	20.770121
2576.675070	-2.994700	2.959500	-8.861100	28.803242	2.722700E-6	20.768176
2577.668526	-2.993400	2.958800	-8.855600	28.846717	-8.250608E-8	20.779728
2578.670104	-3.012300	2.955100	-8.900400	28.868246	2.392676E-6	20.771070
2579.671758	-3.001900	2.954100	-8.867100	28.821422	1.699625E-6	20.774635
2580.674015	-2.995000	2.955000	-8.849300	28.828409	1.600618E-6	20.758914
2581.669497	-3.022600	2.951300	-8.919100	28.819961	4.785352E-7	20.770793
2582.669317	-3.000700	2.950500	-8.852300	28.798578	1.039577E-6	20.767270
2583.667873	-3.001700	2.948600	-8.850000	28.756391	9.075668E-7	20.762233
2584.669919	-3.002900	2.947500	-8.849900	28.771008	1.815134E-7	20.791182
2585.669226	-3.009400	2.944800	-8.861300	28.831875	2.623693E-6	20.760983
2586.672929	-3.007300	2.944200	-8.853200	28.779897	1.072579E-6	20.788755
2587.669323	-3.001200	2.943700	-8.832400	28.768966	-1.336598E-6	20.744079
2588.669713	-3.008600	2.941800	-8.849200	28.765035	3.135231E-7	20.784691
2589.677560	-2.992400	2.940600	-8.798100	28.808512	-1.815134E-7	20.763526
2590.669283	-3.002100	2.937400	-8.817300	28.858404	2.425679E-6	20.791502
2591.670649	-2.992300	2.936400	-8.784500	28.927622	1.930642E-6	20.772092
2592.669947	-2.988400	2.934900	-8.770500	28.914731	3.795279E-7	20.779494
2593.669565	-2.998000	2.933300	-8.793500	28.874511	-1.369601E-6	20.789710
2594.669299	-3.035600	2.931000	-8.896200	28.908845	1.336598E-6	20.782573
2595.673196	-3.004600	2.929100	-8.800000	28.952871	2.260666E-6	20.774771
2596.671909	-3.009600	2.929700	-8.816100	28.920709	1.963645E-6	20.775085
2597.668371	-3.015900	2.926800	-8.826300	28.857873	-4.455328E-7	20.773896
2598.674366	-2.999600	2.924800	-8.771600	28.892134	-1.155085E-7	20.765737
2599.670425	-2.994300	2.923900	-8.754500	28.952816	1.402603E-6	20.776138
2600.673580	-2.994900	2.921800	-8.749400	28.928967	1.237591E-6	20.781982
2601.670212	-2.981500	2.919400	-8.703400	28.913955	-1.369601E-6	20.778238
2602.672869	-3.003000	2.918000	-8.761700	28.967143	-1.930642E-6	20.777770
2603.669905	-2.995000	2.917500	-8.736900	28.953324	8.415620E-7	20.767166
2604.670208	-2.991400	2.916100	-8.722000	28.958898	8.085595E-7	20.776101
2605.674072	-3.014500	2.911800	-8.776300	28.978499	-1.468608E-6	20.764080
2606.670821	-2.966100	2.911700	-8.635300	28.985424	8.415620E-7	20.780067
2607.677401	-3.012900	2.908700	-8.762300	28.952138	1.204589E-6	20.791576
2608.671632	-2.987200	2.908300	-8.686200	28.986891	1.303596E-6	20.782967
2609.674305	-2.983200	2.905900	-8.667000	29.016912	1.534613E-6	20.777178
2610.671748	-2.987800	2.904700	-8.677500	28.977381	7.425547E-7	20.774808
2611.671630	-3.002000	2.902100	-8.711700	28.988205	1.815134E-7	20.794248
2612.671105	-2.990800	2.901500	-8.676900	29.095800	1.567615E-6	20.781273
2613.675606	-3.002600	2.898300	-8.701500	29.096784	1.006574E-6	20.783687
2614.672076	-3.022900	2.896900	-8.756000	29.033579	1.501611E-6	20.782117
2615.672396	-3.022300	2.896200	-8.752600	29.055599	1.485109E-7	20.807623
2616.676646	-3.005600	2.893800	-8.697000	29.096784	5.445401E-7	20.780842
2617.671657	-2.989600	2.892400	-8.645800	29.111298	1.600618E-6	20.783139
2618.675466	-2.991000	2.890300	-8.643800	29.071672	1.650122E-8	20.788257
2619.673254	-3.015800	2.887300	-8.706100	29.051113	6.765498E-7	20.795991
2620.672773	-3.009900	2.887400	-8.689600	29.087818	3.135231E-7	20.790301
2621.674683	-2.988100	2.884500	-8.618300	29.110008	1.204589E-6	20.779943
2622.672940	-3.038000	2.881500	-8.752400	29.127144	4.785352E-7	20.805271
2623.675273	-2.997500	2.880500	-8.633000	29.183243	8.085595E-7	20.754640
2624.674975	-3.014500	2.879300	-8.677800	29.263548	2.557688E-6	20.809963
2625.674784	-3.021800	2.875300	-8.687200	29.292669	2.590691E-6	20.796163
2626.680865	-2.988700	2.874400	-8.589100	29.237523	2.194662E-6	20.799384
2627.676632	-2.995200	2.872700	-8.602500	29.203518	1.864637E-6	20.803996
2628.680367	-3.006100	2.869900	-8.626600	29.172640	-1.633620E-6	20.808916
2629.677346	-2.985400	2.869300	-8.565400	29.208119	1.155085E-7	20.802943
2630.678160	-2.999800	2.867400	-8.600900	29.202082	8.415620E-7	20.797333
2631.678595	-3.010200	2.866200	-8.627300	29.163774	2.821708E-6	20.796188
2632.678874	-3.023800	2.861700	-8.651700	29.225535	1.303596E-6	20.809587
2633.679858	-2.988100	2.862700	-8.552700	29.245718	2.194662E-6	20.795788
2634.684956	-3.002500	2.860200	-8.587200	29.285416	2.788705E-6	20.819199
2635.682417	-3.027700	2.857500	-8.650900	29.294080	3.151732E-6	20.817974
2636.680732	-3.034500	2.854700	-8.661800	29.300123	1.336598E-6	20.820745
2637.686537	-3.004000	2.853400	-8.570900	29.254584	7.095522E-7	20.803300
2638.679192	-3.033200	2.851100	-8.647200	29.304303	1.237591E-6	20.816422
2639.686238	-3.024500	2.849100	-8.615600	29.271467	4.455328E-7	20.790443
2640.681958	-2.987700	2.848300	-8.509000	29.229170	3.135231E-7	20.821312
2641.681613	-3.000300	2.845200	-8.536100	29.248614	3.481756E-6	20.804870
2642.681665	-3.001400	2.843100	-8.532400	29.311708	6.105450E-7	20.792592
2643.681164	-2.989400	2.842100	-8.495200	29.343132	1.765630E-6	20.819520
2644.687359	-3.000800	2.838600	-8.517300	29.308659	1.897640E-6	20.811804
2645.683294	-2.993700	2.837400	-8.493700	29.306013	1.336598E-6	20.814353
2646.682599	-2.997800	2.834600	-8.496700	29.326262	1.138584E-6	20.817217
2647.682969	-3.021000	2.831000	-8.551400	29.318985	2.260666E-6	20.816995
2648.683160	-3.007100	2.829000	-8.505800	29.355877	7.425547E-7	20.826675
2649.681835	-2.991800	2.829100	-8.463300	29.408273	3.135231E-7	20.819741
2650.683799	-2.987900	2.825600	-8.442200	29.378330	4.240812E-6	20.810899
2651.683524	-3.006700	2.822700	-8.486400	29.397404	1.765630E-6	20.818744
2652.683731	-3.006600	2.821600	-8.483200	29.366526	2.475182E-7	20.821761
2653.683941	-2.986700	2.818500	-8.416900	29.381061	1.732628E-6	20.823608
2654.682682	-2.996900	2.815000	-8.436000	29.410723	7.095522E-7	20.804193
2655.686883	-3.014600	2.813600	-8.481300	29.449914	3.019722E-6	20.813350
2656.683261	-2.977000	2.812200	-8.370400	29.483356	1.633620E-6	20.831410
2657.682536	-2.985700	2.809400	-8.387600	29.507499	1.633620E-6	20.830142
2658.682864	-2.998100	2.806200	-8.412700	29.497297	2.359674E-6	20.795203
2659.682248	-2.997400	2.803000	-8.399600	29.499276	1.567615E-6	20.834181
2660.683448	-2.998600	2.801100	-8.398300	29.505037	4.950364E-8	20.803005
2661.685853	-3.013600	2.798000	-8.430900	29.504297	4.785352E-7	20.810794
2662.682034	-2.989100	2.795900	-8.356100	29.541427	1.996647E-6	20.799858
2663.682312	-3.029500	2.792700	-8.458100	29.456830	2.392676E-6	20.825536
2664.684703	-3.019200	2.789100	-8.419800	29.377004	2.227664E-6	20.827580
2665.682337	-2.969800	2.788800	-8.280600	29.421695	-6.765498E-7	20.839908
2666.686401	-2.995800	2.784100	-8.339400	29.450257	2.425679E-6	20.825548
2667.683817	-3.009000	2.781200	-8.367100	29.397514	1.435606E-6	20.827864
2668.683897	-2.996800	2.780100	-8.329700	29.391056	1.600618E-6	20.842691
2669.685321	-2.980600	2.776600	-8.275600	29.416350	2.805207E-7	20.829779
2670.686654	-3.014200	2.772300	-8.355800	29.436120	-3.795279E-7	20.834532
2671.685550	-2.984100	2.770100	-8.265000	29.449004	-4.455328E-7	20.822864
2672.685683	-3.024300	2.767200	-8.367500	29.450801	-7.755571E-7	20.851226
2673.684237	-2.998800	2.763300	-8.285600	29.393953	2.029649E-6	20.809101
2674.686377	-2.989300	2.761300	-8.253400	29.382931	1.815134E-7	20.833553
2675.689150	-3.006500	2.757300	-8.288600	29.372086	1.468608E-6	20.836848
2676.687446	-2.998000	2.755100	-8.258900	29.347317	1.270594E-6	20.832273
2677.689147	-3.017600	2.751800	-8.303400	29.335953	4.785352E-7	20.835992
2678.686614	-2.995100	2.747600	-8.228200	29.260811	4.785352E-7	20.844662
2679.687874	-2.992700	2.745000	-8.214300	29.231591	5.115377E-7	20.842716
2680.695110	-2.967400	2.743600	-8.139900	29.243078	1.155085E-7	20.841017
2681.689082	-3.028000	2.737800	-8.289000	29.244533	1.534613E-6	20.848646
2682.690113	-2.993000	2.734600	-8.184000	29.354875	7.425547E-7	20.841312
2683.687936	-3.049000	2.729300	-8.321100	29.469929	2.293669E-6	20.852488
2684.689606	-2.986900	2.728000	-8.147200	29.559467	-2.805207E-7	20.849336
2685.690070	-2.979000	2.725400	-8.117900	29.556962	8.085595E-7	20.860087
2686.690150	-3.019600	2.720800	-8.215100	29.581030	2.359674E-6	20.842624
2687.691702	-3.022900	2.717300	-8.213400	29.580822	2.425679E-6	20.849527
2688.692907	-2.980600	2.715400	-8.092700	29.586051	4.125304E-7	20.836306
2689.690889	-2.999300	2.710600	-8.129300	29.575966	8.745644E-7	20.846054
2690.692997	-3.019400	2.705400	-8.167900	29.603521	8.250607E-8	20.836848
2691.690492	-3.023400	2.701000	-8.165500	29.546187	6.435474E-7	20.864397
2692.696500	-3.003100	2.697900	-8.101300	29.555166	-1.369601E-6	20.850691
2693.691504	-3.019600	2.693200	-8.131500	29.559742	-1.485109E-7	20.869527
2694.695345	-3.000400	2.690500	-8.071600	29.553847	1.485109E-7	20.858369
2695.691533	-2.972100	2.687100	-7.985600	29.547060	1.864637E-6	20.870494
2696.694324	-2.980500	2.682700	-7.995100	29.606655	2.425679E-6	20.856128
2697.693382	-3.010100	2.677900	-8.060100	29.670937	1.155085E-7	20.849810
2698.695626	-3.007200	2.675200	-8.043400	29.659375	1.105581E-6	20.848111
2699.704899	-2.996800	2.668900	-7.997100	29.775159	1.963645E-6	20.849152
2700.697335	-2.995000	2.665300	-7.981600	29.747070	3.085727E-6	20.856393
2701.703526	-2.975200	2.661100	-7.916600	29.796693	5.115377E-7	20.865174
2702.694613	-2.994400	2.657400	-7.956300	29.839168	2.557688E-6	20.876232
2703.697278	-3.008200	2.652600	-7.978600	29.849189	2.260666E-6	20.862156
2704.694950	-3.027400	2.647300	-8.013900	29.777382	9.405693E-7	20.850919
2705.698954	-3.010500	2.642900	-7.955600	29.781687	-6.105450E-7	20.857157
2706.696847	-3.014300	2.636200	-7.945300	29.723575	2.623693E-6	20.866368
2707.696974	-3.012800	2.632300	-7.929800	29.689689	1.072579E-6	20.875826
2708.699367	-2.975300	2.627800	-7.817900	29.675305	2.128657E-6	20.873653
2709.698302	-3.016000	2.622700	-7.908400	29.737512	2.623693E-6	20.850075
2710.696726	-2.988100	2.617300	-7.819400	29.795709	1.435606E-6	20.865130
2711.698461	-3.008400	2.610900	-7.853500	29.759713	-5.445401E-7	20.853493
2712.696947	-3.013200	2.605400	-7.850100	29.733530	2.359674E-6	20.867871
2713.697332	-3.010200	2.601500	-7.829600	29.774297	2.359674E-6	20.886213
2714.699121	-2.973600	2.597000	-7.721500	29.785907	2.425679E-6	20.865204
2715.696425	-2.981800	2.590700	-7.723600	29.835907	3.052725E-6	20.868677
2716.696877	-2.984000	2.584200	-7.710900	29.782872	-3.465255E-7	20.864040
2717.698089	-2.999000	2.579000	-7.733600	29.780252	-6.765498E-7	20.868511
2718.696302	-2.999500	2.572900	-7.716600	29.876426	3.217737E-6	20.862593
2719.698278	-2.969700	2.569300	-7.628900	29.944361	2.755703E-6	20.868511
2720.698041	-2.986900	2.563100	-7.654600	29.891778	1.303596E-6	20.870961
2721.697097	-2.996800	2.555900	-7.658500	29.986708	2.095654E-6	20.862378
2722.698447	-2.994800	2.549800	-7.635200	30.046889	1.732628E-6	20.887032
2723.698343	-3.031900	2.543200	-7.709500	29.987880	1.204589E-6	20.862137
2724.697929	-2.994300	2.538100	-7.598700	30.009093	1.732628E-6	20.874994
2725.701945	-3.019500	2.529800	-7.638400	30.016194	3.283742E-6	20.871250
2726.697944	-3.013900	2.525000	-7.609600	29.978684	2.145158E-7	20.880363
2727.698577	-2.984800	2.519800	-7.520700	29.937754	2.128657E-6	20.894088
2728.710393	-3.000200	2.513100	-7.539000	29.964316	8.250607E-8	20.876305
2729.703568	-3.000000	2.506200	-7.518000	29.942266	1.402603E-6	20.875881
2730.699890	-2.998100	2.502000	-7.500600	29.989956	1.237591E-6	20.898367
2731.700571	-2.990100	2.494400	-7.457500	30.028589	2.128657E-6	20.876638
