LabVIEW Measurement	
Writer_Version	2
Reader_Version	2
Separator	Tab
Decimal_Separator	.
Multi_Headings	No
X_Columns	One
Time_Pref	Absolute
Operator	admin
Description	Clolumns are: time, Current, Voltage, Power, Battery Temp, and Chamber Temp
Date	2024/08/16
Time	13:07:17.8513970375061035156
***End_of_Header***	
	
Channels	6						
Samples	1	1	1	1	1	1	
Date	2024/09/05	2024/09/05	2024/09/05	2024/09/05	2024/09/05	2024/09/05	
Time	15:30:26.4785680770874023438	15:30:26.4852166175842285156	15:30:26.4921159744262695313	15:30:26.4623551368713378906	15:30:26.4623551368713378906	15:30:26.4623551368713378906	
X_Dimension	Time	Time	Time	Time	Time	Time	
X0	0.0000000000000000E+0	0.0000000000000000E+0	0.0000000000000000E+0	0.0000000000000000E+0	0.0000000000000000E+0	0.0000000000000000E+0	
Delta_X	1.000000	1.000000	1.000000	1.000000	1.000000	1.000000	
***End_of_Header***							
X_Value	Untitled	Untitled 1	Untitled 2	Untitled 3	Untitled 4	Untitled 5	Comment
0.000000	0.004920	4.088500	0.020297	20.777888	0.000465	20.803967
1.000472	-2.995600	3.922200	-11.749000	20.785874	0.000465	20.813375
2.002670	-2.998600	3.916900	-11.745000	20.759024	0.000463	20.800750
3.006326	-3.008900	3.913000	-11.773000	20.777516	0.000462	20.823509
4.004339	-3.020700	3.909600	-11.809000	20.785378	0.000462	20.819991
5.002940	-2.995100	3.907700	-11.703000	20.782087	0.000462	20.830450
6.002576	-2.998200	3.904600	-11.706000	20.802352	0.000462	20.826533
7.003293	-3.008000	3.902100	-11.736000	20.819371	0.000460	20.825061
8.004939	-2.993100	3.901400	-11.676000	20.807220	0.000460	20.816703
9.005489	-2.999600	3.898000	-11.691000	20.823440	0.000459	20.814431
10.006832	-3.011000	3.894700	-11.726000	20.803430	0.000459	20.811964
11.007181	-3.025300	3.894500	-11.781000	20.842312	0.000460	20.809122
12.007568	-3.001400	3.894500	-11.687000	20.828163	0.000458	20.826740
13.008620	-3.005600	3.891700	-11.696000	20.830831	0.000459	20.804279
14.006882	-2.998300	3.892500	-11.669000	20.839765	0.000458	20.811791
15.005252	-3.014200	3.889100	-11.721000	20.834224	0.000457	20.799612
16.005750	-3.006700	3.888000	-11.689000	20.849747	0.000458	20.822721
17.009522	-2.989600	3.887000	-11.620000	20.866217	0.000457	20.818804
18.010561	-2.995400	3.886600	-11.640000	20.871832	0.000458	20.807824
19.006950	-2.998400	3.886600	-11.652000	20.875198	0.000456	20.782266
20.009678	-3.006800	3.885400	-11.682000	20.897506	0.000457	20.778498
21.006162	-3.008500	3.884100	-11.684000	20.892263	0.000455	20.811187
22.006934	-2.993500	3.883600	-11.625000	20.895108	0.000456	20.799807
23.008563	-2.990000	3.883000	-11.610000	20.903515	0.000457	20.808689
24.007534	-3.007400	3.881400	-11.672000	20.908557	0.000454	20.805196
25.007015	-3.003400	3.881200	-11.656000	20.944412	0.000454	20.800278
26.007756	-3.022000	3.879700	-11.723000	20.930710	0.000455	20.776143
27.006830	-3.007300	3.880400	-11.669000	20.929861	0.000452	20.786674
28.007967	-3.017100	3.879900	-11.705000	20.958130	0.000454	20.812102
29.016780	-3.004200	3.879800	-11.655000	20.983554	0.000453	20.804813
30.007505	-3.002200	3.878800	-11.644000	20.943529	0.000452	20.800344
31.007598	-3.010400	3.879400	-11.678000	20.968055	0.000452	20.801640
32.010273	-3.004200	3.878100	-11.650000	20.992905	0.000450	20.789984
33.006901	-3.007700	3.877000	-11.659000	20.990535	0.000451	20.807054
34.007047	-2.995700	3.877600	-11.615000	20.997417	0.000452	20.791178
35.011371	-2.976300	3.878100	-11.541000	21.008095	0.000449	20.796167
36.008184	-2.987100	3.876400	-11.578000	21.024260	0.000449	20.792421
37.007452	-2.982000	3.876500	-11.558000	21.025654	0.000450	20.784807
38.011281	-2.983900	3.876500	-11.566000	21.036183	0.000450	20.800079
39.008379	-2.997200	3.875800	-11.616000	21.038054	0.000450	20.789623
40.008702	-3.006000	3.874400	-11.646000	21.063650	0.000450	20.774921
41.012648	-3.006100	3.876200	-11.652000	21.054067	0.000448	20.803742
42.011502	-2.998000	3.875800	-11.619000	21.073078	0.000449	20.809482
43.010806	-3.008100	3.874400	-11.654000	21.084480	0.000447	20.788644
44.014194	-3.009600	3.874000	-11.658000	21.088744	0.000447	20.794805
45.009019	-2.993300	3.874400	-11.597000	21.096728	0.000447	20.812274
46.012969	-2.996900	3.873700	-11.609000	21.088989	0.000447	20.802163
47.021842	-2.988300	3.872700	-11.572000	21.107603	0.000446	20.792806
48.011895	-2.991200	3.872900	-11.584000	21.116011	0.000445	20.788889
49.012269	-3.009200	3.872200	-11.652000	21.137091	0.000446	20.787216
50.015406	-2.989600	3.872500	-11.576000	21.148542	0.000445	20.806256
51.014334	-3.010600	3.871200	-11.654000	21.152756	0.000447	20.787712
52.011542	-3.008000	3.871200	-11.644000	21.174284	0.000445	20.785065
53.017795	-2.999100	3.870900	-11.608000	21.173289	0.000446	20.789760
54.010944	-2.996100	3.871700	-11.599000	21.198485	0.000446	20.770394
55.012833	-3.006600	3.871400	-11.639000	21.189529	0.000446	20.813118
56.015101	-3.025100	3.869200	-11.703000	21.200855	0.000445	20.788412
57.013075	-3.005400	3.870800	-11.632000	21.183516	0.000445	20.804258
58.014785	-3.009200	3.868300	-11.639000	21.236506	0.000445	20.791833
59.015302	-2.993000	3.870200	-11.583000	21.210214	0.000445	20.780704
60.014959	-3.016600	3.868100	-11.667000	21.224309	0.000444	20.784848
61.013087	-2.989500	3.870000	-11.569000	21.217773	0.000445	20.777835
62.015447	-3.006000	3.869200	-11.629000	21.232194	0.000444	20.782303
63.014102	-2.994700	3.868600	-11.584000	21.243594	0.000443	20.769526
64.014027	-3.016800	3.867900	-11.668000	21.258810	0.000444	20.780481
65.015168	-3.008900	3.867700	-11.636000	21.270312	0.000444	20.791988
66.014346	-3.020500	3.866800	-11.679000	21.249761	0.000446	20.782808
67.015125	-2.997100	3.867800	-11.591000	21.290252	0.000444	20.784435
68.016803	-2.997400	3.867600	-11.591000	21.296435	0.000444	20.784457
69.014840	-3.000100	3.868700	-11.606000	21.295261	0.000444	20.770006
70.017237	-3.022200	3.867100	-11.686000	21.322229	0.000444	20.786554
71.021499	-2.986900	3.867300	-11.550000	21.332209	0.000447	20.787530
72.019029	-3.003800	3.866800	-11.615000	21.326922	0.000443	20.775602
73.016378	-2.997300	3.866900	-11.589000	21.348050	0.000445	20.766395
74.018218	-3.013600	3.865600	-11.647000	21.357956	0.000444	20.784840
75.019016	-2.992200	3.866700	-11.569000	21.336233	0.000444	20.759787
76.017756	-2.987600	3.866300	-11.550000	21.328027	0.000446	20.763905
77.019963	-2.980200	3.866300	-11.522000	21.352873	0.000445	20.780702
78.018209	-2.983500	3.867600	-11.537000	21.383405	0.000446	20.773791
79.018430	-2.970200	3.866300	-11.483000	21.392483	0.000445	20.780030
80.024986	-2.987800	3.865400	-11.548000	21.392908	0.000447	20.754849
81.019693	-3.009200	3.864100	-11.626000	21.400466	0.000450	20.788490
82.020314	-2.993600	3.865400	-11.570000	21.391610	0.000446	20.731265
83.020744	-3.011200	3.865200	-11.638000	21.426233	0.000446	20.755475
84.021667	-3.008300	3.865400	-11.627000	21.431247	0.000447	20.767131
85.022681	-3.027600	3.865500	-11.703000	21.452396	0.000448	20.775964
86.024339	-3.013400	3.864300	-11.644000	21.427354	0.000445	20.755175
87.022854	-3.011100	3.865200	-11.637000	21.443915	0.000447	20.753253
88.022689	-3.007000	3.865400	-11.623000	21.451172	0.000448	20.779955
89.025069	-2.993700	3.865100	-11.570000	21.447431	0.000447	20.784272
90.023736	-2.994400	3.863300	-11.568000	21.463744	0.000446	20.773094
91.024250	-3.000700	3.863400	-11.592000	21.479302	0.000447	20.779652
92.028657	-3.004000	3.863200	-11.604000	21.461920	0.000448	20.757518
93.023687	-3.009800	3.862100	-11.623000	21.473414	0.000446	20.771864
94.023615	-3.016400	3.861400	-11.647000	21.493072	0.000448	20.746962
95.026609	-3.010000	3.863500	-11.628000	21.523542	0.000448	20.760382
96.023559	-3.032900	3.862000	-11.712000	21.519082	0.000447	20.771092
97.037866	-3.026500	3.863400	-11.691000	21.508552	0.000447	20.753443
98.028233	-3.007500	3.864400	-11.620000	21.534441	0.000450	20.773185
99.024713	-3.025500	3.862400	-11.685000	21.523041	0.000446	20.772683
100.027666	-3.010800	3.860800	-11.623000	21.513963	0.000450	20.752693
101.027117	-3.006000	3.863300	-11.612000	21.539375	0.000447	20.773380
102.025386	-3.010000	3.863200	-11.627000	21.551196	0.000448	20.757234
103.026603	-2.988900	3.861900	-11.542000	21.590001	0.000450	20.754339
104.033771	-3.002800	3.861400	-11.594000	21.564067	0.000449	20.757311
105.027470	-3.009000	3.861000	-11.616000	21.565637	0.000449	20.754141
106.029481	-2.981900	3.861300	-11.512000	21.576560	0.000449	20.761278
107.029321	-3.005400	3.861500	-11.604000	21.600075	0.000449	20.748773
108.027597	-3.015200	3.860300	-11.639000	21.631499	0.000449	20.749873
109.032368	-2.983300	3.862000	-11.519000	21.619056	0.000448	20.756387
110.028933	-3.007100	3.861300	-11.610000	21.629179	0.000449	20.769838
111.027352	-2.996700	3.860400	-11.568000	21.621251	0.000449	20.747679
112.033273	-3.028400	3.859900	-11.688000	21.638110	0.000451	20.754119
113.034309	-2.988000	3.860300	-11.533000	21.649206	0.000452	20.756688
114.028579	-2.982500	3.859000	-11.509000	21.655341	0.000451	20.755241
115.031424	-2.996300	3.859100	-11.562000	21.664269	0.000450	20.745209
116.033828	-2.999900	3.860000	-11.578000	21.655366	0.000452	20.752895
117.026415	-2.979400	3.859400	-11.498000	21.677086	0.000452	20.731956
118.031366	-2.996800	3.859100	-11.564000	21.693145	0.000454	20.762254
119.029620	-2.974000	3.859800	-11.478000	21.684295	0.000453	20.725420
120.029564	-2.985100	3.859500	-11.520000	21.709480	0.000453	20.752048
121.031645	-3.004700	3.858300	-11.591000	21.700976	0.000455	20.760608
122.033404	-2.976600	3.861300	-11.492000	21.741594	0.000455	20.743885
123.030138	-3.009100	3.858100	-11.607000	21.761765	0.000454	20.747477
124.034428	-3.035200	3.857800	-11.709000	21.761938	0.000455	20.745754
125.033962	-3.003200	3.857900	-11.585000	21.769169	0.000457	20.741611
126.031513	-3.004300	3.858400	-11.591000	21.774327	0.000455	20.758628
127.033497	-2.998300	3.858600	-11.568000	21.772680	0.000457	20.732797
128.034466	-2.995800	3.857600	-11.555000	21.802601	0.000454	20.727181
129.032665	-2.971300	3.858400	-11.464000	21.801576	0.000455	20.758874
130.032644	-2.986200	3.857700	-11.519000	21.807035	0.000459	20.743474
131.035762	-3.004400	3.857200	-11.588000	21.815386	0.000457	20.741401
132.034247	-3.005700	3.856300	-11.589000	21.850813	0.000457	20.738928
133.033788	-3.008400	3.855700	-11.598000	21.819817	0.000458	20.744888
134.034193	-3.003800	3.855000	-11.579000	21.843977	0.000458	20.709324
135.035577	-3.008400	3.856200	-11.600000	21.860877	0.000458	20.732879
136.038920	-3.007700	3.856200	-11.596000	21.863072	0.000458	20.741715
137.035192	-3.003800	3.856900	-11.584000	21.834643	0.000460	20.741235
138.036415	-3.009800	3.855800	-11.605000	21.833916	0.000458	20.756629
139.037376	-2.995700	3.857200	-11.553000	21.867175	0.000459	20.754357
140.036256	-2.989100	3.856600	-11.526000	21.858172	0.000459	20.742500
141.036592	-2.982100	3.855900	-11.497000	21.856225	0.000457	20.739603
142.036357	-3.008700	3.854900	-11.597000	21.888233	0.000459	20.747934
143.037608	-2.992500	3.855800	-11.538000	21.915779	0.000459	20.759386
144.039838	-2.997100	3.855400	-11.554000	21.901045	0.000459	20.760758
145.039610	-2.980300	3.856300	-11.492000	21.904083	0.000458	20.768541
146.037368	-3.006400	3.854400	-11.587000	21.908746	0.000460	20.751870
147.038096	-2.996800	3.854900	-11.551000	21.935592	0.000460	20.749345
148.035904	-3.010200	3.854600	-11.602000	21.955635	0.000459	20.763719
149.036185	-3.018800	3.854000	-11.633000	21.949549	0.000460	20.749092
150.046619	-3.017100	3.852900	-11.624000	21.941595	0.000461	20.754881
151.038299	-3.007400	3.853000	-11.587000	21.974026	0.000460	20.772171
152.037983	-2.999600	3.852900	-11.557000	21.964079	0.000459	20.744195
153.045390	-2.986200	3.854500	-11.510000	21.967444	0.000460	20.757048
154.040890	-2.990100	3.854000	-11.523000	21.996737	0.000460	20.770250
155.042411	-3.009700	3.853100	-11.596000	22.022485	0.000461	20.745764
156.042086	-2.992200	3.853000	-11.528000	22.016055	0.000459	20.757345
157.045817	-3.020900	3.851600	-11.634000	22.026125	0.000458	20.756047
158.042833	-2.989300	3.852800	-11.517000	22.032880	0.000461	20.760439
159.044482	-2.998500	3.851400	-11.548000	22.031308	0.000459	20.767874
160.042921	-2.992600	3.852200	-11.527000	22.048907	0.000462	20.765103
161.044796	-2.980500	3.852000	-11.479000	22.048835	0.000461	20.765980
162.042191	-3.002600	3.850600	-11.561000	22.036967	0.000464	20.755995
163.043462	-2.991500	3.850800	-11.519000	22.057209	0.000462	20.743542
164.044452	-3.007400	3.850400	-11.579000	22.061794	0.000462	20.753348
165.045239	-3.008800	3.851800	-11.588000	22.057135	0.000463	20.748209
166.044191	-3.007600	3.851800	-11.584000	22.071168	0.000462	20.765103
167.045929	-3.010700	3.851000	-11.593000	22.076901	0.000462	20.771317
168.045982	-3.013300	3.850100	-11.601000	22.089763	0.000464	20.781349
169.044757	-2.999600	3.851500	-11.552000	22.111549	0.000463	20.762856
170.044163	-2.999400	3.850700	-11.549000	22.091682	0.000464	20.771416
171.046003	-3.018600	3.849900	-11.620000	22.107835	0.000464	20.739222
172.047659	-2.968000	3.850700	-11.428000	22.132187	0.000464	20.768345
173.046422	-2.990000	3.849600	-11.509000	22.104318	0.000465	20.744237
174.047559	-2.994700	3.849100	-11.526000	22.126980	0.000465	20.785418
175.046528	-3.005700	3.849300	-11.569000	22.156619	0.000469	20.773839
176.045736	-2.986400	3.849300	-11.495000	22.139891	0.000466	20.778429
177.045859	-2.980100	3.849800	-11.472000	22.171672	0.000467	20.746235
178.046652	-2.981100	3.849300	-11.474000	22.161630	0.000468	20.763209
179.047513	-3.006900	3.848200	-11.570000	22.157142	0.000468	20.765354
180.046947	-3.007800	3.849000	-11.577000	22.187625	0.000470	20.782123
181.047872	-3.011200	3.849200	-11.590000	22.189968	0.000469	20.768822
182.048809	-2.996000	3.848700	-11.529000	22.185857	0.000471	20.782724
183.049936	-3.001900	3.848400	-11.552000	22.184684	0.000468	20.772541
184.050779	-3.014300	3.848100	-11.598000	22.196749	0.000469	20.752852
185.048906	-3.000400	3.846900	-11.541000	22.222997	0.000469	20.772020
186.052098	-2.997100	3.848200	-11.532000	22.223393	0.000470	20.766727
187.052082	-3.001300	3.847800	-11.548000	22.234238	0.000471	20.764783
188.050037	-2.983900	3.847200	-11.479000	22.219332	0.000472	20.756022
189.053725	-2.985700	3.847800	-11.487000	22.236507	0.000473	20.766107
190.049871	-3.010800	3.846200	-11.579000	22.239847	0.000473	20.757596
191.050677	-3.010900	3.846600	-11.580000	22.223597	0.000473	20.783526
192.053721	-3.021800	3.846500	-11.623000	22.248120	0.000474	20.759716
193.054139	-3.020200	3.847200	-11.619000	22.270427	0.000473	20.779207
194.052045	-3.003900	3.846000	-11.551000	22.274689	0.000473	20.764033
195.055563	-2.979300	3.846700	-11.460000	22.288099	0.000474	20.758021
196.053001	-3.013100	3.846400	-11.588000	22.318130	0.000473	20.765332
197.056590	-2.982500	3.846500	-11.471000	22.297121	0.000475	20.767529
198.056679	-2.999400	3.844400	-11.531000	22.288474	0.000474	20.783526
199.052512	-2.997500	3.845100	-11.525000	22.293432	0.000474	20.767628
200.052026	-3.011000	3.844500	-11.574000	22.329148	0.000478	20.776364
201.055736	-2.985700	3.844800	-11.479000	22.321846	0.000475	20.772373
202.051891	-3.001300	3.844900	-11.539000	22.336900	0.000476	20.780808
203.051979	-3.002600	3.844100	-11.542000	22.346519	0.000475	20.782854
204.057921	-3.004700	3.845500	-11.554000	22.350932	0.000477	20.783954
205.051813	-3.030400	3.843900	-11.647000	22.355243	0.000474	20.778788
206.052733	-3.000900	3.844200	-11.535000	22.372890	0.000479	20.776069
207.056862	-3.009400	3.842300	-11.562000	22.351557	0.000479	20.783157
208.051615	-2.976500	3.845000	-11.443000	22.356441	0.000478	20.774771
209.053994	-2.994400	3.843000	-11.507000	22.350065	0.000479	20.784982
210.054433	-2.995600	3.843600	-11.513000	22.387719	0.000480	20.758203
211.054971	-3.008900	3.842400	-11.560000	22.398736	0.000480	20.779193
212.056672	-2.991600	3.844000	-11.499000	22.376857	0.000479	20.771033
213.062524	-3.007200	3.841900	-11.552000	22.405167	0.000479	20.769985
214.060575	-2.990700	3.842100	-11.490000	22.399934	0.000480	20.761900
215.058012	-3.005400	3.841900	-11.546000	22.374241	0.000479	20.766517
216.059298	-3.013200	3.842100	-11.576000	22.415410	0.000481	20.781192
217.056242	-3.004100	3.841800	-11.541000	22.461560	0.000480	20.798959
218.057519	-3.002200	3.841900	-11.533000	22.457624	0.000484	20.777947
219.058136	-3.000100	3.840200	-11.520000	22.449897	0.000483	20.766889
220.055248	-2.988100	3.840700	-11.474000	22.461786	0.000482	20.780693
221.057005	-3.001200	3.841400	-11.527000	22.487727	0.000484	20.774429
222.059975	-2.984300	3.841700	-11.463000	22.472723	0.000485	20.802076
223.057759	-3.016700	3.840400	-11.583000	22.518000	0.000483	20.800480
224.059814	-2.997800	3.840400	-11.512000	22.518947	0.000485	20.787204
225.059338	-3.001400	3.840800	-11.527000	22.496819	0.000485	20.774526
226.059417	-3.005300	3.839200	-11.537000	22.505663	0.000485	20.767736
227.062288	-2.996300	3.839500	-11.503000	22.520739	0.000486	20.787102
228.060733	-3.006800	3.838400	-11.540000	22.515132	0.000487	20.796660
229.058999	-2.987100	3.840200	-11.469000	22.522110	0.000486	20.772828
230.060979	-2.992500	3.839900	-11.490000	22.538978	0.000487	20.786876
231.060692	-2.997700	3.838300	-11.505000	22.537453	0.000488	20.787245
232.059490	-3.017800	3.838900	-11.585000	22.541392	0.000489	20.803518
233.064183	-2.995000	3.838900	-11.497000	22.557810	0.000488	20.779185
234.063642	-3.014900	3.838700	-11.572000	22.591921	0.000487	20.780158
235.063665	-2.981500	3.838700	-11.444000	22.613172	0.000489	20.791959
236.066824	-3.003800	3.837600	-11.525000	22.604502	0.000487	20.795130
237.065833	-3.004100	3.837700	-11.528000	22.601510	0.000489	20.776486
238.063565	-3.006300	3.837800	-11.536000	22.606916	0.000485	20.790435
239.063657	-2.995000	3.837300	-11.492000	22.601507	0.000490	20.786914
240.067831	-2.998700	3.837600	-11.506000	22.622907	0.000489	20.793649
241.063566	-3.008300	3.836700	-11.541000	22.621514	0.000488	20.791306
242.065083	-3.008000	3.838200	-11.544000	22.648745	0.000487	20.785390
243.064889	-3.011500	3.838100	-11.557000	22.669425	0.000489	20.805630
244.066359	-2.998900	3.835800	-11.502000	22.660107	0.000487	20.800563
245.065463	-3.006700	3.836700	-11.534000	22.672315	0.000489	20.806154
246.067004	-3.028400	3.835500	-11.615000	22.676523	0.000488	20.806101
247.067307	-3.003200	3.834800	-11.516000	22.678766	0.000487	20.791278
248.069388	-2.987400	3.835600	-11.457000	22.706373	0.000490	20.805180
249.065165	-3.023900	3.835000	-11.596000	22.690427	0.000491	20.795372
250.066230	-3.002700	3.835300	-11.515000	22.696306	0.000490	20.799364
251.066818	-3.005600	3.835300	-11.526000	22.717558	0.000491	20.808797
252.069128	-2.992300	3.834800	-11.474000	22.718628	0.000490	20.789955
253.068619	-2.984200	3.835800	-11.447000	22.699047	0.000491	20.810644
254.068245	-2.991000	3.834200	-11.467000	22.734576	0.000491	20.795973
255.070349	-3.006100	3.834400	-11.526000	22.725679	0.000491	20.786586
256.070489	-3.013500	3.833800	-11.552000	22.699198	0.000492	20.812692
257.070567	-3.015600	3.834000	-11.561000	22.698750	0.000492	20.819355
258.070119	-2.992100	3.833100	-11.467000	22.705575	0.000492	20.829511
259.069844	-2.992500	3.833400	-11.469000	22.726378	0.000492	20.814787
260.069396	-2.988300	3.833300	-11.454000	22.725907	0.000492	20.798195
261.069020	-2.999000	3.832200	-11.491000	22.710487	0.000492	20.802189
262.072226	-2.996500	3.834100	-11.488000	22.738215	0.000494	20.803411
263.073929	-3.002700	3.831300	-11.503000	22.761059	0.000493	20.824397
264.073553	-3.018800	3.832600	-11.569000	22.742725	0.000491	20.816938
265.072306	-2.993200	3.831700	-11.467000	22.762506	0.000495	20.790286
266.073160	-3.021100	3.830600	-11.571000	22.780790	0.000495	20.806231
267.073348	-3.004500	3.831400	-11.511000	22.819652	0.000494	20.815289
268.074491	-3.020200	3.830700	-11.568000	22.814649	0.000495	20.819760
269.077426	-2.971400	3.831900	-11.385000	22.812830	0.000495	20.815093
270.078696	-2.982900	3.831800	-11.429000	22.790485	0.000495	20.812623
271.076867	-3.013100	3.829700	-11.538000	22.808499	0.000494	20.796530
272.082068	-3.019600	3.830500	-11.566000	22.830968	0.000495	20.816193
273.079798	-2.993500	3.831400	-11.468000	22.859842	0.000497	20.815248
274.078194	-3.021100	3.829200	-11.568000	22.884153	0.000499	20.811154
275.078426	-3.018300	3.828300	-11.554000	22.858125	0.000498	20.811157
276.079003	-3.008400	3.829700	-11.520000	22.888765	0.000499	20.810085
277.079566	-2.990600	3.828000	-11.448000	22.899975	0.000499	20.828427
278.079248	-3.008200	3.828900	-11.518000	22.910390	0.000497	20.816577
279.080694	-3.011600	3.828400	-11.529000	22.913004	0.000497	20.826308
280.079097	-2.992500	3.827500	-11.452000	22.906904	0.000499	20.838688
281.078110	-3.017300	3.827600	-11.549000	22.920604	0.000498	20.816852
282.079031	-3.006100	3.827700	-11.505000	22.910371	0.000498	20.817980
283.079120	-3.005800	3.829100	-11.508000	22.963451	0.000500	20.819002
284.080696	-3.002900	3.828500	-11.495000	22.969777	0.000499	20.812064
285.079543	-3.008600	3.827500	-11.515000	22.964276	0.000501	20.819830
286.081657	-2.997800	3.827300	-11.473000	22.933861	0.000502	20.824918
287.080276	-3.015200	3.827600	-11.541000	22.941588	0.000500	20.838823
288.080182	-2.996800	3.827400	-11.469000	22.926118	0.000504	20.822377
289.082250	-2.991000	3.828300	-11.450000	22.949484	0.000502	20.827295
290.082528	-3.028200	3.825700	-11.583000	22.968294	0.000503	20.823854
291.081133	-3.010600	3.826300	-11.519000	22.961467	0.000500	20.823179
292.082213	-2.997200	3.825900	-11.466000	22.975516	0.000502	20.819237
293.084913	-2.976700	3.825900	-11.387000	22.979630	0.000502	20.829048
294.083254	-2.987000	3.826100	-11.428000	23.011439	0.000501	20.834840
295.083822	-2.996500	3.826900	-11.466000	22.985562	0.000502	20.841155
296.085975	-3.004400	3.824500	-11.490000	22.998116	0.000503	20.813906
297.083938	-2.991600	3.825900	-11.445000	22.992391	0.000503	20.839463
298.083404	-2.980600	3.825400	-11.401000	23.001685	0.000504	20.822223
299.085184	-2.991100	3.826100	-11.443000	22.992072	0.000502	20.830608
300.086554	-2.988600	3.825200	-11.430000	22.984351	0.000503	20.822399
301.085531	-3.022400	3.824200	-11.557000	23.007970	0.000505	20.841795
302.085690	-3.011400	3.823400	-11.513000	23.034396	0.000505	20.832712
303.086219	-2.986600	3.825300	-11.424000	23.012006	0.000506	20.842520
304.089406	-2.986000	3.823900	-11.417000	23.004310	0.000506	20.826749
305.086990	-2.994700	3.824600	-11.453000	23.038683	0.000504	20.827524
306.089434	-3.015500	3.822200	-11.524000	23.026907	0.000506	20.837062
307.089540	-2.998900	3.822300	-11.462000	23.010595	0.000504	20.822141
308.087916	-3.007800	3.822500	-11.496000	23.056448	0.000505	20.837263
309.091435	-2.966000	3.823400	-11.339000	23.031744	0.000504	20.820572
310.089592	-3.022100	3.820100	-11.544000	23.051644	0.000508	20.841459
311.088474	-2.996600	3.822500	-11.454000	23.071049	0.000507	20.838143
312.086834	-3.008200	3.822700	-11.499000	23.076282	0.000507	20.826791
313.089003	-2.996600	3.821100	-11.449000	23.101513	0.000507	20.829788
314.089911	-2.996900	3.821100	-11.451000	23.115238	0.000506	20.855394
315.093638	-3.001800	3.821500	-11.469000	23.106944	0.000506	20.831436
316.091888	-2.999400	3.820900	-11.460000	23.090035	0.000508	20.846262
317.090548	-2.991200	3.820800	-11.428000	23.097315	0.000510	20.850711
318.093702	-3.001500	3.819400	-11.464000	23.110562	0.000509	20.837907
319.091641	-3.000900	3.821700	-11.467000	23.123489	0.000511	20.843274
320.090847	-3.007700	3.819100	-11.486000	23.139704	0.000509	20.841504
321.091640	-3.004600	3.820500	-11.479000	23.161000	0.000512	20.861895
322.093716	-2.980600	3.819700	-11.383000	23.165063	0.000511	20.854113
323.093224	-2.982200	3.820200	-11.392000	23.163817	0.000511	20.862347
324.092516	-3.015800	3.819400	-11.518000	23.160928	0.000511	20.860875
325.095518	-2.984600	3.818000	-11.395000	23.182925	0.000512	20.842142
326.096716	-3.004800	3.818600	-11.474000	23.169352	0.000511	20.837549
327.093773	-2.999200	3.818600	-11.452000	23.210443	0.000511	20.836052
328.095239	-2.992700	3.818200	-11.426000	23.176450	0.000511	20.851299
329.094538	-2.986500	3.819900	-11.407000	23.161237	0.000512	20.865451
330.096571	-3.017300	3.818900	-11.522000	23.156780	0.000513	20.869520
331.097715	-3.001700	3.818500	-11.461000	23.171724	0.000514	20.867899
332.096218	-3.003900	3.816600	-11.463000	23.198595	0.000514	20.844568
333.102026	-3.014300	3.816700	-11.503000	23.222651	0.000514	20.862036
334.097419	-3.007000	3.817300	-11.477000	23.229151	0.000514	20.867128
335.097496	-3.010100	3.816600	-11.487000	23.259633	0.000514	20.859269
336.099630	-3.007100	3.815900	-11.474000	23.287998	0.000512	20.863514
337.103491	-3.003900	3.816300	-11.461000	23.301144	0.000514	20.865308
338.098914	-3.014000	3.815000	-11.497000	23.303985	0.000516	20.859622
339.100870	-3.010800	3.815600	-11.486000	23.282173	0.000513	20.860520
340.103514	-2.994900	3.816600	-11.430000	23.292532	0.000514	20.868057
341.100609	-2.976300	3.815100	-11.354000	23.304260	0.000515	20.847570
342.100888	-3.000200	3.813800	-11.441000	23.308271	0.000516	20.853012
343.100582	-2.980700	3.816200	-11.374000	23.289872	0.000515	20.865866
344.101852	-2.997700	3.814900	-11.435000	23.293311	0.000520	20.876423
345.101571	-2.993900	3.814500	-11.419000	23.285812	0.000516	20.872228
346.102349	-2.981900	3.815900	-11.378000	23.322269	0.000515	20.877945
347.100721	-3.002000	3.813900	-11.448000	23.334944	0.000517	20.875949
348.102960	-3.019700	3.812600	-11.512000	23.322770	0.000514	20.883188
349.106242	-2.980700	3.813100	-11.365000	23.300562	0.000515	20.856665
350.103595	-3.023000	3.812400	-11.524000	23.327451	0.000519	20.876975
351.101758	-2.994500	3.813500	-11.418000	23.355540	0.000518	20.868617
352.105274	-2.999900	3.811400	-11.432000	23.361641	0.000516	20.884688
353.103654	-2.999000	3.812100	-11.432000	23.339881	0.000517	20.878527
354.102382	-3.006300	3.811100	-11.456000	23.326486	0.000518	20.896395
355.105254	-3.007200	3.812400	-11.463000	23.326087	0.000518	20.881772
356.105486	-2.989000	3.811800	-11.393000	23.331097	0.000518	20.862611
357.104240	-2.980100	3.811500	-11.357000	23.337173	0.000518	20.845942
358.107507	-3.020900	3.811200	-11.512000	23.341430	0.000519	20.873442
359.107688	-3.007000	3.810900	-11.459000	23.368078	0.000519	20.885924
360.104387	-3.022000	3.810500	-11.513000	23.348681	0.000520	20.871226
361.105379	-2.996900	3.810900	-11.420000	23.340592	0.000519	20.860748
362.103960	-3.000900	3.810500	-11.434000	23.366565	0.000519	20.871607
363.103611	-2.996600	3.810100	-11.416000	23.353842	0.000522	20.879716
364.111167	-3.003200	3.810100	-11.442000	23.364800	0.000522	20.863199
365.106389	-2.960400	3.811600	-11.283000	23.359423	0.000521	20.881517
366.106082	-2.986100	3.808500	-11.372000	23.370804	0.000522	20.870166
367.105724	-3.002700	3.808100	-11.433000	23.390723	0.000520	20.862155
368.104649	-2.992800	3.809100	-11.399000	23.416346	0.000524	20.875982
369.105115	-3.006600	3.808100	-11.449000	23.405048	0.000523	20.876038
370.105766	-3.004900	3.808900	-11.444000	23.439655	0.000523	20.882276
371.109826	-2.980400	3.808100	-11.348000	23.440156	0.000524	20.850063
372.107848	-2.995800	3.808000	-11.407000	23.417672	0.000523	20.864510
373.108235	-2.987900	3.807700	-11.377000	23.426017	0.000522	20.859124
374.106321	-2.994000	3.807800	-11.400000	23.462769	0.000524	20.862297
375.109919	-2.985600	3.807900	-11.367000	23.434909	0.000526	20.874674
376.111046	-3.012500	3.805100	-11.461000	23.462349	0.000524	20.860927
377.109653	-3.016700	3.806300	-11.482000	23.479752	0.000525	20.874104
378.109098	-2.994100	3.806900	-11.397000	23.467954	0.000525	20.867494
379.110247	-3.000600	3.806300	-11.420000	23.457127	0.000524	20.872762
380.112090	-2.993300	3.805600	-11.390000	23.448661	0.000527	20.863803
381.111119	-2.989400	3.806200	-11.378000	23.474957	0.000525	20.858392
382.110924	-3.013800	3.804400	-11.465000	23.483722	0.000525	20.863859
383.114449	-2.994900	3.805500	-11.396000	23.505259	0.000528	20.857472
384.112586	-3.009600	3.804000	-11.448000	23.514722	0.000527	20.830449
385.111810	-2.987500	3.805000	-11.367000	23.522068	0.000527	20.843976
386.113871	-2.991100	3.805300	-11.381000	23.521570	0.000526	20.860072
387.116639	-3.014800	3.803700	-11.466000	23.511893	0.000525	20.838519
388.115777	-3.013500	3.803000	-11.459000	23.526337	0.000527	20.837825
389.114571	-3.010000	3.802100	-11.443000	23.544933	0.000527	20.858361
390.114237	-3.012100	3.803300	-11.455000	23.523576	0.000527	20.841221
391.118412	-3.016800	3.802600	-11.470000	23.504785	0.000526	20.849411
392.117557	-3.013300	3.802200	-11.455000	23.542676	0.000527	20.863685
393.118382	-2.999600	3.802800	-11.406000	23.525802	0.000528	20.837288
394.117341	-3.004400	3.802500	-11.423000	23.545622	0.000526	20.835345
395.119635	-3.003000	3.802500	-11.417000	23.531655	0.000529	20.841732
396.118186	-2.991600	3.802100	-11.374000	23.527623	0.000527	20.820148
397.118304	-3.042100	3.801800	-11.564000	23.523694	0.000526	20.838020
398.119346	-3.009600	3.801400	-11.439000	23.522578	0.000528	20.836427
399.119579	-2.996500	3.802100	-11.392000	23.558502	0.000529	20.835928
400.119582	-3.034200	3.800500	-11.531000	23.573888	0.000529	20.833334
401.120563	-3.011300	3.799200	-11.439000	23.600777	0.000527	20.842746
402.121597	-3.008300	3.800600	-11.433000	23.640807	0.000529	20.826926
403.120565	-2.987900	3.800900	-11.356000	23.644495	0.000528	20.833942
404.126418	-3.005000	3.798500	-11.414000	23.653509	0.000530	20.820220
405.122749	-3.001900	3.799900	-11.407000	23.654680	0.000530	20.850791
406.122046	-3.000000	3.798600	-11.394000	23.672702	0.000528	20.812909
407.124206	-2.976400	3.799600	-11.309000	23.658817	0.000529	20.847825
408.123326	-2.973100	3.798800	-11.293000	23.666934	0.000532	20.830834
409.124066	-2.982000	3.799700	-11.329000	23.699017	0.000529	20.828385
410.122989	-2.991900	3.799400	-11.367000	23.697901	0.000528	20.812568
411.124782	-3.007500	3.798300	-11.422000	23.665942	0.000530	20.813718
412.124175	-2.975500	3.797500	-11.298000	23.671024	0.000532	20.842520
413.126709	-2.977000	3.798300	-11.306000	23.714210	0.000532	20.830341
414.124884	-2.994500	3.797800	-11.372000	23.689871	0.000530	20.816845
415.126810	-2.983700	3.798100	-11.331000	23.673769	0.000531	20.816823
416.128654	-3.013300	3.795500	-11.436000	23.680362	0.000530	20.822485
417.125679	-3.002900	3.797200	-11.400000	23.664733	0.000530	20.832895
418.125555	-3.012400	3.796800	-11.436000	23.650897	0.000530	20.795791
419.124598	-3.014600	3.795500	-11.441000	23.635864	0.000529	20.821497
420.124166	-3.000000	3.795100	-11.384000	23.632702	0.000530	20.816430
421.128406	-2.999700	3.794700	-11.382000	23.657472	0.000532	20.817081
422.127597	-2.992700	3.796900	-11.363000	23.641395	0.000532	20.822300
423.126033	-3.007800	3.795500	-11.415000	23.676845	0.000532	20.812795
424.125407	-2.988700	3.795900	-11.344000	23.676672	0.000529	20.811673
425.127203	-3.028800	3.794900	-11.493000	23.700894	0.000532	20.806560
426.128837	-3.004600	3.795300	-11.402000	23.724544	0.000532	20.808934
427.128655	-3.007700	3.793600	-11.409000	23.686836	0.000533	20.809535
428.131986	-3.005000	3.793400	-11.398000	23.696270	0.000532	20.803821
429.126789	-2.999900	3.794300	-11.382000	23.724999	0.000531	20.810338
430.131933	-3.008600	3.793000	-11.410000	23.738717	0.000533	20.803703
431.130322	-2.969000	3.794100	-11.264000	23.726273	0.000534	20.812563
432.128053	-2.992500	3.792500	-11.349000	23.729061	0.000534	20.804453
433.130798	-3.004800	3.791900	-11.393000	23.756642	0.000532	20.802234
434.135213	-2.996400	3.791600	-11.360000	23.767324	0.000532	20.799669
435.128564	-2.991100	3.792300	-11.342000	23.793909	0.000532	20.797400
436.133936	-2.996200	3.792300	-11.361000	23.785023	0.000533	20.812198
437.127957	-3.006800	3.791800	-11.399000	23.761581	0.000533	20.815248
438.127572	-2.996300	3.792100	-11.361000	23.765090	0.000532	20.822558
439.129732	-2.995400	3.791400	-11.356000	23.760759	0.000533	20.810630
440.128214	-3.007600	3.789600	-11.397000	23.710537	0.000533	20.791571
441.129825	-2.988000	3.791000	-11.327000	23.702747	0.000533	20.792771
442.129583	-2.990100	3.790200	-11.331000	23.714701	0.000535	20.791005
443.130001	-3.025700	3.787800	-11.459000	23.734638	0.000535	20.787760
444.129208	-2.999500	3.789600	-11.366000	23.771427	0.000533	20.781971
445.131047	-3.014800	3.788700	-11.420000	23.749302	0.000535	20.804833
446.130086	-3.024200	3.789000	-11.457000	23.770985	0.000535	20.791959
447.128714	-3.018200	3.788600	-11.433000	23.763446	0.000536	20.798152
448.129164	-2.986900	3.789900	-11.318000	23.767282	0.000535	20.783980
449.127774	-3.014200	3.788900	-11.419000	23.783936	0.000536	20.788824
450.129395	-2.989600	3.788500	-11.326000	23.828141	0.000535	20.778144
451.130095	-2.997900	3.787800	-11.355000	23.790211	0.000536	20.786580
452.134149	-3.000900	3.788500	-11.368000	23.780830	0.000534	20.802305
453.130657	-2.996100	3.788000	-11.348000	23.778716	0.000534	20.790702
454.128931	-3.012900	3.786900	-11.408000	23.798786	0.000536	20.793755
455.132575	-2.992200	3.788000	-11.333000	23.778850	0.000534	20.789413
456.132486	-3.016500	3.787400	-11.424000	23.790651	0.000537	20.778960
457.130749	-3.001200	3.786800	-11.364000	23.791674	0.000537	20.790418
458.132178	-3.016900	3.785300	-11.418000	23.784160	0.000537	20.786203
459.131927	-3.026500	3.784900	-11.454000	23.766867	0.000538	20.795891
460.130013	-3.024300	3.785200	-11.447000	23.776897	0.000538	20.768963
461.136335	-3.003300	3.784100	-11.363000	23.801615	0.000537	20.774306
462.135974	-2.999400	3.785400	-11.353000	23.832952	0.000537	20.780598
463.134588	-2.972500	3.785000	-11.250000	23.862497	0.000537	20.787462
464.132773	-2.986400	3.784700	-11.301000	23.854384	0.000538	20.788811
465.136431	-2.979600	3.784600	-11.276000	23.860584	0.000539	20.775587
466.132733	-2.999400	3.782500	-11.344000	23.814770	0.000537	20.775169
467.135030	-2.989000	3.783700	-11.309000	23.828855	0.000537	20.789766
468.137345	-2.977300	3.783700	-11.264000	23.839886	0.000536	20.797033
469.134270	-2.989000	3.783300	-11.307000	23.839039	0.000536	20.756354
470.135395	-3.010000	3.783400	-11.388000	23.898401	0.000538	20.769411
471.137177	-3.024500	3.782200	-11.439000	23.932623	0.000537	20.780020
472.136402	-2.986400	3.783600	-11.298000	23.940315	0.000539	20.767819
473.135388	-2.998900	3.783200	-11.345000	23.946589	0.000537	20.778852
474.138184	-3.002000	3.781700	-11.352000	23.921059	0.000539	20.794028
475.139899	-3.014400	3.780700	-11.394000	23.927506	0.000538	20.782475
476.137273	-3.019600	3.781100	-11.417000	23.951920	0.000540	20.773293
477.140087	-2.994000	3.780500	-11.318000	23.943162	0.000540	20.755501
478.137022	-2.988600	3.781600	-11.301000	23.984002	0.000539	20.760893
479.137949	-2.996600	3.780600	-11.328000	23.978056	0.000541	20.776742
480.140359	-3.016000	3.780200	-11.400000	23.951553	0.000538	20.785252
481.137370	-2.988200	3.780400	-11.296000	23.953776	0.000541	20.772782
482.142461	-2.984300	3.781200	-11.283000	23.911245	0.000541	20.767591
483.142309	-2.985600	3.780600	-11.286000	23.924311	0.000540	20.777375
484.137920	-2.990400	3.780900	-11.305000	23.919410	0.000539	20.796168
485.136823	-3.017800	3.778400	-11.401000	23.911424	0.000540	20.777255
486.141159	-3.008300	3.778800	-11.366000	23.919812	0.000541	20.757690
487.137462	-3.003800	3.778200	-11.347000	23.936464	0.000540	20.761112
488.140749	-3.030000	3.776900	-11.442000	23.955007	0.000541	20.761214
489.142385	-2.997700	3.779200	-11.328000	23.999702	0.000539	20.765733
490.139426	-3.016200	3.776700	-11.390000	24.021801	0.000541	20.773670
491.137800	-2.998500	3.777800	-11.327000	23.988284	0.000542	20.758550
492.139808	-2.999900	3.777000	-11.329000	23.996996	0.000539	20.779615
493.140712	-3.013200	3.776800	-11.379000	24.021236	0.000540	20.771207
494.139006	-2.995700	3.777900	-11.316000	24.008022	0.000540	20.761748
495.141988	-3.005300	3.776100	-11.347000	24.033807	0.000539	20.751097
496.140315	-3.004300	3.775900	-11.343000	24.038235	0.000540	20.757435
497.140829	-3.011300	3.774000	-11.363000	24.011536	0.000541	20.759583
498.140521	-2.987100	3.776600	-11.280000	24.026073	0.000540	20.758988
499.139960	-2.989100	3.775400	-11.284000	24.014750	0.000541	20.760435
500.143653	-2.995900	3.775700	-11.311000	23.998657	0.000539	20.777487
501.143144	-3.005500	3.775900	-11.348000	23.980411	0.000540	20.764880
502.138977	-3.012700	3.775000	-11.372000	23.981636	0.000538	20.757098
503.142540	-2.991000	3.774900	-11.290000	23.975044	0.000539	20.756652
504.143479	-3.028900	3.774100	-11.429000	23.961061	0.000537	20.748319
505.141346	-2.989100	3.774600	-11.281000	24.005386	0.000540	20.751518
506.140554	-3.015300	3.773400	-11.376000	23.990231	0.000540	20.755286
507.140258	-2.990800	3.773300	-11.284000	24.011962	0.000540	20.757639
508.141798	-3.007100	3.773100	-11.345000	24.034209	0.000538	20.743439
509.143710	-2.981400	3.773000	-11.248000	24.041699	0.000540	20.772763
510.140793	-3.013400	3.772100	-11.366000	24.015427	0.000540	20.749260
511.143021	-3.003100	3.772100	-11.327000	24.029689	0.000538	20.728948
512.143387	-2.995500	3.772500	-11.299000	24.049151	0.000540	20.750838
513.145890	-3.005300	3.771900	-11.335000	24.022032	0.000540	20.743555
514.146689	-3.010500	3.770600	-11.351000	24.056102	0.000540	20.750222
515.146801	-3.023400	3.771100	-11.401000	24.084666	0.000539	20.745204
516.145589	-2.995500	3.770600	-11.294000	24.104501	0.000539	20.747080
517.147514	-2.979300	3.769400	-11.229000	24.104677	0.000538	20.743937
518.142113	-2.986900	3.771900	-11.266000	24.137227	0.000540	20.748608
519.147143	-3.007900	3.769800	-11.339000	24.169402	0.000542	20.756223
520.146416	-3.011400	3.769400	-11.351000	24.162265	0.000538	20.744323
521.146138	-2.992400	3.769500	-11.279000	24.152062	0.000540	20.735986
522.147982	-3.003200	3.769500	-11.320000	24.124498	0.000540	20.763817
523.149389	-2.987800	3.769100	-11.260000	24.094245	0.000538	20.738690
524.145385	-3.012900	3.768400	-11.353000	24.124505	0.000539	20.746280
525.146770	-2.996800	3.769300	-11.296000	24.153569	0.000540	20.730859
526.148048	-3.007400	3.769200	-11.335000	24.132743	0.000538	20.733205
527.144164	-2.996200	3.767900	-11.289000	24.126379	0.000541	20.741520
528.147824	-2.987800	3.769200	-11.261000	24.123327	0.000539	20.738460
529.147426	-2.996400	3.767600	-11.288000	24.123771	0.000538	20.724680
530.146670	-3.009600	3.767000	-11.337000	24.102924	0.000540	20.735066
531.147054	-3.001100	3.766400	-11.303000	24.120391	0.000537	20.745473
532.150712	-2.990700	3.765400	-11.260000	24.165084	0.000538	20.729606
533.148161	-2.994800	3.766800	-11.280000	24.161553	0.000539	20.723219
534.149427	-2.987100	3.766500	-11.250000	24.160237	0.000542	20.723795
535.149343	-2.998400	3.766000	-11.290000	24.162773	0.000539	20.731556
536.147656	-2.990800	3.765500	-11.261000	24.147123	0.000543	20.715858
537.148525	-3.021300	3.764400	-11.373000	24.159147	0.000542	20.730763
538.149422	-2.980600	3.764800	-11.220000	24.188107	0.000541	20.729464
539.148016	-3.018200	3.764700	-11.362000	24.190347	0.000542	20.718909
540.147345	-2.991000	3.765600	-11.262000	24.185870	0.000541	20.727695
541.148861	-2.994300	3.763200	-11.267000	24.164675	0.000542	20.728721
542.148610	-3.008000	3.764300	-11.321000	24.181665	0.000542	20.736280
543.152813	-2.977600	3.764800	-11.208000	24.214837	0.000541	20.721188
544.150344	-3.014100	3.761700	-11.337000	24.224115	0.000541	20.735710
545.149782	-3.015500	3.764500	-11.351000	24.224641	0.000541	20.717744
546.149174	-2.989900	3.763100	-11.250000	24.244741	0.000540	20.734114
547.152912	-3.000600	3.762700	-11.289000	24.265812	0.000541	20.711626
548.150934	-2.973500	3.764100	-11.190000	24.244967	0.000542	20.710157
549.152461	-2.980600	3.764000	-11.218000	24.240466	0.000544	20.714652
550.154498	-2.977700	3.761700	-11.201000	24.247031	0.000540	20.717918
551.155271	-2.996000	3.761200	-11.268000	24.272934	0.000541	20.716874
552.149630	-2.989000	3.763100	-11.247000	24.272084	0.000541	20.724556
553.151025	-3.004000	3.762000	-11.300000	24.251737	0.000542	20.713155
554.151567	-3.019500	3.761000	-11.356000	24.272684	0.000540	20.705716
555.150294	-3.020100	3.760800	-11.357000	24.284131	0.000544	20.735219
556.155509	-2.988000	3.760400	-11.235000	24.299232	0.000541	20.755109
557.150288	-2.992200	3.760700	-11.252000	24.285647	0.000543	20.716824
558.155729	-2.997600	3.760000	-11.270000	24.264824	0.000541	20.712058
559.154760	-2.988600	3.759600	-11.235000	24.260200	0.000541	20.738241
560.150568	-2.977400	3.759800	-11.193000	24.244971	0.000540	20.726758
561.156561	-3.010700	3.757800	-11.312000	24.228701	0.000540	20.708066
562.155416	-2.991900	3.758500	-11.244000	24.225713	0.000541	20.724985
563.153513	-2.976400	3.759600	-11.190000	24.223501	0.000543	20.714705
564.156812	-2.965100	3.760400	-11.149000	24.204441	0.000540	20.713130
565.155771	-2.998700	3.759300	-11.272000	24.220736	0.000543	20.729949
566.155510	-3.005700	3.757600	-11.294000	24.220192	0.000541	20.725137
567.156187	-3.009600	3.757500	-11.307000	24.261889	0.000541	20.729504
568.155490	-3.013400	3.757100	-11.321000	24.252636	0.000541	20.724489
569.155121	-2.989200	3.757300	-11.230000	24.268535	0.000540	20.710565
570.156048	-2.999800	3.755800	-11.266000	24.286572	0.000541	20.717277
571.156032	-2.996100	3.757200	-11.256000	24.283259	0.000541	20.710635
572.158859	-3.018500	3.756300	-11.338000	24.286720	0.000541	20.714107
573.157313	-3.002200	3.756700	-11.277000	24.271393	0.000542	20.731924
574.160523	-3.003200	3.756600	-11.281000	24.280000	0.000539	20.712107
575.158369	-3.001400	3.754900	-11.269000	24.253109	0.000540	20.723541
576.156758	-3.019500	3.755000	-11.337000	24.230514	0.000541	20.720317
577.158267	-3.005600	3.755200	-11.286000	24.262366	0.000541	20.708643
578.155520	-2.986100	3.755900	-11.215000	24.295002	0.000541	20.707242
579.159266	-2.977800	3.755600	-11.182000	24.328467	0.000542	20.701930
580.160339	-2.990600	3.754600	-11.228000	24.368340	0.000540	20.689771
581.161962	-2.996600	3.755100	-11.251000	24.384537	0.000540	20.720246
582.162415	-3.001400	3.753700	-11.266000	24.395708	0.000543	20.723392
583.162462	-3.018100	3.752900	-11.325000	24.379260	0.000542	20.720643
584.162564	-3.012000	3.752400	-11.302000	24.356026	0.000543	20.700178
585.159238	-2.993700	3.753000	-11.235000	24.339159	0.000541	20.701749
586.161962	-3.006500	3.754400	-11.287000	24.327815	0.000540	20.715501
587.162911	-3.010500	3.753100	-11.298000	24.304872	0.000540	20.699598
588.160312	-2.973400	3.753500	-11.159000	24.340351	0.000541	20.709584
589.160318	-3.001000	3.752400	-11.260000	24.346890	0.000541	20.713300
590.165847	-3.011400	3.750400	-11.293000	24.331243	0.000540	20.723208
591.160627	-2.997100	3.751300	-11.242000	24.348534	0.000540	20.715897
592.162185	-3.020200	3.750500	-11.326000	24.376442	0.000540	20.721609
593.164808	-3.004200	3.751300	-11.269000	24.363631	0.000541	20.713972
594.162525	-3.017200	3.750600	-11.315000	24.371790	0.000542	20.705086
595.166936	-2.994900	3.750600	-11.232000	24.392237	0.000540	20.712797
596.165854	-2.966400	3.751200	-11.126000	24.434548	0.000540	20.695026
597.163264	-3.018000	3.748300	-11.312000	24.420394	0.000541	20.697421
598.165917	-3.023500	3.748200	-11.332000	24.459717	0.000541	20.721226
599.168741	-2.993100	3.748800	-11.220000	24.463843	0.000542	20.718254
600.163449	-3.019100	3.749900	-11.320000	24.458271	0.000541	20.724517
601.168114	-2.994200	3.749300	-11.226000	24.420535	0.000541	20.717479
602.166746	-2.978400	3.748500	-11.164000	24.427871	0.000541	20.698759
603.165223	-3.019500	3.748100	-11.317000	24.426351	0.000539	20.730901
604.165604	-3.004100	3.748300	-11.260000	24.408962	0.000540	20.698755
605.170166	-2.995400	3.747900	-11.226000	24.436050	0.000542	20.714552
606.164136	-2.972500	3.748600	-11.141000	24.393161	0.000541	20.702818
607.166143	-2.981800	3.748500	-11.176000	24.384159	0.000539	20.724609
608.169102	-2.967500	3.748500	-11.123000	24.440149	0.000540	20.726251
609.166002	-2.992800	3.746500	-11.211000	24.412387	0.000539	20.715469
610.166770	-2.991200	3.746600	-11.206000	24.411442	0.000540	20.721159
611.170357	-2.990900	3.747600	-11.208000	24.426612	0.000542	20.716937
612.166635	-2.992000	3.745600	-11.206000	24.471881	0.000540	20.723948
613.168113	-3.012600	3.745300	-11.282000	24.513794	0.000540	20.726170
614.167616	-2.981800	3.746800	-11.171000	24.512426	0.000539	20.715787
615.166487	-2.979600	3.745700	-11.160000	24.518421	0.000540	20.707577
616.169514	-2.979500	3.746100	-11.161000	24.456384	0.000539	20.730211
617.167369	-2.982000	3.745900	-11.169000	24.465860	0.000539	20.724071
618.165797	-2.958700	3.746400	-11.083000	24.488821	0.000538	20.730986
619.167420	-2.984800	3.745200	-11.178000	24.506652	0.000540	20.723746
620.167625	-2.981800	3.743900	-11.162000	24.535953	0.000538	20.718056
621.166259	-2.971400	3.745100	-11.128000	24.493991	0.000536	20.721948
622.169673	-3.008100	3.743400	-11.260000	24.504117	0.000538	20.742540
623.171508	-3.002300	3.743000	-11.237000	24.513992	0.000539	20.721152
624.169625	-2.989600	3.743700	-11.191000	24.487949	0.000537	20.741492
625.170440	-3.002500	3.744000	-11.240000	24.476586	0.000538	20.725823
626.172095	-3.018500	3.743000	-11.298000	24.508747	0.000538	20.740547
627.168614	-3.014800	3.742400	-11.282000	24.541454	0.000538	20.720257
628.170765	-3.003800	3.742700	-11.242000	24.551579	0.000535	20.723778
629.172517	-3.018600	3.741300	-11.293000	24.513999	0.000538	20.713098
630.171184	-3.024500	3.741200	-11.314000	24.499454	0.000537	20.731223
631.175416	-3.009900	3.741800	-11.261000	24.505196	0.000537	20.718491
632.173569	-3.002300	3.740800	-11.229000	24.478780	0.000536	20.728498
633.171819	-2.963300	3.741300	-11.086000	24.466869	0.000535	20.717022
634.172928	-3.004300	3.740800	-11.237000	24.484758	0.000537	20.725961
635.172458	-2.993700	3.740000	-11.195000	24.435384	0.000536	20.738541
636.173298	-3.000400	3.739800	-11.220000	24.444935	0.000535	20.751443
637.172892	-2.992200	3.739900	-11.190000	24.438022	0.000536	20.732179
638.176618	-3.000600	3.739900	-11.221000	24.436460	0.000535	20.707850
639.173970	-3.020200	3.738200	-11.289000	24.454990	0.000535	20.716959
640.174510	-2.993200	3.740900	-11.196000	24.461533	0.000533	20.736326
641.176904	-3.003100	3.739000	-11.228000	24.490662	0.000535	20.747533
642.172669	-2.995200	3.739400	-11.199000	24.513597	0.000533	20.737826
643.174855	-3.005600	3.738200	-11.234000	24.544664	0.000535	20.721580
644.175347	-2.997900	3.738600	-11.206000	24.558047	0.000534	20.726474
645.175883	-3.000000	3.737100	-11.209000	24.562057	0.000533	20.719592
646.175074	-3.022300	3.737400	-11.295000	24.541984	0.000533	20.737384
647.175750	-3.018200	3.737000	-11.278000	24.513033	0.000535	20.722086
648.177872	-3.002200	3.737400	-11.219000	24.533608	0.000532	20.735618
649.175502	-3.003200	3.736300	-11.220000	24.531072	0.000533	20.718849
650.176223	-2.999800	3.737200	-11.210000	24.546244	0.000533	20.735020
651.178039	-3.003700	3.735400	-11.219000	24.518020	0.000531	20.718555
652.174995	-3.011200	3.736000	-11.249000	24.556623	0.000532	20.728838
653.174153	-3.026100	3.734300	-11.299000	24.533668	0.000533	20.719557
654.177632	-2.990500	3.735900	-11.171000	24.532575	0.000532	20.732685
655.174970	-3.016100	3.734500	-11.262000	24.556877	0.000533	20.747586
656.176752	-3.009300	3.733700	-11.235000	24.551880	0.000530	20.747788
657.174753	-2.983100	3.733800	-11.137000	24.504847	0.000531	20.734738
658.177135	-2.977700	3.736000	-11.124000	24.498033	0.000529	20.741178
659.177741	-2.998100	3.733600	-11.193000	24.518408	0.000529	20.736964
660.177239	-2.991500	3.733300	-11.166000	24.536719	0.000530	20.746801
661.179273	-2.991400	3.734600	-11.171000	24.537438	0.000533	20.735668
662.178829	-3.018700	3.733100	-11.268000	24.540006	0.000530	20.734925
663.178163	-2.981100	3.733100	-11.128000	24.537643	0.000533	20.740616
664.179510	-3.023000	3.733000	-11.283000	24.595698	0.000532	20.723000
665.179592	-2.972300	3.733900	-11.097000	24.588162	0.000532	20.741044
666.179462	-3.021600	3.732100	-11.275000	24.590155	0.000533	20.744466
667.179158	-2.980800	3.733900	-11.129000	24.573640	0.000535	20.743542
668.180657	-2.990500	3.733200	-11.164000	24.541106	0.000531	20.742668
669.180846	-3.009500	3.730300	-11.226000	24.568918	0.000533	20.735011
670.180171	-3.003500	3.731700	-11.208000	24.556581	0.000531	20.742074
671.181244	-3.020000	3.731300	-11.268000	24.545487	0.000534	20.729993
672.184704	-3.029200	3.730000	-11.297000	24.559392	0.000533	20.742523
673.182941	-3.007400	3.730300	-11.218000	24.572822	0.000532	20.713796
674.185204	-3.010800	3.730100	-11.230000	24.609089	0.000533	20.752559
675.184813	-2.992500	3.729700	-11.161000	24.629806	0.000533	20.750588
676.184390	-3.000200	3.730600	-11.191000	24.589689	0.000534	20.743051
677.182254	-2.997400	3.730100	-11.178000	24.621921	0.000535	20.756901
678.184524	-2.993700	3.729100	-11.163000	24.646670	0.000532	20.733369
679.182198	-2.992200	3.729300	-11.158000	24.655743	0.000533	20.738680
680.181549	-2.983800	3.728800	-11.125000	24.627641	0.000530	20.725180
681.184889	-2.993500	3.728100	-11.159000	24.636725	0.000533	20.760376
682.184879	-3.009300	3.728000	-11.217000	24.666043	0.000531	20.743327
683.183552	-2.999100	3.727900	-11.179000	24.649660	0.000530	20.743008
684.189084	-3.010000	3.728600	-11.221000	24.607308	0.000530	20.755988
685.188861	-2.962100	3.729500	-11.046000	24.597931	0.000531	20.729034
686.186237	-2.994700	3.728200	-11.164000	24.611261	0.000530	20.749049
687.189669	-3.019900	3.726200	-11.251000	24.603482	0.000530	20.736027
688.187667	-3.001600	3.727600	-11.187000	24.588286	0.000528	20.749704
689.187050	-2.989900	3.727200	-11.143000	24.588163	0.000531	20.754322
690.191721	-2.992800	3.727900	-11.156000	24.582566	0.000531	20.775259
691.186047	-2.983400	3.726800	-11.118000	24.618212	0.000530	20.739428
692.189104	-3.000800	3.727300	-11.184000	24.658427	0.000528	20.747538
693.190636	-3.002900	3.726100	-11.189000	24.682582	0.000530	20.740957
694.187881	-2.980300	3.726900	-11.106000	24.631846	0.000529	20.745996
695.187490	-2.975100	3.725800	-11.083000	24.596433	0.000530	20.767836
696.191408	-2.970000	3.727300	-11.069000	24.647323	0.000527	20.772433
697.188288	-2.991400	3.725300	-11.143000	24.626782	0.000527	20.742811
698.189134	-2.992900	3.724700	-11.148000	24.598031	0.000528	20.765172
699.190391	-3.002900	3.724200	-11.183000	24.669758	0.000530	20.746106
700.187697	-2.982900	3.725100	-11.111000	24.699879	0.000530	20.736028
701.191559	-2.987100	3.724400	-11.125000	24.719922	0.000528	20.776056
702.198565	-3.003700	3.723800	-11.184000	24.718434	0.000529	20.770770
703.191266	-2.998000	3.724700	-11.166000	24.676878	0.000529	20.753251
704.191133	-2.994400	3.723900	-11.150000	24.699661	0.000528	20.747189
705.196423	-2.994800	3.723700	-11.150000	24.713346	0.000526	20.753810
706.193944	-2.967800	3.722800	-11.048000	24.685394	0.000527	20.768909
707.193542	-3.008700	3.722100	-11.198000	24.670922	0.000526	20.765767
708.196022	-3.005800	3.722000	-11.187000	24.733293	0.000530	20.767190
709.190444	-3.005000	3.721500	-11.182000	24.773705	0.000525	20.742784
710.194020	-2.994500	3.721500	-11.143000	24.785891	0.000528	20.763074
711.193193	-3.001200	3.721600	-11.167000	24.780229	0.000528	20.781100
712.191295	-3.003100	3.720700	-11.173000	24.752356	0.000527	20.756921
713.195828	-3.008300	3.721100	-11.193000	24.737039	0.000525	20.773319
714.198830	-2.989600	3.721800	-11.126000	24.745396	0.000527	20.769377
715.193030	-2.985700	3.721000	-11.109000	24.756168	0.000527	20.765489
716.198403	-2.986000	3.721500	-11.112000	24.724116	0.000526	20.756558
717.198473	-2.987600	3.721600	-11.118000	24.688083	0.000524	20.763072
718.191635	-2.990300	3.719100	-11.120000	24.683534	0.000525	20.767517
719.195765	-3.005100	3.718300	-11.173000	24.706169	0.000527	20.760358
720.203667	-2.967300	3.719900	-11.037000	24.728302	0.000525	20.772612
721.194166	-2.980500	3.719900	-11.086000	24.713260	0.000525	20.781700
722.208495	-3.000100	3.719200	-11.157000	24.723207	0.000526	20.772241
723.198746	-2.994100	3.719300	-11.134000	24.728454	0.000523	20.780351
724.195551	-2.983100	3.719000	-11.093000	24.711797	0.000524	20.788292
725.198922	-2.993100	3.719500	-11.132000	24.732710	0.000525	20.759018
726.198231	-3.033400	3.717500	-11.275000	24.719082	0.000524	20.797499
727.196211	-2.990500	3.718400	-11.119000	24.712319	0.000523	20.774591
728.198578	-3.035900	3.717600	-11.285000	24.759963	0.000524	20.768349
729.202027	-2.997600	3.717400	-11.143000	24.811138	0.000524	20.761859
730.197033	-3.003100	3.717000	-11.162000	24.797042	0.000523	20.782800
731.197867	-2.998000	3.717100	-11.143000	24.828326	0.000523	20.777213
732.201028	-3.008400	3.716000	-11.179000	24.837077	0.000522	20.791211
733.198055	-2.994700	3.716100	-11.127000	24.851723	0.000521	20.769400
734.200411	-3.007900	3.716700	-11.179000	24.866820	0.000522	20.779336
735.200371	-2.999000	3.715900	-11.143000	24.880792	0.000522	20.790988
736.201277	-2.986200	3.716800	-11.098000	24.844735	0.000519	20.788465
737.201096	-2.995800	3.715800	-11.130000	24.765414	0.000518	20.778087
738.200995	-2.991700	3.714300	-11.111000	24.775513	0.000521	20.793437
739.203680	-3.003500	3.715500	-11.159000	24.760714	0.000520	20.788069
740.201567	-2.989400	3.715100	-11.105000	24.783146	0.000520	20.775493
741.201707	-2.996600	3.715300	-11.132000	24.757957	0.000519	20.782457
742.202467	-3.000500	3.714500	-11.145000	24.783422	0.000519	20.808960
743.201458	-2.989800	3.714400	-11.105000	24.766708	0.000519	20.775593
744.202931	-2.991800	3.714100	-11.111000	24.792846	0.000519	20.784280
745.207111	-2.998300	3.714500	-11.137000	24.796207	0.000519	20.773901
746.203479	-3.002200	3.712900	-11.146000	24.751667	0.000519	20.785154
747.203104	-3.021100	3.714000	-11.219000	24.781363	0.000520	20.785557
748.203063	-3.011200	3.713000	-11.180000	24.745676	0.000517	20.785780
749.203973	-3.016500	3.712300	-11.197000	24.749731	0.000519	20.795539
750.203554	-3.010900	3.713900	-11.182000	24.701565	0.000518	20.773283
751.205612	-2.978600	3.714000	-11.061000	24.696515	0.000518	20.797139
752.210949	-2.992000	3.712400	-11.106000	24.720239	0.000516	20.774953
753.205696	-2.995000	3.713300	-11.121000	24.745335	0.000516	20.791601
754.205100	-2.983800	3.712400	-11.076000	24.729940	0.000516	20.782791
755.204828	-3.005200	3.712000	-11.155000	24.747504	0.000515	20.801364
756.206805	-2.988500	3.710700	-11.088000	24.800244	0.000516	20.780325
757.206026	-2.998800	3.711200	-11.129000	24.777644	0.000516	20.798895
758.208283	-3.016300	3.710300	-11.190000	24.793933	0.000515	20.791535
759.210763	-2.979800	3.711100	-11.058000	24.819619	0.000514	20.784596
760.207492	-2.995700	3.710400	-11.115000	24.824118	0.000514	20.798120
761.208032	-2.985500	3.709700	-11.075000	24.816340	0.000513	20.788892
762.209394	-3.010400	3.709600	-11.166000	24.836233	0.000514	20.789890
763.208166	-3.009200	3.709300	-11.160000	24.831709	0.000514	20.804316
764.209319	-2.995900	3.709500	-11.112000	24.790979	0.000516	20.814174
765.210587	-2.998600	3.709800	-11.123000	24.765868	0.000514	20.812681
766.208583	-2.987800	3.708700	-11.080000	24.747568	0.000517	20.812809
767.208003	-3.024800	3.708800	-11.217000	24.717131	0.000514	20.781791
768.209488	-2.991100	3.708000	-11.089000	24.742522	0.000514	20.824815
769.210878	-3.012000	3.708300	-11.169000	24.788826	0.000513	20.802056
770.208969	-3.020000	3.707300	-11.195000	24.828989	0.000513	20.805379
771.208701	-3.003500	3.708600	-11.139000	24.830681	0.000515	20.799965
772.212870	-2.981700	3.708300	-11.056000	24.855943	0.000514	20.811567
773.210475	-2.983100	3.706200	-11.055000	24.856715	0.000514	20.819454
774.212865	-3.002100	3.707300	-11.129000	24.854607	0.000512	20.818761
775.214710	-3.001600	3.705700	-11.122000	24.850581	0.000512	20.793858
776.210893	-2.976000	3.706700	-11.029000	24.871890	0.000512	20.809555
777.214749	-2.977900	3.706300	-11.036000	24.853440	0.000512	20.813797
778.215053	-3.004300	3.705700	-11.132000	24.856353	0.000511	20.815298
779.211549	-2.982500	3.706400	-11.053000	24.893897	0.000511	20.818839
780.217247	-3.016200	3.705200	-11.175000	24.889698	0.000513	20.810358
781.213414	-2.999500	3.705000	-11.111000	24.905317	0.000513	20.814180
782.212212	-3.017500	3.705500	-11.181000	24.849841	0.000512	20.821090
783.213617	-2.984500	3.704700	-11.056000	24.819435	0.000512	20.826136
784.215027	-3.007500	3.705100	-11.141000	24.850790	0.000512	20.807344
785.213451	-3.024500	3.703500	-11.200000	24.881177	0.000513	20.813660
786.219759	-3.005600	3.703800	-11.131000	24.834385	0.000513	20.805105
787.215489	-2.999000	3.704000	-11.107000	24.859897	0.000511	20.820751
788.213710	-3.014100	3.702800	-11.159000	24.861959	0.000513	20.832778
789.214054	-3.000300	3.704700	-11.114000	24.839331	0.000511	20.830457
790.213894	-3.008900	3.702900	-11.141000	24.834709	0.000513	20.818232
791.213038	-3.005000	3.703400	-11.128000	24.858607	0.000513	20.824672
792.219473	-2.997700	3.702100	-11.098000	24.873774	0.000511	20.803859
793.217821	-3.008500	3.702400	-11.138000	24.858159	0.000513	20.829438
794.216435	-3.013300	3.701500	-11.152000	24.920466	0.000513	20.839816
795.221212	-2.986000	3.701000	-11.050000	24.945331	0.000514	20.847703
796.220732	-2.987400	3.701200	-11.057000	24.935086	0.000511	20.824619
797.218122	-2.968400	3.703400	-10.992000	24.942620	0.000510	20.816060
798.221502	-2.988100	3.702100	-11.061000	24.926632	0.000511	20.817556
799.217939	-3.017500	3.700300	-11.165000	24.862033	0.000509	20.825740
800.218106	-3.002800	3.700400	-11.110000	24.856064	0.000510	20.831129
801.220696	-2.986600	3.701600	-11.054000	24.846090	0.000509	20.829179
802.219056	-2.989900	3.700100	-11.062000	24.894976	0.000511	20.829880
803.217722	-3.001400	3.700400	-11.105000	24.884329	0.000512	20.827728
804.221128	-3.030200	3.699400	-11.207000	24.906758	0.000509	20.841705
805.221899	-3.004100	3.700400	-11.115000	24.922743	0.000508	20.833092
806.219026	-3.036300	3.698600	-11.230000	24.910284	0.000507	20.828174
807.219434	-3.021900	3.699100	-11.177000	24.902799	0.000509	20.832515
808.222614	-2.986700	3.699800	-11.050000	24.906656	0.000507	20.860093
809.216911	-3.023900	3.698600	-11.183000	24.928806	0.000507	20.835385
810.221920	-2.985000	3.699700	-11.043000	24.952574	0.000507	20.837430
811.223622	-3.002700	3.699300	-11.107000	24.965703	0.000505	20.853452
812.229376	-3.022000	3.698300	-11.176000	24.958765	0.000507	20.835583
813.220903	-3.010600	3.698800	-11.135000	24.947477	0.000508	20.850805
814.222887	-2.972900	3.698600	-10.994000	25.003395	0.000505	20.832016
815.223143	-3.010700	3.698000	-11.133000	24.979871	0.000505	20.863879
816.229263	-2.980000	3.697000	-11.016000	25.007544	0.000504	20.860836
817.223741	-3.000200	3.697200	-11.091000	24.990292	0.000504	20.834037
818.224056	-3.021100	3.696600	-11.167000	24.981666	0.000505	20.828223
819.223178	-2.982700	3.696600	-11.025000	24.999415	0.000506	20.853151
820.224058	-2.999000	3.697900	-11.089000	24.963197	0.000505	20.861841
821.221049	-3.010200	3.698100	-11.131000	24.979435	0.000504	20.838786
822.223942	-3.000200	3.696500	-11.089000	25.007774	0.000503	20.864859
823.222762	-3.011900	3.695900	-11.130000	25.034629	0.000502	20.864315
824.222985	-3.017900	3.695600	-11.152000	25.052377	0.000503	20.855579
825.224420	-2.989400	3.695000	-11.045000	25.065730	0.000504	20.849068
826.228602	-2.998900	3.695500	-11.082000	25.060164	0.000502	20.865766
827.228519	-2.979000	3.695900	-11.009000	25.065931	0.000502	20.863968
828.225714	-2.970700	3.696200	-10.979000	25.089474	0.000503	20.855834
829.227702	-2.975100	3.695100	-10.991000	25.112664	0.000501	20.836914
830.224902	-2.995200	3.694900	-11.067000	25.096190	0.000504	20.873953
831.227526	-3.000900	3.693500	-11.083000	25.089454	0.000502	20.852020
832.226472	-2.996000	3.694200	-11.067000	25.112076	0.000503	20.862875
833.227007	-2.997000	3.693100	-11.067000	25.080454	0.000503	20.844883
834.227650	-2.970800	3.693900	-10.973000	25.026359	0.000503	20.851273
835.228005	-2.993900	3.693800	-11.058000	25.012957	0.000500	20.852993
836.228506	-2.987600	3.692900	-11.032000	25.018654	0.000502	20.845435
837.227787	-2.968000	3.693300	-10.960000	25.000478	0.000501	20.843786
838.226529	-2.997200	3.692200	-11.065000	25.021640	0.000500	20.850329
839.227901	-2.993300	3.692200	-11.051000	25.015076	0.000501	20.844215
840.230731	-2.980900	3.691700	-11.003000	25.024921	0.000500	20.846511
841.228482	-2.978400	3.691600	-10.995000	25.003891	0.000498	20.861910
842.231000	-3.004300	3.692000	-11.090000	24.991136	0.000498	20.842471
843.229817	-2.995400	3.690900	-11.055000	24.955904	0.000497	20.842194
844.230972	-3.012700	3.690700	-11.118000	24.949414	0.000497	20.822879
845.229076	-2.985500	3.690300	-11.016000	24.975075	0.000498	20.838203
846.230587	-2.974000	3.690700	-10.975000	24.988898	0.000497	20.835482
847.232515	-2.984800	3.691000	-11.016000	24.976246	0.000497	20.841275
848.231047	-2.978200	3.690500	-10.991000	24.946785	0.000497	20.824033
849.230042	-2.984300	3.689900	-11.010000	24.958094	0.000496	20.843444
850.229584	-2.980800	3.689400	-10.996000	24.978456	0.000496	20.837804
851.232334	-2.997500	3.688500	-11.055000	24.977293	0.000497	20.834740
852.231854	-2.992300	3.689500	-11.039000	24.971251	0.000495	20.826778
853.231929	-2.996100	3.689300	-11.053000	24.993453	0.000497	20.837209
854.233026	-2.986000	3.689200	-11.015000	24.991916	0.000494	20.827133
855.232634	-2.994000	3.688100	-11.041000	24.958155	0.000495	20.843031
856.233397	-3.001000	3.686700	-11.063000	24.977876	0.000493	20.826790
857.233100	-2.988100	3.688000	-11.020000	25.007960	0.000493	20.824745
858.233490	-3.000600	3.686600	-11.061000	25.013678	0.000495	20.813415
859.233968	-2.986200	3.687900	-11.011000	25.043063	0.000494	20.823471
860.233041	-2.965400	3.688600	-10.937000	25.017231	0.000494	20.821723
861.233119	-2.979400	3.687000	-10.985000	25.038639	0.000494	20.827565
862.234762	-2.975000	3.687900	-10.971000	25.063925	0.000495	20.829239
863.234201	-2.994200	3.686500	-11.037000	25.079935	0.000493	20.826345
864.235077	-2.977000	3.685600	-10.971000	25.076206	0.000493	20.839670
865.233787	-2.977100	3.686100	-10.973000	25.063083	0.000495	20.815118
866.234227	-2.983800	3.685800	-10.997000	25.066787	0.000494	20.825949
867.239902	-2.997700	3.685800	-11.048000	25.076756	0.000492	20.824102
868.237709	-3.000500	3.685400	-11.056000	25.065095	0.000493	20.828517
869.236225	-2.994300	3.685000	-11.033000	25.035714	0.000492	20.812775
870.235377	-3.012100	3.684400	-11.097000	24.996705	0.000491	20.817241
871.238241	-2.992200	3.684900	-11.025000	25.007721	0.000491	20.829247
872.236423	-2.979200	3.684700	-10.977000	24.995986	0.000491	20.814148
873.237356	-3.017000	3.683500	-11.112000	24.963046	0.000490	20.806216
874.237748	-3.006900	3.684500	-11.078000	24.973812	0.000490	20.798530
875.238413	-3.014600	3.684000	-11.105000	25.016228	0.000491	20.812656
876.237918	-3.001100	3.683900	-11.055000	25.017300	0.000491	20.805197
877.239241	-3.003700	3.684200	-11.065000	24.998010	0.000489	20.794844
878.239390	-3.012100	3.681700	-11.089000	24.968098	0.000488	20.815554
879.240808	-3.004200	3.683500	-11.065000	24.972210	0.000489	20.787912
880.238542	-3.015200	3.681900	-11.101000	25.013504	0.000490	20.813240
881.237928	-3.013800	3.681800	-11.096000	25.039784	0.000491	20.799317
882.237920	-2.995900	3.681300	-11.028000	25.037849	0.000490	20.800220
883.238930	-3.009600	3.681700	-11.080000	25.034966	0.000489	20.815343
884.239334	-3.013200	3.680800	-11.089000	25.017221	0.000488	20.793264
885.240749	-3.007000	3.680300	-11.066000	25.040067	0.000489	20.793437
886.239284	-2.987400	3.680500	-10.994000	25.015208	0.000488	20.790295
887.239024	-3.003500	3.680100	-11.052000	25.000445	0.000489	20.805822
888.237785	-3.010500	3.680900	-11.080000	25.021903	0.000490	20.793696
889.240293	-2.975400	3.679400	-10.947000	25.027998	0.000488	20.810720
890.245937	-2.997800	3.679600	-11.029000	25.059178	0.000488	20.789861
891.240520	-3.000000	3.679700	-11.038000	25.025197	0.000489	20.782304
892.242900	-3.007500	3.678900	-11.064000	24.986885	0.000487	20.793160
893.248662	-2.997500	3.678700	-11.026000	24.996460	0.000485	20.790442
894.243001	-3.011200	3.678000	-11.074000	25.019434	0.000488	20.784105
895.243567	-3.017300	3.679000	-11.099000	25.007977	0.000487	20.778770
896.245319	-3.006900	3.678100	-11.059000	25.015687	0.000485	20.795518
897.244686	-2.989900	3.677200	-10.993000	25.026009	0.000486	20.790232
898.243764	-3.001700	3.678500	-11.041000	25.058976	0.000486	20.795348
899.244390	-2.991400	3.678100	-11.002000	25.065223	0.000486	20.796404
900.242953	-2.968400	3.678900	-10.919000	25.080790	0.000483	20.796857
901.248320	-2.970600	3.677600	-10.923000	25.084445	0.000483	20.781086
902.247064	-2.984100	3.675700	-10.967000	25.066899	0.000484	20.796189
903.243011	-3.011600	3.676600	-11.072000	25.050489	0.000483	20.796787
904.244726	-2.986800	3.676300	-10.979000	25.072074	0.000484	20.772934
905.248186	-3.007500	3.676500	-11.056000	25.088511	0.000481	20.793702
906.244927	-2.994000	3.676300	-11.006000	25.126203	0.000482	20.777012
907.245661	-3.010500	3.676400	-11.067000	25.185217	0.000481	20.764659
908.246733	-2.986000	3.675200	-10.973000	25.156263	0.000483	20.788223
909.246854	-2.974600	3.675700	-10.933000	25.149503	0.000482	20.789497
910.251842	-2.993400	3.674800	-10.999000	25.159121	0.000481	20.798679
911.248569	-2.991400	3.676000	-10.995000	25.124453	0.000482	20.779523
912.244524	-3.014700	3.672400	-11.070000	25.068496	0.000482	20.761282
913.246819	-2.981300	3.674300	-10.953000	25.076332	0.000482	20.765355
914.248589	-2.988900	3.673800	-10.979000	25.108525	0.000481	20.777758
915.245625	-2.991500	3.673500	-10.989000	25.133045	0.000479	20.788148
916.250018	-2.976400	3.674800	-10.937000	25.151613	0.000481	20.780710
917.250010	-3.006700	3.673500	-11.044000	25.124868	0.000480	20.773775
918.245799	-2.981800	3.672700	-10.951000	25.067645	0.000480	20.769911
919.250949	-2.996700	3.674600	-11.010000	25.077219	0.000478	20.771461
920.252442	-2.996700	3.673400	-11.006000	25.018951	0.000478	20.760386
921.247341	-2.992000	3.672400	-10.987000	25.002644	0.000479	20.762036
922.254533	-2.992100	3.671000	-10.983000	25.008411	0.000479	20.764031
923.251455	-2.998700	3.671800	-11.010000	25.017143	0.000482	20.761417
924.248857	-3.015300	3.669800	-11.065000	25.026266	0.000480	20.753031
925.251413	-3.000700	3.670900	-11.014000	25.043822	0.000477	20.782033
926.251811	-3.015800	3.670900	-11.069000	25.110697	0.000478	20.773300
927.250033	-3.015200	3.670300	-11.066000	25.140881	0.000478	20.771832
928.253112	-2.991800	3.671300	-10.983000	25.152742	0.000478	20.763825
929.253573	-2.985500	3.671800	-10.960000	25.148988	0.000479	20.792774
930.251223	-3.007200	3.670900	-11.037000	25.153839	0.000478	20.766823
931.250770	-3.010000	3.669700	-11.044000	25.121273	0.000477	20.753096
932.253209	-2.997700	3.670300	-11.001000	25.113971	0.000476	20.746714
933.253135	-3.022300	3.668700	-11.087000	25.149148	0.000477	20.771597
934.253435	-3.012700	3.668900	-11.053000	25.170953	0.000476	20.765511
935.252495	-3.011100	3.669100	-11.047000	25.186514	0.000474	20.769280
936.253233	-3.016800	3.668800	-11.067000	25.167306	0.000474	20.747625
937.253598	-3.016300	3.668500	-11.064000	25.184879	0.000475	20.769061
938.255469	-3.000400	3.666500	-11.000000	25.204942	0.000474	20.763598
939.256932	-3.011800	3.667600	-11.046000	25.193660	0.000474	20.758436
940.255516	-2.992200	3.668400	-10.976000	25.160032	0.000472	20.751229
941.255946	-3.005500	3.667200	-11.021000	25.126773	0.000473	20.754824
942.260056	-2.995600	3.666100	-10.981000	25.059931	0.000474	20.750313
943.256549	-2.987500	3.667400	-10.955000	25.051778	0.000472	20.759199
944.255599	-2.985400	3.667900	-10.949000	25.048397	0.000473	20.763866
945.257973	-3.007000	3.665800	-11.022000	25.077461	0.000472	20.765066
946.258070	-3.014200	3.664700	-11.045000	25.121918	0.000471	20.772236
947.258164	-3.007000	3.666400	-11.024000	25.137755	0.000471	20.753995
948.257062	-2.998100	3.667400	-10.995000	25.143029	0.000469	20.756445
949.258500	-3.013600	3.664400	-11.042000	25.129040	0.000469	20.740030
950.258771	-2.991100	3.665400	-10.962000	25.177586	0.000468	20.749410
951.262332	-3.003100	3.664900	-11.005000	25.190621	0.000471	20.737366
952.259069	-3.007400	3.663800	-11.017000	25.154229	0.000468	20.750144
953.264629	-2.981200	3.665400	-10.926000	25.104069	0.000469	20.757636
954.261450	-2.991700	3.663700	-10.959000	25.136064	0.000467	20.734278
955.259963	-2.999100	3.663000	-10.985000	25.109622	0.000468	20.751831
956.260120	-2.998700	3.662200	-10.981000	25.156234	0.000467	20.751208
957.260360	-2.963400	3.664500	-10.858000	25.164021	0.000466	20.748120
958.261098	-2.998800	3.662100	-10.981000	25.129640	0.000466	20.749642
959.261211	-3.004500	3.661800	-11.001000	25.094470	0.000467	20.766019
960.262981	-3.004800	3.661500	-11.001000	25.119927	0.000466	20.758383
961.260921	-2.976300	3.662000	-10.898000	25.169799	0.000468	20.766250
962.261651	-2.990900	3.662000	-10.951000	25.231123	0.000467	20.747209
963.267854	-2.988300	3.660800	-10.938000	25.241941	0.000464	20.745741
964.261564	-3.003300	3.660500	-10.992000	25.217013	0.000465	20.737309
965.262815	-2.996400	3.660200	-10.966000	25.191168	0.000464	20.742183
966.263202	-2.989500	3.660400	-10.942000	25.199620	0.000467	20.729331
967.263278	-2.992300	3.660900	-10.954000	25.212947	0.000463	20.728960
968.263794	-2.988400	3.660100	-10.936000	25.200175	0.000464	20.711869
969.267461	-2.994100	3.660500	-10.958000	25.160083	0.000464	20.753176
970.265485	-3.003900	3.659900	-10.993000	25.141618	0.000462	20.735112
971.264637	-2.998600	3.659100	-10.971000	25.088692	0.000461	20.754529
972.267146	-3.017400	3.659500	-11.041000	25.082511	0.000463	20.720821
973.265851	-2.990800	3.659800	-10.945000	25.068415	0.000460	20.735595
974.265186	-2.979400	3.660300	-10.905000	25.083115	0.000463	20.734705
975.272796	-3.001700	3.658200	-10.980000	25.064443	0.000460	20.752472
976.267453	-3.006900	3.657700	-10.997000	25.090381	0.000459	20.731093
977.268929	-2.999200	3.657300	-10.968000	25.067659	0.000460	20.742424
978.272831	-2.976800	3.657400	-10.886000	25.070896	0.000460	20.740931
979.269125	-2.989300	3.658700	-10.936000	25.103993	0.000460	20.715833
980.270791	-2.979100	3.657400	-10.895000	25.130517	0.000456	20.732029
981.273958	-3.010000	3.656400	-11.005000	25.122221	0.000458	20.718010
982.271185	-2.998200	3.656000	-10.960000	25.126103	0.000459	20.711949
983.269921	-2.995100	3.656300	-10.950000	25.160828	0.000458	20.734957
984.273064	-3.002100	3.656600	-10.976000	25.123745	0.000458	20.715273
985.271203	-3.007400	3.654600	-10.990000	25.095660	0.000457	20.728332
986.272441	-2.977500	3.655100	-10.882000	25.101653	0.000458	20.739564
987.280089	-3.004100	3.655000	-10.979000	25.128535	0.000457	20.721504
988.271749	-2.998900	3.655100	-10.961000	25.181208	0.000460	20.733132
989.272416	-2.988000	3.653900	-10.917000	25.150664	0.000457	20.713847
990.274789	-3.016500	3.653900	-11.021000	25.132671	0.000456	20.705741
991.272962	-2.983200	3.654600	-10.901000	25.149104	0.000456	20.715126
992.270755	-2.997000	3.654300	-10.951000	25.152070	0.000457	20.708145
993.280963	-2.989900	3.653800	-10.924000	25.195526	0.000457	20.729962
994.273513	-3.011300	3.652000	-10.997000	25.231719	0.000456	20.730737
995.280573	-3.009100	3.651600	-10.988000	25.257699	0.000458	20.712723
996.281578	-2.992400	3.652800	-10.929000	25.216364	0.000455	20.707733
997.273827	-3.015600	3.651600	-11.010000	25.222730	0.000457	20.704641
998.275499	-3.000200	3.653200	-10.959000	25.174807	0.000456	20.725283
999.277658	-2.982800	3.651600	-10.891000	25.226114	0.000457	20.715152
1000.275099	-3.005600	3.651600	-10.973000	25.259075	0.000457	20.695137
1001.275785	-3.019000	3.651200	-11.022000	25.232012	0.000459	20.704002
1002.276519	-3.024300	3.649600	-11.036000	25.255498	0.000456	20.701029
1003.273705	-2.983200	3.652800	-10.895000	25.240184	0.000457	20.710785
1004.273690	-3.010900	3.651600	-10.994000	25.251543	0.000457	20.718397
1005.276470	-3.001500	3.650800	-10.957000	25.267974	0.000458	20.716401
1006.274802	-2.984600	3.649700	-10.892000	25.219084	0.000456	20.697186
1007.276110	-2.989500	3.649400	-10.908000	25.268914	0.000454	20.689842
1008.275397	-2.994200	3.649600	-10.927000	25.279604	0.000454	20.708637
1009.276533	-2.998400	3.650300	-10.944000	25.260290	0.000454	20.716273
1010.277126	-2.987900	3.649700	-10.904000	25.231777	0.000454	20.699973
1011.277683	-2.998600	3.648200	-10.939000	25.236894	0.000454	20.708430
1012.276602	-2.989700	3.649000	-10.909000	25.169977	0.000453	20.701466
1013.276018	-2.982500	3.648600	-10.881000	25.164112	0.000452	20.706010
1014.278642	-2.979500	3.647700	-10.867000	25.189395	0.000452	20.727126
1015.276653	-3.000200	3.647200	-10.941000	25.219272	0.000452	20.711601
1016.277390	-3.002100	3.647900	-10.950000	25.249769	0.000451	20.708554
1017.278000	-2.990700	3.646500	-10.905000	25.300891	0.000451	20.728589
1018.274942	-2.986700	3.648200	-10.894000	25.304271	0.000448	20.702583
1019.277115	-2.972700	3.647100	-10.841000	25.278950	0.000450	20.701816
1020.281682	-3.000000	3.644900	-10.933000	25.268905	0.000449	20.708327
1021.278464	-3.014300	3.646100	-10.989000	25.263012	0.000450	20.683916
1022.279160	-2.971100	3.647400	-10.836000	25.247005	0.000448	20.703408
1023.282917	-3.020900	3.645500	-11.012000	25.216105	0.000447	20.719802
1024.279853	-3.015200	3.645300	-10.990000	25.188667	0.000448	20.713592
1025.282140	-2.982100	3.646000	-10.871000	25.193834	0.000448	20.714986
1026.283737	-3.003800	3.643900	-10.945000	25.174995	0.000446	20.699391
1027.279263	-3.020300	3.643900	-11.004000	25.121895	0.000448	20.719105
1028.280854	-3.003000	3.643000	-10.939000	25.120178	0.000447	20.703630
1029.286369	-2.988800	3.642900	-10.886000	25.151223	0.000447	20.719150
1030.279568	-2.993600	3.642700	-10.904000	25.201489	0.000446	20.701333
1031.281792	-2.993500	3.643400	-10.905000	25.249415	0.000447	20.717683
1032.284047	-3.001900	3.642400	-10.934000	25.277102	0.000447	20.709918
1033.277950	-2.999600	3.643000	-10.926000	25.203156	0.000447	20.702533
1034.281993	-2.987000	3.643200	-10.881000	25.211259	0.000445	20.677001
1035.285242	-2.996000	3.641400	-10.909000	25.185057	0.000446	20.698113
1036.280218	-3.002800	3.641600	-10.934000	25.135095	0.000446	20.709123
1037.283740	-3.003600	3.640000	-10.931000	25.136212	0.000445	20.704080
1038.294298	-3.001100	3.641300	-10.927000	25.140262	0.000442	20.720000
1039.282690	-3.010000	3.640100	-10.955000	25.112345	0.000443	20.691973
1040.286277	-3.001800	3.639800	-10.926000	25.109211	0.000442	20.699733
1041.289397	-3.009100	3.639400	-10.950000	25.116346	0.000442	20.709741
1042.285183	-3.002700	3.640600	-10.930000	25.130639	0.000443	20.705597
1043.286987	-3.004500	3.639700	-10.935000	25.193431	0.000442	20.687553
1044.289592	-3.013300	3.639100	-10.964000	25.210290	0.000442	20.701634
1045.284626	-3.006600	3.640200	-10.944000	25.223333	0.000442	20.695762
1046.287902	-3.020100	3.636600	-10.982000	25.218939	0.000441	20.702731
1047.288739	-2.996100	3.639800	-10.904000	25.229826	0.000442	20.714136
1048.284016	-2.986900	3.638100	-10.866000	25.204396	0.000440	20.703778
1049.285491	-2.996100	3.638300	-10.900000	25.261468	0.000439	20.700385
1050.285487	-2.980300	3.637600	-10.840000	25.291196	0.000439	20.705102
1051.286064	-3.006000	3.637000	-10.932000	25.335788	0.000439	20.695820
1052.285246	-3.008200	3.637300	-10.941000	25.356138	0.000439	20.684011
1053.286335	-3.004500	3.637000	-10.926000	25.362799	0.000439	20.708244
1054.286771	-3.011600	3.635000	-10.947000	25.350550	0.000439	20.694047
1055.288147	-2.964500	3.637000	-10.782000	25.312373	0.000438	20.684638
1056.294385	-3.013700	3.636400	-10.957000	25.318537	0.000436	20.703156
1057.291743	-3.007900	3.633800	-10.928000	25.293487	0.000437	20.709774
1058.289493	-2.995300	3.635300	-10.889000	25.302210	0.000436	20.700039
1059.289877	-2.975200	3.635500	-10.816000	25.337849	0.000437	20.700261
1060.290128	-2.994600	3.635600	-10.886000	25.350431	0.000435	20.690134
1061.289820	-2.993500	3.634400	-10.879000	25.275566	0.000434	20.703160
1062.289643	-2.967300	3.635200	-10.785000	25.270967	0.000436	20.700439
1063.290259	-2.994000	3.633800	-10.879000	25.239452	0.000435	20.707680
1064.290432	-2.978000	3.634900	-10.824000	25.220984	0.000433	20.697672
1065.289259	-3.000300	3.633900	-10.902000	25.242586	0.000434	20.722206
1066.290283	-3.008600	3.632900	-10.929000	25.260282	0.000433	20.680700
1067.291440	-3.003900	3.632600	-10.911000	25.271197	0.000433	20.731018
1068.290030	-2.995800	3.633100	-10.882000	25.261423	0.000433	20.714091
1069.291006	-3.027600	3.632200	-10.996000	25.253999	0.000432	20.703792
1070.291241	-3.015900	3.631500	-10.951000	25.243461	0.000431	20.712179
1071.292154	-3.004900	3.632500	-10.915000	25.214130	0.000431	20.696481
1072.289973	-3.029200	3.630600	-10.997000	25.204114	0.000430	20.695908
1073.292503	-3.009500	3.630700	-10.926000	25.200163	0.000432	20.704270
1074.292035	-2.990200	3.631000	-10.857000	25.172918	0.000429	20.686399
1075.295753	-2.999200	3.630700	-10.888000	25.214681	0.000431	20.707940
1076.291471	-2.976700	3.630600	-10.806000	25.263826	0.000430	20.721246
1077.294289	-2.999400	3.628900	-10.883000	25.288905	0.000429	20.707070
1078.293452	-2.986400	3.630600	-10.842000	25.298498	0.000429	20.701054
1079.291651	-2.962900	3.629900	-10.754000	25.294926	0.000428	20.714538
1080.298860	-2.991600	3.628400	-10.854000	25.268106	0.000428	20.717482
1081.295885	-3.009400	3.629000	-10.920000	25.288684	0.000425	20.718228
1082.293998	-2.997300	3.628400	-10.874000	25.299648	0.000426	20.705054
1083.294992	-2.994300	3.628600	-10.865000	25.256796	0.000426	20.708023
1084.303555	-2.998900	3.626800	-10.876000	25.284865	0.000427	20.689262
1085.304352	-2.987000	3.628500	-10.838000	25.311159	0.000427	20.707603
1086.297350	-3.008500	3.625800	-10.907000	25.326644	0.000426	20.714142
1087.297383	-2.998200	3.626700	-10.873000	25.282253	0.000424	20.707504
1088.294114	-2.966300	3.626500	-10.757000	25.251885	0.000424	20.703092
1089.302306	-2.985300	3.626800	-10.826000	25.240649	0.000426	20.714097
1090.304351	-2.991400	3.627300	-10.850000	25.224916	0.000423	20.695455
1091.296425	-3.000000	3.625300	-10.875000	25.257257	0.000423	20.696631
1092.297708	-2.991200	3.625300	-10.843000	25.271548	0.000423	20.718567
1093.300193	-2.983600	3.624800	-10.814000	25.264562	0.000422	20.696853
1094.294703	-3.001300	3.625000	-10.878000	25.295460	0.000422	20.698952
1095.303437	-3.009800	3.625200	-10.910000	25.347809	0.000421	20.730653
1096.299974	-3.007300	3.624600	-10.899000	25.373802	0.000423	20.711232
1097.297115	-2.998100	3.622900	-10.860000	25.383295	0.000420	20.706539
1098.304693	-3.018300	3.624300	-10.938000	25.388917	0.000421	20.699381
1099.301035	-3.006800	3.623900	-10.896000	25.391426	0.000421	20.709488
1100.300655	-2.996600	3.622900	-10.855000	25.428606	0.000420	20.708416
1101.302776	-2.999300	3.623800	-10.867000	25.385390	0.000421	20.702478
1102.300824	-3.022700	3.622000	-10.947000	25.346992	0.000419	20.693794
1103.298850	-3.012100	3.621600	-10.908000	25.332152	0.000421	20.728682
1104.307448	-3.018400	3.621800	-10.931000	25.320695	0.000421	20.707694
1105.303674	-2.987400	3.621400	-10.818000	25.308068	0.000421	20.731053
1106.300390	-3.000800	3.620700	-10.864000	25.326140	0.000419	20.718852
1107.303355	-3.004100	3.620600	-10.876000	25.320720	0.000420	20.734273
1108.304420	-3.015600	3.619400	-10.913000	25.323081	0.000420	20.718625
1109.302321	-3.002300	3.619700	-10.866000	25.322137	0.000418	20.716254
1110.302773	-3.018300	3.620000	-10.926000	25.288632	0.000419	20.720073
1111.304092	-3.015700	3.618800	-10.912000	25.314158	0.000420	20.723417
1112.300780	-2.999300	3.619000	-10.854000	25.332472	0.000421	20.705768
1113.301022	-3.005200	3.618300	-10.873000	25.310749	0.000417	20.729003
1114.301988	-3.005200	3.616900	-10.869000	25.287806	0.000419	20.746272
1115.301290	-3.017900	3.618200	-10.918000	25.262103	0.000419	20.720464
1116.302449	-2.995500	3.618100	-10.837000	25.275449	0.000419	20.715371
1117.304546	-3.031100	3.615700	-10.959000	25.297336	0.000419	20.733080
1118.301531	-3.014300	3.616700	-10.901000	25.293637	0.000417	20.723201
1119.301477	-2.989500	3.618400	-10.817000	25.279489	0.000418	20.722273
1120.304009	-3.010700	3.616500	-10.887000	25.303964	0.000415	20.735942
1121.303477	-3.012800	3.616400	-10.895000	25.310177	0.000415	20.754034
1122.303074	-3.003600	3.616200	-10.860000	25.358316	0.000414	20.726977
1123.302235	-3.004500	3.615200	-10.862000	25.375665	0.000413	20.740131
1124.302613	-3.000600	3.616700	-10.852000	25.392857	0.000414	20.751230
1125.302637	-3.028100	3.614500	-10.945000	25.435975	0.000414	20.717712
1126.304523	-3.022600	3.615300	-10.927000	25.408037	0.000412	20.734704
1127.303987	-2.981600	3.616400	-10.782000	25.386188	0.000410	20.723195
1128.303266	-3.000100	3.614500	-10.843000	25.393320	0.000413	20.745057
1129.303862	-2.987000	3.614000	-10.794000	25.395529	0.000410	20.739688
1130.303734	-2.989500	3.614600	-10.805000	25.418589	0.000411	20.725385
1131.304940	-2.996800	3.614300	-10.830000	25.432627	0.000410	20.744224
1132.307762	-2.989200	3.613800	-10.801000	25.482953	0.000409	20.722214
1133.304116	-3.009900	3.611600	-10.869000	25.480937	0.000410	20.746269
1134.303688	-2.993100	3.612400	-10.811000	25.469256	0.000409	20.739280
1135.303250	-3.006300	3.612100	-10.859000	25.473826	0.000408	20.735808
1136.307701	-3.007000	3.612900	-10.862000	25.448304	0.000408	20.741947
1137.311421	-2.991700	3.611800	-10.804000	25.364872	0.000409	20.734983
1138.307584	-3.019000	3.611400	-10.902000	25.352619	0.000409	20.765355
1139.308750	-2.987800	3.611800	-10.791000	25.326941	0.000408	20.759013
1140.309834	-2.984800	3.612500	-10.781000	25.329775	0.000408	20.758539
1141.311874	-3.011600	3.610300	-10.872000	25.348261	0.000407	20.771886
1142.309352	-2.997000	3.610100	-10.819000	25.365414	0.000407	20.748804
1143.310672	-3.003600	3.610900	-10.844000	25.378459	0.000404	20.760481
1144.310202	-3.007400	3.608800	-10.851000	25.328108	0.000404	20.745959
1145.309837	-3.006600	3.608800	-10.850000	25.292385	0.000406	20.756560
1146.309158	-3.015200	3.608900	-10.880000	25.290078	0.000405	20.771313
1147.309899	-3.015800	3.609000	-10.883000	25.341125	0.000405	20.760926
1148.311486	-2.984500	3.607200	-10.765000	25.359866	0.000405	20.739914
1149.312490	-2.993900	3.607700	-10.800000	25.348877	0.000405	20.754486
1150.310211	-2.989000	3.607500	-10.781000	25.370353	0.000403	20.751393
1151.311659	-3.013300	3.606200	-10.865000	25.366949	0.000403	20.774054
1152.310469	-2.998800	3.606700	-10.814000	25.366526	0.000405	20.745179
1153.316810	-2.997600	3.606800	-10.811000	25.349152	0.000401	20.746227
1154.310477	-2.985400	3.607700	-10.769000	25.304118	0.000401	20.758382
1155.311354	-3.000900	3.605700	-10.819000	25.288829	0.000402	20.747299
1156.312779	-2.999900	3.607400	-10.821000	25.324798	0.000400	20.775353
1157.315658	-3.001200	3.605800	-10.821000	25.360067	0.000401	20.771886
1158.311237	-3.005100	3.604700	-10.832000	25.394140	0.000400	20.757735
1159.313224	-2.998300	3.605600	-10.810000	25.429157	0.000401	20.736471
1160.314822	-2.996100	3.605700	-10.802000	25.444940	0.000400	20.773659
1161.314731	-2.991600	3.604400	-10.781000	25.407140	0.000399	20.764151
1162.314190	-2.995000	3.603800	-10.792000	25.378734	0.000397	20.745584
1163.317744	-2.987600	3.604000	-10.766000	25.391681	0.000398	20.773283
1164.316529	-3.002400	3.604000	-10.820000	25.372300	0.000397	20.758564
1165.323596	-3.018800	3.602400	-10.874000	25.368871	0.000397	20.778829
1166.323853	-3.009900	3.602400	-10.842000	25.370284	0.000396	20.770290
1167.316575	-2.970900	3.603900	-10.705000	25.387209	0.000396	20.757888
1168.315366	-2.986000	3.603600	-10.759000	25.418404	0.000398	20.772616
1169.318232	-2.987100	3.602800	-10.761000	25.442456	0.000398	20.771164
1170.316182	-2.983000	3.603300	-10.746000	25.433165	0.000399	20.752824
1171.316418	-3.016400	3.601100	-10.862000	25.478395	0.000396	20.767425
1172.319015	-2.974400	3.602000	-10.712000	25.460408	0.000397	20.774966
1173.316790	-2.991800	3.600800	-10.772000	25.500936	0.000396	20.763034
1174.316586	-3.026100	3.599100	-10.890000	25.485030	0.000394	20.771243
1175.320733	-2.998300	3.601400	-10.797000	25.489703	0.000395	20.777357
1176.317317	-2.986100	3.599800	-10.748000	25.460782	0.000394	20.799998
1177.316849	-3.000600	3.600000	-10.801000	25.457998	0.000394	20.768278
1178.321366	-2.975900	3.600400	-10.714000	25.438437	0.000393	20.760964
1179.317550	-2.992800	3.600100	-10.774000	25.399721	0.000394	20.773296
1180.318434	-3.006500	3.598900	-10.819000	25.412048	0.000392	20.763388
1181.321555	-2.995200	3.597200	-10.773000	25.427532	0.000393	20.777514
1182.318691	-2.993400	3.598400	-10.770000	25.444880	0.000393	20.750837
1183.317892	-2.978000	3.597400	-10.712000	25.465237	0.000395	20.771755
1184.321715	-3.002200	3.596500	-10.796000	25.446247	0.000391	20.755055
1185.317301	-2.984500	3.598000	-10.738000	25.449680	0.000391	20.767986
1186.318572	-2.987000	3.597500	-10.745000	25.434122	0.000391	20.750466
1187.323736	-3.001900	3.597000	-10.797000	25.428879	0.000389	20.783134
1188.318147	-3.006800	3.595600	-10.810000	25.437855	0.000391	20.773656
1189.320082	-2.985300	3.596300	-10.735000	25.432685	0.000389	20.766568
1190.320854	-2.989900	3.596100	-10.751000	25.437235	0.000388	20.795319
1191.318930	-3.011000	3.593700	-10.820000	25.468772	0.000389	20.767244
1192.318488	-2.991600	3.595300	-10.755000	25.452201	0.000389	20.752026
1193.319752	-3.008900	3.593200	-10.810000	25.442532	0.000388	20.772188
1194.319347	-2.987200	3.595800	-10.741000	25.430382	0.000391	20.788912
1195.319839	-2.995900	3.592500	-10.761000	25.425960	0.000389	20.770720
1196.320665	-2.967400	3.593900	-10.664000	25.406029	0.000387	20.774415
1197.320665	-2.985100	3.592900	-10.724000	25.406128	0.000389	20.772143
1198.320847	-2.987700	3.593800	-10.736000	25.429393	0.000386	20.769426
1199.322883	-2.985100	3.592800	-10.724000	25.439210	0.000386	20.791613
1200.319225	-2.987200	3.592600	-10.730000	25.461157	0.000388	20.788520
1201.321711	-3.033500	3.592100	-10.896000	25.486133	0.000388	20.792264
1202.323072	-2.989100	3.591800	-10.736000	25.484967	0.000384	20.780188
1203.321921	-2.990900	3.591600	-10.741000	25.513793	0.000387	20.781635
1204.322350	-3.025300	3.590300	-10.861000	25.550998	0.000384	20.771109
1205.329122	-2.990900	3.591000	-10.739000	25.533804	0.000385	20.786084
1206.324600	-2.991600	3.591200	-10.742000	25.533578	0.000384	20.772581
1207.332055	-3.028700	3.589900	-10.872000	25.559747	0.000384	20.786059
1208.326166	-2.994200	3.590400	-10.748000	25.579257	0.000383	20.791428
1209.323866	-2.996100	3.590100	-10.756000	25.540513	0.000383	20.780967
1210.324694	-2.988800	3.588200	-10.723000	25.500852	0.000386	20.780967
1211.324536	-3.004800	3.589500	-10.785000	25.456074	0.000382	20.807124
1212.323066	-2.997400	3.589800	-10.757000	25.451381	0.000381	20.793877
1213.327415	-3.006000	3.589800	-10.790000	25.447978	0.000382	20.797097
1214.328797	-3.007000	3.587600	-10.787000	25.485009	0.000383	20.802041
1215.324074	-2.991300	3.587100	-10.730000	25.466524	0.000383	20.774944
1216.324012	-2.988900	3.588200	-10.724000	25.425912	0.000383	20.798174
1217.330393	-2.970200	3.587900	-10.655000	25.440530	0.000380	20.811904
1218.326500	-2.980600	3.586200	-10.688000	25.490708	0.000380	20.812980
1219.326299	-2.978000	3.586000	-10.678000	25.529725	0.000380	20.777719
1220.329365	-2.991100	3.584900	-10.722000	25.460813	0.000380	20.764468
1221.325630	-3.001000	3.585300	-10.759000	25.465166	0.000381	20.799185
1222.326326	-2.996900	3.585500	-10.745000	25.471280	0.000378	20.798686
1223.329536	-3.009300	3.585100	-10.788000	25.483634	0.000379	20.796393
1224.325646	-3.001300	3.584300	-10.757000	25.450951	0.000377	20.802928
1225.325434	-2.980400	3.586300	-10.687000	25.442132	0.000378	20.809245
1226.328374	-2.965500	3.584700	-10.629000	25.414051	0.000377	20.815186
1227.326619	-2.998500	3.584100	-10.746000	25.419890	0.000376	20.787859
1228.325613	-2.982800	3.585000	-10.692000	25.431280	0.000377	20.803090
1229.333005	-3.007300	3.584000	-10.777000	25.443307	0.000375	20.790036
1230.326835	-3.017700	3.583000	-10.811000	25.441664	0.000376	20.801663
1231.327921	-2.986200	3.583700	-10.700000	25.452126	0.000375	20.808849
1232.332409	-3.005200	3.582800	-10.766000	25.469699	0.000376	20.808004
1233.327951	-2.988500	3.583100	-10.707000	25.507649	0.000375	20.795380
1234.329657	-2.985600	3.583100	-10.697000	25.517717	0.000374	20.803593
1235.331443	-3.004100	3.583000	-10.762000	25.564184	0.000375	20.805213
1236.326879	-3.000500	3.581200	-10.744000	25.547630	0.000374	20.813245
1237.331029	-3.011200	3.580400	-10.780000	25.536254	0.000376	20.805139
1238.330493	-3.010400	3.580000	-10.776000	25.525546	0.000373	20.803870
1239.327033	-3.021500	3.578400	-10.811000	25.475621	0.000372	20.823433
1240.328324	-2.998700	3.579300	-10.732000	25.459464	0.000372	20.806735
1241.331069	-3.014300	3.578400	-10.786000	25.494060	0.000372	20.796906
1242.326987	-3.013300	3.579300	-10.785000	25.508996	0.000371	20.836087
1243.329084	-3.006800	3.577700	-10.755000	25.514264	0.000372	20.793962
1244.332743	-2.986500	3.579200	-10.687000	25.541796	0.000372	20.827300
1245.326958	-3.003200	3.580100	-10.750000	25.550545	0.000369	20.799103
1246.326951	-2.978400	3.579000	-10.658000	25.560583	0.000372	20.810132
1247.330985	-3.004400	3.577600	-10.748000	25.548558	0.000372	20.805168
1248.328861	-3.028700	3.576700	-10.831000	25.526166	0.000370	20.822510
1249.326639	-3.009100	3.577200	-10.763000	25.509489	0.000370	20.830417
1250.331166	-3.014200	3.577100	-10.781000	25.490311	0.000370	20.808314
1251.326635	-3.005100	3.577400	-10.749000	25.548509	0.000370	20.816973
1252.329539	-3.004200	3.576500	-10.744000	25.546990	0.000368	20.811180
1253.338471	-2.997100	3.576700	-10.719000	25.550919	0.000366	20.827927
1254.329906	-3.007200	3.576100	-10.753000	25.572785	0.000370	20.817645
1255.331261	-2.975400	3.575500	-10.637000	25.568413	0.000368	20.843599
1256.332365	-2.971900	3.576800	-10.629000	25.564562	0.000367	20.818869
1257.330111	-2.966900	3.575600	-10.608000	25.571368	0.000367	20.826653
1258.334000	-3.003700	3.575800	-10.739000	25.537596	0.000368	20.820712
1259.329633	-2.976600	3.574000	-10.637000	25.551962	0.000366	20.828500
1260.330513	-2.999200	3.573100	-10.716000	25.565580	0.000366	20.816573
1261.331521	-2.983500	3.574200	-10.663000	25.560239	0.000364	20.841080
1262.331147	-2.999800	3.573700	-10.719000	25.494039	0.000366	20.808265
1263.332716	-3.020800	3.572700	-10.792000	25.464588	0.000364	20.833691
1264.332389	-3.011300	3.572800	-10.758000	25.455046	0.000366	20.825532
1265.336061	-3.000500	3.573100	-10.720000	25.480716	0.000366	20.829972
1266.333409	-3.014900	3.572800	-10.771000	25.503729	0.000366	20.843599
1267.333221	-3.009700	3.571600	-10.748000	25.512149	0.000364	20.827873
1268.334822	-3.022000	3.570800	-10.790000	25.497985	0.000366	20.827399
1269.333031	-2.992700	3.571100	-10.687000	25.508372	0.000364	20.855373
1270.331526	-2.984900	3.571000	-10.658000	25.511053	0.000362	20.841471
1271.332483	-2.996600	3.572200	-10.704000	25.471391	0.000361	20.827721
1272.335203	-2.978600	3.571800	-10.639000	25.460634	0.000361	20.832565
1273.333550	-2.980700	3.570400	-10.642000	25.473038	0.000362	20.845495
1274.340174	-2.987400	3.569000	-10.661000	25.490558	0.000363	20.842226
1275.335485	-2.977900	3.570500	-10.631000	25.536003	0.000361	20.857043
1276.337073	-3.021400	3.568100	-10.780000	25.554446	0.000361	20.855650
1277.336949	-2.992300	3.567600	-10.674000	25.563092	0.000362	20.855324
1278.336809	-3.005000	3.567600	-10.720000	25.554224	0.000359	20.839781
1279.335555	-3.038200	3.567600	-10.838000	25.586899	0.000359	20.829923
1280.336449	-2.989800	3.568600	-10.669000	25.600891	0.000357	20.839707
1281.336107	-2.996600	3.568600	-10.693000	25.626483	0.000361	20.835064
1282.335989	-2.986600	3.569100	-10.658000	25.651804	0.000359	20.836788
1283.336607	-2.987000	3.568300	-10.658000	25.652699	0.000358	20.843850
1284.335989	-2.998400	3.567300	-10.695000	25.599204	0.000357	20.853659
1285.336804	-3.008600	3.566400	-10.729000	25.550722	0.000357	20.860445
1286.341081	-3.008200	3.566800	-10.729000	25.546301	0.000357	20.846522
1287.337502	-2.982800	3.566700	-10.638000	25.566902	0.000357	20.849668
1288.337173	-2.998700	3.566900	-10.695000	25.627633	0.000357	20.851865
1289.339265	-3.006800	3.565300	-10.719000	25.646788	0.000357	20.847870
1290.337543	-2.998100	3.565100	-10.688000	25.636476	0.000357	20.852686
1291.337365	-2.995100	3.565900	-10.679000	25.641944	0.000356	20.870979
1292.338826	-2.985200	3.565100	-10.641000	25.631808	0.000355	20.854636
1293.342324	-2.999500	3.564600	-10.692000	25.626192	0.000353	20.858479
1294.340462	-2.978000	3.562900	-10.610000	25.601519	0.000354	20.862148
1295.340994	-3.007200	3.564000	-10.716000	25.572248	0.000354	20.868786
1296.342532	-3.019700	3.562300	-10.756000	25.556195	0.000351	20.840812
1297.341297	-3.004000	3.561900	-10.699000	25.525880	0.000354	20.866316
1298.344967	-3.013700	3.562400	-10.735000	25.490768	0.000353	20.846704
1299.341949	-2.999200	3.562500	-10.684000	25.533656	0.000352	20.848522
1300.342033	-2.996700	3.562000	-10.674000	25.555029	0.000352	20.860977
1301.341606	-2.996800	3.562600	-10.676000	25.526696	0.000354	20.850542
1302.341755	-3.002300	3.560600	-10.689000	25.527070	0.000354	20.854236
1303.341837	-3.003500	3.560800	-10.694000	25.510672	0.000352	20.855787
1304.342795	-3.022900	3.559300	-10.758000	25.463176	0.000354	20.846971
1305.345385	-3.001900	3.561400	-10.689000	25.448214	0.000352	20.861818
1306.345510	-3.002700	3.560300	-10.690000	25.465911	0.000349	20.849243
1307.345444	-3.005600	3.559200	-10.696000	25.483401	0.000350	20.841203
1308.345043	-2.999500	3.558900	-10.674000	25.493986	0.000351	20.839030
1309.345549	-2.998500	3.558600	-10.670000	25.470500	0.000350	20.840102
1310.346317	-2.973600	3.559100	-10.583000	25.465150	0.000352	20.870289
1311.345376	-2.994300	3.558200	-10.653000	25.494897	0.000349	20.846583
1312.344209	-2.996500	3.558000	-10.660000	25.508142	0.000349	20.832384
1313.345928	-3.002600	3.557700	-10.681000	25.571105	0.000348	20.839664
1314.346469	-2.992200	3.557500	-10.644000	25.627956	0.000348	20.852190
1315.347115	-3.006200	3.556800	-10.692000	25.655411	0.000348	20.852738
1316.348496	-3.008200	3.556600	-10.697000	25.661372	0.000347	20.820793
1317.349143	-2.997200	3.556900	-10.660000	25.638210	0.000347	20.848264
1318.347876	-3.009800	3.555300	-10.700000	25.542665	0.000345	20.848087
1319.347819	-2.986500	3.556800	-10.620000	25.529396	0.000348	20.837132
1320.347717	-2.985600	3.556700	-10.618000	25.479942	0.000345	20.847687
1321.347054	-2.987300	3.555700	-10.620000	25.475939	0.000345	20.845563
1322.346490	-2.984500	3.554500	-10.608000	25.541987	0.000344	20.844561
1323.349530	-2.980400	3.555400	-10.596000	25.558487	0.000346	20.827942
1324.347266	-3.019400	3.554800	-10.732000	25.577914	0.000344	20.824692
1325.357619	-3.004800	3.554600	-10.680000	25.580550	0.000343	20.818805
1326.349071	-3.003300	3.553500	-10.672000	25.614813	0.000345	20.833775
1327.348473	-3.005300	3.553400	-10.678000	25.652897	0.000344	20.837885
1328.350121	-3.005600	3.553000	-10.678000	25.630290	0.000343	20.818974
1329.350595	-3.000300	3.552100	-10.656000	25.614563	0.000341	20.843006
1330.348729	-3.015100	3.551400	-10.707000	25.629326	0.000342	20.825591
1331.351852	-2.983700	3.551900	-10.597000	25.625392	0.000341	20.841081
1332.351719	-2.982500	3.551600	-10.592000	25.609763	0.000339	20.838661
1333.349176	-2.983800	3.551200	-10.596000	25.648378	0.000341	20.831450
1334.350197	-2.992300	3.551800	-10.627000	25.663957	0.000341	20.837139
1335.354354	-2.971000	3.551300	-10.549000	25.694342	0.000340	20.828304
1336.353901	-2.998600	3.549200	-10.641000	25.616167	0.000340	20.829920
1337.353823	-2.981400	3.550900	-10.584000	25.588518	0.000339	20.825385
1338.358124	-2.995700	3.550300	-10.634000	25.602382	0.000339	20.828877
1339.352246	-3.008100	3.548800	-10.674000	25.624817	0.000337	20.824383
1340.353165	-2.999800	3.550300	-10.650000	25.664995	0.000338	20.819691
1341.353881	-3.045400	3.549400	-10.808000	25.686711	0.000337	20.828225
1342.354196	-3.018600	3.548800	-10.711000	25.651998	0.000338	20.825129
1343.355652	-3.000400	3.547500	-10.643000	25.600017	0.000336	20.818915
1344.354715	-2.987200	3.547800	-10.597000	25.635803	0.000336	20.839209
1345.354757	-3.001500	3.547400	-10.647000	25.625589	0.000336	20.837485
1346.357496	-3.016700	3.546200	-10.697000	25.625639	0.000335	20.815250
1347.355162	-2.989600	3.547100	-10.603000	25.610580	0.000336	20.797282
1348.355620	-2.974000	3.547300	-10.548000	25.638459	0.000333	20.818643
1349.356408	-2.991200	3.547000	-10.609000	25.651206	0.000335	20.809160
1350.357151	-2.982100	3.546800	-10.576000	25.654535	0.000334	20.829099
1351.356168	-2.977400	3.546700	-10.559000	25.643381	0.000333	20.818371
1352.356662	-2.998400	3.546200	-10.632000	25.600169	0.000333	20.818594
1353.355510	-3.000900	3.545100	-10.637000	25.584963	0.000334	20.814228
1354.356048	-3.010300	3.544900	-10.671000	25.557456	0.000333	20.796086
1355.361250	-2.994800	3.544400	-10.613000	25.565630	0.000334	20.818046
1356.359193	-2.987300	3.543400	-10.585000	25.600292	0.000334	20.816821
1357.357418	-2.986200	3.543400	-10.580000	25.583670	0.000332	20.812455
1358.358309	-2.996400	3.541700	-10.611000	25.654634	0.000332	20.808810
1359.359684	-3.001900	3.543300	-10.636000	25.626730	0.000333	20.809709
1360.357270	-2.992300	3.542700	-10.600000	25.623376	0.000330	20.828625
1361.357810	-2.998200	3.541700	-10.617000	25.637884	0.000331	20.818540
1362.359421	-3.009500	3.542000	-10.658000	25.631226	0.000328	20.829870
1363.357026	-3.012700	3.540300	-10.664000	25.660299	0.000331	20.817819
1364.357446	-2.981000	3.541400	-10.556000	25.662634	0.000330	20.812104
1365.360377	-3.016500	3.541600	-10.682000	25.659157	0.000329	20.807664
1366.358383	-2.998500	3.540800	-10.616000	25.616718	0.000329	20.791118
1367.358621	-2.974100	3.540800	-10.530000	25.598104	0.000329	20.802295
1368.359270	-2.984200	3.539900	-10.563000	25.627399	0.000329	20.808484
1369.362130	-2.990900	3.541300	-10.590000	25.627518	0.000328	20.816190
1370.359698	-2.983700	3.539600	-10.560000	25.631924	0.000326	20.792639
1371.359553	-2.984000	3.539200	-10.560000	25.595616	0.000327	20.805487
1372.362494	-2.998200	3.538200	-10.607000	25.603499	0.000326	20.805343
1373.359042	-2.985500	3.537900	-10.561000	25.674083	0.000328	20.808905
1374.359756	-2.980000	3.539000	-10.545000	25.646407	0.000328	20.792961
1375.361415	-3.018700	3.537700	-10.678000	25.679281	0.000326	20.824556
1376.357987	-2.996400	3.537600	-10.599000	25.630404	0.000325	20.791114
1377.359375	-3.028100	3.535800	-10.706000	25.612863	0.000326	20.796255
1378.362609	-2.989500	3.537600	-10.575000	25.609361	0.000326	20.815023
1379.366264	-2.986900	3.536800	-10.563000	25.624994	0.000324	20.788051
1380.360404	-2.992100	3.536000	-10.580000	25.660947	0.000324	20.800927
1381.363913	-2.995300	3.535600	-10.588000	25.659354	0.000325	20.796008
1382.361284	-2.968400	3.535800	-10.493000	25.678415	0.000324	20.787651
1383.360048	-3.000500	3.534900	-10.606000	25.683135	0.000325	20.813729
1384.362847	-2.997900	3.534400	-10.595000	25.637314	0.000323	20.809432
1385.362794	-2.994000	3.535300	-10.584000	25.612916	0.000322	20.800102
1386.359986	-2.974400	3.534500	-10.512000	25.569879	0.000322	20.782484
1387.362130	-3.004500	3.534500	-10.618000	25.526266	0.000323	20.804592
1388.360296	-3.002200	3.534500	-10.609000	25.567194	0.000323	20.824358
1389.362488	-3.011200	3.531500	-10.633000	25.619427	0.000324	20.818495
1390.362018	-3.009900	3.532600	-10.632000	25.644916	0.000320	20.795257
1391.361538	-2.995000	3.532500	-10.579000	25.577084	0.000322	20.787824
1392.362251	-2.988500	3.532400	-10.556000	25.587717	0.000323	20.793761
1393.370063	-3.004200	3.531300	-10.608000	25.574596	0.000321	20.798127
1394.363750	-3.005300	3.532800	-10.616000	25.580389	0.000321	20.795884
1395.363041	-3.016100	3.529900	-10.646000	25.596688	0.000320	20.796606
1396.365781	-3.003900	3.530100	-10.604000	25.603991	0.000321	20.793983
1397.363651	-2.987500	3.530100	-10.544000	25.655274	0.000320	20.784323
1398.362566	-3.000400	3.529600	-10.590000	25.691378	0.000321	20.790714
1399.366422	-2.994400	3.530900	-10.572000	25.685138	0.000318	20.803413
1400.367177	-2.989900	3.530000	-10.553000	25.675996	0.000320	20.792334
1401.363487	-3.008900	3.528800	-10.617000	25.644268	0.000319	20.785597
1402.365840	-3.003100	3.528500	-10.595000	25.610198	0.000318	20.787889
1403.364629	-2.998400	3.529000	-10.580000	25.620182	0.000319	20.778950
1404.367881	-2.976900	3.528900	-10.504000	25.606717	0.000318	20.796721
1405.366023	-3.009300	3.526600	-10.612000	25.570515	0.000319	20.799244
1406.366293	-2.993000	3.528000	-10.559000	25.594815	0.000317	20.791406
1407.367004	-2.991000	3.526300	-10.546000	25.630199	0.000318	20.796123
1408.370159	-2.991000	3.527100	-10.549000	25.649083	0.000315	20.793752
1409.367690	-3.002600	3.526900	-10.588000	25.643339	0.000317	20.767121
1410.367929	-2.992500	3.526100	-10.551000	25.592524	0.000315	20.775354
1411.377583	-2.981200	3.527300	-10.515000	25.638520	0.000313	20.796420
1412.369072	-2.991800	3.526700	-10.550000	25.609594	0.000316	20.794869
1413.369879	-3.016600	3.523800	-10.629000	25.648430	0.000314	20.779820
1414.372536	-2.998300	3.523200	-10.562000	25.661427	0.000314	20.785761
1415.370041	-2.992600	3.524900	-10.548000	25.623138	0.000312	20.804204
1416.370496	-3.016700	3.523500	-10.628000	25.589765	0.000312	20.786334
1417.371409	-2.982000	3.523600	-10.506000	25.609968	0.000313	20.795244
1418.373715	-3.028000	3.522700	-10.666000	25.608674	0.000313	20.791575
1419.369513	-2.988700	3.523200	-10.529000	25.560592	0.000311	20.786433
1420.372788	-3.011600	3.521800	-10.605000	25.561413	0.000311	20.776352
1421.371017	-3.005500	3.523700	-10.589000	25.585865	0.000311	20.784314
1422.370925	-3.008300	3.520900	-10.590000	25.604499	0.000310	20.785485
1423.375200	-2.993700	3.521200	-10.539000	25.663742	0.000311	20.778604
1424.371125	-2.981900	3.520600	-10.496000	25.661431	0.000313	20.795723
1425.372045	-2.987700	3.522000	-10.521000	25.688709	0.000312	20.796094
1426.376411	-3.024900	3.519600	-10.645000	25.637280	0.000311	20.775260
1427.373994	-3.014000	3.519200	-10.606000	25.623437	0.000309	20.790280
1428.374214	-3.025200	3.519800	-10.646000	25.661107	0.000309	20.776905
1429.376407	-2.991600	3.519600	-10.529000	25.670524	0.000308	20.780673
1430.371649	-3.017900	3.517400	-10.614000	25.700790	0.000307	20.778831
1431.371544	-2.999700	3.518300	-10.553000	25.750234	0.000307	20.780604
1432.375698	-3.025400	3.518000	-10.642000	25.764666	0.000307	20.787988
1433.372239	-3.023300	3.516500	-10.630000	25.792422	0.000307	20.777936
1434.373616	-3.008700	3.518000	-10.584000	25.726734	0.000307	20.770749
1435.379209	-3.016800	3.516400	-10.607000	25.638278	0.000306	20.776262
1436.373012	-3.018900	3.517000	-10.617000	25.609110	0.000306	20.776365
1437.373278	-2.980200	3.518600	-10.485000	25.643722	0.000305	20.774617
1438.378407	-3.019600	3.514900	-10.612000	25.688841	0.000307	20.781527
1439.375073	-3.016100	3.516500	-10.605000	25.681513	0.000306	20.786970
1440.374812	-2.984000	3.517600	-10.495000	25.692868	0.000304	20.762338
1441.379456	-3.008300	3.514500	-10.572000	25.647675	0.000306	20.782381
1442.375641	-3.005300	3.516700	-10.566000	25.655347	0.000306	20.771595
1443.375990	-3.005700	3.515800	-10.567000	25.603116	0.000305	20.761336
1444.380285	-3.000500	3.514300	-10.544000	25.611545	0.000303	20.740403
1445.378274	-2.964000	3.515600	-10.419000	25.637486	0.000306	20.756974
1446.379453	-3.002500	3.514000	-10.549000	25.655327	0.000304	20.769203
1447.379045	-2.973800	3.514600	-10.450000	25.658751	0.000304	20.770271
1448.378159	-2.976600	3.513600	-10.457000	25.669481	0.000303	20.758289
1449.378407	-2.994900	3.512900	-10.520000	25.673734	0.000302	20.782950
1450.378933	-2.992300	3.512500	-10.510000	25.695524	0.000302	20.771170
1451.378506	-3.004400	3.511400	-10.548000	25.716467	0.000303	20.768498
1452.377964	-2.983300	3.511900	-10.476000	25.689485	0.000300	20.740922
1453.379292	-2.996100	3.511200	-10.518000	25.632264	0.000300	20.755048
1454.378302	-3.008600	3.509800	-10.559000	25.612612	0.000299	20.757122
1455.379297	-3.016400	3.511600	-10.592000	25.561992	0.000300	20.766028
1456.380782	-3.024100	3.510700	-10.616000	25.545767	0.000300	20.763010
1457.381600	-3.002900	3.511000	-10.542000	25.580730	0.000299	20.762086
1458.379271	-3.001400	3.510200	-10.535000	25.642232	0.000301	20.760792
1459.380512	-2.989900	3.508900	-10.490000	25.672141	0.000301	20.756693
1460.380258	-3.019700	3.508400	-10.593000	25.686357	0.000300	20.769550
1461.380286	-3.004900	3.509100	-10.544000	25.698578	0.000300	20.746261
1462.380550	-2.979100	3.510000	-10.456000	25.626274	0.000297	20.750455
1463.382486	-2.976200	3.509400	-10.444000	25.573225	0.000298	20.751704
1464.380869	-2.997000	3.508800	-10.515000	25.584281	0.000300	20.749531
1465.382608	-2.995000	3.508400	-10.506000	25.568356	0.000299	20.744917
1466.382355	-2.986300	3.506600	-10.471000	25.571509	0.000297	20.749032
1467.383667	-3.007800	3.506600	-10.546000	25.598867	0.000297	20.766078
1468.385305	-3.032600	3.505700	-10.631000	25.611044	0.000296	20.751279
1469.382269	-3.016500	3.505800	-10.575000	25.602024	0.000296	20.746014
1470.383718	-3.012100	3.505900	-10.559000	25.600362	0.000297	20.730119
1471.387604	-3.023300	3.504600	-10.594000	25.592656	0.000295	20.740872
1472.385206	-2.982900	3.504800	-10.454000	25.624936	0.000298	20.749585
1473.385205	-2.993400	3.505500	-10.493000	25.576333	0.000294	20.760041
1474.386564	-2.971600	3.505700	-10.416000	25.565597	0.000295	20.759217
1475.384801	-3.001800	3.504700	-10.519000	25.586026	0.000294	20.752232
1476.385895	-2.985200	3.503600	-10.458000	25.624764	0.000295	20.732342
1477.387955	-2.997200	3.503700	-10.500000	25.669391	0.000294	20.737335
1478.388728	-3.013100	3.502500	-10.553000	25.721541	0.000292	20.733764
1479.388491	-3.000000	3.504400	-10.513000	25.748251	0.000293	20.748266
1480.391872	-3.004100	3.501900	-10.519000	25.738412	0.000293	20.720363
1481.389781	-3.012800	3.502300	-10.550000	25.694711	0.000292	20.730998
1482.391256	-3.007000	3.502100	-10.530000	25.676001	0.000291	20.733542
1483.390736	-3.004600	3.502400	-10.522000	25.656945	0.000291	20.730998
1484.389882	-3.022700	3.500200	-10.579000	25.652671	0.000288	20.738086
1485.391429	-3.012400	3.501200	-10.546000	25.722711	0.000290	20.741578
1486.391838	-2.993600	3.501000	-10.479000	25.678837	0.000289	20.736865
1487.390301	-3.002300	3.501000	-10.509000	25.655705	0.000289	20.727856
1488.391958	-3.001100	3.500300	-10.503000	25.668004	0.000291	20.729777
1489.393199	-2.986600	3.501400	-10.457000	25.703656	0.000289	20.732870
1490.390518	-3.012100	3.499400	-10.540000	25.729074	0.000287	20.734692
1491.395090	-3.006000	3.499200	-10.518000	25.703435	0.000287	20.729802
1492.394509	-3.005500	3.498300	-10.513000	25.699806	0.000288	20.749392
1493.392488	-3.006600	3.496900	-10.513000	25.658887	0.000286	20.737690
1494.396653	-2.987100	3.499000	-10.450000	25.644301	0.000286	20.745800
1495.395653	-3.002900	3.497900	-10.503000	25.671181	0.000286	20.721588
1496.392614	-3.019700	3.498300	-10.563000	25.685192	0.000286	20.733764
1497.397342	-3.018600	3.497100	-10.556000	25.734390	0.000288	20.726280
1498.399111	-2.981200	3.497000	-10.424000	25.781771	0.000285	20.722664
1499.395006	-3.013100	3.495600	-10.532000	25.810466	0.000285	20.729204
1500.400053	-2.994200	3.496000	-10.467000	25.761966	0.000286	20.717943
1501.398566	-3.002200	3.496000	-10.495000	25.782690	0.000286	20.716001
1502.393715	-3.001200	3.495700	-10.490000	25.752755	0.000286	20.728606
1503.396311	-3.008100	3.494600	-10.511000	25.677150	0.000284	20.714781
1504.401309	-3.015500	3.494700	-10.537000	25.703459	0.000284	20.706117
1505.396595	-3.026300	3.494200	-10.574000	25.677200	0.000284	20.720995
1506.398101	-3.012900	3.493600	-10.525000	25.672130	0.000282	20.720170
1507.399339	-3.012300	3.493200	-10.522000	25.619924	0.000283	20.711832
1508.397651	-3.033500	3.492400	-10.594000	25.624222	0.000282	20.729901
1509.400655	-2.985900	3.492500	-10.427000	25.642807	0.000282	20.717745
1510.399990	-3.004000	3.492700	-10.491000	25.695528	0.000284	20.716644
1511.401798	-2.975900	3.491800	-10.390000	25.737842	0.000281	20.722161
1512.404072	-2.973000	3.492100	-10.381000	25.735953	0.000282	20.731171
1513.403667	-2.997400	3.490700	-10.463000	25.734361	0.000281	20.714397
1514.400644	-2.987800	3.492700	-10.435000	25.755476	0.000281	20.728968
1515.402439	-2.986500	3.491900	-10.428000	25.727973	0.000282	20.729319
1516.403550	-2.990300	3.490700	-10.437000	25.700191	0.000282	20.744088
1517.401717	-2.995100	3.492100	-10.458000	25.730678	0.000278	20.711646
1518.407289	-2.967500	3.492100	-10.361000	25.785559	0.000281	20.725995
1519.406425	-3.005400	3.488400	-10.482000	25.788042	0.000279	20.718532
1520.400529	-3.031700	3.488300	-10.575000	25.703619	0.000280	20.732832
1521.406372	-3.017600	3.489500	-10.529000	25.671242	0.000278	20.733978
1522.406627	-3.005100	3.487300	-10.479000	25.682071	0.000280	20.722094
1523.402655	-2.997100	3.489100	-10.455000	25.663709	0.000278	20.709341
1524.409498	-3.018400	3.488000	-10.527000	25.699936	0.000277	20.713011
1525.408082	-2.997000	3.487100	-10.450000	25.742053	0.000281	20.711217
1526.404099	-3.004400	3.486900	-10.475000	25.770076	0.000279	20.715184
1527.411546	-2.989900	3.486900	-10.424000	25.744113	0.000278	20.727038
1528.408267	-2.994700	3.487700	-10.444000	25.759859	0.000277	20.720569
1529.404958	-3.013500	3.486500	-10.506000	25.806521	0.000276	20.720499
1530.405610	-3.010800	3.486300	-10.496000	25.787812	0.000278	20.709291
1531.408806	-3.008500	3.486700	-10.489000	25.809029	0.000277	20.723966
1532.410677	-3.026700	3.485700	-10.549000	25.743214	0.000277	20.730877
1533.407895	-3.013600	3.484400	-10.500000	25.737874	0.000276	20.698484
1534.410160	-2.996100	3.485300	-10.441000	25.764156	0.000273	20.730102
1535.410461	-3.025600	3.484200	-10.541000	25.710637	0.000275	20.708586
1536.418666	-2.975200	3.485500	-10.369000	25.711857	0.000276	20.734942
1537.409101	-3.027500	3.482800	-10.543000	25.736950	0.000274	20.720791
1538.408635	-2.980100	3.484900	-10.385000	25.717296	0.000275	20.709584
1539.408799	-2.993300	3.482600	-10.424000	25.707505	0.000273	20.726304
1540.409499	-3.052300	3.481500	-10.625000	25.714311	0.000274	20.692360
1541.408393	-2.994800	3.481800	-10.427000	25.736478	0.000274	20.732646
1542.412421	-3.011700	3.482500	-10.488000	25.702735	0.000273	20.736686
1543.411690	-2.977900	3.482600	-10.370000	25.692374	0.000272	20.710157
1544.408190	-2.997300	3.481900	-10.436000	25.749091	0.000271	20.738203
1545.410201	-2.993800	3.480400	-10.418000	25.762141	0.000272	20.729974
1546.412526	-2.993100	3.480800	-10.418000	25.735751	0.000270	20.737606
1547.409461	-3.011600	3.480000	-10.480000	25.736449	0.000272	20.735462
1548.414124	-3.004100	3.479400	-10.451000	25.732397	0.000270	20.735659
1549.416528	-2.973600	3.480300	-10.348000	25.714287	0.000271	20.740228
1550.409289	-2.999500	3.479500	-10.436000	25.765043	0.000270	20.724353
1551.412880	-3.023700	3.478800	-10.518000	25.743427	0.000270	20.716391
1552.413723	-2.984900	3.480400	-10.388000	25.724500	0.000270	20.736736
1553.411512	-3.005600	3.477700	-10.451000	25.706857	0.000270	20.723755
1554.420786	-2.995100	3.477500	-10.415000	25.703355	0.000268	20.734938
1555.415956	-2.991400	3.477500	-10.402000	25.689562	0.000268	20.721083
1556.413541	-2.986400	3.477700	-10.385000	25.724072	0.000269	20.726823
1557.417013	-2.973000	3.478400	-10.340000	25.739133	0.000269	20.736736
1558.416831	-2.989000	3.477900	-10.395000	25.771430	0.000267	20.745943
1559.413139	-3.007700	3.476600	-10.456000	25.776097	0.000267	20.725500
1560.415963	-2.994400	3.475400	-10.405000	25.783108	0.000267	20.741078
1561.417204	-3.012100	3.476000	-10.469000	25.789810	0.000267	20.738327
1562.412266	-3.019800	3.475600	-10.495000	25.803705	0.000267	20.718618
1563.417246	-2.998600	3.475200	-10.420000	25.753894	0.000265	20.720267
1564.417249	-3.012800	3.475200	-10.469000	25.729491	0.000265	20.727998
1565.414990	-2.970100	3.475600	-10.321000	25.755581	0.000264	20.712004
1566.414382	-2.979300	3.474900	-10.351000	25.750364	0.000265	20.726679
1567.417975	-2.989600	3.474400	-10.386000	25.741420	0.000264	20.726704
1568.416029	-2.989300	3.474600	-10.386000	25.773646	0.000262	20.729677
1569.416893	-3.001500	3.473700	-10.425000	25.781322	0.000264	20.735491
1570.417861	-2.972600	3.474300	-10.327000	25.816798	0.000262	20.732246
1571.416863	-2.993300	3.473600	-10.397000	25.823612	0.000261	20.726762
1572.415289	-3.002600	3.471500	-10.422000	25.864796	0.000265	20.709336
1573.419089	-3.004500	3.471900	-10.430000	25.827959	0.000262	20.741086
1574.422872	-3.001900	3.472300	-10.422000	25.805577	0.000261	20.743259
1575.416874	-2.988100	3.470600	-10.369000	25.784758	0.000263	20.727088
1576.417026	-2.993900	3.472000	-10.393000	25.781208	0.000261	20.740118
1577.418600	-2.995200	3.471300	-10.396000	25.802248	0.000261	20.734699
1578.415911	-2.995400	3.470300	-10.394000	25.804608	0.000258	20.723319
1579.418005	-2.999900	3.470300	-10.410000	25.841155	0.000259	20.756714
1580.421091	-3.011000	3.467500	-10.439000	25.831070	0.000260	20.743264
1581.414862	-2.998300	3.469600	-10.401000	25.794803	0.000259	20.725798
1582.416569	-2.994300	3.468200	-10.384000	25.784295	0.000257	20.739425
1583.420614	-2.988700	3.470100	-10.370000	25.783174	0.000259	20.730712
1584.418098	-2.990300	3.468000	-10.369000	25.734479	0.000258	20.725422
1585.417694	-2.956200	3.469100	-10.254000	25.716742	0.000256	20.747911
1586.419861	-2.976900	3.469200	-10.326000	25.730629	0.000257	20.739574
1587.417696	-3.019300	3.467000	-10.467000	25.726631	0.000256	20.749783
1588.420410	-3.025900	3.465900	-10.486000	25.702777	0.000258	20.742419
1589.420381	-2.965000	3.468700	-10.284000	25.735723	0.000257	20.730939
1590.418729	-2.983600	3.467600	-10.345000	25.765979	0.000255	20.743787
1591.417557	-2.982600	3.466400	-10.337000	25.763820	0.000257	20.729290
1592.420737	-3.013400	3.465400	-10.442000	25.743104	0.000255	20.720808
1593.417902	-3.015500	3.464300	-10.446000	25.749963	0.000254	20.740027
1594.419129	-2.993800	3.464500	-10.371000	25.780293	0.000254	20.726870
1595.422731	-2.983100	3.465600	-10.337000	25.736573	0.000254	20.748389
1596.421071	-2.982800	3.466200	-10.337000	25.755008	0.000254	20.746043
1597.427277	-2.987800	3.465700	-10.353000	25.744249	0.000254	20.739978
1598.424607	-3.003300	3.464800	-10.405000	25.752225	0.000255	20.737083
1599.420066	-2.978100	3.465200	-10.319000	25.736126	0.000253	20.741776
1600.424023	-3.016300	3.462700	-10.443000	25.735555	0.000251	20.739306
1601.427194	-2.988000	3.463700	-10.349000	25.727231	0.000253	20.752282
1602.421609	-3.007200	3.461900	-10.409000	25.745985	0.000252	20.762585
1603.423962	-3.001500	3.462400	-10.392000	25.727633	0.000252	20.739883
1604.427835	-3.012400	3.462100	-10.428000	25.729767	0.000251	20.731595
1605.423867	-2.982900	3.463300	-10.329000	25.743506	0.000252	20.761992
1606.426402	-3.009600	3.462100	-10.418000	25.813688	0.000251	20.754253
1607.426285	-2.959200	3.462200	-10.244000	25.801789	0.000252	20.746093
1608.427378	-3.013100	3.460300	-10.424000	25.776919	0.000253	20.756199
1609.425409	-3.008400	3.460500	-10.410000	25.814932	0.000251	20.750760
1610.425442	-3.000900	3.458900	-10.379000	25.828936	0.000251	20.747284
1611.425239	-3.016400	3.459600	-10.434000	25.815576	0.000253	20.774642
1612.426734	-3.005600	3.460000	-10.399000	25.847521	0.000252	20.721856
1613.432912	-2.992700	3.458900	-10.351000	25.815601	0.000252	20.759967
1614.427817	-3.000800	3.458900	-10.378000	25.776791	0.000250	20.770770
1615.431767	-3.005500	3.457600	-10.390000	25.744717	0.000249	20.767475
1616.437335	-2.992700	3.459400	-10.352000	25.720470	0.000250	20.757345
1617.431396	-2.989800	3.458500	-10.339000	25.721483	0.000252	20.766424
1618.431367	-3.021000	3.455500	-10.438000	25.753111	0.000250	20.762156
1619.433434	-2.995500	3.458000	-10.357000	25.732833	0.000251	20.758383
1620.429178	-2.972400	3.457300	-10.276000	25.756633	0.000251	20.760952
1621.430347	-3.003200	3.457100	-10.381000	25.771094	0.000251	20.756986
1622.433620	-2.999600	3.455700	-10.365000	25.772112	0.000248	20.750421
1623.432696	-2.983400	3.456900	-10.312000	25.731166	0.000248	20.768563
1624.431999	-2.998500	3.455700	-10.361000	25.779188	0.000248	20.773651
1625.431494	-3.008800	3.455300	-10.395000	25.822364	0.000249	20.767710
1626.431258	-3.006100	3.453700	-10.382000	25.848021	0.000249	20.772146
1627.430815	-2.999600	3.455500	-10.364000	25.843227	0.000248	20.761640
1628.432655	-2.997600	3.454800	-10.355000	25.779553	0.000248	20.764535
1629.430809	-3.016800	3.454500	-10.421000	25.794506	0.000248	20.771020
1630.431878	-3.009200	3.452900	-10.389000	25.777213	0.000248	20.768822
1631.431321	-3.005400	3.454000	-10.380000	25.794005	0.000247	20.752024
1632.432961	-3.024900	3.452400	-10.442000	25.814651	0.000247	20.772290
1633.431481	-3.016800	3.451900	-10.413000	25.852851	0.000246	20.782688
1634.433057	-3.010200	3.451200	-10.388000	25.892745	0.000246	20.774401
1635.433064	-3.012800	3.451700	-10.398000	25.910553	0.000245	20.778066
1636.433549	-2.993100	3.451500	-10.330000	25.918577	0.000246	20.779014
1637.431301	-2.989000	3.451600	-10.316000	25.836593	0.000244	20.771572
1638.431407	-2.978200	3.452200	-10.280000	25.771925	0.000242	20.786745
1639.431617	-2.984900	3.450300	-10.298000	25.777413	0.000246	20.783248
1640.433053	-2.973400	3.451000	-10.259000	25.821307	0.000244	20.781822
1641.430814	-2.982000	3.449900	-10.286000	25.820211	0.000245	20.782617
1642.432632	-2.984600	3.450800	-10.298000	25.802722	0.000243	20.768842
1643.432576	-2.967900	3.452000	-10.243000	25.791959	0.000244	20.770359
1644.432823	-3.005200	3.449400	-10.365000	25.852353	0.000242	20.772705
1645.434571	-3.002200	3.448700	-10.353000	25.862610	0.000243	20.804820
1646.431500	-3.003500	3.448300	-10.356000	25.852698	0.000242	20.801026
1647.432751	-3.008100	3.448000	-10.371000	25.823158	0.000242	20.781784
1648.431874	-3.031800	3.446400	-10.448000	25.801022	0.000242	20.799851
1649.439318	-3.005700	3.448300	-10.363000	25.761391	0.000242	20.783750
1650.433725	-3.040800	3.445500	-10.476000	25.743823	0.000241	20.796449
1651.434827	-3.015000	3.446300	-10.390000	25.767372	0.000242	20.807775
1652.434009	-3.011600	3.446000	-10.377000	25.755472	0.000241	20.778279
1653.435624	-2.983900	3.446100	-10.282000	25.791446	0.000239	20.774110
1654.433837	-2.995300	3.446600	-10.323000	25.772786	0.000240	20.796144
1655.434329	-3.004600	3.444000	-10.347000	25.758177	0.000240	20.806126
1656.445847	-3.007700	3.443800	-10.356000	25.768258	0.000239	20.798709
1657.434893	-2.979500	3.444900	-10.263000	25.751363	0.000239	20.804023
1658.437298	-2.972400	3.444500	-10.238000	25.805746	0.000238	20.805544
1659.433767	-3.005700	3.443400	-10.349000	25.822513	0.000239	20.813852
1660.436102	-3.001300	3.443200	-10.333000	25.865343	0.000237	20.787176
1661.435735	-2.988000	3.444300	-10.290000	25.854236	0.000238	20.788347
1662.437387	-2.994500	3.442500	-10.308000	25.829540	0.000238	20.781082
1663.434734	-2.985700	3.442100	-10.276000	25.789138	0.000236	20.796449
1664.436340	-2.985100	3.442900	-10.277000	25.782825	0.000237	20.791530
1665.436168	-3.009200	3.441200	-10.354000	25.798132	0.000235	20.796948
1666.437855	-2.993200	3.442900	-10.304000	25.799396	0.000236	20.811494
1667.436818	-2.961200	3.442900	-10.195000	25.822201	0.000234	20.817806
1668.438496	-3.004900	3.441000	-10.338000	25.785530	0.000234	20.798514
1669.439561	-2.998400	3.440700	-10.316000	25.842144	0.000234	20.805597
1670.439405	-3.011000	3.440300	-10.357000	25.874437	0.000233	20.784458
1671.439216	-2.992800	3.440600	-10.296000	25.887801	0.000232	20.799780
1672.440735	-2.985800	3.439300	-10.269000	25.865761	0.000233	20.807036
1673.440718	-2.996600	3.439100	-10.304000	25.830512	0.000234	20.798654
1674.439590	-2.979200	3.438100	-10.242000	25.802855	0.000232	20.817814
1675.442233	-2.985700	3.438400	-10.265000	25.817862	0.000231	20.803490
1676.441496	-2.999000	3.438900	-10.312000	25.859271	0.000230	20.804785
1677.443300	-2.995100	3.439500	-10.301000	25.894971	0.000230	20.805086
1678.440454	-3.001400	3.437800	-10.317000	25.867349	0.000231	20.806735
1679.443535	-3.003600	3.438400	-10.327000	25.822676	0.000232	20.796473
1680.445061	-2.992700	3.437800	-10.288000	25.788690	0.000231	20.818758
1681.441387	-3.005300	3.437300	-10.330000	25.827117	0.000230	20.806149
1682.443393	-2.986900	3.436800	-10.264000	25.855487	0.000230	20.807621
1683.443870	-2.993100	3.435200	-10.281000	25.857424	0.000230	20.805774
1684.440618	-2.994900	3.436800	-10.291000	25.834144	0.000230	20.831225
1685.441121	-2.982600	3.435300	-10.246000	25.889865	0.000230	20.817974
1686.439593	-2.974500	3.435300	-10.217000	25.862760	0.000228	20.814453
1687.440955	-2.998500	3.434600	-10.297000	25.821642	0.000228	20.835262
1688.445254	-2.999700	3.434300	-10.302000	25.827753	0.000226	20.805840
1689.440642	-3.018800	3.434500	-10.367000	25.926819	0.000227	20.831864
1690.441855	-3.009300	3.433800	-10.332000	25.954960	0.000227	20.810351
1691.443070	-3.005600	3.433800	-10.319000	25.902772	0.000226	20.825251
1692.444316	-2.989400	3.434800	-10.268000	25.841708	0.000227	20.820806
1693.444256	-3.033500	3.432800	-10.413000	25.798155	0.000226	20.832532
1694.444621	-2.974000	3.432600	-10.207000	25.837255	0.000227	20.828661
1695.444729	-2.987000	3.432700	-10.252000	25.795766	0.000226	20.833452
1696.446120	-2.995800	3.433500	-10.285000	25.807936	0.000225	20.828607
1697.443997	-2.984700	3.433000	-10.246000	25.784409	0.000226	20.817776
1698.444824	-2.991200	3.432400	-10.266000	25.779536	0.000224	20.835641
1699.447118	-2.988700	3.433300	-10.260000	25.849047	0.000225	20.822014
1700.446664	-3.011500	3.431400	-10.332000	25.854185	0.000224	20.821012
1701.447758	-3.003300	3.430500	-10.302000	25.912068	0.000224	20.826529
1702.448712	-3.008400	3.429700	-10.317000	25.943986	0.000223	20.837731
1703.447472	-3.009300	3.429300	-10.319000	25.954742	0.000225	20.835261
1704.447333	-3.016300	3.430300	-10.346000	25.911965	0.000224	20.851081
1705.447738	-3.002500	3.429700	-10.297000	25.937403	0.000222	20.833014
1706.451557	-2.987400	3.430900	-10.248000	25.887127	0.000223	20.837034
1707.449349	-3.009100	3.428700	-10.317000	25.876739	0.000222	20.853151
1708.449227	-2.977800	3.429200	-10.211000	25.882604	0.000225	20.832017
1709.449585	-3.012600	3.427700	-10.326000	25.860042	0.000223	20.837327
1710.449392	-2.978700	3.429200	-10.214000	25.877358	0.000223	20.843816
1711.453912	-2.997800	3.427800	-10.274000	25.873205	0.000221	20.835851
1712.449836	-2.991100	3.427400	-10.250000	25.838855	0.000221	20.852553
1713.450503	-2.974000	3.428000	-10.194000	25.886101	0.000222	20.845012
1714.450299	-2.998700	3.426700	-10.275000	25.937620	0.000221	20.839397
1715.451879	-2.992400	3.427000	-10.254000	25.963800	0.000222	20.836774
1716.451421	-3.009800	3.425900	-10.310000	25.989388	0.000221	20.834507
1717.450140	-3.001700	3.426200	-10.284000	25.986281	0.000220	20.836127
1718.453270	-2.993300	3.426100	-10.254000	25.973883	0.000221	20.851646
1719.450714	-3.008500	3.424800	-10.302000	25.989289	0.000219	20.843891
1720.452085	-2.999900	3.425700	-10.276000	25.984467	0.000220	20.841891
1721.452087	-2.993900	3.424400	-10.252000	25.935708	0.000218	20.844587
1722.456865	-3.004300	3.423900	-10.285000	25.917104	0.000220	20.854820
1723.451116	-3.001600	3.423700	-10.276000	25.937743	0.000219	20.837150
1724.455491	-2.994600	3.423000	-10.249000	25.920925	0.000218	20.832581
1725.451663	-3.008300	3.422400	-10.294000	25.973510	0.000218	20.857908
1726.451793	-3.025600	3.423100	-10.356000	25.985662	0.000218	20.856841
1727.452065	-3.004700	3.422400	-10.283000	26.003419	0.000217	20.873258
1728.454381	-2.992800	3.423200	-10.243000	25.957045	0.000218	20.864126
1729.455811	-3.005200	3.421400	-10.282000	25.975948	0.000217	20.849452
1730.453209	-2.964600	3.424200	-10.151000	25.927557	0.000216	20.853468
1731.453554	-2.998500	3.421500	-10.258000	25.933020	0.000217	20.865593
1732.456480	-3.000800	3.421400	-10.266000	25.938166	0.000218	20.885461
1733.452330	-3.007400	3.420300	-10.285000	25.950683	0.000217	20.852520
1734.455111	-3.010700	3.419500	-10.294000	25.910742	0.000217	20.859335
1735.456002	-2.993600	3.420900	-10.239000	25.888407	0.000215	20.860131
1736.454784	-3.013000	3.419100	-10.301000	25.912006	0.000216	20.875303
1737.459246	-2.995200	3.418700	-10.239000	25.881627	0.000213	20.864699
1738.455203	-2.990900	3.418600	-10.224000	25.870299	0.000214	20.842415
1739.456293	-2.997200	3.419800	-10.249000	25.906318	0.000214	20.874804
1740.456065	-3.025100	3.418300	-10.340000	25.865554	0.000212	20.865622
1741.462352	-2.976300	3.419500	-10.176000	25.897129	0.000212	20.850875
1742.457533	-2.992000	3.418400	-10.227000	25.944675	0.000212	20.866397
1743.456982	-2.972800	3.418700	-10.162000	25.982727	0.000211	20.853893
1744.460681	-2.973300	3.418000	-10.161000	25.986449	0.000213	20.860477
1745.457723	-2.989300	3.417000	-10.213000	25.978627	0.000211	20.861153
1746.457576	-2.998200	3.417500	-10.244000	26.000464	0.000210	20.872186
1747.460327	-2.966600	3.418200	-10.140000	25.946411	0.000211	20.867193
1748.456903	-2.983200	3.416400	-10.191000	25.952370	0.000209	20.857059
1749.457920	-3.006600	3.416200	-10.270000	25.902394	0.000211	20.877500
1750.460238	-3.004400	3.415600	-10.261000	25.915261	0.000211	20.868615
1751.456945	-2.978800	3.415200	-10.172000	25.910709	0.000211	20.883956
1752.458537	-3.014000	3.415800	-10.294000	25.967001	0.000209	20.860378
1753.462602	-3.000600	3.415600	-10.248000	25.959720	0.000209	20.869658
1754.459037	-2.986500	3.414300	-10.196000	25.968068	0.000208	20.860502
1755.457928	-2.985800	3.415000	-10.195000	25.982620	0.000208	20.881285
1756.459023	-3.003600	3.414500	-10.255000	25.999393	0.000209	20.882489
1757.458743	-2.992200	3.413600	-10.213000	25.971470	0.000210	20.866290
1758.460261	-3.011000	3.412900	-10.275000	25.941265	0.000209	20.877195
1759.461469	-3.018500	3.413400	-10.303000	25.932199	0.000206	20.869984
1760.460994	-2.989600	3.411800	-10.199000	25.887336	0.000207	20.868063
1761.461350	-2.963200	3.413000	-10.113000	25.866047	0.000205	20.893142
1762.467133	-3.010600	3.410400	-10.267000	25.946904	0.000206	20.885230
1763.462640	-3.008300	3.411600	-10.262000	25.994124	0.000206	20.881462
1764.461010	-3.005300	3.409900	-10.247000	25.978599	0.000205	20.885778
1765.460708	-2.984500	3.411400	-10.181000	25.975767	0.000205	20.878193
1766.464993	-3.005100	3.409400	-10.245000	25.990245	0.000204	20.896531
1767.461941	-2.999000	3.410400	-10.227000	25.946854	0.000204	20.873328
1768.462357	-3.003800	3.409200	-10.239000	25.957406	0.000203	20.880608
1769.461367	-2.986600	3.409800	-10.183000	25.957016	0.000204	20.862674
1770.462690	-2.997200	3.408900	-10.216000	25.941609	0.000203	20.873748
1771.462039	-3.008900	3.408600	-10.255000	25.921364	0.000204	20.876168
1772.463206	-2.981400	3.408900	-10.162000	25.887406	0.000202	20.906536
1773.462011	-2.999900	3.409400	-10.226000	25.930902	0.000202	20.875319
1774.462953	-2.991000	3.408600	-10.194000	25.931743	0.000203	20.886595
1775.463999	-2.997200	3.407200	-10.211000	25.957578	0.000203	20.885997
1776.465379	-3.026800	3.406200	-10.309000	25.946251	0.000201	20.865610
1777.464287	-2.999400	3.407900	-10.221000	25.936139	0.000202	20.877261
1778.464365	-3.021100	3.405800	-10.289000	25.905780	0.000203	20.877108
1779.462865	-2.995400	3.407300	-10.206000	25.924261	0.000202	20.866278
1780.465780	-2.986400	3.405600	-10.168000	25.962191	0.000204	20.860287
1781.473663	-3.010000	3.405200	-10.248000	25.959010	0.000202	20.878902
1782.469257	-3.021400	3.404600	-10.286000	25.973863	0.000203	20.878176
1783.466175	-3.012300	3.404100	-10.253000	25.957344	0.000201	20.874857
1784.467187	-2.992000	3.404500	-10.185000	25.959704	0.000199	20.864426
1785.465672	-3.003300	3.404900	-10.224000	25.969763	0.000201	20.885910
1786.465802	-3.002900	3.405200	-10.224000	25.984016	0.000200	20.849498
1787.472671	-2.998300	3.403800	-10.205000	25.993754	0.000202	20.838419
1788.469798	-3.018200	3.401300	-10.264000	25.989203	0.000200	20.873674
1789.470351	-3.011400	3.401400	-10.242000	25.971269	0.000201	20.855183
1790.465774	-2.989800	3.402900	-10.173000	25.936463	0.000201	20.876164
1791.467254	-3.010200	3.402900	-10.242000	25.940136	0.000202	20.852355
1792.469369	-3.010200	3.402400	-10.239000	25.937850	0.000201	20.855748
1793.466625	-3.005100	3.401000	-10.218000	25.958887	0.000202	20.860287
1794.466041	-3.003100	3.401500	-10.214000	25.986109	0.000200	20.846859
1795.468708	-3.014800	3.401000	-10.252000	25.965462	0.000200	20.846979
1796.466402	-3.015600	3.400800	-10.255000	25.966800	0.000200	20.844055
1797.466632	-2.994500	3.399800	-10.180000	25.926080	0.000200	20.868104
1798.468318	-3.009000	3.400000	-10.230000	25.955342	0.000200	20.861466
1799.467988	-2.999400	3.400500	-10.199000	26.020146	0.000198	20.844546
1800.469291	-3.003600	3.398700	-10.208000	26.016637	0.000197	20.867572
1801.469890	-3.012200	3.398600	-10.235000	26.052106	0.000199	20.855319
1802.469070	-3.013400	3.399000	-10.242000	26.012357	0.000198	20.860428
1803.471977	-3.007600	3.397600	-10.218000	26.047227	0.000196	20.842831
1804.472502	-2.994000	3.398800	-10.176000	26.106707	0.000195	20.866558
1805.472671	-2.989300	3.397200	-10.154000	26.051868	0.000195	20.856977
1806.472403	-2.988900	3.398600	-10.157000	26.070067	0.000193	20.870046
1807.476877	-2.992700	3.398100	-10.169000	26.065225	0.000193	20.858544
1808.474450	-2.986900	3.396600	-10.144000	26.036455	0.000194	20.855716
1809.471492	-3.008100	3.394900	-10.211000	26.006846	0.000194	20.842564
1810.474026	-2.998800	3.394200	-10.177000	26.062533	0.000193	20.859632
1811.471987	-2.990200	3.396900	-10.157000	26.088435	0.000194	20.861001
1812.474711	-2.981700	3.395400	-10.123000	26.115526	0.000192	20.838437
1813.473633	-3.008400	3.396100	-10.216000	26.103725	0.000192	20.857872
1814.475741	-2.979500	3.395100	-10.114000	26.067979	0.000192	20.855147
1815.476191	-2.981700	3.395600	-10.124000	26.068402	0.000191	20.877381
1816.474182	-3.019800	3.393900	-10.248000	26.050490	0.000190	20.870290
1817.475101	-2.999900	3.394300	-10.182000	26.100607	0.000190	20.867066
1818.475494	-2.993300	3.394200	-10.159000	26.109720	0.000190	20.852517
1819.472801	-3.014100	3.392500	-10.224000	26.087660	0.000190	20.859749
1820.473867	-3.014100	3.392300	-10.223000	26.111752	0.000191	20.867359
1821.474226	-2.983600	3.393700	-10.124000	26.129060	0.000186	20.856776
1822.477104	-3.007300	3.392400	-10.201000	26.128908	0.000186	20.836710
1823.473457	-2.993400	3.392900	-10.156000	26.130221	0.000188	20.856046
1824.478157	-2.992900	3.392800	-10.153000	26.150684	0.000187	20.841522
1825.475068	-3.001500	3.391300	-10.178000	26.176289	0.000186	20.842119
1826.476634	-2.986000	3.392600	-10.130000	26.183490	0.000186	20.839873
1827.480556	-3.028700	3.388900	-10.263000	26.198515	0.000188	20.851177
1828.479293	-3.036900	3.389400	-10.292000	26.216889	0.000185	20.839295
1829.475246	-2.997800	3.391400	-10.166000	26.216445	0.000184	20.835057
1830.474214	-3.011400	3.389700	-10.207000	26.164685	0.000185	20.849425
1831.476208	-2.990200	3.391100	-10.138000	26.175242	0.000184	20.839646
1832.475691	-2.978600	3.390500	-10.098000	26.163146	0.000185	20.840767
1833.477672	-2.985800	3.390300	-10.121000	26.145408	0.000185	20.842858
1834.475032	-2.986900	3.389100	-10.122000	26.156089	0.000183	20.836047
1835.478839	-3.000700	3.389400	-10.170000	26.138531	0.000183	20.836422
1836.476861	-3.020800	3.388900	-10.236000	26.099061	0.000186	20.839436
1837.479071	-3.035000	3.387300	-10.279000	26.059293	0.000182	20.840731
1838.475380	-3.021500	3.387600	-10.235000	26.035997	0.000183	20.829652
1839.477139	-3.006900	3.387600	-10.186000	26.018782	0.000184	20.854555
1840.477494	-2.997500	3.388600	-10.156000	26.012724	0.000182	20.838987
1841.477939	-3.015100	3.386400	-10.210000	26.036887	0.000182	20.843349
1842.478991	-2.986700	3.387100	-10.116000	26.067238	0.000183	20.832592
1843.477809	-2.993200	3.385700	-10.133000	26.060906	0.000182	20.827653
1844.478057	-2.972400	3.386700	-10.065000	26.083431	0.000181	20.836060
1845.477963	-3.000300	3.385100	-10.156000	26.090087	0.000180	20.843695
1846.479307	-2.990000	3.385500	-10.122000	26.064899	0.000181	20.836880
1847.478997	-2.984900	3.384500	-10.101000	26.063233	0.000179	20.844689
1848.478739	-2.989900	3.385800	-10.122000	26.078388	0.000179	20.822458
1849.480704	-2.997400	3.385300	-10.147000	26.094010	0.000181	20.825352
1850.486572	-3.019800	3.383000	-10.216000	26.123961	0.000178	20.836006
1851.481291	-3.009600	3.383100	-10.180000	26.162552	0.000180	20.827843
1852.480182	-3.017600	3.382400	-10.206000	26.166200	0.000178	20.842887
1853.480669	-2.975000	3.383400	-10.064000	26.132102	0.000177	20.840867
1854.483827	-2.980000	3.382400	-10.078000	26.153139	0.000179	20.819333
1855.482356	-3.024200	3.380900	-10.223000	26.161801	0.000177	20.835149
1856.483392	-2.998700	3.382500	-10.143000	26.207350	0.000177	20.822599
1857.482379	-3.031800	3.379800	-10.244000	26.217632	0.000179	20.828663
1858.484819	-2.986900	3.381500	-10.099000	26.274819	0.000177	20.827810
1859.484621	-2.982800	3.381100	-10.084000	26.252524	0.000179	20.824845
1860.482750	-2.997200	3.381200	-10.133000	26.287685	0.000177	20.829834
1861.488289	-3.000700	3.381000	-10.144000	26.269904	0.000175	20.823819
1862.485927	-2.990900	3.381400	-10.112000	26.186585	0.000176	20.815957
1863.484124	-3.002600	3.380400	-10.150000	26.177669	0.000174	20.828808
1864.484982	-3.019700	3.380200	-10.206000	26.132820	0.000177	20.813140
1865.491810	-2.986300	3.380000	-10.092000	26.099981	0.000174	20.799110
1866.487289	-2.997700	3.378600	-10.127000	26.153677	0.000176	20.825563
1867.488029	-2.993000	3.378900	-10.112000	26.209976	0.000173	20.823341
1868.491782	-3.022800	3.378500	-10.212000	26.217456	0.000173	20.827064
1869.486473	-2.989700	3.378000	-10.098000	26.224484	0.000173	20.818480
1870.486599	-2.996200	3.377900	-10.120000	26.158047	0.000174	20.803876
1871.490673	-2.986400	3.377300	-10.085000	26.139418	0.000172	20.828305
1872.488831	-3.005200	3.378200	-10.152000	26.146825	0.000173	20.808721
1873.489074	-3.014000	3.376600	-10.176000	26.129414	0.000171	20.799287
1874.487677	-2.992700	3.377400	-10.107000	26.126452	0.000173	20.819070
1875.491327	-3.012800	3.376100	-10.170000	26.086965	0.000173	20.807368
1876.487823	-3.014700	3.375100	-10.173000	26.069258	0.000172	20.810440
1877.489389	-2.997900	3.376300	-10.120000	26.065134	0.000172	20.801081
1878.488753	-3.000700	3.375300	-10.127000	26.079336	0.000170	20.827204
1879.488145	-3.001000	3.374200	-10.125000	26.101368	0.000172	20.810461
1880.491037	-2.992400	3.375600	-10.100000	26.076533	0.000170	20.803526
1881.489032	-2.992600	3.375200	-10.099000	26.099657	0.000169	20.811586
1882.489649	-3.006300	3.374000	-10.142000	26.153398	0.000169	20.810110
1883.488279	-3.003900	3.372700	-10.130000	26.144782	0.000170	20.811883
1884.494427	-3.013200	3.372800	-10.162000	26.181538	0.000171	20.816575
1885.490642	-3.005400	3.373300	-10.138000	26.171403	0.000168	20.785529
1886.491308	-2.986300	3.373600	-10.073000	26.207092	0.000168	20.833719
1887.495310	-2.995800	3.372800	-10.103000	26.189063	0.000169	20.802800
1888.489589	-2.989500	3.371900	-10.079000	26.191820	0.000169	20.802252
1889.492082	-3.004800	3.372000	-10.132000	26.246727	0.000168	20.801003
1890.492869	-2.999600	3.372700	-10.116000	26.294529	0.000170	20.797832
1891.490063	-2.985500	3.370400	-10.061000	26.264234	0.000167	20.800578
1892.489885	-3.009200	3.370200	-10.139000	26.273248	0.000167	20.807740
1893.489267	-2.986500	3.371100	-10.067000	26.242082	0.000167	20.808189
1894.493046	-2.984700	3.371300	-10.062000	26.242009	0.000167	20.806218
1895.493615	-2.984300	3.370000	-10.056000	26.233860	0.000164	20.806091
1896.491520	-3.002800	3.368700	-10.115000	26.240097	0.000165	20.789598
1897.492987	-3.002200	3.369700	-10.116000	26.182084	0.000166	20.795787
1898.489698	-2.982700	3.369200	-10.049000	26.217370	0.000165	20.813702
1899.489297	-2.976600	3.368300	-10.025000	26.294496	0.000166	20.813446
1900.494143	-3.001000	3.368600	-10.108000	26.274159	0.000164	20.800121
1901.494607	-2.999200	3.367700	-10.100000	26.281757	0.000164	20.795903
1902.490859	-3.003900	3.367300	-10.114000	26.299362	0.000164	20.798896
1903.499516	-2.972300	3.369100	-10.013000	26.323896	0.000165	20.811698
1904.491636	-3.012800	3.366600	-10.141000	26.331867	0.000163	20.785570
1905.492563	-2.993000	3.367300	-10.077000	26.365434	0.000166	20.794650
1906.493661	-3.010500	3.365600	-10.131000	26.382196	0.000163	20.808177
1907.490644	-2.992800	3.366200	-10.074000	26.372215	0.000164	20.796723
1908.490710	-3.008000	3.365100	-10.121000	26.377577	0.000164	20.800690
1909.491777	-2.985000	3.366400	-10.048000	26.359202	0.000163	20.790757
1910.494213	-3.001400	3.365500	-10.100000	26.379637	0.000162	20.788535
1911.494359	-2.996000	3.364600	-10.079000	26.377348	0.000162	20.789080
1912.495012	-2.995200	3.364700	-10.077000	26.352069	0.000163	20.793071
1913.494834	-3.005200	3.364200	-10.109000	26.359322	0.000163	20.791826
1914.494163	-3.011100	3.363500	-10.127000	26.415085	0.000160	20.789076
1915.496846	-3.034400	3.363000	-10.204000	26.338855	0.000162	20.794964
1916.501315	-2.996000	3.364200	-10.079000	26.266865	0.000160	20.773824
1917.502642	-3.005900	3.363100	-10.108000	26.242650	0.000162	20.776517
1918.497272	-2.994100	3.364200	-10.072000	26.270016	0.000161	20.777939
1919.494790	-2.993800	3.362300	-10.065000	26.301796	0.000161	20.782376
1920.495006	-2.993300	3.362100	-10.063000	26.254146	0.000158	20.798027
1921.498100	-3.019800	3.363100	-10.155000	26.242396	0.000158	20.775313
1922.498384	-3.018200	3.361000	-10.143000	26.218751	0.000159	20.781898
1923.498356	-3.005500	3.362000	-10.104000	26.245244	0.000158	20.806150
1924.498062	-2.987700	3.362000	-10.043000	26.309288	0.000157	20.779474
1925.498188	-3.021000	3.359600	-10.149000	26.269627	0.000158	20.780868
1926.499188	-2.995200	3.359300	-10.061000	26.256441	0.000154	20.777573
1927.501520	-2.995400	3.360100	-10.063000	26.262448	0.000157	20.789774
1928.499829	-2.991000	3.360400	-10.049000	26.270218	0.000156	20.769134
1929.501060	-3.005800	3.359900	-10.098000	26.260630	0.000157	20.767559
1930.500251	-2.996900	3.359200	-10.066000	26.276172	0.000158	20.788393
1931.500222	-3.008200	3.358600	-10.102000	26.266658	0.000156	20.784048
1932.503599	-3.000600	3.358600	-10.077000	26.319497	0.000155	20.781199
1933.501670	-3.003600	3.357200	-10.083000	26.358553	0.000156	20.780148
1934.501588	-3.010200	3.357200	-10.105000	26.381420	0.000155	20.784164
1935.504231	-3.002400	3.357000	-10.078000	26.381515	0.000154	20.784733
1936.502798	-3.005900	3.356900	-10.089000	26.363690	0.000153	20.804750
1937.504303	-2.992600	3.356000	-10.042000	26.386307	0.000152	20.796661
1938.505105	-2.986300	3.356500	-10.022000	26.353451	0.000151	20.792089
1939.502713	-2.987200	3.356600	-10.026000	26.350127	0.000152	20.770257
1940.504833	-3.029100	3.355500	-10.164000	26.337578	0.000152	20.791310
1941.508093	-3.018700	3.355700	-10.128000	26.301648	0.000152	20.764683
1942.503592	-2.980100	3.356000	-10.000000	26.317168	0.000149	20.783600
1943.505981	-2.999900	3.356100	-10.067000	26.342395	0.000150	20.779081
1944.510395	-3.008600	3.353700	-10.090000	26.364815	0.000148	20.777432
1945.504510	-3.021000	3.353900	-10.131000	26.351605	0.000149	20.791657
1946.506333	-2.990600	3.356100	-10.036000	26.324586	0.000149	20.773037
1947.508808	-3.010500	3.352800	-10.093000	26.306559	0.000148	20.771041
1948.506365	-2.978100	3.354300	-9.988300	26.312098	0.000149	20.776607
1949.505891	-3.000000	3.353600	-10.059000	26.339934	0.000146	20.769969
1950.508816	-3.003100	3.353800	-10.071000	26.369906	0.000146	20.774488
1951.509637	-2.990100	3.352000	-10.022000	26.385696	0.000149	20.766176
1952.507203	-2.987700	3.351800	-10.013000	26.405958	0.000148	20.775634
1953.505867	-2.992300	3.352400	-10.031000	26.361336	0.000147	20.751650
1954.508027	-2.998500	3.350900	-10.047000	26.333850	0.000145	20.776657
1955.508055	-2.996800	3.351700	-10.044000	26.330346	0.000146	20.784990
1956.508541	-3.003400	3.351900	-10.067000	26.323248	0.000145	20.780227
1957.508601	-3.034500	3.349300	-10.161000	26.333923	0.000144	20.746384
1958.507744	-2.984900	3.351200	-10.002000	26.384929	0.000144	20.763982
1959.509102	-3.001800	3.349700	-10.054000	26.387637	0.000144	20.774290
1960.509761	-2.998600	3.349000	-10.041000	26.420111	0.000144	20.765203
1961.509529	-2.995600	3.349200	-10.032000	26.420435	0.000145	20.784969
1962.508553	-3.000800	3.348100	-10.047000	26.404768	0.000143	20.775861
1963.514329	-2.983900	3.347900	-9.987700	26.405461	0.000145	20.750005
1964.515471	-2.998500	3.348800	-10.040000	26.446754	0.000145	20.769697
1965.509395	-2.994700	3.348400	-10.026000	26.457703	0.000142	20.753200
1966.518075	-3.018700	3.347100	-10.103000	26.530176	0.000145	20.758717
1967.512293	-2.988600	3.348700	-10.007000	26.489731	0.000143	20.743193
1968.511552	-3.001700	3.347300	-10.046000	26.448296	0.000141	20.766505
1969.510182	-3.000400	3.346000	-10.039000	26.382521	0.000142	20.780054
1970.512462	-2.998100	3.345300	-10.028000	26.370530	0.000142	20.761364
1971.513955	-2.989100	3.346000	-10.001000	26.415147	0.000141	20.751678
1972.512157	-2.978000	3.346500	-9.964000	26.415668	0.000142	20.771643
1973.511712	-2.992400	3.345400	-10.010000	26.445166	0.000141	20.770946
1974.514199	-2.998300	3.344700	-10.027000	26.442336	0.000141	20.778533
1975.510253	-2.996900	3.345000	-10.024000	26.435457	0.000138	20.762135
1976.510668	-2.995800	3.345200	-10.021000	26.470890	0.000141	20.770723
1977.515209	-3.008700	3.344000	-10.060000	26.447304	0.000138	20.752231
1978.513105	-3.021200	3.343000	-10.099000	26.467117	0.000139	20.774517
1979.511823	-3.000000	3.343300	-10.029000	26.533531	0.000138	20.768728
1980.513186	-3.001800	3.343000	-10.034000	26.525906	0.000139	20.763434
1981.512696	-2.998000	3.343600	-10.024000	26.439005	0.000138	20.758589
1982.514036	-3.000400	3.342200	-10.027000	26.474964	0.000136	20.758222
1983.520358	-3.002800	3.342400	-10.036000	26.477023	0.000137	20.749386
1984.513222	-2.982100	3.343300	-9.969000	26.531172	0.000138	20.748813
1985.513996	-2.979200	3.343400	-9.959600	26.516377	0.000137	20.763339
1986.519038	-3.007700	3.341100	-10.048000	26.488492	0.000138	20.747163
1987.514215	-3.008900	3.341400	-10.053000	26.508505	0.000136	20.751633
1988.513517	-3.007000	3.340900	-10.045000	26.561435	0.000136	20.760741
1989.514054	-3.022600	3.339800	-10.094000	26.525163	0.000135	20.749410
1990.514929	-3.017900	3.340900	-10.082000	26.570229	0.000136	20.759623
1991.514665	-2.994400	3.339800	-9.999400	26.558781	0.000134	20.762815
1992.517489	-3.011300	3.338800	-10.053000	26.599789	0.000134	20.754725
1993.516596	-2.983400	3.339000	-9.959500	26.529215	0.000135	20.767709
1994.515347	-2.992600	3.338200	-9.989000	26.524030	0.000133	20.752539
1995.518997	-2.985200	3.339600	-9.968900	26.481896	0.000136	20.763767
1996.517577	-2.978300	3.337800	-9.939800	26.432912	0.000134	20.744404
1997.516166	-2.991300	3.338700	-9.986500	26.369823	0.000136	20.756386
1998.517985	-3.015300	3.336000	-10.058000	26.348716	0.000132	20.739914
1999.518271	-3.028300	3.337200	-10.105000	26.389736	0.000132	20.755537
2000.517991	-3.022900	3.335200	-10.080000	26.436469	0.000132	20.755565
2001.518710	-2.991300	3.336000	-9.978000	26.438011	0.000133	20.756167
2002.521040	-3.001000	3.335200	-10.008000	26.466660	0.000130	20.729960
2003.519639	-2.989800	3.336600	-9.974900	26.441112	0.000133	20.750749
2004.518846	-2.998300	3.336100	-10.002000	26.417796	0.000131	20.759557
2005.519839	-3.012400	3.333800	-10.042000	26.465245	0.000130	20.748927
2006.520430	-2.994300	3.334900	-9.984200	26.522668	0.000130	20.762076
2007.519659	-2.994700	3.334500	-9.984100	26.505293	0.000130	20.767844
2008.518298	-2.993300	3.335400	-9.982900	26.513316	0.000130	20.740346
2009.520391	-3.005200	3.333500	-10.017000	26.550823	0.000130	20.763350
2010.521019	-3.013600	3.332800	-10.043000	26.507274	0.000129	20.741386
2011.522981	-3.028200	3.331300	-10.087000	26.502659	0.000130	20.740066
2012.524181	-2.980600	3.332900	-9.933000	26.484779	0.000126	20.737741
2013.521003	-2.977200	3.332800	-9.921600	26.472694	0.000128	20.748354
2014.524831	-2.988700	3.331900	-9.957000	26.460798	0.000127	20.758208
2015.528607	-2.997100	3.330900	-9.981900	26.501864	0.000127	20.758707
2016.520422	-2.981900	3.333000	-9.937600	26.463235	0.000126	20.754493
2017.521426	-3.023400	3.331100	-10.070000	26.462661	0.000126	20.753916
2018.523874	-3.001700	3.332200	-10.002000	26.492605	0.000125	20.738021
2019.523681	-3.002200	3.331100	-10.000000	26.578431	0.000126	20.747954
2020.521683	-2.998700	3.330300	-9.985200	26.603906	0.000125	20.755070
2021.522642	-3.004000	3.330400	-10.004000	26.618897	0.000124	20.763028
2022.523442	-2.996100	3.328600	-9.972200	26.599263	0.000125	20.746609
2023.524835	-2.989600	3.328800	-9.950800	26.553333	0.000124	20.754019
2024.527286	-2.997500	3.329900	-9.981100	26.558148	0.000122	20.751273
2025.527331	-2.977200	3.328900	-9.909800	26.586950	0.000122	20.765053
2026.523705	-3.012300	3.327600	-10.023000	26.568649	0.000121	20.746655
2027.527110	-2.980200	3.329600	-9.921800	26.605444	0.000121	20.757091
2028.532603	-3.003800	3.326700	-9.991700	26.601420	0.000122	20.750675
2029.528018	-2.982700	3.328800	-9.927500	26.515350	0.000120	20.748081
2030.524100	-2.985500	3.326200	-9.929200	26.508549	0.000122	20.758315
2031.525032	-3.004400	3.327000	-9.994900	26.442010	0.000121	20.761610
2032.529421	-2.995400	3.326000	-9.961500	26.494024	0.000122	20.743715
2033.527016	-3.002300	3.326200	-9.985300	26.515453	0.000122	20.761935
2034.523578	-2.995500	3.327600	-9.965600	26.561909	0.000120	20.746044
2035.524733	-3.006500	3.325200	-9.996800	26.571856	0.000121	20.761259
2036.527146	-2.995200	3.325700	-9.960000	26.554580	0.000121	20.758117
2037.524611	-2.977800	3.326900	-9.906000	26.529358	0.000121	20.745566
2038.528689	-2.985700	3.324300	-9.924700	26.534965	0.000119	20.759264
2039.530461	-2.986800	3.323100	-9.924400	26.538816	0.000120	20.765032
2040.527531	-2.999700	3.323900	-9.969600	26.579206	0.000120	20.758216
2041.531336	-2.965000	3.324800	-9.857000	26.617760	0.000122	20.758092
2042.532331	-2.988900	3.322900	-9.930900	26.669868	0.000120	20.765432
2043.538981	-3.000800	3.323000	-9.970900	26.693869	0.000120	20.764904
2044.538102	-3.004800	3.322700	-9.982700	26.673166	0.000120	20.780127
2045.533096	-2.987800	3.322100	-9.924400	26.704438	0.000119	20.777426
2046.529549	-2.978400	3.322800	-9.895200	26.698134	0.000122	20.768244
2047.533150	-3.017800	3.322300	-10.025000	26.655908	0.000117	20.749026
2048.536628	-3.011800	3.321000	-10.001000	26.628900	0.000118	20.762653
2049.532172	-2.996300	3.320700	-9.949000	26.623585	0.000118	20.779595
2050.531544	-2.987100	3.321100	-9.919300	26.581655	0.000119	20.773007
2051.530254	-3.001100	3.320400	-9.963800	26.616084	0.000118	20.770632
2052.530881	-3.007700	3.318700	-9.981200	26.663024	0.000118	20.771828
2053.531636	-2.995400	3.320100	-9.944300	26.640554	0.000119	20.777213
2054.533474	-3.005100	3.318700	-9.971300	26.644425	0.000117	20.773045
2055.531253	-2.992200	3.319600	-9.932100	26.646263	0.000117	20.788642
2056.532489	-3.005200	3.317500	-9.968300	26.636551	0.000116	20.766551
2057.530612	-2.998400	3.317500	-9.946500	26.623217	0.000117	20.763578
2058.530312	-3.000700	3.318700	-9.957300	26.609908	0.000115	20.750199
2059.531044	-3.003000	3.317500	-9.961100	26.601115	0.000114	20.783560
2060.531380	-2.991700	3.317900	-9.924000	26.580213	0.000115	20.768238
2061.532255	-2.990800	3.316800	-9.918900	26.581674	0.000115	20.778715
2062.531356	-3.000400	3.316600	-9.949900	26.609475	0.000113	20.767781
2063.532274	-2.999400	3.316100	-9.945100	26.642734	0.000113	20.783198
2064.532437	-2.966200	3.317000	-9.837400	26.672916	0.000114	20.781298
2065.531790	-2.995500	3.315000	-9.929200	26.728396	0.000114	20.769270
2066.532680	-2.999600	3.314300	-9.940500	26.767909	0.000113	20.788134
2067.533698	-2.998900	3.315500	-9.941900	26.780093	0.000111	20.768615
2068.530197	-2.962600	3.316000	-9.822800	26.785601	0.000111	20.778894
2069.530967	-2.971200	3.314500	-9.846900	26.768348	0.000110	20.784782
2070.531545	-2.999100	3.313300	-9.936000	26.731760	0.000110	20.769333
2071.531826	-2.959100	3.315100	-9.808800	26.714904	0.000108	20.787949
2072.532944	-3.017900	3.313300	-9.998100	26.749304	0.000110	20.774644
2073.545331	-2.993400	3.313600	-9.917500	26.766979	0.000107	20.800475
2074.538372	-3.016900	3.311000	-9.988200	26.805921	0.000108	20.772298
2075.535578	-2.966900	3.313100	-9.829000	26.837960	0.000108	20.803564
2076.536553	-2.991700	3.312000	-9.908200	26.803362	0.000110	20.794382
2077.538021	-2.993300	3.310400	-9.908500	26.769949	0.000106	20.784969
2078.535486	-3.006100	3.311100	-9.953100	26.748283	0.000106	20.779308
2079.534835	-3.009200	3.310900	-9.961500	26.718592	0.000107	20.796398
2080.542465	-2.994600	3.310300	-9.911800	26.693526	0.000105	20.794905
2081.537141	-3.027900	3.309400	-10.020000	26.722341	0.000107	20.788787
2082.538619	-3.005800	3.309800	-9.947900	26.754731	0.000106	20.801437
2083.541637	-2.990600	3.309200	-9.894700	26.813606	0.000106	20.791880
2084.535381	-3.002700	3.308900	-9.935000	26.813578	0.000105	20.834050
2085.537025	-2.989600	3.308700	-9.891300	26.799086	0.000104	20.782496
2086.538921	-2.981600	3.307600	-9.861500	26.725938	0.000106	20.784343
2087.542890	-2.998800	3.307000	-9.915500	26.754878	0.000103	20.795422
2088.538696	-3.006700	3.307500	-9.944600	26.822858	0.000104	20.811139
2089.541440	-2.997500	3.306800	-9.912300	26.806177	0.000103	20.774452
2090.542214	-3.009400	3.307400	-9.952500	26.882694	0.000104	20.801603
2091.540562	-3.005700	3.306100	-9.936800	26.794735	0.000103	20.785234
2092.540843	-2.978100	3.307000	-9.847400	26.803893	0.000101	20.785906
2093.543043	-3.008900	3.306400	-9.947800	26.861453	0.000103	20.806323
2094.541895	-2.989200	3.307100	-9.884600	26.871127	0.000102	20.811309
2095.541293	-3.004000	3.306400	-9.931700	26.828091	0.000104	20.794590
2096.543397	-2.981600	3.306100	-9.856700	26.828116	0.000102	20.818322
2097.542110	-2.985400	3.305000	-9.865300	26.868276	9.912277E-5	20.772407
2098.542009	-3.011000	3.304600	-9.949200	26.908928	0.000101	20.799533
2099.544178	-3.005700	3.303400	-9.927900	26.909076	9.875974E-5	20.812958
2100.543788	-2.989500	3.303300	-9.874500	26.871053	9.978282E-5	20.803174
2101.540925	-2.976500	3.304400	-9.834800	26.861105	9.915577E-5	20.796016
2102.541250	-2.999700	3.302600	-9.906600	26.852391	9.866073E-5	20.784409
2103.543573	-2.987400	3.303100	-9.866200	26.836432	9.615255E-5	20.785432
2104.542341	-3.000200	3.301200	-9.904000	26.826701	9.836371E-5	20.790347
2105.542709	-3.011000	3.300800	-9.937800	26.820771	9.724163E-5	20.797661
2106.542901	-3.002000	3.302200	-9.912500	26.822186	9.724163E-5	20.793394
2107.543422	-3.005700	3.302500	-9.925100	26.758225	9.724163E-5	20.790252
2108.544287	-3.019400	3.299500	-9.960100	26.758028	9.681260E-5	20.792424
2109.545745	-3.020100	3.300400	-9.966000	26.808285	9.565751E-5	20.795064
2110.545889	-3.016600	3.298700	-9.950000	26.853609	9.654858E-5	20.800333
2111.547438	-2.998000	3.299000	-9.889000	26.864676	9.496446E-5	20.809564
2112.547548	-2.974500	3.298800	-9.811200	26.825638	9.278631E-5	20.828633
2113.547525	-2.970500	3.299400	-9.798100	26.791508	9.694461E-5	20.818025
2114.548347	-2.990900	3.298500	-9.864400	26.869867	9.354536E-5	20.803878
2115.552861	-2.996000	3.296900	-9.876600	26.857107	9.413940E-5	20.814755
2116.547097	-3.002400	3.298500	-9.902600	26.824769	9.331434E-5	20.809267
2117.551531	-2.986100	3.297300	-9.845500	26.840856	9.239028E-5	20.801734
2118.549173	-3.000500	3.297100	-9.892300	26.850209	9.367737E-5	20.811613
2119.555826	-2.999000	3.295900	-9.883100	26.851329	9.202725E-5	20.783341
2120.550056	-2.997200	3.297200	-9.880900	26.840486	9.186224E-5	20.826018
2121.550802	-2.985400	3.296800	-9.841200	26.805442	9.159822E-5	20.811645
2122.550613	-2.972800	3.297600	-9.801600	26.839719	9.288531E-5	20.804385
2123.550902	-3.030300	3.294400	-9.981400	26.861587	9.044313E-5	20.824002
2124.552849	-3.016500	3.294900	-9.938100	26.830193	8.819897E-5	20.830367
2125.550461	-3.008300	3.295100	-9.910600	26.836352	9.196124E-5	20.815223
2126.552272	-2.989600	3.295100	-9.850500	26.898548	9.443643E-5	20.809010
2127.552077	-2.992100	3.295400	-9.858500	26.925799	9.080616E-5	20.818394
2128.556365	-2.977800	3.293800	-9.807300	26.930219	9.107018E-5	20.817623
2129.553587	-3.015900	3.293000	-9.930300	26.905502	8.823197E-5	20.824063
2130.554746	-2.993000	3.293100	-9.855400	26.902997	8.968408E-5	20.824388
2131.558851	-3.010900	3.291900	-9.910700	26.917094	8.945306E-5	20.808218
2132.554764	-3.010600	3.292700	-9.912100	26.920849	8.938706E-5	20.795873
2133.555615	-3.013900	3.292700	-9.922100	26.911021	8.836398E-5	20.799740
2134.556679	-3.003400	3.290900	-9.883000	26.925937	8.918904E-5	20.811895
2135.556422	-2.999300	3.291400	-9.871200	26.945749	9.034413E-5	20.817118
2136.557411	-2.993800	3.291600	-9.853400	26.912390	8.852899E-5	20.793530
2137.555334	-3.006000	3.290400	-9.889700	26.881472	8.737391E-5	20.837832
2138.555619	-2.989300	3.290800	-9.836400	26.905373	8.760493E-5	20.838157
2139.557226	-2.987600	3.289100	-9.825300	26.935031	8.608682E-5	20.836211
2140.556481	-2.990200	3.289300	-9.834300	26.924214	9.004711E-5	20.827705
2141.558203	-2.989500	3.289000	-9.831400	26.857926	8.707689E-5	20.820795
2142.557500	-2.984400	3.290900	-9.820500	26.893986	8.512975E-5	20.818647
2143.557404	-2.992700	3.289700	-9.844200	26.911433	8.942006E-5	20.823863
2144.560450	-2.990700	3.288700	-9.834100	26.908411	8.588880E-5	20.823668
2145.558444	-2.986300	3.288800	-9.820000	26.935169	8.734091E-5	20.823074
2146.557779	-2.980000	3.289900	-9.803000	26.963809	8.737391E-5	20.822476
2147.558918	-2.993400	3.287700	-9.840700	26.987212	8.519575E-5	20.845536
2148.559690	-3.000000	3.287700	-9.862600	26.978725	8.384265E-5	20.848855
2149.558842	-2.982900	3.286000	-9.800800	26.929515	8.734091E-5	20.818811
2150.559216	-2.998400	3.285700	-9.851000	26.912318	8.598781E-5	20.834709
2151.559301	-2.991800	3.287000	-9.832600	26.901452	8.410667E-5	20.831369
2152.560679	-2.990400	3.284600	-9.822100	26.911825	8.595481E-5	20.826628
2153.560375	-3.008300	3.285600	-9.883500	26.955928	8.463471E-5	20.815500
2154.561805	-3.011700	3.284900	-9.891800	27.027899	8.470071E-5	20.824813
2155.560989	-3.010100	3.284400	-9.885500	27.028199	8.470071E-5	20.805200
2156.563942	-2.995900	3.283500	-9.835500	26.983160	8.361163E-5	20.819651
2157.562547	-2.988900	3.283300	-9.812400	26.991373	8.338062E-5	20.844978
2158.562158	-3.000900	3.282800	-9.851100	27.040633	8.255556E-5	20.842360
2159.563319	-3.006900	3.282300	-9.868900	27.025373	8.242355E-5	20.831756
2160.565128	-3.005100	3.281600	-9.861300	26.991725	8.196151E-5	20.843436
2161.562564	-3.000000	3.281600	-9.843300	26.973758	8.130147E-5	20.846231
2162.563127	-2.964000	3.283000	-9.729700	26.978055	8.265456E-5	20.826371
2163.562875	-3.014500	3.280400	-9.888200	26.990360	8.143348E-5	20.830684
2164.564087	-2.994500	3.280100	-9.822000	26.974357	8.050941E-5	20.837824
2165.568859	-3.047200	3.279600	-9.992200	26.974660	8.097144E-5	20.809206
2166.565624	-2.996800	3.279700	-9.828100	26.996468	7.895829E-5	20.820706
2167.565002	-2.999800	3.279200	-9.835800	26.985779	8.050941E-5	20.837457
2168.567050	-2.996300	3.279900	-9.826600	27.039579	7.882628E-5	20.834188
2169.566883	-3.020400	3.278200	-9.901000	27.053449	7.981636E-5	20.838179
2170.568036	-3.004000	3.277900	-9.845000	27.044867	8.047641E-5	20.841402
2171.570600	-3.013700	3.277700	-9.877100	27.026180	7.783621E-5	20.835886
2172.567576	-2.990300	3.277300	-9.798200	26.990797	7.790222E-5	20.827331
2173.567304	-2.991500	3.277000	-9.801700	27.004274	7.819924E-5	20.843253
2174.570273	-2.998500	3.277300	-9.826000	27.030481	7.750619E-5	20.812236
2175.569502	-2.972100	3.279100	-9.745200	27.021276	7.872728E-5	20.841385
2176.568975	-3.017000	3.275200	-9.880500	27.011871	7.678014E-5	20.865117
2177.567389	-2.994200	3.275700	-9.806900	27.020661	7.489900E-5	20.841715
2178.567476	-2.992600	3.274800	-9.799200	27.077710	7.720917E-5	20.865422
2179.572699	-3.008000	3.275600	-9.851300	27.026790	7.493200E-5	20.851672
2180.568487	-3.026100	3.275700	-9.911400	27.089673	7.509701E-5	20.831461
2181.568665	-3.004800	3.275000	-9.839800	27.092329	7.499800E-5	20.857365
2182.571907	-3.005100	3.274000	-9.838100	27.082752	7.539403E-5	20.846786
2183.569233	-3.026700	3.272900	-9.905400	27.114266	7.681314E-5	20.871366
2184.571439	-3.018500	3.273900	-9.881300	27.135506	7.120273E-5	20.835831
2185.574281	-3.011200	3.273400	-9.856000	27.126376	7.367791E-5	20.866951
2186.572590	-3.007700	3.271700	-9.840000	27.094497	7.245682E-5	20.840106
2187.572895	-2.991100	3.274000	-9.792700	27.085736	7.206079E-5	20.855477
2188.571173	-2.970900	3.273000	-9.722500	27.082813	7.334788E-5	20.853485
2189.569475	-2.996700	3.271000	-9.799900	27.128269	7.239081E-5	20.835192
2190.581654	-2.970900	3.271900	-9.718900	27.094469	7.192878E-5	20.842922
2191.573316	-3.008500	3.271400	-9.841200	27.122714	7.136774E-5	20.845726
2192.574649	-2.997700	3.271300	-9.805100	27.137280	7.291885E-5	20.859426
2193.570779	-3.009500	3.269500	-9.838400	27.128052	6.984963E-5	20.859628
2194.573298	-3.002500	3.268800	-9.813400	27.164922	7.159876E-5	20.856882
2195.576317	-2.984400	3.270500	-9.759600	27.200631	7.031166E-5	20.862452
2196.574007	-2.995100	3.267500	-9.785300	27.206108	7.113672E-5	20.880761
2197.574245	-2.992600	3.268000	-9.778700	27.192592	6.866154E-5	20.866220
2198.578261	-3.009600	3.268800	-9.836300	27.182024	7.070769E-5	20.857488
2199.577260	-3.013400	3.267200	-9.844700	27.202074	7.014665E-5	20.866273
2200.573582	-2.989000	3.268800	-9.769900	27.170243	7.047667E-5	20.857492
2201.575685	-2.978900	3.267000	-9.730500	27.173641	6.753946E-5	20.862332
2202.575907	-2.992800	3.266900	-9.775900	27.185980	6.925558E-5	20.870000
2203.576581	-2.997300	3.266800	-9.790400	27.169054	6.806750E-5	20.872416
2204.577230	-2.978400	3.267400	-9.731300	27.202451	6.602135E-5	20.854799
2205.576869	-2.991000	3.265400	-9.765600	27.214810	6.892556E-5	20.886668
2206.576432	-3.036000	3.263300	-9.906400	27.199155	6.694542E-5	20.851484
2207.576934	-3.009600	3.263600	-9.821100	27.173571	6.711043E-5	20.861313
2208.579886	-3.008200	3.262700	-9.814900	27.203943	6.819951E-5	20.897074
2209.576834	-2.998300	3.263600	-9.784300	27.279468	6.546031E-5	20.874420
2210.580309	-2.989700	3.264100	-9.757800	27.306213	6.720943E-5	20.875244
2211.580418	-2.997800	3.262300	-9.778400	27.316583	6.757246E-5	20.869080
2212.579142	-2.981900	3.261600	-9.725200	27.307713	6.641738E-5	20.876752
2213.580942	-2.990200	3.262400	-9.754700	27.316665	6.648338E-5	20.866318
2214.579882	-3.010500	3.260600	-9.815400	27.292674	6.701142E-5	20.863523
2215.579681	-3.006300	3.262400	-9.807200	27.243232	6.387619E-5	20.874955
2216.580689	-2.992400	3.260800	-9.756700	27.257993	6.443723E-5	20.880319
2217.580657	-3.002600	3.260000	-9.786600	27.267970	6.103798E-5	20.887035
2218.579483	-3.007600	3.260200	-9.804200	27.297916	6.258910E-5	20.882545
2219.582252	-3.026700	3.259300	-9.863600	27.352819	6.186304E-5	20.890832
2220.581002	-2.999200	3.258600	-9.772500	27.405658	6.301813E-5	20.884717
2221.580676	-3.008400	3.258700	-9.802600	27.425777	6.315014E-5	20.872242
2222.585026	-3.012100	3.257300	-9.810200	27.440739	6.361217E-5	20.882553
2223.583506	-3.013300	3.257400	-9.815100	27.453792	6.390919E-5	20.877667
2224.582483	-2.981200	3.258900	-9.713900	27.436403	6.150002E-5	20.888147
2225.580738	-3.001800	3.255800	-9.772300	27.400583	6.212706E-5	20.887673
2226.583240	-2.999600	3.257000	-9.768600	27.345117	6.466825E-5	20.895885
2227.580882	-2.995900	3.257500	-9.757900	27.324554	6.093898E-5	20.884684
2228.581377	-3.037400	3.254800	-9.885400	27.349265	6.150002E-5	20.878248
2229.584189	-2.992700	3.255500	-9.741800	27.348896	6.163203E-5	20.887833
2230.583391	-2.994700	3.254600	-9.745600	27.373529	6.275411E-5	20.896017
2231.581805	-3.000100	3.254300	-9.762700	27.382660	6.447023E-5	20.884816
2232.583702	-2.984600	3.254600	-9.712900	27.324213	6.222607E-5	20.877230
2233.583658	-2.984900	3.254900	-9.714400	27.308466	6.179704E-5	20.883199
2234.583999	-3.013200	3.252500	-9.799000	27.304670	6.394220E-5	20.868003
2235.585266	-3.014300	3.252600	-9.803100	27.378623	6.351316E-5	20.872220
2236.584579	-3.010000	3.251900	-9.787300	27.410226	6.381019E-5	20.875564
2237.585517	-3.007700	3.251900	-9.780000	27.390455	6.658239E-5	20.863736
2238.585462	-3.003100	3.251800	-9.763900	27.344859	6.235808E-5	20.900840
2239.585920	-3.011600	3.252500	-9.794400	27.368106	6.460224E-5	20.893407
2240.595078	-2.996400	3.251200	-9.740900	27.405566	6.357917E-5	20.878936
2241.586967	-2.996900	3.251000	-9.741400	27.353642	6.384319E-5	20.874117
2242.586190	-2.991200	3.250200	-9.721100	27.334837	6.463525E-5	20.889338
2243.585867	-3.011300	3.248600	-9.781300	27.355896	6.496527E-5	20.875436
2244.586962	-2.987700	3.248500	-9.705300	27.334784	6.423922E-5	20.865579
2245.587401	-2.997600	3.249000	-9.738200	27.392787	6.278711E-5	20.863711
2246.597620	-3.010800	3.247900	-9.778500	27.348924	6.199505E-5	20.883121
2247.588284	-2.997300	3.249100	-9.737000	27.367877	6.153302E-5	20.874212
2248.588901	-3.021100	3.247500	-9.809700	27.400300	6.202806E-5	20.885492
2249.587642	-3.013200	3.245800	-9.779600	27.421481	6.295212E-5	20.873610
2250.587003	-3.013400	3.247500	-9.784800	27.423784	6.070796E-5	20.857436
2251.586923	-2.990200	3.248100	-9.712100	27.408829	6.107099E-5	20.881270
2252.591317	-2.999400	3.246400	-9.736600	27.355589	6.037793E-5	20.864697
2253.588553	-2.992400	3.246400	-9.713900	27.399124	6.113699E-5	20.864396
2254.589737	-2.988500	3.244200	-9.694100	27.354667	5.988290E-5	20.846226
2255.594679	-3.042500	3.245300	-9.872200	27.375103	5.925585E-5	20.861094
2256.589466	-3.015000	3.243900	-9.779900	27.391477	5.925585E-5	20.886572
2257.594952	-2.993600	3.244300	-9.711300	27.402194	5.763873E-5	20.864639
2258.592410	-2.989300	3.243700	-9.696300	27.384034	5.918985E-5	20.876241
2259.589580	-2.990100	3.243400	-9.696400	27.359401	6.116999E-5	20.849092
2260.592052	-3.006900	3.243000	-9.750400	27.376714	6.156602E-5	20.856076
2261.598265	-3.001900	3.242900	-9.734300	27.405957	5.786975E-5	20.868424
2262.591586	-2.979400	3.241800	-9.657700	27.443313	5.932186E-5	20.870444
2263.593960	-2.980900	3.241100	-9.660800	27.509171	5.740772E-5	20.853252
2264.591229	-3.007800	3.241100	-9.746500	27.548286	5.849680E-5	20.859416
2265.593026	-3.001700	3.241300	-9.728500	27.583327	5.701169E-5	20.836827
2266.592618	-3.008500	3.239700	-9.745900	27.580700	5.694568E-5	20.855520
2267.593706	-3.001100	3.239900	-9.721400	27.609368	5.757273E-5	20.840269
2268.595772	-2.999000	3.238900	-9.712900	27.534341	5.674767E-5	20.866248
2269.594022	-3.004000	3.238600	-9.727700	27.517076	5.506455E-5	20.872584
2270.594476	-2.984000	3.239200	-9.663600	27.516331	5.740772E-5	20.868041
2271.594922	-2.987000	3.238200	-9.672100	27.551376	5.357944E-5	20.847827
2272.595893	-2.999800	3.236700	-9.708500	27.524342	5.371145E-5	20.859981
2273.596699	-3.010900	3.237400	-9.746600	27.516872	5.397547E-5	20.834448
2274.596582	-2.996200	3.236100	-9.695600	27.531608	5.645065E-5	20.838843
2275.597256	-2.995700	3.237000	-9.696300	27.580422	5.374445E-5	20.852869
2276.600736	-3.028900	3.234900	-9.797000	27.619509	5.595561E-5	20.857111
2277.599664	-2.984200	3.237500	-9.660400	27.623300	5.361244E-5	20.858081
2278.597591	-2.965200	3.236000	-9.594500	27.589498	5.291939E-5	20.844933
2279.598126	-2.989900	3.236300	-9.674800	27.600484	5.503154E-5	20.835598
2280.599600	-2.989600	3.232700	-9.663300	27.624787	5.311740E-5	20.842034
2281.598707	-2.987400	3.234200	-9.660100	27.579996	5.282038E-5	20.848647
2282.599080	-2.987100	3.235400	-9.663700	27.548024	5.242435E-5	20.850144
2283.598242	-2.979000	3.234000	-9.633500	27.589916	5.156629E-5	20.848672
2284.599524	-3.020600	3.231000	-9.759000	27.595149	5.186331E-5	20.843506
2285.598527	-3.001600	3.231500	-9.698600	27.537780	5.067522E-5	20.843630
2286.601957	-2.993900	3.231200	-9.672600	27.553901	5.199532E-5	20.842781
2287.602244	-3.003600	3.230600	-9.702800	27.520695	5.397547E-5	20.836872
2288.599873	-3.023500	3.231800	-9.770300	27.505164	5.018019E-5	20.831203
2289.603109	-2.979900	3.231400	-9.628900	27.437519	5.037820E-5	20.843279
2290.604705	-2.986600	3.228600	-9.641800	27.413761	4.724297E-5	20.847827
2291.600379	-2.990700	3.230200	-9.659700	27.485792	4.836505E-5	20.845852
2292.604371	-2.961300	3.231200	-9.567400	27.592670	4.919011E-5	20.824891
2293.602562	-2.996300	3.230000	-9.677200	27.645697	4.793602E-5	20.846005
2294.600258	-2.969100	3.229700	-9.588200	27.597878	5.077423E-5	20.832028
2295.604947	-2.994400	3.226800	-9.661500	27.671142	4.889309E-5	20.845530
2296.605180	-3.002100	3.226400	-9.684900	27.695522	4.648392E-5	20.814588
2297.602293	-2.969500	3.227400	-9.582800	27.677665	4.730898E-5	20.836922
2298.601715	-2.993600	3.228600	-9.663900	27.587195	4.707796E-5	20.827443
2299.602538	-3.007700	3.224900	-9.698500	27.513880	4.440476E-5	20.833809
2300.604185	-3.005700	3.225300	-9.693200	27.467965	4.635191E-5	20.818434
2301.602206	-2.995300	3.224400	-9.657400	27.443162	4.400873E-5	20.830465
2302.601456	-3.025600	3.225900	-9.759500	27.520949	4.635191E-5	20.821481
2303.605603	-3.005900	3.224700	-9.691800	27.576537	4.651692E-5	20.827624
2304.601902	-3.012600	3.223000	-9.709200	27.622443	4.687994E-5	20.830667
2305.603655	-3.013200	3.223000	-9.710800	27.690772	4.450377E-5	20.839679
2306.606551	-3.004900	3.224000	-9.687200	27.664508	4.678094E-5	20.834588
2307.602679	-3.009600	3.224500	-9.704300	27.646557	4.542784E-5	20.812732
2308.602781	-3.013600	3.221700	-9.707900	27.633391	4.311767E-5	20.845476
2309.605378	-2.999700	3.221100	-9.660300	27.595968	4.328268E-5	20.825364
2310.603486	-3.018900	3.219800	-9.719000	27.547851	4.526283E-5	20.822944
2311.605681	-3.009300	3.219600	-9.688100	27.512928	4.235861E-5	20.827162
2312.603305	-2.976500	3.222000	-9.589700	27.577868	4.232561E-5	20.818532
2313.604583	-2.990100	3.217900	-9.620900	27.593517	4.460278E-5	20.827640
2314.604680	-2.997300	3.219000	-9.647000	27.657112	4.506481E-5	20.808653
2315.605376	-3.000500	3.219900	-9.660900	27.639304	4.377772E-5	20.809701
2316.608623	-2.978900	3.217700	-9.584000	27.637247	4.282065E-5	20.828019
2317.604863	-2.988400	3.218700	-9.617600	27.723828	4.341469E-5	20.834537
2318.605317	-2.978900	3.216900	-9.581600	27.716089	4.324968E-5	20.817266
2319.609826	-2.965300	3.216800	-9.537900	27.718150	4.060948E-5	20.830245
2320.606412	-2.972800	3.216100	-9.560400	27.760182	4.278764E-5	20.813749
2321.604661	-3.005000	3.215100	-9.660400	27.793688	4.331568E-5	20.837984
2322.610550	-3.009800	3.215600	-9.677500	27.706300	4.384372E-5	20.823537
2323.605531	-2.986700	3.215900	-9.604300	27.659283	4.169856E-5	20.811312
2324.604673	-2.973500	3.214700	-9.558000	27.661840	4.225961E-5	20.811514
2325.604566	-2.996000	3.214300	-9.629000	27.710647	4.103852E-5	20.826489
2326.604626	-3.011600	3.213300	-9.676200	27.699048	4.242462E-5	20.789212
2327.604965	-3.013300	3.212600	-9.679500	27.655001	4.222660E-5	20.817909
2328.605643	-3.000300	3.213100	-9.639500	27.716502	3.816731E-5	20.803458
2329.610178	-3.002200	3.212100	-9.642800	27.763308	4.074149E-5	20.826377
2330.604777	-3.009500	3.211900	-9.665500	27.779376	4.021346E-5	20.799874
2331.605505	-3.004800	3.209400	-9.643100	27.782822	3.968542E-5	20.798600
2332.607220	-2.984800	3.210900	-9.582900	27.766659	4.087350E-5	20.806517
2333.608294	-2.982400	3.209700	-9.572000	27.806633	4.192958E-5	20.793166
2334.607088	-2.983400	3.209800	-9.575300	27.734001	4.057648E-5	20.812058
2335.611259	-2.978500	3.208800	-9.556400	27.708016	3.886036E-5	20.809617
2336.607197	-3.007900	3.210000	-9.653900	27.740253	3.849733E-5	20.800806
2337.608630	-2.999600	3.209700	-9.626500	27.689050	3.935539E-5	20.796221
2338.609613	-3.007400	3.209700	-9.652200	27.658692	3.783728E-5	20.805502
2339.609198	-3.000500	3.206400	-9.620000	27.633001	3.872835E-5	20.810945
2340.611948	-2.998600	3.206000	-9.612800	27.644883	3.915738E-5	20.768373
2341.610083	-2.986100	3.205500	-9.571400	27.612992	3.826631E-5	20.820683
2342.608772	-3.006000	3.207100	-9.640100	27.561184	3.849733E-5	20.792737
2343.608624	-2.988700	3.204600	-9.575700	27.635590	3.879435E-5	20.786998
2344.611497	-3.000800	3.205500	-9.618300	27.711085	3.862934E-5	20.795161
2345.609291	-2.986000	3.205700	-9.571600	27.688099	3.813430E-5	20.790997
2346.608764	-3.007500	3.203000	-9.631200	27.674713	3.975142E-5	20.778001
2347.608741	-3.016600	3.202700	-9.659900	27.663977	3.952041E-5	20.776207
2348.608685	-3.003500	3.203800	-9.621800	27.643596	3.569212E-5	20.787941
2349.609965	-2.985000	3.202400	-9.557600	27.654090	3.889336E-5	20.805613
2350.609948	-3.001500	3.201800	-9.609600	27.634397	3.796929E-5	20.799548
2351.609413	-3.047300	3.199500	-9.748000	27.676933	3.671520E-5	20.794934
2352.610697	-2.984200	3.201300	-9.552800	27.721254	3.846433E-5	20.778842
2353.610612	-2.995000	3.201300	-9.586600	27.791068	3.846433E-5	20.778924
2354.613094	-3.007400	3.199400	-9.621300	27.819288	3.757326E-5	20.792625
2355.613737	-2.996300	3.199000	-9.584300	27.763249	3.684721E-5	20.781748
2356.614665	-3.033700	3.198300	-9.701700	27.763876	3.810130E-5	20.781905
2357.613446	-2.989700	3.197800	-9.559200	27.785799	3.655019E-5	20.789269
2358.616665	-2.984300	3.197900	-9.542200	27.783595	3.777128E-5	20.784680
2359.614094	-3.002100	3.197000	-9.597300	27.812388	3.575813E-5	20.798010
2360.615168	-2.986000	3.197200	-9.546100	27.805846	3.744125E-5	20.766295
2361.617785	-3.001800	3.196400	-9.594200	27.795997	3.493307E-5	20.790048
2362.615972	-3.011300	3.195700	-9.622700	27.815965	3.810130E-5	20.798764
2363.618792	-3.006900	3.196800	-9.611100	27.880484	3.757326E-5	20.776454
2364.622042	-3.009900	3.192900	-9.609700	27.876519	3.618716E-5	20.773885
2365.615819	-3.001200	3.193300	-9.583000	27.856441	3.598915E-5	20.793033
2366.616460	-2.969000	3.195600	-9.487000	27.867027	3.684721E-5	20.775712
2367.616184	-2.973100	3.194800	-9.498200	27.798291	3.582413E-5	20.790460
2368.616583	-2.990000	3.191700	-9.542500	27.685337	3.519709E-5	20.785847
2369.616640	-3.008200	3.190900	-9.597700	27.699944	3.615416E-5	20.780157
2370.616792	-3.000700	3.191400	-9.575500	27.714206	3.443803E-5	20.784078
2371.619683	-3.010500	3.190900	-9.605400	27.726879	3.447103E-5	20.784028
2372.618790	-3.013500	3.188600	-9.607500	27.785283	3.565912E-5	20.763619
2373.618133	-3.002600	3.189900	-9.577500	27.810823	3.272191E-5	20.793116
2374.619682	-2.992900	3.189300	-9.544800	27.847670	3.357997E-5	20.779938
2375.620422	-2.997500	3.188900	-9.557800	27.807902	3.367898E-5	20.762675
2376.622097	-3.002200	3.188200	-9.571200	27.773676	3.321694E-5	20.783233
2377.621036	-2.995600	3.187000	-9.546200	27.820295	3.216086E-5	20.765664
2378.620745	-2.976900	3.186700	-9.485100	27.809488	3.483406E-5	20.757158
2379.622144	-3.003700	3.186500	-9.570800	27.875077	3.209486E-5	20.766744
2380.622108	-3.009600	3.186400	-9.589000	27.896527	3.249089E-5	20.773634
2381.621544	-2.981100	3.184200	-9.492300	27.901508	3.400900E-5	20.759681
2382.621403	-2.999200	3.184000	-9.549300	27.906936	3.364597E-5	20.781740
2383.628161	-2.992600	3.184000	-9.528000	27.948347	3.140181E-5	20.775531
2384.626560	-2.991600	3.183100	-9.521100	27.934263	3.262290E-5	20.760881
2385.622685	-3.003500	3.182500	-9.557700	27.946438	3.324994E-5	20.766023
2386.624538	-2.996100	3.183100	-9.536100	27.944824	3.192985E-5	20.765346
2387.624259	-2.989200	3.183000	-9.514100	27.876937	3.189685E-5	20.764823
2388.626181	-3.018900	3.180500	-9.601000	27.813884	3.133580E-5	20.771539
2389.624960	-3.008600	3.180200	-9.567100	27.795382	3.163283E-5	20.753393
2390.624511	-2.989200	3.178900	-9.501400	27.808845	3.024672E-5	20.782115
2391.624808	-2.999200	3.179400	-9.535000	27.902799	3.341496E-5	20.771412
2392.625546	-2.995500	3.180500	-9.525900	27.992922	2.935566E-5	20.759706
2393.628362	-3.006600	3.177700	-9.553600	28.029968	2.945467E-5	20.742941
2394.625198	-2.971000	3.178300	-9.441900	27.974653	2.730951E-5	20.788259
2395.628721	-2.989300	3.176400	-9.494300	27.958313	2.862961E-5	20.771337
2396.625569	-3.006100	3.175900	-9.545300	28.024536	2.882762E-5	20.770191
2397.632764	-2.994900	3.175900	-9.510600	28.026719	2.796956E-5	20.767173
2398.627412	-3.002000	3.174800	-9.529200	27.952021	2.876162E-5	20.772117
2399.630140	-2.976400	3.174400	-9.447700	28.000914	2.902563E-5	20.743568
2400.627779	-3.003100	3.172700	-9.527300	28.026822	2.803556E-5	20.763009
2401.629510	-3.006500	3.171600	-9.534400	27.997445	3.014772E-5	20.771845
2402.628254	-2.999000	3.171700	-9.510900	28.020551	2.905864E-5	20.739626
2403.629334	-3.016400	3.171800	-9.566800	28.050648	2.767254E-5	20.741473
2404.631328	-3.008600	3.170100	-9.536800	27.973842	2.826658E-5	20.761838
2405.630768	-2.989900	3.170200	-9.477700	27.945111	2.777154E-5	20.741452
2406.635340	-2.995300	3.168500	-9.489200	27.898125	2.697948E-5	20.760543
2407.635843	-2.959600	3.169600	-9.379100	27.900632	2.717750E-5	20.759747
2408.631856	-2.981600	3.168400	-9.445500	27.942780	2.592341E-5	20.750961
2409.631862	-2.996700	3.168500	-9.493600	27.956540	2.612142E-5	20.754853
2410.633158	-2.978000	3.168400	-9.434500	27.880624	2.582440E-5	20.732971
2411.630342	-2.976000	3.168900	-9.429900	27.831029	2.628643E-5	20.754181
2412.630730	-2.973200	3.167500	-9.416600	27.851792	2.793655E-5	20.748050
2413.635161	-2.998100	3.165700	-9.489200	27.852877	2.433929E-5	20.736340
2414.631422	-2.992300	3.164600	-9.468300	27.892902	2.443830E-5	20.748173
2415.632382	-3.010500	3.162600	-9.519500	27.926898	2.763953E-5	20.739717
2416.631590	-3.004200	3.162800	-9.500100	27.912884	2.529636E-5	20.750742
2417.631711	-2.989300	3.161900	-9.451000	27.886011	2.559338E-5	20.752618
2418.632408	-2.988500	3.161800	-9.448600	27.894716	2.608842E-5	20.751423
2419.636949	-3.000000	3.162100	-9.484900	27.973638	2.684747E-5	20.754519
2420.634488	-2.990300	3.159000	-9.444800	27.974629	2.483433E-5	20.771165
2421.639084	-2.998000	3.159600	-9.471700	27.954971	2.371224E-5	20.752800
2422.635703	-3.017100	3.157400	-9.524800	27.977333	2.635244E-5	20.738323
2423.636512	-2.969900	3.159900	-9.383600	27.971930	2.437229E-5	20.748058
2424.636474	-2.971600	3.157500	-9.381800	27.935136	2.348123E-5	20.756070
2425.642774	-2.981800	3.155900	-9.409100	27.995389	2.107205E-5	20.720461
2426.638182	-3.010300	3.155300	-9.497200	27.975457	2.209513E-5	20.734064
2427.641277	-2.998400	3.155400	-9.460400	28.007587	2.037900E-5	20.739379
2428.637846	-2.968500	3.156400	-9.368500	28.024770	2.278818E-5	20.744822
2429.642116	-3.017500	3.152000	-9.509400	28.041306	2.004897E-5	20.747716
2430.644531	-3.007800	3.152500	-9.481600	28.040216	2.041200E-5	20.756103
2431.640009	-3.020200	3.151400	-9.517300	28.011310	2.084103E-5	20.736488
2432.640517	-3.001100	3.151200	-9.456500	27.984014	2.255716E-5	20.754532
2433.636741	-3.020800	3.149700	-9.514100	27.958129	2.143508E-5	20.725632
2434.637020	-3.007900	3.149300	-9.471600	27.931478	1.826684E-5	20.741008
2435.639330	-3.012600	3.147900	-9.482500	28.023017	1.991697E-5	20.749221
2436.640945	-2.986700	3.148300	-9.402200	27.943682	2.133607E-5	20.756136
2437.638415	-2.975200	3.148000	-9.364900	27.938352	2.037900E-5	20.740814
2438.641860	-3.006000	3.145700	-9.455400	27.943510	2.090704E-5	20.739367
2439.641638	-2.990400	3.145400	-9.404900	27.998105	1.892689E-5	20.759707
2440.642734	-2.997900	3.144700	-9.426300	28.042731	2.074203E-5	20.734926
2441.644117	-3.000600	3.145400	-9.437300	28.054192	1.882789E-5	20.731763
2442.641950	-3.005900	3.143900	-9.449700	28.083494	1.919091E-5	20.738027
2443.643214	-3.004200	3.142300	-9.438600	28.121720	1.961994E-5	20.738101
2444.642102	-2.981100	3.142300	-9.366000	28.066836	1.965295E-5	20.727896
2445.646267	-2.989000	3.140500	-9.385000	28.045910	2.041200E-5	20.728642
2446.642849	-2.979000	3.141200	-9.356000	28.143787	1.965295E-5	20.719538
2447.643173	-2.995100	3.139300	-9.402100	28.163667	1.882789E-5	20.724379
2448.645381	-2.998200	3.139000	-9.411000	28.153580	1.872888E-5	20.737458
2449.643300	-3.011200	3.136600	-9.444000	28.135383	1.813483E-5	20.722931
2450.644960	-3.023100	3.135700	-9.478400	28.158269	1.922391E-5	20.727480
2451.646160	-3.009800	3.135400	-9.436100	28.139057	1.849786E-5	20.723311
2452.644256	-2.987800	3.135000	-9.365400	28.180635	1.826684E-5	20.724391
2453.646816	-2.983700	3.135200	-9.353900	28.247237	1.773881E-5	20.733599
2454.648898	-2.998500	3.133800	-9.396200	28.289028	1.767280E-5	20.742959
2455.644554	-2.997900	3.132700	-9.390900	28.313688	1.737578E-5	20.723216
2456.646014	-3.002400	3.130800	-9.399500	28.210257	1.711176E-5	20.734300
2457.647667	-3.024300	3.130700	-9.467500	28.211051	1.790382E-5	20.725616
2458.647435	-2.995200	3.131200	-9.377100	28.178358	1.826684E-5	20.730634
2459.645710	-3.002600	3.129200	-9.395100	28.193105	1.608868E-5	20.714660
2460.646993	-2.995100	3.129500	-9.371800	28.196750	1.651772E-5	20.735875
2461.647086	-3.000800	3.128000	-9.385600	28.220729	1.928992E-5	20.738205
2462.646594	-3.002200	3.126300	-9.383900	28.155136	1.810183E-5	20.734758
2463.647245	-2.992700	3.125600	-9.352400	28.126484	1.602268E-5	20.716817
2464.646701	-2.996100	3.125800	-9.364500	28.149960	1.829985E-5	20.743771
2465.647028	-2.993400	3.123500	-9.348800	28.169794	1.635270E-5	20.731970
2466.646363	-2.974900	3.124600	-9.294400	28.158094	1.780481E-5	20.731571
2467.648634	-3.006400	3.123600	-9.389200	28.206608	1.803583E-5	20.725885
2468.647721	-3.020000	3.120600	-9.422500	28.266374	1.655072E-5	20.730107
2469.648578	-3.017500	3.121400	-9.418000	28.313316	1.750779E-5	20.727583
2470.652066	-2.989800	3.119700	-9.326500	28.282689	1.552764E-5	20.729938
2471.648580	-2.996600	3.118800	-9.345200	28.231680	1.575866E-5	20.740222
2472.651792	-2.982800	3.118000	-9.299300	28.288394	1.506561E-5	20.749433
2473.653002	-2.991700	3.118100	-9.327300	28.266662	1.470258E-5	20.734190
2474.650460	-3.018500	3.116500	-9.406200	28.274520	1.658372E-5	20.732144
2475.649200	-2.999200	3.115300	-9.342500	28.306867	1.747479E-5	20.732944
2476.650541	-3.016100	3.112900	-9.387600	28.375373	1.721077E-5	20.732223
2477.651582	-3.040800	3.111300	-9.459700	28.369555	1.371251E-5	20.722096
2478.650227	-3.006300	3.111700	-9.353700	28.414043	1.460357E-5	20.742713
2479.649705	-2.990700	3.112000	-9.305900	28.398832	1.645171E-5	20.717911
2480.651574	-3.023600	3.109400	-9.400800	28.304627	1.407554E-5	20.735906
2481.650490	-2.992300	3.109200	-9.302700	28.245912	1.450457E-5	20.712823
2482.651929	-3.003100	3.107600	-9.331400	28.201499	1.354750E-5	20.720740
2483.652617	-3.011600	3.107400	-9.356800	28.181645	1.301946E-5	20.723986
2484.650277	-2.982700	3.105600	-9.262200	28.141910	1.582466E-5	20.730451
2485.652594	-3.007200	3.105300	-9.338100	28.119032	1.430655E-5	20.723066
2486.652032	-2.978200	3.105800	-9.248500	28.113531	1.196338E-5	20.714209
2487.650911	-2.998200	3.104500	-9.306900	28.162421	1.572566E-5	20.716486
2488.651699	-3.004200	3.102200	-9.318800	28.186961	1.367951E-5	20.739296
2489.652009	-3.025300	3.100900	-9.380700	28.224343	1.374551E-5	20.713393
2490.651641	-3.015800	3.100400	-9.349500	28.235151	1.397653E-5	20.729491
2491.652877	-2.976900	3.100200	-9.227600	28.300272	1.417454E-5	20.725355
2492.652496	-2.978900	3.100100	-9.234100	28.342404	1.265643E-5	20.719414
2493.651197	-2.982100	3.097800	-9.236500	28.382734	1.384452E-5	20.736315
2494.653153	-2.990800	3.097600	-9.263100	28.415102	1.070929E-5	20.728131
2495.651370	-2.961300	3.096100	-9.166500	28.445360	1.242541E-5	20.725883
2496.651885	-2.979300	3.095400	-9.220700	28.443976	1.249142E-5	20.734922
2497.652407	-3.015400	3.092100	-9.322900	28.480236	9.851225E-6	20.727339
2498.662706	-3.011800	3.092400	-9.312200	28.476592	1.179837E-5	20.733627
2499.652227	-3.007900	3.092200	-9.300300	28.457414	1.153435E-5	20.727591
2500.651214	-2.996500	3.091800	-9.263100	28.431771	1.176537E-5	20.733537
2501.652341	-3.001200	3.090700	-9.274600	28.445995	1.113832E-5	20.721782
2502.653366	-2.997200	3.089000	-9.257500	28.499799	1.216140E-5	20.750834
2503.652601	-3.000800	3.087500	-9.264800	28.519029	9.752218E-6	20.741277
2504.653552	-2.990000	3.086500	-9.227800	28.503545	1.113832E-5	20.740382
2505.651738	-2.996900	3.084800	-9.244000	28.457530	1.074229E-5	20.729130
2506.651696	-3.010200	3.084100	-9.283200	28.355747	8.366116E-6	20.717201
2507.653642	-3.021300	3.083200	-9.314000	28.288828	1.014825E-5	20.735645
2508.660795	-3.001600	3.082400	-9.251300	28.267096	8.465123E-6	20.747904
2509.653107	-2.979300	3.082500	-9.182400	28.264991	8.927157E-6	20.733456
2510.653789	-3.004200	3.079000	-9.248600	28.290372	8.861152E-6	20.725819
2511.652146	-3.002600	3.078200	-9.241500	28.336379	7.376043E-6	20.739901
2512.656585	-2.978900	3.077500	-9.166600	28.340912	9.653210E-6	20.738775
2513.654847	-3.000100	3.076100	-9.228000	28.302576	1.107231E-5	20.743323
2514.656952	-2.993200	3.076100	-9.206400	28.356186	9.026164E-6	20.728075
2515.656904	-3.001400	3.074600	-9.227100	28.307637	9.554203E-6	20.751265
2516.654990	-3.011200	3.072500	-9.250900	28.324811	1.031326E-5	20.740582
2517.659973	-2.986000	3.073400	-9.176700	28.343971	9.554203E-6	20.739959
2518.656304	-2.995000	3.070500	-9.195500	28.355822	1.044527E-5	20.741460
2519.654929	-2.993800	3.071000	-9.193200	28.327920	8.762145E-6	20.756040
2520.659109	-3.028800	3.067900	-9.290900	28.342690	8.564130E-6	20.737246
2521.659453	-2.981800	3.068700	-9.149100	28.393870	8.762145E-6	20.744211
2522.658378	-3.007700	3.065600	-9.219800	28.392286	8.630135E-6	20.733606
2523.661542	-2.985100	3.063800	-9.145200	28.398362	9.620208E-6	20.758692
2524.659529	-2.998600	3.064900	-9.188100	28.362501	1.077529E-5	20.753876
2525.660713	-3.001900	3.062300	-9.192300	28.433752	9.455196E-6	20.746912
2526.659577	-3.001600	3.061000	-9.186600	28.433310	1.117132E-5	20.743148
2527.663575	-2.979200	3.060000	-9.116100	28.406126	1.156735E-5	20.745646
2528.659973	-2.971100	3.060100	-9.091000	28.383348	1.146834E-5	20.735037
2529.660486	-2.981400	3.058400	-9.116700	28.404714	1.282144E-5	20.750862
2530.657705	-2.995200	3.055900	-9.152200	28.366126	1.199638E-5	20.736662
2531.659975	-2.969800	3.056600	-9.075800	28.336135	1.156735E-5	20.736810
2532.658880	-2.976000	3.055800	-9.092900	28.351037	9.620208E-6	20.723364
2533.658864	-2.984600	3.055000	-9.115200	28.363673	1.117132E-5	20.741305
2534.658616	-3.012400	3.051700	-9.192400	28.382955	1.110532E-5	20.749341
2535.657317	-2.986800	3.051300	-9.112700	28.401446	1.113832E-5	20.747098
2536.658701	-3.007200	3.048500	-9.166300	28.418226	1.120432E-5	20.760202
2537.657666	-2.978900	3.048100	-9.078900	28.447739	1.018125E-5	20.740134
2538.657507	-3.007900	3.047600	-9.166400	28.508650	1.090730E-5	20.758325
2539.658107	-2.969600	3.045500	-9.042400	28.454851	9.026164E-6	20.741132
2540.658181	-2.989400	3.045600	-9.103200	28.448553	9.059167E-6	20.733841
2541.661013	-2.987400	3.042900	-9.089600	28.440131	1.160035E-5	20.757130
2542.658614	-2.987000	3.043000	-9.088300	28.425780	9.950232E-6	20.759274
2543.662210	-3.021400	3.041600	-9.189400	28.369426	1.004924E-5	20.736666
2544.662681	-3.029200	3.039000	-9.204800	28.394453	1.034626E-5	20.751910
2545.659816	-3.014100	3.038600	-9.156600	28.471110	9.818223E-6	20.750867
2546.664216	-3.039800	3.035900	-9.226800	28.497374	1.051127E-5	20.759773
2547.665418	-3.009500	3.035900	-9.136000	28.499856	9.323186E-6	20.748521
2548.659419	-2.999000	3.035000	-9.101000	28.544363	8.234106E-6	20.752091
2549.662577	-2.992000	3.034900	-9.079700	28.561038	9.323186E-6	20.771256
2550.664047	-3.000900	3.031100	-9.094800	28.570061	7.739070E-6	20.764696
2551.662113	-2.992500	3.031600	-9.071300	28.587775	7.772072E-6	20.769735
2552.663507	-2.993500	3.029600	-9.068200	28.566495	1.054428E-5	20.757786
2553.661749	-2.981900	3.029300	-9.032000	28.586936	9.785220E-6	20.769838
2554.665814	-3.033300	3.026400	-9.179000	28.548109	8.333113E-6	20.754916
2555.664524	-2.992200	3.025800	-9.052700	28.594792	9.653210E-6	20.770164
2556.666099	-3.011900	3.025100	-9.110100	28.586642	7.013016E-6	20.774283
2557.672196	-3.027500	3.022600	-9.149600	28.592271	7.376043E-6	20.770943
2558.662735	-2.995300	3.022700	-9.052400	28.549801	7.376043E-6	20.742394
2559.665006	-3.024900	3.020900	-9.137200	28.490972	7.475050E-6	20.760912
2560.665315	-3.004600	3.019400	-9.071200	28.447404	7.838077E-6	20.756393
2561.665705	-3.003100	3.017300	-9.060100	28.442474	6.848004E-6	20.762334
2562.665293	-3.051300	3.015400	-9.199800	28.499201	7.013016E-6	20.751181
2563.667170	-3.010900	3.015800	-9.079900	28.512708	9.950232E-6	20.753404
2564.666047	-3.005700	3.013500	-9.057000	28.517765	7.475050E-6	20.763712
2565.667282	-2.989900	3.013100	-9.008000	28.561845	8.960159E-6	20.774914
2566.667395	-3.003000	3.011900	-9.044100	28.646170	6.715994E-6	20.761691
2567.666943	-3.006500	3.009100	-9.045700	28.646498	7.244033E-6	20.759177
2568.667637	-2.996000	3.007900	-9.010800	28.674019	8.729143E-6	20.775042
2569.670272	-2.992600	3.007400	-8.999100	28.653211	7.640062E-6	20.764990
2570.668575	-2.999100	3.007300	-9.018500	28.627397	5.791926E-6	20.805372
2571.669123	-2.982400	3.004700	-8.960200	28.645311	7.343041E-6	20.775999
2572.669936	-3.000300	3.002100	-9.005700	28.613298	6.286963E-6	20.775525
2573.670039	-3.005900	3.000600	-9.019100	28.661743	7.079021E-6	20.770739
2574.670812	-3.002200	2.999900	-9.005400	28.676435	8.795147E-6	20.767993
2575.669597	-2.995700	2.998100	-8.980500	28.633698	5.890934E-6	20.776631
2576.669017	-3.010700	2.997300	-9.022500	28.569552	7.046019E-6	20.774141
2577.671895	-3.018400	2.995100	-9.039000	28.619382	8.201104E-6	20.779283
2578.672230	-3.018500	2.995100	-9.040100	28.605906	6.781999E-6	20.772348
2579.673061	-3.014600	2.993400	-9.021500	28.581400	7.937084E-6	20.761891
2580.675233	-2.988800	2.991100	-8.939300	28.613987	7.442048E-6	20.775745
2581.673240	-2.982400	2.990400	-8.918000	28.663992	1.097331E-5	20.775849
2582.672982	-3.018400	2.988700	-9.020500	28.653021	9.587206E-6	20.773808
2583.672597	-2.975300	2.987800	-8.888700	28.600515	8.960159E-6	20.770237
2584.672711	-2.976500	2.986700	-8.888700	28.556211	9.851225E-6	20.766869
2585.673183	-3.012500	2.983600	-8.987100	28.578510	1.037926E-5	20.776525
2586.673046	-3.005800	2.982300	-8.963700	28.667816	9.125172E-6	20.783494
2587.674048	-2.997000	2.982300	-8.936800	28.639394	8.069094E-6	20.795170
2588.680682	-2.975200	2.981900	-8.870300	28.621857	9.785220E-6	20.780826
2589.675163	-2.999700	2.979600	-8.937200	28.606443	7.904082E-6	20.774312
2590.674417	-3.006600	2.977300	-8.951000	28.636926	1.018125E-5	20.775141
2591.675939	-3.017200	2.974700	-8.974500	28.734941	9.950232E-6	20.779981
2592.672825	-3.027200	2.974600	-9.003400	28.778169	8.069094E-6	20.789860
2593.674940	-3.001500	2.973300	-8.923300	28.807779	8.300111E-6	20.784125
2594.678359	-3.014200	2.971000	-8.954100	28.872135	9.455196E-6	20.802963
2595.681544	-2.983400	2.971000	-8.863100	28.901762	1.110532E-5	20.794404
2596.677571	-3.005600	2.969500	-8.924600	28.913357	8.300111E-6	20.780006
2597.676773	-2.984100	2.967800	-8.854100	28.897894	1.014825E-5	20.797620
2598.678237	-2.982400	2.967400	-8.848800	28.866880	8.729143E-6	20.785341
2599.677927	-2.996200	2.963600	-8.878700	28.897272	8.366116E-6	20.796044
2600.677713	-3.009600	2.962400	-8.914000	28.948822	9.620208E-6	20.796296
2601.677083	-3.023300	2.961400	-8.952200	28.905871	8.762145E-6	20.786215
2602.678203	-2.991900	2.960300	-8.856100	28.837521	8.531128E-6	20.791802
2603.678708	-2.996800	2.959900	-8.869900	28.871582	6.451975E-6	20.801932
2604.679824	-2.993300	2.958600	-8.855100	28.918770	5.098875E-6	20.788779
2605.680675	-2.995300	2.955600	-8.851700	28.908735	6.616987E-6	20.790997
2606.685500	-2.985700	2.953300	-8.817100	28.917608	6.715994E-6	20.786660
2607.680543	-3.022000	2.951400	-8.918200	28.925331	6.484977E-6	20.796336
2608.679217	-3.007500	2.950600	-8.872500	28.912010	7.310038E-6	20.799986
2609.681178	-3.004900	2.949700	-8.863300	28.907946	6.947011E-6	20.810116
2610.680719	-3.021500	2.946300	-8.901600	28.925208	7.145026E-6	20.803325
2611.679663	-2.972200	2.946400	-8.756800	29.008533	9.917230E-6	20.804298
2612.680675	-3.024700	2.944300	-8.904100	29.024039	6.550982E-6	20.815179
2613.680446	-3.006900	2.942300	-8.846200	28.925056	5.890934E-6	20.795112
2614.681622	-3.002100	2.942100	-8.831800	28.813037	6.187956E-6	20.816448
2615.683531	-3.002100	2.940600	-8.827200	28.777955	4.636841E-6	20.809559
2616.684742	-2.989300	2.938500	-8.783000	28.753379	6.088948E-6	20.802348
2617.683019	-2.997900	2.935900	-8.800500	28.802530	7.508053E-6	20.805390
2618.682126	-3.014900	2.934400	-8.845200	28.914035	7.772072E-6	20.816725
2619.684216	-3.003100	2.933900	-8.810000	28.921242	6.947011E-6	20.811658
2620.686555	-3.005300	2.932100	-8.810900	28.970752	8.927157E-6	20.823606
2621.686132	-3.005000	2.930400	-8.804600	29.014671	6.418973E-6	20.813801
2622.686427	-2.999600	2.928500	-8.782700	29.032853	7.607060E-6	20.805568
2623.684515	-2.984100	2.925600	-8.728900	29.038824	6.517980E-6	20.783608
2624.685520	-2.984600	2.925100	-8.729800	28.975091	9.059167E-6	20.816597
2625.684410	-3.015500	2.921600	-8.808800	28.970802	7.607060E-6	20.830767
2626.684593	-2.993100	2.921400	-8.743500	28.978733	6.980014E-6	20.826430
2627.689466	-2.998700	2.920800	-8.757000	28.906103	7.871079E-6	20.832441
2628.687705	-3.008400	2.917000	-8.774900	28.896592	7.838077E-6	20.798678
2629.689809	-3.005600	2.915400	-8.761700	28.918164	5.263888E-6	20.822781
2630.694705	-2.990600	2.914500	-8.714900	28.882497	7.937084E-6	20.815298
2631.686741	-2.982600	2.914000	-8.688900	28.906299	7.706067E-6	20.809880
2632.689111	-2.963000	2.912300	-8.627700	28.944990	7.772072E-6	20.816617
2633.688532	-2.956900	2.910500	-8.605000	28.948756	6.352968E-6	20.821358
2634.688627	-2.979200	2.907700	-8.662000	28.987641	6.748997E-6	20.817862
2635.689532	-2.988300	2.906800	-8.685700	29.031187	6.220958E-6	20.804363
2636.688622	-2.995600	2.905300	-8.702400	28.931043	5.164880E-6	20.816316
2637.690430	-2.998600	2.902500	-8.702700	28.975729	6.418973E-6	20.831938
2638.688478	-2.970100	2.900700	-8.614300	28.961585	6.914009E-6	20.813896
2639.691296	-2.990400	2.898400	-8.665500	28.935774	6.517980E-6	20.830565
2640.689483	-2.958100	2.897200	-8.569400	28.896465	6.682992E-6	20.823680
2641.688973	-2.996500	2.895700	-8.675900	28.980558	6.715994E-6	20.831113
2642.693433	-2.990800	2.894100	-8.654700	28.992794	6.715994E-6	20.824949
2643.690542	-3.030100	2.890000	-8.755900	29.072521	5.296890E-6	20.825147
2644.699751	-2.985000	2.890900	-8.628200	29.044883	6.121951E-6	20.834284
2645.691791	-3.013500	2.887300	-8.700000	29.059693	4.636841E-6	20.845886
2646.692086	-3.021600	2.886000	-8.719900	28.991264	5.626914E-6	20.830046
2647.691420	-2.983800	2.884500	-8.606100	29.055433	6.187956E-6	20.834482
2648.691879	-2.996500	2.881600	-8.634100	29.012515	4.405824E-6	20.848137
2649.694045	-2.993100	2.880100	-8.619500	29.029456	3.811781E-6	20.825379
2650.695084	-3.015800	2.878500	-8.679900	29.056873	5.098875E-6	20.830244
2651.693564	-2.974300	2.878500	-8.560600	29.096083	4.603839E-6	20.803844
2652.693334	-3.003300	2.875800	-8.635900	29.115601	5.824929E-6	20.834891
2653.693824	-2.982800	2.874200	-8.572300	29.133110	4.900861E-6	20.852058
2654.693319	-2.999100	2.870400	-8.607600	29.119787	5.230885E-6	20.837212
2655.694755	-2.994700	2.869500	-8.592100	29.139448	5.791926E-6	20.820039
2656.702489	-3.017200	2.867500	-8.650700	29.169396	3.646768E-6	20.849267
2657.694846	-3.019800	2.865300	-8.652000	29.095494	4.207810E-6	20.840708
2658.697528	-2.999200	2.863300	-8.586600	29.119424	4.273815E-6	20.825940
2659.696721	-3.013400	2.860900	-8.620300	29.143197	5.032870E-6	20.836144
2660.699749	-2.998900	2.859400	-8.574000	29.149368	4.735849E-6	20.839517
2661.698662	-2.985700	2.858400	-8.532900	29.210218	5.659917E-6	20.839196
2662.700741	-3.003400	2.854300	-8.571600	29.247016	5.065873E-6	20.866320
2663.706714	-3.011200	2.853000	-8.589000	29.224309	6.286963E-6	20.858136
2664.696406	-2.969500	2.852200	-8.468800	29.255710	4.339819E-6	20.843789
2665.700697	-3.032000	2.848000	-8.634200	29.248554	6.781999E-6	20.831837
2666.706817	-3.006000	2.848500	-8.562000	29.251975	3.745776E-6	20.849982
2667.701072	-3.008900	2.845300	-8.559800	29.227210	3.514759E-6	20.850155
2668.698760	-2.994700	2.844000	-8.516300	29.245049	6.781999E-6	20.830201
2669.698839	-3.001000	2.841300	-8.525900	29.190989	6.121951E-6	20.848742
2670.703952	-2.985200	2.838800	-8.473300	29.198296	5.263888E-6	20.866536
2671.701194	-2.997500	2.836400	-8.500800	29.183019	5.857931E-6	20.851141
2672.701877	-2.993400	2.834500	-8.483700	29.145454	8.366116E-6	20.859280
2673.711784	-2.991800	2.833300	-8.476200	29.147459	6.286963E-6	20.840913
2674.701737	-3.009300	2.830000	-8.515700	29.174578	4.042798E-6	20.850696
2675.700512	-3.026900	2.828200	-8.560100	29.126960	4.042798E-6	20.859611
2676.704268	-3.013300	2.825800	-8.512700	29.117004	5.890934E-6	20.866648
2677.701895	-3.016400	2.823500	-8.515900	29.050261	4.966866E-6	20.865305
2678.699790	-2.994000	2.821100	-8.445800	29.096877	3.217737E-6	20.871497
2679.706727	-3.001000	2.819800	-8.461000	29.193977	5.692919E-6	20.859339
2680.702630	-2.975600	2.817700	-8.383800	29.282412	5.560909E-6	20.875913
2681.704982	-3.011000	2.813300	-8.470100	29.247056	3.778778E-6	20.861620
2682.706721	-3.023800	2.811500	-8.500300	29.290714	6.550982E-6	20.856305
2683.704254	-2.984100	2.809900	-8.383700	29.315060	4.537834E-6	20.873255
2684.703641	-2.977700	2.807100	-8.358100	29.239263	5.164880E-6	20.852818
2685.704107	-2.971800	2.804500	-8.333100	29.193005	3.316744E-6	20.856463
2686.705030	-3.003900	2.800700	-8.412600	29.186074	3.844783E-6	20.862280
2687.704800	-3.032300	2.796700	-8.479700	29.274878	5.428900E-6	20.876855
2688.705320	-2.999000	2.796600	-8.385800	29.338421	7.277036E-6	20.858867
2689.715060	-2.977900	2.792600	-8.315600	29.290560	4.636841E-6	20.878434
2690.704333	-3.016300	2.790700	-8.416800	29.270829	6.914009E-6	20.856654
2691.706029	-2.995300	2.788700	-8.351900	29.194038	4.438827E-6	20.864615
2692.708685	-2.990800	2.784900	-8.328300	29.246936	2.227664E-6	20.858654
2693.707405	-2.997300	2.782100	-8.338000	29.279061	6.649990E-6	20.851200
2694.713227	-3.013900	2.780500	-8.379700	29.298425	7.607060E-6	20.878774
2695.706616	-2.988300	2.776800	-8.296900	29.276459	4.966866E-6	20.858535
2696.706507	-2.985200	2.774400	-8.280100	29.308481	7.079021E-6	20.868521
2697.704811	-2.974800	2.772100	-8.245200	29.363427	7.937084E-6	20.853250
2698.708824	-2.996800	2.767100	-8.291000	29.449667	7.277036E-6	20.856247
2699.707047	-2.982200	2.764700	-8.243600	29.413846	6.550982E-6	20.864238
2700.706819	-2.976700	2.761600	-8.218800	29.386287	9.125172E-6	20.847841
2701.713306	-2.980000	2.759700	-8.222800	29.376437	8.003089E-6	20.851663
2702.707517	-2.988900	2.756400	-8.237800	29.355075	8.531128E-6	20.862375
2703.707845	-3.004100	2.752600	-8.268100	29.345563	6.914009E-6	20.850893
2704.707490	-3.042000	2.748200	-8.358500	29.444732	7.112024E-6	20.850799
2705.710712	-2.970700	2.747700	-8.162200	29.420172	6.121951E-6	20.855915
2706.709929	-3.016400	2.743000	-8.273300	29.412027	6.616987E-6	20.843914
2707.711402	-3.017700	2.738600	-8.263100	29.367414	8.300111E-6	20.837828
2708.711749	-3.010300	2.735800	-8.234900	29.289988	9.719215E-6	20.857944
2709.708548	-3.007100	2.733900	-8.219900	29.349071	7.772072E-6	20.849212
2710.710430	-2.988600	2.730600	-8.159800	29.402873	7.574058E-6	20.839428
2711.712477	-2.989300	2.727500	-8.152300	29.393694	6.550982E-6	20.849143
2712.711234	-3.011500	2.722600	-8.198200	29.394165	7.508053E-6	20.833970
2713.711689	-3.020300	2.718300	-8.209300	29.439031	8.069094E-6	20.840312
2714.711008	-3.007800	2.714100	-8.162100	29.465869	6.583985E-6	20.854086
2715.712269	-3.000300	2.712300	-8.136200	29.454707	6.583985E-6	20.829085
2716.713325	-2.986400	2.707500	-8.084200	29.427173	7.409045E-6	20.832627
2717.712842	-3.025300	2.703200	-8.177600	29.499473	5.560909E-6	20.837699
2718.712759	-2.993800	2.700800	-8.084400	29.516358	7.838077E-6	20.838123
2719.709980	-3.000000	2.695800	-8.087200	29.455039	7.013016E-6	20.839852
2720.712327	-3.011900	2.691900	-8.107100	29.553125	8.201104E-6	20.836306
2721.716356	-3.030700	2.686500	-8.140000	29.540626	6.517980E-6	20.845516
2722.710241	-3.035600	2.682800	-8.143600	29.550111	8.069094E-6	20.845595
2723.710105	-3.026500	2.679100	-8.107300	29.512829	7.871079E-6	20.842627
2724.717070	-3.007300	2.675000	-8.043900	29.450986	7.178028E-6	20.816801
2725.711382	-3.026700	2.669800	-8.079900	29.449604	6.781999E-6	20.827261
2726.713908	-3.017200	2.667100	-8.046100	29.411926	6.154953E-6	20.834803
2727.711660	-3.013500	2.662300	-8.021500	29.464907	7.244033E-6	20.825142
2728.712454	-2.994200	2.658800	-7.960300	29.558612	8.861152E-6	20.838043
2729.714646	-3.007600	2.653700	-7.979800	29.558097	6.022943E-6	20.826619
2730.716782	-2.983500	2.649300	-7.903700	29.601120	7.178028E-6	20.811669
2731.712802	-2.982500	2.643100	-7.881800	29.572531	6.914009E-6	20.845910
2732.712799	-3.024100	2.639200	-7.980600	29.579885	7.772072E-6	20.813022
2733.710606	-3.033200	2.633300	-7.986100	29.646011	9.917230E-6	20.836536
2734.712422	-2.992600	2.629500	-7.868300	29.750021	6.649990E-6	20.813851
2735.714251	-2.998800	2.624700	-7.869100	29.735168	1.021425E-5	20.833963
2736.711981	-2.972000	2.619400	-7.784000	29.708092	7.475050E-6	20.820889
2737.713329	-2.976500	2.614000	-7.779600	29.765148	7.640062E-6	20.820568
2738.716005	-2.983900	2.609200	-7.784100	29.800320	6.517980E-6	20.806245
2739.710175	-3.028900	2.602400	-7.881700	29.861104	8.432121E-6	20.801627
2740.711853	-2.961100	2.599100	-7.694900	29.866477	9.983235E-6	20.817950
2741.713133	-3.016600	2.592200	-7.817600	29.798517	9.818223E-6	20.806797
2742.713358	-2.979800	2.588400	-7.712100	29.775847	8.267109E-6	20.807173
2743.713669	-2.944100	2.581000	-7.597600	29.801662	8.498126E-6	20.814236
2744.717802	-3.012500	2.574400	-7.754600	29.764438	8.333113E-6	20.802308
2745.714225	-2.983200	2.569300	-7.663500	29.725556	7.673065E-6	20.806728
2746.715069	-2.982900	2.564400	-7.648600	29.718325	7.409045E-6	20.816982
2747.717864	-3.013300	2.557500	-7.704500	29.782606	7.079021E-6	20.813040
2748.716396	-2.967900	2.552900	-7.576200	29.814094	6.980014E-6	20.809227
2749.715364	-2.988800	2.546500	-7.610000	29.741526	7.574058E-6	20.828993
2750.713813	-3.026300	2.539400	-7.684000	29.707395	6.286963E-6	20.805962
2751.715395	-2.992600	2.534100	-7.582800	29.811228	7.904082E-6	20.803492
2752.719155	-2.966500	2.527700	-7.497700	29.869885	8.399118E-6	20.795782
2753.716619	-2.950600	2.522200	-7.441000	29.768341	5.758924E-6	20.804821
2754.716755	-2.994200	2.514700	-7.528400	29.716091	9.851225E-6	20.800030
2755.717239	-2.980400	2.509400	-7.478400	29.774258	7.937084E-6	20.809365
2756.717721	-2.962000	2.504400	-7.416900	29.815367	6.947011E-6	20.812881
2757.720201	-3.014300	2.496200	-7.523900	29.756069	7.640062E-6	20.789603
