LabVIEW Measurement	
Writer_Version	2
Reader_Version	2
Separator	Tab
Decimal_Separator	.
Multi_Headings	No
X_Columns	One
Time_Pref	Absolute
Operator	admin
Description	Clolumns are: time, Current, Voltage, Power, Battery Temp, and Chamber Temp
Date	2024/08/16
Time	13:07:17.8513970375061035156
***End_of_Header***	
	
Channels	6						
Samples	1	1	1	1	1	1	
Date	2024/09/06	2024/09/06	2024/09/06	2024/09/06	2024/09/06	2024/09/06	
Time	10:10:13.1464743614196777344	10:10:13.152507781982421875	10:10:13.1574711799621582031	10:10:13.1209015846252441406	10:10:13.1209015846252441406	10:10:13.1209015846252441406	
X_Dimension	Time	Time	Time	Time	Time	Time	
X0	0.0000000000000000E+0	0.0000000000000000E+0	0.0000000000000000E+0	0.0000000000000000E+0	0.0000000000000000E+0	0.0000000000000000E+0	
Delta_X	1.000000	1.000000	1.000000	1.000000	1.000000	1.000000	
***End_of_Header***							
X_Value	Untitled	Untitled 1	Untitled 2	Untitled 3	Untitled 4	Untitled 5	Comment
0.000000	0.014803	4.089500	0.060564	20.853600	0.000463	20.833212
0.994988	-2.977800	3.923500	-11.682000	20.840922	0.000461	20.846612
2.009623	-2.982600	3.916700	-11.681000	20.826624	0.000462	20.861710
2.997689	-3.015100	3.911600	-11.793000	20.836160	0.000461	20.850858
4.002935	-3.018500	3.907300	-11.792000	20.871167	0.000460	20.853151
5.018279	-3.000900	3.906300	-11.722000	20.884942	0.000459	20.836581
5.999151	-2.996400	3.902400	-11.692000	20.858820	0.000461	20.846492
6.999673	-3.018300	3.901700	-11.775000	20.875290	0.000456	20.828351
8.000429	-2.998100	3.899500	-11.690000	20.875340	0.000458	20.818918
9.000618	-3.001700	3.896900	-11.697000	20.885795	0.000456	20.827477
10.003930	-2.975600	3.896000	-11.592000	20.879335	0.000457	20.843301
11.002159	-3.003500	3.894200	-11.695000	20.900744	0.000457	20.847642
12.004649	-3.005600	3.892100	-11.697000	20.889662	0.000457	20.848413
13.007836	-3.007000	3.891300	-11.700000	20.914044	0.000456	20.844348
14.008074	-3.004300	3.889800	-11.685000	20.919906	0.000455	20.826030
15.006632	-2.989300	3.889300	-11.624000	20.942065	0.000454	20.843924
16.010834	-2.999000	3.887700	-11.659000	20.926119	0.000455	20.835562
17.004276	-3.011700	3.887000	-11.706000	20.941620	0.000454	20.852013
18.003375	-3.000900	3.886300	-11.661000	20.934183	0.000454	20.831299
19.004977	-3.002500	3.885500	-11.665000	20.944135	0.000455	20.840304
20.012224	-3.010200	3.885300	-11.695000	20.956737	0.000454	20.825408
21.008489	-3.007300	3.883600	-11.679000	20.974151	0.000450	20.833814
22.004874	-3.000900	3.883300	-11.653000	20.975247	0.000453	20.843919
23.006735	-3.005200	3.883300	-11.669000	20.978788	0.000452	20.852202
24.005450	-3.014000	3.882200	-11.700000	20.987627	0.000451	20.821214
25.018724	-2.996300	3.881900	-11.631000	20.997826	0.000450	20.822880
26.021096	-2.996300	3.880600	-11.625000	21.016941	0.000451	20.830619
27.009100	-2.965200	3.881000	-11.507000	21.005135	0.000449	20.816914
28.006672	-2.971000	3.879700	-11.526000	21.014665	0.000450	20.828817
29.007099	-3.004800	3.878700	-11.654000	21.021253	0.000449	20.816914
30.007043	-2.985200	3.878400	-11.576000	21.031781	0.000449	20.827918
31.008620	-3.006200	3.878400	-11.659000	21.065261	0.000448	20.826793
32.010156	-3.002100	3.877100	-11.639000	21.056580	0.000448	20.820480
33.005942	-3.003600	3.877000	-11.644000	21.075991	0.000448	20.832309
34.010876	-2.990500	3.876600	-11.592000	21.050867	0.000449	20.830413
35.012319	-3.007800	3.876700	-11.660000	21.061494	0.000447	20.814964
36.013949	-3.004200	3.875700	-11.643000	21.087364	0.000446	20.830883
37.017634	-3.045700	3.875500	-11.802000	21.088287	0.000448	20.837022
38.011806	-3.015000	3.875100	-11.683000	21.097467	0.000446	20.801634
39.023748	-3.010000	3.875200	-11.664000	21.103926	0.000448	20.832750
40.008905	-3.015000	3.873900	-11.679000	21.110117	0.000448	20.841314
41.021717	-2.985300	3.874900	-11.567000	21.120797	0.000446	20.824496
42.009337	-3.005700	3.873200	-11.640000	21.128926	0.000446	20.820299
43.014806	-2.999000	3.874700	-11.618000	21.151002	0.000445	20.824838
44.009799	-2.989200	3.873000	-11.576000	21.162181	0.000447	20.812787
45.009505	-2.984600	3.871800	-11.555000	21.157638	0.000445	20.821045
46.011291	-2.986800	3.873700	-11.568000	21.180288	0.000447	20.812882
47.020379	-2.993100	3.873200	-11.592000	21.185852	0.000445	20.810861
48.015039	-2.994800	3.871600	-11.594000	21.198501	0.000446	20.798859
49.013126	-2.994500	3.872300	-11.594000	21.202990	0.000442	20.809513
50.020165	-2.984500	3.872300	-11.556000	21.207952	0.000445	20.797882
51.017469	-2.985700	3.872000	-11.560000	21.199470	0.000445	20.808363
52.011706	-2.985100	3.872500	-11.560000	21.204708	0.000444	20.822138
53.018860	-3.027000	3.869400	-11.712000	21.237339	0.000446	20.801201
54.017673	-2.970600	3.869900	-11.495000	21.235068	0.000446	20.814576
55.010417	-3.043800	3.868600	-11.774000	21.251686	0.000444	20.809389
56.023267	-2.996800	3.869200	-11.594000	21.251657	0.000444	20.813628
57.020784	-2.997700	3.869300	-11.599000	21.272960	0.000447	20.811707
58.016418	-3.007200	3.868400	-11.632000	21.263457	0.000445	20.799354
59.016973	-2.997900	3.868600	-11.596000	21.269070	0.000444	20.805918
60.011684	-3.007400	3.868300	-11.632000	21.272709	0.000443	20.794860
61.025507	-2.988600	3.869600	-11.563000	21.285885	0.000445	20.785756
62.018668	-3.017300	3.868300	-11.671000	21.295859	0.000443	20.825131
63.020487	-2.998400	3.868400	-11.598000	21.312900	0.000442	20.797610
64.023942	-2.993600	3.867000	-11.575000	21.324897	0.000444	20.814828
65.014295	-3.000900	3.868000	-11.607000	21.333852	0.000446	20.827106
66.017149	-3.021800	3.867700	-11.687000	21.353485	0.000443	20.818773
67.014543	-2.992400	3.868200	-11.575000	21.344654	0.000444	20.803774
68.018927	-2.983300	3.867400	-11.537000	21.347221	0.000444	20.815351
69.019907	-3.002700	3.867300	-11.611000	21.357677	0.000444	20.805423
70.012350	-3.000500	3.865700	-11.598000	21.369928	0.000444	20.812465
71.013541	-2.997400	3.866900	-11.590000	21.404845	0.000442	20.794769
72.024623	-2.989400	3.866100	-11.555000	21.399080	0.000444	20.814605
73.019553	-3.008000	3.865700	-11.628000	21.404644	0.000444	20.816852
74.017327	-3.004400	3.866300	-11.615000	21.403148	0.000442	20.813933
75.019542	-2.995800	3.865200	-11.579000	21.423427	0.000444	20.796765
76.019161	-3.005700	3.866100	-11.619000	21.418758	0.000445	20.806318
77.017712	-2.997800	3.866500	-11.590000	21.413845	0.000445	20.811360
78.024366	-3.009600	3.865700	-11.633000	21.437816	0.000444	20.809266
79.026105	-2.989300	3.866200	-11.557000	21.458367	0.000443	20.797585
80.025265	-3.015100	3.865500	-11.654000	21.480013	0.000445	20.768035
81.026365	-3.005900	3.864900	-11.617000	21.481162	0.000444	20.806169
82.036370	-3.006000	3.865800	-11.620000	21.474553	0.000443	20.801453
83.029049	-2.997900	3.863100	-11.580000	21.482654	0.000441	20.798653
84.026461	-2.974300	3.864000	-11.491000	21.493429	0.000444	20.806590
85.034369	-2.998700	3.864000	-11.585000	21.492432	0.000445	20.802747
86.019395	-3.010100	3.863200	-11.627000	21.495819	0.000445	20.815145
87.019980	-3.012300	3.864400	-11.639000	21.514926	0.000446	20.797754
88.019314	-2.989600	3.865200	-11.554000	21.532582	0.000446	20.796930
89.027553	-2.993300	3.863700	-11.564000	21.524473	0.000445	20.786445
90.025148	-3.029100	3.862800	-11.700000	21.570111	0.000444	20.799869
91.020252	-2.999800	3.864100	-11.590000	21.563650	0.000446	20.796249
92.024643	-2.989800	3.863200	-11.550000	21.583057	0.000445	20.782004
93.023283	-3.013300	3.862400	-11.637000	21.574528	0.000446	20.782478
94.036158	-3.006500	3.862100	-11.610000	21.597317	0.000446	20.783472
95.026385	-3.006900	3.862400	-11.613000	21.593399	0.000448	20.791879
96.032651	-2.989900	3.862000	-11.545000	21.576918	0.000447	20.787714
97.027023	-2.993400	3.863300	-11.564000	21.603073	0.000447	20.790180
98.022265	-2.995800	3.862300	-11.569000	21.624098	0.000448	20.779926
99.023041	-2.997500	3.861200	-11.573000	21.617910	0.000448	20.761879
100.034391	-2.991900	3.861900	-11.554000	21.632746	0.000447	20.774830
101.027327	-2.983700	3.863200	-11.526000	21.632697	0.000447	20.784263
102.033909	-2.980900	3.861700	-11.509000	21.649853	0.000449	20.785785
103.026328	-2.979100	3.861900	-11.504000	21.639050	0.000447	20.781612
104.025854	-3.024100	3.861300	-11.676000	21.679397	0.000450	20.768410
105.028668	-2.993300	3.860100	-11.553000	21.673139	0.000449	20.780165
106.031510	-2.996700	3.861300	-11.570000	21.666329	0.000450	20.783307
107.038578	-3.005400	3.860500	-11.601000	21.697945	0.000449	20.768954
108.027329	-2.994200	3.860400	-11.558000	21.716373	0.000451	20.761792
109.030312	-3.022200	3.861000	-11.668000	21.676472	0.000449	20.767379
110.040117	-2.994900	3.860500	-11.561000	21.686397	0.000449	20.772570
111.030392	-2.999500	3.861000	-11.580000	21.707466	0.000451	20.787018
112.030823	-2.992200	3.859100	-11.546000	21.702576	0.000449	20.769321
113.028223	-2.989700	3.860500	-11.540000	21.737108	0.000451	20.764052
114.026904	-3.006300	3.859600	-11.602000	21.748828	0.000448	20.785740
115.039399	-2.990400	3.859300	-11.540000	21.747255	0.000450	20.792225
116.033635	-3.000100	3.859400	-11.578000	21.769097	0.000451	20.760506
117.032085	-3.010600	3.858200	-11.614000	21.762637	0.000450	20.791500
118.029183	-2.994100	3.860700	-11.559000	21.790840	0.000453	20.769466
119.043782	-2.994500	3.857400	-11.549000	21.762415	0.000451	20.773733
120.028964	-3.000500	3.858700	-11.577000	21.780463	0.000451	20.769985
121.042895	-3.012700	3.858600	-11.624000	21.770119	0.000450	20.769115
122.038541	-3.005000	3.858000	-11.591000	21.786098	0.000451	20.756185
123.032205	-2.997700	3.857300	-11.563000	21.805242	0.000452	20.778190
124.039955	-3.003500	3.857200	-11.583000	21.819260	0.000451	20.761401
125.031511	-3.009600	3.858300	-11.611000	21.806791	0.000454	20.763619
126.034020	-3.010000	3.857000	-11.608000	21.808311	0.000452	20.779839
127.034617	-2.986100	3.858100	-11.519000	21.835507	0.000455	20.762015
128.042501	-3.006500	3.856400	-11.593000	21.832912	0.000454	20.787393
129.032021	-2.998000	3.857600	-11.564000	21.856722	0.000454	20.772344
130.043376	-2.987500	3.857000	-11.522000	21.889181	0.000453	20.787290
131.045071	-2.997700	3.855700	-11.557000	21.883624	0.000456	20.750433
132.033844	-2.994900	3.855500	-11.546000	21.891373	0.000454	20.762930
133.047593	-2.976500	3.856900	-11.479000	21.889750	0.000455	20.777428
134.035309	-2.995400	3.855300	-11.547000	21.925475	0.000454	20.761504
135.037136	-2.987500	3.856800	-11.521000	21.928712	0.000455	20.766167
136.034357	-2.991800	3.857300	-11.539000	21.913179	0.000456	20.783336
137.035959	-2.969400	3.856900	-11.452000	21.893457	0.000453	20.762646
138.035996	-3.001000	3.856600	-11.573000	21.945979	0.000454	20.750260
139.060708	-3.029800	3.854100	-11.677000	21.931872	0.000457	20.747518
140.036119	-3.002800	3.855400	-11.576000	21.944608	0.000455	20.748887
141.035730	-2.993000	3.855700	-11.539000	21.977485	0.000456	20.775160
142.036357	-3.011000	3.855300	-11.608000	21.981966	0.000457	20.749774
143.034855	-2.993200	3.855200	-11.539000	21.992243	0.000458	20.779502
144.039346	-3.003400	3.853800	-11.574000	21.973688	0.000458	20.787954
145.035013	-2.989900	3.853500	-11.521000	21.997993	0.000457	20.781465
146.035598	-3.008100	3.853300	-11.590000	22.002355	0.000458	20.753114
147.049480	-3.005100	3.853900	-11.581000	22.010650	0.000458	20.777065
148.049322	-3.010100	3.853400	-11.598000	21.994245	0.000458	20.759695
149.036953	-2.985000	3.854500	-11.504000	22.016556	0.000458	20.787246
150.037904	-2.985200	3.853300	-11.502000	22.026870	0.000458	20.774336
151.039158	-2.992600	3.852100	-11.527000	22.029563	0.000460	20.782723
152.037901	-2.996000	3.853500	-11.543000	22.042697	0.000461	20.752722
153.037947	-3.023700	3.852400	-11.647000	22.051771	0.000461	20.780772
154.042553	-2.966300	3.854100	-11.432000	22.058521	0.000458	20.771409
155.046701	-2.982900	3.854700	-11.495000	22.048600	0.000458	20.786607
156.047665	-2.988000	3.852300	-11.510000	22.041672	0.000462	20.778723
157.046610	-3.026900	3.852500	-11.661000	22.073620	0.000459	20.766610
158.038778	-2.969200	3.851900	-11.436000	22.093961	0.000460	20.761843
159.043271	-3.018000	3.852700	-11.626000	22.062978	0.000464	20.771603
160.045520	-2.989900	3.852300	-11.517000	22.065494	0.000460	20.781235
161.040307	-3.014400	3.852600	-11.613000	22.100538	0.000461	20.776015
162.050259	-3.015900	3.851000	-11.612000	22.101807	0.000461	20.782026
163.047257	-2.992400	3.851000	-11.523000	22.105448	0.000461	20.771446
164.044084	-2.997000	3.851000	-11.540000	22.135330	0.000463	20.785243
165.044403	-3.004200	3.850800	-11.567000	22.123214	0.000461	20.792079
166.043124	-2.986800	3.850600	-11.501000	22.159628	0.000463	20.779697
167.060408	-2.996300	3.850900	-11.538000	22.149905	0.000462	20.804576
168.044827	-2.990100	3.850800	-11.513000	22.172217	0.000463	20.770964
169.044424	-2.996300	3.851400	-11.539000	22.167028	0.000463	20.759131
170.046117	-2.978800	3.850400	-11.469000	22.167276	0.000463	20.762698
171.047494	-2.997100	3.849500	-11.537000	22.180664	0.000465	20.792223
172.044714	-3.047300	3.847800	-11.725000	22.171662	0.000463	20.784159
173.050666	-3.008000	3.848800	-11.576000	22.187611	0.000465	20.808662
174.050300	-3.006900	3.848700	-11.572000	22.178662	0.000463	20.805393
175.051371	-3.000400	3.848700	-11.546000	22.204932	0.000466	20.794236
176.054271	-2.999100	3.848500	-11.541000	22.220609	0.000465	20.777690
177.047061	-3.014700	3.848700	-11.602000	22.246803	0.000466	20.805339
178.049469	-2.989600	3.849800	-11.508000	22.254878	0.000464	20.772173
179.046571	-3.018000	3.848100	-11.612000	22.243287	0.000468	20.786171
180.047169	-3.005500	3.848400	-11.566000	22.244407	0.000468	20.782551
181.062750	-3.012600	3.849200	-11.595000	22.253054	0.000466	20.801641
182.046846	-2.993400	3.846800	-11.514000	22.255772	0.000469	20.772594
183.060572	-3.008800	3.846900	-11.573000	22.255298	0.000469	20.794879
184.056708	-2.991000	3.847400	-11.506000	22.266783	0.000468	20.794051
185.050508	-3.014200	3.847400	-11.596000	22.285153	0.000469	20.800116
186.057547	-3.003000	3.846500	-11.550000	22.306083	0.000469	20.787408
187.051033	-3.011100	3.846500	-11.582000	22.313935	0.000471	20.790055
188.049614	-3.013300	3.847200	-11.592000	22.336883	0.000469	20.795016
189.049978	-3.011400	3.845400	-11.579000	22.326041	0.000469	20.785108
190.061787	-2.982300	3.846000	-11.469000	22.313631	0.000471	20.786431
191.057318	-2.999200	3.845100	-11.531000	22.313005	0.000471	20.797185
192.057486	-2.967200	3.846400	-11.412000	22.334635	0.000472	20.776643
193.051242	-2.997900	3.845500	-11.528000	22.345999	0.000472	20.789920
194.058255	-3.022800	3.844600	-11.621000	22.374982	0.000471	20.788596
195.062243	-3.012700	3.844900	-11.583000	22.391427	0.000474	20.778037
196.056231	-3.005800	3.845000	-11.556000	22.377144	0.000474	20.786494
197.059068	-3.001600	3.844600	-11.539000	22.402190	0.000474	20.792134
198.058063	-3.007200	3.845300	-11.563000	22.397080	0.000473	20.776112
199.052282	-3.036300	3.843400	-11.669000	22.402635	0.000476	20.783571
200.053425	-2.991700	3.845000	-11.501000	22.417383	0.000473	20.790753
201.062018	-3.010800	3.843800	-11.572000	22.425156	0.000473	20.817030
202.063117	-2.999200	3.844600	-11.529000	22.419899	0.000477	20.792799
203.051849	-2.990000	3.844600	-11.494000	22.430357	0.000474	20.805642
204.057531	-3.023800	3.844000	-11.622000	22.438805	0.000475	20.800827
205.058012	-3.031900	3.843100	-11.651000	22.428834	0.000476	20.779461
206.060352	-2.993900	3.843500	-11.506000	22.429731	0.000476	20.790791
207.058751	-3.024000	3.843300	-11.620000	22.450931	0.000477	20.811073
208.058349	-2.984000	3.843000	-11.466000	22.448963	0.000476	20.819059
209.060414	-3.018300	3.843400	-11.600000	22.464007	0.000477	20.790029
210.056440	-2.992500	3.842600	-11.498000	22.463307	0.000474	20.802605
211.056002	-3.004600	3.842200	-11.544000	22.479006	0.000480	20.815007
212.061434	-2.998500	3.841700	-11.518000	22.474094	0.000478	20.822416
213.055770	-2.986800	3.841700	-11.474000	22.465070	0.000477	20.829500
214.070481	-3.003800	3.842000	-11.540000	22.513358	0.000477	20.816694
215.055515	-3.015200	3.842300	-11.585000	22.512259	0.000478	20.795205
216.063907	-3.015000	3.840200	-11.577000	22.526537	0.000478	20.823254
217.063341	-2.994700	3.841800	-11.504000	22.526504	0.000483	20.798091
218.054104	-3.012700	3.840700	-11.570000	22.542774	0.000479	20.810593
219.061588	-3.036800	3.840300	-11.662000	22.528592	0.000480	20.819148
220.058062	-2.986600	3.839200	-11.465000	22.543363	0.000480	20.819717
221.059071	-2.984400	3.841400	-11.464000	22.551881	0.000484	20.818765
222.059164	-2.973600	3.839100	-11.415000	22.543162	0.000480	20.827102
223.063231	-2.991000	3.839700	-11.483000	22.533364	0.000484	20.804013
224.061624	-3.017700	3.839100	-11.584000	22.574697	0.000482	20.834029
225.060937	-3.011800	3.838800	-11.561000	22.576739	0.000483	20.826591
226.057540	-3.014300	3.838300	-11.568000	22.605790	0.000480	20.814911
227.063287	-3.001300	3.839200	-11.521000	22.581469	0.000483	20.830855
228.068871	-2.995000	3.837600	-11.493000	22.599607	0.000482	20.835271
229.059781	-2.998600	3.839300	-11.511000	22.602217	0.000483	20.818445
230.060809	-3.009100	3.837900	-11.548000	22.615123	0.000484	20.801974
231.058668	-2.981000	3.838300	-11.441000	22.610982	0.000485	20.822482
232.080190	-3.002000	3.837500	-11.520000	22.636245	0.000483	20.822655
233.071273	-2.982400	3.839400	-11.450000	22.629441	0.000484	20.816789
234.071202	-2.984600	3.837200	-11.452000	22.629214	0.000483	20.823200
235.061766	-3.019500	3.837600	-11.586000	22.642519	0.000486	20.809025
236.063036	-2.986700	3.838500	-11.464000	22.664563	0.000486	20.845802
237.069166	-2.999200	3.836300	-11.505000	22.668947	0.000484	20.829806
238.068591	-2.992900	3.837700	-11.484000	22.688747	0.000486	20.828775
239.073286	-2.990200	3.837200	-11.473000	22.684910	0.000485	20.822088
240.064194	-3.000800	3.836500	-11.512000	22.727764	0.000487	20.846995
241.070276	-2.997500	3.836600	-11.500000	22.727636	0.000487	20.831695
242.066307	-3.022000	3.835800	-11.590000	22.746521	0.000486	20.835912
243.070577	-2.989600	3.837000	-11.470000	22.734609	0.000487	20.832989
244.069872	-3.013800	3.835600	-11.558000	22.731695	0.000486	20.844294
245.072034	-2.996600	3.835800	-11.494000	22.738944	0.000488	20.834486
246.069984	-2.968700	3.835600	-11.386000	22.760516	0.000488	20.827646
247.066443	-2.991800	3.833700	-11.468000	22.761512	0.000486	20.822006
248.076181	-2.986700	3.834200	-11.450000	22.770036	0.000490	20.828174
249.068493	-2.987900	3.834000	-11.454000	22.752720	0.000490	20.831691
250.071655	-3.009500	3.833200	-11.535000	22.765723	0.000488	20.859413
251.070152	-2.992400	3.833500	-11.471000	22.770958	0.000490	20.826727
252.068107	-3.000800	3.834300	-11.504000	22.798432	0.000489	20.836705
253.072639	-2.969800	3.835000	-11.388000	22.784755	0.000489	20.854297
254.068483	-3.015100	3.833300	-11.557000	22.775564	0.000489	20.850780
255.069613	-3.004300	3.832900	-11.515000	22.779976	0.000488	20.850458
256.053124	-3.007300	3.833000	-11.526000	22.775165	0.000489	20.840897
257.058981	-2.990000	3.833500	-11.462000	22.779177	0.000490	20.830693
258.068799	-3.014400	3.832700	-11.552000	22.795324	0.000490	20.828376
259.075281	-2.982700	3.831400	-11.427000	22.829576	0.000491	20.837558
260.081525	-2.992800	3.833100	-11.470000	22.837247	0.000489	20.842872
261.071377	-3.005400	3.831900	-11.515000	22.832761	0.000490	20.836482
262.067331	-3.003100	3.832300	-11.508000	22.840939	0.000491	20.839458
263.081121	-2.998500	3.830300	-11.484000	22.866645	0.000493	20.859046
264.067863	-2.968700	3.833300	-11.379000	22.878732	0.000493	20.834646
265.070816	-3.001400	3.829500	-11.493000	22.892507	0.000494	20.847971
266.072968	-2.980600	3.829600	-11.414000	22.873925	0.000494	20.833623
267.069625	-2.981000	3.830800	-11.417000	22.874995	0.000493	20.828058
268.079485	-2.988700	3.830900	-11.448000	22.896569	0.000494	20.845403
269.071777	-2.997700	3.829600	-11.479000	22.906709	0.000496	20.853191
270.074260	-2.998700	3.829900	-11.483000	22.884815	0.000495	20.846429
271.095837	-3.001000	3.829000	-11.489000	22.889696	0.000494	20.865543
272.080955	-2.993200	3.829700	-11.462000	22.901108	0.000496	20.849950
273.068836	-2.989100	3.828800	-11.444000	22.923977	0.000496	20.837300
274.072917	-2.966000	3.830400	-11.360000	22.910026	0.000495	20.840393
275.056913	-2.983700	3.828900	-11.423000	22.906939	0.000496	20.843464
276.072826	-3.009900	3.828600	-11.523000	22.881410	0.000496	20.852501
277.075688	-3.009600	3.827300	-11.517000	22.895831	0.000498	20.866000
278.087032	-2.973100	3.827700	-11.379000	22.903083	0.000498	20.858092
279.071370	-2.988200	3.828200	-11.439000	22.934993	0.000498	20.847389
280.076083	-3.008900	3.827900	-11.516000	22.954619	0.000499	20.850456
281.074461	-2.997500	3.828600	-11.474000	22.973825	0.000498	20.832715
282.055779	-3.007500	3.826300	-11.506000	22.997018	0.000498	20.865908
283.056492	-2.993400	3.828400	-11.458000	22.986183	0.000500	20.844148
284.059221	-3.010200	3.827500	-11.521000	22.984562	0.000502	20.854851
285.058572	-3.000100	3.827500	-11.482000	22.995841	0.000503	20.853825
286.062926	-3.000500	3.827200	-11.482000	23.010466	0.000499	20.850934
287.081374	-2.986900	3.826100	-11.428000	23.012631	0.000502	20.861637
288.059680	-3.003800	3.826400	-11.493000	23.015495	0.000500	20.864507
289.060297	-2.996000	3.826800	-11.463000	23.010763	0.000502	20.849335
290.060459	-2.993800	3.825200	-11.450000	23.002290	0.000502	20.857915
291.079739	-3.013000	3.825900	-11.527000	23.017907	0.000503	20.856966
292.083658	-3.009100	3.825800	-11.510000	23.046325	0.000502	20.864103
293.080597	-2.991100	3.826100	-11.443000	23.039325	0.000503	20.854245
294.080782	-3.006800	3.824200	-11.497000	23.048761	0.000502	20.837622
295.079140	-2.978600	3.824400	-11.390000	23.048786	0.000503	20.874629
296.078380	-3.001000	3.824200	-11.476000	23.066320	0.000504	20.869913
297.086131	-2.998500	3.823400	-11.464000	23.044474	0.000502	20.864619
298.063155	-2.996800	3.825200	-11.462000	23.047486	0.000503	20.851043
299.064741	-2.997200	3.823500	-11.458000	23.081084	0.000503	20.873801
300.062577	-3.016500	3.822500	-11.530000	23.090269	0.000504	20.869254
301.063025	-3.026000	3.820600	-11.560000	23.086458	0.000504	20.876815
302.064364	-2.993700	3.823300	-11.444000	23.094976	0.000505	20.865910
303.066633	-3.003600	3.822600	-11.480000	23.106530	0.000503	20.863263
304.063797	-2.997400	3.822300	-11.456000	23.120722	0.000507	20.874639
305.070220	-3.003300	3.823000	-11.481000	23.148640	0.000507	20.871320
306.079669	-3.021100	3.821800	-11.545000	23.117184	0.000505	20.886739
307.083823	-2.995100	3.822400	-11.448000	23.140642	0.000505	20.885115
308.085426	-3.010300	3.820600	-11.500000	23.157429	0.000507	20.856420
309.063985	-2.996900	3.821300	-11.452000	23.182376	0.000506	20.881417
310.064853	-3.010200	3.820500	-11.499000	23.186362	0.000508	20.896317
311.064001	-2.994700	3.821900	-11.445000	23.158269	0.000509	20.871960
312.067078	-3.027500	3.820200	-11.565000	23.152842	0.000507	20.897813
313.065827	-2.993800	3.819800	-11.434000	23.175673	0.000507	20.871383
314.067368	-2.998800	3.819800	-11.454000	23.175253	0.000510	20.888030
315.102026	-3.010100	3.819900	-11.497000	23.193579	0.000508	20.865145
316.066929	-2.999300	3.820400	-11.457000	23.212135	0.000510	20.880420
317.068595	-2.968900	3.820600	-11.343000	23.243605	0.000510	20.883034
318.069005	-2.978300	3.819500	-11.374000	23.244103	0.000508	20.885903
319.097868	-3.014100	3.819300	-11.511000	23.260840	0.000510	20.897459
320.085134	-2.995600	3.818500	-11.438000	23.238849	0.000509	20.893914
321.072165	-3.002600	3.819500	-11.467000	23.238380	0.000510	20.884909
322.091588	-2.981800	3.819500	-11.388000	23.249764	0.000512	20.898687
323.086386	-3.004100	3.818000	-11.468000	23.242766	0.000512	20.899260
324.089221	-2.997500	3.818300	-11.445000	23.223494	0.000513	20.884690
325.100398	-3.004000	3.817600	-11.467000	23.275637	0.000512	20.887160
326.095870	-2.987400	3.816700	-11.401000	23.269413	0.000512	20.876181
327.072823	-2.997000	3.816700	-11.437000	23.288239	0.000512	20.879875
328.104684	-3.004200	3.817700	-11.468000	23.282689	0.000515	20.903234
329.095089	-3.005100	3.817400	-11.470000	23.266278	0.000516	20.886789
330.097464	-3.001000	3.816100	-11.451000	23.284528	0.000514	20.897966
331.091682	-3.003100	3.817200	-11.462000	23.293150	0.000514	20.903287
332.079953	-3.010100	3.816900	-11.488000	23.270292	0.000513	20.881330
333.072066	-2.981400	3.816000	-11.377000	23.277714	0.000512	20.902042
334.080101	-2.990000	3.814900	-11.406000	23.314412	0.000514	20.889510
335.074361	-2.987600	3.815600	-11.398000	23.291184	0.000514	20.909851
336.074606	-2.999700	3.814800	-11.442000	23.318352	0.000515	20.889192
337.091425	-3.033900	3.813700	-11.569000	23.352218	0.000514	20.881882
338.096556	-2.997500	3.814900	-11.435000	23.357923	0.000514	20.895660
339.077281	-2.976300	3.815900	-11.356000	23.346919	0.000514	20.903122
340.074997	-3.008300	3.812800	-11.469000	23.378796	0.000515	20.902354
341.077030	-3.002900	3.813900	-11.452000	23.371301	0.000515	20.872559
342.077761	-2.992600	3.814200	-11.413000	23.387138	0.000517	20.887009
343.075800	-2.982800	3.812400	-11.371000	23.384674	0.000518	20.899237
344.103083	-3.006100	3.811900	-11.458000	23.371975	0.000515	20.898838
345.074782	-2.999800	3.812800	-11.437000	23.373797	0.000516	20.904456
346.075948	-3.013800	3.812200	-11.488000	23.390507	0.000516	20.897497
347.074190	-3.000600	3.812000	-11.437000	23.410849	0.000517	20.887541
348.075940	-2.987200	3.812700	-11.388000	23.412490	0.000517	20.897448
349.094230	-3.033600	3.811700	-11.563000	23.405197	0.000518	20.903685
350.078596	-3.014400	3.811300	-11.487000	23.414584	0.000518	20.913567
351.077455	-2.996400	3.811600	-11.420000	23.407837	0.000520	20.901591
352.075916	-3.006200	3.811600	-11.458000	23.416229	0.000517	20.913794
353.075611	-3.009500	3.811700	-11.470000	23.399375	0.000521	20.890265
354.077178	-3.008800	3.810300	-11.463000	23.399174	0.000518	20.893857
355.093991	-3.008800	3.810100	-11.463000	23.437541	0.000519	20.901018
356.106818	-3.001800	3.809900	-11.436000	23.421980	0.000518	20.896800
357.092376	-3.003800	3.810100	-11.444000	23.471526	0.000520	20.920856
358.090859	-2.993800	3.809400	-11.403000	23.466919	0.000519	20.912446
359.078284	-3.006400	3.809400	-11.452000	23.476278	0.000519	20.904283
360.081153	-2.996200	3.809200	-11.412000	23.470905	0.000520	20.914070
361.094754	-3.005700	3.807800	-11.444000	23.469338	0.000518	20.907758
362.082057	-2.999500	3.809000	-11.424000	23.486215	0.000520	20.905235
363.077907	-3.001700	3.808400	-11.430000	23.468441	0.000518	20.911126
364.080878	-3.012000	3.807900	-11.468000	23.470633	0.000520	20.915694
365.095153	-3.000100	3.807900	-11.423000	23.450543	0.000520	20.916420
366.094870	-3.000300	3.807900	-11.424000	23.445118	0.000522	20.921886
367.101378	-3.028300	3.806400	-11.526000	23.451218	0.000521	20.913777
368.079479	-2.987000	3.807700	-11.372000	23.490681	0.000521	20.922987
369.081619	-2.993500	3.806300	-11.393000	23.483261	0.000522	20.918394
370.079779	-2.975700	3.807000	-11.328000	23.485334	0.000521	20.910041
371.084517	-2.996200	3.807100	-11.406000	23.496365	0.000521	20.908771
372.079903	-3.002800	3.806100	-11.429000	23.506546	0.000522	20.912811
373.079861	-2.973500	3.807400	-11.320000	23.524019	0.000522	20.919420
374.080133	-2.983000	3.806300	-11.353000	23.502239	0.000522	20.930304
375.083233	-3.012400	3.806300	-11.466000	23.497089	0.000523	20.900489
376.086255	-3.029500	3.805400	-11.527000	23.501420	0.000525	20.931380
377.085099	-3.012500	3.804800	-11.461000	23.530271	0.000523	20.918575
378.080873	-3.020700	3.804000	-11.489000	23.570953	0.000524	20.906252
379.083553	-3.023000	3.804700	-11.500000	23.583021	0.000524	20.915504
380.083051	-2.999300	3.804000	-11.409000	23.600077	0.000524	20.924540
381.082643	-2.984500	3.803500	-11.351000	23.622854	0.000524	20.890953
382.097796	-3.010300	3.804300	-11.451000	23.624495	0.000524	20.883116
383.083633	-2.982000	3.803900	-11.342000	23.631614	0.000524	20.896890
384.082206	-2.984300	3.803200	-11.349000	23.607221	0.000524	20.906574
385.084115	-3.002700	3.803700	-11.420000	23.592855	0.000525	20.896440
386.083982	-2.989900	3.803100	-11.370000	23.586106	0.000526	20.918596
387.102798	-2.984600	3.804000	-11.353000	23.573487	0.000525	20.901680
388.099948	-3.002200	3.803700	-11.419000	23.584263	0.000524	20.912008
389.084377	-3.012300	3.802700	-11.453000	23.597609	0.000526	20.907844
390.085497	-3.034300	3.802500	-11.537000	23.615431	0.000527	20.906743
391.090295	-3.005000	3.801300	-11.422000	23.646251	0.000525	20.907295
392.090398	-3.009000	3.802300	-11.440000	23.648740	0.000526	20.891299
393.087477	-3.006000	3.801300	-11.426000	23.651824	0.000526	20.890125
394.086379	-2.987400	3.801400	-11.355000	23.664771	0.000526	20.898362
395.087489	-2.999300	3.801200	-11.400000	23.687275	0.000525	20.889155
396.093903	-2.990400	3.800800	-11.364000	23.685482	0.000526	20.906797
397.091220	-2.994000	3.800500	-11.378000	23.664573	0.000526	20.888681
398.093831	-2.999300	3.798900	-11.393000	23.682599	0.000525	20.893002
399.086695	-3.013600	3.799400	-11.449000	23.693102	0.000528	20.886937
400.086831	-2.998500	3.799800	-11.393000	23.688624	0.000527	20.908998
401.089126	-2.981800	3.800400	-11.331000	23.691264	0.000529	20.896947
402.117243	-3.009900	3.798800	-11.432000	23.702462	0.000530	20.882097
403.108828	-3.035600	3.797800	-11.528000	23.698436	0.000529	20.895129
404.106636	-3.012900	3.797100	-11.439000	23.706892	0.000528	20.896968
405.112555	-3.018700	3.797600	-11.464000	23.706998	0.000530	20.872420
406.107556	-2.979600	3.798400	-11.317000	23.686086	0.000529	20.876585
407.107951	-3.012400	3.798600	-11.442000	23.686234	0.000528	20.876733
408.092699	-2.991700	3.797900	-11.361000	23.688550	0.000530	20.885218
409.097616	-2.982500	3.797300	-11.324000	23.707196	0.000530	20.872618
410.092554	-2.974000	3.796800	-11.291000	23.707887	0.000530	20.880897
411.096691	-2.978500	3.797400	-11.308000	23.734717	0.000531	20.900683
412.097091	-2.997600	3.796900	-11.380000	23.745001	0.000530	20.870219
413.093656	-2.998500	3.796800	-11.383000	23.725657	0.000533	20.889704
414.097301	-3.012400	3.797100	-11.438000	23.722297	0.000530	20.872586
415.095132	-2.990900	3.795200	-11.350000	23.742181	0.000533	20.869762
416.091999	-3.008300	3.795300	-11.416000	23.749176	0.000530	20.879146
417.093789	-2.996400	3.796800	-11.374000	23.740339	0.000532	20.875975
418.097179	-3.002600	3.795200	-11.395000	23.714723	0.000534	20.870682
419.096397	-3.013000	3.795700	-11.436000	23.709940	0.000534	20.872051
420.093881	-3.019700	3.793900	-11.456000	23.704787	0.000533	20.855980
421.098287	-3.000500	3.793200	-11.380000	23.734158	0.000532	20.866935
422.100672	-2.995400	3.794800	-11.366000	23.730770	0.000531	20.866382
423.114900	-2.999800	3.794200	-11.381000	23.725017	0.000533	20.864882
424.113841	-3.006100	3.792600	-11.399000	23.790106	0.000533	20.867553
425.111578	-2.995500	3.794200	-11.364000	23.794161	0.000533	20.858343
426.118864	-2.980300	3.793800	-11.306000	23.792241	0.000533	20.838401
427.119583	-3.020500	3.791900	-11.452000	23.786887	0.000533	20.847731
428.113684	-3.008400	3.791400	-11.405000	23.770660	0.000534	20.876030
429.118327	-3.020200	3.791400	-11.450000	23.779769	0.000533	20.861931
430.098606	-2.998000	3.791700	-11.367000	23.792760	0.000533	20.874006
431.097959	-2.985700	3.792400	-11.322000	23.814064	0.000534	20.842739
432.125428	-3.022900	3.792200	-11.462000	23.849802	0.000533	20.870036
433.123822	-3.006000	3.791300	-11.395000	23.809957	0.000534	20.864223
434.114956	-3.000800	3.791200	-11.375000	23.802443	0.000535	20.855742
435.121458	-3.000700	3.790500	-11.372000	23.823473	0.000534	20.872559
436.122663	-3.004400	3.788600	-11.381000	23.836262	0.000534	20.874477
437.124728	-2.998200	3.790000	-11.362000	23.832408	0.000533	20.864924
438.118356	-2.985600	3.791100	-11.318000	23.835570	0.000533	20.843439
439.118480	-2.987600	3.789600	-11.320000	23.855353	0.000536	20.859482
440.114488	-3.005500	3.789100	-11.387000	23.857993	0.000535	20.859758
441.117605	-2.982600	3.788700	-11.299000	23.833757	0.000535	20.850155
442.104318	-2.990500	3.790000	-11.333000	23.850156	0.000535	20.859011
443.105543	-3.008600	3.788200	-11.397000	23.862655	0.000535	20.863010
444.104608	-2.999800	3.788900	-11.365000	23.863819	0.000533	20.858962
445.104087	-3.000600	3.789500	-11.370000	23.894563	0.000534	20.848539
446.106267	-2.997900	3.787300	-11.354000	23.893264	0.000535	20.847710
447.101419	-3.008500	3.787400	-11.392000	23.895653	0.000534	20.854847
448.100976	-3.010000	3.787600	-11.400000	23.923477	0.000534	20.851928
449.103061	-2.974800	3.787400	-11.266000	23.914497	0.000534	20.841027
450.105146	-2.994800	3.786600	-11.339000	23.908177	0.000536	20.859345
451.107601	-2.996200	3.786300	-11.343000	23.864727	0.000536	20.850864
452.102458	-3.009800	3.785400	-11.392000	23.901487	0.000535	20.834619
453.105192	-3.010800	3.785600	-11.396000	23.935779	0.000535	20.849565
454.119491	-3.013000	3.785900	-11.406000	23.956640	0.000535	20.842036
455.102418	-3.020800	3.784400	-11.430000	23.951115	0.000537	20.846926
456.106354	-2.996200	3.786000	-11.343000	23.958532	0.000536	20.842036
457.104222	-2.984800	3.785200	-11.297000	23.992131	0.000538	20.841591
458.106175	-3.000100	3.783600	-11.350000	24.046305	0.000537	20.844711
459.106995	-2.998200	3.783700	-11.343000	24.066639	0.000536	20.851353
460.125887	-2.985300	3.784000	-11.296000	24.040886	0.000535	20.845915
461.131384	-2.997700	3.784600	-11.344000	24.030485	0.000537	20.831691
462.128382	-3.000000	3.783700	-11.350000	23.997417	0.000536	20.833142
463.131229	-3.008700	3.783400	-11.381000	23.979845	0.000536	20.827374
464.106104	-2.986500	3.783600	-11.299000	23.954020	0.000538	20.826133
465.105510	-2.999500	3.782800	-11.345000	23.965491	0.000535	20.842377
466.108099	-2.997600	3.782300	-11.337000	23.987319	0.000536	20.838188
467.130154	-2.971400	3.783600	-11.242000	23.973657	0.000537	20.837289
468.130766	-3.025200	3.781800	-11.440000	23.999517	0.000538	20.834774
469.124699	-2.994800	3.781900	-11.325000	24.017431	0.000537	20.836617
470.126237	-3.009200	3.782000	-11.380000	24.016641	0.000539	20.819704
471.113662	-3.004600	3.781000	-11.360000	24.044285	0.000536	20.817082
472.109109	-2.978700	3.782000	-11.265000	24.054317	0.000537	20.832832
473.107722	-2.992500	3.780500	-11.312000	24.078478	0.000537	20.827666
474.107955	-2.979100	3.781900	-11.265000	24.047927	0.000537	20.846338
475.109190	-2.994900	3.780700	-11.322000	24.031005	0.000539	20.830316
476.106655	-3.004500	3.779700	-11.355000	23.984896	0.000538	20.823431
477.109656	-3.002800	3.779600	-11.348000	24.000400	0.000538	20.821435
478.107814	-2.988400	3.779800	-11.295000	24.041008	0.000539	20.817589
479.113665	-3.021400	3.777500	-11.413000	24.065646	0.000537	20.817642
480.112697	-2.995500	3.778300	-11.317000	24.083887	0.000537	20.812703
481.112475	-2.986100	3.778700	-11.282000	24.061568	0.000537	20.832992
482.110443	-2.992900	3.779000	-11.308000	24.010428	0.000538	20.811103
483.111521	-2.988200	3.779200	-11.292000	24.007295	0.000539	20.834513
484.110191	-2.992400	3.779000	-11.307000	24.019789	0.000539	20.831396
485.111449	-3.020100	3.776700	-11.406000	24.026380	0.000539	20.836583
486.112407	-3.006200	3.778000	-11.357000	24.028571	0.000542	20.816496
487.113434	-2.991600	3.777300	-11.299000	24.026807	0.000540	20.833218
488.116703	-2.977800	3.777000	-11.246000	24.046760	0.000539	20.807710
489.113905	-2.956100	3.778400	-11.168000	24.052112	0.000539	20.824457
490.113155	-2.994400	3.776300	-11.307000	24.084208	0.000540	20.827249
491.114070	-2.999600	3.775500	-11.323000	24.091698	0.000539	20.830019
492.115232	-2.993200	3.776700	-11.303000	24.082666	0.000539	20.822384
493.116855	-3.010000	3.774200	-11.359000	24.064898	0.000538	20.807883
494.116735	-3.008400	3.775600	-11.358000	24.054723	0.000539	20.839877
495.117100	-2.990000	3.776400	-11.290000	24.047903	0.000543	20.816917
496.131805	-2.998400	3.774800	-11.318000	24.074547	0.000542	20.811870
497.123219	-2.994800	3.773900	-11.301000	24.069746	0.000540	20.826495
498.119393	-2.997800	3.774200	-11.313000	24.108040	0.000543	20.823650
499.122211	-3.000500	3.775200	-11.327000	24.126108	0.000542	20.818537
500.122038	-3.008500	3.774400	-11.355000	24.162604	0.000539	20.785442
501.121842	-3.005300	3.772500	-11.337000	24.172010	0.000541	20.798668
502.123711	-2.985000	3.772600	-11.260000	24.141828	0.000543	20.818657
503.122842	-2.994000	3.773400	-11.296000	24.147049	0.000540	20.817255
504.124527	-3.003400	3.772700	-11.330000	24.141027	0.000542	20.822595
505.123193	-3.009300	3.773100	-11.353000	24.187623	0.000541	20.801526
506.122499	-2.980800	3.773600	-11.247000	24.198298	0.000543	20.799906
507.137183	-3.015000	3.772000	-11.371000	24.225293	0.000543	20.818921
508.148288	-2.982500	3.774000	-11.255000	24.249500	0.000542	20.799580
509.144709	-3.008600	3.771700	-11.347000	24.228799	0.000543	20.807266
510.147133	-2.987200	3.772400	-11.268000	24.205784	0.000541	20.810733
511.124334	-2.998900	3.770600	-11.306000	24.195052	0.000541	20.817986
512.144811	-3.011600	3.769800	-11.352000	24.210352	0.000542	20.806306
513.131473	-2.992600	3.770000	-11.281000	24.194530	0.000542	20.807980
514.126008	-2.992400	3.769200	-11.279000	24.164522	0.000541	20.806331
515.127966	-3.001400	3.770100	-11.315000	24.182210	0.000541	20.802261
516.125394	-2.998600	3.769500	-11.302000	24.162257	0.000542	20.800740
517.127566	-3.007400	3.768500	-11.332000	24.164867	0.000540	20.800513
518.128326	-3.002400	3.768600	-11.314000	24.167227	0.000540	20.807622
519.128040	-2.997500	3.769300	-11.297000	24.196487	0.000539	20.785287
520.129347	-3.001200	3.767400	-11.305000	24.179469	0.000540	20.803779
521.129301	-2.981800	3.768200	-11.235000	24.212979	0.000542	20.792346
522.128377	-3.036400	3.766800	-11.437000	24.214073	0.000542	20.804348
523.128775	-2.996700	3.767800	-11.290000	24.205465	0.000542	20.804249
524.130003	-3.001900	3.767500	-11.309000	24.218775	0.000542	20.816651
525.129608	-3.000000	3.766200	-11.298000	24.213723	0.000540	20.808265
526.130611	-3.004000	3.767500	-11.316000	24.266395	0.000540	20.792346
527.130808	-3.005800	3.766600	-11.321000	24.274082	0.000540	20.799108
528.129934	-2.998900	3.766900	-11.296000	24.294280	0.000538	20.820791
529.132638	-3.012700	3.766600	-11.347000	24.236438	0.000541	20.776048
530.132974	-2.979700	3.766600	-11.222000	24.238477	0.000541	20.786628
531.140192	-3.016900	3.766900	-11.363000	24.245296	0.000540	20.810063
532.150475	-2.994800	3.765400	-11.275000	24.227630	0.000540	20.794239
533.154908	-3.000500	3.765100	-11.296000	24.229146	0.000541	20.784381
534.163144	-3.003000	3.765100	-11.306000	24.202999	0.000540	20.795612
535.157460	-2.999400	3.765500	-11.292000	24.235888	0.000540	20.780711
536.154341	-3.006000	3.764400	-11.315000	24.240026	0.000538	20.813312
537.150084	-2.977100	3.764800	-11.207000	24.238502	0.000540	20.789497
538.160287	-3.004200	3.765100	-11.310000	24.236562	0.000541	20.786603
539.152097	-3.012200	3.763200	-11.335000	24.241190	0.000540	20.785081
540.154285	-3.014100	3.764100	-11.344000	24.239550	0.000539	20.805721
541.163365	-2.990500	3.762900	-11.253000	24.226113	0.000540	20.805045
542.152636	-3.005900	3.763800	-11.313000	24.232879	0.000538	20.793814
543.162023	-2.987600	3.764000	-11.244000	24.235645	0.000537	20.782838
544.170681	-2.994600	3.762100	-11.265000	24.299582	0.000537	20.807144
545.141030	-3.016600	3.761900	-11.347000	24.322147	0.000539	20.799908
546.141613	-3.002400	3.761900	-11.293000	24.291123	0.000537	20.778270
547.139957	-2.999600	3.761700	-11.283000	24.290178	0.000540	20.774002
548.170391	-3.015100	3.760600	-11.337000	24.292566	0.000540	20.804847
549.160810	-2.976200	3.763000	-11.199000	24.317396	0.000542	20.783762
550.166631	-3.009800	3.761300	-11.319000	24.302418	0.000543	20.782962
551.158942	-2.988100	3.760700	-11.236000	24.347149	0.000540	20.784211
552.171998	-3.002700	3.761100	-11.293000	24.338789	0.000540	20.772031
553.160160	-2.965900	3.760700	-11.153000	24.319135	0.000538	20.781239
554.156545	-2.988200	3.760400	-11.236000	24.319110	0.000543	20.794016
555.142784	-3.017300	3.759100	-11.341000	24.342073	0.000539	20.764894
556.140414	-2.989500	3.760700	-11.241000	24.343290	0.000541	20.786504
557.143896	-3.012500	3.758700	-11.323000	24.346775	0.000540	20.767714
558.139922	-3.004400	3.758700	-11.292000	24.372718	0.000540	20.790421
559.140429	-3.007000	3.758100	-11.299000	24.331473	0.000542	20.795987
560.141766	-3.002400	3.759200	-11.286000	24.298584	0.000538	20.749243
561.140999	-2.998400	3.759200	-11.271000	24.328235	0.000542	20.781359
562.143779	-3.007600	3.758100	-11.302000	24.279101	0.000541	20.779012
563.146032	-2.972900	3.757200	-11.169000	24.291140	0.000539	20.770226
564.142126	-3.014400	3.756300	-11.322000	24.298453	0.000539	20.768078
565.162910	-2.995600	3.757700	-11.255000	24.318926	0.000539	20.799521
566.161186	-3.009700	3.755900	-11.303000	24.330841	0.000538	20.769274
567.155019	-3.019700	3.755600	-11.340000	24.361289	0.000541	20.764730
568.156662	-2.996200	3.756200	-11.253000	24.325416	0.000538	20.771418
569.159022	-3.016100	3.756100	-11.328000	24.308128	0.000541	20.787742
570.141222	-2.998100	3.755300	-11.258000	24.309370	0.000539	20.779978
571.142581	-3.005900	3.755000	-11.286000	24.344397	0.000539	20.774812
572.139919	-2.994600	3.755200	-11.244000	24.340143	0.000541	20.783347
573.143390	-3.023500	3.754400	-11.350000	24.338996	0.000540	20.765601
574.141282	-3.010700	3.754400	-11.303000	24.336139	0.000537	20.764631
575.160406	-2.983000	3.754700	-11.199000	24.384301	0.000539	20.770746
576.167902	-2.983200	3.755400	-11.202000	24.403926	0.000540	20.787115
577.159960	-3.003600	3.754200	-11.276000	24.380865	0.000541	20.782473
578.162095	-3.009300	3.753200	-11.295000	24.388904	0.000540	20.763984
579.146505	-2.984000	3.754100	-11.201000	24.420024	0.000539	20.753952
580.146021	-2.991700	3.753800	-11.230000	24.416691	0.000541	20.765307
581.148467	-2.999300	3.752800	-11.255000	24.428104	0.000540	20.758265
582.148132	-2.975000	3.753800	-11.167000	24.438802	0.000539	20.747186
583.145830	-2.987800	3.753000	-11.212000	24.468556	0.000540	20.763761
584.146869	-2.979300	3.752400	-11.179000	24.471317	0.000539	20.765109
585.144998	-3.000500	3.750700	-11.253000	24.463036	0.000541	20.778138
586.143378	-2.981000	3.751200	-11.182000	24.460320	0.000537	20.773991
587.159353	-2.996200	3.751700	-11.240000	24.492831	0.000539	20.776263
588.166318	-3.004600	3.750600	-11.268000	24.472982	0.000538	20.758244
589.165876	-3.023900	3.749500	-11.337000	24.460969	0.000538	20.748563
590.147542	-2.988600	3.750900	-11.209000	24.472633	0.000539	20.777809
591.177853	-2.998600	3.749100	-11.242000	24.419071	0.000540	20.759635
592.146451	-2.986700	3.750500	-11.201000	24.415220	0.000540	20.769522
593.147178	-2.997600	3.749800	-11.239000	24.389648	0.000540	20.740548
594.147217	-2.976400	3.750700	-11.162000	24.391715	0.000539	20.772020
595.150552	-2.994300	3.748300	-11.223000	24.467204	0.000537	20.763354
596.147722	-2.984700	3.749400	-11.190000	24.490041	0.000539	20.760661
597.145720	-2.998600	3.748700	-11.240000	24.505436	0.000538	20.746234
598.162154	-3.000800	3.748700	-11.248000	24.536577	0.000538	20.770367
599.169703	-3.013200	3.747700	-11.291000	24.561373	0.000540	20.781496
600.163661	-2.986600	3.748500	-11.194000	24.592467	0.000539	20.770021
601.170938	-3.003300	3.747400	-11.254000	24.596075	0.000538	20.766054
602.168276	-2.981900	3.748300	-11.176000	24.592940	0.000539	20.771917
603.150001	-3.013800	3.746900	-11.292000	24.556478	0.000540	20.775162
604.148571	-2.998500	3.747800	-11.236000	24.528272	0.000539	20.772466
605.149110	-3.004400	3.746900	-11.256000	24.523373	0.000538	20.772292
606.155249	-2.975800	3.747300	-11.150000	24.478106	0.000538	20.780930
607.150569	-2.995600	3.745500	-11.220000	24.480741	0.000539	20.773616
608.151845	-3.006800	3.745700	-11.260000	24.480339	0.000537	20.764203
609.167449	-3.002200	3.744700	-11.241000	24.473352	0.000538	20.770944
610.150508	-2.985600	3.745400	-11.181000	24.476237	0.000537	20.775261
611.153305	-2.970800	3.746300	-11.128000	24.488151	0.000537	20.777257
612.150975	-2.996600	3.743500	-11.216000	24.486581	0.000537	20.764776
613.153840	-2.994300	3.745200	-11.212000	24.511156	0.000537	20.762405
614.152186	-2.983500	3.745100	-11.173000	24.495864	0.000538	20.768874
615.152707	-2.985300	3.744000	-11.176000	24.487156	0.000539	20.785268
616.189744	-3.021600	3.741800	-11.305000	24.521433	0.000539	20.788364
617.176729	-2.997400	3.744200	-11.223000	24.543965	0.000537	20.780151
618.175710	-2.983600	3.743900	-11.169000	24.564857	0.000537	20.771715
619.154912	-3.009100	3.742400	-11.260000	24.575755	0.000538	20.776011
620.154668	-2.971600	3.744100	-11.124000	24.554038	0.000534	20.784567
621.155978	-2.997100	3.742100	-11.214000	24.544438	0.000538	20.768297
622.157365	-3.017700	3.739900	-11.285000	24.550627	0.000535	20.779249
623.160618	-2.985800	3.741500	-11.170000	24.556478	0.000537	20.757618
624.158861	-2.995600	3.740300	-11.203000	24.566300	0.000536	20.776956
625.162429	-2.979900	3.742800	-11.152000	24.573113	0.000535	20.774309
626.177120	-3.006400	3.741300	-11.247000	24.605177	0.000536	20.786567
627.180686	-2.989100	3.741100	-11.181000	24.621116	0.000536	20.754196
628.193053	-2.999500	3.740900	-11.220000	24.607613	0.000534	20.770994
629.160738	-3.002900	3.739300	-11.227000	24.552899	0.000535	20.794804
630.161937	-3.023900	3.740500	-11.310000	24.530540	0.000534	20.772370
631.161167	-3.011300	3.740600	-11.263000	24.556831	0.000535	20.794957
632.164026	-2.991400	3.739500	-11.186000	24.582498	0.000535	20.780406
633.163159	-3.017700	3.738400	-11.280000	24.584363	0.000534	20.787020
634.161931	-3.019100	3.738400	-11.285000	24.582280	0.000534	20.781610
635.169253	-2.978700	3.739300	-11.138000	24.620828	0.000534	20.778089
636.162807	-2.992200	3.739100	-11.187000	24.628314	0.000535	20.767109
637.177175	-3.025400	3.738100	-11.308000	24.610657	0.000534	20.778790
638.180633	-3.005200	3.738400	-11.233000	24.642149	0.000535	20.785733
639.181890	-3.004200	3.738200	-11.229000	24.641800	0.000532	20.792020
640.162005	-3.012200	3.737000	-11.256000	24.658737	0.000533	20.777721
641.181623	-3.007800	3.737600	-11.241000	24.698724	0.000534	20.804097
642.161827	-2.997400	3.737000	-11.200000	24.686319	0.000534	20.771734
643.162271	-3.003600	3.737400	-11.225000	24.710044	0.000534	20.789377
644.181932	-2.988500	3.736500	-11.165000	24.718454	0.000534	20.750401
645.163887	-2.995800	3.736700	-11.194000	24.685202	0.000534	20.790528
646.163894	-2.992400	3.736500	-11.181000	24.691048	0.000533	20.765100
647.164137	-3.003500	3.735400	-11.219000	24.630614	0.000533	20.784590
648.164639	-2.967500	3.736300	-11.087000	24.616339	0.000533	20.758412
649.166690	-2.996800	3.735500	-11.193000	24.604480	0.000533	20.790135
650.196158	-2.994600	3.735500	-11.186000	24.586100	0.000532	20.791607
651.183828	-2.982600	3.735700	-11.141000	24.595728	0.000533	20.785620
652.185258	-3.016500	3.734600	-11.265000	24.594331	0.000533	20.776632
653.166371	-2.986900	3.735600	-11.157000	24.658145	0.000533	20.783291
654.188581	-3.017200	3.733300	-11.263000	24.638154	0.000533	20.811596
655.167820	-3.027600	3.733400	-11.302000	24.651209	0.000532	20.803358
656.201620	-3.011800	3.734300	-11.246000	24.647626	0.000532	20.786013
657.187721	-2.999900	3.734100	-11.200000	24.636408	0.000533	20.795145
658.189450	-2.976900	3.732300	-11.109000	24.638298	0.000531	20.783766
659.169303	-2.995500	3.733700	-11.184000	24.640213	0.000531	20.788058
660.185970	-3.023400	3.731300	-11.280000	24.617210	0.000530	20.780149
661.167223	-3.022400	3.731000	-11.275000	24.620666	0.000532	20.776505
662.166558	-2.989500	3.732900	-11.158000	24.603552	0.000530	20.808170
663.169273	-3.023700	3.731100	-11.280000	24.623551	0.000531	20.796943
664.167020	-2.988700	3.732300	-11.153000	24.609498	0.000534	20.821248
665.169423	-3.004500	3.731900	-11.212000	24.647079	0.000532	20.766498
666.167514	-2.999000	3.731400	-11.190000	24.653398	0.000531	20.810771
667.167376	-3.002000	3.731100	-11.199000	24.646085	0.000533	20.799165
668.167828	-3.006900	3.730600	-11.217000	24.669559	0.000532	20.795694
669.185194	-3.007300	3.729800	-11.216000	24.637702	0.000532	20.780797
670.193620	-2.997000	3.730400	-11.179000	24.626037	0.000530	20.799912
671.187343	-2.994600	3.729600	-11.167000	24.663593	0.000533	20.809147
672.168403	-2.991800	3.729700	-11.158000	24.645234	0.000534	20.799734
673.169345	-2.999600	3.729900	-11.187000	24.654714	0.000531	20.797866
674.168900	-3.001400	3.729100	-11.192000	24.637431	0.000531	20.810396
675.170866	-2.977800	3.730000	-11.106000	24.667123	0.000532	20.804628
676.171535	-2.991300	3.729400	-11.155000	24.676527	0.000530	20.811695
677.170261	-3.011200	3.727300	-11.223000	24.669662	0.000532	20.803383
678.169814	-2.997700	3.728300	-11.176000	24.715376	0.000531	20.810849
679.171750	-3.015200	3.726600	-11.235000	24.739568	0.000530	20.791030
680.172466	-3.004300	3.728500	-11.200000	24.722608	0.000531	20.801037
681.178416	-2.993900	3.728100	-11.161000	24.717287	0.000532	20.790008
682.171414	-3.004600	3.727300	-11.199000	24.694134	0.000530	20.790482
683.170576	-3.009800	3.727400	-11.218000	24.761504	0.000530	20.784594
684.197319	-3.005000	3.725700	-11.195000	24.770107	0.000530	20.800340
685.196286	-2.985700	3.726900	-11.127000	24.798205	0.000531	20.815736
686.200536	-2.979600	3.726700	-11.103000	24.788879	0.000532	20.803532
687.194237	-3.003300	3.725900	-11.188000	24.803024	0.000532	20.801606
688.173329	-2.967200	3.726100	-11.055000	24.783731	0.000530	20.785089
689.190643	-3.019600	3.724100	-11.244000	24.758361	0.000531	20.803726
690.174598	-2.986600	3.725300	-11.125000	24.754483	0.000530	20.792721
691.174258	-3.008500	3.724300	-11.203000	24.753784	0.000531	20.812409
692.176470	-2.993900	3.724100	-11.148000	24.741820	0.000528	20.798506
693.175574	-2.988600	3.724700	-11.131000	24.750103	0.000530	20.812034
694.192938	-3.015000	3.724100	-11.227000	24.740674	0.000530	20.794511
695.177892	-3.011500	3.724300	-11.215000	24.682532	0.000529	20.803969
696.191612	-3.004600	3.723800	-11.187000	24.679142	0.000529	20.799146
697.195270	-2.995700	3.724600	-11.157000	24.677355	0.000529	20.822956
698.191403	-2.990300	3.724300	-11.136000	24.739997	0.000527	20.841720
699.192997	-2.988700	3.722800	-11.125000	24.756209	0.000525	20.823851
700.195383	-3.018100	3.721700	-11.232000	24.737257	0.000527	20.795823
701.193846	-3.011500	3.722400	-11.210000	24.738448	0.000527	20.808399
702.193777	-3.008800	3.722900	-11.200000	24.716389	0.000526	20.827513
703.199262	-3.003500	3.722000	-11.178000	24.692640	0.000527	20.815061
704.178210	-3.000500	3.722600	-11.169000	24.717753	0.000528	20.821770
705.178606	-2.986200	3.722600	-11.115000	24.727351	0.000527	20.812910
706.180533	-2.981900	3.721800	-11.097000	24.732742	0.000528	20.822587
707.179029	-2.995300	3.722100	-11.148000	24.762435	0.000527	20.813978
708.183225	-2.987100	3.721600	-11.116000	24.760894	0.000527	20.816699
709.178822	-3.008900	3.722000	-11.198000	24.799510	0.000527	20.815149
710.182090	-2.999400	3.720100	-11.157000	24.788069	0.000528	20.815520
711.179367	-3.010600	3.720700	-11.200000	24.782970	0.000526	20.807085
712.181957	-3.007500	3.719700	-11.186000	24.762925	0.000527	20.806883
713.186041	-3.017800	3.718300	-11.220000	24.767777	0.000527	20.807959
714.181322	-3.009900	3.720300	-11.197000	24.779384	0.000526	20.837150
715.178667	-3.005500	3.720100	-11.180000	24.785127	0.000525	20.810198
716.182274	-3.015900	3.717700	-11.211000	24.824539	0.000523	20.832207
717.183579	-3.005500	3.718700	-11.175000	24.827719	0.000524	20.833502
718.179105	-3.018800	3.719500	-11.227000	24.852586	0.000524	20.832854
719.182537	-2.992300	3.719100	-11.127000	24.870712	0.000524	20.837295
720.180736	-3.011500	3.717200	-11.193000	24.848951	0.000527	20.823042
721.204448	-3.029200	3.717700	-11.260000	24.867676	0.000523	20.834722
722.208402	-2.998900	3.715900	-11.142000	24.858301	0.000524	20.820098
723.183122	-3.006700	3.716600	-11.174000	24.839527	0.000525	20.824964
724.186436	-3.009600	3.717100	-11.187000	24.823957	0.000524	20.834467
725.184415	-2.999000	3.717700	-11.149000	24.823340	0.000525	20.825314
726.185313	-3.002300	3.716600	-11.157000	24.823135	0.000524	20.836962
727.185665	-3.032800	3.716100	-11.269000	24.826019	0.000526	20.838434
728.184481	-3.013800	3.716100	-11.198000	24.839692	0.000525	20.845517
729.185171	-2.992100	3.717600	-11.123000	24.826340	0.000521	20.834488
730.187479	-3.022500	3.716500	-11.232000	24.853097	0.000523	20.845220
731.184048	-2.996000	3.715300	-11.130000	24.862718	0.000525	20.834962
732.184936	-2.994500	3.714900	-11.123000	24.866769	0.000522	20.830019
733.188091	-3.028700	3.713100	-11.246000	24.849067	0.000523	20.839753
734.200493	-3.005500	3.715100	-11.164000	24.822261	0.000520	20.850308
735.188529	-3.009500	3.715100	-11.179000	24.792044	0.000523	20.849855
736.185404	-3.014700	3.714100	-11.196000	24.789037	0.000522	20.832613
737.189010	-2.994500	3.713900	-11.121000	24.778667	0.000519	20.854448
738.191579	-3.007900	3.714100	-11.171000	24.756259	0.000519	20.839548
739.185913	-3.014300	3.713900	-11.194000	24.736965	0.000520	20.843893
740.203530	-2.995900	3.712800	-11.122000	24.747857	0.000520	20.855297
741.205865	-3.014400	3.712000	-11.189000	24.785355	0.000521	20.846462
742.204979	-3.002300	3.712700	-11.145000	24.787820	0.000520	20.857944
743.201744	-3.030900	3.711100	-11.247000	24.791226	0.000521	20.853301
744.211880	-3.006700	3.712500	-11.162000	24.764694	0.000520	20.846589
745.187266	-3.028100	3.711500	-11.237000	24.807861	0.000520	20.842970
746.191179	-2.985000	3.712100	-11.079000	24.848118	0.000519	20.846862
747.192259	-2.987100	3.712500	-11.089000	24.843073	0.000519	20.850333
748.192322	-2.980600	3.712000	-11.063000	24.829820	0.000518	20.851256
749.190114	-2.991100	3.712000	-11.102000	24.864337	0.000517	20.854130
750.188655	-2.999400	3.710700	-11.129000	24.844318	0.000519	20.860116
751.192183	-2.993600	3.711500	-11.109000	24.864735	0.000518	20.851211
752.189085	-2.979600	3.711900	-11.058000	24.908001	0.000518	20.851013
753.193357	-2.992400	3.710100	-11.101000	24.941493	0.000516	20.848592
754.188261	-2.986900	3.711100	-11.083000	24.960985	0.000518	20.843501
755.189667	-3.000700	3.710600	-11.133000	24.910018	0.000517	20.857778
756.191783	-3.013800	3.708800	-11.177000	24.880752	0.000516	20.872501
757.196876	-2.999200	3.710300	-11.126000	24.869545	0.000517	20.868365
758.191044	-3.013400	3.709000	-11.175000	24.875785	0.000517	20.850921
759.191866	-3.005700	3.709800	-11.150000	24.864024	0.000517	20.861401
760.193283	-3.006300	3.708700	-11.148000	24.875666	0.000515	20.834680
761.212463	-2.998800	3.709100	-11.121000	24.884169	0.000514	20.870714
762.225037	-3.019300	3.708800	-11.197000	24.902495	0.000517	20.860185
763.229621	-3.026200	3.707500	-11.219000	24.903666	0.000516	20.853299
764.218321	-2.993100	3.709400	-11.102000	24.924276	0.000517	20.878251
765.212944	-3.022200	3.706900	-11.203000	24.915727	0.000517	20.853076
766.214469	-3.007300	3.707800	-11.149000	24.915008	0.000515	20.863260
767.220952	-3.007000	3.707000	-11.146000	24.895092	0.000514	20.854177
768.215056	-2.992500	3.706400	-11.090000	24.913365	0.000513	20.869671
769.215575	-3.004800	3.706600	-11.137000	24.896488	0.000514	20.849415
770.193990	-3.004200	3.705600	-11.132000	24.916224	0.000513	20.854524
771.215352	-2.991300	3.706600	-11.087000	24.873763	0.000515	20.874020
772.208251	-2.991800	3.706400	-11.087000	24.863566	0.000513	20.853356
773.212455	-3.016500	3.706000	-11.178000	24.864338	0.000512	20.879734
774.210871	-3.003800	3.705600	-11.130000	24.903423	0.000514	20.854004
775.196048	-2.982200	3.706400	-11.053000	24.909942	0.000513	20.865288
776.194655	-2.986500	3.706500	-11.069000	24.917554	0.000511	20.857755
777.193982	-2.999700	3.704700	-11.111000	24.935156	0.000513	20.872576
778.197989	-2.996900	3.704800	-11.102000	24.917977	0.000511	20.852016
779.195586	-2.993900	3.705800	-11.094000	24.927823	0.000511	20.859528
780.193940	-3.001800	3.704500	-11.119000	24.955223	0.000513	20.863795
781.195111	-2.988200	3.703900	-11.067000	24.993663	0.000510	20.852593
782.194497	-3.006100	3.704000	-11.134000	25.013400	0.000512	20.874774
783.197418	-2.995200	3.702800	-11.091000	25.001919	0.000512	20.886482
784.196937	-3.018500	3.703000	-11.176000	24.941679	0.000510	20.860158
785.221003	-3.003500	3.703200	-11.122000	24.903857	0.000511	20.881939
786.215045	-2.998000	3.702200	-11.099000	24.904132	0.000513	20.872733
787.214811	-2.959400	3.704100	-10.961000	24.913260	0.000510	20.866247
788.221314	-2.983300	3.702300	-11.044000	24.940685	0.000512	20.875754
789.218241	-3.003200	3.703100	-11.120000	24.924130	0.000510	20.876682
790.214558	-2.977500	3.702800	-11.025000	24.941679	0.000511	20.878174
791.221611	-2.993700	3.701600	-11.080000	24.960229	0.000511	20.880199
792.216334	-2.995400	3.701600	-11.087000	24.988396	0.000511	20.869117
793.204354	-2.995400	3.700800	-11.085000	24.999089	0.000507	20.882219
794.218970	-3.005600	3.701900	-11.125000	24.952823	0.000510	20.873239
795.230459	-2.996500	3.700200	-11.086000	24.962920	0.000508	20.864882
796.219440	-3.009800	3.700200	-11.136000	24.971694	0.000509	20.881748
797.216690	-3.000000	3.700100	-11.100000	24.985221	0.000509	20.875412
798.221022	-3.005600	3.700600	-11.122000	25.019532	0.000510	20.879031
799.234588	-2.985100	3.700900	-11.047000	25.033427	0.000509	20.897246
800.219783	-2.993400	3.699200	-11.073000	25.066792	0.000510	20.869574
801.230861	-2.996800	3.699800	-11.087000	25.041655	0.000509	20.895073
802.224075	-3.007200	3.698700	-11.122000	25.003368	0.000509	20.907375
803.228889	-2.990400	3.698700	-11.059000	25.015954	0.000510	20.890612
804.224061	-2.978900	3.698900	-11.018000	25.012002	0.000507	20.899447
805.204581	-2.996600	3.698200	-11.081000	25.038250	0.000509	20.890707
806.205020	-2.993000	3.698600	-11.069000	25.005036	0.000510	20.902412
807.224313	-2.998500	3.697100	-11.086000	25.043893	0.000507	20.880252
808.223392	-2.985400	3.698000	-11.038000	25.058068	0.000509	20.897324
809.229912	-2.996900	3.698000	-11.082000	25.068361	0.000505	20.886320
810.220767	-3.002300	3.696600	-11.097000	25.058741	0.000505	20.895155
811.230478	-2.992600	3.697600	-11.064000	25.012520	0.000506	20.893329
812.207402	-3.008000	3.697000	-11.120000	24.975974	0.000508	20.889837
813.206760	-3.030600	3.695900	-11.200000	24.959687	0.000505	20.882973
814.207239	-3.008900	3.696500	-11.121000	25.024604	0.000505	20.907354
815.207646	-3.004800	3.697500	-11.109000	25.083423	0.000505	20.884845
816.208770	-2.973100	3.697300	-10.991000	25.084787	0.000507	20.910867
817.224362	-2.981600	3.695400	-11.017000	25.058085	0.000507	20.904927
818.233486	-3.001900	3.695500	-11.092000	25.059329	0.000504	20.904753
819.230877	-2.991800	3.696200	-11.058000	25.080705	0.000507	20.893021
820.236462	-2.975600	3.697100	-11.001000	25.088841	0.000507	20.903558
821.226067	-2.992500	3.694200	-11.054000	25.130821	0.000504	20.914879
822.226209	-2.987500	3.696200	-11.041000	25.109291	0.000506	20.903225
823.233146	-3.011400	3.693700	-11.122000	25.099718	0.000505	20.906416
824.211412	-2.990100	3.694700	-11.046000	25.087740	0.000505	20.906720
825.232967	-3.005000	3.693900	-11.099000	25.116746	0.000504	20.932042
826.228698	-2.997500	3.695000	-11.075000	25.113613	0.000504	20.923682
827.238153	-3.009200	3.692500	-11.110000	25.083806	0.000504	20.906564
828.231542	-3.014700	3.693100	-11.132000	25.052183	0.000505	20.906589
829.238895	-3.013800	3.691700	-11.125000	25.030899	0.000504	20.907035
830.228555	-3.020300	3.693200	-11.154000	25.003596	0.000503	20.906656
831.213533	-3.028600	3.691500	-11.180000	24.977520	0.000505	20.917939
832.228230	-3.007700	3.692200	-11.105000	24.980252	0.000502	20.892708
833.237523	-3.004400	3.693000	-11.094000	25.001583	0.000502	20.913169
834.214946	-2.997100	3.692700	-11.066000	25.017743	0.000503	20.907579
835.213038	-2.992900	3.692100	-11.048000	25.029277	0.000504	20.897347
836.216005	-3.002400	3.691500	-11.083000	25.070770	0.000501	20.894902
837.214755	-2.995100	3.689700	-11.050000	25.045415	0.000503	20.912596
838.215172	-2.982900	3.690500	-11.007000	25.072237	0.000502	20.892107
839.214480	-2.974600	3.690900	-10.978000	25.011672	0.000500	20.893426
840.231518	-3.021500	3.689300	-11.146000	25.033553	0.000499	20.902113
841.214267	-3.002300	3.689200	-11.075000	25.065148	0.000501	20.893999
842.218550	-3.011800	3.689600	-11.112000	25.066938	0.000501	20.888211
843.215226	-2.990900	3.691200	-11.039000	25.046155	0.000500	20.879203
844.216668	-3.015100	3.690200	-11.125000	25.019226	0.000501	20.892000
845.223294	-2.978100	3.689300	-10.986000	24.987951	0.000502	20.896168
846.217172	-2.999400	3.689000	-11.063000	24.959907	0.000500	20.875608
847.221451	-3.001500	3.689800	-11.073000	24.977978	0.000498	20.902752
848.217046	-2.985100	3.688900	-11.010000	24.987672	0.000498	20.880717
849.217186	-2.995200	3.688100	-11.046000	24.996824	0.000500	20.875678
850.219501	-2.995300	3.687600	-11.045000	25.015838	0.000498	20.878169
851.217358	-2.997000	3.689300	-11.057000	25.078538	0.000498	20.896536
852.217967	-3.008800	3.686900	-11.092000	25.067379	0.000497	20.891972
853.217104	-3.005600	3.687500	-11.082000	25.098549	0.000496	20.887701
854.218564	-3.017200	3.685200	-11.119000	25.101285	0.000498	20.890447
855.218212	-3.003600	3.685800	-11.070000	25.098077	0.000497	20.885804
856.220035	-2.983900	3.686400	-10.999000	25.140089	0.000498	20.873453
857.223918	-2.966900	3.686200	-10.936000	25.153163	0.000496	20.901747
858.222578	-2.998500	3.686300	-11.052000	25.081742	0.000495	20.877942
859.220971	-2.996200	3.685500	-11.042000	25.047289	0.000495	20.888402
860.222212	-3.010100	3.685700	-11.093000	25.045149	0.000497	20.887676
861.222136	-3.012900	3.685500	-11.103000	25.060544	0.000494	20.882267
862.222697	-3.007900	3.686200	-11.087000	25.060466	0.000494	20.866542
863.221442	-3.000900	3.685500	-11.059000	25.076776	0.000494	20.876276
864.222486	-2.990200	3.686100	-11.021000	25.042298	0.000493	20.873909
865.223259	-3.001300	3.685100	-11.059000	25.049733	0.000493	20.878527
866.221737	-3.013300	3.685400	-11.104000	25.064926	0.000492	20.875760
867.225716	-3.016100	3.682500	-11.104000	25.037924	0.000492	20.851502
868.239776	-2.987300	3.684400	-11.006000	25.062909	0.000490	20.864254
869.223922	-3.004000	3.682400	-11.061000	25.063586	0.000492	20.860192
870.226269	-2.989200	3.683400	-11.009000	25.111867	0.000493	20.880208
871.222870	-3.003100	3.683100	-11.059000	25.080122	0.000492	20.862092
872.223914	-3.004400	3.682800	-11.064000	25.087376	0.000491	20.863210
873.224711	-3.019600	3.682700	-11.119000	25.098544	0.000491	20.879635
874.226085	-3.012300	3.682500	-11.091000	25.092132	0.000492	20.869406
875.226473	-2.986200	3.682600	-10.996000	25.118529	0.000489	20.870301
876.225526	-2.993500	3.681400	-11.020000	25.095664	0.000491	20.857305
877.223984	-3.011300	3.680200	-11.081000	25.121942	0.000489	20.875623
878.228606	-2.997200	3.681900	-11.035000	25.140560	0.000491	20.872976
879.224489	-3.001900	3.680300	-11.048000	25.142252	0.000489	20.876571
880.230679	-2.992000	3.680700	-11.012000	25.146186	0.000489	20.858711
881.225854	-3.012900	3.679900	-11.086000	25.150732	0.000488	20.860904
882.228434	-2.995000	3.679000	-11.018000	25.173604	0.000490	20.878649
883.226975	-3.010500	3.678800	-11.074000	25.148745	0.000490	20.854167
884.227980	-3.013200	3.679800	-11.087000	25.098777	0.000488	20.863275
885.226350	-2.992900	3.679900	-11.013000	25.088241	0.000489	20.837527
886.225337	-3.029200	3.677800	-11.140000	25.100321	0.000489	20.838748
887.229282	-3.009200	3.679000	-11.070000	25.156302	0.000489	20.857486
888.226793	-2.986200	3.678600	-10.984000	25.178849	0.000490	20.844561
889.229922	-3.016700	3.679300	-11.097000	25.166717	0.000489	20.864149
890.227618	-2.993700	3.678600	-11.012000	25.199954	0.000486	20.841094
891.227757	-3.006000	3.676700	-11.050000	25.217901	0.000488	20.873334
892.226804	-3.004700	3.677500	-11.049000	25.217105	0.000488	20.841242
893.228849	-2.990600	3.677300	-10.996000	25.232320	0.000489	20.846086
894.231414	-3.002700	3.677000	-11.040000	25.239330	0.000486	20.852650
895.230449	-2.993200	3.677800	-11.008000	25.221679	0.000485	20.878550
896.229488	-3.006100	3.676900	-11.052000	25.176988	0.000486	20.859762
897.228697	-2.986600	3.678100	-10.984000	25.196899	0.000486	20.853198
898.231090	-2.996300	3.675600	-11.012000	25.174725	0.000484	20.856542
899.230158	-2.987300	3.676700	-10.983000	25.157846	0.000485	20.846235
900.228930	-2.997800	3.675400	-11.017000	25.136542	0.000485	20.838125
901.230485	-3.000100	3.675000	-11.025000	25.162819	0.000483	20.848383
902.229058	-2.991000	3.675500	-10.992000	25.183420	0.000484	20.850098
903.231037	-3.010800	3.674700	-11.063000	25.211712	0.000483	20.854320
904.230736	-3.020100	3.673300	-11.093000	25.238685	0.000482	20.862433
905.233530	-3.000600	3.675000	-11.027000	25.242981	0.000480	20.825496
906.231707	-3.005800	3.673000	-11.040000	25.195235	0.000483	20.852951
907.231477	-3.019200	3.672600	-11.087000	25.167764	0.000483	20.859510
908.236013	-2.998200	3.674200	-11.015000	25.188122	0.000482	20.831112
909.233073	-3.010700	3.673200	-11.057000	25.155935	0.000484	20.820610
910.234845	-3.009800	3.673400	-11.054000	25.171666	0.000483	20.849677
911.233938	-3.012900	3.673800	-11.068000	25.205671	0.000480	20.843988
912.232114	-3.012200	3.673600	-11.065000	25.200205	0.000481	20.819060
913.235591	-2.996700	3.672800	-11.005000	25.182754	0.000483	20.835206
914.232065	-3.042600	3.670600	-11.167000	25.172166	0.000480	20.822206
915.235481	-3.012000	3.672200	-11.060000	25.170499	0.000481	20.823851
916.235326	-3.018600	3.671600	-11.083000	25.154811	0.000479	20.846981
917.232350	-3.005300	3.671600	-11.032000	25.132213	0.000481	20.853219
918.236519	-3.010300	3.670400	-11.048000	25.177629	0.000481	20.833380
919.236992	-3.019800	3.670600	-11.083000	25.181429	0.000481	20.812064
920.233769	-3.003500	3.670400	-11.023000	25.212025	0.000479	20.831401
921.236578	-2.991500	3.670700	-10.980000	25.200764	0.000478	20.838588
922.233695	-2.982600	3.669400	-10.944000	25.155649	0.000481	20.833125
923.235020	-2.990900	3.671600	-10.980000	25.149181	0.000480	20.849864
924.239042	-3.009400	3.669200	-11.041000	25.145131	0.000480	20.836790
925.236737	-3.005200	3.669700	-11.027000	25.146421	0.000480	20.825757
926.239218	-2.997000	3.669400	-10.996000	25.186045	0.000476	20.831872
927.236279	-2.999000	3.669900	-11.005000	25.228896	0.000478	20.832692
928.241274	-3.013700	3.669400	-11.057000	25.201483	0.000474	20.841206
929.237119	-3.012200	3.667500	-11.047000	25.259841	0.000476	20.837207
930.235399	-2.994700	3.667400	-10.982000	25.270752	0.000479	20.852903
931.236249	-3.015900	3.667800	-11.060000	25.291186	0.000477	20.836910
932.239481	-2.967900	3.667700	-10.884000	25.302393	0.000474	20.831093
933.237550	-3.019400	3.666800	-11.071000	25.258925	0.000476	20.845296
934.237426	-3.031700	3.666100	-11.114000	25.260239	0.000474	20.825279
935.242239	-2.998300	3.667300	-10.995000	25.205159	0.000474	20.830672
936.239205	-2.996400	3.667200	-10.987000	25.167400	0.000471	20.841602
937.241588	-3.011100	3.666600	-11.040000	25.197179	0.000475	20.820765
938.240101	-3.026100	3.665000	-11.090000	25.174813	0.000473	20.821069
939.240654	-3.018200	3.665400	-11.062000	25.168898	0.000473	20.811339
940.245697	-2.988200	3.666300	-10.954000	25.165662	0.000472	20.819470
941.240361	-2.996600	3.667900	-10.990000	25.154976	0.000470	20.831026
942.240657	-3.001200	3.664700	-10.997000	25.143365	0.000473	20.840707
943.239278	-3.012800	3.664200	-11.038000	25.144585	0.000471	20.813957
944.240317	-2.985800	3.665000	-10.941000	25.136982	0.000472	20.838567
945.240481	-2.998200	3.664100	-10.985000	25.143771	0.000471	20.807450
946.239762	-2.989800	3.664300	-10.954000	25.133782	0.000469	20.831087
947.241018	-2.997500	3.664900	-10.984000	25.173809	0.000470	20.808682
948.241126	-2.994700	3.664900	-10.973000	25.218447	0.000470	20.824573
949.241001	-3.010200	3.664700	-11.031000	25.225141	0.000472	20.819913
950.240652	-2.989100	3.662300	-10.947000	25.195161	0.000469	20.808307
951.241788	-3.007800	3.662600	-11.016000	25.195908	0.000468	20.810954
952.243877	-3.010400	3.663200	-11.027000	25.191711	0.000469	20.804843
953.246371	-3.012600	3.662000	-11.031000	25.167652	0.000470	20.812933
954.244774	-3.001200	3.662500	-10.991000	25.188409	0.000466	20.821917
955.241962	-3.017100	3.662400	-11.049000	25.256442	0.000469	20.813881
956.244126	-3.007700	3.662300	-11.015000	25.270762	0.000467	20.819723
957.244429	-3.000200	3.660600	-10.982000	25.329017	0.000468	20.808039
958.243747	-3.006000	3.660600	-11.003000	25.308143	0.000465	20.799883
959.246518	-3.005400	3.661900	-11.005000	25.286547	0.000467	20.799536
960.244267	-2.993400	3.660300	-10.956000	25.292609	0.000466	20.815105
961.245450	-3.004100	3.660500	-10.996000	25.302554	0.000464	20.826513
962.245767	-2.987200	3.659500	-10.930000	25.261842	0.000465	20.822147
963.245166	-2.978700	3.659600	-10.900000	25.254141	0.000465	20.794028
964.250104	-2.992600	3.658800	-10.948000	25.248696	0.000465	20.805156
965.245983	-3.003700	3.659400	-10.991000	25.251234	0.000466	20.807704
966.247594	-2.973000	3.659100	-10.878000	25.208105	0.000465	20.808025
967.247455	-3.000100	3.658800	-10.976000	25.206843	0.000464	20.805337
968.245635	-2.979100	3.658600	-10.898000	25.202215	0.000462	20.802113
969.247983	-2.979200	3.658800	-10.900000	25.217304	0.000462	20.785019
970.246547	-2.976300	3.657900	-10.886000	25.261652	0.000463	20.805836
971.246854	-2.998200	3.656000	-10.961000	25.265011	0.000465	20.802096
972.246826	-2.988700	3.656400	-10.927000	25.271647	0.000464	20.813500
973.247375	-3.012100	3.654900	-11.008000	25.256662	0.000463	20.796084
974.250818	-2.989400	3.657500	-10.933000	25.202153	0.000463	20.814378
975.246120	-2.990600	3.656900	-10.935000	25.214978	0.000462	20.801176
976.247303	-2.988000	3.656200	-10.924000	25.261241	0.000460	20.804948
977.248914	-3.011400	3.656600	-11.011000	25.286468	0.000461	20.798508
978.249455	-2.983900	3.654900	-10.905000	25.297485	0.000460	20.799613
979.251061	-3.004700	3.655000	-10.982000	25.313262	0.000461	20.794591
980.249494	-3.003500	3.654500	-10.976000	25.272374	0.000461	20.801902
981.255964	-2.990900	3.655800	-10.933000	25.216029	0.000461	20.798438
982.248515	-2.986000	3.654800	-10.912000	25.214785	0.000460	20.795292
983.249715	-3.005100	3.652700	-10.975000	25.247475	0.000459	20.784489
984.253320	-3.023400	3.654900	-11.050000	25.280110	0.000461	20.807298
985.251934	-2.987100	3.654300	-10.914000	25.282595	0.000459	20.785611
986.252038	-2.999400	3.654400	-10.961000	25.287071	0.000459	20.800062
987.252598	-3.024600	3.652000	-11.045000	25.294849	0.000457	20.795543
988.253353	-3.014500	3.653300	-11.012000	25.303029	0.000459	20.799015
989.252545	-3.018300	3.651500	-11.021000	25.245113	0.000458	20.800136
990.255497	-2.990200	3.653500	-10.924000	25.232407	0.000456	20.775526
991.253441	-2.985400	3.652400	-10.903000	25.233105	0.000457	20.776701
992.254324	-2.997500	3.653000	-10.949000	25.247200	0.000459	20.784687
993.254950	-2.997300	3.652200	-10.946000	25.300315	0.000460	20.775901
994.253451	-2.977500	3.650900	-10.870000	25.308716	0.000458	20.780070
995.255075	-3.001000	3.650400	-10.954000	25.327003	0.000458	20.765239
996.252367	-3.017700	3.651100	-11.016000	25.323870	0.000457	20.797655
997.255073	-2.989800	3.651100	-10.915000	25.335306	0.000454	20.766938
998.254527	-2.971200	3.652900	-10.852000	25.321562	0.000455	20.792019
999.255437	-3.019900	3.650300	-11.023000	25.312437	0.000457	20.781909
1000.257590	-2.999600	3.650400	-10.949000	25.318083	0.000455	20.792320
1001.259995	-2.995600	3.649700	-10.932000	25.319447	0.000453	20.783257
1002.257326	-3.019300	3.648000	-11.013000	25.363759	0.000455	20.787447
1003.256003	-2.999500	3.649200	-10.945000	25.403002	0.000455	20.786548
1004.263630	-3.004000	3.648000	-10.957000	25.372234	0.000454	20.781258
1005.257437	-3.009900	3.648100	-10.980000	25.362966	0.000454	20.791392
1006.264816	-3.003900	3.648900	-10.960000	25.371910	0.000455	20.797053
1007.259815	-3.009600	3.647800	-10.977000	25.333758	0.000452	20.774393
1008.258729	-3.010700	3.647200	-10.980000	25.296176	0.000453	20.770798
1009.259082	-2.991900	3.647200	-10.911000	25.278579	0.000452	20.757871
1010.257472	-2.994600	3.647800	-10.923000	25.295108	0.000451	20.764510
1011.260517	-3.008000	3.646300	-10.966000	25.322244	0.000451	20.778005
1012.258121	-2.989500	3.645800	-10.899000	25.304673	0.000450	20.770320
1013.258220	-2.999000	3.646300	-10.935000	25.287717	0.000451	20.774159
1014.258153	-2.982300	3.646300	-10.873000	25.288838	0.000450	20.759637
1015.258463	-3.003600	3.646500	-10.952000	25.308422	0.000448	20.760808
1016.257930	-3.010900	3.644400	-10.972000	25.337525	0.000450	20.787658
1017.260761	-2.989800	3.645900	-10.900000	25.370675	0.000448	20.783486
1018.259485	-2.970400	3.645500	-10.827000	25.341919	0.000448	20.775000
1019.265114	-3.007100	3.644700	-10.959000	25.293796	0.000447	20.774098
1020.261467	-2.994000	3.644500	-10.910000	25.274014	0.000448	20.772728
1021.261921	-3.003100	3.643100	-10.940000	25.291681	0.000447	20.770078
1022.264776	-3.010700	3.644500	-10.972000	25.312854	0.000447	20.770000
1023.264956	-2.987600	3.642500	-10.881000	25.311167	0.000448	20.773995
1024.262510	-2.983300	3.642800	-10.866000	25.303931	0.000446	20.769575
1025.263143	-3.006100	3.642500	-10.948000	25.264656	0.000447	20.769497
1026.262967	-2.990400	3.643000	-10.893000	25.252698	0.000447	20.764129
1027.266213	-2.985100	3.642800	-10.873000	25.245064	0.000445	20.775431
1028.263779	-2.998500	3.641700	-10.919000	25.288241	0.000447	20.760933
1029.265713	-2.996700	3.642200	-10.914000	25.324526	0.000445	20.768916
1030.265114	-3.031100	3.640700	-11.035000	25.345099	0.000443	20.748795
1031.264173	-2.987500	3.642600	-10.881000	25.339161	0.000446	20.765119
1032.264890	-3.006600	3.640600	-10.944000	25.328222	0.000445	20.766463
1033.262726	-3.002600	3.642300	-10.934000	25.323380	0.000446	20.768240
1034.262692	-3.009700	3.640100	-10.955000	25.363635	0.000443	20.744648
1035.265044	-2.997100	3.639400	-10.907000	25.386753	0.000443	20.778293
1036.266618	-3.010900	3.639300	-10.956000	25.344796	0.000441	20.767457
1037.268184	-3.000800	3.638800	-10.919000	25.347404	0.000441	20.781930
1038.263090	-2.988900	3.640200	-10.879000	25.336891	0.000442	20.768055
1039.262866	-3.015200	3.639900	-10.973000	25.337705	0.000440	20.770295
1040.265826	-2.987300	3.639000	-10.870000	25.284391	0.000441	20.785992
1041.264185	-3.001200	3.638200	-10.918000	25.270769	0.000440	20.794127
1042.265213	-2.989200	3.639500	-10.878000	25.321423	0.000440	20.781922
1043.266658	-2.998700	3.636000	-10.902000	25.348657	0.000442	20.772283
1044.267232	-3.001800	3.637800	-10.919000	25.331111	0.000440	20.780270
1045.266337	-3.004500	3.637000	-10.926000	25.288806	0.000439	20.788054
1046.270261	-2.986300	3.637400	-10.861000	25.286515	0.000437	20.760623
1047.266324	-3.020400	3.636800	-10.983000	25.328245	0.000438	20.757951
1048.267137	-2.995500	3.637700	-10.896000	25.389807	0.000438	20.771876
1049.265209	-3.007600	3.636500	-10.936000	25.384637	0.000438	20.763840
1050.266205	-3.008700	3.634500	-10.934000	25.368906	0.000438	20.753733
1051.268947	-2.996900	3.634400	-10.891000	25.366020	0.000437	20.747042
1052.267010	-3.000300	3.635100	-10.906000	25.356776	0.000436	20.789918
1053.269572	-3.005500	3.634100	-10.921000	25.319072	0.000437	20.749215
1054.269650	-2.975200	3.635000	-10.812000	25.315713	0.000435	20.748687
1055.268945	-3.008700	3.634000	-10.932000	25.305049	0.000435	20.769274
1056.269177	-3.005400	3.633300	-10.920000	25.328865	0.000435	20.760471
1057.269367	-3.009000	3.633500	-10.932000	25.365621	0.000435	20.751384
1058.270521	-3.023700	3.633500	-10.985000	25.375513	0.000435	20.757049
1059.275666	-2.977100	3.633400	-10.816000	25.383340	0.000435	20.771072
1060.271318	-2.983200	3.632600	-10.836000	25.351804	0.000434	20.783977
1061.270099	-3.012400	3.632900	-10.942000	25.369522	0.000434	20.763836
1062.272257	-2.991000	3.632100	-10.862000	25.364406	0.000432	20.755853
1063.272357	-3.004200	3.631600	-10.909000	25.338155	0.000432	20.757470
1064.281826	-2.981800	3.632000	-10.828000	25.386477	0.000433	20.749565
1065.271812	-2.992200	3.633500	-10.872000	25.338627	0.000431	20.769798
1066.272588	-3.002100	3.632100	-10.902000	25.384584	0.000432	20.764735
1067.271887	-3.011600	3.630100	-10.932000	25.428076	0.000433	20.756723
1068.283682	-3.003000	3.630900	-10.903000	25.398229	0.000431	20.756150
1069.271812	-3.014800	3.629700	-10.942000	25.385500	0.000432	20.766603
1070.274108	-2.994000	3.630400	-10.868000	25.408539	0.000432	20.766504
1071.271724	-2.976600	3.629900	-10.804000	25.395215	0.000434	20.776358
1072.272607	-3.001800	3.629100	-10.894000	25.389693	0.000431	20.779822
1073.275018	-2.988100	3.628900	-10.843000	25.420809	0.000432	20.768393
1074.275068	-3.001300	3.629500	-10.893000	25.394690	0.000432	20.761132
1075.280253	-2.990900	3.628700	-10.852000	25.309489	0.000430	20.774207
1076.273031	-3.027700	3.627800	-10.982000	25.353082	0.000429	20.759656
1077.273628	-3.019800	3.627300	-10.953000	25.347863	0.000429	20.763425
1078.273868	-2.979200	3.627800	-10.806000	25.352783	0.000428	20.763623
1079.276650	-2.988200	3.625700	-10.833000	25.357579	0.000428	20.774603
1080.274874	-2.985400	3.626700	-10.826000	25.351813	0.000430	20.770236
1081.272820	-2.992600	3.625700	-10.849000	25.317111	0.000430	20.777593
1082.275489	-2.977300	3.626900	-10.797000	25.346591	0.000430	20.786804
1083.273577	-2.988200	3.627100	-10.838000	25.389506	0.000430	20.787221
1084.276476	-2.998100	3.625400	-10.868000	25.350312	0.000427	20.758297
1085.274080	-3.001700	3.625300	-10.881000	25.324413	0.000427	20.779234
1086.273481	-2.988600	3.625500	-10.834000	25.303162	0.000428	20.786347
1087.274723	-2.985900	3.625300	-10.823000	25.316156	0.000427	20.789910
1088.279203	-3.004300	3.625300	-10.890000	25.355478	0.000428	20.790037
1089.276640	-3.007600	3.624300	-10.899000	25.362184	0.000428	20.775908
1090.274920	-3.020900	3.624600	-10.949000	25.407019	0.000428	20.773512
1091.278332	-2.995300	3.625600	-10.859000	25.400828	0.000426	20.787210
1092.280540	-2.989600	3.624200	-10.833000	25.439449	0.000426	20.759135
1093.277707	-2.997600	3.624000	-10.863000	25.418644	0.000426	20.758632
1094.278736	-3.002300	3.623300	-10.877000	25.383824	0.000424	20.784835
1095.278689	-2.985400	3.623200	-10.816000	25.380462	0.000425	20.781459
1096.281916	-3.002100	3.622900	-10.875000	25.377481	0.000425	20.760447
1097.279728	-3.007700	3.622200	-10.894000	25.397085	0.000425	20.770649
1098.279825	-2.991400	3.622200	-10.833000	25.374792	0.000424	20.779085
1099.286650	-3.008800	3.622300	-10.898000	25.409041	0.000421	20.784552
1100.280916	-3.018400	3.619700	-10.924000	25.422781	0.000421	20.772743
1101.281289	-3.011100	3.621400	-10.904000	25.475316	0.000422	20.786618
1102.281231	-3.000700	3.621100	-10.865000	25.475608	0.000421	20.789756
1103.280193	-3.038300	3.619900	-10.998000	25.491563	0.000420	20.788709
1104.279459	-2.991000	3.621000	-10.830000	25.502571	0.000420	20.775581
1105.280044	-3.006900	3.619500	-10.883000	25.452641	0.000420	20.797987
1106.284066	-2.986900	3.619900	-10.812000	25.442006	0.000420	20.773557
1107.282910	-3.002200	3.618000	-10.860000	25.442672	0.000420	20.771855
1108.279760	-2.999500	3.617600	-10.851000	25.447439	0.000420	20.776642
1109.281742	-2.989500	3.618900	-10.818000	25.420553	0.000419	20.781886
1110.283761	-2.998900	3.618300	-10.850000	25.431586	0.000419	20.788224
1111.280782	-3.023600	3.617100	-10.935000	25.453898	0.000419	20.781706
1112.283823	-3.018500	3.617300	-10.918000	25.455857	0.000419	20.796001
1113.281175	-2.979300	3.617400	-10.776000	25.476556	0.000416	20.794027
1114.281739	-2.972700	3.617500	-10.752000	25.485551	0.000417	20.795474
1115.281203	-2.993600	3.616600	-10.826000	25.451826	0.000417	20.789108
1116.282715	-2.996400	3.616300	-10.834000	25.510149	0.000415	20.793623
1117.286246	-3.006400	3.614900	-10.868000	25.499040	0.000416	20.790053
1118.288678	-3.015000	3.613900	-10.895000	25.473617	0.000414	20.808619
1119.283864	-2.969500	3.615800	-10.735000	25.411306	0.000414	20.803421
1120.283511	-3.002500	3.615700	-10.854000	25.425595	0.000415	20.790742
1121.287688	-2.998800	3.615300	-10.841000	25.448059	0.000413	20.793860
1122.284401	-3.005300	3.614100	-10.860000	25.464930	0.000415	20.798474
1123.285891	-2.992600	3.614700	-10.816000	25.493134	0.000413	20.793605
1124.284618	-3.014700	3.614100	-10.895000	25.450244	0.000411	20.787519
1125.285054	-3.023500	3.612500	-10.921000	25.472654	0.000412	20.784419
1126.285766	-3.013000	3.611600	-10.881000	25.445589	0.000413	20.808449
1127.285038	-3.027500	3.612500	-10.936000	25.431197	0.000414	20.804903
1128.291357	-2.990600	3.612300	-10.802000	25.455800	0.000413	20.807798
1129.286129	-2.982800	3.613100	-10.777000	25.444147	0.000411	20.805579
1130.288141	-3.012400	3.611500	-10.878000	25.406964	0.000409	20.784836
1131.288602	-2.994500	3.612900	-10.818000	25.381986	0.000408	20.801481
1132.287514	-3.017300	3.611600	-10.897000	25.354841	0.000407	20.817372
1133.286042	-2.997000	3.611700	-10.823000	25.370452	0.000408	20.788952
1134.290946	-3.001600	3.610800	-10.837000	25.332822	0.000408	20.819446
1135.289151	-2.991000	3.610800	-10.799000	25.351162	0.000409	20.800876
1136.292540	-3.010600	3.610200	-10.868000	25.413543	0.000408	20.819892
1137.293478	-3.014200	3.609500	-10.878000	25.460342	0.000408	20.809039
1138.289940	-3.002900	3.609600	-10.838000	25.451022	0.000406	20.789249
1139.293116	-3.029500	3.608900	-10.933000	25.428748	0.000408	20.827573
1140.291064	-3.026300	3.607800	-10.916000	25.474204	0.000406	20.806364
1141.295422	-3.023300	3.609000	-10.910000	25.460832	0.000407	20.817592
1142.294155	-3.001800	3.608800	-10.832000	25.448806	0.000407	20.806938
1143.292807	-2.993300	3.608000	-10.799000	25.399792	0.000407	20.800869
1144.295778	-3.018800	3.608000	-10.891000	25.403144	0.000406	20.832683
1145.295518	-3.013800	3.607200	-10.871000	25.361589	0.000406	20.816562
1146.295319	-2.992200	3.608500	-10.796000	25.351602	0.000404	20.803689
1147.299235	-3.005900	3.606600	-10.840000	25.329999	0.000406	20.825620
1148.297022	-2.985400	3.607400	-10.769000	25.350182	0.000405	20.829289
1149.297197	-2.985500	3.606400	-10.766000	25.387705	0.000405	20.827612
1150.296607	-2.996500	3.606900	-10.807000	25.418575	0.000404	20.827315
1151.296158	-2.986500	3.606300	-10.769000	25.436395	0.000406	20.830510
1152.296746	-3.002100	3.605900	-10.824000	25.441187	0.000403	20.811141
1153.297255	-2.995700	3.605100	-10.799000	25.438379	0.000406	20.821597
1154.296640	-2.984200	3.604600	-10.756000	25.429555	0.000404	20.812737
1155.298808	-3.021800	3.604000	-10.889000	25.413874	0.000403	20.819276
1156.301398	-3.015600	3.604500	-10.869000	25.448615	0.000404	20.807220
1157.299666	-2.976000	3.604700	-10.726000	25.480198	0.000402	20.821392
1158.298096	-3.010700	3.604100	-10.850000	25.453058	0.000403	20.848665
1159.307393	-2.977900	3.603800	-10.732000	25.423406	0.000403	20.815097
1160.302934	-2.994100	3.602600	-10.786000	25.438121	0.000402	20.810907
1161.303341	-3.017400	3.602100	-10.868000	25.453129	0.000401	20.837831
1162.303147	-3.005900	3.601400	-10.825000	25.428350	0.000401	20.811527
1163.303187	-3.014800	3.602400	-10.860000	25.411626	0.000398	20.810854
1164.301058	-3.011200	3.600900	-10.842000	25.456684	0.000402	20.847565
1165.307317	-3.004700	3.601000	-10.819000	25.465751	0.000398	20.839126
1166.301587	-2.999200	3.601300	-10.800000	25.467562	0.000401	20.815341
1167.304983	-3.010900	3.601300	-10.842000	25.483419	0.000401	20.838850
1168.304014	-3.011800	3.600800	-10.844000	25.437466	0.000398	20.838224
1169.302935	-3.021200	3.600200	-10.876000	25.463830	0.000398	20.832456
1170.305965	-2.993800	3.599400	-10.775000	25.488461	0.000399	20.840594
1171.305188	-2.993400	3.599400	-10.773000	25.472752	0.000397	20.847105
1172.305526	-2.997700	3.599900	-10.790000	25.496139	0.000395	20.827442
1173.320499	-3.008700	3.599300	-10.829000	25.487982	0.000399	20.822096
1174.307423	-3.016900	3.598300	-10.855000	25.443823	0.000394	20.831331
1175.310158	-3.011300	3.598600	-10.835000	25.447124	0.000395	20.835120
1176.304861	-3.004200	3.598800	-10.811000	25.472721	0.000398	20.832849
1177.305820	-3.020000	3.598000	-10.865000	25.457685	0.000396	20.834346
1178.308545	-2.986700	3.597200	-10.742000	25.453657	0.000396	20.821293
1179.306258	-3.007500	3.597400	-10.817000	25.478084	0.000396	20.835864
1180.307490	-2.974200	3.596800	-10.697000	25.512453	0.000397	20.860419
1181.315763	-2.985600	3.596300	-10.736000	25.508626	0.000396	20.863689
1182.307301	-2.976700	3.597100	-10.707000	25.495054	0.000395	20.839628
1183.306440	-2.966500	3.596900	-10.669000	25.485931	0.000394	20.851804
1184.308631	-3.008200	3.595900	-10.816000	25.516026	0.000395	20.842671
1185.308619	-2.999400	3.594800	-10.781000	25.529493	0.000394	20.831540
1186.316303	-3.017500	3.595400	-10.848000	25.499796	0.000393	20.845813
1187.309849	-3.004700	3.595400	-10.802000	25.496512	0.000392	20.838723
1188.314169	-3.004400	3.594600	-10.799000	25.523524	0.000393	20.841666
1189.313888	-2.987100	3.595500	-10.739000	25.509331	0.000393	20.849224
1190.312386	-3.001200	3.593400	-10.783000	25.519095	0.000392	20.846227
1191.318919	-2.999600	3.593600	-10.779000	25.519148	0.000390	20.854341
1192.311809	-2.988500	3.595000	-10.743000	25.557561	0.000392	20.839338
1193.310783	-3.025300	3.592900	-10.869000	25.613546	0.000391	20.857157
1194.312561	-2.996600	3.593600	-10.768000	25.624274	0.000390	20.843751
1195.318027	-3.022600	3.592900	-10.859000	25.629319	0.000390	20.850240
1196.312429	-2.993200	3.592900	-10.753000	25.632448	0.000389	20.841529
1197.311444	-2.976100	3.592700	-10.690000	25.555542	0.000389	20.868604
1198.313840	-2.988600	3.590800	-10.730000	25.555443	0.000388	20.855229
1199.311759	-2.983900	3.592400	-10.719000	25.521473	0.000388	20.827280
1200.314391	-3.008100	3.590400	-10.799000	25.551884	0.000386	20.852129
1201.314969	-2.978400	3.590700	-10.693000	25.598400	0.000386	20.847636
1202.313769	-3.014700	3.589100	-10.819000	25.639825	0.000386	20.867903
1203.312665	-2.995700	3.590700	-10.756000	25.644243	0.000383	20.850056
1204.312288	-2.991200	3.588700	-10.734000	25.602275	0.000384	20.848683
1205.313460	-2.986100	3.589700	-10.718000	25.579864	0.000385	20.858417
1206.312674	-2.988500	3.588200	-10.722000	25.526558	0.000385	20.838549
1207.313289	-3.007600	3.588400	-10.792000	25.521163	0.000382	20.860158
1208.312181	-2.975300	3.589200	-10.678000	25.542731	0.000383	20.857635
1209.328605	-2.983600	3.587500	-10.703000	25.516167	0.000382	20.862253
1210.337468	-2.963600	3.589200	-10.637000	25.516660	0.000381	20.853740
1211.342414	-3.000500	3.587200	-10.763000	25.563329	0.000382	20.864570
1212.317010	-2.997000	3.587800	-10.752000	25.607958	0.000380	20.859606
1213.314536	-3.008200	3.586400	-10.788000	25.650666	0.000381	20.866463
1214.314586	-2.999200	3.586400	-10.755000	25.689655	0.000382	20.846829
1215.317340	-2.993500	3.586300	-10.734000	25.671318	0.000380	20.861127
1216.313867	-2.988400	3.587000	-10.718000	25.664036	0.000381	20.865667
1217.316875	-2.983500	3.585900	-10.697000	25.680929	0.000381	20.857979
1218.333267	-2.991300	3.586500	-10.727000	25.606711	0.000379	20.872103
1219.331162	-2.983100	3.585400	-10.695000	25.562980	0.000380	20.874177
1220.315661	-3.027200	3.583200	-10.847000	25.568522	0.000378	20.874527
1221.317849	-2.992500	3.586000	-10.730000	25.595183	0.000379	20.856733
1222.318568	-3.010400	3.585100	-10.791000	25.563899	0.000379	20.879367
1223.315890	-3.003400	3.585100	-10.767000	25.514596	0.000378	20.847873
1224.318167	-2.990900	3.583300	-10.717000	25.524807	0.000376	20.880885
1225.320514	-2.992100	3.582700	-10.719000	25.523045	0.000377	20.875323
1226.317615	-2.997300	3.583400	-10.740000	25.537280	0.000378	20.880135
1227.343599	-3.023000	3.583100	-10.829000	25.582852	0.000376	20.854780
1228.344156	-3.000300	3.584100	-10.753000	25.600796	0.000376	20.878016
1229.317733	-3.014800	3.581800	-10.798000	25.562325	0.000377	20.859295
1230.317323	-3.008300	3.582700	-10.777000	25.564065	0.000375	20.891861
1231.335225	-2.989700	3.581600	-10.707000	25.602853	0.000376	20.872496
1232.334023	-2.992500	3.581300	-10.716000	25.595497	0.000377	20.860841
1233.335605	-3.023100	3.580700	-10.824000	25.581756	0.000375	20.867429
1234.338385	-3.001800	3.580700	-10.748000	25.572063	0.000376	20.873342
1235.317863	-3.002200	3.580700	-10.749000	25.602677	0.000375	20.906456
1236.317101	-3.009900	3.580300	-10.775000	25.583021	0.000375	20.893354
1237.317476	-2.996000	3.580700	-10.728000	25.554390	0.000374	20.873611
1238.318607	-3.007000	3.578100	-10.758000	25.535980	0.000373	20.889260
1239.339983	-2.994300	3.578500	-10.715000	25.553795	0.000373	20.884392
1240.335033	-3.020400	3.578500	-10.808000	25.590649	0.000372	20.871619
1241.335772	-2.986600	3.577800	-10.685000	25.579762	0.000373	20.883918
1242.320909	-3.005800	3.578600	-10.756000	25.565623	0.000372	20.894373
1243.334649	-2.993300	3.577900	-10.709000	25.541819	0.000373	20.882796
1244.340831	-3.001200	3.578200	-10.738000	25.544426	0.000370	20.866449
1245.337996	-3.017500	3.576000	-10.790000	25.566940	0.000369	20.881473
1246.321259	-2.991600	3.577100	-10.701000	25.581971	0.000368	20.896567
1247.320930	-3.006200	3.576300	-10.750000	25.591142	0.000369	20.877804
1248.321502	-2.995400	3.577200	-10.714000	25.585674	0.000371	20.895070
1249.322150	-3.033500	3.574000	-10.840000	25.568107	0.000369	20.885014
1250.322250	-2.998100	3.575300	-10.717000	25.578346	0.000365	20.889133
1251.346354	-3.032600	3.573600	-10.836000	25.596360	0.000367	20.904853
1252.323185	-3.003400	3.574800	-10.736000	25.630500	0.000369	20.898364
1253.323762	-3.024400	3.572800	-10.804000	25.687546	0.000367	20.905398
1254.324237	-2.974600	3.574400	-10.632000	25.707873	0.000368	20.881246
1255.325609	-2.989100	3.574100	-10.682000	25.716296	0.000367	20.900137
1256.343996	-3.005600	3.572700	-10.738000	25.710184	0.000369	20.893998
1257.350664	-3.006600	3.573500	-10.743000	25.656318	0.000366	20.913387
1258.327909	-3.006100	3.573300	-10.740000	25.618920	0.000366	20.894320
1259.327928	-3.012100	3.571800	-10.758000	25.582542	0.000366	20.898562
1260.332099	-2.996700	3.572200	-10.704000	25.621953	0.000367	20.893099
1261.329672	-3.005000	3.571700	-10.733000	25.652016	0.000365	20.912860
1262.345525	-2.995800	3.571000	-10.696000	25.658403	0.000365	20.892724
1263.347934	-3.011900	3.570900	-10.754000	25.652513	0.000365	20.921418
1264.349508	-2.962200	3.573000	-10.583000	25.624588	0.000363	20.895272
1265.352283	-2.996700	3.569500	-10.696000	25.592382	0.000365	20.913659
1266.328546	-2.998100	3.569900	-10.703000	25.596808	0.000363	20.896768
1267.330518	-2.988400	3.569700	-10.667000	25.599366	0.000363	20.880846
1268.329816	-2.972800	3.571200	-10.616000	25.595863	0.000363	20.920948
1269.329280	-2.994300	3.570000	-10.689000	25.532869	0.000361	20.918376
1270.332541	-3.004000	3.569500	-10.722000	25.556924	0.000358	20.888008
1271.331684	-3.009800	3.568300	-10.739000	25.546611	0.000360	20.920322
1272.329230	-3.025200	3.567900	-10.793000	25.588630	0.000360	20.919847
1273.332637	-3.012500	3.568200	-10.748000	25.582496	0.000360	20.917480
1274.331772	-3.011400	3.567600	-10.743000	25.569872	0.000358	20.901485
1275.337736	-3.035400	3.567100	-10.827000	25.598301	0.000358	20.912018
1276.331073	-2.999900	3.568000	-10.703000	25.634728	0.000359	20.923470
1277.330008	-3.007600	3.567400	-10.728000	25.590924	0.000358	20.907453
1278.331333	-3.005200	3.566900	-10.718000	25.573948	0.000356	20.902734
1279.333345	-2.993000	3.566500	-10.674000	25.583570	0.000356	20.907181
1280.334316	-3.008000	3.566100	-10.726000	25.576637	0.000357	20.925820
1281.336426	-2.997900	3.565900	-10.689000	25.632695	0.000357	20.923325
1282.333560	-2.995500	3.566600	-10.683000	25.601437	0.000356	20.928441
1283.332767	-3.004100	3.565000	-10.708000	25.595698	0.000355	20.917937
1284.339343	-2.990000	3.565800	-10.661000	25.581710	0.000354	20.931862
1285.353549	-2.987000	3.564800	-10.647000	25.571401	0.000353	20.892115
1286.354849	-2.986400	3.565100	-10.646000	25.558628	0.000354	20.913900
1287.363192	-2.975800	3.563300	-10.603000	25.548988	0.000356	20.935036
1288.352602	-2.979000	3.562900	-10.613000	25.598090	0.000353	20.897108
1289.355099	-2.992000	3.564000	-10.663000	25.618243	0.000355	20.914975
1290.349226	-2.996200	3.564400	-10.679000	25.617475	0.000354	20.910885
1291.357001	-2.982500	3.562800	-10.626000	25.678153	0.000352	20.904025
1292.361443	-2.993000	3.563000	-10.664000	25.726255	0.000353	20.925310
1293.361615	-2.992100	3.562400	-10.658000	25.730109	0.000352	20.923017
1294.351032	-2.983400	3.561800	-10.625000	25.712100	0.000351	20.921998
1295.336471	-2.995800	3.561800	-10.669000	25.735280	0.000350	20.898816
1296.353737	-2.983100	3.560400	-10.620000	25.670286	0.000350	20.904658
1297.356052	-3.011900	3.560800	-10.724000	25.645068	0.000349	20.890710
1298.364571	-3.008800	3.561200	-10.714000	25.643105	0.000352	20.907704
1299.351545	-3.018200	3.560100	-10.744000	25.634065	0.000351	20.895780
1300.352735	-2.978300	3.560100	-10.602000	25.636450	0.000348	20.901495
1301.343442	-3.004800	3.559600	-10.694000	25.599654	0.000349	20.890618
1302.341728	-3.005000	3.559800	-10.697000	25.624179	0.000349	20.895335
1303.337990	-3.005300	3.558300	-10.693000	25.598713	0.000348	20.878295
1304.338159	-2.988700	3.558800	-10.636000	25.580406	0.000348	20.885513
1305.339030	-2.995600	3.558400	-10.658000	25.583637	0.000348	20.896343
1306.340827	-2.991800	3.558300	-10.645000	25.614599	0.000345	20.886188
1307.342885	-3.018700	3.557300	-10.738000	25.590468	0.000345	20.885187
1308.357330	-3.000500	3.557000	-10.671000	25.597406	0.000347	20.876982
1309.339259	-3.006400	3.557200	-10.694000	25.645191	0.000345	20.889412
1310.339498	-2.991600	3.557200	-10.641000	25.643630	0.000344	20.881681
1311.342463	-2.981300	3.557300	-10.605000	25.601863	0.000346	20.892362
1312.340895	-3.000500	3.556300	-10.670000	25.581540	0.000347	20.901349
1313.344011	-3.037500	3.554900	-10.797000	25.545264	0.000345	20.878670
1314.340055	-2.984100	3.556900	-10.613000	25.566186	0.000346	20.875973
1315.356771	-2.981400	3.556200	-10.601000	25.627638	0.000344	20.868939
1316.366612	-3.019900	3.554700	-10.734000	25.673784	0.000346	20.880198
1317.361559	-3.012000	3.554300	-10.705000	25.686086	0.000343	20.863158
1318.367835	-3.020600	3.552900	-10.731000	25.694686	0.000342	20.859468
1319.367702	-3.003800	3.554900	-10.677000	25.722316	0.000341	20.866357
1320.367698	-3.005200	3.553800	-10.679000	25.716355	0.000343	20.864637
1321.362818	-3.002100	3.553600	-10.667000	25.740430	0.000343	20.873171
1322.367846	-3.019100	3.552500	-10.724000	25.717676	0.000341	20.861697
1323.360906	-3.002700	3.552800	-10.667000	25.691265	0.000341	20.873101
1324.369848	-3.007600	3.553000	-10.685000	25.665632	0.000341	20.855416
1325.361972	-2.990300	3.552700	-10.623000	25.688788	0.000342	20.863501
1326.344389	-3.017700	3.550600	-10.714000	25.737337	0.000343	20.868642
1327.343562	-3.007200	3.550800	-10.677000	25.675147	0.000341	20.870189
1328.345996	-2.987100	3.551600	-10.608000	25.693217	0.000342	20.873164
1329.368419	-2.999800	3.550800	-10.650000	25.664371	0.000343	20.841822
1330.345319	-2.961900	3.552300	-10.521000	25.593781	0.000340	20.857695
1331.344276	-2.998300	3.549600	-10.641000	25.646657	0.000339	20.866704
1332.364412	-2.989400	3.549600	-10.610000	25.646139	0.000340	20.851486
1333.344073	-2.971300	3.549800	-10.547000	25.634086	0.000340	20.854553
1334.367301	-3.008200	3.549100	-10.675000	25.578105	0.000341	20.868030
1335.365651	-2.974300	3.548100	-10.552000	25.612246	0.000338	20.873869
1336.358755	-2.988300	3.548500	-10.603000	25.621191	0.000339	20.843974
1337.345703	-2.988300	3.548400	-10.602000	25.572887	0.000339	20.853782
1338.369762	-2.989000	3.548200	-10.605000	25.518915	0.000338	20.857900
1339.360804	-2.999800	3.547400	-10.640000	25.565411	0.000336	20.852912
1340.365385	-3.028100	3.545500	-10.735000	25.611432	0.000337	20.850293
1341.374918	-2.992700	3.548100	-10.617000	25.621642	0.000337	20.836840
1342.366095	-3.013700	3.546100	-10.686000	25.661401	0.000337	20.846426
1343.362345	-3.012500	3.545300	-10.678000	25.703391	0.000336	20.845453
1344.366084	-2.989400	3.545500	-10.598000	25.701503	0.000335	20.839763
1345.349223	-2.977100	3.545300	-10.554000	25.677755	0.000335	20.854790
1346.346711	-3.005700	3.546000	-10.657000	25.699076	0.000336	20.845386
1347.347375	-2.990700	3.545000	-10.601000	25.724014	0.000332	20.835347
1348.374454	-2.973600	3.545900	-10.543000	25.744588	0.000333	20.837046
1349.365654	-3.024400	3.544300	-10.718000	25.738476	0.000331	20.837071
1350.370748	-2.987200	3.545000	-10.589000	25.701954	0.000333	20.822199
1351.371899	-3.009000	3.543700	-10.663000	25.706876	0.000334	20.842314
1352.370845	-2.988000	3.544200	-10.589000	25.636961	0.000332	20.848906
1353.347473	-3.006000	3.543400	-10.650000	25.622097	0.000331	20.831133
1354.378613	-2.976600	3.542800	-10.544000	25.631296	0.000332	20.840846
1355.349319	-2.990900	3.543600	-10.598000	25.634206	0.000330	20.819114
1356.352292	-2.994100	3.543300	-10.608000	25.624169	0.000330	20.817567
1357.349618	-2.996900	3.541300	-10.612000	25.644371	0.000328	20.840227
1358.349836	-3.001900	3.541100	-10.629000	25.634231	0.000330	20.827673
1359.348547	-3.015000	3.541500	-10.677000	25.630630	0.000329	20.833065
1360.349759	-3.021200	3.540600	-10.696000	25.605387	0.000329	20.824308
1361.350274	-3.014100	3.540800	-10.670000	25.612197	0.000328	20.837312
1362.350842	-2.983000	3.540600	-10.559000	25.587721	0.000329	20.828851
1363.348015	-3.008400	3.541400	-10.653000	25.637243	0.000328	20.833069
1364.365885	-2.997600	3.540100	-10.611000	25.604520	0.000327	20.821541
1365.377554	-3.012700	3.538100	-10.658000	25.584170	0.000331	20.830026
1366.354028	-3.008300	3.538900	-10.645000	25.592520	0.000330	20.819921
1367.352766	-2.981900	3.539900	-10.554000	25.631832	0.000326	20.820048
1368.349476	-3.002300	3.538600	-10.623000	25.617866	0.000327	20.820246
1369.352574	-2.977700	3.539700	-10.539000	25.670667	0.000328	20.823017
1370.370506	-3.009500	3.536800	-10.644000	25.696906	0.000324	20.835620
1371.371350	-3.022100	3.537300	-10.689000	25.676882	0.000326	20.819776
1372.369224	-2.997100	3.537800	-10.602000	25.633770	0.000326	20.816778
1373.373223	-2.983700	3.536300	-10.551000	25.671266	0.000324	20.831205
1374.366709	-3.031800	3.536500	-10.721000	25.666270	0.000323	20.822394
1375.371189	-2.987000	3.535000	-10.558000	25.641852	0.000325	20.825370
1376.382218	-3.014800	3.534900	-10.656000	25.647464	0.000324	20.834800
1377.376978	-2.997700	3.535000	-10.596000	25.699369	0.000322	20.812016
1378.371617	-2.978000	3.535400	-10.528000	25.686778	0.000322	20.807904
1379.369614	-2.993900	3.534800	-10.581000	25.708965	0.000322	20.844887
1380.382995	-2.987500	3.534200	-10.558000	25.713640	0.000324	20.813074
1381.369076	-2.991500	3.534600	-10.573000	25.714264	0.000322	20.788096
1382.377738	-2.997100	3.533900	-10.590000	25.748749	0.000322	20.829846
1383.372139	-2.985200	3.533000	-10.546000	25.780802	0.000322	20.809886
1384.370943	-3.018000	3.531600	-10.657000	25.743018	0.000323	20.810339
1385.373017	-2.998500	3.532800	-10.592000	25.672380	0.000320	20.803875
1386.369100	-2.989600	3.533600	-10.563000	25.653648	0.000321	20.799285
1387.380403	-2.997600	3.533000	-10.590000	25.658845	0.000321	20.821100
1388.388778	-3.005800	3.532300	-10.616000	25.689111	0.000322	20.805980
1389.358207	-3.015000	3.531300	-10.646000	25.707304	0.000320	20.813347
1390.361138	-2.994300	3.532000	-10.574000	25.648892	0.000317	20.809682
1391.357147	-3.000700	3.530900	-10.594000	25.662481	0.000318	20.813372
1392.379874	-2.984200	3.530700	-10.535000	25.641272	0.000316	20.799184
1393.379390	-3.000400	3.530300	-10.592000	25.691736	0.000319	20.801505
1394.376914	-3.009400	3.529600	-10.622000	25.694967	0.000318	20.797637
1395.359324	-2.995200	3.528500	-10.568000	25.727917	0.000317	20.808922
1396.360279	-2.984300	3.529100	-10.531000	25.720244	0.000316	20.804060
1397.373803	-2.985800	3.528900	-10.534000	25.682429	0.000317	20.799743
1398.359932	-2.996000	3.530000	-10.575000	25.652120	0.000315	20.796803
1399.381521	-3.014000	3.527900	-10.633000	25.673615	0.000316	20.803218
1400.375655	-2.987700	3.528800	-10.542000	25.680798	0.000316	20.800002
1401.359681	-3.007800	3.526900	-10.607000	25.674890	0.000315	20.787904
1402.389413	-3.005300	3.526100	-10.596000	25.656705	0.000315	20.811364
1403.376486	-3.006600	3.528000	-10.606000	25.647094	0.000314	20.796022
1404.380126	-3.006600	3.526100	-10.601000	25.654052	0.000313	20.800165
1405.376094	-3.000700	3.526700	-10.582000	25.647918	0.000314	20.785944
1406.363532	-2.978800	3.527100	-10.505000	25.643025	0.000312	20.793358
1407.360148	-2.984600	3.526000	-10.523000	25.642331	0.000313	20.798825
1408.364950	-3.002000	3.525100	-10.582000	25.622683	0.000313	20.795212
1409.360573	-2.988600	3.524900	-10.534000	25.657967	0.000314	20.796037
1410.376925	-3.014700	3.524600	-10.624000	25.658316	0.000315	20.788801
1411.382341	-3.013800	3.524000	-10.620000	25.657675	0.000314	20.788631
1412.360040	-3.016000	3.523600	-10.626000	25.659690	0.000312	20.802035
1413.362738	-2.992200	3.522500	-10.539000	25.684091	0.000312	20.763479
1414.361263	-2.980000	3.522500	-10.496000	25.659521	0.000314	20.795701
1415.361166	-2.998600	3.522100	-10.560000	25.671348	0.000311	20.778657
1416.363158	-3.000700	3.522600	-10.570000	25.670757	0.000313	20.800348
1417.361657	-3.017000	3.522400	-10.626000	25.682756	0.000313	20.773519
1418.364158	-3.005800	3.522100	-10.585000	25.707304	0.000312	20.779209
1419.363979	-3.013600	3.521700	-10.612000	25.700744	0.000312	20.779732
1420.361782	-2.998600	3.521200	-10.558000	25.724203	0.000313	20.775794
1421.363454	-3.013600	3.519900	-10.606000	25.763211	0.000310	20.780837
1422.367686	-2.988500	3.520500	-10.520000	25.744202	0.000311	20.789718
1423.362141	-2.992400	3.519900	-10.532000	25.711133	0.000310	20.781159
1424.363847	-3.003500	3.520300	-10.572000	25.711359	0.000309	20.785653
1425.363015	-3.018000	3.517500	-10.615000	25.676052	0.000309	20.771527
1426.366108	-3.002600	3.518800	-10.565000	25.670034	0.000308	20.788242
1427.364362	-3.017000	3.518000	-10.613000	25.679381	0.000307	20.797156
1428.365892	-3.003400	3.518700	-10.567000	25.716080	0.000310	20.774747
1429.365198	-2.972300	3.519000	-10.458000	25.759407	0.000307	20.768006
1430.367577	-2.988200	3.518600	-10.514000	25.808798	0.000307	20.781109
1431.367718	-2.966700	3.518400	-10.437000	25.800326	0.000306	20.795359
1432.365065	-2.983700	3.516400	-10.492000	25.749349	0.000305	20.776870
1433.366224	-2.997300	3.516100	-10.537000	25.692230	0.000306	20.792517
1434.370349	-3.009400	3.514900	-10.578000	25.688129	0.000304	20.777493
1435.368252	-2.994800	3.517300	-10.532000	25.678536	0.000304	20.770228
1436.369213	-2.984900	3.516000	-10.494000	25.665247	0.000306	20.760200
1437.366941	-3.008600	3.514600	-10.573000	25.656802	0.000305	20.765469
1438.364067	-2.987400	3.516300	-10.504000	25.652825	0.000305	20.793717
1439.366514	-2.988600	3.514200	-10.501000	25.637172	0.000304	20.778944
1440.369667	-2.976800	3.515000	-10.462000	25.668481	0.000303	20.780045
1441.367513	-3.004800	3.513100	-10.554000	25.726198	0.000303	20.764995
1442.364942	-2.996500	3.513800	-10.528000	25.769630	0.000304	20.762154
1443.372484	-3.013000	3.514300	-10.587000	25.764191	0.000302	20.762855
1444.369324	-2.996500	3.513700	-10.528000	25.747871	0.000301	20.761634
1445.372146	-3.001700	3.512700	-10.543000	25.704067	0.000300	20.773113
1446.373481	-2.984000	3.514000	-10.485000	25.729587	0.000300	20.770771
1447.375903	-2.999300	3.512200	-10.533000	25.788643	0.000300	20.764182
1448.371367	-2.989900	3.512500	-10.500000	25.794828	0.000300	20.762809
1449.369567	-3.008500	3.511800	-10.564000	25.762853	0.000301	20.755820
1450.369347	-2.997800	3.510400	-10.523000	25.751404	0.000302	20.773244
1451.368425	-3.018600	3.510600	-10.596000	25.742830	0.000301	20.759890
1452.368599	-3.009300	3.510800	-10.565000	25.740050	0.000301	20.761366
1453.369228	-2.988400	3.511000	-10.491000	25.741664	0.000299	20.747813
1454.368955	-3.010800	3.510300	-10.567000	25.775852	0.000300	20.753230
1455.368084	-2.996000	3.509300	-10.513000	25.695606	0.000299	20.778839
1456.370862	-3.005100	3.509000	-10.544000	25.676001	0.000301	20.756776
1457.369076	-3.026600	3.508800	-10.617000	25.693197	0.000299	20.769306
1458.369404	-2.986200	3.509500	-10.479000	25.723754	0.000299	20.741677
1459.372883	-3.005200	3.507500	-10.540000	25.777367	0.000301	20.766606
1460.373693	-2.998600	3.508300	-10.519000	25.771526	0.000300	20.747462
1461.372840	-2.991000	3.506600	-10.487000	25.779280	0.000300	20.748138
1462.373044	-2.989800	3.508100	-10.487000	25.752447	0.000297	20.753428
1463.373974	-2.990400	3.507200	-10.487000	25.719600	0.000297	20.753152
1464.374023	-3.002000	3.505000	-10.522000	25.702606	0.000297	20.747936
1465.375744	-2.999400	3.506800	-10.517000	25.690923	0.000297	20.738099
1466.375826	-2.999100	3.507000	-10.517000	25.721238	0.000295	20.767126
1467.375704	-3.008400	3.505800	-10.546000	25.682077	0.000296	20.747706
1468.376512	-3.000300	3.504600	-10.514000	25.729682	0.000296	20.761383
1469.376918	-2.990700	3.504200	-10.479000	25.678321	0.000294	20.760055
1470.376827	-2.994100	3.503500	-10.489000	25.745905	0.000294	20.764401
1471.376444	-3.011900	3.503000	-10.550000	25.761027	0.000294	20.747348
1472.387874	-3.010600	3.503400	-10.547000	25.815861	0.000293	20.758332
1473.377831	-3.023400	3.502500	-10.589000	25.779589	0.000294	20.751768
1474.376863	-3.026400	3.501900	-10.596000	25.798696	0.000292	20.750098
1475.376709	-2.996700	3.502800	-10.495000	25.819235	0.000294	20.755558
1476.378969	-3.014600	3.500800	-10.552000	25.830169	0.000292	20.724340
1477.377594	-3.016000	3.501300	-10.559000	25.783611	0.000294	20.750119
1478.379430	-3.010000	3.501100	-10.537000	25.768629	0.000292	20.736017
1479.377361	-2.999900	3.501600	-10.504000	25.721727	0.000291	20.749599
1480.378407	-3.011600	3.501000	-10.542000	25.705797	0.000292	20.753986
1481.377755	-2.992400	3.500800	-10.474000	25.708580	0.000292	20.753463
1482.381457	-2.985500	3.501000	-10.451000	25.735138	0.000292	20.764492
1483.381346	-3.004200	3.498900	-10.511000	25.743311	0.000292	20.748519
1484.379874	-2.998900	3.501300	-10.499000	25.782791	0.000291	20.721318
1485.382729	-2.986400	3.499400	-10.450000	25.738763	0.000291	20.737312
1486.382180	-2.978100	3.498200	-10.417000	25.693396	0.000289	20.755281
1487.383995	-3.004800	3.498600	-10.511000	25.703658	0.000289	20.742355
1488.383277	-2.990100	3.499300	-10.462000	25.760428	0.000291	20.747220
1489.387239	-3.011100	3.498400	-10.533000	25.785939	0.000290	20.747241
1490.384099	-2.980700	3.497900	-10.426000	25.792749	0.000292	20.732744
1491.386347	-3.019500	3.496500	-10.556000	25.792798	0.000290	20.737535
1492.385537	-3.001600	3.497700	-10.498000	25.763503	0.000288	20.743197
1493.386494	-2.990300	3.497700	-10.458000	25.742635	0.000290	20.739778
1494.388059	-2.982400	3.496600	-10.428000	25.741637	0.000289	20.754425
1495.386742	-2.982100	3.495200	-10.422000	25.747224	0.000285	20.727318
1496.387897	-2.997300	3.495700	-10.477000	25.737586	0.000287	20.739449
1497.387702	-3.001800	3.495200	-10.491000	25.763570	0.000286	20.756066
1498.389256	-3.006200	3.494900	-10.505000	25.789655	0.000287	20.741016
1499.400241	-3.004700	3.493500	-10.496000	25.772711	0.000286	20.756239
1500.389597	-3.027900	3.494700	-10.581000	25.773824	0.000287	20.754038
1501.390177	-3.016700	3.493100	-10.536000	25.825053	0.000287	20.752393
1502.391125	-2.996000	3.493900	-10.467000	25.797721	0.000286	20.745326
1503.392205	-2.991400	3.493100	-10.448000	25.761941	0.000288	20.734041
1504.391735	-2.935400	3.494800	-10.257000	25.746910	0.000285	20.735538
1505.392310	-2.981700	3.492600	-10.413000	25.758711	0.000285	20.734589
1506.392077	-3.002400	3.492100	-10.484000	25.796622	0.000284	20.740428
1507.395530	-2.990500	3.491300	-10.440000	25.809117	0.000282	20.734012
1508.394107	-2.983300	3.492300	-10.417000	25.764122	0.000283	20.728644
1509.393444	-3.015400	3.489800	-10.522000	25.688539	0.000283	20.757041
1510.395855	-3.013200	3.491300	-10.519000	25.653058	0.000282	20.744639
1511.394540	-2.987100	3.492100	-10.430000	25.657652	0.000282	20.739295
1512.394051	-3.001800	3.489500	-10.474000	25.647143	0.000280	20.768096
1513.395449	-2.989000	3.489100	-10.428000	25.685477	0.000281	20.754914
1514.396936	-2.998700	3.489000	-10.462000	25.694968	0.000280	20.739790
1515.399536	-3.003600	3.488700	-10.478000	25.709102	0.000280	20.745926
1516.394882	-2.991700	3.488100	-10.434000	25.692456	0.000281	20.730629
1517.395923	-2.992100	3.489100	-10.439000	25.722894	0.000278	20.742710
1518.396175	-2.973700	3.488900	-10.374000	25.712706	0.000279	20.742434
1519.397186	-2.988300	3.488800	-10.424000	25.763913	0.000278	20.747402
1520.396393	-2.985000	3.486600	-10.407000	25.773773	0.000277	20.744978
1521.399844	-3.006400	3.487300	-10.484000	25.795413	0.000278	20.754387
1522.395507	-3.008000	3.486500	-10.487000	25.778920	0.000280	20.735449
1523.398155	-3.021900	3.485700	-10.532000	25.819363	0.000278	20.753789
1524.401498	-2.974200	3.485900	-10.367000	25.854468	0.000276	20.728835
1525.397373	-2.984300	3.485700	-10.401000	25.818447	0.000275	20.743386
1526.397221	-2.972600	3.486500	-10.363000	25.777582	0.000277	20.749278
1527.399134	-2.957400	3.486600	-10.311000	25.783295	0.000276	20.746482
1528.403785	-2.968000	3.485000	-10.342000	25.818328	0.000277	20.752275
1529.398343	-3.005200	3.483600	-10.467000	25.856138	0.000274	20.739048
1530.400152	-3.006800	3.485200	-10.478000	25.886543	0.000274	20.727865
1531.399112	-2.989200	3.484100	-10.413000	25.893877	0.000274	20.748510
1532.400497	-2.994800	3.484900	-10.436000	25.919610	0.000276	20.743068
1533.401234	-3.000300	3.484500	-10.454000	25.913204	0.000274	20.758917
1534.421843	-3.004500	3.481800	-10.461000	25.857057	0.000273	20.733807
1535.399222	-2.992800	3.483100	-10.423000	25.785166	0.000274	20.745517
1536.400150	-3.017800	3.481800	-10.506000	25.743651	0.000273	20.743645
1537.403462	-2.993000	3.483800	-10.426000	25.740470	0.000273	20.739027
1538.400479	-3.023700	3.482100	-10.527000	25.733143	0.000274	20.742098
1539.403493	-2.996700	3.482000	-10.434000	25.737190	0.000273	20.749483
1540.399947	-2.996400	3.482000	-10.433000	25.743901	0.000273	20.739628
1541.399811	-3.017800	3.479100	-10.498000	25.794607	0.000272	20.747413
1542.403615	-3.004800	3.480700	-10.458000	25.832943	0.000271	20.741826
1543.400877	-3.004900	3.479500	-10.455000	25.748305	0.000271	20.736939
1544.401034	-3.009400	3.479600	-10.470000	25.774961	0.000271	20.749017
1545.400445	-3.010600	3.478900	-10.473000	25.763037	0.000271	20.748893
1546.399873	-2.998600	3.478100	-10.428000	25.815433	0.000271	20.740832
1547.400717	-2.997800	3.478800	-10.428000	25.863878	0.000270	20.739236
1548.401452	-3.007800	3.477700	-10.459000	25.887678	0.000272	20.757930
1549.401799	-3.002200	3.477500	-10.440000	25.886784	0.000270	20.750393
1550.400048	-2.976800	3.477800	-10.352000	25.867333	0.000269	20.734172
1551.401714	-2.988700	3.478000	-10.394000	25.874339	0.000267	20.757333
1552.400945	-3.008900	3.478500	-10.465000	25.869845	0.000267	20.766094
1553.399722	-2.995600	3.476400	-10.413000	25.852807	0.000267	20.747082
1554.399798	-3.010600	3.476600	-10.466000	25.839767	0.000267	20.732085
1555.400202	-2.993300	3.475500	-10.402000	25.781778	0.000268	20.735001
1556.400302	-2.991000	3.476100	-10.396000	25.759170	0.000267	20.748327
1557.399762	-2.987300	3.476600	-10.385000	25.720510	0.000266	20.748377
1558.399941	-3.014600	3.475300	-10.476000	25.700790	0.000265	20.719558
1559.400071	-3.007200	3.474200	-10.447000	25.693631	0.000265	20.737499
1560.399951	-2.996900	3.475600	-10.415000	25.681730	0.000266	20.757315
1561.401662	-3.012400	3.473900	-10.463000	25.734877	0.000263	20.755221
1562.401465	-3.001200	3.474000	-10.425000	25.751296	0.000265	20.741841
1563.401082	-2.979100	3.473600	-10.348000	25.780070	0.000263	20.762683
1564.399271	-2.997300	3.472600	-10.408000	25.826625	0.000263	20.745436
1565.400491	-3.011900	3.472700	-10.459000	25.826301	0.000263	20.766448
1566.401651	-3.003000	3.472600	-10.427000	25.772341	0.000263	20.752549
1567.406348	-3.002400	3.473800	-10.428000	25.763446	0.000263	20.740769
1568.401375	-3.010700	3.472500	-10.454000	25.762281	0.000260	20.737701
1569.402913	-2.991200	3.472100	-10.385000	25.781338	0.000261	20.770596
1570.406444	-3.010600	3.471600	-10.451000	25.813552	0.000259	20.746529
1571.407201	-3.001400	3.470800	-10.417000	25.783621	0.000262	20.747758
1572.403967	-3.015900	3.470400	-10.464000	25.775949	0.000260	20.741947
1573.406116	-3.001000	3.471300	-10.416000	25.784593	0.000262	20.743519
1574.402077	-2.999900	3.469600	-10.407000	25.805039	0.000261	20.739400
1575.402720	-2.990200	3.469500	-10.374000	25.775202	0.000260	20.755422
1576.404387	-3.002200	3.469800	-10.417000	25.740940	0.000261	20.746137
1577.402861	-3.003600	3.468900	-10.418000	25.741412	0.000259	20.757991
1578.403327	-2.992200	3.468900	-10.378000	25.732693	0.000259	20.758717
1579.407129	-3.039000	3.468800	-10.540000	25.711126	0.000261	20.745114
1580.403228	-3.006200	3.467500	-10.423000	25.717513	0.000257	20.765755
1581.404072	-2.988500	3.469400	-10.367000	25.713338	0.000261	20.746863
1582.407641	-2.986600	3.468100	-10.357000	25.766209	0.000259	20.765829
1583.405767	-2.976100	3.467400	-10.318000	25.765240	0.000259	20.749683
1584.408836	-3.011600	3.465400	-10.436000	25.792224	0.000258	20.735061
1585.410167	-3.000300	3.465600	-10.397000	25.799329	0.000259	20.746466
1586.406328	-2.993300	3.466500	-10.376000	25.827646	0.000261	20.764007
1587.406642	-2.994500	3.466600	-10.379000	25.858429	0.000259	20.759842
1588.413289	-3.003500	3.466600	-10.411000	25.866925	0.000257	20.751781
1589.406983	-3.007700	3.466300	-10.425000	25.860046	0.000257	20.773795
1590.407090	-2.992400	3.465400	-10.369000	25.846904	0.000254	20.757273
1591.413563	-3.007400	3.464500	-10.418000	25.791280	0.000255	20.750709
1592.408068	-3.001100	3.464800	-10.397000	25.772645	0.000255	20.761863
1593.408770	-3.028200	3.464200	-10.490000	25.787701	0.000256	20.757546
1594.410651	-3.000100	3.462900	-10.388000	25.808445	0.000256	20.764633
1595.410812	-2.997100	3.464000	-10.381000	25.854801	0.000254	20.783225
1596.412686	-3.022000	3.462300	-10.462000	25.845386	0.000255	20.783250
1597.414457	-2.980100	3.464500	-10.324000	25.855647	0.000253	20.765582
1598.411396	-2.995500	3.462800	-10.372000	25.834107	0.000254	20.777135
1599.410720	-2.972200	3.462400	-10.290000	25.800273	0.000253	20.762588
1600.414292	-3.004000	3.460700	-10.395000	25.815821	0.000253	20.769672
1601.410871	-3.003500	3.461800	-10.397000	25.847570	0.000253	20.784495
1602.411386	-3.008000	3.460500	-10.408000	25.774751	0.000253	20.783419
1603.412273	-3.002600	3.460900	-10.390000	25.809829	0.000251	20.775981
1604.414526	-3.011500	3.459300	-10.417000	25.828287	0.000250	20.773660
1605.411469	-2.995100	3.459400	-10.360000	25.848038	0.000251	20.764102
1606.412615	-3.061200	3.457800	-10.583000	25.880232	0.000249	20.786487
1607.412926	-3.006800	3.459800	-10.402000	25.896724	0.000251	20.764647
1608.412815	-2.987100	3.457900	-10.328000	25.821630	0.000252	20.760334
1609.417325	-2.995000	3.458000	-10.356000	25.787365	0.000249	20.766218
1610.412465	-3.012000	3.458900	-10.418000	25.759793	0.000249	20.777878
1611.413758	-3.000800	3.458200	-10.376000	25.733034	0.000249	20.787509
1612.416225	-3.002200	3.459400	-10.385000	25.747787	0.000249	20.777672
1613.414766	-2.987800	3.457600	-10.330000	25.742024	0.000248	20.786582
1614.416175	-2.999800	3.457900	-10.372000	25.797750	0.000249	20.779494
1615.415932	-2.997600	3.456900	-10.362000	25.763143	0.000247	20.776027
1616.415439	-3.000600	3.456200	-10.370000	25.775564	0.000249	20.778546
1617.416090	-2.982500	3.458000	-10.312000	25.827163	0.000247	20.780591
1618.421463	-3.013500	3.455600	-10.413000	25.860848	0.000244	20.776971
1619.414850	-3.004000	3.456300	-10.382000	25.857523	0.000247	20.793072
1620.420749	-3.009600	3.454300	-10.395000	25.846864	0.000246	20.771459
1621.422138	-2.991900	3.456400	-10.340000	25.801973	0.000245	20.787530
1622.420823	-3.007200	3.454400	-10.388000	25.779517	0.000244	20.801957
1623.416764	-2.990300	3.454200	-10.328000	25.763393	0.000243	20.799038
1624.417263	-3.005000	3.454200	-10.379000	25.771196	0.000242	20.805927
1625.413956	-3.022500	3.453000	-10.435000	25.760364	0.000242	20.784141
1626.415086	-3.008000	3.453800	-10.388000	25.805704	0.000243	20.787011
1627.417188	-3.019700	3.452200	-10.423000	25.831172	0.000244	20.769446
1628.416132	-2.999800	3.453800	-10.360000	25.864188	0.000242	20.786491
1629.418861	-2.990100	3.451700	-10.320000	25.882329	0.000242	20.807559
1630.418717	-3.012400	3.452300	-10.399000	25.910792	0.000243	20.800117
1631.416839	-3.021800	3.451900	-10.429000	25.956158	0.000243	20.798752
1632.417479	-3.008700	3.452700	-10.387000	25.895150	0.000243	20.815698
1633.419627	-3.016100	3.450000	-10.405000	25.896242	0.000242	20.785500
1634.417111	-2.984200	3.452000	-10.300000	25.930274	0.000244	20.795033
1635.418102	-3.020400	3.450900	-10.423000	25.921511	0.000241	20.786704
1636.421782	-3.005600	3.449700	-10.368000	25.932666	0.000241	20.811661
1637.420682	-3.019800	3.447800	-10.410000	25.942130	0.000241	20.805996
1638.419241	-3.004400	3.449200	-10.362000	25.951569	0.000241	20.801728
1639.418849	-2.979200	3.449700	-10.277000	25.925044	0.000240	20.799736
1640.420374	-3.011500	3.447700	-10.381000	25.935202	0.000242	20.808993
1641.419606	-3.014300	3.448400	-10.394000	25.869054	0.000239	20.791379
1642.422096	-2.982200	3.448600	-10.283000	25.816365	0.000240	20.794401
1643.419799	-2.972200	3.448600	-10.249000	25.830431	0.000237	20.801418
1644.420193	-3.010300	3.446300	-10.374000	25.851696	0.000240	20.809977
1645.421770	-3.006000	3.446800	-10.360000	25.836941	0.000238	20.803690
1646.419571	-2.998900	3.445500	-10.332000	25.815626	0.000239	20.796977
1647.420151	-3.006500	3.445400	-10.358000	25.852545	0.000236	20.800873
1648.420262	-3.002900	3.446200	-10.348000	25.849418	0.000240	20.800102
1649.422658	-3.006700	3.445700	-10.359000	25.873937	0.000239	20.783008
1650.429795	-3.018600	3.443300	-10.393000	25.860848	0.000236	20.788351
1651.425624	-3.007000	3.445800	-10.360000	25.901912	0.000237	20.795463
1652.426159	-3.016700	3.444700	-10.390000	25.937437	0.000236	20.802703
1653.421997	-3.004700	3.444500	-10.348000	25.970872	0.000238	20.802155
1654.426583	-2.997300	3.444000	-10.321000	25.932393	0.000238	20.785782
1655.424134	-2.998700	3.444100	-10.327000	25.913690	0.000238	20.796391
1656.424180	-3.017700	3.443000	-10.389000	25.910686	0.000235	20.795743
1657.424711	-2.982300	3.444000	-10.270000	25.863737	0.000235	20.795520
1658.436979	-3.019200	3.441800	-10.391000	25.891063	0.000235	20.820601
1659.427547	-3.007000	3.442600	-10.351000	25.880655	0.000235	20.800662
1660.424422	-3.005700	3.442700	-10.347000	25.836016	0.000235	20.803234
1661.425879	-3.014000	3.442800	-10.376000	25.817779	0.000234	20.806253
1662.426455	-3.000700	3.443300	-10.331000	25.784762	0.000234	20.813390
1663.424191	-2.982800	3.441700	-10.265000	25.776561	0.000232	20.807997
1664.425755	-2.989800	3.442200	-10.291000	25.801558	0.000234	20.819355
1665.425561	-2.999300	3.440400	-10.318000	25.835691	0.000232	20.836573
1666.427661	-3.002900	3.440900	-10.332000	25.880536	0.000234	20.816663
1667.427478	-2.976300	3.442100	-10.244000	25.837682	0.000231	20.820081
1668.429156	-3.004600	3.439700	-10.334000	25.862723	0.000231	20.819157
1669.431270	-3.005400	3.439300	-10.336000	25.843818	0.000232	20.814391
1670.430432	-3.014100	3.438800	-10.365000	25.834948	0.000231	20.829189
1671.429092	-3.019300	3.439000	-10.383000	25.790032	0.000230	20.827692
1672.429588	-3.004600	3.438300	-10.330000	25.756123	0.000229	20.813546
1673.435431	-3.009900	3.438400	-10.348000	25.721490	0.000228	20.825700
1674.431551	-3.016500	3.436900	-10.367000	25.733592	0.000228	20.814622
1675.430440	-3.011300	3.437400	-10.350000	25.769139	0.000230	20.809551
1676.430027	-2.991000	3.438000	-10.282000	25.799924	0.000230	20.809654
1677.431610	-2.990900	3.436600	-10.279000	25.828048	0.000226	20.831740
1678.433593	-3.006000	3.436500	-10.329000	25.842258	0.000228	20.807608
1679.432122	-3.023300	3.435100	-10.383000	25.864766	0.000229	20.825478
1680.432395	-3.012200	3.435400	-10.347000	25.884512	0.000227	20.838675
1681.432222	-3.002200	3.435800	-10.314000	25.903470	0.000227	20.823107
1682.433810	-3.015900	3.435500	-10.360000	25.909806	0.000228	20.838955
1683.432011	-2.997100	3.435300	-10.295000	25.887024	0.000225	20.828871
1684.433996	-2.987000	3.435400	-10.260000	25.893188	0.000228	20.827951
1685.434816	-2.970300	3.435800	-10.205000	25.893090	0.000228	20.836387
1686.434690	-3.001500	3.435000	-10.309000	25.919997	0.000226	20.823114
1687.434500	-2.996100	3.433900	-10.287000	25.911349	0.000225	20.835764
1688.433488	-3.008900	3.433800	-10.331000	25.909757	0.000224	20.822311
1689.431792	-2.999800	3.432800	-10.297000	25.859705	0.000226	20.846945
1690.434255	-3.014200	3.432600	-10.345000	25.824378	0.000224	20.831847
1691.435103	-3.012800	3.432100	-10.339000	25.827982	0.000224	20.833570
1692.434247	-3.003200	3.431600	-10.304000	25.802390	0.000224	20.830148
1693.433604	-3.003500	3.432000	-10.307000	25.794592	0.000222	20.837013
1694.434480	-3.009600	3.431800	-10.328000	25.789375	0.000224	20.849790
1695.436113	-2.977700	3.433200	-10.222000	25.838243	0.000222	20.816377
1696.435252	-2.992800	3.430200	-10.265000	25.912724	0.000223	20.842360
1697.437997	-3.015600	3.429600	-10.341000	25.958829	0.000223	20.838418
1698.437969	-3.015000	3.430400	-10.342000	25.926982	0.000223	20.821597
1699.440173	-3.032100	3.428800	-10.394000	25.900928	0.000220	20.848053
1700.441823	-3.002800	3.429100	-10.296000	25.840361	0.000221	20.850746
1701.438691	-2.988300	3.429400	-10.247000	25.847892	0.000221	20.835553
1702.443191	-2.980300	3.428500	-10.217000	25.825215	0.000220	20.846437
1703.442452	-3.022000	3.427900	-10.358000	25.869312	0.000218	20.837156
1704.441555	-3.000600	3.429300	-10.289000	25.871873	0.000220	20.858220
1705.442924	-3.022000	3.426200	-10.352000	25.845289	0.000221	20.843369
1706.442502	-3.024000	3.427400	-10.362000	25.885664	0.000220	20.841254
1707.442739	-3.008300	3.427800	-10.310000	25.965103	0.000219	20.832394
1708.442841	-3.011300	3.428100	-10.322000	25.933559	0.000220	20.845274
1709.443646	-3.009500	3.426500	-10.311000	25.987592	0.000217	20.842659
1710.443270	-3.010200	3.427000	-10.314000	25.983492	0.000220	20.835222
1711.446922	-3.007500	3.425600	-10.301000	26.011837	0.000217	20.857060
1712.444063	-3.000100	3.425800	-10.277000	26.037346	0.000215	20.858982
1713.442239	-2.994200	3.425300	-10.255000	26.049070	0.000217	20.864123
1714.447762	-3.010000	3.426000	-10.311000	26.059653	0.000218	20.846782
1715.446794	-3.021500	3.425200	-10.348000	26.004938	0.000218	20.853923
1716.443332	-2.998800	3.425100	-10.270000	25.966940	0.000216	20.852257
1717.446396	-2.968000	3.425000	-10.164000	25.959861	0.000216	20.832817
1718.445221	-2.985700	3.424500	-10.224000	25.944733	0.000216	20.853654
1719.442887	-2.983000	3.424600	-10.215000	25.931149	0.000215	20.855180
1720.446582	-2.977900	3.423300	-10.193000	25.963989	0.000217	20.842654
1721.446932	-3.031300	3.423000	-10.376000	25.995166	0.000217	20.854536
1722.445797	-2.989100	3.424100	-10.234000	25.974799	0.000216	20.844505
1723.447803	-3.029200	3.422900	-10.367000	25.972615	0.000217	20.856061
1724.450902	-2.995100	3.422100	-10.249000	25.972517	0.000218	20.859281
1725.452052	-3.012900	3.420900	-10.305000	25.991169	0.000216	20.854313
1726.450316	-3.008800	3.420600	-10.291000	26.008315	0.000217	20.864426
1727.450069	-2.988500	3.421000	-10.223000	26.046992	0.000214	20.855397
1728.448701	-2.995800	3.421300	-10.249000	26.050989	0.000214	20.877430
1729.450462	-2.997900	3.419700	-10.251000	26.085217	0.000218	20.858242
1730.455630	-3.001300	3.419200	-10.260000	26.113231	0.000216	20.854148
1731.456335	-3.008200	3.419600	-10.286000	26.055564	0.000216	20.874440
1732.450544	-2.997400	3.419900	-10.250000	26.007202	0.000215	20.855249
1733.451694	-2.995200	3.419900	-10.242000	26.016694	0.000215	20.862888
1734.450346	-3.009500	3.418400	-10.286000	25.995506	0.000212	20.856774
1735.451823	-3.008700	3.419500	-10.287000	25.998810	0.000211	20.852507
1736.456194	-2.970700	3.420100	-10.159000	25.930823	0.000211	20.853430
1737.455203	-3.012500	3.418000	-10.296000	25.912913	0.000213	20.860567
1738.453362	-2.992800	3.418400	-10.230000	25.963315	0.000214	20.869002
1739.456769	-2.994500	3.418300	-10.235000	25.991209	0.000211	20.867629
1740.454316	-2.984800	3.418500	-10.202000	25.954397	0.000211	20.868104
1741.453532	-2.984600	3.417100	-10.197000	25.908390	0.000210	20.872618
1742.454244	-3.012700	3.414600	-10.286000	25.922627	0.000213	20.859895
1743.453916	-3.032200	3.415000	-10.353000	25.957233	0.000213	20.882331
1744.454992	-2.990600	3.415700	-10.214000	25.964210	0.000214	20.886969
1745.456458	-2.997700	3.416400	-10.241000	25.992083	0.000212	20.875145
1746.456079	-2.951900	3.415600	-10.082000	26.008798	0.000213	20.880558
1747.453938	-3.001000	3.414500	-10.246000	25.991115	0.000210	20.884603
1748.457292	-3.006000	3.412900	-10.258000	25.993249	0.000211	20.891488
1749.457820	-2.970400	3.414300	-10.141000	25.967218	0.000211	20.871026
1750.455892	-2.973100	3.415300	-10.153000	26.016649	0.000210	20.884178
1751.455262	-2.993300	3.413400	-10.217000	26.049384	0.000211	20.898101
1752.457040	-3.029300	3.413000	-10.338000	26.075639	0.000212	20.884178
1753.455853	-2.999100	3.412800	-10.233000	26.112373	0.000210	20.872251
1754.457134	-3.016400	3.412100	-10.291000	26.095233	0.000209	20.893908
1755.454886	-3.004900	3.412500	-10.252000	26.039794	0.000208	20.881828
1756.455960	-3.006100	3.413000	-10.258000	26.035124	0.000209	20.872395
1757.457564	-2.991400	3.410600	-10.201000	26.070071	0.000209	20.886170
1758.458496	-3.017600	3.409600	-10.288000	26.086267	0.000207	20.881107
1759.459504	-2.986000	3.411900	-10.187000	26.090042	0.000207	20.856926
1760.457934	-2.989600	3.411200	-10.197000	26.102931	0.000208	20.866557
1761.459259	-3.000900	3.409300	-10.230000	26.108344	0.000208	20.871995
1762.459657	-2.961500	3.409600	-10.097000	26.134819	0.000206	20.862088
1763.460071	-2.988500	3.409100	-10.187000	26.143588	0.000208	20.866158
1764.460144	-2.972100	3.410700	-10.136000	26.090486	0.000206	20.865432
1765.458462	-2.990900	3.410200	-10.199000	26.087827	0.000208	20.856123
1766.460762	-3.007800	3.407900	-10.249000	26.041054	0.000205	20.869819
1767.460081	-3.010200	3.408800	-10.260000	26.047690	0.000204	20.857046
1768.460816	-3.021300	3.407100	-10.293000	26.103297	0.000204	20.865976
1769.459693	-3.001700	3.407300	-10.227000	26.036737	0.000205	20.874490
1770.460191	-3.000300	3.408100	-10.224000	26.029777	0.000203	20.858964
1771.462626	-2.990300	3.406700	-10.186000	26.086809	0.000205	20.855100
1772.463974	-3.017600	3.406600	-10.279000	26.133132	0.000203	20.845222
1773.460075	-3.000100	3.406600	-10.220000	26.104716	0.000202	20.839429
1774.461342	-3.009100	3.405600	-10.247000	26.100790	0.000202	20.854923
1775.460338	-3.010400	3.406100	-10.253000	26.072180	0.000202	20.851781
1776.465936	-3.009900	3.405200	-10.247000	26.058248	0.000202	20.870025
1777.462215	-3.018000	3.405200	-10.276000	26.061876	0.000202	20.872247
1778.461876	-3.002200	3.405200	-10.221000	26.081872	0.000201	20.845399
1779.464301	-2.982300	3.405800	-10.156000	26.073074	0.000202	20.853154
1780.462914	-3.006700	3.404500	-10.235000	26.024618	0.000201	20.844772
1781.463539	-3.009900	3.404300	-10.246000	25.984380	0.000200	20.850812
1782.463970	-2.969900	3.404200	-10.108000	26.023949	0.000201	20.865910
1783.464044	-2.987200	3.404000	-10.168000	26.004030	0.000200	20.847794
1784.463984	-2.994100	3.404200	-10.192000	25.995580	0.000199	20.837409
1785.465893	-3.008700	3.402500	-10.237000	25.956909	0.000199	20.838386
1786.464274	-2.981900	3.403300	-10.147000	25.984032	0.000200	20.861367
1787.463900	-2.990000	3.402700	-10.174000	26.039892	0.000200	20.840204
1788.468102	-3.020800	3.401100	-10.273000	26.026256	0.000198	20.851633
1789.465777	-3.002400	3.401700	-10.213000	26.056163	0.000198	20.841379
1790.465797	-3.006900	3.402300	-10.230000	26.047591	0.000197	20.849361
1791.468136	-3.002600	3.399500	-10.207000	26.060107	0.000200	20.821160
1792.467883	-3.014400	3.400600	-10.249000	26.062048	0.000197	20.864360
1793.469166	-2.987300	3.400700	-10.158000	26.010682	0.000198	20.837409
1794.468054	-2.980100	3.401100	-10.134000	25.993467	0.000195	20.844768
1795.467091	-3.003800	3.398000	-10.206000	25.993963	0.000195	20.852853
1796.467912	-2.982600	3.399500	-10.139000	26.030626	0.000196	20.827101
1797.467580	-2.995200	3.400500	-10.184000	26.074712	0.000194	20.838679
1798.466535	-2.993800	3.398200	-10.173000	26.111943	0.000193	20.841948
1799.467494	-2.984400	3.398900	-10.143000	26.098184	0.000195	20.837607
1800.467964	-2.990400	3.398600	-10.162000	26.020761	0.000195	20.845164
1801.471041	-2.978400	3.399500	-10.125000	26.036560	0.000193	20.830693
1802.472406	-2.982100	3.398500	-10.134000	26.074088	0.000193	20.839949
1803.469720	-2.981200	3.397400	-10.128000	26.058019	0.000192	20.826174
1804.470942	-2.993300	3.396900	-10.167000	26.092993	0.000191	20.818167
1805.470874	-3.005100	3.396400	-10.205000	26.142443	0.000194	20.820439
1806.473492	-3.011000	3.396300	-10.225000	26.103005	0.000193	20.832020
1807.470754	-3.007400	3.395600	-10.211000	26.109087	0.000190	20.832915
1808.472305	-3.002400	3.395900	-10.196000	26.058699	0.000192	20.820220
1809.471412	-2.994200	3.395800	-10.167000	26.086887	0.000189	20.847118
1810.475129	-3.005500	3.394400	-10.201000	26.126062	0.000189	20.821523
1811.473808	-3.008100	3.395300	-10.212000	26.069951	0.000187	20.826784
1812.475038	-3.001700	3.394500	-10.188000	26.076657	0.000190	20.824512
1813.475326	-2.995100	3.394700	-10.165000	26.072393	0.000187	20.818331
1814.475611	-3.020200	3.393800	-10.249000	26.092410	0.000188	20.843659
1815.474852	-3.001600	3.393800	-10.186000	26.118663	0.000188	20.830210
1816.480643	-3.006500	3.393800	-10.202000	26.113846	0.000189	20.807826
1817.477141	-3.000900	3.391400	-10.177000	26.092414	0.000182	20.830387
1818.477775	-3.000900	3.391200	-10.176000	26.051809	0.000185	20.837004
1819.477003	-2.987700	3.393300	-10.137000	26.094034	0.000185	20.823006
1820.478561	-3.013700	3.390900	-10.219000	26.105511	0.000186	20.816521
1821.478460	-3.006000	3.391300	-10.193000	26.139758	0.000185	20.820112
1822.485941	-3.018900	3.390800	-10.235000	26.099151	0.000186	20.807285
1823.479892	-2.986100	3.391700	-10.127000	26.083435	0.000186	20.818046
1824.479633	-3.006500	3.390400	-10.192000	26.046601	0.000185	20.796685
1825.479879	-2.995900	3.389900	-10.154000	26.028347	0.000186	20.819596
1826.482406	-3.018900	3.389300	-10.231000	25.994048	0.000184	20.825913
1827.479625	-3.005300	3.390200	-10.187000	25.957383	0.000187	20.800457
1828.480093	-3.000200	3.390000	-10.170000	25.945736	0.000185	20.799661
1829.479431	-3.039500	3.388600	-10.299000	25.916921	0.000184	20.802956
1830.481650	-2.995100	3.388600	-10.148000	25.964615	0.000185	20.810093
1831.481381	-2.992200	3.390200	-10.143000	26.027563	0.000184	20.791782
1832.483150	-2.997100	3.387900	-10.152000	26.040622	0.000184	20.811066
1833.481495	-2.995900	3.387500	-10.147000	26.063450	0.000184	20.811717
1834.483074	-2.982300	3.388200	-10.103000	26.111559	0.000183	20.814063
1835.482047	-2.989700	3.387900	-10.128000	26.171911	0.000183	20.793151
1836.484247	-2.991700	3.387200	-10.132000	26.202606	0.000182	20.796021
1837.483675	-2.991200	3.386400	-10.128000	26.199652	0.000183	20.792104
1838.483167	-2.977900	3.386700	-10.084000	26.214029	0.000182	20.803232
1839.483784	-2.994500	3.385600	-10.137000	26.228357	0.000180	20.801508
1840.482337	-2.977800	3.385200	-10.079000	26.208917	0.000182	20.799991
1841.484313	-2.985500	3.386300	-10.109000	26.204818	0.000183	20.800139
1842.483850	-2.998300	3.386200	-10.152000	26.240575	0.000180	20.797666
1843.482451	-2.976900	3.385800	-10.078000	26.249150	0.000181	20.781627
1844.486123	-2.982000	3.384900	-10.092000	26.223622	0.000181	20.800543
1845.486515	-2.982900	3.385500	-10.097000	26.206984	0.000181	20.797575
1846.482970	-2.976100	3.384000	-10.070000	26.209692	0.000180	20.784175
1847.490311	-2.988400	3.382100	-10.106000	26.188635	0.000181	20.798576
1848.488598	-2.978500	3.384000	-10.078000	26.160520	0.000180	20.811576
1849.485074	-2.977600	3.382300	-10.070000	26.172518	0.000178	20.805140
1850.490265	-3.007100	3.382700	-10.171000	26.180543	0.000178	20.789971
1851.487733	-2.974800	3.382400	-10.061000	26.092991	0.000176	20.802044
1852.487635	-3.002200	3.381300	-10.151000	26.147636	0.000176	20.798630
1853.487917	-2.990700	3.380900	-10.110000	26.179649	0.000176	20.776270
1854.490047	-3.007400	3.382100	-10.170000	26.191523	0.000176	20.795315
1855.487966	-2.994200	3.382500	-10.127000	26.121657	0.000178	20.799079
1856.491673	-3.002000	3.381000	-10.148000	26.098559	0.000176	20.791518
1857.492218	-2.975800	3.380600	-10.059000	26.089248	0.000175	20.785007
1858.488868	-3.001300	3.379800	-10.143000	26.131842	0.000176	20.803149
1859.489933	-3.001000	3.379600	-10.141000	26.154594	0.000177	20.788553
1860.492183	-3.025400	3.378000	-10.219000	26.191498	0.000175	20.801454
1861.489846	-3.008900	3.379300	-10.167000	26.185615	0.000173	20.777524
1862.490407	-2.999300	3.378000	-10.131000	26.198929	0.000175	20.807024
1863.489743	-3.011600	3.378300	-10.173000	26.187153	0.000174	20.777173
1864.489425	-3.018300	3.378300	-10.195000	26.227962	0.000175	20.800163
1865.493991	-2.991600	3.377500	-10.103000	26.267764	0.000173	20.785160
1866.489850	-3.001500	3.377800	-10.137000	26.319942	0.000177	20.778327
1867.490598	-3.018800	3.376800	-10.193000	26.273533	0.000173	20.782896
1868.493402	-3.012300	3.377000	-10.172000	26.197887	0.000175	20.794123
1869.494134	-2.997700	3.375800	-10.119000	26.211948	0.000176	20.776958
1870.491739	-2.990000	3.376900	-10.097000	26.201214	0.000174	20.779449
1871.495076	-3.010600	3.374500	-10.157000	26.200472	0.000173	20.783444
1872.493049	-3.011600	3.374000	-10.161000	26.180157	0.000172	20.783894
1873.500445	-2.990900	3.375800	-10.095000	26.114144	0.000172	20.790107
1874.496944	-3.032500	3.373600	-10.230000	26.134854	0.000172	20.776303
1875.497190	-2.983300	3.374500	-10.067000	26.123852	0.000172	20.796069
1876.496751	-3.002600	3.373000	-10.127000	26.089901	0.000176	20.790404
1877.496474	-3.020200	3.372700	-10.185000	26.088711	0.000171	20.778777
1878.500706	-2.985800	3.373000	-10.070000	26.084857	0.000172	20.777750
1879.495442	-3.010400	3.371900	-10.150000	26.075021	0.000171	20.774980
1880.496715	-2.996900	3.372300	-10.105000	26.063301	0.000171	20.785015
1881.501526	-3.001900	3.371900	-10.121000	26.115777	0.000171	20.772782
1882.496522	-3.005300	3.372400	-10.134000	26.142051	0.000169	20.789225
1883.496434	-2.972700	3.374300	-10.029000	26.205207	0.000170	20.773504
1884.503636	-3.021800	3.369900	-10.182000	26.246155	0.000171	20.780513
1885.498207	-3.029800	3.371000	-10.212000	26.284500	0.000167	20.782063
1886.499710	-2.994000	3.370900	-10.091000	26.290805	0.000167	20.766115
1887.498070	-3.008000	3.371100	-10.140000	26.226337	0.000169	20.777194
1888.496772	-3.011900	3.370400	-10.150000	26.178085	0.000169	20.783234
1889.499029	-3.015700	3.370400	-10.164000	26.157697	0.000168	20.785032
1890.498945	-3.021600	3.368500	-10.177000	26.171557	0.000168	20.773355
1891.498302	-2.994900	3.370400	-10.093000	26.195967	0.000168	20.798358
1892.497907	-3.000600	3.369400	-10.110000	26.232820	0.000165	20.777070
1893.499856	-3.009900	3.369400	-10.140000	26.284450	0.000166	20.771108
1894.498574	-3.010100	3.370500	-10.144000	26.297563	0.000166	20.782863
1895.498610	-3.007700	3.368100	-10.129000	26.327881	0.000165	20.763546
1896.500994	-2.990300	3.369400	-10.074000	26.302207	0.000165	20.783263
1897.502764	-3.018000	3.367300	-10.162000	26.294482	0.000163	20.778344
1898.500282	-3.004800	3.368600	-10.121000	26.296795	0.000164	20.762651
1899.502035	-3.024400	3.366900	-10.182000	26.306084	0.000162	20.783840
1900.503128	-3.003000	3.367600	-10.112000	26.272183	0.000162	20.776324
1901.503151	-3.020800	3.367300	-10.170000	26.248723	0.000161	20.778352
1902.504303	-3.006800	3.367100	-10.124000	26.232278	0.000163	20.767517
1903.502205	-2.986300	3.367400	-10.056000	26.223145	0.000162	20.769718
1904.501615	-2.993700	3.365300	-10.074000	26.252321	0.000164	20.758734
1905.504070	-3.008200	3.364800	-10.121000	26.280758	0.000162	20.783044
1906.501639	-2.998400	3.365000	-10.088000	26.243557	0.000162	20.766049
1907.502741	-3.002300	3.364300	-10.100000	26.230293	0.000162	20.762676
1908.503422	-2.988100	3.364300	-10.052000	26.253269	0.000162	20.759212
1909.502042	-2.973100	3.364700	-10.002000	26.289398	0.000161	20.768968
1910.501823	-2.980800	3.365400	-10.031000	26.239856	0.000165	20.759485
1911.502396	-2.991000	3.363800	-10.061000	26.154996	0.000160	20.766197
1912.502870	-2.988900	3.363700	-10.053000	26.154200	0.000162	20.759233
1913.501957	-3.008000	3.361200	-10.110000	26.215567	0.000161	20.775379
1914.503643	-2.991800	3.363300	-10.061000	26.245317	0.000161	20.757860
1915.502074	-3.011800	3.361500	-10.123000	26.218320	0.000158	20.777672
1916.502394	-3.021200	3.361600	-10.156000	26.179029	0.000159	20.784183
1917.503222	-2.998300	3.362200	-10.080000	26.163929	0.000160	20.771854
1918.502732	-3.005100	3.361700	-10.101000	26.222961	0.000160	20.779490
1919.502471	-2.999800	3.361000	-10.082000	26.195171	0.000161	20.747771
1920.506304	-3.018200	3.360200	-10.141000	26.266242	0.000159	20.775569
1921.504082	-2.998700	3.360500	-10.076000	26.233214	0.000156	20.748542
1922.503759	-3.011300	3.360000	-10.117000	26.259608	0.000156	20.762738
1923.505057	-2.991000	3.358400	-10.044000	26.255308	0.000155	20.762211
1924.506201	-3.008500	3.360300	-10.108000	26.218608	0.000157	20.786970
1925.505164	-3.004700	3.357900	-10.087000	26.229752	0.000155	20.763555
1926.504845	-3.022600	3.357600	-10.147000	26.291561	0.000155	20.755968
1927.505607	-2.988600	3.359400	-10.039000	26.333875	0.000155	20.743491
1928.509092	-3.000400	3.358100	-10.075000	26.373407	0.000154	20.752876
1929.505945	-2.982900	3.357800	-10.016000	26.390215	0.000154	20.752698
1930.505612	-2.991400	3.356400	-10.039000	26.405758	0.000153	20.750303
1931.512074	-2.972900	3.356300	-9.977100	26.408166	0.000152	20.774535
1932.507551	-3.008400	3.356600	-10.098000	26.381575	0.000150	20.747808
1933.515960	-3.008700	3.356100	-10.097000	26.332013	0.000151	20.760586
1934.510704	-2.992500	3.356600	-10.044000	26.339463	0.000150	20.745788
1935.511434	-2.985000	3.355900	-10.016000	26.350039	0.000151	20.748831
1936.512587	-2.981800	3.355500	-10.004000	26.338396	0.000150	20.766528
1937.514081	-2.976000	3.356000	-9.985400	26.309892	0.000149	20.757795
1938.514492	-3.015100	3.354000	-10.112000	26.375397	0.000149	20.756772
1939.514336	-2.999800	3.354200	-10.061000	26.404675	0.000150	20.763913
1940.515839	-2.977600	3.353600	-9.985400	26.447428	0.000150	20.742398
1941.513990	-3.005300	3.354200	-10.078000	26.484601	0.000147	20.744674
1942.515472	-3.004200	3.354500	-10.077000	26.463270	0.000146	20.765909
1943.515513	-3.008900	3.353000	-10.088000	26.420194	0.000147	20.758174
1944.515396	-2.984400	3.352700	-10.005000	26.401327	0.000147	20.741582
1945.517138	-3.009700	3.351900	-10.088000	26.377640	0.000148	20.763769
1946.517405	-2.953500	3.353500	-9.903500	26.346306	0.000147	20.743181
1947.517426	-3.013800	3.351300	-10.100000	26.390353	0.000147	20.779391
1948.518960	-2.992100	3.351900	-10.029000	26.383605	0.000145	20.754116
1949.526259	-3.010800	3.350900	-10.088000	26.368233	0.000145	20.742934
1950.518911	-3.018900	3.350800	-10.115000	26.404194	0.000146	20.755844
1951.520108	-3.021600	3.350100	-10.121000	26.402730	0.000144	20.744888
1952.520536	-3.021200	3.348800	-10.117000	26.394140	0.000144	20.742893
1953.520402	-3.011900	3.350400	-10.090000	26.416961	0.000145	20.747337
1954.519924	-3.015700	3.350000	-10.102000	26.454184	0.000144	20.720738
1955.520094	-2.991100	3.349500	-10.018000	26.413761	0.000142	20.746018
1956.525422	-3.016600	3.347900	-10.099000	26.423819	0.000145	20.742851
1957.523427	-3.015900	3.348500	-10.097000	26.387793	0.000143	20.739833
1958.521794	-2.992700	3.348400	-10.020000	26.408678	0.000143	20.727158
1959.521589	-3.013300	3.347900	-10.088000	26.394353	0.000144	20.753538
1960.525004	-2.994900	3.348300	-10.027000	26.433410	0.000144	20.745853
1961.523075	-2.978800	3.347700	-9.971500	26.430826	0.000142	20.756532
1962.524489	-3.016100	3.346700	-10.093000	26.356414	0.000143	20.751918
1963.525046	-3.019300	3.345400	-10.100000	26.380548	0.000145	20.735870
1964.525067	-2.985000	3.346300	-9.987900	26.460328	0.000143	20.735924
1965.524796	-2.979400	3.346500	-9.969400	26.442751	0.000142	20.751448
1966.525178	-3.001500	3.345100	-10.039000	26.435133	0.000143	20.754697
1967.526007	-2.988000	3.345800	-9.996300	26.430091	0.000142	20.734456
1968.523651	-2.978100	3.345700	-9.963300	26.397142	0.000140	20.747333
1969.526070	-2.984900	3.346100	-9.987400	26.357734	0.000142	20.740917
1970.524896	-2.973900	3.344000	-9.944200	26.308151	0.000142	20.752726
1971.526746	-2.989300	3.344500	-9.996900	26.386587	0.000143	20.750475
1972.526363	-2.992600	3.343700	-10.006000	26.403078	0.000138	20.760886
1973.525704	-2.983200	3.344700	-9.977300	26.430391	0.000142	20.740921
1974.524977	-2.980000	3.343800	-9.964200	26.461801	0.000139	20.735033
1975.528578	-2.989200	3.343500	-9.993900	26.389421	0.000138	20.743366
1976.530351	-2.992900	3.342000	-10.001000	26.343310	0.000140	20.746809
1977.528352	-2.997900	3.341400	-10.016000	26.343737	0.000141	20.733961
1978.530882	-3.022700	3.341800	-10.100000	26.323150	0.000139	20.752627
1979.528212	-2.997200	3.342100	-10.015000	26.333181	0.000139	20.736155
1980.529463	-2.999900	3.342400	-10.026000	26.404936	0.000138	20.748529
1981.529052	-2.994500	3.342400	-10.008000	26.371071	0.000140	20.735355
1982.532379	-2.995000	3.341900	-10.008000	26.376261	0.000138	20.754322
1983.529231	-2.987100	3.340500	-9.978000	26.401958	0.000139	20.760234
1984.531189	-2.984500	3.340000	-9.968000	26.453080	0.000139	20.767994
1985.530349	-2.974900	3.340400	-9.936700	26.436843	0.000137	20.758787
1986.530676	-2.996000	3.340400	-10.008000	26.441311	0.000137	20.743836
1987.532177	-2.982500	3.338900	-9.957200	26.437266	0.000136	20.752573
1988.530410	-3.000600	3.339200	-10.018000	26.364286	0.000138	20.752244
1989.530660	-3.016100	3.338000	-10.067000	26.412956	0.000136	20.757538
1990.531340	-3.009100	3.338200	-10.044000	26.478648	0.000135	20.744381
1991.531487	-2.993200	3.337500	-9.988700	26.512440	0.000136	20.751320
1992.533465	-2.987600	3.337200	-9.969200	26.480654	0.000135	20.766786
1993.535645	-2.991600	3.338200	-9.985300	26.489920	0.000135	20.748599
1994.532491	-2.992700	3.336300	-9.983700	26.439937	0.000135	20.756206
1995.532122	-3.009600	3.335800	-10.038000	26.426999	0.000133	20.740831
1996.534374	-3.007700	3.336400	-10.033000	26.344812	0.000132	20.763018
1997.532254	-2.999200	3.334500	-9.999300	26.405819	0.000133	20.771701
1998.532021	-2.992700	3.335100	-9.979900	26.436655	0.000132	20.740105
1999.533636	-2.968200	3.336500	-9.902800	26.458031	0.000131	20.753056
2000.531278	-3.011300	3.334300	-10.040000	26.499617	0.000132	20.764036
2001.531066	-2.987600	3.334100	-9.959900	26.512231	0.000131	20.772448
2002.533667	-3.023500	3.334500	-10.081000	26.550041	0.000131	20.751184
2003.532602	-3.007700	3.334900	-10.030000	26.473968	0.000129	20.752953
2004.540119	-2.997200	3.333700	-9.990600	26.392400	0.000131	20.738773
2005.537091	-2.995700	3.334200	-9.987000	26.401909	0.000130	20.765875
2006.536782	-2.997500	3.332600	-9.988700	26.445885	0.000130	20.751753
2007.537130	-3.015900	3.331800	-10.048000	26.478505	0.000131	20.761307
2008.540016	-3.016900	3.331200	-10.048000	26.457252	0.000128	20.756066
2009.538570	-2.993600	3.331500	-9.972100	26.428451	0.000126	20.768370
2010.537384	-2.984400	3.333200	-9.945700	26.450348	0.000129	20.736324
2011.538314	-3.013000	3.331300	-10.036000	26.470559	0.000128	20.774658
2012.538855	-3.024800	3.331100	-10.075000	26.521378	0.000127	20.767892
2013.538430	-2.998100	3.332400	-9.990200	26.477931	0.000127	20.760256
2014.539714	-3.012100	3.330200	-10.030000	26.432746	0.000127	20.779799
2015.539715	-3.009300	3.330200	-10.021000	26.412210	0.000127	20.769591
2016.540183	-2.981300	3.331400	-9.931200	26.511944	0.000125	20.763150
2017.538711	-3.011900	3.329100	-10.026000	26.573413	0.000127	20.769463
2018.540831	-3.002500	3.329100	-9.994800	26.628255	0.000128	20.764849
2019.540294	-3.017700	3.328800	-10.045000	26.665241	0.000125	20.756512
2020.544156	-2.991300	3.328300	-9.954700	26.696291	0.000127	20.744579
2021.541779	-3.003500	3.328400	-9.996000	26.680530	0.000125	20.748175
2022.542824	-3.000000	3.327200	-9.981200	26.662854	0.000125	20.759802
2023.544531	-2.984200	3.327300	-9.927800	26.663326	0.000124	20.766915
2024.544687	-2.996500	3.326700	-9.968000	26.646047	0.000124	20.760924
2025.543326	-3.001900	3.328400	-9.990300	26.672188	0.000125	20.759229
2026.543877	-2.992100	3.326700	-9.953100	26.697132	0.000125	20.778616
2027.542448	-3.010600	3.327800	-10.018000	26.636564	0.000125	20.772254
2028.545800	-3.030300	3.325600	-10.077000	26.598954	0.000123	20.780439
2029.544386	-2.985900	3.326800	-9.932200	26.528425	0.000123	20.792045
2030.545852	-3.032300	3.324600	-10.080000	26.528696	0.000122	20.783308
2031.545851	-3.013600	3.325000	-10.020000	26.572687	0.000124	20.786751
2032.545260	-3.011900	3.324900	-10.014000	26.571666	0.000122	20.798053
2033.545236	-3.006500	3.323800	-9.992500	26.554414	0.000122	20.783556
2034.546268	-3.006900	3.324900	-9.997200	26.541851	0.000122	20.776617
2035.545775	-2.975600	3.325200	-9.893800	26.527125	0.000121	20.768453
2036.545350	-3.005300	3.323200	-9.986600	26.538122	0.000123	20.767653
2037.544221	-2.979600	3.323200	-9.900700	26.595820	0.000121	20.753581
2038.544311	-3.014500	3.322300	-10.013000	26.619224	0.000120	20.799393
2039.546476	-2.984100	3.323000	-9.914700	26.628460	0.000120	20.782125
2040.547574	-2.963800	3.324000	-9.850300	26.603458	0.000119	20.770267
2041.547872	-2.988300	3.321100	-9.923700	26.623416	0.000119	20.787960
2042.550185	-3.019000	3.321500	-10.027000	26.599061	0.000119	20.772486
2043.549030	-2.992800	3.321300	-9.938700	26.575026	0.000118	20.783886
2044.548769	-2.993300	3.319400	-9.935000	26.598315	0.000119	20.793073
2045.548625	-2.993500	3.319800	-9.936200	26.576064	0.000116	20.774972
2046.549562	-3.002400	3.318300	-9.961500	26.558984	0.000117	20.790521
2047.549288	-2.995600	3.318400	-9.940000	26.566105	0.000116	20.787247
2048.553003	-3.006900	3.318600	-9.977800	26.536388	0.000114	20.788670
2049.547179	-3.009500	3.319500	-9.988500	26.550387	0.000114	20.786620
2050.549375	-3.015100	3.317200	-10.001000	26.568583	0.000115	20.785470
2051.546829	-3.017100	3.317300	-10.008000	26.582057	0.000112	20.780523
2052.548143	-3.026200	3.317100	-10.037000	26.572250	0.000116	20.788208
2053.551227	-3.022300	3.316400	-10.022000	26.562890	0.000114	20.799662
2054.552941	-2.989100	3.317300	-9.914000	26.529096	0.000112	20.781339
2055.551781	-3.016500	3.316800	-10.004000	26.515215	0.000113	20.789672
2056.550953	-3.007100	3.317400	-9.974600	26.533485	0.000113	20.803295
2057.551490	-3.001900	3.315600	-9.952800	26.592717	0.000114	20.792662
2058.551098	-2.992600	3.315200	-9.920100	26.623471	0.000112	20.808404
2059.551515	-3.016200	3.315300	-9.998800	26.595421	0.000114	20.794431
2060.555527	-3.003000	3.316400	-9.956900	26.632601	0.000112	20.792926
2061.551442	-2.998200	3.314900	-9.938000	26.671473	0.000114	20.799762
2062.553399	-2.994100	3.315400	-9.925700	26.678372	0.000112	20.778722
2063.555322	-3.009100	3.315600	-9.976100	26.711460	0.000110	20.802030
2064.552821	-2.990600	3.314500	-9.911000	26.682810	0.000111	20.786977
2065.556704	-2.999900	3.312700	-9.937200	26.685439	0.000111	20.798629
2066.556390	-3.022800	3.312000	-10.010000	26.644655	0.000110	20.809312
2067.552220	-3.012900	3.314200	-9.984500	26.634599	0.000108	20.805366
2068.558991	-2.976300	3.313800	-9.860900	26.616922	0.000109	20.825528
2069.554222	-2.991000	3.312800	-9.908200	26.635764	0.000108	20.810330
2070.551527	-2.996400	3.313300	-9.927200	26.712613	0.000110	20.804138
2071.556036	-3.004600	3.311700	-9.949100	26.747911	0.000109	20.811176
2072.555425	-2.987200	3.311200	-9.890700	26.788592	0.000105	20.805610
2073.552989	-3.011900	3.309900	-9.967900	26.779431	0.000106	20.788813
2074.558115	-2.994500	3.311200	-9.914400	26.736642	0.000107	20.815019
2075.554737	-3.017400	3.310000	-9.986500	26.725967	0.000105	20.817088
2076.552252	-3.005400	3.311100	-9.950500	26.752898	0.000106	20.821879
2077.557093	-3.022000	3.309100	-9.998400	26.730113	0.000105	20.815567
2078.556840	-3.004500	3.307400	-9.936200	26.790548	0.000106	20.807577
2079.553880	-3.012800	3.309100	-9.969100	26.758902	0.000105	20.803734
2080.559577	-3.003000	3.309200	-9.936600	26.790200	0.000104	20.829511
2081.557111	-3.000700	3.308500	-9.926500	26.806111	0.000106	20.804732
2082.554834	-3.022200	3.307100	-9.993600	26.754928	0.000102	20.821076
2083.556908	-2.994200	3.308400	-9.905400	26.807973	0.000103	20.818932
2084.556574	-3.012100	3.308100	-9.963600	26.849947	0.000103	20.819410
2085.555807	-3.019200	3.306200	-9.981600	26.870072	0.000103	20.808826
2086.560210	-3.017800	3.306300	-9.976500	26.897767	0.000103	20.807750
2087.557097	-3.006300	3.306400	-9.939000	26.917744	0.000103	20.812191
2088.555775	-2.989800	3.307500	-9.888100	26.891940	0.000103	20.827495
2089.555867	-3.018200	3.307300	-9.981500	26.924575	0.000102	20.830439
2090.558324	-3.019600	3.304600	-9.977400	26.876055	0.000101	20.811996
2091.558929	-3.024000	3.303700	-9.989500	26.853617	0.000102	20.822626
2092.555769	-2.993600	3.303700	-9.888800	26.798175	0.000103	20.809555
2093.557831	-2.966700	3.306200	-9.807500	26.757983	0.000102	20.811819
2094.556140	-2.994100	3.303500	-9.889900	26.710653	0.000102	20.838202
2095.555888	-2.992800	3.305200	-9.890600	26.726512	9.978282E-5	20.852249
2096.560071	-3.012700	3.303400	-9.950600	26.705338	0.000101	20.808203
2097.560516	-3.015200	3.303000	-9.956400	26.709484	9.938679E-5	20.823277
2098.559518	-3.006100	3.302700	-9.927200	26.773300	0.000101	20.831486
2099.564231	-2.994800	3.303600	-9.893500	26.775162	0.000102	20.842366
2100.559537	-2.996000	3.302400	-9.893000	26.824925	9.978282E-5	20.820803
2101.557427	-3.009600	3.301200	-9.933700	26.823141	9.915577E-5	20.833708
2102.560670	-2.991900	3.302600	-9.879700	26.900727	9.905676E-5	20.844865
2103.562240	-3.008900	3.301600	-9.932700	26.836993	0.000100	20.831515
2104.560914	-3.006300	3.299100	-9.917300	26.843742	9.875974E-5	20.830241
2105.560647	-2.999500	3.301500	-9.901700	26.903236	9.767066E-5	20.833638
2106.558244	-2.985100	3.301300	-9.853600	26.898218	0.000101	20.854195
2107.560678	-3.017900	3.299700	-9.957200	26.926510	9.948579E-5	20.848979
2108.563064	-3.011800	3.299400	-9.935900	26.911048	9.872674E-5	20.824897
2109.563840	-3.000600	3.298400	-9.895600	26.849549	9.803369E-5	20.844139
2110.561719	-2.988700	3.299800	-9.860900	26.814874	9.776967E-5	20.844362
2111.560826	-3.008600	3.297600	-9.920500	26.822095	9.955180E-5	20.840243
2112.566807	-2.999700	3.297500	-9.889800	26.824703	9.694461E-5	20.845236
2113.563048	-3.010700	3.296700	-9.924000	26.821128	9.753865E-5	20.833106
2114.562470	-2.982400	3.297500	-9.833300	26.769101	9.720863E-5	20.827264
2115.563802	-2.986300	3.296400	-9.842700	26.829961	9.720863E-5	20.841039
2116.564019	-2.998600	3.297400	-9.886700	26.890665	9.618555E-5	20.846127
2117.563565	-2.992000	3.294900	-9.857500	26.856168	9.780267E-5	20.840837
2118.563678	-3.011200	3.296000	-9.924500	26.806673	9.575652E-5	20.817625
2119.562766	-2.995400	3.294900	-9.868500	26.778304	9.691161E-5	20.850741
2120.564730	-2.995200	3.295300	-9.869200	26.813222	9.433742E-5	20.841279
2121.562600	-2.979300	3.294300	-9.813600	26.893343	9.578952E-5	20.864940
2122.563257	-2.997200	3.295500	-9.875200	26.886487	9.371037E-5	20.833866
2123.562877	-2.996700	3.294000	-9.870300	26.875096	9.328134E-5	20.844697
2124.562310	-2.993900	3.293600	-9.860100	26.919270	9.192824E-5	20.850234
2125.564674	-2.994000	3.292300	-9.856600	26.918077	9.212626E-5	20.847138
2126.570066	-2.987200	3.294000	-9.839200	26.916166	9.222526E-5	20.864182
2127.565382	-3.007000	3.292500	-9.899500	26.906309	9.090517E-5	20.844314
2128.565603	-2.976400	3.294000	-9.802800	26.923014	9.093817E-5	20.853050
2129.565811	-2.995200	3.291200	-9.856600	26.979646	9.169723E-5	20.861634
2130.566947	-2.974500	3.292800	-9.793200	26.956492	9.120219E-5	20.863481
2131.567235	-3.000800	3.291600	-9.876800	26.982770	9.176323E-5	20.854345
2132.568540	-2.994100	3.291400	-9.854000	27.034656	9.057514E-5	20.875227
2133.575401	-3.015600	3.290000	-9.920300	27.045577	9.083916E-5	20.859185
2134.567313	-3.002900	3.289900	-9.878600	26.998748	9.083916E-5	20.852869
2135.570145	-3.002600	3.291100	-9.880500	26.986391	8.918904E-5	20.844710
2136.568811	-3.003300	3.289500	-9.879000	26.941621	9.050914E-5	20.860855
2137.567188	-3.021100	3.288100	-9.933100	26.912038	8.763793E-5	20.874728
2138.569029	-3.018600	3.287200	-9.922200	26.929312	8.998110E-5	20.873133
2139.567797	-2.995600	3.289400	-9.852800	27.004628	8.869401E-5	20.851195
2140.567944	-3.004700	3.287800	-9.877400	27.000733	8.876001E-5	20.873830
2141.571965	-3.008200	3.287200	-9.887300	26.954820	8.866100E-5	20.861325
2142.571161	-2.994200	3.287700	-9.843500	26.917446	8.734091E-5	20.859779
2143.569810	-3.009600	3.286300	-9.890100	26.971024	8.948606E-5	20.879041
2144.574506	-2.990600	3.285600	-9.825300	26.973455	8.724190E-5	20.858728
2145.572381	-2.982100	3.287200	-9.801900	26.967424	8.641684E-5	20.871154
2146.572731	-3.011600	3.285200	-9.892900	26.955862	8.664786E-5	20.854312
2147.575531	-2.975200	3.286000	-9.775600	26.973726	8.641684E-5	20.866586
2148.574034	-2.995600	3.285700	-9.842300	26.947571	8.578979E-5	20.867786
2149.572746	-2.986100	3.285100	-9.809500	26.972287	8.793495E-5	20.876518
2150.575389	-3.012600	3.286200	-9.899400	26.978610	8.328161E-5	20.867230
2151.572846	-3.006400	3.283600	-9.870500	26.997671	8.578979E-5	20.876914
2152.573612	-2.999900	3.284200	-9.851700	27.046329	8.446970E-5	20.867053
2153.574583	-3.021700	3.283900	-9.922400	27.119459	8.585580E-5	20.878485
2154.573138	-3.004700	3.282100	-9.860300	27.160445	8.466771E-5	20.869448
2155.572634	-2.999500	3.282500	-9.844600	27.115958	8.341362E-5	20.882550
2156.576306	-3.002400	3.282100	-9.853200	27.125411	8.338062E-5	20.869774
2157.574421	-3.010900	3.280300	-9.876000	27.131962	8.341362E-5	20.865931
2158.576535	-2.985700	3.281400	-9.796200	27.187165	8.301759E-5	20.879252
2159.578719	-2.988000	3.281500	-9.803800	27.189899	8.262156E-5	20.873942
2160.576210	-3.012100	3.279000	-9.875100	27.192900	8.192851E-5	20.882175
2161.576838	-3.022600	3.279300	-9.910600	27.209670	8.328161E-5	20.880551
2162.578483	-2.986700	3.279900	-9.794900	27.235822	8.242355E-5	20.896423
2163.576349	-3.000400	3.279400	-9.838400	27.275570	8.107045E-5	20.872870
2164.578475	-3.025000	3.278400	-9.916800	27.263782	8.136747E-5	20.866702
2165.578893	-2.991000	3.277500	-9.802500	27.218303	8.097144E-5	20.895871
2166.585177	-3.016900	3.277800	-9.888200	27.175207	8.268757E-5	20.888087
2167.579463	-3.017400	3.276900	-9.887300	27.095727	8.093844E-5	20.892074
2168.581068	-3.024200	3.275900	-9.906300	27.062950	8.093844E-5	20.869069
2169.579945	-2.994100	3.276400	-9.809600	27.056427	7.902430E-5	20.888586
2170.579851	-2.993500	3.277100	-9.809000	27.095604	8.123546E-5	20.881046
2171.580961	-3.012500	3.276300	-9.869200	27.103049	7.968435E-5	20.874309
2172.579024	-3.018600	3.274500	-9.883400	27.067148	7.760520E-5	20.887514
2173.580427	-2.979400	3.275900	-9.759100	27.048805	7.928832E-5	20.885189
2174.582371	-3.007500	3.274100	-9.845300	27.025407	7.862827E-5	20.901960
2175.585985	-2.998100	3.274900	-9.817200	27.099749	7.849626E-5	20.906549
2176.580907	-2.974500	3.274000	-9.736900	27.119451	7.750619E-5	20.893175
2177.582008	-2.999600	3.273000	-9.816400	27.191826	7.922231E-5	20.896741
2178.582370	-2.989600	3.273800	-9.786400	27.147111	7.740718E-5	20.900605
2179.581854	-2.979600	3.273400	-9.752800	27.196311	7.783621E-5	20.904571
2180.581854	-2.996600	3.272700	-9.806200	27.251494	7.991536E-5	20.893695
2181.586145	-2.972500	3.274000	-9.731400	27.255187	7.902430E-5	20.897884
2182.582479	-2.964400	3.275900	-9.710800	27.204350	7.753919E-5	20.909337
2183.582217	-2.990400	3.271000	-9.780400	27.164702	7.760520E-5	20.891745
2184.582834	-2.972000	3.273200	-9.727500	27.171917	7.628510E-5	20.911328
2185.581387	-2.984300	3.274000	-9.769500	27.151223	7.711016E-5	20.927497
2186.582323	-2.977100	3.270200	-9.734400	27.118567	7.796822E-5	20.908405
2187.582117	-3.007300	3.269900	-9.832700	27.113057	7.354590E-5	20.904761
2188.582343	-2.969400	3.270000	-9.709300	27.159529	7.714316E-5	20.901241
2189.585706	-2.985000	3.269700	-9.759300	27.173619	7.549304E-5	20.917307
2190.581638	-3.016600	3.268700	-9.858600	27.172553	7.592207E-5	20.918605
2191.581844	-2.985700	3.268700	-9.758700	27.221625	7.621909E-5	20.912488
2192.584782	-3.003800	3.267000	-9.812600	27.275835	7.532803E-5	20.915332
2193.582206	-2.998900	3.268700	-9.801700	27.264019	7.384292E-5	20.883535
2194.583584	-3.001000	3.267600	-9.805000	27.235690	7.496500E-5	20.917151
2195.586484	-2.991100	3.266500	-9.770000	27.232858	7.443696E-5	20.903872
2196.583899	-2.996400	3.267300	-9.789500	27.227222	7.413994E-5	20.904841
2197.585527	-2.971000	3.267100	-9.705300	27.290732	7.516302E-5	20.899972
2198.587914	-2.997200	3.266200	-9.788700	27.285170	7.192878E-5	20.910498
2199.585660	-2.987400	3.265000	-9.751800	27.255522	7.314987E-5	20.898221
2200.585014	-2.989700	3.264700	-9.760100	27.260482	7.146675E-5	20.915062
2201.589130	-3.010500	3.265500	-9.829600	27.252366	7.004764E-5	20.888883
2202.586379	-2.994000	3.263600	-9.770200	27.279654	7.196178E-5	20.890726
2203.584900	-3.009000	3.263000	-9.817500	27.317659	7.248982E-5	20.882489
2204.586598	-3.023500	3.263200	-9.865300	27.365634	7.258883E-5	20.880490
2205.585155	-3.002400	3.263200	-9.796200	27.342190	7.103771E-5	20.888200
2206.584888	-3.007800	3.262700	-9.813000	27.261607	7.100471E-5	20.889169
2207.588647	-3.022000	3.262200	-9.857500	27.195808	6.829851E-5	20.879411
2208.587426	-2.987400	3.261300	-9.742400	27.237984	6.843052E-5	20.905236
2209.586572	-3.011800	3.260600	-9.819400	27.201535	6.945360E-5	20.899394
2210.589122	-2.977700	3.262200	-9.712700	27.278893	6.862854E-5	20.891383
2211.588280	-3.004100	3.261000	-9.795700	27.266183	6.800149E-5	20.885237
2212.586786	-3.008900	3.260700	-9.810800	27.253853	6.859554E-5	20.891801
2213.586665	-3.006200	3.259900	-9.799300	27.269999	6.579033E-5	20.881490
2214.590076	-2.990100	3.259300	-9.744500	27.320461	6.509728E-5	20.903324
2215.587416	-3.012200	3.258400	-9.814300	27.309042	6.476726E-5	20.881882
2216.589795	-3.031900	3.260000	-9.882700	27.346406	6.549331E-5	20.874898
2217.590631	-3.036000	3.259000	-9.893400	27.367887	6.740745E-5	20.884653
2218.588155	-2.988600	3.257800	-9.735100	27.327819	6.480026E-5	20.896976
2219.589838	-2.971600	3.258900	-9.683300	27.333450	6.311713E-5	20.882728
2220.592199	-2.999800	3.258300	-9.773000	27.339078	6.536130E-5	20.880329
2221.587583	-3.023500	3.256400	-9.844600	27.318363	6.628537E-5	20.887940
2222.589421	-3.016000	3.255900	-9.819400	27.315634	6.334815E-5	20.873341
2223.591711	-3.008900	3.254300	-9.791500	27.334562	6.443723E-5	20.903284
2224.588044	-2.999000	3.255500	-9.762600	27.331086	6.565832E-5	20.893625
2225.589633	-3.003900	3.254800	-9.775900	27.363359	6.318314E-5	20.883417
2226.590326	-3.005500	3.254700	-9.781800	27.421726	6.463525E-5	20.886658
2227.588252	-3.007200	3.255100	-9.787700	27.405058	6.275411E-5	20.867520
2228.591762	-3.032200	3.253400	-9.864000	27.397267	6.209406E-5	20.889553
2229.592945	-3.028300	3.252600	-9.848400	27.382406	6.404120E-5	20.889301
2230.590074	-3.013400	3.252700	-9.800300	27.341174	6.311713E-5	20.882437
2231.591515	-3.004900	3.251900	-9.770800	27.375259	6.579033E-5	20.875474
2232.592948	-3.015200	3.252300	-9.805400	27.354618	6.483326E-5	20.880314
2233.589016	-2.990500	3.251500	-9.722800	27.367045	6.229207E-5	20.887599
2234.589247	-3.013000	3.250900	-9.792800	27.400805	6.357917E-5	20.876992
2235.592519	-3.008400	3.250900	-9.779000	27.414547	6.282011E-5	20.885126
2236.592722	-3.020600	3.249500	-9.814900	27.354516	6.126900E-5	20.882582
2237.596458	-3.012000	3.251100	-9.791800	27.386588	6.116999E-5	20.887818
2238.594035	-3.009500	3.249700	-9.779200	27.391551	5.978389E-5	20.880958
2239.591260	-2.997100	3.249800	-9.738800	27.364456	6.255609E-5	20.865556
2240.593394	-2.983700	3.248100	-9.690500	27.370682	6.004791E-5	20.875611
2241.599983	-3.005300	3.248400	-9.761400	27.380302	5.978389E-5	20.856367
2242.594274	-3.009600	3.248400	-9.775900	27.427529	5.961888E-5	20.895340
2243.592307	-3.004800	3.248000	-9.759200	27.460147	5.988290E-5	20.876000
2244.594169	-3.012700	3.246600	-9.780000	27.415320	5.849680E-5	20.879740
2245.593749	-3.007500	3.245600	-9.760300	27.418296	5.826578E-5	20.856182
2246.597517	-3.002100	3.247100	-9.747200	27.408500	5.915684E-5	20.871457
2247.597895	-2.989100	3.246000	-9.701900	27.440570	5.681367E-5	20.860573
2248.595472	-2.995600	3.246200	-9.723300	27.419629	5.562559E-5	20.877436
2249.595665	-2.991900	3.245100	-9.708200	27.374779	5.869481E-5	20.866457
2250.599773	-3.005600	3.244700	-9.751600	27.441411	5.882682E-5	20.865686
2251.599260	-3.006700	3.244600	-9.754600	27.453411	5.780375E-5	20.863534
2252.599347	-3.006400	3.243800	-9.750800	27.445420	5.697869E-5	20.872564
2253.601906	-2.983400	3.243600	-9.675900	27.427581	5.744072E-5	20.867419
2254.598689	-2.970000	3.243900	-9.634500	27.446560	5.750672E-5	20.864228
2255.598701	-2.991600	3.242600	-9.699700	27.492300	5.800176E-5	20.866149
2256.607325	-3.007600	3.242500	-9.751500	27.469752	5.519655E-5	20.870016
2257.598859	-3.011400	3.241200	-9.759300	27.474014	5.559258E-5	20.856288
2258.601684	-2.999300	3.240600	-9.718200	27.505615	5.833178E-5	20.884286
2259.604689	-3.036200	3.240100	-9.836800	27.521515	5.615362E-5	20.859033
2260.600831	-2.998800	3.241400	-9.719400	27.475354	5.757273E-5	20.863800
2261.599735	-2.994100	3.239600	-9.699000	27.429118	5.483353E-5	20.864698
2262.604566	-3.004000	3.240100	-9.732100	27.451220	5.628563E-5	20.861330
2263.600101	-2.988000	3.239700	-9.679800	27.540985	5.480053E-5	20.858708
2264.603820	-3.010600	3.239100	-9.750900	27.556533	5.414048E-5	20.868661
2265.600291	-2.997900	3.237400	-9.704700	27.612336	5.493254E-5	20.861747
2266.612453	-2.992200	3.237400	-9.686200	27.604403	5.456951E-5	20.871308
2267.602667	-3.001200	3.238400	-9.718000	27.603137	5.460251E-5	20.851543
2268.601280	-3.018900	3.236900	-9.770400	27.607149	5.532856E-5	20.858899
2269.600008	-3.014600	3.237200	-9.758200	27.596212	5.628563E-5	20.858326
2270.600140	-3.013700	3.237200	-9.755400	27.518554	5.506455E-5	20.866485
2271.603810	-3.024600	3.234500	-9.781600	27.469864	5.410747E-5	20.859224
2272.601902	-2.975600	3.235400	-9.626400	27.456369	5.443750E-5	20.862717
2273.603389	-2.992900	3.234000	-9.677400	27.429079	5.410747E-5	20.862288
2274.601478	-2.985200	3.234200	-9.653600	27.467057	5.404147E-5	20.870150
2275.603745	-3.021600	3.233900	-9.770600	27.498904	5.555958E-5	20.854777
2276.603519	-3.019000	3.232900	-9.759600	27.481885	5.526256E-5	20.846663
2277.608961	-3.002800	3.233100	-9.707800	27.463878	5.308440E-5	20.847038
2278.605028	-2.970000	3.233100	-9.601300	27.442346	5.130227E-5	20.858092
2279.603934	-3.027900	3.231600	-9.783500	27.452588	5.371145E-5	20.857964
2280.606754	-2.999500	3.233400	-9.697900	27.440263	5.371145E-5	20.861213
2281.606932	-2.993000	3.232400	-9.673300	27.504282	5.476752E-5	20.837428
2282.604960	-3.010400	3.230700	-9.725200	27.530624	5.265537E-5	20.867723
2283.606838	-2.988100	3.231300	-9.654500	27.581565	5.037820E-5	20.856864
2284.609667	-3.006400	3.231500	-9.714300	27.561375	5.235835E-5	20.844137
2285.608482	-3.003800	3.230600	-9.703400	27.482698	5.041120E-5	20.854592
2286.611991	-2.988700	3.230400	-9.654000	27.449113	4.872808E-5	20.841193
2287.606874	-3.002000	3.229200	-9.693500	27.500061	4.932212E-5	20.837923
2288.606961	-3.001900	3.228700	-9.691700	27.573673	5.044421E-5	20.847027
2289.607574	-3.001900	3.228400	-9.690800	27.588675	5.110425E-5	20.854061
2290.610379	-2.998100	3.229000	-9.680300	27.585528	4.952014E-5	20.837145
2291.609945	-2.996000	3.229600	-9.675400	27.648447	4.813404E-5	20.827436
2292.607124	-3.008600	3.228500	-9.712200	27.621141	4.889309E-5	20.839788
2293.610325	-3.010000	3.224900	-9.706600	27.619580	4.862907E-5	20.843432
2294.607776	-3.014300	3.225100	-9.720600	27.639765	4.945413E-5	20.844303
2295.609380	-3.006800	3.226500	-9.700500	27.624517	4.882709E-5	20.843185
2296.609577	-2.993400	3.225100	-9.652000	27.560474	4.968515E-5	20.838964
2297.607677	-3.010200	3.224900	-9.706100	27.590631	4.836505E-5	20.839434
2298.610137	-2.989800	3.224700	-9.639600	27.669128	4.747399E-5	20.826434
2299.610326	-2.990600	3.225000	-9.644100	27.601093	4.919011E-5	20.829098
2300.609726	-3.013700	3.222600	-9.711600	27.585521	4.595588E-5	20.834767
2301.610977	-3.010300	3.222000	-9.698500	27.566987	4.902510E-5	20.843146
2302.611720	-3.012200	3.223100	-9.707300	27.564635	4.796902E-5	20.836985
2303.614658	-2.987400	3.221900	-9.624300	27.627179	4.790302E-5	20.816941
2304.610713	-3.023000	3.220900	-9.735500	27.637050	4.806803E-5	20.840623
2305.618170	-3.003500	3.220100	-9.670400	27.618373	4.829905E-5	20.822779
2306.612250	-3.000300	3.220400	-9.661000	27.576704	4.707796E-5	20.828267
2307.611852	-2.995400	3.220600	-9.646100	27.587416	4.770501E-5	20.847105
2308.617537	-2.993100	3.219300	-9.635400	27.585827	4.744099E-5	20.834600
2309.612660	-2.987400	3.220300	-9.620000	27.567866	4.839806E-5	20.830280
2310.614761	-3.017200	3.220300	-9.715600	27.624137	4.585687E-5	20.832845
2311.638189	-2.982100	3.219900	-9.601300	27.696383	4.684694E-5	20.851015
2312.612275	-2.996700	3.217300	-9.640700	27.736462	4.612089E-5	20.829707
2313.613004	-2.985100	3.218500	-9.606700	27.744363	4.671493E-5	20.839554
2314.615932	-2.989000	3.217200	-9.615700	27.731367	4.328268E-5	20.839752
2315.615621	-2.999200	3.215300	-9.642800	27.777587	4.450377E-5	20.823203
2316.615278	-3.018300	3.213800	-9.699900	27.796433	4.678094E-5	20.810401
2317.618639	-3.008100	3.215300	-9.671400	27.817107	4.291965E-5	20.841638
2318.619853	-2.954800	3.217000	-9.505000	27.794467	4.338169E-5	20.836398
2319.615349	-2.964200	3.216000	-9.532100	27.740231	4.417375E-5	20.840138
2320.621331	-3.007100	3.213500	-9.662700	27.677261	4.509781E-5	20.828928
2321.615919	-2.999400	3.215200	-9.642700	27.697498	4.351370E-5	20.818472
2322.619393	-2.986500	3.213300	-9.596000	27.800262	4.351370E-5	20.824686
2323.617678	-3.000700	3.213200	-9.641200	27.858802	4.542784E-5	20.823858
2324.618952	-2.999900	3.214100	-9.640900	27.860609	4.298566E-5	20.847961
2325.617473	-3.005500	3.210700	-9.649500	27.845508	4.318367E-5	20.825652
2326.619786	-3.007800	3.210600	-9.656300	27.793852	4.423975E-5	20.833408
2327.618942	-3.032900	3.211600	-9.739800	27.679033	4.216060E-5	20.832608
2328.619277	-3.005100	3.212300	-9.651700	27.646049	4.334869E-5	20.822651
2329.619865	-2.992700	3.210100	-9.605500	27.699537	4.219360E-5	20.815783
2330.618135	-3.013000	3.209200	-9.668800	27.715923	4.242462E-5	20.844600
2331.619719	-2.991500	3.209400	-9.600200	27.631779	4.183057E-5	20.830103
2332.621524	-2.976800	3.209100	-9.552000	27.611119	4.394273E-5	20.824962
2333.618244	-3.003300	3.208900	-9.635700	27.648514	4.186358E-5	20.841727
2334.619501	-2.971000	3.208500	-9.530900	27.687424	4.199559E-5	20.823034
2335.619643	-2.979600	3.208500	-9.559500	27.637620	4.117053E-5	20.834084
2336.619260	-2.991400	3.207800	-9.595200	27.690866	4.318367E-5	20.827446
2337.618475	-2.972000	3.207900	-9.532100	27.753902	4.268864E-5	20.830663
2338.619157	-2.978500	3.206300	-9.548200	27.724366	4.021346E-5	20.818958
2339.617615	-2.998400	3.205000	-9.608800	27.703159	4.021346E-5	20.854514
2340.619978	-3.003500	3.203900	-9.622300	27.701795	3.905837E-5	20.831331
2341.623060	-3.020600	3.204200	-9.678400	27.703775	4.090651E-5	20.817203
2342.619156	-2.997700	3.204100	-9.603100	27.743379	3.849733E-5	20.810115
2343.619295	-2.997300	3.202800	-9.599300	27.696183	3.859634E-5	20.810038
2344.619041	-2.984100	3.202500	-9.556100	27.742159	3.869534E-5	20.838284
2345.619949	-3.021200	3.202400	-9.674400	27.816499	4.130254E-5	20.831070
2346.619091	-3.014900	3.202200	-9.653500	27.864256	4.021346E-5	20.834088
2347.623941	-2.995400	3.201000	-9.587300	27.868320	3.882735E-5	20.821584
2348.620860	-3.003800	3.200900	-9.613800	27.816394	3.872835E-5	20.809153
2349.619413	-3.016900	3.199400	-9.651300	27.817632	3.922338E-5	20.831735
2350.624237	-2.987500	3.200200	-9.559300	27.763745	4.100551E-5	20.828714
2351.620367	-2.995200	3.200000	-9.583800	27.737184	3.892636E-5	20.818106
2352.621415	-2.996800	3.198300	-9.584200	27.739367	3.836532E-5	20.807975
2353.626477	-2.994200	3.197900	-9.573700	27.717440	3.767227E-5	20.824316
2354.626014	-3.019800	3.196900	-9.653400	27.693684	3.717723E-5	20.806100
2355.622142	-2.985600	3.197400	-9.545300	27.659627	3.569212E-5	20.815452
2356.625562	-3.008200	3.195700	-9.612300	27.666520	3.740825E-5	20.808637
2357.624817	-3.007600	3.196100	-9.610500	27.700298	3.684721E-5	20.825084
2358.630106	-2.977000	3.195000	-9.510300	27.762068	3.783728E-5	20.832242
2359.629517	-2.986500	3.196500	-9.545600	27.807594	3.707823E-5	20.829220
2360.625495	-3.004600	3.193800	-9.595400	27.813519	3.523009E-5	20.801044
2361.625610	-2.991600	3.194600	-9.556200	27.838566	3.546111E-5	20.793061
2362.626350	-3.020200	3.192300	-9.640800	27.795710	3.631917E-5	20.800665
2363.626671	-2.987000	3.193300	-9.537900	27.831766	3.631917E-5	20.813244
2364.626198	-3.001700	3.191000	-9.577500	27.857854	3.357997E-5	20.800619
2365.627019	-2.994300	3.193200	-9.560100	27.861940	3.876135E-5	20.827964
2366.629205	-3.017400	3.190800	-9.626800	27.903942	3.618716E-5	20.806228
2367.631070	-2.997500	3.190500	-9.563200	27.885073	3.618716E-5	20.806203
2368.631475	-2.989900	3.190500	-9.538600	27.895069	3.536210E-5	20.815314
2369.631314	-2.980900	3.189800	-9.507000	27.930000	3.519709E-5	20.795945
2370.631232	-2.986100	3.190800	-9.527500	27.977896	3.480106E-5	20.806221
2371.634221	-3.011900	3.187400	-9.598900	28.007825	3.463605E-5	20.798889
2372.633842	-3.014100	3.188300	-9.608000	28.005097	3.513108E-5	20.816532
2373.633533	-3.027000	3.185700	-9.642000	28.009836	3.344796E-5	20.797120
2374.635605	-2.992600	3.187200	-9.537200	27.987690	3.189685E-5	20.784311
2375.633865	-2.987000	3.186900	-9.518400	27.957622	3.305193E-5	20.794823
2376.635749	-2.982300	3.186400	-9.501300	27.930169	3.407501E-5	20.812236
2377.636736	-3.005800	3.184000	-9.569900	27.869970	3.457004E-5	20.806649
2378.636401	-3.007200	3.185000	-9.577500	27.765377	3.225987E-5	20.802856
2379.639052	-3.001000	3.184000	-9.554100	27.722501	3.245789E-5	20.800485
2380.637880	-3.030900	3.181900	-9.643200	27.772445	3.166583E-5	20.831305
2381.638418	-3.003200	3.182500	-9.557400	27.811624	3.258990E-5	20.822844
2382.637134	-2.990200	3.182500	-9.515800	27.851695	3.074176E-5	20.805800
2383.638555	-3.001800	3.180400	-9.545600	27.850949	3.443803E-5	20.803627
2384.637381	-2.981400	3.182900	-9.487900	27.826180	3.150082E-5	20.782492
2385.637389	-3.018500	3.180700	-9.599500	27.831584	3.120379E-5	20.794095
2386.638139	-3.027900	3.179200	-9.625400	27.821145	3.262290E-5	20.801607
2387.640429	-2.995000	3.179000	-9.520200	27.796245	3.011471E-5	20.799781
2388.639831	-2.983300	3.178400	-9.480400	27.821419	3.206186E-5	20.809469
2389.641298	-3.012600	3.177900	-9.573100	27.919011	3.268890E-5	20.802428
2390.640391	-3.014100	3.176700	-9.572900	27.975614	3.087377E-5	20.802976
2391.641118	-2.987500	3.176300	-9.488600	28.064294	3.173183E-5	20.792669
2392.640885	-2.990700	3.174900	-9.493800	27.999765	3.140181E-5	20.788879
2393.640084	-2.968500	3.176300	-9.428300	28.003530	3.222687E-5	20.778444
2394.643566	-3.008500	3.174400	-9.548600	28.010793	3.159982E-5	20.779591
2395.640729	-2.987100	3.173600	-9.479200	27.950222	3.225987E-5	20.776944
2396.643621	-2.991800	3.173200	-9.492800	27.936265	2.862961E-5	20.784233
2397.646593	-3.004800	3.173400	-9.534200	27.912461	2.813457E-5	20.785405
2398.644202	-3.002900	3.171200	-9.521800	27.878120	2.859660E-5	20.774548
2399.644233	-2.989200	3.170700	-9.477100	27.843728	2.925665E-5	20.784980
2400.646970	-3.005200	3.170900	-9.528600	27.876235	2.800256E-5	20.773126
2401.647370	-3.003700	3.170700	-9.522900	27.934030	2.882762E-5	20.796682
2402.645674	-3.003900	3.169000	-9.517900	28.008212	2.711149E-5	20.781735
2403.646712	-3.005500	3.167800	-9.518900	28.056730	2.711149E-5	20.788847
2404.646490	-3.042100	3.166900	-9.633600	28.132911	2.985070E-5	20.792991
2405.650525	-2.990600	3.166600	-9.468700	28.179416	2.853060E-5	20.788126
2406.647607	-2.993200	3.167200	-9.479200	28.167170	2.707849E-5	20.771056
2407.646378	-2.979300	3.166200	-9.432100	28.118686	2.671546E-5	20.784835
2408.648740	-3.035900	3.164000	-9.604900	28.124588	2.813457E-5	20.781293
2409.648665	-3.002000	3.164900	-9.500000	28.146802	2.579140E-5	20.760033
2410.648710	-2.998100	3.163400	-9.483700	28.067447	2.592341E-5	20.786360
2411.647592	-2.983600	3.163200	-9.435900	28.006289	2.780454E-5	20.778377
2412.648705	-3.003400	3.161900	-9.496100	27.978198	2.602241E-5	20.774283
2413.647954	-3.018500	3.161400	-9.541400	28.034552	2.480132E-5	20.772687
2414.647316	-3.021900	3.161200	-9.552500	27.996126	2.513135E-5	20.765776
2415.647469	-3.022900	3.160300	-9.552300	27.939573	2.546137E-5	20.768596
2416.649182	-2.963500	3.161800	-9.368900	27.917857	2.615442E-5	20.761437
2417.646479	-2.998900	3.158400	-9.471000	27.929413	2.424028E-5	20.779233
2418.648886	-3.009500	3.158000	-9.503500	27.948383	2.737551E-5	20.754703
2419.646918	-3.033000	3.156700	-9.573300	27.995887	2.509835E-5	20.762690
2420.648559	-3.001500	3.158000	-9.478000	27.944192	2.565939E-5	20.774194
2421.648256	-3.009500	3.156100	-9.497700	27.920019	2.453730E-5	20.765510
2422.648816	-2.985200	3.156700	-9.422800	28.016342	2.397626E-5	20.774746
2423.648352	-2.993700	3.153800	-9.441000	28.008060	2.275517E-5	20.749813
2424.649799	-3.008600	3.152700	-9.483400	28.042099	2.420728E-5	20.747566
2425.647468	-3.017300	3.153200	-9.512800	28.089254	2.351423E-5	20.767534
2426.649004	-3.002200	3.152100	-9.462600	28.060747	2.249115E-5	20.778192
2427.649127	-3.000700	3.150600	-9.453100	27.998101	2.226014E-5	20.756384
2428.649605	-3.004000	3.151300	-9.465900	28.017464	2.090704E-5	20.754063
2429.649412	-2.986800	3.149700	-9.406500	28.062954	2.311820E-5	20.756706
2430.647959	-3.006600	3.149300	-9.468400	28.111251	2.219413E-5	20.762176
2431.648885	-2.996700	3.147900	-9.433100	28.126495	2.117106E-5	20.770885
2432.648696	-3.005700	3.146600	-9.456700	28.068561	2.288718E-5	20.741486
2433.650498	-2.967600	3.146900	-9.338000	28.033831	2.169910E-5	20.780021
2434.649297	-2.982500	3.147000	-9.385200	28.013653	2.163309E-5	20.752597
2435.650477	-2.985700	3.144800	-9.388600	28.093852	2.397626E-5	20.768843
2436.652395	-2.996400	3.144100	-9.419900	28.170550	2.100605E-5	20.754069
2437.650936	-2.979200	3.144500	-9.366900	28.153078	2.318421E-5	20.760662
2438.651820	-2.983600	3.144500	-9.380600	28.186296	2.348123E-5	20.761387
2439.658920	-2.963500	3.143000	-9.313000	28.211307	2.239215E-5	20.760962
2440.651155	-3.018400	3.140900	-9.478800	28.225088	2.044500E-5	20.759664
2441.650580	-2.995800	3.141700	-9.410100	28.185773	2.410827E-5	20.757541
2442.651219	-2.985300	3.139400	-9.371200	28.140189	2.127006E-5	20.777558
2443.652287	-2.990500	3.138300	-9.384600	28.023576	2.031299E-5	20.770647
2444.652755	-2.966300	3.139400	-9.310900	28.020254	1.968595E-5	20.754027
2445.652434	-2.992700	3.137600	-9.389400	27.995608	1.998297E-5	20.757194
2446.650905	-2.989500	3.136500	-9.376200	28.000298	2.229314E-5	20.757647
2447.650829	-2.969100	3.135800	-9.309900	28.047800	1.915791E-5	20.753305
2448.651389	-2.985000	3.135700	-9.358900	28.088357	2.117106E-5	20.759993
2449.651356	-2.987200	3.134000	-9.360700	28.139226	2.275517E-5	20.754303
2450.653106	-2.994200	3.132500	-9.378600	28.253696	2.179810E-5	20.769027
2451.653877	-2.997900	3.132800	-9.390300	28.314843	1.876188E-5	20.765633
2452.652374	-3.008900	3.130700	-9.419200	28.299226	2.229314E-5	20.752753
2453.654252	-3.020300	3.128900	-9.448900	28.293230	2.235914E-5	20.749561
2454.658962	-3.013700	3.130800	-9.434700	28.284005	2.189711E-5	20.738850
2455.659503	-2.992900	3.129700	-9.366100	28.332190	2.080803E-5	20.772668
2456.662165	-2.991100	3.128900	-9.357200	28.329312	2.153408E-5	20.742742
2457.654971	-3.019200	3.127300	-9.441400	28.307126	1.948793E-5	20.757863
2458.654879	-3.031100	3.126100	-9.474600	28.291290	1.839885E-5	20.752350
2459.654414	-2.993700	3.126000	-9.357600	28.246355	1.909190E-5	20.745987
2460.658662	-2.971200	3.125600	-9.285800	28.288293	1.998297E-5	20.764030
2461.655649	-3.018200	3.122200	-9.422200	28.345741	1.876188E-5	20.766398
2462.654475	-3.015700	3.123100	-9.416900	28.279440	1.965295E-5	20.742788
2463.655912	-2.996800	3.121100	-9.351400	28.244808	1.602268E-5	20.751069
2464.657565	-3.006800	3.120300	-9.381200	28.153989	1.839885E-5	20.746879
2465.655645	-3.002300	3.119600	-9.365300	28.117894	2.027999E-5	20.767442
2466.657368	-2.961300	3.120800	-9.240700	28.150565	1.912491E-5	20.756709
2467.656932	-2.990800	3.118900	-9.326200	28.112411	2.001597E-5	20.737739
2468.662784	-3.005400	3.117600	-9.369100	28.084997	1.777181E-5	20.755188
2469.657319	-2.982800	3.117800	-9.299100	28.112239	1.744178E-5	20.762223
2470.658169	-3.000800	3.115400	-9.347800	28.189727	1.836585E-5	20.751090
2471.656900	-2.992500	3.114300	-9.318800	28.256927	1.707876E-5	20.739561
2472.657500	-2.980600	3.114300	-9.280600	28.252688	1.985096E-5	20.771805
2473.656623	-2.996100	3.113600	-9.328000	28.212931	1.628670E-5	20.759278
2474.658431	-3.010900	3.112100	-9.369600	28.220713	1.572566E-5	20.754785
2475.658805	-3.018500	3.111000	-9.389200	28.308806	1.470258E-5	20.766667
2476.659986	-2.999800	3.110300	-9.329200	28.376343	1.727677E-5	20.763072
2477.658783	-3.011400	3.109100	-9.362000	28.431260	1.536263E-5	20.758153
2478.658462	-3.011400	3.107600	-9.356900	28.382411	1.625370E-5	20.758277
2479.659146	-2.998800	3.107100	-9.316400	28.415918	1.226040E-5	20.749816
2480.658840	-2.974900	3.106200	-9.239500	28.394753	1.486759E-5	20.756005
2481.660010	-3.005800	3.105500	-9.332900	28.344121	1.420755E-5	20.756232
2482.658786	-3.012300	3.104200	-9.349600	28.282157	1.367951E-5	20.764491
2483.660610	-2.979100	3.103200	-9.243600	28.233428	1.595667E-5	20.770906
2484.661163	-2.972700	3.102200	-9.221200	28.276657	1.288745E-5	20.761324
2485.664916	-3.005700	3.101400	-9.321100	28.361545	1.625370E-5	20.769034
2486.663454	-2.994000	3.098800	-9.277100	28.358744	1.163336E-5	20.763843
2487.662601	-3.021200	3.099400	-9.363200	28.296858	1.295345E-5	20.781663
2488.664047	-3.008300	3.098400	-9.319100	28.304765	1.414154E-5	20.764020
2489.664415	-3.010000	3.097700	-9.323000	28.289224	1.338248E-5	20.752640
2490.663932	-3.017200	3.096400	-9.341800	28.248154	1.305246E-5	20.765344
2491.663732	-3.034300	3.095000	-9.390400	28.205895	1.140234E-5	20.774006
2492.665226	-3.009300	3.093400	-9.308100	28.261218	1.427355E-5	20.766168
2493.667103	-3.013900	3.091800	-9.316200	28.328191	1.387752E-5	20.764848
2494.662831	-3.014800	3.090900	-9.317400	28.364300	1.272244E-5	20.765170
2495.665066	-2.994000	3.091400	-9.255000	28.367051	1.387752E-5	20.777898
2496.664977	-2.983200	3.091800	-9.222500	28.322814	1.206239E-5	20.750425
2497.666297	-2.977800	3.089300	-9.198500	28.319764	1.364650E-5	20.769165
2498.664917	-3.014400	3.087800	-9.307200	28.334735	1.265643E-5	20.777601
2499.664934	-2.978200	3.087400	-9.193700	28.360659	1.173236E-5	20.771462
2500.663970	-3.020000	3.085000	-9.315100	28.360908	1.219440E-5	20.766497
2501.666588	-2.977800	3.086500	-9.190600	28.322470	8.399118E-6	20.769045
2502.664105	-3.013100	3.083500	-9.290300	28.344578	1.183137E-5	20.767597
2503.666628	-3.016200	3.083300	-9.298600	28.325098	9.521201E-6	20.784020
2504.666911	-2.970900	3.081200	-9.152700	28.295480	1.146834E-5	20.774112
2505.665694	-3.002500	3.080500	-9.248600	28.277658	1.094031E-5	20.781773
2506.664865	-2.970300	3.080200	-9.148600	28.244049	9.950232E-6	20.780651
2507.668030	-3.008400	3.078600	-9.260200	28.258051	9.224179E-6	20.776730
2508.666858	-2.988200	3.077400	-9.195500	28.246755	8.795147E-6	20.775315
2509.666702	-3.013700	3.075800	-9.268300	28.247571	1.074229E-5	20.756695
2510.669560	-2.994500	3.074500	-9.205700	28.315462	1.014825E-5	20.766730
2511.670830	-2.994600	3.074200	-9.205300	28.317124	6.947011E-6	20.761291
2512.667487	-3.014500	3.072300	-9.259800	28.349343	1.001624E-5	20.762912
2513.669033	-2.987300	3.071900	-9.176100	28.338269	1.057728E-5	20.785428
2514.669293	-3.000900	3.070100	-9.212000	28.318737	9.950232E-6	20.778089
2515.667375	-3.017800	3.069400	-9.262100	28.316407	9.785220E-6	20.790916
2516.669910	-2.998100	3.068800	-9.198800	28.377850	9.488198E-6	20.785452
2517.668126	-2.986900	3.066800	-9.159100	28.383771	8.861152E-6	20.778138
2518.667665	-3.004600	3.064800	-9.207700	28.368509	9.983235E-6	20.780314
2519.670895	-3.005400	3.065200	-9.210600	28.432573	9.092169E-6	20.776072
2520.669281	-3.011700	3.063800	-9.226500	28.478148	7.739070E-6	20.777869
2521.672511	-3.018000	3.063100	-9.244200	28.416813	9.917230E-6	20.774426
2522.672678	-2.995900	3.060600	-9.167800	28.375101	6.616987E-6	20.784108
2523.669622	-2.963900	3.060800	-9.070800	28.353468	8.168101E-6	20.787455
2524.669084	-2.993900	3.058400	-9.156000	28.341028	6.352968E-6	20.783464
2525.669934	-2.994700	3.057100	-9.153400	28.413345	6.616987E-6	20.795590
2526.669017	-2.994200	3.056400	-9.150100	28.437359	1.008224E-5	20.786107
2527.669700	-2.987700	3.055300	-9.127800	28.445364	9.356189E-6	20.778995
2528.670099	-3.007100	3.053700	-9.182400	28.544612	7.112024E-6	20.777947
2529.670276	-2.987200	3.053600	-9.120500	28.589633	9.488198E-6	20.779193
2530.671277	-3.013200	3.052000	-9.194600	28.639291	8.993162E-6	20.777997
2531.671013	-3.017000	3.047800	-9.194600	28.665383	8.168101E-6	20.781043
2532.669881	-3.012300	3.048600	-9.182400	28.654777	1.001624E-5	20.786956
2533.670653	-2.992200	3.048000	-9.118800	28.665408	7.475050E-6	20.795767
2534.669505	-3.019000	3.045700	-9.194100	28.663598	1.014825E-5	20.801057
2535.670907	-3.021600	3.044300	-9.197800	28.628884	6.649990E-6	20.799284
2536.670194	-3.024800	3.043700	-9.204300	28.594246	9.059167E-6	20.798538
2537.670381	-3.002300	3.043600	-9.136800	28.612038	7.277036E-6	20.793697
2538.669827	-2.992200	3.042100	-9.101100	28.582501	8.399118E-6	20.798088
2539.669106	-2.978700	3.042500	-9.061700	28.580049	8.828150E-6	20.781868
2540.669855	-3.013300	3.039300	-9.157200	28.605152	7.310038E-6	20.789132
2541.670748	-3.018300	3.038200	-9.168400	28.601878	8.168101E-6	20.795792
2542.673205	-3.005800	3.036700	-9.126600	28.572147	6.781999E-6	20.795721
2543.671431	-3.016500	3.034900	-9.153600	28.595364	1.084130E-5	20.794921
2544.672734	-3.007900	3.034300	-9.126100	28.626084	9.950232E-6	20.791722
2545.671935	-2.971700	3.033300	-9.013100	28.581145	6.781999E-6	20.796722
2546.673254	-3.016900	3.031500	-9.145100	28.619549	9.554203E-6	20.782770
2547.673431	-3.019800	3.030400	-9.151000	28.618928	7.475050E-6	20.791627
2548.673438	-2.991500	3.030400	-9.064500	28.536292	7.112024E-6	20.790431
2549.673487	-3.015500	3.028000	-9.129600	28.573535	7.145026E-6	20.789532
2550.673231	-3.029300	3.025900	-9.165500	28.498699	9.158174E-6	20.794298
2551.673193	-3.008900	3.024800	-9.100700	28.549900	6.914009E-6	20.790859
2552.677066	-2.967000	3.024400	-8.972700	28.543730	6.881007E-6	20.796973
2553.672396	-3.018700	3.023000	-9.124400	28.548364	6.583985E-6	20.795002
2554.672648	-3.021700	3.019500	-9.123600	28.546432	6.319965E-6	20.787366
2555.672913	-2.998500	3.019700	-9.053900	28.573619	6.385970E-6	20.802419
2556.672290	-3.007600	3.018900	-9.078500	28.605531	6.121951E-6	20.784298
2557.672395	-3.026600	3.016700	-9.129200	28.587149	8.663138E-6	20.776691
2558.672837	-2.975700	3.016700	-8.976100	28.583235	9.257181E-6	20.802146
2559.674085	-3.037800	3.014300	-9.155300	28.548322	8.960159E-6	20.776468
2560.674371	-2.998200	3.013900	-9.034900	28.470069	8.564130E-6	20.790123
2561.676985	-2.984500	3.013100	-8.991800	28.492715	8.333113E-6	20.802971
2562.678495	-2.997500	3.011800	-9.026700	28.559474	7.739070E-6	20.787699
2563.681069	-2.985700	3.008500	-8.981700	28.528846	1.008224E-5	20.802373
2564.676328	-3.001400	3.007300	-9.025200	28.500723	8.036092E-6	20.814354
2565.677253	-3.017200	3.006100	-9.069100	28.432601	8.234106E-6	20.802178
2566.678034	-2.995600	3.005600	-9.002500	28.431712	9.983235E-6	20.811714
2567.679349	-3.010400	3.004300	-9.043700	28.427400	8.861152E-6	20.808321
2568.677473	-3.038600	3.001700	-9.120500	28.542999	8.168101E-6	20.822315
2569.676913	-3.015700	3.001500	-9.050600	28.628273	1.153435E-5	20.814789
2570.682310	-3.012600	2.999000	-9.033300	28.667065	1.103931E-5	20.813558
2571.680539	-3.013400	2.997700	-9.032600	28.716174	7.343041E-6	20.815132
2572.678705	-3.006700	2.995900	-9.006900	28.644968	7.937084E-6	20.808845
2573.687932	-2.996900	2.995000	-8.975400	28.554031	9.587206E-6	20.813986
2574.683081	-2.999400	2.995200	-8.981600	28.546175	7.541055E-6	20.801807
2575.679080	-3.036800	2.991600	-9.083900	28.551280	8.597133E-6	20.813586
2576.681334	-3.013300	2.991200	-9.012000	28.579205	1.024725E-5	20.808519
2577.684326	-3.004800	2.990200	-8.984000	28.671973	7.475050E-6	20.828458
2578.683658	-2.963600	2.990000	-8.860700	28.773329	9.290184E-6	20.822443
2579.686080	-3.014700	2.986600	-9.002200	28.821116	9.884227E-6	20.804199
2580.683505	-2.993900	2.985600	-8.937400	28.764336	9.059167E-6	20.821919
2581.682293	-3.005500	2.983300	-8.965800	28.731382	9.488198E-6	20.824286
2582.688420	-2.985600	2.981500	-8.899900	28.672240	9.125172E-6	20.808339
2583.685301	-2.994900	2.981900	-8.929500	28.615277	9.290184E-6	20.819718
2584.681399	-2.995700	2.980900	-8.929200	28.577712	8.300111E-6	20.822188
2585.684479	-2.984000	2.978900	-8.887800	28.575583	8.828150E-6	20.814828
2586.685901	-3.001200	2.977200	-8.933900	28.558135	9.290184E-6	20.808636
2587.682254	-2.988700	2.975100	-8.890800	28.593048	9.719215E-6	20.823883
2588.684097	-3.004800	2.973200	-8.933600	28.636065	9.587206E-6	20.820267
2589.689870	-2.992800	2.972100	-8.893400	28.673424	7.475050E-6	20.813324
2590.684666	-2.995600	2.971500	-8.900400	28.689729	7.211031E-6	20.802246
2591.685025	-2.979900	2.970400	-8.850700	28.655311	9.719215E-6	20.824003
2592.688410	-2.984900	2.969600	-8.863100	28.703651	9.620208E-6	20.828122
2593.684837	-3.001400	2.966900	-8.903900	28.783228	8.795147E-6	20.821035
2594.685430	-2.994700	2.965300	-8.879500	28.813796	8.927157E-6	20.839024
2595.688801	-2.999200	2.962900	-8.884600	28.780822	7.442048E-6	20.831887
2596.687280	-3.000100	2.961900	-8.885600	28.746333	9.488198E-6	20.834604
2597.688463	-3.014900	2.959900	-8.923000	28.768460	8.399118E-6	20.829866
2598.688478	-2.996700	2.958900	-8.865500	28.840449	6.121951E-6	20.835054
2599.686821	-3.017300	2.957600	-8.923500	28.892297	6.418973E-6	20.838447
2600.686728	-3.014200	2.955200	-8.906300	28.868514	5.494905E-6	20.818282
2601.688030	-3.035900	2.953500	-8.965800	28.884591	5.956939E-6	20.845382
2602.691155	-2.997800	2.954000	-8.854500	28.864626	7.541055E-6	20.820055
2603.688224	-2.982400	2.952000	-8.803100	28.928362	6.385970E-6	20.830684
2604.689922	-3.026900	2.949600	-8.927100	28.928239	5.395897E-6	20.835776
2605.688488	-2.995500	2.949500	-8.834000	28.968468	7.310038E-6	20.830312
2606.688614	-2.992300	2.948100	-8.821100	28.945477	6.385970E-6	20.839392
2607.692677	-3.002100	2.946000	-8.843400	28.886424	6.352968E-6	20.843436
2608.688190	-3.011700	2.945100	-8.868500	28.871138	5.197883E-6	20.837520
2609.688698	-3.023300	2.941700	-8.892800	28.809057	5.296890E-6	20.844207
2610.689067	-2.990200	2.941900	-8.796200	28.860239	7.046019E-6	20.836023
2611.689164	-3.012000	2.939400	-8.852500	28.844735	5.692919E-6	20.836051
2612.689122	-3.024900	2.936000	-8.880500	28.870049	7.013016E-6	20.819828
2613.687998	-2.987300	2.936400	-8.770300	28.827193	6.616987E-6	20.821226
2614.690022	-3.008500	2.935200	-8.829300	28.769047	7.178028E-6	20.850371
2615.690938	-3.015600	2.933000	-8.843600	28.742761	7.277036E-6	20.834799
2616.690741	-3.005900	2.930700	-8.808000	28.739490	8.234106E-6	20.819177
2617.690531	-3.035800	2.928500	-8.888600	28.696902	6.550982E-6	20.814687
2618.691319	-3.003800	2.928100	-8.794300	28.750640	7.838077E-6	20.831356
2619.692166	-3.018800	2.925300	-8.829100	28.818173	9.554203E-6	20.831579
2620.692398	-3.025600	2.924400	-8.847200	28.865638	9.290184E-6	20.840988
2621.691413	-3.014100	2.923200	-8.810100	28.826171	8.729143E-6	20.857653
2622.691556	-3.023700	2.920200	-8.828600	28.828401	8.795147E-6	20.844253
2623.691396	-3.007100	2.917600	-8.772400	28.864321	7.145026E-6	20.821643
2624.691829	-3.005200	2.917200	-8.766200	28.913839	8.069094E-6	20.853510
2625.692586	-3.022200	2.915800	-8.811000	28.992336	8.135099E-6	20.854833
2626.693215	-2.992100	2.914400	-8.719200	28.938825	9.785220E-6	20.857819
2627.693292	-3.015400	2.910700	-8.776000	28.921562	8.036092E-6	20.834739
2628.694052	-3.004800	2.909900	-8.741800	28.898300	6.815002E-6	20.864408
2629.694046	-3.011100	2.907600	-8.752600	28.880362	7.508053E-6	20.850131
2630.693899	-3.014300	2.908100	-8.765000	28.942836	7.937084E-6	20.860438
2631.695638	-3.011400	2.904900	-8.746500	28.916477	6.649990E-6	20.869917
2632.694049	-3.021900	2.902700	-8.770600	28.926880	7.145026E-6	20.846260
2633.696443	-3.010100	2.901100	-8.731700	28.936465	7.178028E-6	20.863976
2634.697046	-3.027300	2.898900	-8.774600	28.904233	9.125172E-6	20.867065
2635.695436	-2.981500	2.898400	-8.640100	28.849762	8.333113E-6	20.845857
2636.696062	-3.001000	2.897600	-8.695000	28.827489	6.881007E-6	20.853765
2637.696259	-3.019700	2.894700	-8.740000	28.821145	8.036092E-6	20.850220
2638.699173	-2.983700	2.893500	-8.633500	28.819877	7.640062E-6	20.871701
2639.697160	-2.995900	2.891600	-8.661900	28.777440	7.541055E-6	20.854558
2640.702698	-3.041000	2.889000	-8.785000	28.771145	6.848004E-6	20.870501
2641.699106	-2.981400	2.886800	-8.606200	28.798123	8.036092E-6	20.876339
2642.698728	-3.004700	2.885800	-8.670000	28.812834	5.758924E-6	20.847538
2643.702015	-3.009200	2.882500	-8.672900	28.839295	6.154953E-6	20.862339
2644.701172	-3.012600	2.881600	-8.679900	28.851329	6.385970E-6	20.888210
2645.698000	-2.963500	2.880900	-8.536900	28.903450	5.131878E-6	20.871018
2646.703188	-2.974000	2.878300	-8.558700	28.869805	8.135099E-6	20.879797
2647.704947	-3.028500	2.876000	-8.709600	28.891557	6.815002E-6	20.855719
2648.700065	-2.989000	2.874000	-8.589600	28.906787	8.993162E-6	20.875328
2649.702659	-3.005700	2.873200	-8.635300	28.898737	7.541055E-6	20.858684
2650.703717	-3.018500	2.869500	-8.660600	28.849759	6.055946E-6	20.878569
2651.698095	-3.006200	2.869300	-8.624600	28.830141	7.871079E-6	20.893419
2652.699893	-2.987000	2.865700	-8.559300	28.858231	7.145026E-6	20.884732
2653.702833	-2.993800	2.865300	-8.577500	28.857361	6.550982E-6	20.875321
2654.699827	-3.002500	2.861900	-8.592600	28.852749	7.673065E-6	20.888692
2655.705813	-3.009900	2.859800	-8.607100	28.852724	7.112024E-6	20.878711
2656.702092	-2.992200	2.858000	-8.550600	28.912372	7.079021E-6	20.887592
2657.699663	-3.009800	2.856200	-8.595800	28.967858	9.818223E-6	20.891809
2658.703399	-2.984300	2.855500	-8.521200	29.028687	9.752218E-6	20.900938
2659.704611	-3.003700	2.852600	-8.566800	29.055585	9.092169E-6	20.889634
2660.701583	-3.008900	2.849700	-8.574000	29.009069	8.135099E-6	20.884018
2661.705741	-3.010900	2.849000	-8.576900	29.003145	9.488198E-6	20.889903
2662.705637	-2.986500	2.847800	-8.503700	28.986006	8.069094E-6	20.879748
2663.703763	-2.988100	2.843600	-8.495800	29.019441	8.036092E-6	20.893993
2664.709797	-2.985700	2.844200	-8.491000	29.078707	9.257181E-6	20.887801
2665.706983	-2.994500	2.841400	-8.507700	29.180270	8.993162E-6	20.905740
2666.705252	-2.992900	2.838500	-8.494500	29.192826	1.193038E-5	20.890420
2667.712430	-2.998700	2.837200	-8.506500	29.239826	8.498126E-6	20.897953
2668.710334	-2.985800	2.834200	-8.460800	29.262631	7.310038E-6	20.888219
2669.709125	-2.994600	2.833800	-8.484700	29.242519	8.366116E-6	20.873642
2670.712225	-3.004400	2.829700	-8.500300	29.178946	6.980014E-6	20.901562
2671.710001	-2.980500	2.827900	-8.427800	29.144548	7.376043E-6	20.888711
2672.708248	-3.026800	2.824200	-8.546900	29.194446	9.224179E-6	20.891103
2673.710911	-2.975800	2.823400	-8.401200	29.165470	8.795147E-6	20.907421
2674.712265	-2.981200	2.821200	-8.409700	29.169750	8.168101E-6	20.902252
2675.708060	-3.008600	2.818800	-8.479800	29.234781	6.187956E-6	20.912782
2676.712053	-3.003300	2.815500	-8.455300	29.231287	1.028026E-5	20.909262
2677.718645	-2.992700	2.813700	-8.419100	29.259837	8.564130E-6	20.905791
2678.710963	-3.014500	2.810200	-8.469100	29.274272	8.135099E-6	20.908009
2679.714581	-3.000300	2.807800	-8.423400	29.266965	9.257181E-6	20.900172
2680.713769	-2.991000	2.803900	-8.384600	29.282344	9.521201E-6	20.902868
2681.713045	-2.987800	2.802800	-8.372700	29.365789	9.257181E-6	20.922480
2682.714875	-3.012900	2.801000	-8.438500	29.442490	9.290184E-6	20.926769
2683.713487	-3.005200	2.797000	-8.403900	29.366551	7.871079E-6	20.923722
2684.713337	-3.001800	2.794900	-8.388900	29.324901	6.286963E-6	20.910196
2685.717242	-3.018400	2.791700	-8.424800	29.217928	7.211031E-6	20.897696
2686.714234	-2.996100	2.789300	-8.356200	29.277109	8.531128E-6	20.922721
2687.713675	-3.009600	2.786600	-8.385400	29.339387	6.748997E-6	20.914838
2688.720172	-3.014700	2.782900	-8.388600	29.369890	6.649990E-6	20.925665
2689.714995	-3.002100	2.781400	-8.348900	29.365259	8.036092E-6	20.919102
2690.716249	-3.009700	2.777200	-8.357500	29.281568	6.517980E-6	20.920577
2691.718347	-2.962900	2.776400	-8.225900	29.327124	6.881007E-6	20.900584
2692.716481	-2.988700	2.773200	-8.287800	29.390958	7.079021E-6	20.917029
2693.716156	-3.017000	2.768900	-8.353100	29.453503	6.815002E-6	20.925067
2694.716791	-2.982200	2.766000	-8.248000	29.445082	6.980014E-6	20.914209
2695.717245	-2.992400	2.763800	-8.269200	29.452833	5.527907E-6	20.915858
2696.716996	-2.987400	2.760900	-8.246800	29.431415	4.966866E-6	20.927459
2697.715984	-2.993400	2.757700	-8.254100	29.409853	8.069094E-6	20.927537
2698.717744	-2.998100	2.754300	-8.257200	29.408122	5.824929E-6	20.931482
2699.718294	-2.986200	2.751600	-8.216000	29.362391	8.366116E-6	20.921426
2700.717122	-3.058100	2.746500	-8.398400	29.407925	6.682992E-6	20.925120
2701.718390	-3.018800	2.746000	-8.288600	29.495864	6.848004E-6	20.920825
2702.716438	-2.974800	2.744100	-8.162500	29.517579	6.220958E-6	20.919006
2703.715134	-2.994300	2.739000	-8.200700	29.432064	8.135099E-6	20.944707
2704.717906	-2.982100	2.735900	-8.157500	29.424119	6.947011E-6	20.927692
2705.716041	-3.016200	2.730500	-8.235000	29.491090	7.640062E-6	20.931658
2706.716835	-3.003700	2.728600	-8.194400	29.410600	9.191176E-6	20.912171
2707.719369	-3.020500	2.723600	-8.225300	29.401465	6.649990E-6	20.919084
2708.723423	-3.015700	2.720000	-8.201700	29.462567	8.927157E-6	20.938469
2709.717889	-3.009400	2.717600	-8.177700	29.473688	7.343041E-6	20.920757
2710.719751	-3.021800	2.712400	-8.195800	29.528727	8.168101E-6	20.905115
2711.720935	-2.992300	2.710900	-8.110800	29.575416	8.267109E-6	20.910454
2712.722983	-3.006000	2.707000	-8.136200	29.507356	7.937084E-6	20.920082
2713.722931	-2.984000	2.703600	-8.066900	29.513798	8.366116E-6	20.911402
2714.718754	-3.018700	2.698700	-8.145700	29.552835	9.851225E-6	20.928941
2715.719479	-2.969700	2.694900	-8.002100	29.626680	1.186437E-5	20.914244
2716.721644	-2.994800	2.691800	-8.059500	29.699927	1.189738E-5	20.915068
2717.724551	-2.974200	2.686700	-7.989600	29.656855	8.234106E-6	20.909103
2718.719676	-2.997600	2.682200	-8.039600	29.569126	9.752218E-6	20.904588
2719.722322	-2.999800	2.678200	-8.033200	29.551298	1.100631E-5	20.921702
2720.722800	-2.970500	2.675400	-7.945800	29.509635	7.211031E-6	20.896776
2721.719061	-3.004800	2.671000	-8.024800	29.572089	7.805075E-6	20.913264
2722.722013	-2.975000	2.667800	-7.935800	29.663489	9.851225E-6	20.889240
2723.723215	-2.979200	2.662500	-7.930800	29.655711	8.498126E-6	20.910320
2724.723006	-3.003600	2.656800	-7.979200	29.665462	8.630135E-6	20.893599
2725.721238	-3.000900	2.652400	-7.958400	29.658533	9.653210E-6	20.906053
2726.724483	-3.020500	2.647100	-7.994400	29.625533	1.074229E-5	20.906450
2727.724121	-2.986400	2.643400	-7.893400	29.667266	9.950232E-6	20.902056
2728.722756	-3.047900	2.637200	-8.036800	29.690237	7.409045E-6	20.897714
2729.726391	-2.981400	2.634000	-7.852600	29.702170	7.343041E-6	20.891728
2730.724817	-3.012700	2.628600	-7.918700	29.761174	9.587206E-6	20.900007
2731.724247	-3.015900	2.623600	-7.912000	29.712559	9.323186E-6	20.894615
2732.728481	-3.033100	2.617800	-7.939000	29.684962	1.037926E-5	20.893345
2733.725018	-3.017200	2.613100	-7.883300	29.763104	1.041227E-5	20.899109
2734.724698	-3.011700	2.607200	-7.850800	29.746715	9.290184E-6	20.909136
2735.736207	-3.004100	2.602400	-7.817100	29.741861	9.818223E-6	20.895235
2736.727211	-2.994500	2.596900	-7.775500	29.804333	1.070929E-5	20.894686
2737.729274	-3.038900	2.590000	-7.869800	29.818908	1.014825E-5	20.889468
2738.731026	-3.040500	2.585600	-7.860100	29.829456	1.094031E-5	20.883983
2739.726679	-3.008700	2.581200	-7.765400	29.762550	1.004924E-5	20.902343
2740.729051	-3.000500	2.575300	-7.726000	29.689831	1.110532E-5	20.904890
2741.732681	-3.012600	2.569100	-7.738800	29.659801	7.739070E-6	20.889316
2742.733943	-3.022500	2.561600	-7.741400	29.665839	1.074229E-5	20.892083
2743.730273	-2.987800	2.558100	-7.642200	29.651827	1.064328E-5	20.903561
2744.731094	-3.002700	2.551600	-7.661100	29.682198	9.587206E-6	20.880602
2745.734518	-3.037300	2.542900	-7.722500	29.727964	8.333113E-6	20.893551
2746.730549	-3.008000	2.539000	-7.635100	29.774248	9.224179E-6	20.895172
2747.730185	-2.997200	2.532200	-7.588300	29.836662	1.011524E-5	20.884611
2748.731572	-2.970300	2.527300	-7.506300	29.813624	1.100631E-5	20.862331
2749.733042	-2.984600	2.521200	-7.523500	29.846043	1.067629E-5	20.877000
2750.733655	-3.013700	2.513300	-7.573800	29.830844	1.196338E-5	20.884908
2751.729679	-2.972200	2.508500	-7.454500	29.794389	9.620208E-6	20.880394
2752.732299	-3.031100	2.501600	-7.580700	29.816934	1.301946E-5	20.868987
2753.735727	-3.013100	2.496200	-7.520600	29.821089	1.008224E-5	20.874124
