LabVIEW Measurement	
Writer_Version	2
Reader_Version	2
Separator	Tab
Decimal_Separator	.
Multi_Headings	No
X_Columns	One
Time_Pref	Absolute
Operator	admin
Description	Clolumns are: time, Current, Voltage, Power, Battery Temp, and Chamber Temp
Date	2024/08/16
Time	13:07:17.8513970375061035156
***End_of_Header***	
	
Channels	6						
Samples	1	1	1	1	1	1	
Date	2024/08/31	2024/08/31	2024/08/31	2024/08/31	2024/08/31	2024/08/31	
Time	08:36:39.6121912002563476562	08:36:39.6202039718627929687	08:36:39.6262097358703613281	08:36:39.5962128639221191406	08:36:39.5962128639221191406	08:36:39.5962128639221191406	
X_Dimension	Time	Time	Time	Time	Time	Time	
X0	0.0000000000000000E+0	0.0000000000000000E+0	0.0000000000000000E+0	0.0000000000000000E+0	0.0000000000000000E+0	0.0000000000000000E+0	
Delta_X	1.000000	1.000000	1.000000	1.000000	1.000000	1.000000	
***End_of_Header***							
X_Value	Untitled	Untitled 1	Untitled 2	Untitled 3	Untitled 4	Untitled 5	Comment
0.000000	0.005393	4.089300	0.022211	20.803258	0.000460	20.861103
1.000782	-3.008600	3.926400	-11.812000	20.836747	0.000462	20.839118
2.001323	-2.995200	3.921900	-11.745000	20.829835	0.000461	20.840266
3.001009	-3.006100	3.917700	-11.776000	20.801386	0.000458	20.844533
4.001631	-3.004700	3.913600	-11.758000	20.834625	0.000459	20.853590
5.003594	-3.024500	3.908400	-11.820000	20.829984	0.000457	20.849423
6.002022	-3.010600	3.907400	-11.763000	20.845305	0.000455	20.828710
7.006548	-3.013200	3.905400	-11.767000	20.840988	0.000457	20.859479
8.003456	-3.010900	3.904500	-11.755000	20.840139	0.000458	20.844880
9.002918	-2.990600	3.902200	-11.669000	20.848773	0.000453	20.846403
10.005331	-3.007800	3.900000	-11.729000	20.864670	0.000454	20.845230
11.004229	-3.007800	3.899300	-11.727000	20.857931	0.000452	20.848448
12.004822	-3.012800	3.896000	-11.736000	20.859653	0.000455	20.851592
13.007401	-2.993400	3.896300	-11.663000	20.866490	0.000451	20.849422
14.005187	-2.992600	3.896100	-11.659000	20.886403	0.000453	20.840412
15.005772	-2.989300	3.894400	-11.640000	20.894537	0.000451	20.873676
16.006066	-2.993500	3.893500	-11.655000	20.897132	0.000450	20.820798
17.007640	-3.007300	3.892100	-11.704000	20.898005	0.000453	20.833050
18.013334	-3.003700	3.891300	-11.688000	20.901598	0.000451	20.843281
19.011503	-3.010100	3.890900	-11.711000	20.900026	0.000451	20.839812
20.012204	-3.006400	3.889000	-11.691000	20.929894	0.000448	20.846450
21.009017	-3.015200	3.889100	-11.725000	20.958340	0.000451	20.848820
22.010068	-3.010900	3.888700	-11.708000	20.961383	0.000449	20.842382
23.009303	-3.010900	3.887300	-11.703000	20.949531	0.000449	20.847123
24.012045	-2.978000	3.887600	-11.576000	20.946861	0.000448	20.827383
25.012195	-2.996000	3.885500	-11.640000	20.971139	0.000448	20.850241
26.012408	-2.982000	3.885900	-11.586000	20.961333	0.000447	20.848021
27.015753	-3.008800	3.884500	-11.687000	20.989502	0.000449	20.824038
28.013467	-2.985700	3.884000	-11.596000	20.986633	0.000447	20.841556
29.019639	-3.022800	3.884000	-11.739000	21.014752	0.000447	20.825111
30.014923	-2.981000	3.884300	-11.577000	21.001678	0.000447	20.825310
31.016186	-2.996000	3.883000	-11.633000	20.988204	0.000446	20.836016
32.017857	-3.004800	3.882500	-11.665000	21.011134	0.000446	20.833819
33.018011	-3.001800	3.882000	-11.652000	21.025505	0.000447	20.825434
34.017273	-2.996300	3.882200	-11.631000	21.046788	0.000447	20.828704
35.019262	-3.005000	3.882200	-11.665000	21.045815	0.000447	20.821567
36.017753	-2.995200	3.879900	-11.621000	21.057665	0.000444	20.836264
37.017440	-3.003700	3.880800	-11.655000	21.054770	0.000445	20.811558
38.020314	-3.015800	3.880100	-11.700000	21.077076	0.000445	20.821067
39.018483	-3.001000	3.880500	-11.644000	21.071837	0.000442	20.822938
40.024004	-3.005100	3.878400	-11.654000	21.070862	0.000444	20.841403
41.018365	-2.989000	3.879700	-11.596000	21.079396	0.000443	20.817223
42.019223	-2.981400	3.879200	-11.564000	21.100751	0.000442	20.834790
43.019462	-2.973500	3.879700	-11.535000	21.088751	0.000445	20.805718
44.018659	-2.987600	3.879000	-11.588000	21.105192	0.000441	20.825008
45.020873	-3.008900	3.877700	-11.667000	21.121459	0.000442	20.827528
46.020375	-3.021000	3.876700	-11.710000	21.131562	0.000444	20.825307
47.020163	-2.996600	3.876700	-11.616000	21.125075	0.000442	20.824508
48.020278	-3.005400	3.876000	-11.648000	21.151570	0.000444	20.820665
49.020587	-3.005900	3.875900	-11.650000	21.143387	0.000442	20.832867
50.020119	-2.987000	3.876400	-11.577000	21.174122	0.000443	20.844171
51.020786	-2.983800	3.876100	-11.564000	21.174920	0.000443	20.824108
52.020753	-2.978400	3.877000	-11.546000	21.164966	0.000444	20.826952
53.020414	-2.987300	3.876300	-11.579000	21.178638	0.000445	20.833042
54.021146	-3.015900	3.875200	-11.686000	21.189115	0.000444	20.830721
55.019276	-3.008600	3.874100	-11.655000	21.200665	0.000444	20.807662
56.023321	-2.999600	3.875300	-11.624000	21.208074	0.000442	20.804642
57.020005	-3.004000	3.875100	-11.639000	21.213088	0.000442	20.812029
58.021374	-3.015200	3.874600	-11.680000	21.224165	0.000442	20.806040
59.022080	-2.990100	3.875100	-11.586000	21.249085	0.000443	20.809159
60.022405	-2.988600	3.874200	-11.578000	21.242575	0.000442	20.818293
61.026073	-3.003900	3.873300	-11.634000	21.270514	0.000443	20.793612
62.025203	-3.014100	3.873700	-11.675000	21.249435	0.000442	20.832268
63.023462	-2.998800	3.873800	-11.616000	21.282737	0.000442	20.825281
64.024963	-3.011600	3.873900	-11.666000	21.286354	0.000444	20.809459
65.025603	-3.013000	3.871800	-11.665000	21.280592	0.000442	20.812229
66.024601	-2.993600	3.872900	-11.593000	21.273658	0.000444	20.798654
67.027859	-3.020700	3.871900	-11.695000	21.296482	0.000444	20.795883
68.026546	-2.997000	3.872800	-11.606000	21.306810	0.000443	20.812854
69.027036	-3.003800	3.871900	-11.629000	21.313694	0.000442	20.814051
70.026157	-3.006200	3.871500	-11.637000	21.318159	0.000444	20.820889
71.026838	-3.031200	3.871200	-11.734000	21.361163	0.000444	20.803695
72.027437	-3.024000	3.870300	-11.703000	21.334523	0.000442	20.801699
73.026165	-2.995100	3.872100	-11.596000	21.343503	0.000443	20.797881
74.028605	-2.988400	3.871600	-11.569000	21.365802	0.000443	20.803595
75.029335	-3.022300	3.871300	-11.699000	21.368147	0.000442	20.803096
76.028384	-3.019400	3.870500	-11.686000	21.375555	0.000445	20.801973
77.032306	-3.014000	3.870800	-11.666000	21.387727	0.000443	20.814152
78.031229	-3.007800	3.870200	-11.639000	21.392117	0.000443	20.814751
79.030134	-2.980700	3.870500	-11.536000	21.381267	0.000443	20.800576
80.030914	-2.992400	3.870600	-11.581000	21.405112	0.000442	20.802622
81.030995	-2.987300	3.870500	-11.562000	21.430079	0.000442	20.801525
82.030827	-2.971600	3.869800	-11.499000	21.433347	0.000443	20.788198
83.033978	-3.022500	3.868600	-11.692000	21.438959	0.000445	20.805193
84.031561	-3.007400	3.868800	-11.634000	21.433572	0.000443	20.799803
85.033128	-3.006400	3.867300	-11.626000	21.454573	0.000443	20.812755
86.035533	-2.998000	3.867700	-11.595000	21.464624	0.000444	20.814752
87.033105	-2.996900	3.868500	-11.593000	21.472081	0.000443	20.795186
88.039662	-2.998400	3.869300	-11.601000	21.457166	0.000443	20.813927
89.035616	-3.016600	3.867900	-11.667000	21.473552	0.000444	20.790020
90.036505	-2.987000	3.868200	-11.553000	21.480985	0.000444	20.809785
91.038914	-2.999700	3.868100	-11.602000	21.511586	0.000442	20.807689
92.036863	-2.985000	3.869200	-11.548000	21.528146	0.000443	20.809086
93.040536	-2.981200	3.868500	-11.532000	21.510065	0.000443	20.792890
94.038884	-2.972700	3.867300	-11.495000	21.512185	0.000446	20.795011
95.037287	-3.004300	3.867900	-11.620000	21.522934	0.000444	20.789646
96.037591	-3.015100	3.867800	-11.660000	21.536850	0.000446	20.806890
97.037569	-3.037100	3.867000	-11.744000	21.523334	0.000446	20.764915
98.038662	-2.999800	3.866500	-11.598000	21.535554	0.000445	20.781885
99.041112	-3.017500	3.865300	-11.662000	21.568947	0.000446	20.814352
100.039341	-3.012000	3.866500	-11.645000	21.569546	0.000446	20.769907
101.039395	-2.995400	3.865700	-11.579000	21.584160	0.000446	20.782159
102.041543	-3.008500	3.865100	-11.628000	21.582414	0.000445	20.792266
103.043075	-2.996000	3.866400	-11.583000	21.599222	0.000446	20.804819
104.043668	-2.993700	3.867300	-11.577000	21.601542	0.000445	20.781062
105.041601	-2.974100	3.866900	-11.500000	21.632689	0.000446	20.799903
106.042512	-2.967800	3.866200	-11.472000	21.628051	0.000448	20.790520
107.041551	-2.985300	3.866500	-11.542000	21.618949	0.000444	20.781411
108.041744	-2.993800	3.865000	-11.570000	21.625731	0.000446	20.775870
109.042609	-2.986200	3.865600	-11.542000	21.657202	0.000447	20.792665
110.043638	-3.017900	3.864200	-11.660000	21.679171	0.000445	20.792366
111.041486	-3.007600	3.865000	-11.623000	21.671790	0.000447	20.779289
112.042692	-2.987700	3.866600	-11.551000	21.690442	0.000447	20.791317
113.043252	-2.991000	3.865400	-11.561000	21.678597	0.000448	20.797481
114.046150	-2.980000	3.865100	-11.517000	21.687874	0.000449	20.788273
115.045193	-2.992900	3.863300	-11.562000	21.691988	0.000448	20.757776
116.044422	-2.981700	3.863700	-11.520000	21.687699	0.000449	20.782882
117.045398	-3.002600	3.864700	-11.603000	21.699469	0.000449	20.790394
118.047720	-3.009300	3.864800	-11.629000	21.746297	0.000448	20.791741
119.048488	-2.994000	3.865100	-11.571000	21.722808	0.000448	20.782457
120.053124	-2.993500	3.862600	-11.562000	21.731560	0.000448	20.778889
121.048268	-2.991000	3.863000	-11.554000	21.743230	0.000448	20.784404
122.049995	-3.004500	3.862900	-11.605000	21.736373	0.000451	20.778964
123.049917	-3.008900	3.861000	-11.616000	21.765621	0.000449	20.787848
124.050240	-2.997000	3.863700	-11.579000	21.779310	0.000451	20.767409
125.050785	-3.008100	3.862800	-11.619000	21.769112	0.000451	20.754357
126.054846	-2.998600	3.862600	-11.582000	21.772752	0.000450	20.788347
127.050997	-3.015300	3.860600	-11.640000	21.797986	0.000450	20.785153
128.050581	-2.985600	3.862300	-11.531000	21.784820	0.000452	20.757276
129.056030	-2.974700	3.862900	-11.490000	21.827906	0.000452	20.760096
130.051287	-3.004700	3.861300	-11.601000	21.825861	0.000452	20.768008
131.052873	-2.992700	3.861100	-11.554000	21.838153	0.000453	20.761818
132.055200	-3.003000	3.860600	-11.593000	21.832569	0.000453	20.773773
133.051687	-2.998800	3.861600	-11.579000	21.840397	0.000452	20.767384
134.051866	-3.020800	3.860300	-11.660000	21.833391	0.000454	20.766535
135.052943	-3.006700	3.860800	-11.608000	21.850969	0.000454	20.770853
136.054000	-2.985700	3.860600	-11.526000	21.862363	0.000453	20.770878
137.051734	-3.014700	3.859900	-11.634000	21.858399	0.000454	20.769281
138.052975	-2.997000	3.859800	-11.566000	21.866851	0.000455	20.768258
139.053282	-2.976200	3.861200	-11.491000	21.884878	0.000454	20.777293
140.054106	-3.018100	3.859500	-11.648000	21.886074	0.000453	20.760472
141.054436	-2.989900	3.859800	-11.538000	21.892631	0.000454	20.764664
142.055409	-3.033300	3.859200	-11.705000	21.910233	0.000453	20.761420
143.053254	-3.022600	3.859500	-11.665000	21.927012	0.000456	20.765888
144.054322	-2.996600	3.859500	-11.564000	21.932621	0.000457	20.776244
145.055059	-2.981500	3.859100	-11.504000	21.940001	0.000455	20.750440
146.054449	-2.995000	3.860200	-11.560000	21.969219	0.000453	20.754558
147.058513	-2.993400	3.858500	-11.549000	21.970541	0.000453	20.749242
148.056558	-3.033500	3.859400	-11.706000	21.983929	0.000456	20.771179
149.056495	-3.011000	3.858100	-11.616000	21.949924	0.000457	20.755157
150.060837	-3.015700	3.859300	-11.638000	21.994175	0.000456	20.761047
151.056129	-3.011400	3.858800	-11.619000	21.968871	0.000457	20.765589
152.059857	-3.003800	3.859300	-11.591000	21.983381	0.000457	20.773002
153.056587	-2.998500	3.857900	-11.567000	21.981063	0.000458	20.771155
154.056851	-3.010000	3.855800	-11.604000	21.975478	0.000458	20.759401
155.055585	-3.002400	3.856400	-11.577000	21.988591	0.000458	20.746448
156.057437	-2.996100	3.858300	-11.558000	22.002478	0.000455	20.750866
157.058333	-2.992500	3.857800	-11.543000	22.008012	0.000458	20.760674
158.057106	-3.000100	3.857000	-11.571000	21.998539	0.000460	20.766838
159.058117	-2.996900	3.856400	-11.556000	22.002254	0.000459	20.766290
160.056593	-2.996800	3.855900	-11.554000	22.017461	0.000458	20.754486
161.058373	-2.996300	3.856700	-11.554000	22.003725	0.000459	20.752115
162.059805	-3.035100	3.854600	-11.698000	22.050866	0.000461	20.771331
163.059557	-2.995400	3.857100	-11.553000	22.060638	0.000458	20.768786
164.059026	-3.020000	3.854700	-11.640000	22.063181	0.000459	20.734821
165.060903	-2.977300	3.856900	-11.482000	22.061885	0.000460	20.763870
166.062831	-2.980600	3.855500	-11.491000	22.078287	0.000462	20.770334
167.061839	-2.970000	3.855400	-11.449000	22.101395	0.000461	20.741310
168.063535	-2.981100	3.856600	-11.496000	22.086787	0.000461	20.765567
169.061198	-2.998500	3.854200	-11.556000	22.105833	0.000463	20.758555
170.061310	-3.010400	3.854400	-11.603000	22.111516	0.000463	20.777522
171.061131	-3.015400	3.853800	-11.620000	22.120016	0.000462	20.776074
172.061308	-3.002800	3.854200	-11.572000	22.109996	0.000465	20.773155
173.063154	-3.005200	3.854200	-11.581000	22.127196	0.000464	20.760028
174.064403	-3.010200	3.854300	-11.601000	22.125027	0.000466	20.782988
175.062044	-3.009200	3.855100	-11.600000	22.112888	0.000465	20.765619
176.061959	-2.992500	3.854700	-11.534000	22.126647	0.000466	20.765644
177.064214	-3.003900	3.854000	-11.576000	22.145193	0.000465	20.764771
178.061702	-3.007100	3.854200	-11.589000	22.156559	0.000465	20.773306
179.065426	-2.988500	3.853300	-11.515000	22.194945	0.000466	20.770012
180.063212	-3.008900	3.853900	-11.595000	22.162742	0.000466	20.768590
181.063464	-3.008600	3.852700	-11.590000	22.162193	0.000465	20.768989
182.063092	-2.999000	3.853500	-11.555000	22.169298	0.000468	20.768516
183.063632	-3.012300	3.852800	-11.605000	22.205016	0.000469	20.775354
184.062697	-3.003600	3.852200	-11.568000	22.185400	0.000469	20.758084
185.063917	-2.993200	3.852600	-11.531000	22.200106	0.000467	20.768541
186.063912	-2.999700	3.851000	-11.551000	22.220769	0.000468	20.756038
187.063722	-2.977800	3.851900	-11.469000	22.216956	0.000471	20.779722
188.066116	-3.022000	3.851000	-11.637000	22.234653	0.000470	20.757611
189.063764	-3.008500	3.851300	-11.585000	22.243027	0.000469	20.784015
190.067492	-2.995000	3.851400	-11.534000	22.241856	0.000470	20.779997
191.064784	-2.989600	3.851600	-11.514000	22.246318	0.000469	20.778300
192.065758	-3.001400	3.851000	-11.558000	22.245719	0.000470	20.783391
193.068245	-3.010800	3.850800	-11.593000	22.252549	0.000470	20.763676
194.065838	-3.013200	3.850500	-11.601000	22.282856	0.000470	20.766048
195.071425	-3.025200	3.849900	-11.645000	22.277772	0.000472	20.780871
196.064620	-2.993600	3.850600	-11.526000	22.311617	0.000474	20.764975
197.065111	-3.010800	3.850200	-11.591000	22.307855	0.000472	20.773535
198.066998	-2.979800	3.851000	-11.475000	22.328166	0.000471	20.790555
199.067046	-2.984600	3.849300	-11.488000	22.345264	0.000472	20.787761
200.070245	-3.009100	3.849500	-11.583000	22.318372	0.000474	20.782170
201.070397	-3.008200	3.847000	-11.571000	22.340978	0.000475	20.788685
202.068081	-3.003200	3.847900	-11.554000	22.341675	0.000473	20.774210
203.067750	-3.005500	3.848300	-11.565000	22.330710	0.000473	20.793577
204.068231	-2.992200	3.849100	-11.517000	22.355308	0.000474	20.776956
205.069468	-2.991400	3.848500	-11.511000	22.354237	0.000475	20.799591
206.071646	-3.005500	3.848800	-11.566000	22.350450	0.000472	20.791531
207.069336	-3.024400	3.845800	-11.630000	22.358151	0.000475	20.772216
208.071393	-2.997400	3.847700	-11.532000	22.382922	0.000476	20.791806
209.072635	-3.005000	3.848000	-11.563000	22.383471	0.000475	20.780028
210.071815	-3.012200	3.846700	-11.585000	22.390972	0.000477	20.774737
211.077037	-2.988600	3.848200	-11.500000	22.374973	0.000477	20.791906
212.072309	-3.007900	3.846700	-11.570000	22.405377	0.000477	20.787740
213.072668	-3.003300	3.846700	-11.552000	22.409962	0.000478	20.797073
214.072647	-2.997100	3.847400	-11.530000	22.419083	0.000478	20.810000
215.073009	-2.987900	3.847500	-11.494000	22.449859	0.000481	20.808578
216.071856	-3.007000	3.846000	-11.564000	22.450235	0.000477	20.770072
217.077662	-3.001500	3.845300	-11.541000	22.447244	0.000478	20.764233
218.072250	-3.002000	3.845600	-11.543000	22.443332	0.000479	20.775488
219.072825	-3.003500	3.846000	-11.550000	22.421502	0.000480	20.801517
220.074769	-2.991600	3.845100	-11.502000	22.459405	0.000482	20.776886
221.073606	-3.002100	3.844600	-11.541000	22.446198	0.000479	20.780729
222.077509	-3.012800	3.844100	-11.580000	22.466359	0.000482	20.778160
223.077390	-2.998100	3.844400	-11.524000	22.470396	0.000482	20.785996
224.074891	-2.987300	3.846200	-11.489000	22.514752	0.000482	20.781106
225.075895	-2.986300	3.845800	-11.483000	22.514452	0.000483	20.809255
226.075927	-2.985500	3.845100	-11.479000	22.505682	0.000479	20.784350
227.083604	-2.977400	3.844400	-11.445000	22.491578	0.000482	20.803416
228.077109	-2.976200	3.844800	-11.442000	22.517369	0.000480	20.797003
229.077932	-2.990100	3.844400	-11.494000	22.510641	0.000484	20.774617
230.077213	-3.003100	3.842400	-11.538000	22.532943	0.000484	20.779884
231.077273	-3.002200	3.843400	-11.538000	22.507029	0.000483	20.804665
232.078234	-3.006200	3.842900	-11.551000	22.522727	0.000483	20.815171
233.079392	-3.013000	3.842500	-11.576000	22.543633	0.000482	20.815720
234.078572	-2.979500	3.843900	-11.452000	22.533493	0.000485	20.798453
235.078146	-3.030300	3.841900	-11.641000	22.554573	0.000484	20.806762
236.080664	-3.003200	3.842300	-11.538000	22.554075	0.000484	20.816221
237.077830	-3.021100	3.841800	-11.606000	22.555122	0.000484	20.809683
238.081618	-2.995500	3.842300	-11.507000	22.578445	0.000483	20.796059
239.079142	-3.009700	3.841700	-11.561000	22.571319	0.000485	20.794611
240.078554	-3.002500	3.841100	-11.532000	22.569450	0.000485	20.828301
241.080302	-2.996600	3.840400	-11.507000	22.599251	0.000485	20.806940
242.080985	-2.997300	3.840100	-11.509000	22.607075	0.000486	20.798181
243.080178	-2.989400	3.841200	-11.482000	22.596138	0.000487	20.806667
244.082924	-3.001900	3.839900	-11.526000	22.590382	0.000487	20.806118
245.079823	-2.988000	3.840600	-11.474000	22.626785	0.000486	20.798482
246.082414	-2.994500	3.838800	-11.494000	22.644376	0.000489	20.823213
247.087161	-3.005400	3.839300	-11.538000	22.672281	0.000488	20.807542
248.082241	-2.983600	3.840800	-11.458000	22.680728	0.000488	20.813157
249.087322	-3.015700	3.839500	-11.578000	22.663512	0.000491	20.822465
250.084547	-3.019200	3.839400	-11.590000	22.685661	0.000488	20.821418
251.084300	-2.992100	3.841100	-11.492000	22.684840	0.000492	20.808268
252.087847	-2.991800	3.839200	-11.485000	22.665508	0.000490	20.799335
253.084981	-3.008400	3.839400	-11.549000	22.638350	0.000490	20.820970
254.088856	-2.975600	3.837500	-11.418000	22.667998	0.000492	20.813683
255.091476	-2.993000	3.837800	-11.486000	22.659305	0.000489	20.812088
256.086736	-2.983100	3.838500	-11.450000	22.668922	0.000488	20.819350
257.086756	-3.010400	3.836900	-11.550000	22.693214	0.000491	20.814284
258.089176	-3.011700	3.837200	-11.555000	22.724855	0.000492	20.808520
259.089028	-3.009600	3.836900	-11.547000	22.726524	0.000491	20.826313
260.089522	-2.998200	3.836900	-11.503000	22.759010	0.000491	20.805750
261.088213	-3.000100	3.836600	-11.509000	22.747177	0.000493	20.821871
262.091395	-2.998200	3.836300	-11.502000	22.752234	0.000496	20.809868
263.086740	-3.002700	3.836700	-11.520000	22.770147	0.000493	20.817854
264.087495	-2.984400	3.837100	-11.451000	22.759784	0.000495	20.824542
265.090259	-3.017300	3.835200	-11.570000	22.800815	0.000494	20.819652
266.086051	-3.003300	3.835800	-11.519000	22.800391	0.000494	20.810693
267.087516	-3.004100	3.836200	-11.524000	22.783401	0.000495	20.834924
268.092180	-3.003600	3.835500	-11.520000	22.808812	0.000494	20.817232
269.087853	-2.996100	3.836100	-11.492000	22.794961	0.000496	20.824693
270.088439	-2.996900	3.835700	-11.495000	22.810381	0.000495	20.825441
271.088346	-3.010700	3.834900	-11.545000	22.812050	0.000494	20.841812
272.088633	-2.982200	3.834700	-11.435000	22.836239	0.000499	20.822422
273.090968	-2.993200	3.835100	-11.478000	22.830260	0.000498	20.825916
274.090086	-2.982000	3.835100	-11.435000	22.859904	0.000499	20.820052
275.092035	-2.993700	3.834000	-11.477000	22.870690	0.000498	20.825167
276.092024	-2.993700	3.834800	-11.480000	22.862794	0.000496	20.825317
277.090535	-2.989800	3.834700	-11.464000	22.879833	0.000497	20.810145
278.092644	-3.007500	3.834200	-11.529000	22.919813	0.000498	20.825068
279.092780	-3.005800	3.834400	-11.524000	22.899338	0.000496	20.815935
280.091771	-3.001300	3.833300	-11.504000	22.903919	0.000499	20.838068
281.093085	-3.022900	3.831900	-11.582000	22.884467	0.000500	20.837072
282.092585	-3.035100	3.832200	-11.630000	22.889673	0.000500	20.855089
283.092473	-2.985900	3.832600	-11.443000	22.898366	0.000499	20.817807
284.093194	-2.987200	3.834100	-11.452000	22.905066	0.000500	20.837321
285.093946	-2.975900	3.832700	-11.405000	22.927310	0.000502	20.838269
286.095146	-3.010700	3.832100	-11.537000	22.925816	0.000502	20.839143
287.092710	-3.008500	3.831600	-11.527000	22.914333	0.000501	20.848975
288.092798	-2.993200	3.831300	-11.466000	22.911643	0.000502	20.843910
289.094249	-2.986900	3.831900	-11.444000	22.927161	0.000501	20.827689
290.093759	-2.984900	3.832700	-11.440000	22.936652	0.000503	20.836723
291.096725	-2.983000	3.831500	-11.429000	22.929030	0.000501	20.840941
292.096383	-2.977600	3.830600	-11.405000	22.947736	0.000500	20.829336
293.093276	-3.003100	3.830200	-11.502000	22.957078	0.000502	20.856238
294.095035	-3.005400	3.830500	-11.511000	22.983306	0.000502	20.842688
295.095413	-2.985300	3.830100	-11.433000	23.002236	0.000504	20.826093
296.094357	-3.020500	3.829300	-11.566000	23.007691	0.000505	20.836774
297.096856	-2.990200	3.830400	-11.453000	22.992696	0.000503	20.834079
298.096196	-2.986200	3.829100	-11.434000	22.985449	0.000505	20.838197
299.095219	-2.980700	3.829100	-11.412000	22.979123	0.000505	20.855566
300.096729	-3.002500	3.829000	-11.496000	22.990679	0.000505	20.832532
301.095503	-2.991600	3.829400	-11.455000	22.973071	0.000505	20.847132
302.098137	-2.992700	3.828700	-11.458000	22.955883	0.000505	20.864524
303.096684	-3.010400	3.828900	-11.526000	22.993320	0.000506	20.849402
304.096233	-3.004900	3.828500	-11.503000	23.002436	0.000506	20.838622
305.095191	-3.001000	3.828000	-11.487000	22.996808	0.000508	20.862379
306.095194	-2.994600	3.828400	-11.464000	22.996085	0.000505	20.876353
307.095085	-3.004600	3.827500	-11.499000	22.992499	0.000508	20.863278
308.097611	-3.005200	3.827800	-11.502000	23.018079	0.000509	20.852872
309.096025	-2.973900	3.828300	-11.384000	23.032575	0.000506	20.843215
310.096698	-3.010400	3.825000	-11.513000	23.053123	0.000507	20.858587
311.097978	-3.002800	3.826200	-11.488000	23.055340	0.000508	20.853222
312.096554	-2.996300	3.825900	-11.462000	23.044482	0.000505	20.879325
313.097107	-2.997700	3.826600	-11.469000	23.069662	0.000510	20.857615
314.097084	-2.996300	3.826200	-11.464000	23.072949	0.000509	20.855693
315.096472	-3.001300	3.825800	-11.482000	23.087793	0.000508	20.862980
316.098289	-3.013700	3.824200	-11.525000	23.092675	0.000509	20.856967
317.097028	-2.989400	3.824400	-11.432000	23.126023	0.000511	20.843442
318.099518	-2.993600	3.824600	-11.448000	23.124553	0.000509	20.854771
319.100296	-2.978700	3.825000	-11.391000	23.149906	0.000510	20.878752
320.097857	-2.986900	3.825400	-11.425000	23.147715	0.000511	20.865652
321.097772	-3.000200	3.824800	-11.474000	23.164824	0.000510	20.877580
322.098345	-2.992200	3.823700	-11.441000	23.178298	0.000511	20.870219
323.099312	-2.995700	3.824500	-11.456000	23.159346	0.000512	20.873987
324.099839	-2.996600	3.824000	-11.458000	23.181062	0.000512	20.874411
325.099869	-3.006800	3.824000	-11.498000	23.138128	0.000512	20.870269
326.100669	-2.984800	3.822900	-11.410000	23.170230	0.000511	20.846015
327.104105	-3.005500	3.822300	-11.487000	23.162336	0.000512	20.861337
328.100302	-2.995200	3.821800	-11.446000	23.191920	0.000512	20.879128
329.101862	-3.009900	3.822400	-11.505000	23.212989	0.000511	20.862784
330.101314	-2.993800	3.822900	-11.443000	23.216302	0.000516	20.867052
331.102683	-3.002800	3.822300	-11.477000	23.211719	0.000515	20.858667
332.101924	-3.004100	3.822000	-11.481000	23.207212	0.000514	20.865530
333.106139	-2.973200	3.821900	-11.361000	23.190925	0.000515	20.873390
334.104227	-2.994000	3.821800	-11.441000	23.222951	0.000514	20.874189
335.106794	-3.008500	3.819800	-11.490000	23.225665	0.000514	20.878805
336.102964	-2.984500	3.821200	-11.403000	23.244665	0.000514	20.880777
337.105923	-2.993500	3.819200	-11.431000	23.233261	0.000515	20.880254
338.103358	-3.007100	3.819800	-11.486000	23.253905	0.000515	20.892407
339.109906	-3.024300	3.819700	-11.550000	23.264439	0.000517	20.852231
340.103954	-3.003100	3.819400	-11.469000	23.288045	0.000517	20.903860
341.105571	-3.005400	3.819400	-11.478000	23.260554	0.000516	20.866355
342.105294	-2.983700	3.820800	-11.398000	23.244717	0.000517	20.894578
343.105851	-2.994700	3.818900	-11.436000	23.225890	0.000519	20.887091
344.106431	-2.999900	3.819300	-11.457000	23.283936	0.000516	20.894054
345.105470	-2.992200	3.818100	-11.424000	23.317054	0.000517	20.870348
346.105753	-2.996400	3.817800	-11.438000	23.309560	0.000517	20.910724
347.107137	-2.980400	3.818700	-11.381000	23.343274	0.000519	20.897099
348.107110	-3.001600	3.817200	-11.457000	23.371859	0.000518	20.886868
349.106385	-3.009700	3.818200	-11.491000	23.387645	0.000518	20.895103
350.107642	-3.006500	3.817100	-11.475000	23.352737	0.000518	20.884299
351.110032	-2.989200	3.818000	-11.412000	23.366057	0.000517	20.880580
352.105190	-3.004000	3.816100	-11.463000	23.348703	0.000521	20.901591
353.108873	-3.010900	3.817100	-11.492000	23.328583	0.000519	20.891859
354.105426	-2.998200	3.816200	-11.441000	23.335879	0.000518	20.881154
355.109342	-2.987200	3.815900	-11.398000	23.340063	0.000520	20.910001
356.106955	-2.987200	3.815200	-11.396000	23.329529	0.000519	20.898970
357.108136	-2.987300	3.815800	-11.397000	23.317280	0.000520	20.872945
358.108551	-2.976600	3.816400	-11.360000	23.323554	0.000522	20.891085
359.112803	-2.986400	3.814700	-11.392000	23.333464	0.000521	20.900068
360.110919	-3.008200	3.814600	-11.474000	23.355276	0.000520	20.895377
361.112357	-3.013800	3.814600	-11.496000	23.354055	0.000520	20.896525
362.108064	-2.995500	3.815300	-11.428000	23.351840	0.000522	20.895252
363.110338	-2.997400	3.813900	-11.431000	23.356297	0.000520	20.902564
364.110526	-2.990800	3.813300	-11.404000	23.373428	0.000524	20.901716
365.108715	-3.001900	3.814100	-11.449000	23.370290	0.000523	20.911846
366.111537	-2.993700	3.812500	-11.412000	23.420111	0.000523	20.905832
367.108196	-3.004200	3.813300	-11.455000	23.426187	0.000523	20.917136
368.108768	-3.000400	3.812500	-11.437000	23.437640	0.000520	20.930037
369.112668	-3.015000	3.810900	-11.489000	23.403953	0.000522	20.904335
370.110501	-2.996500	3.813600	-11.427000	23.434054	0.000522	20.911746
371.112847	-2.998800	3.811100	-11.428000	23.418991	0.000525	20.917985
372.112385	-3.018100	3.811900	-11.504000	23.425987	0.000523	20.901291
373.112190	-3.004700	3.812500	-11.455000	23.456810	0.000523	20.910374
374.112540	-3.020700	3.811700	-11.513000	23.469408	0.000523	20.901665
375.112912	-3.014200	3.810700	-11.485000	23.495574	0.000527	20.934528
376.112976	-3.013800	3.812100	-11.487000	23.485492	0.000524	20.903088
377.115575	-3.021600	3.809700	-11.511000	23.492213	0.000524	20.908877
378.111263	-2.995100	3.811500	-11.415000	23.527864	0.000525	20.916163
379.113277	-2.986800	3.811700	-11.384000	23.515765	0.000525	20.901191
380.113341	-3.022200	3.809600	-11.512000	23.481010	0.000526	20.918983
381.115571	-2.985100	3.810600	-11.375000	23.483524	0.000525	20.920080
382.117170	-3.009500	3.808700	-11.461000	23.487731	0.000526	20.925719
383.115417	-2.998600	3.808900	-11.420000	23.489051	0.000527	20.911870
384.114481	-3.004100	3.809800	-11.445000	23.484794	0.000527	20.906182
385.114773	-3.010100	3.809200	-11.465000	23.478121	0.000527	20.913243
386.113586	-3.007400	3.809200	-11.454000	23.507723	0.000527	20.939119
387.117166	-3.006700	3.808200	-11.449000	23.531772	0.000525	20.945681
388.116801	-2.984300	3.809000	-11.366000	23.524502	0.000527	20.923224
389.116847	-2.994500	3.808100	-11.402000	23.514221	0.000526	20.922875
390.116394	-2.993800	3.806900	-11.396000	23.530502	0.000529	20.917859
391.117938	-3.027500	3.805800	-11.521000	23.566550	0.000530	20.936923
392.116314	-2.984200	3.807500	-11.361000	23.576558	0.000527	20.927042
393.117563	-2.989300	3.807300	-11.380000	23.580765	0.000527	20.937422
394.117843	-2.993900	3.807000	-11.397000	23.590996	0.000528	20.927291
395.119194	-3.028800	3.805200	-11.524000	23.604489	0.000528	20.945082
396.119692	-2.997300	3.806200	-11.407000	23.609592	0.000528	20.943560
397.117975	-3.004200	3.805900	-11.433000	23.614322	0.000529	20.936923
398.118537	-3.016500	3.805600	-11.479000	23.632245	0.000530	20.931657
399.117788	-3.024500	3.803100	-11.501000	23.637994	0.000529	20.923672
400.117373	-3.013800	3.804800	-11.466000	23.637547	0.000529	20.917534
401.119385	-2.989700	3.805000	-11.375000	23.621989	0.000529	20.936074
402.120138	-3.015800	3.803500	-11.470000	23.634709	0.000530	20.921801
403.122519	-3.002400	3.804700	-11.422000	23.629930	0.000531	20.949249
404.119823	-3.009900	3.804500	-11.450000	23.625996	0.000531	20.922550
405.120670	-2.999900	3.803500	-11.409000	23.622512	0.000529	20.919057
406.121884	-2.988200	3.804400	-11.367000	23.623706	0.000530	20.932581
407.121990	-2.993100	3.803600	-11.383000	23.665477	0.000530	20.940316
408.124369	-2.990000	3.804800	-11.375000	23.645538	0.000531	20.944508
409.124427	-3.012900	3.802100	-11.454000	23.661743	0.000531	20.946055
410.128855	-2.993800	3.803700	-11.386000	23.691664	0.000532	20.933380
411.124097	-2.992300	3.803400	-11.380000	23.724994	0.000531	20.938820
412.124023	-3.002000	3.801600	-11.412000	23.728926	0.000533	20.936124
413.123513	-3.016500	3.802100	-11.468000	23.719692	0.000531	20.936349
414.126537	-2.987200	3.800700	-11.353000	23.719815	0.000532	20.944533
415.124408	-2.985400	3.801400	-11.348000	23.735746	0.000533	20.919731
416.123855	-2.985400	3.801200	-11.347000	23.737215	0.000533	20.925944
417.125581	-3.003700	3.801100	-11.416000	23.741843	0.000533	20.939118
418.123427	-2.988000	3.800600	-11.356000	23.748937	0.000532	20.920628
419.125898	-3.016800	3.799200	-11.460000	23.771463	0.000531	20.920453
420.123778	-2.988700	3.801100	-11.360000	23.810390	0.000532	20.918233
421.123998	-2.992900	3.799800	-11.372000	23.755260	0.000533	20.939767
422.123942	-3.002300	3.799900	-11.408000	23.780001	0.000532	20.927117
423.124114	-2.996400	3.800600	-11.387000	23.768899	0.000535	20.915039
424.125000	-3.017300	3.798700	-11.460000	23.758421	0.000532	20.907852
425.129067	-3.027700	3.798500	-11.500000	23.754587	0.000534	20.924396
426.126558	-2.998300	3.800000	-11.393000	23.752895	0.000533	20.908476
427.126537	-3.010500	3.798200	-11.433000	23.778283	0.000533	20.916386
428.132895	-3.000600	3.798500	-11.397000	23.765117	0.000534	20.924522
429.126658	-2.977700	3.797900	-11.308000	23.775296	0.000533	20.906280
430.130207	-2.982100	3.798000	-11.325000	23.801505	0.000533	20.913592
431.126447	-3.009400	3.796700	-11.425000	23.760536	0.000532	20.906654
432.127493	-2.994700	3.797400	-11.371000	23.765464	0.000533	20.917759
433.127137	-3.002200	3.797200	-11.399000	23.765513	0.000535	20.921600
434.127666	-3.013400	3.797100	-11.441000	23.767530	0.000534	20.921725
435.128540	-3.002400	3.796300	-11.396000	23.732907	0.000534	20.905506
436.127271	-2.997300	3.795800	-11.377000	23.761009	0.000532	20.901439
437.128212	-2.997700	3.797100	-11.381000	23.794236	0.000533	20.907726
438.128518	-3.017800	3.794200	-11.449000	23.799238	0.000537	20.899941
439.126876	-2.996100	3.795100	-11.369000	23.809095	0.000534	20.892755
440.132169	-3.013500	3.793000	-11.430000	23.801180	0.000534	20.905206
441.129064	-2.995800	3.795400	-11.369000	23.815193	0.000536	20.890334
442.129432	-3.008700	3.793500	-11.413000	23.822011	0.000534	20.895273
443.126955	-3.000200	3.794000	-11.381000	23.856133	0.000531	20.915261
444.129172	-2.997400	3.793600	-11.370000	23.878681	0.000535	20.903258
445.127896	-2.985600	3.793500	-11.325000	23.924324	0.000536	20.879329
446.130980	-2.998400	3.792400	-11.370000	23.895704	0.000535	20.904207
447.128385	-2.973100	3.793500	-11.278000	23.898565	0.000535	20.880525
448.130630	-3.024400	3.792300	-11.469000	23.888908	0.000536	20.895971
449.130300	-2.990000	3.794000	-11.343000	23.908519	0.000536	20.883394
450.132091	-2.980800	3.793100	-11.306000	23.872582	0.000537	20.891928
451.134113	-2.998400	3.791000	-11.366000	23.842267	0.000538	20.880972
452.134298	-2.988500	3.791900	-11.331000	23.830321	0.000535	20.902657
453.136718	-2.966500	3.791700	-11.247000	23.825342	0.000538	20.892450
454.132081	-2.981600	3.792100	-11.306000	23.849061	0.000537	20.868819
455.134577	-3.010500	3.790100	-11.409000	23.855208	0.000537	20.875457
456.134988	-2.993800	3.792200	-11.353000	23.836940	0.000537	20.883691
457.135277	-3.009600	3.789300	-11.403000	23.849110	0.000538	20.879773
458.131129	-3.025400	3.790400	-11.466000	23.888906	0.000539	20.889330
459.132692	-3.001700	3.789700	-11.375000	23.878701	0.000538	20.878625
460.132370	-3.001500	3.789800	-11.374000	23.870288	0.000539	20.871138
461.131736	-3.008900	3.789500	-11.401000	23.878776	0.000540	20.873958
462.132966	-3.009900	3.788700	-11.403000	23.877333	0.000540	20.891476
463.131614	-3.011100	3.789200	-11.407000	23.906475	0.000538	20.885137
464.130775	-2.993400	3.789900	-11.343000	23.909436	0.000539	20.891425
465.132582	-3.008300	3.787100	-11.392000	23.933726	0.000541	20.886859
466.131983	-3.012000	3.786700	-11.404000	23.976579	0.000538	20.881943
467.131816	-3.029200	3.788200	-11.474000	23.985787	0.000539	20.898762
468.133386	-2.997100	3.786800	-11.348000	23.990889	0.000540	20.895818
469.132560	-2.983700	3.786900	-11.298000	23.969711	0.000538	20.871263
470.132756	-2.995100	3.787200	-11.341000	23.962445	0.000540	20.881045
471.132231	-3.007800	3.787100	-11.390000	23.960105	0.000539	20.870640
472.132876	-2.985300	3.786000	-11.301000	23.986808	0.000540	20.889355
473.137479	-2.997100	3.785000	-11.342000	24.013161	0.000540	20.862205
474.134507	-2.981800	3.787200	-11.292000	24.001540	0.000539	20.875681
475.132495	-2.992600	3.785000	-11.325000	23.999972	0.000541	20.848980
476.134405	-3.010700	3.784300	-11.393000	23.994125	0.000540	20.869667
477.135951	-3.007200	3.786200	-11.385000	23.988226	0.000539	20.877502
478.135463	-2.988900	3.784300	-11.310000	24.001366	0.000541	20.859861
479.138260	-3.019300	3.782900	-11.421000	24.009977	0.000539	20.861857
480.138819	-3.008900	3.784500	-11.387000	24.012590	0.000540	20.871116
481.135188	-3.006600	3.783700	-11.375000	24.002586	0.000540	20.878152
482.139232	-3.022000	3.783400	-11.432000	23.972899	0.000540	20.867822
483.135397	-3.020100	3.782500	-11.422000	23.958615	0.000540	20.867248
484.140113	-2.985100	3.783100	-11.292000	23.958117	0.000540	20.865801
485.136960	-3.002500	3.782400	-11.356000	23.969241	0.000542	20.857990
486.136479	-2.999600	3.782900	-11.346000	23.973671	0.000540	20.868122
487.136563	-2.973000	3.781900	-11.243000	23.988228	0.000543	20.871341
488.137351	-2.967900	3.783600	-11.229000	24.000347	0.000541	20.880174
489.139575	-3.000600	3.782000	-11.348000	24.026077	0.000540	20.877528
490.137360	-2.984000	3.782400	-11.285000	24.029363	0.000540	20.866125
491.138258	-2.986800	3.782200	-11.296000	23.994847	0.000542	20.844314
492.137715	-2.989600	3.780100	-11.300000	24.013958	0.000541	20.890503
493.138817	-3.001900	3.781300	-11.351000	24.046955	0.000542	20.870491
494.138175	-3.004100	3.781200	-11.358000	24.010697	0.000542	20.877277
495.140519	-3.003200	3.780300	-11.352000	24.001440	0.000541	20.865624
496.138976	-3.005700	3.781200	-11.364000	23.995492	0.000543	20.850177
497.138578	-3.020500	3.779300	-11.414000	24.030455	0.000543	20.846833
498.139212	-3.012000	3.780300	-11.384000	24.031076	0.000542	20.863577
499.139121	-3.008400	3.779300	-11.369000	24.054119	0.000543	20.855866
500.141522	-3.004100	3.779000	-11.351000	24.066038	0.000540	20.856914
501.137972	-3.008200	3.779600	-11.369000	24.049988	0.000541	20.835603
502.137981	-3.015100	3.778900	-11.393000	24.056905	0.000543	20.871936
503.137843	-3.036800	3.777200	-11.470000	24.070292	0.000543	20.847905
504.138478	-3.006900	3.777700	-11.357000	24.043741	0.000542	20.834554
505.140811	-3.007800	3.778100	-11.363000	24.051679	0.000541	20.849152
506.143183	-2.998100	3.776600	-11.322000	24.104256	0.000541	20.844984
507.139930	-2.993500	3.777600	-11.307000	24.103510	0.000544	20.854192
508.139825	-2.997000	3.776700	-11.318000	24.111099	0.000541	20.865122
509.141344	-3.008900	3.775500	-11.360000	24.129512	0.000542	20.846132
510.140215	-3.017600	3.775200	-11.391000	24.127198	0.000542	20.852820
511.143153	-2.999200	3.775800	-11.324000	24.093432	0.000541	20.849301
512.141231	-3.001200	3.776000	-11.332000	24.090222	0.000542	20.847030
513.141518	-2.996100	3.775700	-11.312000	24.078801	0.000541	20.841740
514.140886	-3.010100	3.773900	-11.358000	24.111472	0.000542	20.861229
515.144715	-3.012800	3.775400	-11.373000	24.115577	0.000542	20.840217
516.144436	-2.974400	3.774200	-11.225000	24.095149	0.000544	20.854341
517.140818	-3.012500	3.773200	-11.366000	24.093108	0.000543	20.842338
518.141494	-3.002600	3.773200	-11.328000	24.123688	0.000542	20.848352
519.141660	-3.005800	3.773400	-11.341000	24.128789	0.000543	20.855838
520.141415	-2.955000	3.773800	-11.150000	24.117269	0.000544	20.824371
521.143014	-3.015400	3.772000	-11.374000	24.123015	0.000542	20.836298
522.146488	-2.998600	3.773100	-11.314000	24.139240	0.000541	20.842139
523.146559	-2.999600	3.772500	-11.315000	24.141331	0.000543	20.842339
524.144047	-3.003700	3.771800	-11.329000	24.148793	0.000542	20.835599
525.149295	-2.990300	3.772800	-11.280000	24.138593	0.000540	20.842912
526.145988	-2.996400	3.771700	-11.301000	24.148645	0.000542	20.853942
527.147987	-2.986700	3.772900	-11.268000	24.132447	0.000542	20.837223
528.145774	-2.975600	3.771400	-11.221000	24.146132	0.000543	20.847629
529.147009	-2.997400	3.770500	-11.301000	24.196689	0.000542	20.829111
530.145371	-2.985200	3.771100	-11.257000	24.218932	0.000543	20.834826
531.145110	-2.973300	3.771500	-11.213000	24.196166	0.000542	20.843285
532.152040	-2.985200	3.770800	-11.256000	24.225674	0.000541	20.843959
533.145107	-2.990900	3.770500	-11.276000	24.187558	0.000544	20.835125
534.145071	-2.980300	3.770200	-11.235000	24.149788	0.000543	20.829960
535.145702	-3.019900	3.768800	-11.380000	24.182107	0.000542	20.835822
536.146025	-3.014100	3.768200	-11.356000	24.199224	0.000539	20.825965
537.147675	-2.998900	3.769200	-11.302000	24.176285	0.000542	20.827612
538.144445	-3.003500	3.769400	-11.319000	24.154713	0.000542	20.819252
539.145973	-2.988200	3.768400	-11.259000	24.143615	0.000540	20.839889
540.149691	-3.009100	3.767700	-11.336000	24.172501	0.000538	20.818602
541.148154	-3.009300	3.767900	-11.338000	24.187056	0.000543	20.836519
542.149680	-3.007400	3.767200	-11.329000	24.223704	0.000540	20.824915
543.147023	-2.996600	3.766600	-11.287000	24.242637	0.000544	20.815930
544.147566	-3.020800	3.766500	-11.377000	24.225668	0.000542	20.824988
545.146879	-3.005200	3.767000	-11.320000	24.251343	0.000542	20.815180
546.148413	-2.991200	3.767300	-11.268000	24.216636	0.000541	20.834894
547.147516	-2.997300	3.766800	-11.288000	24.198497	0.000543	20.813382
548.152168	-2.989100	3.767100	-11.259000	24.212778	0.000541	20.826758
549.148242	-2.997600	3.765000	-11.285000	24.178568	0.000543	20.839384
550.149401	-2.984100	3.765500	-11.235000	24.212677	0.000540	20.813854
551.151821	-2.992400	3.765400	-11.265000	24.215314	0.000541	20.832620
552.150025	-3.007400	3.764800	-11.321000	24.243825	0.000541	20.822811
553.153094	-2.974500	3.764800	-11.197000	24.215338	0.000542	20.835014
554.149127	-2.994300	3.764700	-11.272000	24.232455	0.000541	20.818993
555.150415	-3.003100	3.763700	-11.302000	24.271912	0.000542	20.796458
556.151458	-3.001200	3.763800	-11.294000	24.306692	0.000541	20.823284
557.152148	-2.995100	3.764300	-11.274000	24.297536	0.000543	20.803668
558.154138	-3.025900	3.762600	-11.383000	24.298630	0.000542	20.825155
559.153378	-3.006500	3.763500	-11.313000	24.304676	0.000541	20.807986
560.151716	-3.001400	3.763100	-11.294000	24.280494	0.000542	20.817394
561.152013	-3.024600	3.762400	-11.378000	24.342042	0.000543	20.836934
562.151552	-2.995200	3.763800	-11.273000	24.349653	0.000540	20.827500
563.152338	-3.000100	3.761200	-11.283000	24.357266	0.000542	20.827076
564.154196	-3.012300	3.762000	-11.332000	24.322687	0.000542	20.809458
565.157159	-2.992900	3.762800	-11.260000	24.306416	0.000542	20.818740
566.153349	-2.995900	3.761500	-11.268000	24.311815	0.000540	20.807087
567.155134	-3.006800	3.761000	-11.308000	24.300420	0.000543	20.813200
568.154696	-3.012200	3.760500	-11.326000	24.302112	0.000543	20.805888
569.156789	-2.985100	3.760300	-11.224000	24.284697	0.000543	20.804540
570.159471	-2.992500	3.759500	-11.250000	24.297882	0.000540	20.809232
571.157396	-2.987400	3.760300	-11.233000	24.305569	0.000540	20.812201
572.157305	-3.009600	3.760600	-11.317000	24.297585	0.000543	20.799450
573.170420	-3.003600	3.759700	-11.292000	24.313779	0.000541	20.800523
574.156673	-3.011600	3.758900	-11.320000	24.319651	0.000542	20.782705
575.156422	-2.980700	3.759000	-11.204000	24.291788	0.000540	20.806912
576.162142	-3.006600	3.758400	-11.299000	24.268328	0.000541	20.817518
577.156943	-3.003700	3.758100	-11.287000	24.281438	0.000543	20.809807
578.158158	-3.003000	3.758600	-11.286000	24.289424	0.000541	20.817817
579.160420	-3.019800	3.757000	-11.345000	24.313034	0.000542	20.812577
580.160268	-3.028000	3.757100	-11.376000	24.344878	0.000542	20.808959
581.159321	-3.020800	3.755500	-11.344000	24.365027	0.000540	20.786499
582.163213	-2.989800	3.757200	-11.233000	24.367465	0.000542	20.818342
583.162372	-2.974700	3.757300	-11.176000	24.339853	0.000543	20.803444
584.161534	-3.020500	3.755500	-11.342000	24.318285	0.000542	20.818793
585.163596	-2.989400	3.756000	-11.227000	24.309577	0.000540	20.815747
586.161789	-3.000100	3.755800	-11.267000	24.275097	0.000541	20.789695
587.163061	-3.002900	3.755800	-11.277000	24.283530	0.000541	20.796732
588.164177	-2.988000	3.755700	-11.220000	24.272310	0.000541	20.791641
589.161324	-3.003300	3.754500	-11.274000	24.286018	0.000540	20.811556
590.164450	-3.005600	3.754900	-11.285000	24.245367	0.000543	20.785952
591.165298	-3.003100	3.754800	-11.275000	24.277934	0.000543	20.799179
592.163362	-3.015000	3.754100	-11.318000	24.298309	0.000540	20.785004
593.165411	-3.009200	3.752700	-11.291000	24.351472	0.000542	20.789021
594.172972	-3.008600	3.754500	-11.294000	24.404733	0.000540	20.801201
595.165438	-2.999100	3.752700	-11.253000	24.413240	0.000540	20.792192
596.165998	-2.984000	3.753000	-11.197000	24.426897	0.000539	20.797832
597.169980	-3.006400	3.753600	-11.285000	24.409509	0.000538	20.785130
598.166056	-3.000400	3.752600	-11.258000	24.376475	0.000541	20.778542
599.169917	-3.017300	3.752800	-11.322000	24.387693	0.000541	20.782684
600.168861	-3.014500	3.752100	-11.310000	24.370355	0.000544	20.781412
601.167509	-3.006700	3.752900	-11.282000	24.289205	0.000541	20.773501
602.169411	-2.984600	3.753500	-11.201000	24.307914	0.000538	20.794165
603.169209	-2.999300	3.751700	-11.251000	24.333139	0.000542	20.784381
604.167183	-2.986700	3.751800	-11.205000	24.387196	0.000540	20.784557
605.167693	-3.002100	3.752000	-11.263000	24.425530	0.000539	20.787926
606.168450	-2.997900	3.750900	-11.244000	24.430430	0.000541	20.757280
607.167460	-3.004300	3.750700	-11.268000	24.417744	0.000540	20.760200
608.167991	-3.002000	3.751400	-11.260000	24.454635	0.000541	20.778244
609.168436	-2.999400	3.750600	-11.248000	24.452520	0.000539	20.780390
610.167186	-3.013000	3.749600	-11.297000	24.408517	0.000540	20.774177
611.166759	-3.008000	3.750000	-11.279000	24.396103	0.000539	20.792070
612.168551	-3.006700	3.749500	-11.271000	24.423566	0.000541	20.762248
613.169163	-2.991100	3.750700	-11.217000	24.395806	0.000538	20.778021
614.170986	-3.016700	3.748200	-11.307000	24.388269	0.000538	20.778994
615.170959	-2.999200	3.748500	-11.242000	24.388418	0.000540	20.798110
616.169479	-2.996000	3.748300	-11.228000	24.413045	0.000541	20.773978
617.172851	-2.990200	3.748700	-11.208000	24.415807	0.000539	20.770585
618.171618	-3.006400	3.747900	-11.267000	24.422996	0.000541	20.785858
619.171199	-3.004800	3.747100	-11.258000	24.438220	0.000541	20.780743
620.170275	-3.010600	3.745900	-11.276000	24.437574	0.000541	20.786733
621.171656	-3.018400	3.746400	-11.306000	24.430460	0.000540	20.794768
622.170814	-3.000400	3.746700	-11.240000	24.453072	0.000538	20.775728
623.170950	-3.009100	3.747400	-11.275000	24.424143	0.000540	20.782741
624.175492	-3.006200	3.746100	-11.260000	24.412749	0.000538	20.767517
625.173750	-2.993300	3.746500	-11.213000	24.405461	0.000540	20.772534
626.170557	-3.016400	3.744900	-11.295000	24.391805	0.000539	20.747928
627.171301	-2.999900	3.746500	-11.238000	24.457898	0.000538	20.762078
628.175186	-3.008500	3.746200	-11.270000	24.479813	0.000539	20.765098
629.172615	-3.018500	3.743400	-11.299000	24.479266	0.000540	20.776404
630.170649	-3.020000	3.744700	-11.308000	24.498718	0.000541	20.766995
631.173892	-3.002300	3.745400	-11.244000	24.487450	0.000539	20.765648
632.169856	-3.011700	3.744500	-11.276000	24.479341	0.000537	20.776953
633.170527	-2.995700	3.744400	-11.216000	24.481232	0.000539	20.763677
634.173294	-3.007300	3.744200	-11.259000	24.522970	0.000538	20.760982
635.172522	-2.983000	3.743500	-11.166000	24.503744	0.000538	20.777728
636.172791	-2.992600	3.742400	-11.198000	24.503272	0.000538	20.760185
637.176231	-3.016300	3.742400	-11.287000	24.506828	0.000538	20.771340
638.173716	-2.996200	3.743800	-11.216000	24.498222	0.000538	20.757489
639.173729	-2.993600	3.743000	-11.203000	24.483671	0.000537	20.780823
640.182284	-3.002600	3.743100	-11.238000	24.481881	0.000538	20.754371
641.176051	-3.012600	3.742900	-11.275000	24.515858	0.000538	20.763330
642.176245	-2.997200	3.741600	-11.213000	24.535359	0.000539	20.752075
643.178320	-3.002000	3.741700	-11.231000	24.563141	0.000536	20.755294
644.177269	-3.003800	3.740900	-11.236000	24.541652	0.000535	20.765027
645.178746	-3.012700	3.740900	-11.269000	24.528171	0.000536	20.744863
646.183556	-3.008000	3.740800	-11.252000	24.502676	0.000538	20.740145
647.179798	-2.986700	3.741000	-11.172000	24.499443	0.000538	20.767249
648.179934	-3.008600	3.740100	-11.252000	24.520810	0.000534	20.772092
649.178705	-2.985900	3.740800	-11.169000	24.548568	0.000538	20.768173
650.177779	-3.001200	3.739200	-11.221000	24.570381	0.000535	20.754498
651.178778	-3.017000	3.739300	-11.281000	24.564810	0.000535	20.776409
652.178909	-3.009000	3.739500	-11.251000	24.605922	0.000536	20.764555
653.178110	-2.991200	3.740700	-11.188000	24.565406	0.000537	20.757567
654.176892	-2.988700	3.739500	-11.175000	24.555657	0.000536	20.760113
655.180769	-2.999400	3.738300	-11.212000	24.492728	0.000536	20.746287
656.183759	-2.997900	3.737000	-11.202000	24.483475	0.000537	20.775885
657.179835	-2.990900	3.737800	-11.178000	24.494097	0.000536	20.744341
658.178839	-2.989900	3.738800	-11.178000	24.504867	0.000535	20.760363
659.183191	-3.005400	3.737500	-11.232000	24.514318	0.000535	20.760836
660.180242	-3.004100	3.737900	-11.228000	24.481933	0.000535	20.766751
661.180578	-2.996800	3.737800	-11.201000	24.521060	0.000534	20.751478
662.188729	-3.010900	3.735400	-11.246000	24.556801	0.000534	20.765054
663.185004	-2.997800	3.736700	-11.201000	24.588288	0.000533	20.743542
664.180900	-3.008300	3.736500	-11.240000	24.588910	0.000532	20.765978
665.185087	-3.026800	3.736000	-11.307000	24.564635	0.000535	20.764380
666.190818	-3.017100	3.735200	-11.269000	24.545708	0.000533	20.774313
667.185623	-2.990800	3.735300	-11.170000	24.557821	0.000534	20.747111
668.187404	-3.002000	3.736100	-11.215000	24.572271	0.000533	20.752601
669.183489	-3.009400	3.735200	-11.240000	24.613483	0.000535	20.760288
670.186603	-2.995800	3.734600	-11.187000	24.609927	0.000533	20.752452
671.188854	-3.000500	3.734500	-11.204000	24.609901	0.000533	20.762858
672.189796	-2.978600	3.734300	-11.122000	24.615721	0.000534	20.787190
673.186609	-2.998900	3.733700	-11.196000	24.579907	0.000533	20.755995
674.185792	-2.988300	3.735400	-11.162000	24.596571	0.000533	20.761810
675.183395	-2.989400	3.733400	-11.160000	24.579336	0.000534	20.743568
676.187390	-2.977700	3.733600	-11.117000	24.544291	0.000532	20.766253
677.189030	-2.984000	3.733600	-11.140000	24.558518	0.000532	20.753026
678.184715	-3.010600	3.733800	-11.240000	24.590527	0.000533	20.754798
679.185200	-2.991400	3.732700	-11.165000	24.612688	0.000532	20.764232
680.189453	-3.006800	3.731300	-11.219000	24.649175	0.000533	20.755324
681.187082	-3.008000	3.732600	-11.226000	24.621593	0.000531	20.755623
682.190560	-3.006800	3.732000	-11.220000	24.622489	0.000532	20.761264
683.190149	-2.996000	3.732000	-11.180000	24.643057	0.000531	20.750607
684.202495	-2.981900	3.732700	-11.130000	24.662704	0.000532	20.768426
685.188910	-3.006900	3.730700	-11.217000	24.634204	0.000531	20.766381
686.189655	-3.017200	3.730700	-11.255000	24.659995	0.000532	20.772820
687.193353	-2.996700	3.730900	-11.179000	24.677901	0.000532	20.756174
688.191427	-2.996600	3.729900	-11.176000	24.682875	0.000533	20.786770
689.191400	-2.988200	3.731400	-11.149000	24.640945	0.000532	20.758920
690.192076	-3.000900	3.730300	-11.193000	24.634280	0.000531	20.764086
691.195019	-3.014000	3.729400	-11.239000	24.637539	0.000531	20.765933
692.193043	-2.997400	3.729600	-11.178000	24.663753	0.000529	20.770901
693.192786	-2.990400	3.728100	-11.148000	24.652213	0.000529	20.770701
694.196011	-3.000800	3.729300	-11.189000	24.644130	0.000529	20.756900
695.194567	-2.996300	3.728800	-11.172000	24.696827	0.000530	20.750510
696.192966	-2.990400	3.727500	-11.145000	24.675641	0.000531	20.750587
697.194736	-2.999800	3.727200	-11.180000	24.608367	0.000529	20.774595
698.194577	-3.003900	3.728500	-11.199000	24.661317	0.000529	20.761344
699.195847	-2.981400	3.728400	-11.115000	24.677084	0.000528	20.762941
700.195462	-3.012900	3.726300	-11.226000	24.679050	0.000529	20.768233
701.195011	-2.981700	3.727500	-11.114000	24.650425	0.000529	20.773175
702.206623	-3.009800	3.727000	-11.217000	24.656718	0.000529	20.781860
703.200663	-2.977800	3.727300	-11.098000	24.692331	0.000528	20.781086
704.207658	-3.000100	3.726400	-11.179000	24.664353	0.000529	20.763917
705.209180	-3.003700	3.726300	-11.192000	24.655600	0.000529	20.760349
706.196943	-2.996300	3.725700	-11.161000	24.637271	0.000527	20.772778
707.195791	-2.996700	3.725200	-11.163000	24.647419	0.000526	20.763519
708.195914	-3.002100	3.724600	-11.181000	24.661272	0.000529	20.780265
709.196804	-2.981300	3.726400	-11.109000	24.711036	0.000529	20.792744
710.200974	-2.989900	3.726600	-11.140000	24.690943	0.000527	20.783012
711.196735	-3.004500	3.725500	-11.193000	24.656101	0.000527	20.792620
712.201253	-2.963000	3.726300	-11.040000	24.662617	0.000528	20.778771
713.199982	-3.017300	3.724100	-11.236000	24.648965	0.000527	20.779296
714.199247	-3.003800	3.725000	-11.189000	24.651029	0.000529	20.774254
715.202958	-2.979300	3.725200	-11.097000	24.714919	0.000527	20.805649
716.200855	-3.008800	3.723500	-11.202000	24.732427	0.000526	20.787184
717.201404	-3.021200	3.722800	-11.246000	24.747547	0.000527	20.780071
718.200162	-3.021900	3.723900	-11.252000	24.709425	0.000525	20.768368
719.201917	-3.018200	3.722400	-11.234000	24.707014	0.000526	20.778751
720.202029	-3.013400	3.723000	-11.218000	24.691073	0.000526	20.804006
721.200731	-3.006600	3.722900	-11.192000	24.687393	0.000526	20.790356
722.201195	-3.002500	3.722200	-11.176000	24.655609	0.000525	20.781222
723.204346	-3.001200	3.721900	-11.169000	24.685279	0.000526	20.792975
724.203371	-3.002600	3.721600	-11.174000	24.687991	0.000525	20.798068
725.203705	-2.974300	3.723100	-11.073000	24.669986	0.000526	20.790906
726.206311	-2.996600	3.721000	-11.150000	24.691846	0.000526	20.795298
727.206088	-2.994700	3.721000	-11.142000	24.741931	0.000525	20.773961
728.207268	-3.002600	3.720600	-11.171000	24.706022	0.000524	20.785816
729.211191	-3.000300	3.720800	-11.162000	24.679113	0.000524	20.778728
730.206300	-2.989600	3.722000	-11.126000	24.715497	0.000522	20.794376
731.206094	-2.998100	3.720200	-11.153000	24.696474	0.000525	20.803261
732.207171	-2.988400	3.722100	-11.122000	24.718109	0.000525	20.804109
733.208464	-2.993900	3.721200	-11.139000	24.720969	0.000524	20.784694
734.209976	-3.005100	3.719700	-11.178000	24.746682	0.000525	20.796273
735.210937	-2.992500	3.718900	-11.128000	24.720175	0.000524	20.797173
736.209949	-2.984200	3.718700	-11.096000	24.746758	0.000523	20.784495
737.209806	-2.996100	3.718900	-11.141000	24.740989	0.000524	20.803836
738.212166	-3.000400	3.718800	-11.156000	24.760063	0.000523	20.793580
739.212158	-2.995700	3.718800	-11.140000	24.786000	0.000523	20.808703
740.211124	-2.984900	3.719300	-11.100000	24.733604	0.000524	20.815865
741.211416	-3.007300	3.716900	-11.176000	24.706250	0.000523	20.792683
742.212775	-2.993000	3.717400	-11.125000	24.689935	0.000523	20.800493
743.208914	-3.002200	3.716500	-11.156000	24.731715	0.000522	20.787891
744.212444	-3.000600	3.717400	-11.154000	24.744895	0.000523	20.805385
745.209974	-2.999900	3.717500	-11.151000	24.763919	0.000521	20.806458
746.210142	-2.993300	3.716900	-11.124000	24.782023	0.000522	20.780530
747.209655	-3.009600	3.716100	-11.183000	24.811092	0.000520	20.802117
748.210155	-2.975000	3.718300	-11.060000	24.781773	0.000523	20.790711
749.213444	-2.990700	3.716500	-11.114000	24.791995	0.000522	20.807608
750.209881	-3.010200	3.716300	-11.186000	24.786897	0.000522	20.792534
751.213004	-3.002700	3.714900	-11.153000	24.745046	0.000520	20.826398
752.216791	-2.991500	3.715300	-11.114000	24.695260	0.000517	20.804888
753.213020	-3.001700	3.714300	-11.148000	24.722590	0.000519	20.801020
754.211811	-3.020800	3.713600	-11.217000	24.736691	0.000519	20.809954
755.211652	-3.009900	3.714200	-11.178000	24.760713	0.000520	20.820785
756.213405	-2.980800	3.714100	-11.070000	24.811692	0.000518	20.821210
757.213310	-3.020300	3.713500	-11.215000	24.778021	0.000521	20.832463
758.213805	-2.989800	3.713300	-11.101000	24.769964	0.000519	20.813947
759.213883	-2.993900	3.711700	-11.112000	24.743829	0.000518	20.831815
760.214386	-3.005500	3.713400	-11.160000	24.804928	0.000517	20.802568
761.213995	-3.005800	3.713000	-11.159000	24.787694	0.000518	20.819886
762.216855	-2.987600	3.713600	-11.094000	24.770337	0.000516	20.831865
763.216354	-3.002800	3.713300	-11.150000	24.745196	0.000520	20.818489
764.216233	-3.007400	3.713000	-11.166000	24.745594	0.000519	20.821259
765.218197	-2.995300	3.712500	-11.119000	24.740646	0.000516	20.826725
766.215653	-3.020400	3.711400	-11.209000	24.777076	0.000518	20.844791
767.218571	-2.991200	3.711500	-11.100000	24.831309	0.000516	20.824303
768.217528	-3.010900	3.711000	-11.172000	24.866917	0.000517	20.828271
769.215195	-2.999900	3.710600	-11.131000	24.883700	0.000517	20.818089
770.222538	-2.987600	3.711900	-11.088000	24.894443	0.000519	20.818913
771.219230	-3.006300	3.710600	-11.155000	24.845980	0.000518	20.812474
772.216840	-2.990100	3.710100	-11.093000	24.863459	0.000516	20.811051
773.222813	-2.999200	3.709800	-11.125000	24.825416	0.000515	20.835457
774.219664	-3.000800	3.709900	-11.131000	24.804006	0.000515	20.830093
775.219170	-3.009500	3.709500	-11.162000	24.807587	0.000516	20.818987
776.216663	-3.013600	3.709400	-11.177000	24.822083	0.000514	20.829268
777.220089	-3.008700	3.708300	-11.156000	24.840508	0.000516	20.818362
778.219917	-2.970900	3.709800	-11.020000	24.846873	0.000515	20.816689
779.222988	-2.987400	3.709800	-11.081000	24.862612	0.000514	20.815890
780.220971	-3.007300	3.708000	-11.151000	24.908090	0.000513	20.834032
781.221778	-3.000700	3.707900	-11.125000	24.911720	0.000514	20.832460
782.221706	-3.000100	3.708800	-11.126000	24.927781	0.000515	20.820131
783.222437	-3.002100	3.708500	-11.132000	24.900978	0.000514	20.821679
784.222111	-2.999900	3.707200	-11.120000	24.923155	0.000515	20.818334
785.222990	-3.021800	3.706700	-11.199000	24.854727	0.000514	20.820304
786.223022	-2.978600	3.707800	-11.042000	24.901000	0.000513	20.844934
787.224557	-3.003600	3.705900	-11.130000	24.878720	0.000512	20.814988
788.223732	-3.006900	3.706700	-11.145000	24.912262	0.000514	20.827314
789.223238	-2.996300	3.705800	-11.102000	24.920840	0.000512	20.825967
790.228246	-3.007700	3.705900	-11.145000	24.875934	0.000513	20.839217
791.224284	-3.005800	3.706300	-11.139000	24.877177	0.000512	20.813438
792.224963	-3.009500	3.705900	-11.152000	24.862132	0.000513	20.828210
793.228231	-3.000900	3.704700	-11.117000	24.886276	0.000512	20.843433
794.226499	-2.996600	3.705000	-11.100000	24.859645	0.000512	20.862222
795.226868	-3.004500	3.704900	-11.131000	24.842314	0.000512	20.828234
796.230031	-3.008200	3.704600	-11.143000	24.850444	0.000512	20.830704
797.226962	-2.981600	3.706000	-11.049000	24.847733	0.000510	20.839837
798.226406	-3.004100	3.704100	-11.127000	24.852382	0.000510	20.850193
799.229971	-2.995200	3.703500	-11.091000	24.845395	0.000511	20.833224
800.227549	-3.010500	3.703500	-11.148000	24.836692	0.000512	20.830653
801.228893	-3.001900	3.703900	-11.118000	24.828958	0.000511	20.831426
802.231325	-3.005000	3.703300	-11.127000	24.831071	0.000510	20.834495
803.231313	-2.999200	3.702400	-11.103000	24.814088	0.000511	20.828356
804.229131	-3.001900	3.702600	-11.114000	24.844450	0.000509	20.831800
805.229110	-3.010700	3.702300	-11.145000	24.823388	0.000510	20.833422
806.228483	-2.945100	3.703600	-10.906000	24.864192	0.000507	20.843080
807.229907	-2.998100	3.701700	-11.097000	24.900022	0.000512	20.845849
808.231190	-2.997200	3.702300	-11.095000	24.939531	0.000508	20.857528
809.229765	-2.980100	3.701500	-11.030000	24.909270	0.000509	20.849916
810.230929	-2.997600	3.700400	-11.091000	24.916059	0.000508	20.853410
811.230049	-3.006500	3.701300	-11.127000	24.931276	0.000506	20.856354
812.234209	-2.995600	3.700600	-11.085000	24.918247	0.000507	20.836641
813.231476	-2.998200	3.701200	-11.096000	24.894427	0.000509	20.835018
814.234777	-2.989300	3.699800	-11.059000	24.887763	0.000509	20.863416
815.235344	-2.996200	3.700400	-11.086000	24.914220	0.000509	20.845874
816.237154	-3.001900	3.700200	-11.107000	24.956935	0.000509	20.855556
817.231661	-2.987400	3.699700	-11.052000	24.979411	0.000506	20.845400
818.231946	-3.003900	3.699000	-11.111000	24.970734	0.000507	20.858027
819.235146	-3.001800	3.700100	-11.106000	24.947064	0.000506	20.873149
820.231772	-2.993400	3.699400	-11.072000	24.983165	0.000507	20.854384
821.232955	-3.013400	3.698600	-11.144000	24.977099	0.000505	20.845450
822.234957	-3.021800	3.698900	-11.176000	25.000942	0.000504	20.866536
823.232532	-2.995000	3.698800	-11.077000	25.020234	0.000505	20.843703
824.234663	-3.016600	3.698500	-11.156000	25.028264	0.000505	20.864565
825.232965	-3.017900	3.697500	-11.158000	25.011881	0.000503	20.875619
826.232329	-3.014600	3.697600	-11.146000	25.026725	0.000505	20.859226
827.231941	-3.017200	3.696800	-11.153000	25.015909	0.000503	20.854534
828.232771	-3.003300	3.696500	-11.101000	25.023045	0.000503	20.870705
829.233656	-3.012700	3.695800	-11.133000	24.962506	0.000503	20.874423
830.233195	-2.986100	3.697100	-11.038000	24.936002	0.000504	20.870580
831.233413	-2.991900	3.697600	-11.062000	24.915217	0.000501	20.872952
832.234003	-2.989200	3.695400	-11.045000	24.908006	0.000501	20.877568
833.236065	-3.011000	3.696900	-11.130000	24.962581	0.000502	20.868335
834.233619	-3.016600	3.694500	-11.144000	24.934337	0.000502	20.850893
835.238185	-3.000800	3.696100	-11.090000	24.966585	0.000502	20.842009
836.233047	-3.018800	3.694000	-11.150000	24.947442	0.000501	20.865942
837.233114	-2.996600	3.696000	-11.075000	24.964647	0.000502	20.866141
838.237307	-2.994500	3.696400	-11.068000	25.007186	0.000503	20.844830
839.236033	-3.006800	3.694000	-11.106000	24.985854	0.000501	20.879366
840.234310	-3.020000	3.694900	-11.157000	25.009699	0.000502	20.872955
841.240656	-2.981200	3.695300	-11.015000	24.996770	0.000501	20.855711
842.234370	-2.993400	3.693700	-11.056000	24.968601	0.000500	20.871058
843.235745	-3.002000	3.694400	-11.090000	24.938319	0.000500	20.861053
844.239115	-3.008200	3.693000	-11.108000	24.927603	0.000499	20.855513
845.236377	-2.996500	3.693000	-11.065000	24.881281	0.000500	20.890099
846.238305	-3.015100	3.692600	-11.133000	24.880610	0.000499	20.860505
847.240602	-3.004200	3.692000	-11.090000	24.945779	0.000500	20.869014
848.237622	-3.001000	3.693600	-11.084000	24.978523	0.000501	20.878646
849.237139	-2.987000	3.694100	-11.033000	25.012138	0.000502	20.868766
850.241012	-3.010900	3.691000	-11.112000	25.025861	0.000500	20.875902
851.237841	-2.988100	3.692100	-11.032000	25.037546	0.000502	20.895691
852.239701	-3.007100	3.690800	-11.097000	25.059201	0.000502	20.878074
853.238495	-3.009300	3.691200	-11.107000	25.010598	0.000501	20.895667
854.240590	-2.986500	3.691500	-11.024000	25.022059	0.000498	20.902429
855.240674	-3.005500	3.690200	-11.089000	25.001101	0.000499	20.885187
856.241110	-3.018400	3.691200	-11.140000	24.941356	0.000501	20.885436
857.240751	-3.006600	3.689700	-11.093000	24.938076	0.000500	20.894946
858.241568	-3.011600	3.689800	-11.111000	24.960428	0.000499	20.878976
859.244254	-3.001000	3.690400	-11.074000	24.937405	0.000498	20.898540
860.242184	-3.017900	3.689100	-11.132000	24.905654	0.000499	20.885638
861.243887	-3.002300	3.690500	-11.079000	24.964457	0.000499	20.896768
862.249898	-2.994600	3.689800	-11.049000	25.021541	0.000499	20.886738
863.247277	-3.000300	3.689100	-11.068000	25.021368	0.000497	20.884667
864.244517	-3.002200	3.688400	-11.073000	24.993150	0.000498	20.894275
865.246614	-3.003300	3.688600	-11.076000	24.990440	0.000499	20.896770
866.246366	-3.000600	3.687500	-11.064000	24.995165	0.000494	20.887289
867.246900	-2.996000	3.688800	-11.050000	24.971572	0.000498	20.911021
868.247436	-3.016100	3.687600	-11.120000	24.997279	0.000495	20.900789
869.248196	-2.990100	3.688700	-11.030000	24.972069	0.000496	20.897297
870.247558	-3.008700	3.687300	-11.092000	24.987809	0.000495	20.892707
871.248452	-3.014000	3.687500	-11.111000	24.991712	0.000495	20.903736
872.247987	-3.010500	3.687800	-11.101000	24.963842	0.000491	20.898996
873.256186	-3.004800	3.685500	-11.073000	24.936892	0.000493	20.932160
874.248230	-2.992900	3.687500	-11.035000	24.937364	0.000495	20.901343
875.250495	-3.002000	3.686500	-11.066000	24.959245	0.000496	20.918562
876.251062	-2.988300	3.685700	-11.013000	24.943804	0.000494	20.892161
877.249479	-2.992200	3.686200	-11.029000	24.935700	0.000491	20.905836
878.250451	-2.988300	3.685800	-11.013000	24.983661	0.000494	20.903242
879.250052	-2.987700	3.684900	-11.008000	25.046190	0.000494	20.906737
880.248138	-2.988800	3.685200	-11.014000	25.042386	0.000492	20.917142
881.250512	-2.982700	3.685800	-10.992000	25.033635	0.000493	20.917841
882.255765	-2.969800	3.685600	-10.945000	25.000845	0.000491	20.921910
883.248950	-2.995600	3.683800	-11.035000	24.989259	0.000492	20.922135
884.251202	-2.986100	3.684700	-11.002000	25.000349	0.000492	20.915249
885.250014	-3.003900	3.683900	-11.064000	25.028045	0.000489	20.899903
886.253239	-2.998500	3.684500	-11.048000	25.015019	0.000492	20.904372
887.250243	-2.979400	3.684100	-10.976000	25.002638	0.000493	20.910909
888.250505	-3.004700	3.684300	-11.069000	25.029341	0.000491	20.917324
889.253452	-2.984600	3.683700	-10.994000	25.064470	0.000492	20.914654
890.252109	-2.998100	3.682600	-11.039000	25.061263	0.000492	20.918073
891.256571	-2.994500	3.682700	-11.027000	25.044484	0.000492	20.915929
892.253595	-2.996800	3.682700	-11.035000	25.057038	0.000491	20.925685
893.252902	-3.001500	3.683200	-11.054000	25.059675	0.000490	20.922168
894.254786	-3.010700	3.681500	-11.082000	25.029868	0.000489	20.924964
895.253756	-3.023400	3.680800	-11.127000	25.002272	0.000490	20.932351
896.255282	-3.013200	3.680400	-11.089000	24.958862	0.000489	20.943305
897.252851	-2.982300	3.681900	-10.980000	24.947525	0.000490	20.922445
898.254392	-3.006400	3.681500	-11.066000	24.993473	0.000488	20.918304
899.254377	-3.010000	3.680400	-11.077000	25.025446	0.000490	20.922896
900.255142	-2.983500	3.680900	-10.981000	25.063906	0.000487	20.955809
901.255365	-2.983100	3.681000	-10.981000	25.077033	0.000487	20.935324
902.254876	-2.991000	3.679500	-11.005000	25.130433	0.000488	20.932032
903.254750	-3.003700	3.679700	-11.052000	25.144477	0.000486	20.940913
904.254055	-2.996000	3.679500	-11.023000	25.160240	0.000487	20.928764
905.254447	-3.006600	3.678600	-11.059000	25.157132	0.000484	20.942712
906.260436	-3.011700	3.677700	-11.075000	25.119946	0.000484	20.935254
907.257290	-2.959400	3.678200	-10.884000	25.108486	0.000485	20.950774
908.261328	-2.978600	3.678900	-10.956000	25.080519	0.000486	20.949253
909.257256	-2.998900	3.678000	-11.029000	25.104583	0.000486	20.946383
910.254790	-3.007800	3.678200	-11.062000	25.088401	0.000485	20.942467
911.260358	-2.970800	3.677400	-10.923000	25.117437	0.000484	20.953596
912.258088	-2.991700	3.677800	-11.001000	25.105231	0.000483	20.943241
913.256492	-2.979400	3.677800	-10.957000	25.085095	0.000485	20.942468
914.257015	-3.003600	3.676400	-11.042000	25.089422	0.000484	20.941122
915.259336	-2.994400	3.676800	-11.009000	25.125246	0.000483	20.941996
916.258925	-2.991500	3.676800	-10.998000	25.144860	0.000483	20.956943
917.256742	-3.000100	3.675700	-11.027000	25.154605	0.000481	20.958190
918.257610	-2.993500	3.676800	-11.005000	25.133575	0.000482	20.952252
919.259925	-3.020600	3.674600	-11.098000	25.108270	0.000482	20.937283
920.257563	-3.011200	3.675600	-11.068000	25.126740	0.000480	20.959141
921.261302	-2.981200	3.676200	-10.959000	25.171261	0.000483	20.945990
922.261529	-3.006000	3.675000	-11.046000	25.191995	0.000481	20.950684
923.259697	-3.002400	3.675600	-11.035000	25.242480	0.000480	20.944470
924.259678	-2.986700	3.675500	-10.976000	25.210713	0.000481	20.933916
925.261298	-3.004500	3.673200	-11.035000	25.197192	0.000480	20.940255
926.260457	-2.997900	3.675200	-11.017000	25.200795	0.000481	20.917797
927.264082	-3.017100	3.673800	-11.083000	25.187995	0.000477	20.934342
928.261817	-3.013000	3.673700	-11.068000	25.212505	0.000478	20.938560
929.259682	-2.993500	3.673800	-10.997000	25.168806	0.000479	20.940207
930.263530	-3.004500	3.673200	-11.035000	25.209450	0.000480	20.921270
931.260865	-3.032100	3.671400	-11.131000	25.184568	0.000478	20.920472
932.259739	-2.994300	3.673800	-10.999000	25.150439	0.000477	20.911814
933.259860	-3.009000	3.672600	-11.050000	25.156678	0.000477	20.923767
934.261450	-3.026900	3.671600	-11.112000	25.164957	0.000477	20.922120
935.260771	-3.000500	3.671000	-11.013000	25.162248	0.000475	20.943580
936.260686	-3.013300	3.670900	-11.061000	25.114743	0.000476	20.915808
937.259935	-3.013700	3.670300	-11.060000	25.109150	0.000477	20.924891
938.260954	-2.997300	3.670500	-11.000000	25.089810	0.000476	20.924917
939.259951	-2.984800	3.670500	-10.955000	25.095776	0.000476	20.931380
940.262097	-2.994100	3.670500	-10.988000	25.099085	0.000476	20.937071
941.260861	-2.993200	3.669700	-10.984000	25.057095	0.000476	20.919104
942.262591	-3.016900	3.668100	-11.065000	25.097618	0.000476	20.924695
943.260890	-3.007700	3.670900	-11.039000	25.129389	0.000474	20.921027
944.264793	-2.994500	3.669000	-10.986000	25.154273	0.000475	20.938894
945.262260	-3.010500	3.669200	-11.045000	25.182986	0.000472	20.930262
946.263505	-2.984000	3.669700	-10.949000	25.171850	0.000474	20.917187
947.267585	-3.005300	3.668900	-11.026000	25.192358	0.000474	20.929240
948.263152	-2.976900	3.669000	-10.922000	25.196336	0.000473	20.918535
949.263694	-2.989400	3.668700	-10.965000	25.155221	0.000474	20.912821
950.266486	-3.008100	3.668700	-11.036000	25.161014	0.000473	20.900621
951.264300	-3.004400	3.668300	-11.020000	25.206430	0.000473	20.905437
952.263675	-2.985500	3.667100	-10.948000	25.236010	0.000472	20.899100
953.267633	-3.012200	3.666600	-11.044000	25.251520	0.000472	20.927945
954.262894	-2.992500	3.666000	-10.970000	25.230220	0.000476	20.908458
955.263740	-3.004900	3.667300	-11.019000	25.260396	0.000473	20.903668
956.266630	-3.035900	3.666800	-11.130000	25.286743	0.000470	20.904042
957.263535	-3.019300	3.665200	-11.065000	25.267680	0.000471	20.916195
958.266063	-3.012900	3.665700	-11.043000	25.270763	0.000471	20.929720
959.267502	-2.979800	3.667400	-10.926000	25.230422	0.000472	20.916247
960.265750	-2.999600	3.666500	-10.997000	25.165768	0.000472	20.888324
961.265730	-3.008800	3.665100	-11.027000	25.158260	0.000472	20.899279
962.270573	-3.009100	3.665500	-11.029000	25.197761	0.000472	20.918069
963.266214	-3.016500	3.664100	-11.050000	25.211482	0.000471	20.897708
964.268033	-3.030300	3.664300	-11.103000	25.209071	0.000470	20.898606
965.272501	-3.003100	3.664900	-11.005000	25.243249	0.000469	20.889773
966.268462	-3.000300	3.664900	-10.995000	25.253267	0.000468	20.882287
967.267903	-2.957000	3.665100	-10.837000	25.229380	0.000468	20.914253
968.268179	-2.977300	3.663500	-10.906000	25.237533	0.000467	20.916274
969.269581	-2.981800	3.665600	-10.929000	25.178225	0.000467	20.895614
970.268972	-2.993400	3.664200	-10.967000	25.174943	0.000468	20.902276
971.273139	-3.005800	3.663000	-11.010000	25.192966	0.000469	20.884809
972.271005	-3.025100	3.661600	-11.075000	25.165896	0.000467	20.895091
973.269336	-3.008900	3.662900	-11.020000	25.202735	0.000467	20.896513
974.270208	-2.981800	3.661600	-10.917000	25.174572	0.000467	20.924187
975.269818	-2.988900	3.661300	-10.943000	25.199853	0.000465	20.908317
976.269179	-2.995400	3.661400	-10.966000	25.246112	0.000467	20.912559
977.269130	-3.007900	3.660400	-11.009000	25.267439	0.000466	20.896040
978.270367	-3.012200	3.660200	-11.024000	25.232193	0.000465	20.873458
979.269263	-3.003600	3.660600	-10.994000	25.193938	0.000465	20.884363
980.270930	-3.019300	3.659700	-11.049000	25.214098	0.000462	20.888481
981.271296	-3.005700	3.660000	-11.000000	25.249246	0.000464	20.890104
982.270661	-3.001500	3.659800	-10.984000	25.287325	0.000465	20.883765
983.272394	-3.003700	3.659900	-10.993000	25.284069	0.000464	20.894245
984.272055	-3.005400	3.659400	-10.997000	25.253498	0.000464	20.894372
985.271490	-3.002200	3.660600	-10.989000	25.241018	0.000463	20.888007
986.272891	-3.014500	3.658300	-11.027000	25.254492	0.000463	20.906749
987.270601	-2.987700	3.658900	-10.931000	25.248577	0.000461	20.889432
988.270939	-3.005500	3.658900	-10.995000	25.235280	0.000462	20.910219
989.271152	-2.995900	3.657700	-10.958000	25.277586	0.000461	20.872091
990.271163	-3.002400	3.657600	-10.980000	25.255614	0.000462	20.883221
991.275023	-3.002500	3.657300	-10.980000	25.268688	0.000463	20.902036
992.271468	-2.992100	3.655600	-10.937000	25.257403	0.000460	20.887388
993.272882	-2.991000	3.657000	-10.938000	25.249823	0.000461	20.901588
994.277134	-3.008300	3.655200	-10.995000	25.224221	0.000461	20.883471
995.272872	-2.977200	3.657500	-10.888000	25.223426	0.000462	20.870820
996.275119	-3.009800	3.655900	-11.003000	25.237247	0.000460	20.886117
997.275785	-3.033400	3.654900	-11.086000	25.233992	0.000459	20.879531
998.275278	-2.987800	3.655800	-10.922000	25.257009	0.000460	20.885570
999.273140	-2.981300	3.655700	-10.898000	25.226735	0.000458	20.887417
1000.273118	-3.008600	3.654400	-10.994000	25.252088	0.000459	20.876362
1001.272929	-2.978100	3.655300	-10.885000	25.292431	0.000458	20.898848
1002.273316	-3.009200	3.655200	-10.999000	25.312214	0.000457	20.856125
1003.272505	-3.004000	3.655500	-10.980000	25.282836	0.000458	20.867880
1004.274434	-2.992600	3.654400	-10.935000	25.238668	0.000457	20.879010
1005.273688	-3.010500	3.652300	-10.995000	25.255594	0.000457	20.881779
1006.274991	-3.005400	3.653200	-10.979000	25.249977	0.000457	20.893682
1007.276049	-2.985200	3.653500	-10.906000	25.302446	0.000456	20.871922
1008.275830	-3.012800	3.652500	-11.003000	25.336375	0.000457	20.902667
1009.274564	-3.002200	3.651900	-10.963000	25.353103	0.000459	20.882480
1010.276174	-3.016600	3.651700	-11.014000	25.371817	0.000454	20.862866
1011.276242	-3.018500	3.652200	-11.023000	25.382331	0.000453	20.871525
1012.278464	-3.021200	3.652600	-11.034000	25.344430	0.000454	20.900797
1013.280922	-3.009000	3.652100	-10.988000	25.321688	0.000456	20.870378
1014.277059	-3.008200	3.650700	-10.982000	25.308937	0.000454	20.871801
1015.277153	-3.003700	3.651900	-10.968000	25.241329	0.000453	20.893535
1016.280444	-3.012300	3.650700	-10.996000	25.251224	0.000452	20.884977
1017.276183	-3.006000	3.650400	-10.972000	25.266511	0.000453	20.878515
1018.280107	-2.978300	3.650500	-10.871000	25.254952	0.000454	20.865014
1019.276574	-2.996300	3.649500	-10.933000	25.227362	0.000452	20.892788
1020.281225	-3.006900	3.650100	-10.974000	25.237107	0.000451	20.867486
1021.281340	-2.990600	3.649400	-10.913000	25.255201	0.000449	20.897030
1022.280817	-3.010000	3.649000	-10.983000	25.278914	0.000450	20.890967
1023.281242	-3.011700	3.648300	-10.987000	25.288259	0.000450	20.877117
1024.280306	-2.994500	3.647900	-10.923000	25.319579	0.000449	20.898604
1025.280055	-3.018000	3.649000	-11.011000	25.326785	0.000450	20.864591
1026.280774	-3.000600	3.648300	-10.947000	25.322412	0.000447	20.854037
1027.281903	-3.003500	3.647400	-10.954000	25.315079	0.000451	20.884131
1028.281991	-3.004900	3.647100	-10.958000	25.287937	0.000451	20.876319
1029.288926	-2.993000	3.646400	-10.912000	25.309288	0.000450	20.852239
1030.281532	-3.015300	3.647400	-10.997000	25.331533	0.000447	20.866513
1031.283587	-3.001800	3.647700	-10.950000	25.370056	0.000447	20.867735
1032.283958	-2.994300	3.646800	-10.919000	25.347888	0.000447	20.860650
1033.283762	-3.010000	3.647000	-10.976000	25.328575	0.000447	20.858328
1034.284014	-3.010600	3.644400	-10.971000	25.346195	0.000445	20.861795
1035.286010	-2.986800	3.645600	-10.888000	25.326538	0.000448	20.853438
1036.284204	-2.984900	3.646200	-10.882000	25.301308	0.000445	20.854184
1037.289874	-2.986000	3.645900	-10.886000	25.334118	0.000445	20.870057
1038.286469	-2.993600	3.644600	-10.909000	25.301783	0.000446	20.861773
1039.286996	-3.000600	3.645100	-10.936000	25.295070	0.000445	20.851715
1040.290510	-2.987100	3.646000	-10.890000	25.282644	0.000445	20.850144
1041.285297	-3.001500	3.644000	-10.937000	25.237231	0.000445	20.869034
1042.286789	-3.003700	3.643900	-10.945000	25.264275	0.000445	20.862521
1043.289950	-2.999400	3.643600	-10.927000	25.303250	0.000445	20.864194
1044.290528	-3.023400	3.642900	-11.013000	25.302852	0.000444	20.852416
1045.287943	-3.011700	3.642900	-10.970000	25.274816	0.000444	20.853190
1046.291039	-3.008300	3.642400	-10.957000	25.227265	0.000443	20.859977
1047.287467	-2.990300	3.643000	-10.892000	25.257318	0.000442	20.867389
1048.290501	-2.998900	3.642300	-10.922000	25.259506	0.000444	20.854888
1049.287632	-3.032400	3.640500	-11.039000	25.251775	0.000443	20.861825
1050.288693	-2.996300	3.642300	-10.913000	25.301289	0.000443	20.856061
1051.289171	-2.993300	3.641400	-10.899000	25.309739	0.000442	20.855063
1052.291128	-2.989900	3.640700	-10.884000	25.324703	0.000441	20.839742
1053.292253	-2.988200	3.641700	-10.882000	25.355695	0.000442	20.859955
1054.289273	-3.010700	3.639400	-10.956000	25.389946	0.000439	20.851672
1055.293166	-2.992700	3.639600	-10.892000	25.327787	0.000441	20.853744
1056.291382	-3.007100	3.640600	-10.947000	25.319510	0.000439	20.856338
1057.290431	-2.986700	3.639900	-10.870000	25.290480	0.000439	20.854218
1058.290030	-2.991300	3.639000	-10.885000	25.310264	0.000439	20.842789
1059.292494	-3.008600	3.639300	-10.949000	25.341806	0.000439	20.854543
1060.292103	-2.999100	3.639800	-10.915000	25.346703	0.000438	20.861830
1061.294043	-2.997300	3.638200	-10.904000	25.363703	0.000438	20.862305
1062.295639	-2.986400	3.637600	-10.863000	25.404338	0.000436	20.840520
1063.293362	-3.017800	3.637500	-10.976000	25.396957	0.000440	20.861082
1064.293538	-2.990200	3.638000	-10.877000	25.365119	0.000438	20.851400
1065.294397	-2.991800	3.637300	-10.881000	25.370215	0.000436	20.833758
1066.292154	-3.009600	3.636100	-10.942000	25.360844	0.000435	20.838573
1067.292519	-3.004200	3.635800	-10.921000	25.346927	0.000436	20.845935
1068.293685	-2.986700	3.636000	-10.859000	25.371831	0.000435	20.833010
1069.291667	-3.014300	3.637000	-10.962000	25.368079	0.000437	20.839673
1070.294939	-2.995500	3.634900	-10.887000	25.381748	0.000436	20.851975
1071.293814	-2.990800	3.635700	-10.873000	25.401579	0.000436	20.846758
1072.296350	-3.007100	3.633400	-10.924000	25.388507	0.000435	20.842167
1073.295551	-3.017900	3.634100	-10.966000	25.349885	0.000437	20.841793
1074.297632	-2.979800	3.635600	-10.833000	25.338202	0.000432	20.845710
1075.297275	-3.004900	3.634200	-10.919000	25.357364	0.000434	20.836027
1076.295934	-3.002400	3.634300	-10.910000	25.387014	0.000433	20.863427
1077.294518	-2.997300	3.634500	-10.893000	25.415544	0.000433	20.852246
1078.296622	-3.012000	3.632100	-10.939000	25.379135	0.000430	20.855515
1079.300881	-2.996300	3.634600	-10.889000	25.341332	0.000433	20.829887
1080.296538	-3.008200	3.631000	-10.922000	25.369391	0.000430	20.847629
1081.300941	-2.993200	3.632800	-10.873000	25.348539	0.000433	20.835226
1082.299655	-3.021400	3.630800	-10.968000	25.347767	0.000430	20.824020
1083.297678	-2.990200	3.632700	-10.861000	25.368695	0.000431	20.842188
1084.301462	-3.017000	3.631300	-10.955000	25.389075	0.000430	20.857909
1085.305529	-2.981200	3.631800	-10.826000	25.410547	0.000430	20.848651
1086.300349	-3.006200	3.631900	-10.917000	25.433510	0.000429	20.826665
1087.302987	-2.986700	3.632700	-10.849000	25.433335	0.000430	20.820326
1088.305195	-3.000300	3.630300	-10.891000	25.393200	0.000427	20.833603
1089.300187	-3.021800	3.628800	-10.965000	25.357187	0.000429	20.837271
1090.304023	-2.954900	3.632300	-10.732000	25.327736	0.000429	20.817184
1091.303662	-2.986000	3.630200	-10.839000	25.352761	0.000427	20.826664
1092.301935	-3.009200	3.630700	-10.925000	25.429210	0.000429	20.831831
1093.302470	-2.994300	3.630100	-10.869000	25.420513	0.000426	20.831158
1094.313698	-2.987900	3.629400	-10.844000	25.415417	0.000427	20.832205
1095.304651	-2.958500	3.629700	-10.737000	25.407664	0.000427	20.821101
1096.303376	-2.996300	3.628300	-10.871000	25.419542	0.000426	20.814536
1097.307464	-2.988800	3.628300	-10.844000	25.408508	0.000423	20.822423
1098.305169	-2.988300	3.629100	-10.843000	25.457987	0.000425	20.826589
1099.301757	-3.006900	3.626900	-10.904000	25.455229	0.000426	20.819077
1100.301539	-2.999400	3.627000	-10.877000	25.463083	0.000426	20.824119
1101.304865	-3.012200	3.627400	-10.925000	25.454087	0.000422	20.815085
1102.305657	-3.001200	3.626100	-10.880000	25.413776	0.000424	20.821548
1103.302767	-3.008400	3.626900	-10.911000	25.459455	0.000421	20.818105
1104.307421	-3.013200	3.625900	-10.924000	25.415391	0.000421	20.822221
1105.304343	-3.010600	3.624600	-10.911000	25.390515	0.000423	20.811942
1106.303803	-2.995100	3.626000	-10.859000	25.423072	0.000423	20.813339
1107.306837	-3.003800	3.625300	-10.888000	25.368743	0.000421	20.797667
1108.305072	-2.999500	3.624700	-10.872000	25.366631	0.000422	20.806926
1109.303949	-3.023700	3.623700	-10.956000	25.394565	0.000422	20.824069
1110.306385	-2.996500	3.624400	-10.860000	25.378909	0.000422	20.787486
1111.308446	-3.012400	3.624200	-10.917000	25.354478	0.000419	20.813215
1112.307137	-2.984800	3.623800	-10.815000	25.367602	0.000420	20.803634
1113.308393	-3.006900	3.622800	-10.893000	25.410372	0.000420	20.808173
1114.310406	-2.977400	3.623500	-10.787000	25.440593	0.000421	20.797742
1115.310069	-2.997700	3.623000	-10.861000	25.433485	0.000420	20.805303
1116.309605	-3.003500	3.621100	-10.875000	25.422874	0.000418	20.798442
1117.310898	-2.989500	3.622500	-10.829000	25.409155	0.000420	20.806003
1118.309767	-2.979000	3.621600	-10.788000	25.379903	0.000417	20.800338
1119.310486	-2.995800	3.621400	-10.848000	25.358727	0.000418	20.820326
1120.309109	-3.004100	3.621700	-10.879000	25.371975	0.000416	20.797593
1121.311009	-2.979200	3.620500	-10.785000	25.386664	0.000417	20.798118
1122.310614	-2.982000	3.621600	-10.799000	25.424416	0.000418	20.797146
1123.311543	-2.985200	3.620400	-10.807000	25.463382	0.000417	20.806876
1124.314634	-3.001300	3.618400	-10.859000	25.391585	0.000415	20.778877
1125.312366	-2.980200	3.618500	-10.783000	25.385099	0.000414	20.789434
1126.312610	-2.976700	3.620100	-10.775000	25.372798	0.000416	20.814066
1127.313484	-3.001600	3.619700	-10.864000	25.362807	0.000416	20.804508
1128.311062	-3.017800	3.618500	-10.919000	25.348043	0.000414	20.807702
1129.310492	-2.996600	3.617800	-10.840000	25.363849	0.000414	20.793227
1130.316314	-3.002500	3.618800	-10.865000	25.361142	0.000415	20.786716
1131.310682	-2.979600	3.617900	-10.778000	25.401057	0.000413	20.776534
1132.309810	-2.997600	3.617800	-10.844000	25.369494	0.000414	20.811223
1133.315265	-3.003300	3.615700	-10.859000	25.372651	0.000415	20.789263
1134.312041	-3.012200	3.616700	-10.893000	25.383487	0.000411	20.783548
1135.311229	-3.023900	3.617400	-10.938000	25.408913	0.000411	20.789639
1136.311626	-3.012300	3.617200	-10.895000	25.383165	0.000411	20.778483
1137.312636	-2.992700	3.616300	-10.822000	25.368178	0.000411	20.799471
1138.312760	-3.017600	3.614900	-10.908000	25.409907	0.000410	20.797275
1139.314797	-3.008700	3.614700	-10.875000	25.406031	0.000410	20.815194
1140.315772	-3.003500	3.615700	-10.858000	25.384235	0.000411	20.796153
1141.314636	-2.996400	3.615000	-10.831000	25.348571	0.000410	20.793533
1142.326660	-3.020400	3.613700	-10.914000	25.348099	0.000410	20.777412
1143.316905	-2.974200	3.614800	-10.750000	25.372505	0.000409	20.789590
1144.317468	-2.996200	3.613700	-10.827000	25.391170	0.000409	20.777512
1145.316557	-2.999600	3.613300	-10.837000	25.417118	0.000411	20.802619
1146.318099	-2.998100	3.614200	-10.835000	25.459638	0.000408	20.786047
1147.316805	-2.973300	3.613200	-10.742000	25.449152	0.000408	20.782155
1148.315567	-3.010200	3.612700	-10.874000	25.455415	0.000408	20.778013
1149.317126	-2.981300	3.612800	-10.769000	25.375417	0.000405	20.785402
1150.316701	-2.977600	3.613200	-10.758000	25.369651	0.000407	20.796208
1151.316878	-2.984800	3.611700	-10.779000	25.375069	0.000406	20.777941
1152.316913	-2.990100	3.611300	-10.798000	25.440632	0.000408	20.776919
1153.317595	-2.992300	3.610600	-10.804000	25.469236	0.000409	20.779089
1154.317574	-2.985600	3.611300	-10.781000	25.496299	0.000405	20.789671
1155.321559	-2.993500	3.610500	-10.807000	25.470703	0.000405	20.783882
1156.322889	-2.999200	3.609200	-10.824000	25.474160	0.000406	20.780241
1157.320454	-2.979500	3.611400	-10.760000	25.479156	0.000404	20.786680
1158.319844	-3.002600	3.610700	-10.840000	25.520382	0.000403	20.759328
1159.321763	-2.984000	3.610600	-10.772000	25.534001	0.000403	20.777746
1160.319397	-3.003500	3.609500	-10.841000	25.559273	0.000405	20.761401
1161.323535	-2.997300	3.608600	-10.815000	25.561536	0.000404	20.796390
1162.322246	-3.007000	3.607300	-10.846000	25.566307	0.000401	20.779845
1163.318707	-3.018600	3.607700	-10.890000	25.561586	0.000402	20.782690
1164.323317	-2.992600	3.608500	-10.798000	25.535941	0.000402	20.777324
1165.323566	-2.991200	3.607400	-10.790000	25.482414	0.000402	20.783788
1166.323428	-3.023300	3.605300	-10.899000	25.492577	0.000402	20.763174
1167.324563	-3.001900	3.605800	-10.823000	25.517827	0.000399	20.780945
1168.323125	-2.964800	3.608800	-10.699000	25.545212	0.000403	20.783316
1169.324101	-2.994300	3.606200	-10.797000	25.539919	0.000399	20.791276
1170.328115	-2.999600	3.605600	-10.814000	25.561165	0.000401	20.783690
1171.324417	-2.963200	3.606000	-10.684000	25.595108	0.000399	20.777001
1172.324450	-2.972500	3.606500	-10.719000	25.576622	0.000398	20.772660
1173.322563	-2.975900	3.605500	-10.729000	25.609074	0.000399	20.766371
1174.323942	-2.998900	3.603600	-10.806000	25.567652	0.000399	20.778824
1175.326144	-2.997000	3.604000	-10.800000	25.537882	0.000398	20.786860
1176.325191	-2.965300	3.606000	-10.692000	25.516589	0.000398	20.783020
1177.324564	-2.981100	3.603900	-10.742000	25.516737	0.000395	20.767047
1178.329957	-2.990700	3.603200	-10.775000	25.468152	0.000397	20.794123
1179.325353	-2.989100	3.602700	-10.768000	25.490843	0.000397	20.769019
1180.325191	-2.977300	3.603400	-10.728000	25.463856	0.000396	20.772264
1181.325429	-3.005200	3.602900	-10.826000	25.455406	0.000394	20.776108
1182.324871	-2.994700	3.602900	-10.789000	25.485451	0.000395	20.783045
1183.327318	-2.967800	3.602400	-10.690000	25.508389	0.000396	20.762931
1184.328105	-3.004500	3.601800	-10.821000	25.565917	0.000395	20.787040
1185.326847	-3.005800	3.602100	-10.826000	25.552846	0.000394	20.782921
1186.326937	-2.991300	3.602300	-10.775000	25.512415	0.000394	20.801588
1187.326250	-2.983200	3.600500	-10.740000	25.490721	0.000393	20.781225
1188.328443	-2.992300	3.600500	-10.772000	25.474222	0.000391	20.799269
1189.328489	-3.001000	3.601100	-10.806000	25.440920	0.000393	20.799019
1190.328282	-2.995500	3.600500	-10.785000	25.420393	0.000390	20.781726
1191.328383	-3.000000	3.600200	-10.800000	25.424915	0.000392	20.800492
1192.330093	-3.013100	3.600400	-10.848000	25.406898	0.000391	20.780978
1193.329790	-3.022700	3.597500	-10.873000	25.430558	0.000390	20.774864
1194.331114	-3.015200	3.597800	-10.847000	25.376950	0.000391	20.787415
1195.329310	-2.989300	3.598800	-10.757000	25.380232	0.000393	20.782650
1196.329341	-2.981700	3.598300	-10.728000	25.434833	0.000388	20.791484
1197.331980	-2.969100	3.598000	-10.682000	25.437145	0.000390	20.780530
1198.330783	-2.997800	3.597300	-10.783000	25.441395	0.000391	20.782901
1199.331990	-2.994700	3.596900	-10.770000	25.417115	0.000391	20.771796
1200.331970	-3.011800	3.597300	-10.833000	25.403297	0.000390	20.794905
1201.333244	-2.989900	3.596100	-10.750000	25.400738	0.000388	20.796129
1202.332321	-3.012600	3.596100	-10.833000	25.392213	0.000388	20.794681
1203.333063	-3.008600	3.596200	-10.819000	25.381727	0.000388	20.796479
1204.331932	-3.008700	3.596100	-10.819000	25.428623	0.000389	20.782403
1205.331320	-2.992600	3.595000	-10.758000	25.451984	0.000387	20.773145
1206.334009	-3.022800	3.594600	-10.864000	25.515479	0.000391	20.789492
1207.331675	-3.014400	3.594500	-10.835000	25.554171	0.000389	20.783779
1208.331571	-2.985800	3.595000	-10.734000	25.579269	0.000384	20.799501
1209.332645	-3.009800	3.594200	-10.816000	25.559290	0.000386	20.804092
1210.332332	-3.007800	3.593300	-10.807000	25.500373	0.000387	20.784754
1211.334618	-3.003800	3.594000	-10.794000	25.506062	0.000387	20.779561
1212.333339	-3.007700	3.592700	-10.805000	25.459569	0.000387	20.801150
1213.334112	-2.986500	3.593300	-10.731000	25.461085	0.000386	20.802673
1214.334636	-2.983600	3.593600	-10.721000	25.460091	0.000385	20.797881
1215.335487	-3.000900	3.591000	-10.775000	25.490409	0.000385	20.772377
1216.336695	-3.013600	3.591100	-10.822000	25.506589	0.000386	20.801901
1217.334120	-3.007100	3.590000	-10.795000	25.551965	0.000384	20.777295
1218.335006	-3.007300	3.590700	-10.798000	25.532236	0.000383	20.774078
1219.336914	-2.981400	3.591400	-10.706000	25.485593	0.000384	20.807369
1220.333830	-3.013100	3.589800	-10.816000	25.517003	0.000386	20.787703
1221.337628	-2.997300	3.589600	-10.758000	25.516484	0.000385	20.803778
1222.337645	-2.985800	3.591100	-10.721000	25.522622	0.000382	20.802829
1223.337190	-3.013800	3.590500	-10.820000	25.578509	0.000384	20.810117
1224.335763	-3.010200	3.589900	-10.805000	25.573688	0.000380	20.801956
1225.335568	-3.001400	3.589700	-10.773000	25.592302	0.000380	20.821598
1226.339546	-2.997200	3.589200	-10.756000	25.577146	0.000380	20.827713
1227.335190	-3.003800	3.588000	-10.777000	25.571482	0.000379	20.806853
1228.337995	-3.023900	3.586700	-10.845000	25.536021	0.000381	20.828139
1229.335536	-2.991900	3.587100	-10.732000	25.506748	0.000381	20.808225
1230.338165	-2.981200	3.589300	-10.699000	25.500337	0.000377	20.795623
1231.337039	-2.999300	3.586600	-10.757000	25.532495	0.000378	20.821753
1232.337143	-3.013600	3.586100	-10.806000	25.567485	0.000377	20.800468
1233.337866	-2.986600	3.586500	-10.711000	25.604334	0.000378	20.800966
1234.337382	-3.007800	3.586500	-10.786000	25.622774	0.000376	20.805736
1235.337421	-3.011700	3.585700	-10.798000	25.624937	0.000376	20.803640
1236.335815	-2.996600	3.586500	-10.747000	25.613059	0.000378	20.800246
1237.336918	-2.998600	3.585600	-10.751000	25.596289	0.000375	20.798102
1238.337790	-3.027400	3.585800	-10.854000	25.565177	0.000377	20.803841
1239.337993	-3.002500	3.584600	-10.762000	25.550915	0.000375	20.792837
1240.337968	-2.987800	3.584500	-10.709000	25.501416	0.000375	20.810457
1241.338560	-2.984200	3.584800	-10.697000	25.507900	0.000375	20.810804
1242.340790	-3.015000	3.582900	-10.801000	25.498656	0.000373	20.801996
1243.338736	-2.995000	3.584700	-10.736000	25.543240	0.000375	20.815948
1244.340192	-3.004900	3.583900	-10.768000	25.549253	0.000374	20.833840
1245.340298	-3.000900	3.584700	-10.756000	25.525970	0.000374	20.824209
1246.345501	-3.004000	3.582600	-10.761000	25.507880	0.000374	20.798930
1247.341289	-3.039700	3.581600	-10.885000	25.528482	0.000374	20.812981
1248.344687	-2.981900	3.582800	-10.683000	25.548012	0.000373	20.808413
1249.346861	-2.997300	3.581500	-10.735000	25.584616	0.000372	20.813405
1250.345959	-2.997600	3.582200	-10.737000	25.556338	0.000374	20.812033
1251.351965	-2.974800	3.581500	-10.652000	25.578478	0.000370	20.822888
1252.349508	-2.992000	3.580000	-10.711000	25.557184	0.000370	20.816202
1253.346262	-2.979100	3.581000	-10.667000	25.557261	0.000370	20.836667
1254.353195	-3.004100	3.580700	-10.756000	25.501770	0.000371	20.825511
1255.349259	-3.003500	3.580300	-10.753000	25.508804	0.000370	20.818824
1256.346237	-3.005500	3.580000	-10.759000	25.535319	0.000369	20.833124
1257.346675	-2.976800	3.579000	-10.653000	25.518794	0.000371	20.815106
1258.346647	-3.006900	3.578500	-10.759000	25.541657	0.000369	20.828583
1259.344291	-2.986500	3.578500	-10.686000	25.537655	0.000367	20.820297
1260.344626	-3.032200	3.577400	-10.847000	25.569215	0.000368	20.821172
1261.345365	-3.012700	3.578000	-10.778000	25.598811	0.000368	20.812963
1262.345654	-3.011400	3.577400	-10.772000	25.576324	0.000368	20.821673
1263.346440	-3.010800	3.576800	-10.768000	25.559576	0.000370	20.815285
1264.347580	-3.007000	3.577200	-10.755000	25.521358	0.000367	20.837121
1265.349262	-3.013400	3.576800	-10.777000	25.512264	0.000367	20.837945
1266.347904	-3.010300	3.576300	-10.765000	25.536119	0.000363	20.848151
1267.347982	-3.003500	3.576300	-10.741000	25.537585	0.000365	20.853891
1268.354646	-3.006900	3.576300	-10.753000	25.568524	0.000367	20.858408
1269.348515	-3.013300	3.577000	-10.778000	25.543077	0.000365	20.825741
1270.350296	-2.993400	3.575300	-10.701000	25.535398	0.000363	20.843159
1271.351937	-2.989000	3.575900	-10.687000	25.523920	0.000364	20.841116
1272.355904	-2.977200	3.574800	-10.642000	25.494076	0.000364	20.829638
1273.349243	-2.999300	3.574900	-10.721000	25.493032	0.000362	20.858460
1274.352346	-3.010500	3.573400	-10.757000	25.517484	0.000361	20.835127
1275.350135	-2.981300	3.573600	-10.653000	25.505258	0.000363	20.834229
1276.348793	-2.969600	3.574400	-10.613000	25.522432	0.000362	20.829190
1277.351921	-2.975900	3.573700	-10.634000	25.611365	0.000363	20.844062
1278.350424	-2.985500	3.574400	-10.670000	25.608980	0.000361	20.834080
1279.350108	-2.987900	3.572200	-10.672000	25.622126	0.000361	20.841119
1280.349524	-2.993300	3.572500	-10.692000	25.593501	0.000362	20.846510
1281.350110	-2.987300	3.572400	-10.672000	25.521065	0.000361	20.842516
1282.349418	-2.995900	3.571600	-10.699000	25.503521	0.000358	20.841493
1283.356890	-3.009800	3.570600	-10.746000	25.531155	0.000357	20.844588
1284.352984	-3.014800	3.570400	-10.763000	25.578741	0.000358	20.832161
1285.349906	-2.979100	3.572300	-10.641000	25.561769	0.000358	20.842142
1286.355413	-3.022200	3.569700	-10.788000	25.562291	0.000360	20.843141
1287.351418	-2.977700	3.571000	-10.632000	25.530857	0.000357	20.862306
1288.351734	-2.990200	3.570400	-10.675000	25.476162	0.000357	20.855270
1289.355669	-3.007100	3.569500	-10.732000	25.485406	0.000359	20.867397
1290.352812	-2.992200	3.569000	-10.678000	25.464580	0.000357	20.847433
1291.355654	-3.000400	3.569500	-10.709000	25.486648	0.000355	20.849204
1292.353920	-3.017300	3.566900	-10.762000	25.543728	0.000353	20.855792
1293.351618	-2.987900	3.569700	-10.665000	25.557967	0.000356	20.849704
1294.354626	-3.010500	3.568600	-10.742000	25.600111	0.000354	20.850303
1295.352832	-3.013000	3.566700	-10.746000	25.670552	0.000354	20.861780
1296.353873	-3.004800	3.566900	-10.717000	25.660216	0.000353	20.863253
1297.355671	-2.983500	3.567200	-10.641000	25.662404	0.000354	20.879674
1298.351807	-3.013500	3.566500	-10.746000	25.652290	0.000353	20.844862
1299.352110	-2.998000	3.566700	-10.691000	25.608087	0.000353	20.863528
1300.358865	-3.013100	3.565000	-10.740000	25.534211	0.000354	20.866622
1301.353941	-3.004100	3.565900	-10.712000	25.500613	0.000352	20.857064
1302.354727	-2.981700	3.565000	-10.629000	25.507098	0.000353	20.866422
1303.358690	-3.008200	3.565800	-10.725000	25.560847	0.000351	20.862078
1304.352813	-2.998600	3.565300	-10.690000	25.571930	0.000353	20.869415
1305.355280	-2.994100	3.564200	-10.670000	25.548371	0.000351	20.853343
1306.359869	-3.019900	3.563400	-10.761000	25.512515	0.000353	20.844361
1307.355739	-3.004100	3.563100	-10.704000	25.520615	0.000349	20.861029
1308.358354	-3.007900	3.562300	-10.714000	25.577147	0.000351	20.848102
1309.362847	-2.993500	3.562300	-10.662000	25.601647	0.000353	20.862276
1310.356419	-2.983400	3.563100	-10.630000	25.650547	0.000349	20.858283
1311.358222	-2.992000	3.561800	-10.656000	25.658125	0.000349	20.846455
1312.358737	-3.023100	3.562600	-10.769000	25.635092	0.000348	20.866468
1313.360025	-2.992000	3.562600	-10.658000	25.614120	0.000350	20.865320
1314.359870	-2.988800	3.561100	-10.642000	25.610591	0.000348	20.866043
1315.358876	-3.003900	3.561300	-10.696000	25.574312	0.000349	20.864221
1316.361214	-2.978600	3.561100	-10.606000	25.595260	0.000346	20.856336
1317.358974	-3.010200	3.560500	-10.717000	25.629477	0.000348	20.856562
1318.359206	-3.004200	3.560400	-10.696000	25.604875	0.000348	20.880690
1319.360553	-2.989800	3.560500	-10.644000	25.546782	0.000345	20.870712
1320.358593	-2.988600	3.560700	-10.640000	25.526678	0.000347	20.867118
1321.361666	-3.022000	3.557800	-10.750000	25.544170	0.000347	20.863822
1322.360371	-2.999000	3.560900	-10.678000	25.584004	0.000348	20.872532
1323.362039	-3.018700	3.558700	-10.742000	25.618269	0.000347	20.873754
1324.359608	-3.032300	3.557200	-10.786000	25.620929	0.000347	20.861727
1325.363026	-2.995500	3.558200	-10.657000	25.589695	0.000346	20.875876
1326.361479	-2.996700	3.558200	-10.662000	25.584029	0.000345	20.885832
1327.361094	-3.016600	3.558100	-10.733000	25.614592	0.000345	20.877173
1328.361025	-2.998100	3.556200	-10.661000	25.655789	0.000345	20.872557
1329.360525	-3.020700	3.556400	-10.742000	25.662251	0.000343	20.883313
1330.363074	-2.999000	3.556100	-10.664000	25.676611	0.000343	20.872607
1331.361089	-3.011400	3.555200	-10.705000	25.660710	0.000344	20.857585
1332.363811	-3.011700	3.554700	-10.705000	25.681605	0.000345	20.873829
1333.362651	-2.990600	3.556300	-10.635000	25.613174	0.000342	20.895662
1334.365264	-2.992600	3.554600	-10.637000	25.582363	0.000343	20.880841
1335.364087	-3.002100	3.555400	-10.673000	25.581519	0.000340	20.900379
1336.363165	-2.996500	3.554800	-10.651000	25.611138	0.000341	20.882712
1337.369787	-2.999900	3.554200	-10.661000	25.609821	0.000340	20.883286
1338.366852	-2.993000	3.553500	-10.635000	25.611088	0.000341	20.879343
1339.363597	-2.991500	3.553600	-10.630000	25.640433	0.000342	20.876099
1340.369793	-3.009100	3.552400	-10.688000	25.596701	0.000339	20.886231
1341.365193	-3.001700	3.554400	-10.669000	25.605225	0.000338	20.876300
1342.364752	-2.997500	3.553700	-10.650000	25.613201	0.000340	20.892370
1343.363847	-2.970900	3.553900	-10.558000	25.602492	0.000338	20.878296
1344.366849	-2.986100	3.552400	-10.607000	25.611412	0.000338	20.885832
1345.366007	-2.989500	3.552200	-10.618000	25.618593	0.000337	20.913431
1346.365107	-2.998100	3.551400	-10.647000	25.609623	0.000337	20.894466
1347.365717	-2.996000	3.551300	-10.639000	25.603162	0.000336	20.879443
1348.366916	-2.996000	3.549800	-10.634000	25.612256	0.000338	20.893318
1349.365223	-3.002800	3.550300	-10.659000	25.617772	0.000336	20.906917
1350.365005	-3.016100	3.550600	-10.708000	25.651664	0.000336	20.888326
1351.366581	-2.995000	3.549300	-10.629000	25.689530	0.000336	20.906443
1352.372875	-3.018600	3.547900	-10.709000	25.689060	0.000338	20.883213
1353.366242	-3.011900	3.547800	-10.684000	25.675022	0.000337	20.877174
1354.367348	-3.011900	3.549000	-10.689000	25.650945	0.000336	20.899458
1355.371816	-3.008400	3.547500	-10.672000	25.648311	0.000334	20.901079
1356.366729	-2.986600	3.548300	-10.597000	25.674450	0.000334	20.891772
1357.366442	-2.984600	3.548700	-10.590000	25.656858	0.000332	20.897336
1358.368604	-3.022000	3.547100	-10.719000	25.681779	0.000336	20.912882
1359.370241	-3.020500	3.545200	-10.707000	25.681731	0.000333	20.917100
1360.371296	-2.990600	3.546300	-10.605000	25.675519	0.000333	20.908017
1361.370029	-2.974400	3.546700	-10.548000	25.688712	0.000335	20.909414
1362.371850	-3.007400	3.546800	-10.666000	25.703172	0.000334	20.892171
1363.369392	-3.000000	3.545800	-10.635000	25.690129	0.000332	20.904199
1364.369895	-3.007800	3.545000	-10.662000	25.700564	0.000334	20.907094
1365.371397	-3.001300	3.546500	-10.644000	25.740841	0.000334	20.913409
1366.375506	-2.976700	3.546300	-10.556000	25.738306	0.000332	20.910863
1367.371708	-2.999000	3.546000	-10.634000	25.738954	0.000333	20.909144
1368.375458	-3.012300	3.544600	-10.677000	25.732394	0.000335	20.910615
1369.373056	-2.994600	3.545500	-10.617000	25.769538	0.000331	20.911888
1370.370659	-3.005300	3.543800	-10.649000	25.706779	0.000330	20.919499
1371.373868	-2.994500	3.543800	-10.611000	25.689909	0.000330	20.920572
1372.371875	-2.991800	3.542300	-10.597000	25.676069	0.000330	20.922793
1373.370955	-3.003900	3.542600	-10.640000	25.645708	0.000332	20.899887
1374.372656	-2.994100	3.542300	-10.606000	25.671201	0.000331	20.918851
1375.375289	-2.981700	3.542700	-10.562000	25.668817	0.000328	20.916457
1376.374054	-3.012200	3.541700	-10.667000	25.690335	0.000329	20.937119
1377.373734	-2.988900	3.542100	-10.586000	25.680099	0.000328	20.915461
1378.374367	-2.980000	3.541300	-10.551000	25.668370	0.000330	20.910793
1379.379032	-2.959000	3.540800	-10.476000	25.636816	0.000329	20.923671
1380.374761	-2.983800	3.541700	-10.566000	25.662184	0.000327	20.923546
1381.373527	-3.018900	3.538900	-10.683000	25.630331	0.000328	20.930434
1382.379890	-3.013800	3.540300	-10.669000	25.628493	0.000329	20.945655
1383.376955	-2.998900	3.539700	-10.614000	25.580139	0.000327	20.915588
1384.373626	-3.000300	3.538700	-10.617000	25.604043	0.000326	20.927739
1385.374182	-2.990100	3.539300	-10.582000	25.636495	0.000326	20.937098
1386.377610	-3.007500	3.539500	-10.644000	25.688822	0.000327	20.937497
1387.376403	-2.998000	3.537800	-10.605000	25.731508	0.000327	20.941964
1388.376943	-3.017900	3.535800	-10.670000	25.776702	0.000328	20.920506
1389.376369	-2.994000	3.537600	-10.591000	25.747235	0.000327	20.920305
1390.375173	-2.958600	3.538600	-10.469000	25.750540	0.000324	20.930262
1391.376915	-2.988700	3.538000	-10.572000	25.772651	0.000327	20.927342
1392.376749	-2.996700	3.536400	-10.596000	25.782093	0.000324	20.942515
1393.377523	-3.003100	3.536500	-10.619000	25.785025	0.000323	20.944985
1394.376462	-2.997100	3.536600	-10.598000	25.709894	0.000325	20.944910
1395.378963	-3.033800	3.535400	-10.725000	25.700827	0.000324	20.947656
1396.378105	-2.995000	3.536100	-10.589000	25.675484	0.000324	20.940695
1397.381110	-2.998600	3.534800	-10.599000	25.708752	0.000323	20.933807
1398.378801	-3.009100	3.534100	-10.634000	25.719115	0.000323	20.938525
1399.378549	-2.989900	3.534600	-10.568000	25.703561	0.000322	20.926698
1400.380402	-2.975200	3.534000	-10.513000	25.701625	0.000323	20.933287
1401.380518	-3.002700	3.533800	-10.610000	25.731937	0.000320	20.944765
1402.384885	-2.994700	3.532600	-10.578000	25.757601	0.000319	20.961532
1403.380633	-2.997700	3.533600	-10.591000	25.746271	0.000322	20.936879
1404.381626	-3.015100	3.532600	-10.650000	25.734372	0.000321	20.944366
1405.381535	-2.972900	3.533600	-10.504000	25.780633	0.000320	20.960485
1406.379836	-3.014700	3.531900	-10.646000	25.787740	0.000320	20.961934
1407.380286	-3.014400	3.529700	-10.639000	25.781204	0.000318	20.950155
1408.378946	-2.985200	3.531200	-10.541000	25.766448	0.000319	20.939128
1409.382787	-2.999700	3.529800	-10.588000	25.745206	0.000317	20.962358
1410.380195	-3.004300	3.531400	-10.607000	25.750523	0.000319	20.957743
1411.379816	-3.000800	3.529600	-10.590000	25.759939	0.000319	20.959140
1412.379912	-2.979400	3.530700	-10.519000	25.771541	0.000317	20.960362
1413.379581	-2.998300	3.529000	-10.580000	25.793404	0.000316	20.951978
1414.379104	-3.004700	3.529200	-10.603000	25.807043	0.000319	20.941972
1415.383007	-3.002300	3.528800	-10.593000	25.767442	0.000317	20.947712
1416.380646	-2.992200	3.529300	-10.559000	25.746152	0.000317	20.950034
1417.382192	-2.998000	3.528100	-10.576000	25.711170	0.000316	20.961362
1418.383109	-2.998100	3.527600	-10.575000	25.714971	0.000316	20.973239
1419.380828	-2.984800	3.527800	-10.528000	25.737356	0.000315	20.965378
1420.384100	-3.025900	3.527600	-10.673000	25.758076	0.000318	20.945416
1421.383493	-2.993200	3.527600	-10.558000	25.762524	0.000315	20.965054
1422.384101	-2.984800	3.525800	-10.522000	25.728958	0.000317	20.949359
1423.385788	-2.984200	3.527000	-10.525000	25.737605	0.000317	20.959940
1424.385017	-2.989200	3.525500	-10.537000	25.758947	0.000316	20.955773
1425.385087	-2.994000	3.525700	-10.555000	25.738177	0.000313	20.992751
1426.383471	-3.002000	3.524400	-10.580000	25.732760	0.000314	20.967400
1427.384442	-3.009600	3.524700	-10.607000	25.770948	0.000313	20.946966
1428.383487	-2.990900	3.525600	-10.544000	25.773805	0.000311	20.947465
1429.388050	-3.005500	3.524200	-10.591000	25.748191	0.000313	20.951134
1430.385348	-2.997300	3.524500	-10.563000	25.737979	0.000311	20.943248
1431.385010	-3.034900	3.523400	-10.692000	25.722451	0.000312	20.955624
1432.391611	-2.991100	3.524200	-10.540000	25.677950	0.000311	20.943171
1433.384906	-3.000700	3.524000	-10.573000	25.692785	0.000311	20.947640
1434.386185	-2.994100	3.523500	-10.549000	25.697804	0.000310	20.950783
1435.387479	-3.032700	3.521400	-10.678000	25.667441	0.000309	20.937833
1436.385179	-3.005500	3.521300	-10.582000	25.642445	0.000311	20.923635
1437.384713	-3.012200	3.521500	-10.607000	25.668260	0.000311	20.946715
1438.389845	-3.001900	3.521600	-10.571000	25.713281	0.000312	20.934562
1439.386619	-2.974600	3.520300	-10.469000	25.762351	0.000310	20.941176
1440.386950	-2.988600	3.521800	-10.525000	25.756959	0.000310	20.920590
1441.388332	-3.004200	3.521100	-10.577000	25.727168	0.000310	20.930020
1442.389658	-3.002300	3.520700	-10.569000	25.788609	0.000307	20.927724
1443.388424	-3.017600	3.520500	-10.623000	25.787567	0.000307	20.914825
1444.391116	-2.985200	3.521000	-10.510000	25.783020	0.000307	20.915473
1445.388532	-3.004100	3.520100	-10.574000	25.782373	0.000308	20.929521
1446.386427	-3.004100	3.518400	-10.569000	25.761430	0.000306	20.921287
1447.387606	-2.984100	3.517900	-10.497000	25.750771	0.000305	20.908211
1448.387575	-2.987500	3.518300	-10.511000	25.780535	0.000306	20.927200
1449.388151	-2.989800	3.518600	-10.519000	25.793702	0.000306	20.913401
1450.387745	-3.007100	3.517100	-10.574000	25.736880	0.000307	20.920336
1451.394280	-3.009100	3.516000	-10.579000	25.730473	0.000306	20.930968
1452.388878	-3.017500	3.515700	-10.608000	25.718297	0.000305	20.922533
1453.390479	-2.982900	3.518200	-10.494000	25.747167	0.000304	20.922134
1454.390776	-3.018600	3.515500	-10.610000	25.773329	0.000304	20.906689
1455.392708	-2.998700	3.515400	-10.540000	25.783835	0.000302	20.917241
1456.394215	-3.001100	3.515400	-10.549000	25.789601	0.000306	20.908335
1457.392900	-3.020000	3.513100	-10.608000	25.751687	0.000304	20.906760
1458.392958	-3.008900	3.514100	-10.572000	25.728805	0.000302	20.923604
1459.390718	-3.006800	3.513500	-10.563000	25.745053	0.000302	20.906261
1460.396176	-3.025900	3.514900	-10.636000	25.776060	0.000303	20.896156
1461.393089	-2.996100	3.514500	-10.528000	25.778914	0.000299	20.926995
1462.394076	-3.001000	3.512400	-10.539000	25.794715	0.000302	20.901618
1463.396987	-3.007000	3.512300	-10.560000	25.773276	0.000300	20.901894
1464.394332	-2.984100	3.513900	-10.484000	25.820403	0.000301	20.923152
1465.394142	-3.019700	3.512600	-10.606000	25.849915	0.000300	20.910126
1466.400491	-3.019600	3.512300	-10.604000	25.856548	0.000300	20.887867
1467.395861	-3.011000	3.512100	-10.574000	25.873168	0.000298	20.910251
1468.398084	-3.016200	3.511300	-10.590000	25.868671	0.000301	20.911897
1469.401093	-2.983800	3.511700	-10.477000	25.830486	0.000298	20.922850
1470.397894	-2.996100	3.510600	-10.517000	25.748823	0.000301	20.936123
1471.395796	-2.991800	3.510600	-10.502000	25.730487	0.000298	20.895899
1472.400125	-2.997500	3.510600	-10.522000	25.758091	0.000297	20.910822
1473.398100	-2.998700	3.509400	-10.523000	25.788649	0.000298	20.915438
1474.398331	-2.996700	3.508700	-10.513000	25.799703	0.000297	20.910895
1475.395312	-2.989200	3.509300	-10.488000	25.820371	0.000297	20.888036
1476.394720	-2.989700	3.508800	-10.490000	25.808918	0.000297	20.905453
1477.396212	-3.025500	3.507400	-10.610000	25.775998	0.000296	20.879026
1478.397335	-3.005700	3.507300	-10.540000	25.767774	0.000296	20.898738
1479.395007	-3.000100	3.507800	-10.522000	25.771401	0.000295	20.895744
1480.395079	-3.010800	3.506600	-10.557000	25.787623	0.000295	20.900658
1481.395687	-3.020200	3.507000	-10.591000	25.834452	0.000294	20.880844
1482.395549	-3.008000	3.506400	-10.546000	25.822726	0.000296	20.883290
1483.399669	-3.020800	3.505200	-10.588000	25.809012	0.000296	20.900807
1484.397718	-2.997300	3.504700	-10.503000	25.825259	0.000294	20.881567
1485.396732	-2.994500	3.505300	-10.496000	25.867540	0.000293	20.886582
1486.396057	-2.995400	3.504200	-10.495000	25.875539	0.000295	20.881341
1487.402871	-2.986200	3.505600	-10.467000	25.832411	0.000296	20.885431
1488.401161	-2.989900	3.504800	-10.478000	25.842522	0.000293	20.897011
1489.400357	-2.983800	3.504600	-10.456000	25.844485	0.000295	20.889500
1490.404730	-2.999700	3.503200	-10.507000	25.823020	0.000293	20.886904
1491.400999	-2.966500	3.505200	-10.397000	25.840759	0.000291	20.898558
1492.403230	-2.984200	3.503300	-10.454000	25.865054	0.000292	20.879817
1493.400120	-3.014200	3.502000	-10.554000	25.853103	0.000291	20.872079
1494.400175	-2.991300	3.502300	-10.476000	25.838249	0.000292	20.892244
1495.405427	-2.990700	3.503500	-10.476000	25.837304	0.000291	20.897458
1496.400976	-3.014300	3.502400	-10.557000	25.842321	0.000293	20.890645
1497.401110	-2.995900	3.503200	-10.495000	25.806672	0.000290	20.888974
1498.405313	-2.988700	3.501100	-10.463000	25.786523	0.000291	20.875373
1499.401246	-2.997000	3.502300	-10.496000	25.766423	0.000291	20.868460
1500.403578	-2.995200	3.500300	-10.484000	25.736064	0.000290	20.898655
1501.404536	-2.998400	3.501200	-10.497000	25.723765	0.000291	20.895311
1502.402593	-2.999500	3.501300	-10.501000	25.741381	0.000289	20.882186
1503.401175	-3.018900	3.498800	-10.562000	25.782821	0.000290	20.892991
1504.406509	-2.995800	3.500000	-10.483000	25.734697	0.000288	20.869784
1505.404233	-2.963500	3.500600	-10.373000	25.756909	0.000287	20.886403
1506.404339	-2.983500	3.499500	-10.440000	25.776982	0.000288	20.887126
1507.406632	-3.007500	3.497600	-10.518000	25.808833	0.000286	20.875498
1508.404879	-2.984700	3.499400	-10.444000	25.838595	0.000288	20.880265
1509.404521	-2.990000	3.496600	-10.454000	25.841600	0.000288	20.883283
1510.408602	-2.979500	3.497400	-10.420000	25.844085	0.000285	20.882934
1511.404623	-2.978800	3.498000	-10.419000	25.812435	0.000285	20.872478
1512.408743	-3.023900	3.497200	-10.574000	25.820707	0.000287	20.869408
1513.409611	-3.009600	3.495700	-10.520000	25.848979	0.000284	20.882161
1514.405648	-2.998200	3.495200	-10.479000	25.848507	0.000285	20.865093
1515.407070	-2.988800	3.495200	-10.445000	25.821376	0.000284	20.856805
1516.408527	-2.987400	3.495800	-10.442000	25.890066	0.000284	20.873176
1517.409846	-3.015300	3.495400	-10.539000	25.872578	0.000284	20.873151
1518.409456	-2.997600	3.494800	-10.475000	25.868205	0.000284	20.867336
1519.410557	-2.995800	3.493100	-10.463000	25.867683	0.000283	20.854011
1520.424005	-3.006700	3.494100	-10.505000	25.850119	0.000282	20.882358
1521.409105	-2.997200	3.494000	-10.471000	25.808655	0.000282	20.853036
1522.412706	-3.022900	3.491900	-10.555000	25.756756	0.000279	20.855906
1523.410958	-2.977000	3.493300	-10.399000	25.694891	0.000283	20.868682
1524.413502	-2.994800	3.493000	-10.460000	25.693548	0.000280	20.869704
1525.411114	-2.976200	3.492800	-10.394000	25.697250	0.000280	20.859672
1526.412287	-2.996000	3.491700	-10.460000	25.682117	0.000279	20.843051
1527.414454	-2.996400	3.492000	-10.463000	25.745621	0.000280	20.853730
1528.422862	-3.023800	3.491300	-10.556000	25.783262	0.000279	20.846495
1529.415309	-2.981100	3.491300	-10.408000	25.799580	0.000278	20.878058
1530.413348	-3.011800	3.489200	-10.508000	25.781071	0.000280	20.852355
1531.413737	-2.985900	3.489800	-10.419000	25.775106	0.000277	20.870070
1532.416239	-2.971600	3.489800	-10.369000	25.750683	0.000278	20.868297
1533.415188	-3.000700	3.491400	-10.476000	25.736890	0.000278	20.862030
1534.417082	-2.992600	3.489600	-10.442000	25.753809	0.000277	20.863851
1535.415399	-3.007100	3.488000	-10.488000	25.740540	0.000274	20.856213
1536.415703	-2.998100	3.489400	-10.461000	25.756190	0.000277	20.844906
1537.416500	-2.998400	3.488400	-10.458000	25.777653	0.000278	20.855085
1538.417181	-3.025200	3.487800	-10.551000	25.797799	0.000278	20.883381
1539.417717	-3.015600	3.486900	-10.514000	25.799513	0.000276	20.854758
1540.418908	-3.017000	3.487400	-10.521000	25.842761	0.000275	20.862640
1541.416371	-3.021800	3.487000	-10.535000	25.865938	0.000275	20.851783
1542.418141	-2.982700	3.488200	-10.404000	25.847950	0.000273	20.844620
1543.418436	-2.998100	3.486600	-10.452000	25.824594	0.000275	20.846288
1544.422073	-3.017100	3.485500	-10.515000	25.777067	0.000275	20.843117
1545.418368	-2.982100	3.485800	-10.393000	25.727873	0.000273	20.846335
1546.420294	-2.983100	3.486000	-10.398000	25.759324	0.000273	20.839994
1547.422114	-2.991800	3.485300	-10.427000	25.758678	0.000272	20.836026
1548.418933	-3.029200	3.484300	-10.553000	25.767421	0.000273	20.843859
1549.419045	-2.972100	3.485500	-10.358000	25.778599	0.000273	20.849397
1550.422107	-2.970900	3.484800	-10.351000	25.812234	0.000274	20.844778
1551.419788	-2.981200	3.485000	-10.388000	25.829947	0.000274	20.825113
1552.420567	-2.969100	3.484300	-10.344000	25.785749	0.000272	20.846623
1553.423034	-2.989500	3.484600	-10.416000	25.761649	0.000272	20.842329
1554.419463	-3.006600	3.481300	-10.465000	25.744975	0.000271	20.823685
1555.420790	-2.999600	3.482600	-10.445000	25.724228	0.000271	20.831769
1556.424138	-3.027000	3.482400	-10.541000	25.693543	0.000273	20.836036
1557.420533	-2.999700	3.481500	-10.443000	25.727133	0.000270	20.813351
1558.424411	-3.031000	3.481100	-10.550000	25.786460	0.000270	20.856345
1559.425246	-3.014400	3.481400	-10.493000	25.785490	0.000270	20.819810
1560.422363	-3.007400	3.480700	-10.467000	25.790360	0.000270	20.837504
1561.424454	-2.988400	3.480900	-10.402000	25.785984	0.000270	20.857764
1562.426702	-3.001000	3.480700	-10.445000	25.805387	0.000268	20.834107
1563.424754	-2.983500	3.479500	-10.379000	25.792219	0.000269	20.835578
1564.425682	-3.022100	3.477800	-10.509000	25.814751	0.000268	20.829289
1565.431005	-3.001400	3.478900	-10.441000	25.822053	0.000269	20.829037
1566.431364	-2.985300	3.480300	-10.389000	25.858895	0.000268	20.842812
1567.426519	-3.005600	3.479600	-10.458000	25.867513	0.000269	20.819702
1568.424989	-3.005300	3.478300	-10.452000	25.879686	0.000266	20.804430
1569.430506	-2.989800	3.477600	-10.396000	25.872156	0.000269	20.814884
1570.426039	-2.994400	3.476900	-10.410000	25.849351	0.000268	20.828484
1571.428329	-3.011500	3.477500	-10.472000	25.863162	0.000268	20.823392
1572.430392	-2.990000	3.478700	-10.400000	25.819762	0.000266	20.826736
1573.428687	-3.017600	3.477000	-10.491000	25.837523	0.000266	20.820870
1574.428798	-3.015100	3.477300	-10.482000	25.848826	0.000268	20.817101
1575.430213	-3.012400	3.475200	-10.468000	25.792581	0.000266	20.822192
1576.428066	-3.012600	3.475400	-10.468000	25.794170	0.000265	20.826633
1577.426589	-3.011100	3.474700	-10.462000	25.832228	0.000266	20.824560
1578.432314	-3.006000	3.476400	-10.449000	25.856301	0.000265	20.817448
1579.432152	-2.993000	3.473700	-10.396000	25.881688	0.000266	20.835838
1580.427737	-3.004100	3.474100	-10.436000	25.866658	0.000264	20.818369
1581.427997	-3.005800	3.473700	-10.440000	25.806961	0.000265	20.835213
1582.427635	-3.011000	3.473800	-10.459000	25.752525	0.000262	20.815622
1583.428453	-2.999800	3.474300	-10.421000	25.764476	0.000261	20.816246
1584.427436	-3.025000	3.471600	-10.500000	25.762784	0.000262	20.814547
1585.428063	-3.020700	3.472100	-10.487000	25.810807	0.000261	20.799249
1586.428529	-3.012500	3.472700	-10.459000	25.846432	0.000263	20.799947
1587.429102	-2.992600	3.471900	-10.389000	25.825763	0.000263	20.807634
1588.428648	-3.010000	3.471300	-10.448000	25.829861	0.000264	20.815544
1589.429389	-3.034800	3.471700	-10.535000	25.855822	0.000261	20.800371
1590.430389	-3.022400	3.471400	-10.491000	25.848392	0.000265	20.814244
1591.434807	-3.009500	3.471900	-10.448000	25.827299	0.000263	20.808229
1592.430948	-3.012100	3.470900	-10.453000	25.818429	0.000261	20.796948
1593.429565	-2.989300	3.470300	-10.372000	25.869034	0.000260	20.798471
1594.430767	-3.003600	3.470800	-10.424000	25.887093	0.000260	20.800965
1595.430768	-2.998200	3.469000	-10.400000	25.889303	0.000261	20.809824
1596.433348	-3.038200	3.468400	-10.537000	25.884484	0.000261	20.815413
1597.433095	-3.017200	3.468300	-10.464000	25.919160	0.000261	20.806627
1598.435349	-2.970700	3.470600	-10.309000	25.925643	0.000260	20.804131
1599.433063	-2.970500	3.469200	-10.304000	25.928251	0.000261	20.817182
1600.438290	-2.986700	3.470200	-10.362000	25.893969	0.000260	20.805976
1601.435346	-2.983800	3.468400	-10.348000	25.869524	0.000259	20.792325
1602.434489	-2.996800	3.467600	-10.391000	25.844234	0.000259	20.820024
1603.435680	-3.022600	3.467900	-10.481000	25.838446	0.000258	20.789555
1604.436295	-2.995300	3.467000	-10.384000	25.792435	0.000257	20.795492
1605.440542	-3.006700	3.467100	-10.424000	25.781254	0.000257	20.789003
1606.435366	-3.011700	3.465500	-10.437000	25.803588	0.000260	20.807644
1607.438695	-2.989700	3.466100	-10.362000	25.816010	0.000258	20.809216
1608.440959	-3.011400	3.465500	-10.435000	25.831013	0.000257	20.786830
1609.438356	-2.994600	3.465300	-10.377000	25.824779	0.000255	20.814232
1610.438395	-2.990500	3.464600	-10.360000	25.791985	0.000254	20.788402
1611.443556	-3.014100	3.464000	-10.440000	25.798394	0.000255	20.789151
1612.437963	-2.999400	3.463600	-10.388000	25.740059	0.000255	20.779866
1613.441068	-3.010900	3.463500	-10.427000	25.783760	0.000254	20.793891
1614.443463	-2.970300	3.463600	-10.286000	25.818987	0.000255	20.794190
1615.439599	-3.013100	3.463000	-10.433000	25.853145	0.000253	20.783458
1616.438921	-2.978300	3.464200	-10.316000	25.839655	0.000253	20.793614
1617.441795	-2.994000	3.461200	-10.362000	25.822935	0.000254	20.779189
1618.440138	-3.003500	3.462100	-10.397000	25.811506	0.000253	20.790468
1619.439803	-2.988700	3.462000	-10.346000	25.818313	0.000253	20.776443
1620.441191	-2.978500	3.461900	-10.311000	25.839106	0.000252	20.784528
1621.440169	-2.993400	3.461300	-10.361000	25.792648	0.000251	20.768680
1622.440408	-3.013800	3.461600	-10.432000	25.799704	0.000251	20.768655
1623.442282	-3.031300	3.461100	-10.490000	25.821962	0.000252	20.775841
1624.443091	-2.994100	3.459500	-10.357000	25.851202	0.000251	20.758272
1625.444687	-2.987900	3.460700	-10.339000	25.836321	0.000251	20.795006
1626.445695	-2.997900	3.459500	-10.371000	25.837561	0.000249	20.801942
1627.445566	-2.994000	3.459700	-10.357000	25.847150	0.000251	20.790237
1628.445762	-3.010700	3.458800	-10.413000	25.884263	0.000250	20.784372
1629.447042	-2.997300	3.459100	-10.368000	25.897353	0.000249	20.788513
1630.446715	-3.029600	3.457100	-10.473000	25.917697	0.000248	20.772441
1631.446164	-3.004900	3.458700	-10.392000	25.928602	0.000249	20.794302
1632.447387	-2.996400	3.456600	-10.357000	25.945220	0.000247	20.773064
1633.448046	-2.988100	3.458000	-10.332000	25.920477	0.000249	20.789932
1634.446959	-2.999000	3.457400	-10.368000	25.922589	0.000248	20.794425
1635.448360	-2.980700	3.459500	-10.311000	25.899584	0.000248	20.781745
1636.450886	-3.008900	3.456400	-10.399000	25.866071	0.000247	20.764674
1637.450619	-2.999200	3.455300	-10.362000	25.800285	0.000246	20.798637
1638.449833	-3.017100	3.456500	-10.427000	25.832682	0.000247	20.778548
1639.451145	-3.002400	3.455900	-10.375000	25.826220	0.000245	20.774429
1640.447819	-3.018400	3.454100	-10.425000	25.786594	0.000246	20.786306
1641.449957	-2.981900	3.454500	-10.299000	25.727587	0.000246	20.769235
1642.452750	-3.006200	3.454300	-10.384000	25.745225	0.000244	20.758502
1643.451606	-3.017200	3.453600	-10.419000	25.724255	0.000245	20.771105
1644.450887	-2.979500	3.454400	-10.291000	25.785273	0.000244	20.770754
1645.458211	-3.019400	3.452700	-10.424000	25.794390	0.000245	20.770429
1646.454471	-3.013200	3.453200	-10.405000	25.802537	0.000243	20.787623
1647.452466	-3.007900	3.452600	-10.384000	25.782984	0.000243	20.781257
1648.458935	-2.970900	3.452800	-10.257000	25.794286	0.000244	20.746617
1649.457726	-3.017000	3.451200	-10.411000	25.804198	0.000244	20.775066
1650.453793	-3.008600	3.451800	-10.384000	25.825213	0.000244	20.764882
1651.458062	-3.004000	3.452500	-10.371000	25.856192	0.000244	20.761388
1652.456342	-2.997700	3.451300	-10.345000	25.890846	0.000242	20.760164
1653.455374	-3.001000	3.451400	-10.357000	25.919436	0.000242	20.762334
1654.460817	-2.996800	3.451000	-10.341000	25.939135	0.000243	20.771218
1655.459657	-2.978900	3.450300	-10.276000	25.943928	0.000241	20.755644
1656.458066	-2.993800	3.449700	-10.327000	25.926338	0.000242	20.765948
1657.457544	-2.962800	3.450100	-10.220000	25.896082	0.000241	20.765424
1658.461351	-2.992400	3.449500	-10.322000	25.803592	0.000241	20.739369
1659.461601	-3.008800	3.448500	-10.375000	25.748214	0.000242	20.774307
1660.461221	-2.995800	3.450100	-10.334000	25.730996	0.000238	20.774082
1661.461798	-3.011400	3.449600	-10.386000	25.715541	0.000238	20.762352
1662.460314	-3.041400	3.447000	-10.481000	25.749877	0.000240	20.752743
1663.461010	-2.998700	3.448300	-10.340000	25.758349	0.000239	20.773582
1664.461781	-2.997600	3.448200	-10.336000	25.759217	0.000239	20.758806
1665.464870	-3.008700	3.445700	-10.366000	25.792332	0.000239	20.772630
1666.461514	-2.994200	3.448600	-10.325000	25.837573	0.000240	20.764969
1667.462478	-2.981100	3.447600	-10.277000	25.856998	0.000239	20.755085
1668.463674	-3.006300	3.445700	-10.357000	25.885888	0.000237	20.742381
1669.463653	-3.004000	3.446200	-10.352000	25.917238	0.000237	20.752539
1670.463898	-2.998400	3.445700	-10.330000	25.931024	0.000238	20.738412
1671.467911	-2.995400	3.445500	-10.320000	25.937556	0.000239	20.788124
1672.463272	-2.999300	3.446000	-10.335000	25.932190	0.000237	20.765663
1673.465052	-2.995000	3.445300	-10.318000	25.876197	0.000238	20.758250
1674.466624	-3.000800	3.445800	-10.340000	25.862880	0.000237	20.778064
1675.462585	-3.002400	3.444300	-10.340000	25.879001	0.000235	20.762964
1676.464351	-3.017800	3.444700	-10.395000	25.853017	0.000235	20.754879
1677.465915	-3.026600	3.442700	-10.418000	25.795528	0.000236	20.774892
1678.463851	-3.018700	3.443200	-10.393000	25.805665	0.000236	20.767530
1679.463568	-2.997000	3.443100	-10.318000	25.813290	0.000235	20.757172
1680.464539	-3.011800	3.442100	-10.366000	25.789838	0.000234	20.736932
1681.464643	-3.004100	3.442200	-10.340000	25.868316	0.000233	20.764084
1682.465345	-2.973200	3.443100	-10.236000	25.852292	0.000234	20.793980
1683.465551	-3.007000	3.442000	-10.349000	25.842132	0.000234	20.790886
1684.467575	-3.007400	3.440300	-10.345000	25.802879	0.000233	20.768526
1685.467274	-2.996900	3.441000	-10.311000	25.833907	0.000232	20.771244
1686.468117	-2.971500	3.442500	-10.228000	25.812616	0.000232	20.747960
1687.469076	-3.021400	3.439800	-10.392000	25.834155	0.000233	20.759639
1688.466585	-2.974300	3.440700	-10.233000	25.826105	0.000233	20.761036
1689.468353	-3.007800	3.440900	-10.348000	25.839148	0.000232	20.781251
1690.467613	-2.984900	3.438700	-10.263000	25.824316	0.000233	20.781525
1691.467726	-2.968800	3.440900	-10.214000	25.867243	0.000232	20.775335
1692.468414	-2.994900	3.439700	-10.300000	25.810875	0.000231	20.759961
1693.469146	-3.001700	3.439300	-10.323000	25.825482	0.000232	20.770842
1694.469875	-3.005900	3.437200	-10.330000	25.800838	0.000230	20.748930
1695.468374	-2.996900	3.437700	-10.301000	25.793111	0.000231	20.764877
1696.468646	-3.002400	3.437400	-10.319000	25.780439	0.000231	20.765425
1697.468106	-2.975000	3.438200	-10.228000	25.757186	0.000230	20.794225
1698.469754	-3.010600	3.436900	-10.346000	25.757532	0.000229	20.765649
1699.474193	-3.018100	3.436500	-10.370000	25.767544	0.000229	20.755791
1700.477794	-3.016000	3.436400	-10.363000	25.815741	0.000230	20.764376
1701.473741	-2.965900	3.436700	-10.192000	25.826994	0.000231	20.769990
1702.470172	-3.005000	3.436000	-10.325000	25.870542	0.000229	20.751147
1703.472720	-2.998900	3.436000	-10.303000	25.927180	0.000229	20.780545
1704.469570	-2.992700	3.435700	-10.280000	25.953908	0.000228	20.781319
1705.468975	-2.998400	3.435600	-10.300000	25.941264	0.000228	20.774305
1706.470031	-2.995000	3.435000	-10.287000	25.901840	0.000226	20.772632
1707.471625	-2.990600	3.434700	-10.270000	25.921315	0.000226	20.780343
1708.469571	-2.984800	3.434400	-10.250000	25.916919	0.000228	20.769763
1709.478429	-3.014300	3.432600	-10.345000	25.959545	0.000225	20.771808
1710.473417	-2.992800	3.434700	-10.278000	25.975889	0.000224	20.777323
1711.471151	-2.993100	3.434300	-10.279000	25.984210	0.000226	20.780467
1712.473119	-3.000100	3.432800	-10.298000	25.965505	0.000226	20.784435
1713.473648	-3.002300	3.431900	-10.303000	25.982942	0.000225	20.756908
1714.470677	-3.003400	3.432300	-10.308000	25.978049	0.000224	20.784709
1715.472574	-2.995700	3.432100	-10.281000	25.932019	0.000225	20.799157
1716.474349	-2.988100	3.431500	-10.253000	25.907973	0.000226	20.774051
1717.472313	-2.990500	3.431800	-10.261000	25.906382	0.000224	20.775298
1718.474962	-3.010100	3.430600	-10.326000	25.901391	0.000224	20.802052
1719.470837	-3.001800	3.430900	-10.298000	25.944810	0.000223	20.785929
1720.474726	-3.000500	3.429600	-10.290000	25.930528	0.000223	20.774425
1721.473901	-2.996900	3.430000	-10.278000	25.947170	0.000221	20.766488
1722.472589	-3.004800	3.429300	-10.303000	25.930923	0.000221	20.771029
1723.476817	-3.015500	3.428800	-10.338000	25.922005	0.000222	20.782933
1724.474843	-2.992400	3.429800	-10.263000	25.904468	0.000222	20.776695
1725.473760	-2.993800	3.428600	-10.263000	25.829966	0.000221	20.778666
1726.475897	-2.997000	3.429200	-10.277000	25.837543	0.000221	20.800976
1727.474632	-2.995500	3.428400	-10.269000	25.839058	0.000221	20.777841
1728.476657	-3.012800	3.428500	-10.328000	25.891525	0.000221	20.796883
1729.477955	-3.003800	3.427400	-10.294000	25.908591	0.000221	20.773724
1730.476261	-3.004700	3.428000	-10.300000	25.936064	0.000221	20.789470
1731.479391	-3.014100	3.427300	-10.329000	25.941454	0.000222	20.791092
1732.481843	-3.020600	3.425300	-10.344000	25.954172	0.000220	20.798179
1733.477542	-3.005500	3.425800	-10.295000	25.909707	0.000218	20.794760
1734.476269	-3.004000	3.424900	-10.288000	25.836820	0.000217	20.792663
1735.479340	-3.003700	3.424800	-10.287000	25.828945	0.000220	20.790442
1736.476370	-2.995500	3.424100	-10.255000	25.844719	0.000220	20.798227
1737.477238	-2.996700	3.426000	-10.266000	25.824000	0.000218	20.799700
1738.479185	-3.003600	3.423800	-10.283000	25.865288	0.000219	20.801820
1739.477213	-2.996300	3.423000	-10.256000	25.896787	0.000218	20.788419
1740.478170	-2.982800	3.424300	-10.212000	25.914325	0.000218	20.825952
1741.478121	-2.992200	3.423300	-10.242000	25.967284	0.000215	20.791912
1742.478668	-2.993700	3.422100	-10.244000	25.983951	0.000217	20.800596
1743.485531	-2.971300	3.423700	-10.172000	25.996172	0.000217	20.796753
1744.479561	-2.968100	3.423200	-10.159000	25.997686	0.000217	20.800171
1745.478620	-2.979500	3.423300	-10.199000	25.972077	0.000217	20.786770
1746.479513	-3.002400	3.421200	-10.271000	25.928855	0.000217	20.802617
1747.478415	-2.978100	3.421900	-10.189000	25.910299	0.000214	20.798673
1748.481308	-2.991600	3.422300	-10.237000	25.906548	0.000214	20.813397
1749.483202	-3.007600	3.419700	-10.284000	25.929326	0.000214	20.800719
1750.478106	-3.005400	3.421800	-10.283000	25.907441	0.000215	20.807182
1751.481460	-2.993700	3.420100	-10.238000	25.947285	0.000214	20.814493
1752.478804	-3.011000	3.420100	-10.297000	25.936529	0.000216	20.814593
1753.480430	-3.001400	3.419700	-10.263000	25.919688	0.000216	20.791510
1754.483746	-2.989700	3.420000	-10.223000	25.908509	0.000215	20.818212
1755.480859	-3.002000	3.418800	-10.262000	25.949023	0.000214	20.812921
1756.481330	-2.972500	3.419200	-10.161000	25.932257	0.000214	20.804137
1757.481237	-3.001600	3.417800	-10.257000	25.859644	0.000213	20.819384
1758.487537	-2.978600	3.418700	-10.182000	25.843695	0.000212	20.827069
1759.482024	-3.004000	3.417300	-10.265000	25.851372	0.000212	20.800643
1760.478921	-3.002600	3.416900	-10.259000	25.879195	0.000211	20.810100
1761.480292	-3.016000	3.415100	-10.299000	25.876436	0.000212	20.801640
1762.480601	-2.999700	3.415300	-10.244000	25.920952	0.000211	20.816014
1763.481874	-2.999800	3.415200	-10.244000	25.976941	0.000211	20.804459
1764.484149	-2.998600	3.416900	-10.245000	26.012487	0.000210	20.814092
1765.482581	-3.000000	3.415800	-10.247000	26.012287	0.000211	20.817685
1766.481930	-3.007900	3.414800	-10.270000	26.013975	0.000210	20.818433
1767.483799	-2.995400	3.416600	-10.233000	25.979598	0.000208	20.811396
1768.483943	-2.995400	3.415300	-10.230000	25.967327	0.000210	20.806179
1769.486354	-3.008500	3.414100	-10.271000	26.002400	0.000207	20.822924
1770.484569	-3.013100	3.413700	-10.285000	26.033894	0.000209	20.803833
1771.484238	-3.016900	3.414200	-10.300000	26.015738	0.000209	20.814988
1772.496218	-3.015900	3.413500	-10.293000	26.013377	0.000209	20.812616
1773.487690	-3.001800	3.413000	-10.244000	25.958930	0.000209	20.833779
1774.484209	-2.989700	3.413000	-10.203000	26.015687	0.000209	20.791704
1775.485856	-2.995000	3.413200	-10.222000	25.959848	0.000206	20.817632
1776.487699	-3.007800	3.412800	-10.264000	25.915384	0.000206	20.826066
1777.489448	-2.995200	3.412500	-10.220000	25.905249	0.000205	20.821575
1778.484556	-3.031400	3.410600	-10.338000	25.876159	0.000208	20.817008
1779.485364	-2.993400	3.411900	-10.213000	25.918042	0.000208	20.820677
1780.487487	-3.031000	3.409700	-10.333000	25.896803	0.000207	20.817358
1781.484893	-3.012000	3.411000	-10.273000	25.907559	0.000206	20.815361
1782.488885	-3.007500	3.410700	-10.257000	25.997083	0.000206	20.810471
1783.491396	-3.004100	3.410100	-10.244000	25.975026	0.000206	20.820079
1784.486955	-2.984400	3.410300	-10.177000	25.979523	0.000205	20.830286
1785.490087	-2.993000	3.410500	-10.206000	26.028058	0.000206	20.829736
1786.489598	-3.010100	3.408900	-10.259000	26.029400	0.000205	20.814964
1787.489373	-2.990700	3.410300	-10.199000	26.036156	0.000204	20.849252
1788.488739	-2.964900	3.408400	-10.104000	25.995023	0.000203	20.838272
1789.490737	-2.997200	3.408600	-10.215000	25.952076	0.000202	20.832583
1790.491744	-3.024400	3.407200	-10.303000	25.942389	0.000204	20.855567
1791.491094	-3.026900	3.407800	-10.314000	25.932850	0.000205	20.828915
1792.493694	-3.018300	3.406400	-10.280000	25.947929	0.000204	20.839796
1793.495489	-3.001100	3.407300	-10.225000	25.954884	0.000203	20.843938
1794.493706	-2.969100	3.407600	-10.116000	25.970709	0.000202	20.849879
1795.495787	-3.003000	3.404900	-10.224000	25.982582	0.000203	20.831937
1796.493634	-2.989500	3.405800	-10.181000	26.015420	0.000202	20.850703
1797.494297	-3.015700	3.404600	-10.266000	26.017581	0.000200	20.839125
1798.494741	-2.976400	3.407200	-10.141000	26.005189	0.000201	20.841372
1799.493528	-2.989900	3.405300	-10.181000	25.991030	0.000200	20.829519
1800.493738	-2.998200	3.404700	-10.207000	26.019496	0.000201	20.859539
1801.494000	-2.988000	3.404400	-10.171000	26.040385	0.000200	20.842596
1802.494103	-2.999500	3.403200	-10.207000	26.005885	0.000201	20.845391
1803.493036	-2.989200	3.403000	-10.172000	25.981146	0.000201	20.836658
1804.498789	-2.995000	3.404600	-10.196000	26.010358	0.000200	20.861738
1805.496434	-3.023900	3.402000	-10.286000	26.022456	0.000200	20.848763
1806.495179	-3.020900	3.401600	-10.275000	26.004199	0.000200	20.857921
1807.494816	-3.018500	3.402200	-10.269000	25.994040	0.000199	20.858620
1808.496454	-2.999700	3.403200	-10.208000	26.007230	0.000198	20.843898
1809.496424	-3.016600	3.402100	-10.260000	26.030281	0.000197	20.862789
1810.494936	-2.972500	3.401400	-10.110000	26.044489	0.000198	20.868054
1811.499605	-2.978800	3.401000	-10.130000	26.022556	0.000199	20.848390
1812.497430	-2.993900	3.401700	-10.183000	26.051148	0.000197	20.861469
1813.501325	-3.005800	3.401700	-10.224000	26.053282	0.000197	20.868355
1814.502767	-2.992500	3.399900	-10.173000	26.098586	0.000199	20.856028
1815.501583	-2.969000	3.401700	-10.099000	26.088081	0.000197	20.875343
1816.505127	-2.998800	3.399300	-10.193000	26.072783	0.000196	20.876094
1817.502183	-3.005400	3.398800	-10.213000	26.053956	0.000196	20.863342
1818.498166	-2.990000	3.399700	-10.163000	26.032149	0.000195	20.883630
1819.498686	-2.977400	3.399000	-10.119000	26.010887	0.000196	20.866537
1820.497011	-2.982200	3.399900	-10.138000	26.011682	0.000195	20.862120
1821.502748	-2.993500	3.398100	-10.172000	26.060043	0.000195	20.863294
1822.498506	-2.977500	3.399000	-10.119000	26.086148	0.000196	20.863918
1823.501098	-2.988600	3.397000	-10.152000	26.108875	0.000194	20.857831
1824.504419	-2.988300	3.397100	-10.150000	26.051626	0.000195	20.861475
1825.500071	-2.980700	3.397800	-10.127000	26.070701	0.000196	20.879217
1826.500857	-3.008000	3.398500	-10.221000	26.057140	0.000195	20.870334
1827.503770	-3.009900	3.396200	-10.221000	26.040078	0.000192	20.875950
1828.502372	-2.998600	3.396000	-10.182000	26.027137	0.000194	20.871009
1829.500741	-3.004600	3.396500	-10.203000	26.039359	0.000192	20.882339
1830.503870	-3.023800	3.395400	-10.267000	26.011739	0.000194	20.892995
1831.502465	-2.992800	3.396000	-10.162000	26.061540	0.000193	20.876177
1832.502015	-3.009500	3.396000	-10.220000	26.098102	0.000191	20.864550
1833.503121	-3.037500	3.392800	-10.305000	26.107937	0.000192	20.882491
1834.501967	-3.015900	3.394200	-10.235000	26.114817	0.000193	20.875181
1835.502827	-3.014100	3.394100	-10.229000	26.093856	0.000190	20.889679
1836.502650	-3.018500	3.393200	-10.241000	26.106771	0.000191	20.886536
1837.507137	-2.987000	3.393000	-10.134000	26.119314	0.000193	20.883966
1838.503222	-3.018600	3.392800	-10.241000	26.120457	0.000190	20.883692
1839.505627	-2.975400	3.393900	-10.097000	26.097732	0.000191	20.886936
1840.506716	-3.017100	3.391500	-10.232000	26.082954	0.000193	20.882994
1841.503745	-3.015800	3.389700	-10.221000	26.025679	0.000189	20.893724
1842.506321	-2.996900	3.391900	-10.164000	26.032312	0.000190	20.904655
1843.504874	-2.999000	3.389300	-10.163000	26.043165	0.000188	20.897068
1844.504295	-2.998200	3.390400	-10.164000	26.036808	0.000188	20.871717
1845.504074	-3.007900	3.390600	-10.198000	26.058691	0.000189	20.903658
1846.508143	-2.993300	3.390700	-10.148000	26.084771	0.000189	20.893827
1847.505063	-3.024800	3.389200	-10.250000	26.094110	0.000190	20.907477
1848.505108	-2.993700	3.389400	-10.146000	26.069223	0.000187	20.889111
1849.506378	-3.025100	3.388000	-10.248000	26.096346	0.000186	20.895026
1850.506593	-2.985500	3.390000	-10.120000	26.113036	0.000186	20.915113
1851.506917	-3.010700	3.387700	-10.198000	26.154710	0.000185	20.901987
1852.505509	-3.005600	3.389200	-10.186000	26.159628	0.000186	20.888437
1853.507120	-3.000800	3.388300	-10.167000	26.166408	0.000186	20.904258
1854.507421	-2.995200	3.388100	-10.147000	26.114725	0.000183	20.895475
1855.514069	-2.990400	3.387900	-10.130000	26.104616	0.000182	20.898594
1856.509400	-3.019700	3.386500	-10.225000	26.105213	0.000182	20.915787
1857.508090	-2.985500	3.386400	-10.110000	26.136803	0.000183	20.909597
1858.509036	-2.996700	3.388100	-10.152000	26.162409	0.000181	20.914938
1859.512221	-3.005100	3.385000	-10.171000	26.172144	0.000182	20.908599
1860.511002	-2.985900	3.386700	-10.111000	26.210215	0.000181	20.902760
1861.512872	-3.002300	3.387200	-10.168000	26.218832	0.000182	20.913314
1862.514222	-2.990700	3.385200	-10.124000	26.229212	0.000182	20.903358
1863.512443	-2.998600	3.385000	-10.149000	26.203607	0.000181	20.907499
1864.512348	-3.001100	3.385900	-10.160000	26.203954	0.000182	20.898366
1865.517584	-2.986400	3.386000	-10.111000	26.216694	0.000180	20.919226
1866.520548	-3.005600	3.384300	-10.170000	26.184880	0.000180	20.923292
1867.514655	-3.003400	3.383800	-10.162000	26.203381	0.000177	20.930977
1868.515258	-2.987000	3.384100	-10.107000	26.189275	0.000179	20.905899
1869.517497	-3.024800	3.384500	-10.236000	26.161880	0.000179	20.915828
1870.514958	-3.028900	3.382000	-10.242000	26.142285	0.000178	20.932647
1871.514904	-3.010700	3.383200	-10.185000	26.154503	0.000178	20.901305
1872.518043	-3.001500	3.382500	-10.152000	26.153608	0.000177	20.917474
1873.512756	-3.001900	3.383500	-10.156000	26.130734	0.000179	20.951858
1874.517879	-3.025300	3.381600	-10.229000	26.117073	0.000178	20.920591
1875.518673	-2.997100	3.381200	-10.133000	26.120897	0.000177	20.936760
1876.515802	-3.016600	3.381100	-10.198000	26.138530	0.000177	20.916547
1877.516310	-2.992400	3.381700	-10.119000	26.172728	0.000179	20.922461
1878.517370	-2.998100	3.380700	-10.135000	26.200940	0.000178	20.917145
1879.518910	-3.015800	3.380300	-10.193000	26.194283	0.000176	20.919939
1880.524131	-3.031100	3.378100	-10.238000	26.206874	0.000176	20.928323
1881.515361	-2.978000	3.381000	-10.068000	26.226517	0.000176	20.932415
1882.518985	-2.978500	3.377800	-10.059000	26.262004	0.000178	20.936782
1883.516336	-2.982500	3.379300	-10.078000	26.247028	0.000177	20.925052
1884.517143	-3.005500	3.378600	-10.153000	26.186085	0.000176	20.918814
1885.520218	-3.001500	3.378800	-10.141000	26.142400	0.000177	20.930866
1886.517886	-3.007400	3.379200	-10.161000	26.154718	0.000175	20.929019
1887.518721	-3.028000	3.376400	-10.222000	26.138624	0.000175	20.934184
1888.521292	-3.012500	3.376900	-10.172000	26.145057	0.000174	20.921683
1889.519947	-3.024100	3.375200	-10.206000	26.152507	0.000176	20.904989
1890.525652	-2.980300	3.377600	-10.066000	26.106561	0.000176	20.924253
1891.521410	-3.022600	3.376400	-10.204000	26.116421	0.000174	20.923729
1892.519586	-2.998200	3.375500	-10.120000	26.147663	0.000174	20.917663
1893.520516	-2.989700	3.377100	-10.096000	26.177614	0.000173	20.910777
1894.522122	-3.002700	3.375100	-10.133000	26.207044	0.000174	20.914271
1895.522789	-3.003000	3.376200	-10.137000	26.182903	0.000172	20.929840
1896.522872	-2.974300	3.375300	-10.038000	26.189980	0.000172	20.917987
1897.523280	-2.965500	3.376300	-10.011000	26.231304	0.000173	20.924424
1898.522317	-3.013600	3.374100	-10.167000	26.244317	0.000172	20.923751
1899.522210	-3.003500	3.373200	-10.131000	26.236865	0.000171	20.937598
1900.521647	-3.026000	3.373200	-10.206000	26.244713	0.000172	20.903761
1901.522115	-3.017000	3.373300	-10.177000	26.213149	0.000171	20.910923
1902.521916	-3.015500	3.372900	-10.170000	26.214141	0.000170	20.922825
1903.521817	-3.016000	3.372200	-10.169000	26.204878	0.000171	20.921102
1904.524322	-3.032200	3.370700	-10.220000	26.260107	0.000170	20.891732
1905.521819	-3.021800	3.371900	-10.188000	26.285435	0.000167	20.913390
1906.525034	-2.990100	3.372900	-10.085000	26.269963	0.000169	20.904955
1907.524738	-3.014800	3.371700	-10.163000	26.346470	0.000168	20.890331
1908.523094	-2.990600	3.371700	-10.082000	26.310662	0.000169	20.897966
1909.525314	-3.009500	3.372100	-10.147000	26.263828	0.000168	20.888833
1910.529051	-3.013400	3.370100	-10.155000	26.236634	0.000166	20.909867
1911.526609	-3.032700	3.370000	-10.219000	26.259852	0.000167	20.914707
1912.530201	-3.004800	3.370300	-10.126000	26.238446	0.000166	20.892249
1913.530468	-2.990800	3.369700	-10.077000	26.241150	0.000166	20.899234
1914.526034	-2.994300	3.370300	-10.092000	26.256497	0.000166	20.889052
1915.526681	-3.001400	3.368200	-10.108000	26.217357	0.000165	20.899032
1916.531018	-2.992700	3.369400	-10.082000	26.184451	0.000164	20.881614
1917.529216	-3.017100	3.367400	-10.159000	26.148116	0.000165	20.896310
1918.528464	-2.998400	3.368300	-10.099000	26.148039	0.000164	20.891966
1919.529836	-3.010400	3.368000	-10.137000	26.141160	0.000164	20.893114
1920.534254	-3.005700	3.367800	-10.122000	26.196466	0.000162	20.876618
1921.532188	-3.011100	3.367800	-10.140000	26.255272	0.000161	20.869805
1922.529901	-3.017500	3.366000	-10.156000	26.180173	0.000163	20.865462
1923.532494	-2.992300	3.366400	-10.072000	26.185536	0.000163	20.887445
1924.531554	-2.999400	3.366700	-10.096000	26.183027	0.000163	20.865485
1925.532345	-2.983100	3.366100	-10.041000	26.143165	0.000164	20.883750
1926.532763	-2.992200	3.365900	-10.070000	26.163232	0.000164	20.892059
1927.531383	-3.004100	3.364700	-10.106000	26.151410	0.000162	20.871173
1928.532396	-2.989700	3.365700	-10.062000	26.199465	0.000163	20.871097
1929.532117	-3.004600	3.363700	-10.106000	26.246102	0.000162	20.873391
1930.530572	-3.005800	3.364400	-10.112000	26.296288	0.000164	20.865980
1931.532287	-2.998000	3.364500	-10.086000	26.345405	0.000163	20.869823
1932.531751	-3.015300	3.363200	-10.139000	26.300359	0.000162	20.874338
1933.534950	-3.010300	3.364400	-10.127000	26.212303	0.000159	20.855075
1934.530500	-3.016600	3.363000	-10.144000	26.254518	0.000162	20.862410
1935.533879	-3.003100	3.363000	-10.099000	26.301626	0.000160	20.875611
1936.535529	-3.004000	3.361900	-10.098000	26.307709	0.000161	20.856595
1937.532506	-2.998900	3.363000	-10.085000	26.310491	0.000161	20.863658
1938.533058	-2.992600	3.361400	-10.058000	26.272994	0.000161	20.881924
1939.539580	-3.021400	3.361300	-10.155000	26.244015	0.000160	20.870346
1940.543972	-3.008600	3.361300	-10.112000	26.272571	0.000158	20.842621
1941.536412	-3.017300	3.360700	-10.139000	26.352009	0.000160	20.854176
1942.536337	-2.998000	3.361700	-10.078000	26.408547	0.000159	20.854100
1943.535402	-2.999300	3.360500	-10.078000	26.427541	0.000158	20.855647
1944.538202	-2.973700	3.361500	-9.994400	26.409044	0.000160	20.865505
1945.537321	-3.006600	3.360100	-10.101000	26.383743	0.000158	20.857145
1946.539350	-2.966000	3.361500	-9.969300	26.382625	0.000158	20.867875
1947.536904	-3.004500	3.358700	-10.090000	26.385654	0.000159	20.860488
1948.541126	-2.986000	3.360000	-10.031000	26.312030	0.000157	20.858093
1949.540848	-2.982900	3.359900	-10.021000	26.304580	0.000158	20.846339
1950.538170	-2.996000	3.357300	-10.057000	26.287694	0.000160	20.853551
1951.539035	-3.005500	3.356800	-10.088000	26.290501	0.000155	20.844518
1952.540093	-3.008600	3.356300	-10.097000	26.285088	0.000156	20.847613
1953.538259	-2.987800	3.356600	-10.028000	26.332864	0.000155	20.865280
1954.538373	-2.989000	3.356600	-10.032000	26.340338	0.000154	20.836283
1955.539648	-2.992500	3.356000	-10.042000	26.362314	0.000155	20.861687
1956.539033	-3.004000	3.355700	-10.079000	26.357595	0.000156	20.850781
1957.539808	-2.984400	3.356500	-10.016000	26.406685	0.000154	20.851755
1958.539108	-2.995400	3.356400	-10.053000	26.401569	0.000154	20.847561
1959.539505	-3.008100	3.355900	-10.093000	26.424115	0.000153	20.858841
1960.538521	-2.995800	3.355800	-10.053000	26.448671	0.000154	20.851754
1961.538007	-3.010300	3.354900	-10.098000	26.457857	0.000154	20.836332
1962.542561	-3.005300	3.354600	-10.080000	26.480575	0.000153	20.843045
1963.541289	-3.004800	3.355200	-10.081000	26.442637	0.000153	20.857543
1964.541129	-3.002200	3.353200	-10.066000	26.400601	0.000152	20.852277
1965.544116	-2.997800	3.354600	-10.055000	26.329733	0.000154	20.851228
1966.541940	-3.005200	3.353200	-10.077000	26.339716	0.000151	20.845615
1967.542470	-2.994500	3.353500	-10.041000	26.347041	0.000152	20.849183
1968.544008	-3.013200	3.351600	-10.098000	26.377856	0.000151	20.882047
1969.541736	-3.005900	3.352800	-10.077000	26.379718	0.000152	20.848359
1970.542211	-3.014600	3.351300	-10.101000	26.381308	0.000153	20.861336
1971.545339	-3.001000	3.350800	-10.054000	26.415945	0.000151	20.851104
1972.543061	-3.011700	3.350900	-10.091000	26.472679	0.000150	20.857867
1973.544018	-3.006800	3.350700	-10.074000	26.496265	0.000152	20.841272
1974.545183	-3.013800	3.349600	-10.094000	26.492714	0.000149	20.839126
1975.543371	-3.014000	3.349100	-10.093000	26.456093	0.000148	20.849258
1976.542202	-3.020900	3.349600	-10.118000	26.396875	0.000150	20.845215
1977.542231	-2.996000	3.349700	-10.035000	26.425654	0.000149	20.844741
1978.545303	-3.007500	3.349900	-10.074000	26.403407	0.000148	20.845615
1979.544457	-2.994200	3.348900	-10.027000	26.393202	0.000147	20.847212
1980.544046	-3.003600	3.348000	-10.055000	26.410483	0.000146	20.840873
1981.546697	-2.988600	3.349400	-10.009000	26.453835	0.000148	20.846040
1982.545386	-2.994000	3.348900	-10.026000	26.471612	0.000148	20.832614
1983.546374	-2.996100	3.345800	-10.024000	26.437796	0.000145	20.844143
1984.549894	-2.986700	3.347700	-9.997800	26.402166	0.000147	20.851006
1985.547851	-2.999900	3.347200	-10.041000	26.401496	0.000147	20.835634
1986.546840	-3.004200	3.347000	-10.054000	26.397424	0.000146	20.846715
1987.551065	-3.011500	3.346500	-10.078000	26.365939	0.000144	20.845890
1988.547431	-2.993900	3.345900	-10.015000	26.385879	0.000144	20.835111
1989.549508	-3.016700	3.346100	-10.094000	26.431863	0.000143	20.840552
1990.556514	-2.996600	3.344300	-10.020000	26.451131	0.000143	20.829572
1991.552375	-3.015000	3.344900	-10.084000	26.443460	0.000144	20.841302
1992.550842	-2.979800	3.345200	-9.967300	26.413764	0.000145	20.842275
1993.550797	-3.014300	3.345400	-10.084000	26.475265	0.000144	20.830596
1994.551057	-3.030100	3.344300	-10.133000	26.457538	0.000144	20.834115
1995.551633	-3.016000	3.343600	-10.083000	26.461238	0.000143	20.828825
1996.550476	-2.989300	3.344800	-9.997700	26.451282	0.000142	20.813129
1997.553066	-2.971000	3.345200	-9.937700	26.427249	0.000143	20.841603
1998.553837	-2.983000	3.343400	-9.973000	26.423302	0.000143	20.844748
1999.552110	-2.984400	3.342900	-9.976000	26.433358	0.000141	20.848217
2000.552733	-3.008200	3.343400	-10.056000	26.393730	0.000142	20.824984
2001.554322	-3.014900	3.342600	-10.077000	26.414836	0.000140	20.835291
2002.553669	-3.009200	3.340900	-10.053000	26.443836	0.000141	20.845472
2003.555614	-3.006900	3.341100	-10.044000	26.463550	0.000141	20.839209
2004.554567	-2.997800	3.341600	-10.016000	26.491556	0.000139	20.832272
2005.555038	-2.970100	3.342000	-9.924700	26.449249	0.000138	20.841905
2006.558486	-2.981700	3.342700	-9.965800	26.482097	0.000139	20.844575
2007.554791	-3.013400	3.340900	-10.066000	26.472787	0.000138	20.842330
2008.559330	-2.981200	3.341300	-9.959600	26.390603	0.000137	20.836540
2009.557201	-2.999500	3.340200	-10.018000	26.421168	0.000138	20.838811
2010.560178	-3.011800	3.339400	-10.056000	26.409448	0.000136	20.844575
2011.560900	-2.980300	3.339600	-9.952500	26.422957	0.000138	20.823539
2012.555845	-3.032900	3.336700	-10.119000	26.448952	0.000137	20.833071
2013.558161	-3.002500	3.339300	-10.026000	26.429138	0.000137	20.835442
2014.560439	-3.032600	3.336600	-10.117000	26.425340	0.000136	20.847270
2015.556124	-2.998800	3.337800	-10.008000	26.425389	0.000136	20.832622
2016.557512	-2.989200	3.339300	-9.981000	26.412180	0.000136	20.830252
2017.557895	-2.982500	3.338200	-9.954900	26.436686	0.000137	20.826433
2018.556813	-3.025100	3.337200	-10.094000	26.447313	0.000134	20.842803
2019.557434	-2.997400	3.337300	-10.002000	26.492177	0.000137	20.836215
2020.559684	-2.981000	3.336700	-9.946400	26.505783	0.000136	20.832347
2021.558485	-2.999400	3.335700	-10.004000	26.517352	0.000135	20.829752
2022.558001	-3.003000	3.335400	-10.016000	26.499749	0.000135	20.813955
2023.562638	-3.004100	3.336200	-10.020000	26.524029	0.000134	20.829826
2024.558372	-3.008100	3.335100	-10.031000	26.572018	0.000135	20.824959
2025.558184	-2.989000	3.335000	-9.966300	26.582173	0.000134	20.843701
2026.559215	-3.007300	3.335200	-10.028000	26.570529	0.000132	20.806867
2027.559717	-3.002600	3.334600	-10.011000	26.573384	0.000134	20.830125
2028.558177	-2.999800	3.333500	-9.999600	26.584381	0.000132	20.826481
2029.558679	-3.014800	3.332500	-10.045000	26.616976	0.000130	20.845970
2030.558964	-2.994100	3.333800	-9.981000	26.564544	0.000134	20.824558
2031.559091	-2.995600	3.333300	-9.984500	26.559231	0.000132	20.824908
2032.562687	-3.013300	3.332100	-10.040000	26.535323	0.000131	20.832169
2033.562916	-3.024600	3.330800	-10.074000	26.540139	0.000132	20.840803
2034.565301	-3.007400	3.332500	-10.021000	26.539567	0.000128	20.834539
2035.562587	-2.994700	3.331900	-9.977300	26.573753	0.000131	20.830970
2036.566654	-3.006700	3.331200	-10.015000	26.609823	0.000128	20.826927
2037.568156	-2.990300	3.330700	-9.958800	26.589417	0.000129	20.823483
2038.570381	-2.991500	3.330200	-9.961200	26.580157	0.000129	20.812278
2039.567786	-2.996500	3.330500	-9.978400	26.555479	0.000128	20.819239
2040.568491	-2.995000	3.330500	-9.974100	26.560693	0.000129	20.811204
2041.567081	-2.997900	3.330200	-9.982700	26.592841	0.000127	20.810804
2042.565870	-3.009000	3.328200	-10.013000	26.604707	0.000129	20.799499
2043.570785	-2.968400	3.329200	-9.881200	26.635812	0.000127	20.789042
2044.566441	-3.006300	3.328800	-10.006000	26.658451	0.000128	20.813223
2045.567943	-2.993800	3.328300	-9.963000	26.624367	0.000127	20.806934
2046.567439	-2.986400	3.328300	-9.938600	26.597681	0.000125	20.809031
2047.570609	-3.002200	3.328400	-9.992500	26.618905	0.000128	20.816616
2048.569223	-3.009700	3.327500	-10.014000	26.612277	0.000126	20.816591
2049.567692	-3.012700	3.327600	-10.024000	26.609248	0.000128	20.814495
2050.571457	-3.021200	3.325700	-10.047000	26.611383	0.000124	20.800994
2051.566696	-3.013400	3.325300	-10.020000	26.633776	0.000126	20.808806
2052.568376	-3.006700	3.326000	-9.999700	26.649365	0.000126	20.804563
2053.570550	-2.999200	3.326200	-9.974700	26.685458	0.000125	20.792959
2054.568138	-3.023900	3.324500	-10.052000	26.660808	0.000125	20.801843
2055.568085	-2.998300	3.325100	-9.969000	26.619302	0.000125	20.812748
2056.576037	-2.977200	3.326600	-9.903100	26.601404	0.000123	20.802816
2057.568945	-2.997300	3.325300	-9.966000	26.607312	0.000123	20.802592
2058.572001	-2.981400	3.325000	-9.912500	26.604954	0.000123	20.793583
2059.571805	-3.011400	3.323500	-10.008000	26.622902	0.000123	20.797875
2060.569951	-3.011500	3.323300	-10.007000	26.658500	0.000123	20.796203
2061.569999	-3.013800	3.322300	-10.012000	26.672750	0.000123	20.792036
2062.571438	-3.010200	3.322200	-9.999800	26.676697	0.000122	20.814971
2063.588189	-3.024400	3.322700	-10.048000	26.641174	0.000122	20.812924
2064.591635	-3.030800	3.321800	-10.067000	26.667735	0.000121	20.805013
2065.591764	-3.016500	3.321800	-10.019000	26.649340	0.000122	20.803116
2066.575205	-3.001200	3.322000	-9.969200	26.703182	0.000119	20.790389
2067.573745	-2.976600	3.321200	-9.885400	26.681363	0.000122	20.800222
2068.601198	-3.017500	3.320400	-10.018000	26.713832	0.000120	20.813897
2069.606670	-3.032200	3.319400	-10.064000	26.692757	0.000120	20.791288
2070.590227	-3.004500	3.320300	-9.975200	26.695885	0.000118	20.781630
2071.590456	-3.022000	3.318700	-10.028000	26.646213	0.000118	20.799498
2072.579810	-3.011300	3.318600	-9.992400	26.600759	0.000118	20.785099
2073.591718	-3.010000	3.318800	-9.989400	26.584077	0.000119	20.798674
2074.597633	-3.000800	3.317900	-9.955000	26.556966	0.000120	20.796079
2075.597529	-3.021600	3.317800	-10.024000	26.543138	0.000119	20.793558
2076.593939	-3.003200	3.316900	-9.961100	26.617119	0.000117	20.783052
2077.593779	-3.003200	3.317600	-9.962000	26.650631	0.000119	20.795879
2078.593440	-3.019200	3.317700	-10.016000	26.640925	0.000117	20.783751
2079.594131	-2.967700	3.318300	-9.846900	26.658923	0.000119	20.817965
2080.593550	-2.986900	3.317500	-9.908500	26.706683	0.000117	20.794382
2081.599655	-2.998800	3.316400	-9.944700	26.718970	0.000118	20.793459
2082.598833	-3.020900	3.314200	-10.011000	26.718424	0.000116	20.781056
2083.603782	-3.000400	3.315600	-9.946600	26.760968	0.000116	20.802018
2084.595131	-3.006200	3.317100	-9.970600	26.773999	0.000117	20.785248
2085.601025	-2.986400	3.315600	-9.901200	26.736915	0.000115	20.785896
2086.592381	-3.019700	3.314600	-10.008000	26.728179	0.000117	20.792286
2087.595099	-3.005600	3.313400	-9.957800	26.740765	0.000115	20.780283
2088.579977	-3.004900	3.314200	-9.958400	26.722594	0.000114	20.782878
2089.598065	-3.014500	3.312700	-9.985600	26.728080	0.000115	20.768952
2090.579754	-2.981700	3.314400	-9.881700	26.727534	0.000116	20.798276
2091.582486	-2.999700	3.312200	-9.934600	26.708148	0.000113	20.777837
2092.585315	-2.981700	3.312900	-9.877300	26.750792	0.000114	20.792735
2093.581438	-3.006300	3.311900	-9.955600	26.691791	0.000114	20.786049
2094.608358	-2.993000	3.313600	-9.916500	26.627845	0.000115	20.788146
2095.605679	-2.986600	3.311300	-9.888900	26.632637	0.000112	20.798178
2096.584195	-3.003900	3.312000	-9.948100	26.631743	0.000111	20.771201
2097.588115	-2.992800	3.311600	-9.909700	26.659050	0.000113	20.774471
2098.587801	-2.978300	3.312900	-9.865500	26.687672	0.000113	20.764364
2099.584182	-3.002500	3.311800	-9.942800	26.721059	0.000109	20.795560
2100.587205	-3.015700	3.309100	-9.978500	26.788153	0.000112	20.774348
2101.584463	-2.970800	3.311700	-9.837700	26.816697	0.000112	20.776021
2102.600826	-3.018600	3.309500	-9.989500	26.794607	0.000110	20.786527
2103.602399	-2.990000	3.310300	-9.896000	26.740498	0.000111	20.783334
2104.606762	-2.997100	3.309600	-9.918200	26.666030	0.000110	20.762995
2105.607163	-2.992700	3.309800	-9.904600	26.686857	0.000109	20.771606
2106.619641	-3.001600	3.308500	-9.930500	26.721336	0.000109	20.779242
2107.612084	-3.002500	3.307400	-9.930200	26.753803	0.000110	20.769210
2108.615486	-3.003200	3.307800	-9.932000	26.759364	0.000110	20.766740
2109.609958	-3.005000	3.307200	-9.936800	26.785502	0.000111	20.776424
2110.619699	-2.998700	3.307800	-9.918000	26.817794	0.000108	20.772382
2111.605759	-3.022700	3.305600	-9.991800	26.807915	0.000107	20.777148
2112.603638	-3.019700	3.304200	-9.976500	26.801908	0.000109	20.768263
2113.608758	-3.021700	3.304100	-9.983400	26.801164	0.000106	20.781740
2114.604910	-2.990700	3.306400	-9.887700	26.750207	0.000110	20.776974
2115.602743	-2.991000	3.305500	-9.885500	26.756859	0.000108	20.777024
2116.604414	-3.013300	3.303600	-9.954200	26.749562	0.000107	20.773481
2117.606356	-3.014300	3.304400	-9.958300	26.715308	0.000106	20.784562
2118.604510	-2.986000	3.304900	-9.866600	26.728538	0.000107	20.770836
2119.611879	-2.987400	3.304300	-9.870300	26.774111	0.000106	20.755014
2120.610880	-3.001700	3.302400	-9.911800	26.790518	0.000103	20.773407
2121.592962	-2.995700	3.303800	-9.896600	26.826284	0.000105	20.785186
2122.590897	-3.017500	3.301100	-9.960200	26.895852	0.000106	20.775479
2123.597303	-3.018600	3.300500	-9.961000	26.932582	0.000105	20.775429
2124.593357	-2.981500	3.302400	-9.845600	26.925361	0.000104	20.774331
2125.593020	-3.029500	3.300100	-9.995500	26.930399	0.000103	20.740989
2126.597790	-2.995700	3.301200	-9.888500	26.921391	0.000106	20.757062
2127.594905	-3.033900	3.299900	-10.010000	26.953082	0.000105	20.771386
2128.593509	-3.010000	3.300600	-9.934000	26.931292	0.000102	20.776028
2129.597304	-3.016500	3.300700	-9.955400	26.902901	0.000102	20.761230
2130.595718	-2.982100	3.299500	-9.838700	26.919305	0.000102	20.749749
2131.601873	-3.017700	3.298800	-9.953400	26.945836	0.000102	20.759832
2132.593924	-3.029800	3.300500	-9.999300	26.946555	0.000102	20.762926
2133.594670	-3.003200	3.298400	-9.905300	26.945909	0.000101	20.752794
2134.597219	-2.985700	3.298500	-9.847300	26.905159	0.000101	20.753542
2135.594441	-3.004500	3.298000	-9.907400	26.879373	0.000103	20.748476
2136.596086	-2.984400	3.299000	-9.844100	26.919379	9.905676E-5	20.748875
2137.602305	-2.969700	3.298400	-9.793400	26.906598	9.955180E-5	20.741713
2138.597219	-3.002600	3.297300	-9.898800	26.945090	0.000100	20.736322
2139.595199	-3.010700	3.296700	-9.924300	26.931912	9.829771E-5	20.746778
2140.596756	-3.006900	3.296700	-9.911900	26.965737	0.000101	20.752818
2141.595296	-3.019700	3.295400	-9.949600	26.919826	9.839671E-5	20.750273
2142.597601	-3.000600	3.295300	-9.886300	26.925979	9.994783E-5	20.757409
2143.598578	-2.982700	3.295600	-9.828400	26.915878	9.720863E-5	20.756260
2144.598055	-2.974200	3.296200	-9.803000	26.904810	0.000100	20.742285
2145.598503	-2.985200	3.295600	-9.837500	26.923869	9.707662E-5	20.742484
2146.629781	-2.997400	3.292900	-9.869500	26.940918	9.687860E-5	20.730230
2147.623526	-2.992900	3.294800	-9.859300	26.887534	9.767066E-5	20.736293
2148.617706	-2.997400	3.293100	-9.869200	26.900439	9.608655E-5	20.744528
2149.619970	-3.006600	3.291300	-9.894400	26.895028	9.734064E-5	20.761848
2150.620164	-3.014700	3.293000	-9.925500	26.852018	9.651558E-5	20.761274
2151.619994	-3.006100	3.291800	-9.894500	26.895151	9.730764E-5	20.743952
2152.602841	-2.991500	3.292400	-9.848400	26.936224	9.638357E-5	20.751589
2153.602663	-2.968100	3.292400	-9.771100	26.926619	9.773667E-5	20.749517
2154.599803	-3.002000	3.291600	-9.880300	26.921804	9.611955E-5	20.730449
2155.600005	-3.018100	3.289700	-9.927000	26.975582	9.592153E-5	20.754657
2156.623514	-2.986300	3.291700	-9.828600	26.948084	9.575652E-5	20.750239
2157.626917	-3.006900	3.290900	-9.894800	26.948605	9.635057E-5	20.762617
2158.625086	-3.011700	3.289500	-9.906200	26.950292	9.463444E-5	20.759572
2159.625629	-3.027000	3.289800	-9.957700	26.969922	9.532749E-5	20.744697
2160.619785	-2.987000	3.289200	-9.823800	26.980518	9.423841E-5	20.736860
2161.621423	-2.988300	3.289400	-9.828700	27.005854	9.423841E-5	20.761866
2162.624135	-2.983600	3.288700	-9.811500	26.989872	9.301732E-5	20.756699
2163.625481	-2.982100	3.289700	-9.809600	26.932347	9.173023E-5	20.727774
2164.621469	-3.015700	3.287700	-9.913200	26.968380	9.380938E-5	20.768752
2165.607602	-2.996900	3.288200	-9.853300	26.996124	9.202725E-5	20.749236
2166.605692	-2.998700	3.287900	-9.858400	27.006944	9.397439E-5	20.753478
2167.605264	-3.013700	3.284800	-9.898800	27.064911	9.361137E-5	20.758195
2168.605074	-3.000000	3.285200	-9.855100	27.052331	9.509647E-5	20.755026
2169.623250	-3.001400	3.285600	-9.860700	27.031138	9.120219E-5	20.757421
2170.620825	-2.995400	3.286200	-9.842600	26.990243	9.189524E-5	20.765607
2171.624735	-2.991500	3.286200	-9.830600	27.000640	9.390839E-5	20.768477
2172.628221	-3.021200	3.284500	-9.921900	27.000292	9.357836E-5	20.758643
2173.626153	-2.990300	3.283900	-9.818800	27.056771	8.975008E-5	20.745741
2174.625608	-3.007200	3.284800	-9.876500	27.030988	9.090517E-5	20.752054
2175.632616	-2.998700	3.283100	-9.843900	27.068781	9.087217E-5	20.770622
2176.606242	-2.976300	3.284300	-9.773000	27.116697	8.710989E-5	20.753852
2177.612916	-2.987300	3.282700	-9.805400	27.061387	9.196124E-5	20.755125
2178.605892	-3.009900	3.282600	-9.879400	27.037838	9.074016E-5	20.752305
2179.604905	-3.003100	3.280800	-9.851100	26.988629	8.899103E-5	20.768726
2180.606525	-2.993300	3.281200	-9.820500	27.013966	8.899103E-5	20.754377
2181.610903	-3.001700	3.282000	-9.851000	27.002824	8.879301E-5	20.761663
2182.605771	-2.999600	3.280900	-9.840700	27.014710	8.773694E-5	20.753227
2183.604921	-3.001800	3.280300	-9.845700	27.038459	9.031112E-5	20.751981
2184.625622	-2.995000	3.281400	-9.827300	27.094142	8.833098E-5	20.744444
2185.625025	-2.986900	3.280400	-9.797300	27.101636	8.899103E-5	20.758145
2186.632920	-2.986000	3.278600	-9.788900	27.109129	8.984909E-5	20.752879
2187.633604	-2.978500	3.280600	-9.770100	27.080197	8.724190E-5	20.755550
2188.627833	-2.992400	3.278000	-9.807900	27.063373	8.852899E-5	20.744793
2189.623147	-2.980600	3.280000	-9.774800	27.056921	8.747292E-5	20.765332
2190.636434	-2.987500	3.278200	-9.792700	27.094217	8.539376E-5	20.757322
2191.610054	-2.993100	3.278000	-9.810600	27.140866	8.687887E-5	20.749711
2192.607226	-3.005300	3.276600	-9.845900	27.125482	8.384265E-5	20.764110
2193.608605	-3.018200	3.276200	-9.887900	27.122356	8.674686E-5	20.742000
2194.610446	-2.991700	3.276200	-9.799700	27.125061	8.529476E-5	20.775541
2195.610986	-2.983400	3.275800	-9.771900	27.147888	8.595481E-5	20.760567
2196.609659	-3.008100	3.275900	-9.853400	27.150741	8.549277E-5	20.759643
2197.613796	-3.015600	3.273300	-9.869700	27.168186	8.618582E-5	20.768180
2198.624845	-2.989700	3.275700	-9.791900	27.216294	8.341362E-5	20.774368
2199.641476	-2.997100	3.275000	-9.813400	27.219198	8.156549E-5	20.755952
2200.628420	-3.014500	3.275400	-9.872700	27.205651	8.272057E-5	20.764137
2201.625796	-2.983200	3.273600	-9.765300	27.144019	8.314960E-5	20.752882
2202.630547	-2.989800	3.274000	-9.787700	27.140967	8.166449E-5	20.758822
2203.627970	-3.004400	3.272900	-9.832400	27.182131	8.192851E-5	20.772248
2204.635251	-2.981700	3.274000	-9.761100	27.232646	8.169749E-5	20.779910
2205.632849	-3.014000	3.272100	-9.861200	27.203667	8.390866E-5	20.761193
2206.630977	-2.984800	3.272000	-9.765100	27.177739	8.064142E-5	20.763563
2207.629010	-2.991300	3.271500	-9.784900	27.132655	8.163149E-5	20.777489
2208.647202	-3.011500	3.270700	-9.848100	27.120200	8.173050E-5	20.767332
2209.631412	-2.990300	3.270500	-9.779000	27.107519	8.097144E-5	20.778762
2210.630450	-2.998500	3.269500	-9.802800	27.186349	8.163149E-5	20.757050
2211.632399	-2.983000	3.270400	-9.754600	27.254777	8.067442E-5	20.754754
2212.645123	-2.995000	3.270400	-9.793900	27.270184	7.879328E-5	20.775942
2213.617015	-3.011100	3.269000	-9.842300	27.208009	7.955234E-5	20.766508
2214.613579	-2.998600	3.267900	-9.797700	27.142754	7.965135E-5	20.771525
2215.617058	-3.013300	3.269600	-9.851300	27.144889	7.948633E-5	20.767507
2216.648481	-2.995900	3.267300	-9.787500	27.119455	7.826524E-5	20.776067
2217.632095	-2.994400	3.267300	-9.782600	27.154267	7.757219E-5	20.788320
2218.635972	-3.007500	3.268000	-9.826500	27.222026	7.918931E-5	20.780607
2219.649395	-3.008300	3.267000	-9.826700	27.258348	7.803423E-5	20.768304
2220.641346	-3.005300	3.268600	-9.822200	27.244429	7.654912E-5	20.784650
2221.647951	-2.997000	3.265600	-9.786200	27.212970	7.948633E-5	20.777662
2222.640444	-2.977600	3.265900	-9.724000	27.234331	7.450297E-5	20.797252
2223.635010	-3.021500	3.265400	-9.866000	27.262788	7.790222E-5	20.784624
2224.635757	-3.012700	3.264900	-9.835000	27.209322	7.793522E-5	20.763087
2225.639026	-3.012400	3.264200	-9.832500	27.191904	7.790222E-5	20.794880
2226.633618	-3.006700	3.262900	-9.809200	27.244824	7.777021E-5	20.785521
2227.642782	-3.014300	3.263300	-9.835900	27.265094	7.711016E-5	20.770348
2228.646343	-3.003500	3.263900	-9.801900	27.293303	7.948633E-5	20.782128
2229.644969	-3.022500	3.261300	-9.855800	27.251374	7.753919E-5	20.786420
2230.637843	-2.988400	3.263600	-9.751800	27.199098	7.645011E-5	20.775090
2231.640458	-3.011000	3.261600	-9.819900	27.204556	7.509701E-5	20.757346
2232.642139	-3.004300	3.262200	-9.799500	27.216613	7.793522E-5	20.796975
2233.654017	-2.993500	3.260400	-9.759700	27.205375	7.661512E-5	20.776187
2234.620099	-3.022700	3.260500	-9.854200	27.156545	7.575706E-5	20.804836
2235.642700	-2.991000	3.260700	-9.751900	27.145653	7.394193E-5	20.778233
2236.646427	-3.004100	3.260800	-9.795200	27.162251	7.569106E-5	20.784022
2237.639858	-3.011600	3.260200	-9.817100	27.211975	7.513001E-5	20.789938
2238.645559	-3.012600	3.258700	-9.816400	27.195499	7.493200E-5	20.785221
2239.622075	-2.985500	3.259700	-9.730800	27.254077	7.456897E-5	20.802889
2240.644275	-3.003200	3.257600	-9.782700	27.252315	7.473399E-5	20.792108
2241.623899	-2.977500	3.259100	-9.703200	27.262686	7.493200E-5	20.804436
2242.642960	-2.987300	3.258000	-9.731700	27.304787	7.532803E-5	20.778033
2243.643970	-3.008900	3.256700	-9.798400	27.239414	7.423895E-5	20.795726
2244.644682	-2.986100	3.257400	-9.725700	27.221351	7.440396E-5	20.756221
2245.640472	-2.998600	3.256400	-9.763900	27.241424	7.371091E-5	20.780678
2246.644411	-3.020800	3.255200	-9.832000	27.238298	7.285285E-5	20.782750
2247.642249	-2.997200	3.256500	-9.758200	27.229664	7.384292E-5	20.796350
2248.649217	-2.990700	3.255400	-9.735400	27.260180	7.331488E-5	20.786742
2249.648619	-2.983200	3.254500	-9.707600	27.296600	7.054268E-5	20.798247
2250.645303	-3.010600	3.254100	-9.795900	27.348895	7.199478E-5	20.798221
2251.658956	-3.002400	3.254200	-9.770100	27.375563	7.054268E-5	20.809875
2252.643972	-3.006400	3.253100	-9.779000	27.425971	7.083970E-5	20.797998
2253.648058	-3.013500	3.252700	-9.801400	27.430113	7.044367E-5	20.785096
2254.644715	-3.008400	3.252500	-9.783400	27.408731	7.423895E-5	20.804836
2255.641715	-2.980800	3.252700	-9.694800	27.346589	6.912357E-5	20.786892
2256.626266	-3.011400	3.252900	-9.795100	27.320689	7.113672E-5	20.799719
2257.643697	-3.010700	3.251700	-9.788900	27.242763	7.143374E-5	20.797199
2258.645729	-3.012100	3.250200	-9.788100	27.255963	6.935459E-5	20.818062
2259.648696	-3.015800	3.249700	-9.800000	27.277448	7.057568E-5	20.807431
2260.644494	-3.000100	3.251000	-9.752000	27.390721	7.034466E-5	20.787192
2261.646205	-3.036800	3.248100	-9.862500	27.413221	7.021265E-5	20.801767
2262.651886	-3.024800	3.247900	-9.823300	27.390202	7.077370E-5	20.798049
2263.646250	-2.984700	3.249500	-9.697000	27.374896	7.272084E-5	20.809678
2264.630452	-2.996500	3.248200	-9.732000	27.362493	7.136774E-5	20.827547
2265.626406	-3.019000	3.250000	-9.811500	27.356812	6.918958E-5	20.808556
2266.630563	-3.021400	3.247900	-9.811900	27.397694	7.083970E-5	20.809380
2267.631542	-2.968200	3.249200	-9.643500	27.470896	7.044367E-5	20.807633
2268.654880	-3.004800	3.247600	-9.758100	27.481463	6.829851E-5	20.816368
2269.653307	-2.997200	3.247900	-9.733300	27.470847	6.757246E-5	20.836507
2270.645839	-3.017400	3.246200	-9.793900	27.441651	6.803450E-5	20.802867
2271.643964	-2.993400	3.244900	-9.711900	27.369168	6.918958E-5	20.822408
2272.645443	-2.989400	3.246000	-9.702600	27.366935	6.819951E-5	20.816843
2273.648458	-3.029000	3.244100	-9.824800	27.375444	6.810050E-5	20.832515
2274.657610	-3.015500	3.243100	-9.778500	27.346222	6.806750E-5	20.811653
2275.650707	-2.998900	3.244400	-9.728100	27.375221	6.866154E-5	20.814273
2276.645894	-3.017100	3.241800	-9.780400	27.443811	6.595534E-5	20.819739
2277.648671	-3.014600	3.243400	-9.776400	27.520779	6.711043E-5	20.809457
2278.628121	-3.039800	3.240600	-9.849100	27.551140	6.536130E-5	20.829097
2279.629863	-2.970100	3.243100	-9.631800	27.555430	6.486626E-5	20.814448
2280.652225	-2.969600	3.243200	-9.629800	27.502302	6.390919E-5	20.813151
2281.633318	-2.993000	3.242000	-9.702900	27.447680	6.324914E-5	20.838803
2282.630680	-2.967400	3.242200	-9.620000	27.362793	6.262210E-5	20.813625
2283.633066	-2.998900	3.241500	-9.719700	27.306827	6.235808E-5	20.816595
2284.633798	-2.991300	3.242100	-9.696900	27.374552	6.598835E-5	20.831143
2285.631723	-3.023300	3.238300	-9.789700	27.466111	6.364517E-5	20.834113
2286.631312	-3.007400	3.239000	-9.739500	27.478885	6.387619E-5	20.827998
2287.632145	-3.016700	3.238500	-9.768600	27.449020	6.324914E-5	20.821660
2288.652793	-2.994600	3.237900	-9.694800	27.413993	6.364517E-5	20.827672
2289.631351	-2.960200	3.237800	-9.583600	27.395562	6.480026E-5	20.840425
2290.659734	-3.019800	3.235700	-9.770100	27.421460	6.229207E-5	20.820012
2291.650480	-3.009600	3.236200	-9.738900	27.434210	6.519629E-5	20.842321
2292.657741	-3.003300	3.237100	-9.721200	27.508177	6.272111E-5	20.834235
2293.654526	-3.006800	3.235600	-9.728000	27.502125	6.334815E-5	20.827672
2294.639147	-2.996200	3.235500	-9.692300	27.469879	6.354617E-5	20.835059
2295.632501	-2.976400	3.236000	-9.630000	27.478610	6.021292E-5	20.823928
2296.633943	-3.007500	3.235100	-9.729200	27.484613	5.994890E-5	20.838503
2297.636921	-2.993100	3.233800	-9.678400	27.457848	6.232508E-5	20.817740
2298.632751	-3.023200	3.234000	-9.776000	27.471094	6.179704E-5	20.835807
2299.666862	-3.016600	3.233600	-9.752300	27.533650	6.202806E-5	20.823354
2300.639646	-2.988500	3.232800	-9.660600	27.532658	6.166503E-5	20.814770
2301.633439	-2.998500	3.232500	-9.691800	27.545333	6.077396E-5	20.831316
2302.634879	-2.977600	3.232400	-9.623700	27.593871	5.955287E-5	20.824677
2303.633351	-3.003300	3.230800	-9.702000	27.586306	5.932186E-5	20.834609
2304.634714	-3.018500	3.230900	-9.751700	27.530326	5.971789E-5	20.843717
2305.636318	-3.022100	3.229700	-9.759600	27.513732	5.961888E-5	20.839824
2306.634524	-2.973300	3.231500	-9.607400	27.513087	5.938786E-5	20.841546
2307.636450	-3.014200	3.230600	-9.736200	27.533326	5.971789E-5	20.866175
2308.636478	-2.999700	3.228800	-9.684300	27.558873	5.909084E-5	20.842568
2309.644222	-2.999700	3.229500	-9.686700	27.573680	5.711069E-5	20.849405
2310.652658	-2.992400	3.230900	-9.665600	27.603963	5.905784E-5	20.864702
2311.667706	-3.013800	3.228000	-9.727800	27.654259	5.978389E-5	20.855094
2312.637372	-3.024700	3.227500	-9.761400	27.696494	5.668166E-5	20.857290
2313.639958	-3.008000	3.226400	-9.704400	27.651903	6.050994E-5	20.850352
2314.640094	-3.003300	3.228700	-9.695300	27.621893	5.951987E-5	20.852398
2315.638192	-2.987900	3.227200	-9.641800	27.581590	5.760573E-5	20.852148
2316.639923	-2.976700	3.226200	-9.603000	27.615841	5.608762E-5	20.847256
2317.638168	-2.974700	3.225900	-9.595100	27.556266	5.638464E-5	20.838996
2318.637318	-3.012800	3.225000	-9.716000	27.559763	5.450350E-5	20.860532
2319.637847	-2.999100	3.223100	-9.665500	27.623925	5.539457E-5	20.872933
2320.637912	-3.006300	3.222300	-9.686700	27.595651	5.691268E-5	20.830735
2321.637376	-3.005800	3.224500	-9.690400	27.539373	5.661566E-5	20.846656
2322.640402	-3.010800	3.223000	-9.703400	27.559265	5.704469E-5	20.839169
2323.655562	-3.009000	3.222400	-9.695200	27.620253	5.420648E-5	20.842213
2324.654855	-3.018400	3.221300	-9.722300	27.641433	5.608762E-5	20.866368
2325.660275	-2.975300	3.223000	-9.588900	27.682799	5.516355E-5	20.854889
2326.658001	-3.006800	3.220800	-9.683200	27.704870	5.397547E-5	20.839167
2327.662683	-3.009100	3.220800	-9.690700	27.686419	5.638464E-5	20.852842
2328.660306	-2.997800	3.221400	-9.655500	27.700058	5.635164E-5	20.840489
2329.662537	-2.991900	3.220700	-9.635100	27.705167	5.602162E-5	20.853215
2330.665669	-2.977900	3.219700	-9.587500	27.649466	5.400847E-5	20.836521
2331.660449	-3.007400	3.218200	-9.676800	27.590910	5.476752E-5	20.854887
2332.655861	-2.984900	3.220200	-9.611400	27.578855	5.592261E-5	20.852241
2333.660160	-2.993300	3.218600	-9.633100	27.594455	5.486653E-5	20.875049
2334.661038	-2.989100	3.218400	-9.619700	27.641082	5.645065E-5	20.851792
2335.641617	-2.999700	3.218000	-9.652100	27.624713	5.645065E-5	20.857606
2336.644587	-2.979000	3.217000	-9.582500	27.688376	5.565859E-5	20.874250
2337.642792	-2.995100	3.217300	-9.634700	27.641602	5.470152E-5	20.865116
2338.644005	-3.014100	3.216800	-9.694600	27.632128	5.546057E-5	20.837567
2339.642401	-3.005100	3.215500	-9.661900	27.588402	5.456951E-5	20.872277
2340.643159	-3.025700	3.215300	-9.728000	27.618858	5.433849E-5	20.849819
2341.645093	-3.015400	3.215800	-9.695900	27.616701	5.453651E-5	20.867087
2342.643246	-2.995100	3.214600	-9.627200	27.605912	5.298539E-5	20.846749
2343.642309	-3.023000	3.212900	-9.711600	27.619454	5.463551E-5	20.879813
2344.645233	-2.993200	3.213300	-9.616900	27.644355	5.387646E-5	20.864567
2345.642045	-3.003000	3.214200	-9.650700	27.729169	5.351343E-5	20.858403
2346.644644	-2.986500	3.214200	-9.598300	27.785040	5.440450E-5	20.872427
2347.643660	-3.031400	3.212200	-9.736000	27.839667	5.384346E-5	20.854859
2348.647728	-2.990800	3.211400	-9.603900	27.813830	5.546057E-5	20.860624
2349.646503	-2.990900	3.210900	-9.602900	27.842966	5.354643E-5	20.872403
2350.643580	-2.985300	3.212500	-9.589700	27.788165	5.526256E-5	20.865615
2351.663469	-2.986300	3.208800	-9.581400	27.687904	5.407447E-5	20.850543
2352.663630	-2.999100	3.211000	-9.629500	27.651002	5.374445E-5	20.881686
2353.645486	-2.989500	3.211300	-9.599200	27.607550	5.334842E-5	20.874475
2354.648026	-2.974800	3.208600	-9.544200	27.673496	5.255636E-5	20.870183
2355.645717	-2.987100	3.207600	-9.580600	27.737281	5.338142E-5	20.862772
2356.644669	-3.008900	3.207800	-9.651200	27.787795	5.364544E-5	20.873303
2357.648874	-3.005100	3.208900	-9.642200	27.799276	5.371145E-5	20.883909
2358.646279	-3.007000	3.206900	-9.642500	27.808054	5.249036E-5	20.885156
2359.645467	-2.962000	3.207300	-9.499000	27.791987	5.242435E-5	20.881789
2360.658562	-3.014500	3.205200	-9.661700	27.742019	5.173130E-5	20.892194
2361.647325	-3.003000	3.205100	-9.624400	27.747970	5.189631E-5	20.883011
2362.647346	-3.008100	3.205200	-9.641200	27.776935	5.156629E-5	20.885132
2363.647705	-2.995400	3.204200	-9.597100	27.793451	5.163229E-5	20.890374
2364.647022	-3.016400	3.202400	-9.657900	27.828588	5.130227E-5	20.897285
2365.647358	-2.998900	3.203100	-9.603900	27.866278	5.070823E-5	20.890174
2366.649926	-2.990900	3.203200	-9.579600	27.860972	5.044421E-5	20.898583
2367.648781	-2.973500	3.201800	-9.519500	27.851749	4.975116E-5	20.886931
2368.650100	-3.005100	3.201300	-9.619400	27.818794	5.031220E-5	20.889326
2369.650127	-2.995100	3.200900	-9.586200	27.826258	4.942113E-5	20.903949
2370.651478	-2.999400	3.200600	-9.599000	27.815472	5.024619E-5	20.891198
2371.650745	-2.997400	3.200000	-9.590500	27.778474	4.902510E-5	20.897586
2372.652674	-2.988900	3.199700	-9.562500	27.780632	5.060922E-5	20.898335
2373.651688	-2.991000	3.198900	-9.567500	27.824250	4.876108E-5	20.914255
2374.670457	-3.003600	3.200100	-9.611300	27.918423	4.905810E-5	20.911360
2375.652761	-3.014300	3.197800	-9.638000	27.879520	4.922312E-5	20.905397
2376.652636	-2.999700	3.197300	-9.590300	27.800420	4.783702E-5	20.905921
2377.654138	-3.013800	3.197300	-9.635300	27.805677	4.813404E-5	20.901729
2378.653347	-2.996300	3.198200	-9.581400	27.852964	4.955314E-5	20.898111
2379.653769	-2.999800	3.196700	-9.588600	27.837739	4.790302E-5	20.888004
2380.653265	-2.997800	3.195900	-9.580100	27.847187	4.750699E-5	20.916002
2381.653266	-3.011100	3.194200	-9.617000	27.889290	4.869508E-5	20.906221
2382.652729	-2.997400	3.195300	-9.576500	27.903373	4.909111E-5	20.893844
2383.653401	-2.996300	3.194500	-9.570800	27.932234	4.734198E-5	20.891124
2384.671537	-2.999400	3.193200	-9.577100	27.908878	4.605488E-5	20.921667
2385.671866	-3.001200	3.192300	-9.579000	27.896505	4.757300E-5	20.894044
2386.675987	-2.985000	3.192800	-9.530300	27.964986	4.720997E-5	20.906071
2387.680295	-2.988100	3.192900	-9.539400	27.963895	4.793602E-5	20.901180
2388.681697	-2.996400	3.192200	-9.564500	28.002423	4.582387E-5	20.917199
2389.671651	-3.009800	3.190300	-9.601000	28.016530	4.694595E-5	20.901055
2390.675952	-2.998700	3.189700	-9.563500	27.958540	4.638491E-5	20.903375
2391.688603	-3.006500	3.189600	-9.588400	27.925738	4.542784E-5	20.915403
2392.656230	-3.003100	3.190000	-9.578400	27.891273	4.516382E-5	20.895415
2393.657207	-3.002900	3.188600	-9.573100	27.859385	4.291965E-5	20.892246
2394.655991	-2.999200	3.185700	-9.553300	27.895884	4.301866E-5	20.924709
2395.657919	-3.002700	3.186700	-9.567400	27.944183	4.414074E-5	20.909313
2396.657354	-2.995200	3.186400	-9.542500	27.927546	4.311767E-5	20.913430
2397.657155	-3.010000	3.186400	-9.590200	27.951348	4.555985E-5	20.919368
2398.674758	-3.000800	3.184500	-9.555800	27.947529	4.196258E-5	20.906992
2399.661204	-2.989200	3.184100	-9.517200	27.903717	4.232561E-5	20.912206
2400.660411	-2.977200	3.185000	-9.481700	27.870243	4.480079E-5	20.918818
2401.681615	-3.004600	3.183200	-9.563500	27.859036	4.225961E-5	20.905643
2402.680106	-3.008000	3.182900	-9.573200	27.879292	4.272164E-5	20.906115
2403.686173	-3.004000	3.180900	-9.554800	27.895285	4.272164E-5	20.920314
2404.678612	-2.992300	3.182500	-9.522500	27.958162	4.219360E-5	20.900625
2405.680161	-2.992100	3.181900	-9.520000	27.939244	4.074149E-5	20.918092
2406.658933	-3.005200	3.180800	-9.557500	27.958459	4.077450E-5	20.897131
2407.662450	-3.001400	3.179200	-9.541400	27.933441	4.123653E-5	20.886175
2408.658393	-3.017100	3.178500	-9.588900	27.932002	4.067549E-5	20.893261
2409.659911	-3.022000	3.177700	-9.602300	27.998374	4.239162E-5	20.897953
2410.659076	-2.981800	3.177700	-9.475000	28.036702	4.219360E-5	20.903816
2411.661778	-3.010300	3.176700	-9.561900	28.085564	4.018045E-5	20.883778
2412.659491	-3.009600	3.176100	-9.558100	28.070666	3.994944E-5	20.885849
2413.662922	-2.979700	3.177100	-9.465600	28.019148	3.859634E-5	20.891363
2414.680582	-2.985900	3.175900	-9.481900	28.051253	3.945440E-5	20.887170
2415.693731	-2.987300	3.176200	-9.487700	28.058169	3.869534E-5	20.866159
2416.664660	-3.012500	3.175400	-9.564700	27.993090	3.810130E-5	20.877462
2417.681235	-3.008500	3.172900	-9.544800	27.993511	3.645118E-5	20.880257
2418.662948	-3.000500	3.175300	-9.527100	27.972659	3.724324E-5	20.881554
2419.663868	-3.015100	3.174000	-9.569400	27.954732	3.869534E-5	20.878682
2420.693739	-2.975300	3.173000	-9.439400	28.008534	3.958641E-5	20.875464
2421.687623	-3.038900	3.169900	-9.632300	27.997995	3.717723E-5	20.875288
2422.664118	-2.978100	3.169900	-9.438700	28.008333	3.757326E-5	20.891382
2423.664665	-2.994700	3.170900	-9.494500	27.988375	3.480106E-5	20.881251
2424.665937	-2.990200	3.169000	-9.475000	27.989787	3.631917E-5	20.886466
2425.664882	-3.009200	3.168500	-9.533700	27.966035	3.780428E-5	20.854499
2426.666859	-2.984400	3.168500	-9.454900	27.950340	3.546111E-5	20.854349
2427.666413	-3.013500	3.166400	-9.541100	27.908884	3.671520E-5	20.858615
2428.667186	-3.010000	3.166100	-9.528200	27.896535	3.635217E-5	20.853773
2429.667156	-2.982900	3.166800	-9.445400	27.941140	3.526309E-5	20.857416
2430.683646	-2.983900	3.165500	-9.444500	27.974560	3.513108E-5	20.853597
2431.690959	-2.994200	3.164100	-9.473100	27.961221	3.447103E-5	20.864352
2432.686331	-3.000500	3.164700	-9.494200	27.969725	3.232588E-5	20.851101
2433.687118	-3.002000	3.163100	-9.494900	27.947683	3.374498E-5	20.847881
2434.684498	-2.998600	3.163400	-9.485200	27.939921	3.245789E-5	20.870413
2435.691303	-2.998200	3.160400	-9.474300	27.931293	3.268890E-5	20.848928
2436.691262	-3.018300	3.161600	-9.542100	27.960721	3.582413E-5	20.845358
2437.687382	-2.994700	3.160800	-9.464700	27.975127	3.199585E-5	20.850374
2438.689270	-3.004900	3.159000	-9.491700	28.041643	3.239188E-5	20.849998
2439.690820	-2.996000	3.158500	-9.462000	28.094249	3.308493E-5	20.853168
2440.687639	-2.977000	3.159300	-9.404400	28.122286	3.381099E-5	20.839192
2441.683333	-3.007500	3.158100	-9.497200	28.110163	3.239188E-5	20.829359
2442.691630	-3.002500	3.157700	-9.480300	28.113955	3.275491E-5	20.855935
2443.673441	-2.992900	3.156800	-9.445700	28.073150	3.404200E-5	20.844730
2444.672126	-3.011400	3.155400	-9.501600	28.114648	3.420702E-5	20.843357
2445.671830	-3.000000	3.155100	-9.463700	28.114846	3.298593E-5	20.836444
2446.673366	-3.001200	3.154400	-9.466100	28.084873	3.331595E-5	20.833299
2447.670114	-2.983900	3.154400	-9.411800	28.101061	3.351396E-5	20.845326
2448.671582	-2.996100	3.153000	-9.445400	28.150788	3.351396E-5	20.839911
2449.690942	-2.997000	3.152100	-9.446300	28.107803	3.308493E-5	20.840733
2450.690853	-3.017600	3.149500	-9.503200	28.072525	3.150082E-5	20.834145
2451.701477	-3.013900	3.149400	-9.491600	28.093399	3.357997E-5	20.828605
2452.698678	-3.001600	3.149000	-9.451000	28.097960	3.090677E-5	20.843153
2453.693639	-3.014200	3.148200	-9.488500	28.067368	3.054375E-5	20.846022
2454.691195	-3.012700	3.147900	-9.482800	28.067789	3.318394E-5	20.834119
2455.693217	-2.995000	3.147600	-9.426200	28.048749	3.288692E-5	20.817324
2456.693173	-3.015400	3.145800	-9.485100	28.130383	3.245789E-5	20.810361
2457.701757	-2.986900	3.145100	-9.393300	28.176714	3.087377E-5	20.842303
2458.696756	-2.989300	3.145200	-9.401100	28.148157	3.242488E-5	20.831572
2459.692213	-3.021200	3.143200	-9.495100	28.160204	3.008171E-5	20.819044
2460.696908	-3.010100	3.142400	-9.458100	28.158270	2.971869E-5	20.818046
2461.699563	-2.976800	3.143100	-9.355400	28.222347	3.103878E-5	20.824708
2462.677853	-3.013400	3.141600	-9.466000	28.269317	2.922365E-5	20.816997
2463.678101	-3.007800	3.140100	-9.444100	28.267632	3.255689E-5	20.829524
2464.676666	-2.991900	3.139400	-9.391500	28.286766	3.126980E-5	20.814651
2465.677530	-3.005500	3.138400	-9.430900	28.333065	2.928965E-5	20.824283
2466.702984	-3.019300	3.138400	-9.475400	28.257196	2.796956E-5	20.824707
2467.694494	-3.003000	3.136800	-9.419000	28.212554	3.067576E-5	20.794461
2468.702566	-2.993500	3.136500	-9.388000	28.189800	2.618743E-5	20.809959
2469.697925	-3.013900	3.135700	-9.449300	28.179512	2.895963E-5	20.823309
2470.697971	-2.992700	3.135800	-9.383600	28.148576	2.955367E-5	20.828675
2471.680141	-3.018100	3.133100	-9.455300	28.186204	2.866261E-5	20.806813
2472.679702	-2.992200	3.132700	-9.373200	28.204349	2.892663E-5	20.797580
2473.679389	-3.017200	3.132800	-9.451500	28.211116	3.308493E-5	20.807238
2474.679361	-3.001100	3.131400	-9.397100	28.261781	2.635244E-5	20.829323
2475.678857	-3.020100	3.130100	-9.452500	28.281188	2.813457E-5	20.810931
2476.678828	-3.005400	3.129400	-9.404400	28.288004	2.727651E-5	20.819216
2477.681023	-2.989500	3.129200	-9.353100	28.333287	2.872861E-5	20.805541
2478.686947	-2.968900	3.129100	-9.289000	28.385210	2.740852E-5	20.801398
2479.696421	-2.993900	3.127400	-9.361400	28.412917	2.886062E-5	20.811755
2480.700421	-3.020800	3.125900	-9.442000	28.384764	2.820057E-5	20.805217
2481.682667	-3.029200	3.125700	-9.466500	28.389894	2.678147E-5	20.821762
2482.684390	-2.996200	3.124900	-9.362600	28.287360	2.562638E-5	20.790592
2483.712541	-2.978300	3.124300	-9.303500	28.198003	2.744152E-5	20.797355
2484.684719	-3.010300	3.121200	-9.394900	28.125993	2.661646E-5	20.797406
2485.685498	-2.984900	3.123300	-9.321400	28.138610	2.754053E-5	20.794935
2486.684818	-3.058200	3.120500	-9.542400	28.211488	2.770554E-5	20.811405
2487.684903	-2.995100	3.121600	-9.347400	28.188336	2.516435E-5	20.821761
2488.687330	-2.999300	3.117700	-9.350200	28.217809	2.688048E-5	20.799751
2489.685897	-2.991800	3.119700	-9.332100	28.288227	2.638544E-5	20.804741
2490.685315	-2.989500	3.116900	-9.316800	28.343771	2.575839E-5	20.813252
2491.685217	-2.998700	3.116800	-9.345600	28.384739	2.697948E-5	20.792389
2492.695126	-2.993200	3.114800	-9.322200	28.322010	2.513135E-5	20.831644
2493.704006	-2.998300	3.115300	-9.339700	28.251197	2.622043E-5	20.803021
2494.688095	-2.981200	3.113400	-9.280900	28.181520	2.526336E-5	20.809210
2495.710595	-3.001900	3.111600	-9.339300	28.178470	2.473532E-5	20.808510
2496.705050	-3.002600	3.111200	-9.340700	28.212058	2.381125E-5	20.802970
2497.711752	-3.004200	3.110900	-9.344600	28.269439	2.470232E-5	20.804318
2498.712103	-2.987200	3.110500	-9.290900	28.254964	2.486733E-5	20.803969
2499.720685	-3.018400	3.108200	-9.380900	28.304214	2.371224E-5	20.797131
2500.711813	-2.993500	3.107300	-9.300900	28.274322	2.321721E-5	20.795483
2501.722940	-3.002600	3.105900	-9.325300	28.253229	2.427329E-5	20.800325
2502.719067	-3.004600	3.104600	-9.326500	28.244008	2.153408E-5	20.805266
2503.712908	-3.004100	3.105800	-9.329300	28.208264	2.414128E-5	20.813850
2504.727220	-3.005400	3.103300	-9.325800	28.195425	2.334922E-5	20.819415
2505.715648	-3.005600	3.102200	-9.323100	28.247031	2.344822E-5	20.799775
2506.708302	-2.990900	3.103700	-9.281300	28.247725	2.044500E-5	20.821336
2507.692417	-3.020300	3.101100	-9.365400	28.283590	2.169910E-5	20.804341
2508.692678	-2.991800	3.099900	-9.273100	28.355343	2.219413E-5	20.811628
2509.692640	-3.013900	3.099200	-9.339800	28.303146	2.232614E-5	20.796056
2510.691809	-2.983400	3.098600	-9.242600	28.241156	2.272217E-5	20.795756
2511.692704	-2.987900	3.097300	-9.253200	28.246659	1.985096E-5	20.801770
2512.692833	-3.022700	3.095100	-9.354900	28.221152	2.027999E-5	20.811652
2513.693506	-3.002000	3.095100	-9.291100	28.287010	2.008198E-5	20.796878
2514.695689	-3.012100	3.093700	-9.317200	28.331350	2.193011E-5	20.788418
2515.694874	-3.024200	3.091400	-9.347800	28.393905	2.130307E-5	20.801619
2516.696380	-3.001400	3.092400	-9.280400	28.459429	2.077503E-5	20.801694
2517.693531	-3.023800	3.090600	-9.343100	28.472241	1.985096E-5	20.785671
2518.696849	-3.010700	3.087800	-9.295900	28.428476	2.113806E-5	20.781429
2519.700192	-2.999400	3.089900	-9.267300	28.430830	1.750779E-5	20.792808
2520.695869	-2.963000	3.088100	-9.148800	28.428996	1.985096E-5	20.785272
2521.696193	-2.979000	3.086700	-9.195000	28.390384	2.008198E-5	20.774366
2522.699644	-3.020400	3.085100	-9.317000	28.314345	2.193011E-5	20.785995
2523.694667	-2.970000	3.085500	-9.163100	28.274861	2.054401E-5	20.789862
2524.698205	-3.013500	3.082100	-9.287300	28.323986	2.057701E-5	20.780529
2525.702583	-2.992100	3.082500	-9.222700	28.331867	1.747479E-5	20.790361
2526.696822	-3.006200	3.080300	-9.259800	28.279247	2.094004E-5	20.785269
2527.697799	-2.996300	3.079400	-9.226100	28.346092	1.816784E-5	20.779080
2528.697073	-2.994200	3.077000	-9.211100	28.360913	1.704575E-5	20.783571
2529.715834	-2.990700	3.077200	-9.202100	28.356005	1.829985E-5	20.796173
2530.722720	-3.017600	3.077300	-9.285100	28.353353	1.859687E-5	20.770743
2531.717709	-3.020600	3.074900	-9.287600	28.335210	1.721077E-5	20.785192
2532.726477	-2.983900	3.074900	-9.174800	28.335433	1.770580E-5	20.784468
2533.719003	-3.015200	3.073200	-9.265600	28.363265	1.793682E-5	20.789259
2534.717628	-2.995000	3.072700	-9.202300	28.423835	1.737578E-5	20.788610
2535.699212	-3.011100	3.070300	-9.244100	28.431616	1.948793E-5	20.773212
2536.699545	-3.025400	3.069000	-9.283400	28.427676	1.889389E-5	20.771140
2537.703402	-3.026200	3.067900	-9.283400	28.386090	2.054401E-5	20.775732
2538.700608	-3.001300	3.067900	-9.206600	28.430798	1.971895E-5	20.769542
2539.699990	-3.021800	3.065300	-9.262300	28.474835	2.021399E-5	20.783542
2540.701229	-3.017300	3.065300	-9.247500	28.559980	1.922391E-5	20.772561
2541.703133	-3.028600	3.062500	-9.274700	28.557502	1.968595E-5	20.782394
2542.700857	-3.003000	3.062300	-9.195700	28.488786	1.928992E-5	20.772935
2543.699806	-2.994800	3.062300	-9.170200	28.484573	1.905890E-5	20.749252
2544.705082	-2.992300	3.062000	-9.160900	28.513418	2.130307E-5	20.783042
2545.702003	-2.998400	3.060500	-9.175700	28.523751	1.889389E-5	20.746506
2546.704169	-3.012100	3.059000	-9.213900	28.561218	1.945493E-5	20.783766
2547.704774	-2.978900	3.058300	-9.108900	28.621281	2.044500E-5	20.775979
2548.702561	-3.000000	3.056300	-9.168400	28.507619	2.206212E-5	20.770090
2549.706350	-2.977900	3.055000	-9.096700	28.481822	1.955394E-5	20.762129
2550.707058	-2.983100	3.054700	-9.111600	28.443534	1.998297E-5	20.750599
2551.703785	-2.987000	3.053400	-9.119500	28.442121	1.895989E-5	20.772885
2552.707357	-3.000900	3.051800	-9.157500	28.480756	1.909190E-5	20.758210
2553.750401	-3.024600	3.050300	-9.224200	28.488314	1.737578E-5	20.769141
2554.717334	-3.003100	3.049000	-9.155800	28.490693	2.064302E-5	20.753993
2555.703621	-2.983400	3.048100	-9.093300	28.499862	1.612169E-5	20.779348
2556.729117	-2.998800	3.047300	-9.136700	28.492329	2.021399E-5	20.754692
2557.728887	-2.991400	3.045400	-9.108400	28.500432	1.981796E-5	20.755740
2558.723668	-3.006900	3.043900	-9.152000	28.506083	1.853086E-5	20.758111
2559.721704	-2.992700	3.042500	-9.103900	28.489801	1.856387E-5	20.742663
2560.735267	-2.982900	3.040800	-9.069300	28.484176	2.097304E-5	20.765922
2561.731042	-3.001200	3.039200	-9.120500	28.532969	1.988396E-5	20.781395
2562.743022	-3.003500	3.038100	-9.124600	28.558319	2.130307E-5	20.747654
2563.737164	-3.027400	3.037200	-9.193700	28.571130	1.727677E-5	20.775256
2564.724640	-2.982500	3.035800	-9.053500	28.616425	1.727677E-5	20.763976
2565.707575	-2.991100	3.036100	-9.081300	28.629657	1.994997E-5	20.753594
2566.728110	-2.993100	3.034700	-9.082200	28.679162	1.942193E-5	20.761730
2567.722268	-2.949200	3.033400	-8.944200	28.664395	1.836585E-5	20.748753
2568.728234	-3.004300	3.031600	-9.106500	28.684563	1.866287E-5	20.752472
2569.706885	-3.016700	3.029900	-9.139500	28.631342	2.037900E-5	20.756714
2570.707282	-3.002500	3.028900	-9.093300	28.586791	1.853086E-5	20.761157
2571.706776	-3.003700	3.026700	-9.089400	28.454167	1.902590E-5	20.744711
2572.726920	-3.002300	3.027000	-9.087000	28.493049	2.011498E-5	20.750201
2573.709886	-3.011600	3.023800	-9.105600	28.498873	1.905890E-5	20.754644
2574.727046	-3.007300	3.022800	-9.089700	28.567093	1.912491E-5	20.767871
2575.728478	-3.001000	3.022000	-9.068100	28.585949	1.945493E-5	20.755093
2576.728470	-3.021300	3.020100	-9.124400	28.591475	2.133607E-5	20.768719
2577.728193	-2.973300	3.019700	-8.976500	28.604385	1.697975E-5	20.773661
2578.734810	-3.017600	3.017100	-9.103600	28.636572	2.041200E-5	20.744911
2579.728423	-3.010400	3.015800	-9.078300	28.628123	1.671573E-5	20.757265
2580.726270	-3.014000	3.015400	-9.088000	28.587610	1.961994E-5	20.749179
2581.754342	-2.994800	3.014000	-9.025700	28.634144	1.714476E-5	20.747208
2582.734484	-2.992300	3.014400	-9.019400	28.635036	1.773881E-5	20.764702
2583.735999	-2.983800	3.011700	-8.985400	28.651909	1.605568E-5	20.761308
2584.739794	-3.028200	3.010500	-9.115400	28.614619	1.892689E-5	20.733232
2585.726949	-3.009700	3.008600	-9.054100	28.635383	1.711176E-5	20.763629
2586.734748	-2.995200	3.007800	-9.008000	28.597720	1.724377E-5	20.751301
2587.711634	-2.990500	3.006300	-8.989500	28.604088	1.585767E-5	20.769569
2588.716527	-3.008400	3.006000	-9.042400	28.636300	1.635270E-5	20.750327
2589.720692	-2.984300	3.004300	-8.965100	28.666132	1.602268E-5	20.766150
2590.714350	-2.993600	3.004000	-8.991500	28.632038	1.691374E-5	20.745087
2591.715369	-3.032100	3.000600	-9.097400	28.659887	1.453757E-5	20.743738
2592.714481	-2.994700	2.999200	-8.981000	28.656319	1.546164E-5	20.760534
2593.714570	-3.005300	2.997800	-9.008000	28.599974	1.460357E-5	20.770167
2594.713003	-3.013600	2.996700	-9.030200	28.525339	1.592367E-5	20.743838
2595.714469	-2.992600	2.995700	-8.964000	28.507918	1.483459E-5	20.752373
2596.715050	-2.995500	2.993900	-8.967600	28.575913	1.612169E-5	20.752098
2597.715901	-2.997300	2.991400	-8.965600	28.663256	1.727677E-5	20.752822
2598.716161	-2.993800	2.991700	-8.956100	28.711322	1.499960E-5	20.744337
2599.718870	-3.021200	2.989000	-9.028900	28.752771	1.618769E-5	20.757164
2600.715655	-2.995000	2.987800	-8.947700	28.653964	1.457057E-5	20.720702
2601.716517	-2.992000	2.986700	-8.935200	28.667021	1.499960E-5	20.742389
2602.735661	-3.013400	2.984200	-8.992000	28.631664	1.526362E-5	20.734752
2603.732644	-3.018100	2.983900	-9.004100	28.595661	1.348149E-5	20.766771
2604.736212	-2.990200	2.981800	-8.915600	28.631787	1.523062E-5	20.738195
2605.715971	-3.003900	2.980000	-8.950900	28.695662	1.358050E-5	20.748478
2606.719438	-2.988600	2.979400	-8.903500	28.696826	1.400953E-5	20.752969
2607.717420	-3.014900	2.976900	-8.974800	28.648685	1.424055E-5	20.734826
2608.720922	-2.998400	2.977100	-8.924700	28.691548	1.387752E-5	20.762352
2609.719742	-3.012000	2.974900	-8.959600	28.621206	1.387752E-5	20.737021
2610.719741	-3.001500	2.973400	-8.923800	28.641721	1.612169E-5	20.742986
2611.717165	-2.993000	2.972700	-8.897000	28.673163	1.780481E-5	20.727238
2612.716815	-2.996000	2.970800	-8.899900	28.621552	1.648471E-5	20.734525
2613.734970	-3.001400	2.969000	-8.910300	28.690407	1.602268E-5	20.723269
2614.718980	-3.014400	2.967500	-8.943900	28.716966	1.371251E-5	20.725839
2615.719357	-2.987000	2.966500	-8.860700	28.708741	1.483459E-5	20.730356
2616.741343	-3.022500	2.963300	-8.956100	28.760868	1.655072E-5	20.745405
2617.742835	-2.992400	2.964000	-8.868800	28.748802	1.414154E-5	20.751269
2618.746774	-2.997600	2.963100	-8.881700	28.783214	1.344849E-5	20.721920
2619.726188	-2.998700	2.959600	-8.874000	28.836179	1.618769E-5	20.739714
2620.720402	-2.979700	2.959800	-8.818400	28.857533	1.711176E-5	20.745104
2621.720345	-2.996300	2.957100	-8.859300	28.861670	1.806883E-5	20.726037
2622.719984	-2.988800	2.954300	-8.828700	28.809696	1.730977E-5	20.719673
2623.718846	-2.969800	2.954900	-8.774300	28.822206	1.658372E-5	20.728482
2624.718671	-2.999000	2.954600	-8.860500	28.803255	1.615469E-5	20.734522
2625.721109	-2.987000	2.950700	-8.811800	28.774120	1.582466E-5	20.736468
2626.723278	-3.002800	2.949200	-8.855400	28.757794	1.750779E-5	20.741360
2627.718296	-3.020500	2.948700	-8.906100	28.783410	1.965295E-5	20.732076
2628.720918	-2.974400	2.947400	-8.765700	28.752566	1.631970E-5	20.727559
2629.724231	-2.977900	2.945100	-8.769200	28.688744	1.503261E-5	20.748622
2630.742921	-3.012500	2.943200	-8.865100	28.702470	1.463658E-5	20.730678
2631.736393	-3.024300	2.941000	-8.894300	28.659904	1.691374E-5	20.734746
2632.741430	-2.979300	2.939300	-8.756000	28.720804	1.658372E-5	20.733498
2633.722536	-3.002400	2.937800	-8.819800	28.746174	1.440556E-5	20.723490
2634.722182	-3.001100	2.937700	-8.816100	28.771915	1.674873E-5	20.711960
2635.725140	-2.990400	2.935300	-8.777200	28.812470	1.661672E-5	20.737166
2636.757930	-3.009500	2.933300	-8.825700	28.887159	1.783781E-5	20.740336
2637.743675	-3.010300	2.932800	-8.827900	28.904623	1.734278E-5	20.741334
2638.744195	-3.007600	2.930000	-8.811600	28.876879	1.638571E-5	20.728082
2639.741221	-3.003800	2.928700	-8.796100	28.829266	1.661672E-5	20.735120
2640.747482	-2.989700	2.927900	-8.752700	28.800801	1.592367E-5	20.727783
2641.752234	-3.019800	2.924400	-8.829400	28.802139	1.671573E-5	20.726285
2642.749382	-3.000000	2.923500	-8.769900	28.847598	1.691374E-5	20.743630
2643.748194	-2.972500	2.923200	-8.688300	28.880496	1.549464E-5	20.743581
2644.751726	-3.043400	2.920200	-8.885700	28.941061	1.674873E-5	20.723989
2645.750643	-2.994300	2.919700	-8.740500	28.954611	1.697975E-5	20.733373
2646.726230	-2.977100	2.917100	-8.683600	28.958351	1.813483E-5	20.732400
2647.729902	-2.996400	2.915700	-8.735200	28.904475	1.836585E-5	20.741185
2648.729009	-3.020100	2.913700	-8.798600	28.953125	1.602268E-5	20.730454
2649.758341	-3.016600	2.912300	-8.784200	28.938931	1.866287E-5	20.725163
2650.743097	-3.021000	2.908500	-8.784400	28.858573	1.598968E-5	20.746152
2651.751342	-3.019300	2.907700	-8.777400	28.873734	1.724377E-5	20.725862
2652.747631	-3.002700	2.907400	-8.729000	28.827706	1.638571E-5	20.730229
2653.729043	-2.992600	2.905000	-8.692300	28.824213	1.671573E-5	20.768912
2654.727954	-3.006300	2.903900	-8.729500	28.803552	1.813483E-5	20.749047
2655.734010	-2.982900	2.902200	-8.656500	28.843462	1.691374E-5	20.751318
2656.728086	-3.023600	2.900000	-8.767600	28.905615	1.631970E-5	20.752766
2657.728871	-3.010700	2.897900	-8.722900	28.943168	1.803583E-5	20.732751
2658.728719	-3.002500	2.896300	-8.695600	28.902123	1.859687E-5	20.755412
2659.754396	-2.993600	2.894200	-8.662900	28.884387	1.754079E-5	20.770261
2660.745761	-3.035100	2.891400	-8.774800	28.901777	1.790382E-5	20.749847
2661.729260	-3.004100	2.891300	-8.684400	28.931948	1.773881E-5	20.735671
2662.734638	-2.992400	2.889300	-8.645100	28.904180	1.905890E-5	20.754639
2663.730753	-2.979500	2.888300	-8.604700	28.948544	1.843186E-5	20.746703
2664.730368	-3.021000	2.884400	-8.712900	29.007595	1.737578E-5	20.739341
2665.745620	-2.999400	2.883400	-8.647300	29.053516	1.889389E-5	20.746728
2666.752439	-2.973500	2.881500	-8.566900	29.069739	1.704575E-5	20.754066
2667.745973	-2.987000	2.879900	-8.601000	29.085541	1.849786E-5	20.759556
2668.750111	-2.998900	2.878700	-8.632000	29.130046	1.853086E-5	20.748451
2669.729975	-3.005500	2.876400	-8.644500	29.135867	1.783781E-5	20.764273
2670.757840	-2.995200	2.873900	-8.607300	29.140176	1.922391E-5	20.747753
2671.757125	-2.984000	2.872400	-8.570200	29.105033	1.757379E-5	20.742213
2672.750620	-3.021500	2.869800	-8.670300	29.034273	1.711176E-5	20.740615
2673.733518	-2.970700	2.870000	-8.525400	28.983274	1.661672E-5	20.745183
2674.733270	-3.016300	2.866900	-8.646400	29.045543	1.780481E-5	20.746755
2675.748226	-2.997900	2.864000	-8.583800	29.037989	1.688074E-5	20.749102
2676.751441	-2.997800	2.863900	-8.584200	29.029692	1.628670E-5	20.746906
2677.750352	-2.986500	2.861400	-8.544100	29.054782	1.909190E-5	20.751323
2678.762249	-3.013900	2.859000	-8.615700	29.037891	1.816784E-5	20.772711
2679.764436	-2.987500	2.857000	-8.534300	29.075068	1.780481E-5	20.772712
2680.750477	-2.997700	2.854700	-8.556200	29.072071	1.820084E-5	20.749303
2681.755250	-2.986200	2.854100	-8.522200	29.148080	1.631970E-5	20.766623
2682.755077	-2.998700	2.849600	-8.544100	29.119079	1.681474E-5	20.772014
2683.758327	-3.003500	2.848600	-8.555000	29.076456	1.790382E-5	20.757515
2684.759378	-2.969300	2.847700	-8.454800	29.123191	1.823384E-5	20.757190
2685.754642	-2.988500	2.845000	-8.501100	29.188795	1.602268E-5	20.773512
2686.766749	-3.009200	2.842600	-8.552300	29.217671	1.664973E-5	20.766575
2687.763577	-3.011600	2.840700	-8.553500	29.275220	1.823384E-5	20.753447
2688.766622	-2.986300	2.839000	-8.476900	29.285324	1.780481E-5	20.768846
2689.769710	-2.999300	2.836500	-8.507000	29.299760	1.793682E-5	20.770593
2690.765731	-3.000800	2.834100	-8.503300	29.310557	1.971895E-5	20.776258
2691.761120	-3.004900	2.831400	-8.506900	29.285745	1.872888E-5	20.766426
2692.764026	-3.045700	2.826900	-8.608300	29.245407	1.777181E-5	20.790733
2693.759552	-2.990000	2.827900	-8.454700	29.263955	1.905890E-5	20.741620
2694.755343	-3.018200	2.823200	-8.520000	29.301817	1.829985E-5	20.794477
2695.759943	-2.973200	2.822600	-8.391300	29.271186	1.862987E-5	20.781625
2696.756861	-2.978500	2.820700	-8.400800	29.313777	1.925692E-5	20.786616
2697.740102	-3.000300	2.818100	-8.454100	29.290575	1.747479E-5	20.776983
2698.761519	-2.977700	2.817100	-8.387100	29.267868	1.651772E-5	20.769272
2699.767158	-3.019300	2.812400	-8.490500	29.127751	2.024699E-5	20.785019
2700.756854	-2.981700	2.810500	-8.378800	29.118315	1.856387E-5	20.799693
2701.764472	-2.966600	2.808500	-8.330700	29.131714	1.922391E-5	20.785694
2702.760973	-3.003800	2.806200	-8.428400	29.142711	1.859687E-5	20.774015
2703.742261	-3.025000	2.801800	-8.475000	29.166857	1.757379E-5	20.778432
2704.759879	-2.977800	2.800300	-8.338200	29.161360	1.820084E-5	20.788066
2705.764191	-3.007300	2.798000	-8.413200	29.195609	1.889389E-5	20.790336
2706.745196	-3.009100	2.795100	-8.410000	29.211880	1.829985E-5	20.799620
2707.745759	-2.988800	2.792600	-8.345600	29.189122	1.945493E-5	20.786643
2708.767004	-3.003600	2.789400	-8.377400	29.154352	1.892689E-5	20.799970
2709.743146	-2.988400	2.788100	-8.329600	29.264577	1.744178E-5	20.797250
2710.748531	-2.975500	2.785200	-8.286200	29.313359	1.932292E-5	20.788092
2711.745781	-2.999400	2.779900	-8.337200	29.377367	1.707876E-5	20.786221
2712.744694	-2.975400	2.778900	-8.267300	29.442063	1.767280E-5	20.777461
2713.747154	-2.988300	2.776500	-8.295200	29.453081	1.882789E-5	20.785247
2714.744685	-3.003300	2.773600	-8.329200	29.451249	1.615469E-5	20.798100
2715.765787	-3.011800	2.768900	-8.338300	29.383458	1.915791E-5	20.794731
2716.750470	-2.970500	2.766900	-8.218200	29.309126	1.952094E-5	20.801369
2717.745839	-3.030800	2.762400	-8.371800	29.267971	1.998297E-5	20.786446
2718.746490	-3.005400	2.761600	-8.298100	29.304025	1.843186E-5	20.797651
2719.744111	-2.995300	2.758300	-8.260700	29.356866	2.070902E-5	20.773619
2720.761725	-3.026000	2.753700	-8.331600	29.385366	1.922391E-5	20.806610
2721.765950	-3.017500	2.751000	-8.300400	29.399850	2.123706E-5	20.812200
2722.745820	-2.991100	2.747900	-8.218400	29.388610	1.744178E-5	20.790440
2723.745932	-3.012900	2.744600	-8.268900	29.390442	1.886089E-5	20.798450
2724.747962	-2.995900	2.742400	-8.214700	29.325346	1.975195E-5	20.808233
2725.748869	-2.987600	2.738700	-8.180500	29.296399	1.777181E-5	20.795181
2726.750023	-2.984900	2.734400	-8.161400	29.257300	1.866287E-5	20.797977
2727.751334	-3.007600	2.730600	-8.212000	29.247593	1.905890E-5	20.809057
2728.750684	-2.993900	2.727700	-8.165400	29.235335	1.836585E-5	20.779634
2729.754248	-3.003800	2.724100	-8.181800	29.200368	1.952094E-5	20.801296
2730.773239	-2.999300	2.721900	-8.163300	29.304894	1.829985E-5	20.805638
2731.774409	-2.971400	2.718400	-8.076200	29.340129	1.829985E-5	20.811752
2732.771895	-2.962400	2.713800	-8.038800	29.416069	1.773881E-5	20.813849
2733.765592	-2.985400	2.710200	-8.090200	29.478090	1.793682E-5	20.832266
2734.753517	-2.981900	2.706900	-8.071000	29.460957	1.744178E-5	20.820213
2735.753023	-3.005100	2.703200	-8.122200	29.412578	1.734278E-5	20.793735
2736.767271	-3.019700	2.700000	-8.152100	29.492375	1.919091E-5	20.822010
2737.771212	-2.995200	2.695300	-8.071800	29.458655	1.697975E-5	20.816470
2738.769746	-3.003700	2.691500	-8.083200	29.423176	1.575866E-5	20.821960
2739.772290	-3.003800	2.687700	-8.072500	29.421344	1.952094E-5	20.815846
2740.776752	-2.980800	2.683000	-7.997200	29.463558	1.820084E-5	20.810506
2741.777496	-3.021800	2.678200	-8.092600	29.543771	1.872888E-5	20.821187
2742.781311	-2.981600	2.674600	-7.972700	29.552139	1.829985E-5	20.831993
2743.755652	-3.012300	2.670200	-8.042500	29.567537	1.945493E-5	20.821911
2744.760849	-2.970500	2.666200	-7.919100	29.574444	1.915791E-5	20.802795
2745.780865	-2.990700	2.661500	-7.958700	29.592070	1.820084E-5	20.797330
2746.776489	-3.012100	2.655700	-7.998400	29.674948	1.701275E-5	20.820190
2747.775950	-2.981400	2.652000	-7.905600	29.626802	1.952094E-5	20.843722
2748.783582	-3.004500	2.648100	-7.955000	29.653981	1.777181E-5	20.806165
2749.774995	-3.011700	2.643000	-7.958600	29.618905	1.810183E-5	20.826753
2750.774464	-3.000900	2.637900	-7.915200	29.545382	1.862987E-5	20.815224
2751.783114	-2.995200	2.633900	-7.887700	29.588085	2.051101E-5	20.824133
2752.759415	-3.012000	2.627500	-7.912900	29.637298	1.882789E-5	20.818743
2753.762320	-3.004300	2.623400	-7.880300	29.606405	1.915791E-5	20.832643
2754.760790	-2.988400	2.618300	-7.823300	29.551051	1.793682E-5	20.820939
2755.760332	-2.982100	2.614900	-7.796700	29.610514	1.925692E-5	20.844372
2756.761917	-3.021000	2.606200	-7.871600	29.655196	1.988396E-5	20.829674
2757.762249	-3.010500	2.602800	-7.834600	29.707351	1.925692E-5	20.826305
2758.761073	-2.977900	2.598800	-7.737400	29.770468	1.829985E-5	20.820715
2759.760884	-2.991300	2.592300	-7.753000	29.729231	1.688074E-5	20.825606
2760.762455	-3.006700	2.585400	-7.773200	29.613534	1.678173E-5	20.848365
2761.766556	-3.003600	2.580700	-7.750500	29.559742	1.648471E-5	20.832070
2762.761616	-2.999700	2.575200	-7.723600	29.582294	1.704575E-5	20.832994
2763.762042	-2.994000	2.570200	-7.694200	29.657029	1.810183E-5	20.823461
2764.765359	-2.985900	2.563200	-7.652600	29.753688	1.928992E-5	20.842203
2765.780848	-3.012100	2.557800	-7.702700	29.800516	1.829985E-5	20.836314
2766.786434	-3.010300	2.551000	-7.678200	29.865756	1.843186E-5	20.830973
2767.789278	-2.992900	2.546200	-7.618100	29.890628	2.097304E-5	20.841828
2768.780887	-2.955200	2.539900	-7.505000	29.838978	1.664973E-5	20.825783
2769.789125	-2.989500	2.534100	-7.573300	29.782894	1.704575E-5	20.851261
2770.785659	-3.003500	2.526000	-7.585700	29.759554	1.750779E-5	20.834841
2771.780141	-2.982000	2.520700	-7.515600	29.816010	1.882789E-5	20.830125
2772.787747	-3.010500	2.514500	-7.568500	29.909907	2.094004E-5	20.837562
2773.787619	-3.014500	2.506900	-7.556600	29.892336	2.024699E-5	20.834542
2774.779486	-3.025000	2.501400	-7.565700	29.877537	1.919091E-5	20.863714
2775.784802	-2.991000	2.496300	-7.464800	29.849175	2.107205E-5	20.847918
