LabVIEW Measurement	
Writer_Version	2
Reader_Version	2
Separator	Tab
Decimal_Separator	.
Multi_Headings	No
X_Columns	One
Time_Pref	Absolute
Operator	admin
Description	Clolumns are: time, Current, Voltage, Power, Battery Temp, and Chamber Temp
Date	2024/08/16
Time	13:07:17.8513970375061035156
***End_of_Header***	
	
Channels	6						
Samples	1	1	1	1	1	1	
Date	2024/09/09	2024/09/09	2024/09/09	2024/09/09	2024/09/09	2024/09/09	
Time	16:29:44.5376992225646972656	16:29:44.5417118072509765625	16:29:44.5467009544372558594	16:29:44.522739410400390625	16:29:44.522739410400390625	16:29:44.522739410400390625	
X_Dimension	Time	Time	Time	Time	Time	Time	
X0	0.0000000000000000E+0	0.0000000000000000E+0	0.0000000000000000E+0	0.0000000000000000E+0	0.0000000000000000E+0	0.0000000000000000E+0	
Delta_X	1.000000	1.000000	1.000000	1.000000	1.000000	1.000000	
***End_of_Header***							
X_Value	Untitled	Untitled 1	Untitled 2	Untitled 3	Untitled 4	Untitled 5	Comment
0.000000	0.021580	4.086500	0.088379	20.835245	0.000460	20.841409
1.001009	-3.003500	3.918800	-11.769000	20.834101	0.000461	20.831730
2.008502	-2.989900	3.913800	-11.701000	20.845557	0.000458	20.856462
3.006241	-3.003500	3.909800	-11.742000	20.844184	0.000461	20.852719
4.006326	-3.021400	3.906000	-11.800000	20.851475	0.000458	20.835354
5.001270	-3.010100	3.903800	-11.750000	20.850231	0.000460	20.841697
6.006075	-2.994500	3.901300	-11.682000	20.857197	0.000458	20.843447
7.004606	-2.975400	3.899400	-11.602000	20.865607	0.000461	20.846168
8.004400	-2.994200	3.897100	-11.668000	20.855554	0.000459	20.837062
9.006920	-2.992600	3.895100	-11.656000	20.882080	0.000455	20.821865
10.001309	-2.989100	3.892700	-11.634000	20.869432	0.000456	20.823441
11.003181	-2.996200	3.893600	-11.665000	20.898480	0.000456	20.815033
12.007327	-3.000000	3.889900	-11.669000	20.914004	0.000455	20.814438
13.004178	-2.991800	3.888600	-11.632000	20.883611	0.000454	20.819604
14.003697	-2.976400	3.887600	-11.570000	20.909516	0.000456	20.840295
15.007105	-3.014000	3.886200	-11.713000	20.914459	0.000455	20.832909
16.002883	-3.016400	3.885600	-11.720000	20.924792	0.000454	20.829020
17.005284	-2.988000	3.886200	-11.611000	20.918857	0.000454	20.806015
18.004720	-2.994800	3.884500	-11.632000	20.936600	0.000454	20.827079
19.004762	-3.013600	3.882400	-11.699000	20.939621	0.000453	20.829625
20.004870	-3.015300	3.882100	-11.705000	20.956765	0.000453	20.815952
21.004410	-3.009600	3.881700	-11.681000	20.946338	0.000452	20.814532
22.007775	-2.997300	3.880600	-11.631000	20.955147	0.000451	20.818601
23.006124	-2.990700	3.880400	-11.604000	20.965557	0.000452	20.810047
24.004335	-2.996600	3.879900	-11.625000	20.970794	0.000449	20.811966
25.011262	-2.996800	3.879900	-11.627000	20.992557	0.000450	20.808602
26.006007	-3.005800	3.878300	-11.656000	21.003312	0.000448	20.824574
27.007498	-2.996200	3.877000	-11.615000	21.013019	0.000448	20.807731
28.006705	-2.987100	3.877300	-11.580000	21.030138	0.000451	20.818689
29.007572	-2.982400	3.876800	-11.561000	21.036755	0.000449	20.826729
30.005076	-2.990500	3.876300	-11.591000	21.048358	0.000448	20.812257
31.005267	-3.008800	3.875900	-11.661000	21.040299	0.000448	20.815576
32.004332	-3.001300	3.875900	-11.632000	21.067226	0.000451	20.816430
33.003764	-3.002900	3.874500	-11.634000	21.043400	0.000448	20.803030
34.012916	-3.005700	3.874800	-11.645000	21.055080	0.000450	20.808549
35.004035	-2.993600	3.874500	-11.597000	21.067981	0.000449	20.811495
36.008192	-2.990500	3.874100	-11.584000	21.083800	0.000447	20.790335
37.015421	-3.004600	3.874000	-11.638000	21.101816	0.000448	20.799346
38.012620	-3.015700	3.873200	-11.679000	21.099700	0.000447	20.809083
39.010586	-3.019100	3.872800	-11.691000	21.095910	0.000451	20.791542
40.013810	-3.018900	3.872700	-11.689000	21.127424	0.000448	20.797934
41.007628	-3.014200	3.871800	-11.670000	21.119468	0.000448	20.801830
42.009128	-3.000100	3.872500	-11.617000	21.108565	0.000448	20.789502
43.012922	-2.981500	3.872000	-11.543000	21.136188	0.000445	20.790579
44.011448	-3.002600	3.871100	-11.622000	21.133421	0.000446	20.793501
45.015235	-2.984900	3.872000	-11.557000	21.149013	0.000446	20.810521
46.015491	-2.972900	3.870600	-11.506000	21.177109	0.000446	20.786469
47.016342	-3.006600	3.869700	-11.634000	21.173369	0.000447	20.805013
48.011167	-2.983100	3.870100	-11.544000	21.173099	0.000446	20.796208
49.021453	-3.005400	3.870100	-11.630000	21.182830	0.000446	20.790769
50.022893	-2.993100	3.869500	-11.581000	21.202815	0.000446	20.795113
51.015027	-3.000800	3.868800	-11.609000	21.201519	0.000445	20.794766
52.016334	-3.020600	3.867200	-11.680000	21.205215	0.000445	20.790402
53.015195	-3.014600	3.868300	-11.661000	21.217792	0.000446	20.796820
54.017762	-2.989800	3.866600	-11.559000	21.213126	0.000445	20.799265
55.019724	-3.040000	3.866000	-11.751000	21.254390	0.000446	20.779378
56.020987	-2.981900	3.868200	-11.534000	21.228825	0.000444	20.786995
57.018919	-2.995000	3.869100	-11.587000	21.257738	0.000445	20.776563
58.023933	-3.008900	3.866800	-11.634000	21.255544	0.000446	20.776265
59.018400	-3.007500	3.866100	-11.627000	21.267297	0.000444	20.797980
60.020306	-3.021800	3.865600	-11.681000	21.294064	0.000446	20.792516
61.017222	-3.018100	3.866100	-11.668000	21.304891	0.000443	20.794813
62.023208	-3.020100	3.866500	-11.676000	21.277404	0.000445	20.799557
63.027855	-3.001500	3.865800	-11.602000	21.304871	0.000442	20.785784
64.017196	-3.003700	3.865700	-11.609000	21.308316	0.000443	20.770264
65.022717	-2.981200	3.866000	-11.523000	21.310862	0.000443	20.781820
66.022670	-2.991000	3.865900	-11.562000	21.324556	0.000443	20.789831
67.021522	-2.979600	3.866600	-11.520000	21.352821	0.000443	20.772590
68.023417	-3.000300	3.865800	-11.597000	21.346911	0.000444	20.766203
69.023190	-3.013300	3.865200	-11.646000	21.355742	0.000445	20.784047
70.021856	-2.985800	3.864700	-11.539000	21.362380	0.000443	20.776938
71.023791	-2.988200	3.864300	-11.546000	21.381089	0.000443	20.768155
72.026413	-2.987000	3.864700	-11.542000	21.368717	0.000445	20.781382
73.023326	-2.977700	3.865200	-11.508000	21.387875	0.000445	20.783954
74.020723	-2.979900	3.864800	-11.515000	21.406484	0.000443	20.768907
75.022505	-2.996600	3.863700	-11.577000	21.396086	0.000444	20.774151
76.020478	-2.972000	3.864600	-11.484000	21.401624	0.000447	20.774002
77.024006	-2.993100	3.862600	-11.560000	21.411978	0.000445	20.765869
78.027177	-2.982800	3.863600	-11.523000	21.432309	0.000444	20.768193
79.022498	-2.975100	3.863900	-11.494000	21.434081	0.000445	20.751948
80.025372	-3.002500	3.862200	-11.595000	21.432485	0.000447	20.757938
81.021467	-3.003200	3.861900	-11.597000	21.439547	0.000444	20.758840
82.028434	-3.009600	3.862500	-11.623000	21.460974	0.000445	20.753252
83.025461	-2.997900	3.864000	-11.583000	21.450725	0.000445	20.786146
84.025430	-3.000000	3.863800	-11.590000	21.492729	0.000446	20.774595
85.029091	-3.010500	3.862400	-11.627000	21.480786	0.000445	20.751264
86.039313	-3.001700	3.862300	-11.593000	21.497446	0.000447	20.737588
87.029610	-3.013000	3.861000	-11.632000	21.519219	0.000445	20.755107
88.028614	-3.011800	3.861100	-11.628000	21.525657	0.000448	20.771982
89.028688	-3.007000	3.860900	-11.608000	21.547085	0.000445	20.754542
90.030061	-2.986500	3.860600	-11.529000	21.538280	0.000445	20.765647
91.029973	-2.999500	3.860900	-11.580000	21.548531	0.000447	20.758835
92.027047	-3.015400	3.859700	-11.638000	21.535294	0.000444	20.760762
93.030417	-3.008100	3.859400	-11.609000	21.554719	0.000445	20.754121
94.029896	-3.025200	3.858100	-11.670000	21.544151	0.000447	20.753503
95.031778	-3.012400	3.860000	-11.626000	21.569844	0.000446	20.745073
96.027490	-2.997300	3.860400	-11.569000	21.590119	0.000448	20.763941
97.030512	-3.013200	3.860000	-11.630000	21.593739	0.000446	20.750019
98.034340	-2.991900	3.858400	-11.543000	21.604365	0.000445	20.761126
99.030824	-3.000000	3.860400	-11.580000	21.602175	0.000447	20.757512
100.032923	-2.964200	3.860700	-11.444000	21.595318	0.000444	20.755866
101.031582	-2.995300	3.858900	-11.557000	21.616445	0.000446	20.786966
102.037027	-2.982200	3.859500	-11.509000	21.623332	0.000447	20.726526
103.031383	-2.999900	3.858700	-11.573000	21.652488	0.000449	20.764239
104.035429	-2.985300	3.860300	-11.523000	21.656179	0.000445	20.731896
105.031782	-3.006200	3.857300	-11.594000	21.674164	0.000449	20.745629
106.031640	-3.007600	3.857700	-11.602000	21.685213	0.000448	20.754790
107.035398	-3.005900	3.858400	-11.597000	21.677236	0.000448	20.726416
108.031829	-3.017500	3.857800	-11.640000	21.699058	0.000452	20.742566
109.031868	-2.996700	3.858600	-11.562000	21.699782	0.000450	20.759887
110.035221	-2.993600	3.856700	-11.545000	21.688092	0.000450	20.725901
111.033264	-2.986700	3.858200	-11.521000	21.713032	0.000451	20.766035
112.032232	-3.030300	3.855600	-11.682000	21.697475	0.000450	20.758052
113.032601	-3.007700	3.857400	-11.601000	21.700023	0.000450	20.736894
114.033867	-3.001700	3.858200	-11.580000	21.712143	0.000452	20.755188
115.033422	-3.006400	3.856800	-11.594000	21.733636	0.000450	20.761526
116.037554	-2.984400	3.857900	-11.512000	21.713994	0.000451	20.743290
117.037729	-2.983300	3.857700	-11.507000	21.712000	0.000452	20.748881
118.034637	-2.989500	3.855500	-11.525000	21.741228	0.000450	20.728345
119.035752	-2.999100	3.855000	-11.560000	21.739887	0.000451	20.735064
120.037662	-2.983700	3.856300	-11.504000	21.749988	0.000451	20.735216
121.038790	-3.008900	3.854000	-11.595000	21.777199	0.000452	20.743010
122.039441	-3.009100	3.855100	-11.600000	21.763309	0.000454	20.764670
123.037219	-3.006800	3.856200	-11.593000	21.785878	0.000454	20.736049
124.043089	-3.007400	3.854200	-11.590000	21.806032	0.000453	20.761437
125.042193	-2.977300	3.855100	-11.477000	21.833883	0.000454	20.742846
126.037837	-2.993500	3.855700	-11.541000	21.810503	0.000451	20.731298
127.043979	-2.996800	3.855500	-11.554000	21.828604	0.000452	20.749416
128.038589	-3.008800	3.854400	-11.596000	21.836314	0.000451	20.765193
129.046432	-3.000900	3.855700	-11.570000	21.835075	0.000454	20.750677
130.041886	-3.026000	3.852400	-11.655000	21.833905	0.000454	20.734806
131.041803	-2.983000	3.855300	-11.499000	21.861606	0.000454	20.740722
132.041775	-2.988300	3.853500	-11.515000	21.833985	0.000456	20.741050
133.045436	-3.010900	3.854400	-11.604000	21.855758	0.000455	20.731074
134.045411	-3.005200	3.855000	-11.584000	21.857779	0.000454	20.738314
135.045169	-3.012400	3.853100	-11.606000	21.862594	0.000457	20.743607
136.044216	-2.990100	3.853500	-11.521000	21.891072	0.000456	20.745560
137.047928	-2.977400	3.854200	-11.475000	21.887911	0.000458	20.745714
138.049155	-3.012400	3.852200	-11.603000	21.897664	0.000455	20.751683
139.046432	-2.991200	3.854500	-11.528000	21.928082	0.000455	20.735190
140.054383	-2.992300	3.853600	-11.531000	21.904825	0.000458	20.756481
141.046254	-3.007800	3.853000	-11.588000	21.931454	0.000457	20.741884
142.047061	-3.004200	3.852100	-11.572000	21.914231	0.000458	20.749300
143.050129	-2.997600	3.852700	-11.548000	21.947194	0.000458	20.734880
144.050941	-3.019500	3.851700	-11.629000	21.929695	0.000458	20.757194
145.049092	-2.990500	3.851300	-11.516000	21.966045	0.000458	20.746164
146.053632	-3.012800	3.851700	-11.602000	21.974874	0.000460	20.749313
147.049083	-2.974600	3.853300	-11.461000	21.964283	0.000461	20.742504
148.049309	-2.982200	3.851300	-11.485000	21.973484	0.000464	20.754560
149.049216	-3.016900	3.851100	-11.618000	21.980918	0.000459	20.754414
150.047987	-2.993500	3.851800	-11.529000	22.010631	0.000462	20.757132
151.050424	-2.999000	3.852300	-11.552000	22.011309	0.000460	20.739318
152.049099	-3.001000	3.851500	-11.557000	22.020485	0.000461	20.745659
153.049300	-3.000700	3.850200	-11.552000	22.016049	0.000460	20.725570
154.050887	-2.993700	3.850800	-11.527000	22.037540	0.000461	20.748507
155.050307	-2.985200	3.850100	-11.493000	22.048755	0.000462	20.737449
156.051606	-2.976900	3.850700	-11.462000	22.059082	0.000462	20.761065
157.045867	-3.009600	3.848800	-11.582000	22.037397	0.000461	20.759745
158.050874	-2.999700	3.849800	-11.547000	22.055944	0.000461	20.723782
159.048331	-2.993900	3.849800	-11.525000	22.056396	0.000462	20.737037
160.050838	-2.988200	3.848400	-11.499000	22.055872	0.000462	20.745049
161.050729	-3.009400	3.848800	-11.581000	22.074195	0.000462	20.739684
162.054761	-3.006300	3.848300	-11.568000	22.084173	0.000462	20.739715
163.052202	-3.002400	3.848500	-11.553000	22.079436	0.000461	20.746354
164.053300	-3.015000	3.848100	-11.601000	22.077369	0.000462	20.754241
165.054361	-2.994100	3.849500	-11.525000	22.076898	0.000463	20.752822
166.057353	-3.018500	3.847500	-11.612000	22.072239	0.000464	20.747209
167.054992	-3.007800	3.849200	-11.576000	22.126681	0.000466	20.774686
168.053798	-2.985300	3.849000	-11.489000	22.126210	0.000466	20.742446
169.057484	-2.991500	3.848400	-11.512000	22.149045	0.000464	20.733065
170.054372	-3.004600	3.846100	-11.555000	22.148872	0.000465	20.750436
171.054421	-2.993200	3.847900	-11.517000	22.152887	0.000467	20.750662
172.055656	-2.977500	3.847300	-11.454000	22.147557	0.000467	20.750067
173.061915	-2.984300	3.847500	-11.481000	22.180262	0.000467	20.749147
174.050132	-3.019000	3.846400	-11.611000	22.176749	0.000467	20.757009
175.058088	-2.980100	3.846100	-11.461000	22.208956	0.000467	20.747055
176.054957	-2.998600	3.846600	-11.533000	22.222770	0.000466	20.773215
177.055387	-2.978400	3.846600	-11.456000	22.229322	0.000469	20.754645
178.055606	-2.984300	3.846700	-11.479000	22.220575	0.000466	20.761534
179.056367	-2.997100	3.846100	-11.526000	22.209838	0.000470	20.759793
180.058150	-3.003700	3.845100	-11.549000	22.217716	0.000472	20.747291
181.051304	-3.000700	3.846000	-11.540000	22.264523	0.000470	20.750536
182.056519	-2.999800	3.845700	-11.535000	22.242768	0.000472	20.761944
183.052010	-2.989700	3.845100	-11.494000	22.256504	0.000472	20.777120
184.054606	-2.993100	3.844000	-11.504000	22.253193	0.000471	20.771434
185.056793	-2.993500	3.845800	-11.512000	22.251097	0.000472	20.758430
186.057557	-2.994300	3.844300	-11.510000	22.230091	0.000475	20.753518
187.055657	-3.007100	3.843800	-11.557000	22.267452	0.000473	20.746830
188.055172	-3.021900	3.843900	-11.615000	22.250584	0.000474	20.773089
189.057002	-2.993700	3.845600	-11.512000	22.257189	0.000476	20.762633
190.055270	-3.016400	3.843200	-11.592000	22.294355	0.000475	20.764759
191.055432	-3.018100	3.843500	-11.599000	22.317604	0.000477	20.744890
192.053822	-3.006200	3.841800	-11.548000	22.327601	0.000476	20.767703
193.061813	-3.018500	3.843100	-11.600000	22.308910	0.000475	20.754203
194.057685	-2.982800	3.842400	-11.460000	22.308613	0.000476	20.756751
195.055509	-3.013900	3.841800	-11.578000	22.331862	0.000477	20.765806
196.058673	-3.006000	3.842800	-11.551000	22.330968	0.000478	20.759221
197.057502	-3.002800	3.843100	-11.539000	22.349113	0.000479	20.785926
198.058872	-2.976900	3.844400	-11.443000	22.357336	0.000478	20.759546
199.057390	-2.993800	3.841800	-11.501000	22.381609	0.000480	20.776266
200.057281	-2.990800	3.842000	-11.488000	22.404813	0.000479	20.771528
201.057198	-2.999900	3.842500	-11.526000	22.390407	0.000478	20.768007
202.059631	-3.008400	3.841700	-11.556000	22.384973	0.000478	20.781057
203.057309	-3.011400	3.839800	-11.562000	22.398506	0.000480	20.767582
204.057533	-2.978500	3.841900	-11.443000	22.410715	0.000481	20.770799
205.059417	-3.002900	3.840400	-11.531000	22.420630	0.000481	20.770297
206.053852	-2.987100	3.840500	-11.471000	22.450084	0.000483	20.785569
207.060202	-2.991000	3.839200	-11.482000	22.429174	0.000483	20.784069
208.059473	-2.993800	3.840000	-11.496000	22.458628	0.000481	20.772788
209.058301	-2.995500	3.839100	-11.499000	22.453865	0.000482	20.774183
210.060283	-2.971300	3.840400	-11.410000	22.476192	0.000484	20.771886
211.057287	-3.023400	3.838800	-11.605000	22.478015	0.000486	20.786040
212.059282	-2.990500	3.839300	-11.481000	22.492089	0.000484	20.752718
213.056695	-2.973700	3.839800	-11.417000	22.499212	0.000483	20.788302
214.059582	-2.978900	3.838400	-11.433000	22.502272	0.000484	20.784728
215.057669	-2.994900	3.837200	-11.492000	22.521659	0.000487	20.768582
216.060427	-2.999300	3.838000	-11.510000	22.527761	0.000485	20.777064
217.060767	-2.979600	3.837700	-11.434000	22.515278	0.000486	20.799650
218.057914	-2.976600	3.838100	-11.423000	22.515918	0.000486	20.778006
219.060181	-2.987700	3.837500	-11.464000	22.506697	0.000487	20.767822
220.060811	-2.986000	3.837900	-11.459000	22.544423	0.000488	20.801339
221.062250	-2.994200	3.838000	-11.491000	22.540982	0.000488	20.791729
222.056026	-3.000000	3.838400	-11.515000	22.526649	0.000488	20.796340
223.059542	-2.993300	3.836500	-11.483000	22.562255	0.000487	20.787904
224.058412	-2.991000	3.836700	-11.475000	22.572438	0.000489	20.781033
225.061918	-2.978100	3.837600	-11.427000	22.545503	0.000486	20.819015
226.065001	-2.977500	3.836400	-11.421000	22.566330	0.000489	20.792934
227.066683	-2.988500	3.835800	-11.463000	22.597872	0.000489	20.790860
228.059361	-3.028100	3.835000	-11.612000	22.610051	0.000490	20.813015
229.063511	-2.988500	3.835900	-11.462000	22.631802	0.000492	20.801137
230.066606	-2.977700	3.836200	-11.422000	22.624497	0.000491	20.798087
231.064319	-3.008800	3.834900	-11.537000	22.634933	0.000490	20.792893
232.062377	-3.005500	3.835500	-11.527000	22.633612	0.000491	20.786354
233.060406	-3.008000	3.835000	-11.535000	22.636920	0.000491	20.793934
234.066431	-2.990900	3.835300	-11.469000	22.636740	0.000493	20.809401
235.063399	-2.993000	3.835100	-11.478000	22.651316	0.000491	20.810724
236.062114	-2.991700	3.835200	-11.473000	22.651910	0.000495	20.813216
237.062103	-3.001900	3.832900	-11.505000	22.689424	0.000492	20.813808
238.066525	-2.995200	3.834400	-11.484000	22.705964	0.000493	20.821840
239.062265	-3.026700	3.832800	-11.600000	22.717251	0.000492	20.804223
240.064381	-3.014500	3.833000	-11.553000	22.719911	0.000493	20.822534
241.066435	-3.010300	3.833300	-11.539000	22.701648	0.000494	20.803293
242.067742	-3.000100	3.834900	-11.504000	22.680019	0.000491	20.823827
243.067968	-2.996400	3.833400	-11.485000	22.692472	0.000492	20.829662
244.066058	-2.981100	3.832700	-11.425000	22.694016	0.000492	20.813665
245.063393	-3.009500	3.831900	-11.531000	22.718352	0.000493	20.835671
246.065203	-3.007600	3.833500	-11.529000	22.698496	0.000492	20.821471
247.068787	-3.002900	3.832200	-11.506000	22.725223	0.000493	20.798458
248.065004	-2.981300	3.832000	-11.423000	22.731677	0.000493	20.814406
249.067359	-3.008700	3.830100	-11.522000	22.755490	0.000493	20.835414
250.068451	-2.976000	3.831100	-11.400000	22.753869	0.000494	20.837109
251.065914	-2.974100	3.832400	-11.397000	22.774222	0.000493	20.832367
252.070455	-2.996700	3.832600	-11.485000	22.785455	0.000493	20.835085
253.069013	-3.009000	3.831500	-11.528000	22.804311	0.000492	20.816042
254.068939	-3.011600	3.829900	-11.533000	22.814996	0.000492	20.838125
255.080394	-3.006100	3.830700	-11.514000	22.808197	0.000491	20.834633
256.068496	-2.997600	3.830500	-11.481000	22.822520	0.000492	20.824326
257.070373	-2.995100	3.830600	-11.472000	22.821947	0.000492	20.831339
258.075462	-2.992500	3.830000	-11.461000	22.844688	0.000491	20.833257
259.067923	-3.003300	3.829200	-11.500000	22.840502	0.000492	20.840443
260.069723	-3.011900	3.829700	-11.534000	22.832382	0.000491	20.837524
261.071547	-3.023500	3.829100	-11.575000	22.841251	0.000493	20.815590
262.070303	-3.004700	3.829300	-11.505000	22.867481	0.000491	20.818633
263.071864	-2.992500	3.829000	-11.457000	22.869553	0.000493	20.847735
264.071365	-2.982200	3.827500	-11.413000	22.871694	0.000493	20.848931
265.073858	-2.986900	3.828500	-11.434000	22.876773	0.000493	20.829364
266.072771	-2.989100	3.827600	-11.440000	22.886712	0.000494	20.841692
267.069637	-2.996900	3.827700	-11.470000	22.904524	0.000493	20.841044
268.072257	-2.988400	3.827000	-11.435000	22.904255	0.000495	20.832240
269.073940	-2.972000	3.827300	-11.374000	22.915663	0.000494	20.839876
270.072162	-2.989200	3.827200	-11.439000	22.909238	0.000497	20.839603
271.068325	-2.979100	3.828100	-11.402000	22.911530	0.000494	20.825305
272.072134	-2.974600	3.826700	-11.382000	22.913448	0.000493	20.849036
273.067986	-2.981600	3.826300	-11.408000	22.937835	0.000495	20.851184
274.075131	-3.016200	3.825700	-11.538000	22.987456	0.000498	20.831673
275.079728	-2.985800	3.825900	-11.422000	22.979039	0.000495	20.847422
276.073547	-2.993800	3.825500	-11.452000	22.977196	0.000496	20.835144
277.077169	-2.997900	3.825700	-11.468000	22.985594	0.000497	20.864419
278.075933	-3.005500	3.824400	-11.493000	22.958993	0.000496	20.842984
279.074513	-3.003100	3.825600	-11.487000	22.945822	0.000496	20.855866
280.074380	-3.018700	3.823600	-11.541000	22.990855	0.000497	20.851674
281.076104	-2.981700	3.826300	-11.408000	22.957653	0.000497	20.835953
282.072887	-2.997400	3.823700	-11.460000	22.966896	0.000499	20.855643
283.079277	-3.007500	3.823300	-11.498000	22.980948	0.000498	20.855498
284.075579	-3.003900	3.824500	-11.487000	22.946351	0.000496	20.848810
285.078747	-2.987100	3.824500	-11.423000	22.967125	0.000499	20.866778
286.083833	-3.022300	3.822300	-11.551000	22.967728	0.000499	20.847469
287.076839	-3.031900	3.822900	-11.589000	22.984217	0.000497	20.845024
288.083389	-3.007000	3.822300	-11.493000	23.027161	0.000501	20.833049
289.083147	-3.004300	3.823300	-11.485000	23.043897	0.000501	20.857878
290.078261	-3.021100	3.822300	-11.547000	23.039592	0.000501	20.831280
291.076533	-3.010000	3.821300	-11.501000	23.065993	0.000502	20.853939
292.083724	-3.025900	3.822000	-11.564000	23.049112	0.000503	20.857413
293.079662	-2.988400	3.822400	-11.422000	23.063930	0.000504	20.849027
294.081277	-2.990000	3.821600	-11.426000	23.083455	0.000504	20.845832
295.077932	-3.017800	3.822000	-11.533000	23.118599	0.000506	20.857813
296.082098	-2.993500	3.821100	-11.438000	23.131399	0.000504	20.848829
297.079423	-3.007500	3.820500	-11.489000	23.116582	0.000506	20.852473
298.089319	-2.978900	3.822400	-11.386000	23.089437	0.000505	20.865576
299.079177	-2.990900	3.821200	-11.428000	23.095165	0.000507	20.856617
300.080081	-3.008800	3.818400	-11.487000	23.102015	0.000507	20.845464
301.082911	-2.983200	3.820900	-11.397000	23.116660	0.000508	20.866775
302.083443	-2.998200	3.819700	-11.451000	23.122041	0.000510	20.879753
303.082669	-2.988600	3.820500	-11.417000	23.137879	0.000509	20.870968
304.078103	-3.003200	3.819000	-11.468000	23.134492	0.000510	20.856195
305.082645	-2.991600	3.820500	-11.429000	23.161188	0.000509	20.853549
306.080321	-2.978600	3.820200	-11.378000	23.180164	0.000509	20.869245
307.084238	-2.981500	3.819700	-11.387000	23.187512	0.000511	20.876133
308.085258	-3.001300	3.819400	-11.462000	23.184073	0.000510	20.859412
309.090051	-3.006600	3.817500	-11.476000	23.180260	0.000512	20.877875
310.084669	-3.026100	3.817400	-11.550000	23.199835	0.000511	20.854819
311.085723	-2.997200	3.817500	-11.441000	23.247920	0.000514	20.841841
312.085682	-3.021300	3.817100	-11.532000	23.235071	0.000514	20.876852
313.082791	-2.985900	3.818000	-11.400000	23.203293	0.000513	20.848327
314.091216	-3.017200	3.816700	-11.515000	23.212409	0.000516	20.853196
315.083420	-2.994900	3.817700	-11.433000	23.225927	0.000513	20.852991
316.092587	-3.003400	3.816500	-11.461000	23.219878	0.000515	20.850248
317.094335	-2.997300	3.815700	-11.436000	23.211633	0.000515	20.855262
318.088791	-2.985600	3.816700	-11.394000	23.214469	0.000513	20.878491
319.089625	-2.984400	3.815100	-11.385000	23.224853	0.000515	20.864717
320.093510	-2.980900	3.816900	-11.377000	23.258171	0.000515	20.878665
321.084992	-3.018900	3.817000	-11.522000	23.283568	0.000515	20.878987
322.090677	-3.002800	3.815100	-11.455000	23.278490	0.000516	20.871528
323.090981	-3.007500	3.815500	-11.475000	23.279733	0.000518	20.867084
324.087212	-2.985100	3.814600	-11.387000	23.307573	0.000518	20.870803
325.092619	-2.986600	3.816100	-11.396000	23.331451	0.000517	20.888095
326.097279	-3.013200	3.812900	-11.488000	23.314020	0.000518	20.864937
327.091641	-3.003500	3.813600	-11.453000	23.316485	0.000518	20.884475
328.091269	-3.010200	3.813600	-11.479000	23.308841	0.000519	20.888668
329.093574	-3.009700	3.812900	-11.475000	23.305575	0.000518	20.880654
330.096659	-3.021100	3.813700	-11.521000	23.318473	0.000519	20.882675
331.093974	-3.001700	3.812400	-11.443000	23.307814	0.000519	20.878631
332.091373	-2.989700	3.813800	-11.401000	23.304675	0.000520	20.880227
333.093390	-3.014900	3.812800	-11.495000	23.329898	0.000520	20.895547
334.096357	-3.017600	3.812200	-11.503000	23.308228	0.000520	20.875253
335.093754	-2.985100	3.813000	-11.381000	23.340674	0.000521	20.885959
336.091443	-2.991200	3.812200	-11.402000	23.347078	0.000519	20.912290
337.097198	-2.990400	3.811600	-11.397000	23.375633	0.000520	20.910564
338.092479	-3.004600	3.811000	-11.449000	23.373540	0.000519	20.895191
339.097757	-2.986500	3.811600	-11.382000	23.343411	0.000520	20.888702
340.093989	-3.004300	3.811100	-11.449000	23.347820	0.000519	20.900232
341.096952	-2.986700	3.810000	-11.378000	23.373861	0.000520	20.890298
342.097837	-2.977900	3.811000	-11.348000	23.368982	0.000521	20.911958
343.099715	-2.997500	3.810600	-11.421000	23.370451	0.000522	20.891147
344.095245	-2.984600	3.810000	-11.371000	23.406952	0.000522	20.906393
345.096482	-2.992700	3.809300	-11.399000	23.374461	0.000522	20.924086
346.097673	-3.009000	3.810100	-11.464000	23.414320	0.000522	20.899080
347.096698	-3.002100	3.810100	-11.436000	23.402790	0.000523	20.902696
348.097229	-2.978600	3.809600	-11.346000	23.451165	0.000525	20.902820
349.098570	-2.984400	3.808100	-11.365000	23.468019	0.000524	20.906910
350.098970	-3.011200	3.809200	-11.469000	23.450467	0.000524	20.895008
351.096778	-3.015600	3.807300	-11.481000	23.448698	0.000523	20.899873
352.105267	-3.007700	3.808900	-11.455000	23.432336	0.000525	20.922825
353.097207	-2.990700	3.808300	-11.388000	23.425939	0.000525	20.909776
354.098835	-3.015400	3.806700	-11.477000	23.436717	0.000525	20.890710
355.099917	-3.010600	3.808300	-11.465000	23.454916	0.000523	20.907053
356.102077	-3.010800	3.805500	-11.457000	23.444107	0.000524	20.890530
357.097639	-2.993000	3.807200	-11.394000	23.442784	0.000525	20.892997
358.099309	-3.006000	3.806100	-11.440000	23.474280	0.000524	20.915082
359.112507	-2.984500	3.807700	-11.363000	23.486529	0.000525	20.893697
360.099647	-3.007000	3.806600	-11.446000	23.506071	0.000524	20.901432
361.102213	-2.990900	3.806100	-11.383000	23.480500	0.000523	20.895714
362.100375	-3.003800	3.806600	-11.434000	23.533525	0.000524	20.878693
363.097946	-2.983900	3.804800	-11.352000	23.555036	0.000524	20.884134
364.100966	-3.006700	3.804900	-11.439000	23.533825	0.000525	20.892743
365.104266	-2.997300	3.804600	-11.402000	23.519560	0.000527	20.891720
366.101660	-2.982600	3.805200	-11.348000	23.508381	0.000526	20.886204
367.104424	-2.978300	3.805000	-11.332000	23.510174	0.000527	20.879941
368.111411	-3.008700	3.804500	-11.445000	23.522049	0.000527	20.891370
369.103938	-2.977000	3.805800	-11.328000	23.515127	0.000528	20.903396
370.105604	-2.989500	3.803900	-11.371000	23.576315	0.000525	20.874646
371.108209	-2.992200	3.803800	-11.381000	23.584257	0.000528	20.881658
372.107293	-3.000400	3.803000	-11.409000	23.571981	0.000528	20.870301
373.102825	-3.020100	3.802200	-11.482000	23.573226	0.000528	20.887670
374.104523	-3.009500	3.802100	-11.440000	23.588260	0.000529	20.892309
375.105139	-3.020300	3.802400	-11.483000	23.595055	0.000527	20.887267
376.107485	-2.999600	3.801400	-11.402000	23.568966	0.000529	20.883400
377.107794	-3.001500	3.801500	-11.410000	23.584374	0.000528	20.880354
378.107738	-3.004500	3.801800	-11.422000	23.554226	0.000528	20.874314
379.107970	-3.021500	3.800200	-11.481000	23.560623	0.000529	20.870769
380.105805	-2.986800	3.801800	-11.354000	23.561043	0.000531	20.880673
381.112108	-2.970800	3.802700	-11.296000	23.572744	0.000531	20.896195
382.112337	-2.984800	3.800200	-11.341000	23.596666	0.000530	20.880348
383.111959	-3.009100	3.800200	-11.434000	23.594799	0.000528	20.876580
384.107806	-2.979600	3.799200	-11.318000	23.628627	0.000532	20.898163
385.108900	-2.983300	3.800200	-11.336000	23.643861	0.000531	20.881668
386.110222	-2.984000	3.799200	-11.337000	23.654415	0.000532	20.872334
387.109676	-2.992900	3.799100	-11.369000	23.636016	0.000532	20.902250
388.108038	-2.991200	3.799400	-11.364000	23.645923	0.000532	20.890372
389.108340	-2.990600	3.798700	-11.360000	23.621799	0.000529	20.889895
390.110932	-2.991700	3.798700	-11.364000	23.616945	0.000531	20.872229
391.107638	-3.009500	3.797800	-11.428000	23.650996	0.000530	20.876019
392.110438	-3.004200	3.797800	-11.408000	23.635688	0.000530	20.867785
393.114213	-2.983900	3.798600	-11.334000	23.652362	0.000531	20.869803
394.109150	-3.003800	3.796600	-11.402000	23.670953	0.000531	20.861414
395.109246	-3.019400	3.795500	-11.459000	23.676681	0.000533	20.868105
396.110881	-2.990300	3.796600	-11.352000	23.674162	0.000531	20.864157
397.116023	-3.020600	3.795800	-11.465000	23.696066	0.000531	20.875684
398.110445	-3.022100	3.796800	-11.473000	23.709633	0.000533	20.873639
399.110361	-3.001400	3.796100	-11.392000	23.698431	0.000534	20.868099
400.105606	-2.988200	3.797300	-11.346000	23.709580	0.000530	20.876905
401.109290	-3.006000	3.796300	-11.411000	23.685309	0.000535	20.861108
402.117874	-2.993500	3.796700	-11.365000	23.718615	0.000533	20.865102
403.112053	-3.007300	3.793800	-11.408000	23.712118	0.000532	20.873286
404.112300	-3.014600	3.793400	-11.435000	23.752864	0.000534	20.859611
405.114094	-2.994500	3.794100	-11.359000	23.753111	0.000533	20.846109
406.114421	-2.990400	3.794100	-11.345000	23.739322	0.000533	20.860259
407.117536	-3.004400	3.795100	-11.401000	23.722618	0.000535	20.855365
408.115568	-2.975600	3.794400	-11.290000	23.733993	0.000535	20.849227
409.116438	-2.977200	3.794100	-11.294000	23.756020	0.000536	20.839543
410.119917	-3.009000	3.794000	-11.415000	23.724031	0.000535	20.842558
411.114089	-2.999700	3.793900	-11.380000	23.754125	0.000535	20.876996
412.116165	-3.015700	3.793900	-11.440000	23.762440	0.000534	20.860677
413.119684	-3.004900	3.793100	-11.397000	23.781477	0.000535	20.852738
414.128367	-2.988500	3.792500	-11.332000	23.770152	0.000535	20.832849
415.116272	-3.007500	3.793000	-11.407000	23.746976	0.000537	20.855604
416.119288	-2.990800	3.792300	-11.341000	23.732513	0.000537	20.855803
417.123956	-2.990600	3.793100	-11.343000	23.746454	0.000535	20.850339
418.116547	-2.986100	3.791800	-11.321000	23.765441	0.000536	20.862738
419.122126	-3.008300	3.790600	-11.403000	23.789581	0.000537	20.861338
420.121376	-3.003600	3.791100	-11.385000	23.773530	0.000536	20.873693
421.119742	-3.002300	3.790500	-11.379000	23.774124	0.000537	20.847263
422.139666	-2.995900	3.789400	-11.351000	23.793488	0.000537	20.842971
423.126924	-2.992200	3.790200	-11.340000	23.787165	0.000537	20.820509
424.120479	-2.992200	3.791000	-11.343000	23.796746	0.000536	20.845763
425.121775	-3.017700	3.788800	-11.433000	23.796996	0.000538	20.839850
426.122397	-2.987600	3.788400	-11.318000	23.795349	0.000538	20.840095
427.127433	-2.997800	3.790200	-11.361000	23.822626	0.000536	20.838047
428.125974	-2.987500	3.788400	-11.317000	23.828001	0.000538	20.833953
429.126868	-2.989400	3.789200	-11.326000	23.815706	0.000537	20.851496
430.127200	-2.989700	3.789000	-11.327000	23.798032	0.000536	20.849423
431.121692	-3.000600	3.787900	-11.365000	23.799825	0.000536	20.861651
432.133443	-3.002100	3.786900	-11.367000	23.839495	0.000537	20.843582
433.133718	-3.012800	3.786800	-11.407000	23.870600	0.000539	20.836364
434.128185	-3.015800	3.787000	-11.420000	23.886782	0.000539	20.841211
435.124577	-2.993800	3.786500	-11.335000	23.884934	0.000537	20.849315
436.130311	-3.018900	3.786400	-11.430000	23.867540	0.000539	20.864115
437.131104	-3.020800	3.786200	-11.436000	23.862187	0.000540	20.839783
438.126928	-3.011100	3.786700	-11.401000	23.889611	0.000540	20.829349
439.134366	-2.990800	3.786100	-11.322000	23.900635	0.000541	20.829023
440.126677	-3.019400	3.784500	-11.426000	23.922506	0.000539	20.848110
441.130878	-2.993300	3.786400	-11.333000	23.895131	0.000541	20.828720
442.135262	-2.982100	3.785400	-11.288000	23.878256	0.000540	20.835032
443.133344	-2.960500	3.785900	-11.207000	23.868570	0.000539	20.837648
444.133461	-2.992700	3.785000	-11.326000	23.935413	0.000540	20.844457
445.140082	-2.988000	3.784500	-11.307000	23.955071	0.000540	20.836195
446.130986	-3.000600	3.784100	-11.353000	23.964750	0.000537	20.827410
447.133426	-3.010600	3.783000	-11.388000	23.969698	0.000540	20.835690
448.134424	-2.997400	3.782200	-11.336000	24.008791	0.000540	20.835539
449.131610	-2.987200	3.783500	-11.301000	24.019665	0.000543	20.846444
450.134522	-3.014200	3.782600	-11.401000	24.012221	0.000541	20.838031
451.134106	-2.992300	3.783400	-11.320000	24.045166	0.000540	20.833137
452.133561	-2.998700	3.782200	-11.341000	24.045110	0.000540	20.849203
453.131466	-2.990300	3.782000	-11.308000	24.044440	0.000540	20.824349
454.135148	-2.976900	3.783700	-11.263000	24.034156	0.000543	20.829209
455.131967	-2.993400	3.781300	-11.317000	24.023730	0.000541	20.848149
456.135508	-2.985000	3.781400	-11.286000	24.029574	0.000543	20.823665
457.134179	-2.987500	3.780300	-11.292000	24.007349	0.000544	20.828404
458.132930	-2.996500	3.781300	-11.329000	24.002717	0.000542	20.823284
459.134638	-2.988400	3.781100	-11.298000	23.984225	0.000543	20.830818
460.134213	-2.973300	3.781200	-11.241000	24.006868	0.000542	20.853524
461.132262	-2.998100	3.780600	-11.333000	24.008234	0.000542	20.836403
462.132283	-2.998700	3.780500	-11.336000	24.052303	0.000542	20.835080
463.144106	-3.011100	3.779000	-11.377000	24.055681	0.000545	20.842261
464.134314	-2.980500	3.779900	-11.265000	24.074417	0.000543	20.830705
465.137641	-2.997600	3.780400	-11.331000	24.032410	0.000542	20.835992
466.138748	-3.007300	3.779000	-11.363000	24.021508	0.000544	20.829326
467.140034	-3.001400	3.779000	-11.341000	24.025884	0.000542	20.820913
468.158833	-3.013500	3.778800	-11.387000	23.994206	0.000543	20.829448
469.141878	-2.994600	3.777600	-11.311000	24.021172	0.000545	20.835154
470.144579	-2.979300	3.778100	-11.254000	24.048243	0.000544	20.845232
471.143462	-3.025800	3.778000	-11.431000	24.029204	0.000544	20.832303
472.145267	-2.992900	3.777600	-11.305000	24.066777	0.000544	20.812138
473.140901	-2.999900	3.776500	-11.328000	24.077173	0.000544	20.839159
474.144934	-2.999000	3.776100	-11.324000	24.071371	0.000544	20.821486
475.142458	-3.009600	3.776400	-11.365000	24.077041	0.000544	20.820535
476.143204	-3.010100	3.776400	-11.367000	24.050884	0.000543	20.819432
477.143218	-2.999000	3.773900	-11.317000	24.036274	0.000543	20.835126
478.142925	-2.997400	3.775100	-11.314000	24.061478	0.000545	20.840013
479.142991	-3.023400	3.775000	-11.413000	24.089542	0.000546	20.822641
480.145553	-3.010300	3.774000	-11.360000	24.127710	0.000544	20.825359
481.145589	-2.973100	3.775900	-11.224000	24.142857	0.000546	20.833439
482.145766	-2.988100	3.775200	-11.280000	24.155270	0.000544	20.807482
483.147387	-2.979900	3.774200	-11.246000	24.131679	0.000545	20.830288
484.148671	-2.999200	3.773000	-11.315000	24.110025	0.000544	20.819951
485.148801	-2.986400	3.774400	-11.270000	24.083872	0.000545	20.816955
486.146622	-2.984700	3.773900	-11.264000	24.071676	0.000546	20.821793
487.146950	-3.010200	3.773400	-11.358000	24.080008	0.000544	20.825407
488.147923	-2.995000	3.772500	-11.298000	24.084010	0.000544	20.825153
489.144823	-2.985300	3.772400	-11.261000	24.127749	0.000546	20.836778
490.152930	-2.995300	3.771700	-11.297000	24.121925	0.000544	20.830937
491.152083	-2.996400	3.771800	-11.300000	24.118759	0.000545	20.837244
492.150662	-2.996400	3.772100	-11.302000	24.130303	0.000543	20.803304
493.148574	-3.006700	3.770700	-11.337000	24.181554	0.000543	20.821518
494.155568	-2.997000	3.772600	-11.306000	24.187898	0.000542	20.824561
495.149323	-3.015400	3.770200	-11.368000	24.218798	0.000543	20.831847
496.152401	-2.986000	3.771000	-11.259000	24.230138	0.000541	20.821411
497.151822	-3.004400	3.770200	-11.326000	24.221379	0.000540	20.828746
498.149957	-3.001600	3.770000	-11.315000	24.221525	0.000541	20.827944
499.154454	-3.008700	3.770000	-11.341000	24.224188	0.000543	20.823503
500.152180	-2.991900	3.770400	-11.280000	24.214033	0.000541	20.829912
501.151416	-2.999100	3.769200	-11.304000	24.206992	0.000541	20.846557
502.148407	-2.981900	3.770600	-11.243000	24.231919	0.000540	20.822723
503.150939	-3.004100	3.769100	-11.321000	24.237738	0.000542	20.835671
504.147769	-3.015500	3.766900	-11.359000	24.250503	0.000540	20.842312
505.149921	-2.972300	3.769100	-11.201000	24.259383	0.000541	20.829882
506.154362	-3.002600	3.767700	-11.313000	24.262890	0.000540	20.811589
507.153867	-2.995300	3.767300	-11.284000	24.272421	0.000541	20.815934
508.150587	-2.993800	3.768800	-11.283000	24.279113	0.000543	20.819327
509.151205	-2.980400	3.767400	-11.227000	24.295704	0.000542	20.814633
510.151867	-2.998400	3.766700	-11.294000	24.291276	0.000543	20.820623
511.150454	-2.984800	3.766600	-11.242000	24.316875	0.000543	20.810740
512.150640	-3.005000	3.766100	-11.316000	24.322075	0.000542	20.825439
513.146590	-3.016700	3.765900	-11.359000	24.303615	0.000543	20.798388
514.152666	-2.987400	3.766300	-11.251000	24.245774	0.000542	20.803430
515.156460	-2.993300	3.765800	-11.272000	24.227932	0.000544	20.818250
516.150619	-3.004000	3.764800	-11.308000	24.190461	0.000544	20.802950
517.148393	-3.005400	3.766300	-11.318000	24.178667	0.000544	20.805346
518.155138	-3.015800	3.764500	-11.352000	24.209070	0.000544	20.794589
519.150706	-3.022500	3.765000	-11.379000	24.202175	0.000544	20.818018
520.152710	-2.998100	3.765200	-11.286000	24.234121	0.000544	20.813078
521.156163	-3.019500	3.763100	-11.362000	24.217626	0.000544	20.803171
522.148927	-2.993500	3.763100	-11.264000	24.243076	0.000544	20.799775
523.153280	-3.000500	3.763300	-11.291000	24.248896	0.000543	20.811777
524.151539	-3.003700	3.762900	-11.302000	24.273752	0.000544	20.815372
525.157713	-2.999000	3.762500	-11.282000	24.260662	0.000542	20.796078
526.150634	-2.995200	3.762200	-11.268000	24.251332	0.000545	20.807108
527.153635	-3.020400	3.762100	-11.362000	24.276805	0.000545	20.822702
528.153848	-2.996900	3.761700	-11.272000	24.278770	0.000545	20.787216
529.156315	-3.005100	3.762000	-11.304000	24.351114	0.000546	20.796724
530.157269	-3.032400	3.760700	-11.403000	24.324195	0.000544	20.790582
531.154234	-3.015200	3.761200	-11.340000	24.338644	0.000546	20.802706
532.153019	-2.985500	3.762300	-11.231000	24.327248	0.000544	20.812137
533.151260	-2.995000	3.761000	-11.264000	24.338117	0.000544	20.796013
534.155137	-3.007200	3.760900	-11.308000	24.357197	0.000544	20.810886
535.154067	-2.987600	3.760700	-11.235000	24.363091	0.000544	20.794514
536.156152	-2.995000	3.759800	-11.260000	24.357664	0.000543	20.780061
537.152761	-3.014500	3.758200	-11.328000	24.368211	0.000542	20.820987
538.154881	-2.975200	3.760500	-11.188000	24.368607	0.000542	20.804314
539.160751	-3.019600	3.758300	-11.348000	24.379376	0.000541	20.802316
540.154518	-3.002500	3.758900	-11.286000	24.341566	0.000542	20.807534
541.160153	-3.016500	3.758200	-11.336000	24.301238	0.000543	20.789839
542.161683	-3.003400	3.759900	-11.292000	24.324422	0.000542	20.790336
543.160637	-2.997700	3.759000	-11.268000	24.332704	0.000542	20.808127
544.162018	-3.003300	3.758600	-11.287000	24.310365	0.000538	20.784770
545.161403	-3.017400	3.757800	-11.338000	24.329992	0.000543	20.795449
546.163891	-3.011400	3.756900	-11.312000	24.326755	0.000542	20.806427
547.160096	-3.005300	3.757300	-11.290000	24.304938	0.000541	20.797818
548.160058	-3.009800	3.756300	-11.305000	24.336560	0.000541	20.798245
549.162355	-2.996600	3.757300	-11.259000	24.348325	0.000539	20.807201
550.164234	-3.022600	3.756200	-11.353000	24.375640	0.000540	20.808050
551.163824	-3.013300	3.755900	-11.317000	24.401558	0.000539	20.770989
552.175083	-2.986800	3.755500	-11.216000	24.419966	0.000539	20.805578
553.160107	-2.988400	3.755500	-11.222000	24.414319	0.000540	20.787111
554.162366	-3.002400	3.755800	-11.276000	24.418425	0.000541	20.790281
555.161022	-2.979100	3.755100	-11.186000	24.366659	0.000539	20.792403
556.166551	-2.993000	3.755100	-11.237000	24.391908	0.000541	20.787386
557.162854	-2.996600	3.753800	-11.247000	24.393353	0.000540	20.784569
558.163266	-2.994500	3.753500	-11.239000	24.418103	0.000540	20.795648
559.170049	-3.009600	3.753600	-11.295000	24.462032	0.000541	20.787563
560.162632	-3.029300	3.752900	-11.367000	24.465241	0.000541	20.767074
561.164666	-3.004100	3.754300	-11.277000	24.458204	0.000540	20.768549
562.170181	-2.995500	3.753500	-11.242000	24.452261	0.000541	20.792932
563.168638	-3.004800	3.752100	-11.274000	24.461814	0.000542	20.782128
564.164383	-3.015500	3.752800	-11.316000	24.479276	0.000543	20.768827
565.168236	-2.994000	3.751800	-11.232000	24.462487	0.000543	20.786597
566.169745	-3.003800	3.752600	-11.271000	24.414876	0.000542	20.800946
567.167634	-2.984800	3.752100	-11.199000	24.423535	0.000540	20.782131
568.173950	-2.996200	3.752100	-11.241000	24.431196	0.000541	20.769902
569.167393	-2.996300	3.751900	-11.240000	24.433935	0.000543	20.787823
570.181398	-2.994800	3.751000	-11.232000	24.461570	0.000542	20.802746
571.171090	-2.994800	3.751500	-11.233000	24.461146	0.000542	20.778139
572.171963	-3.010700	3.750700	-11.291000	24.481718	0.000543	20.780761
573.171953	-2.999700	3.749200	-11.245000	24.512064	0.000543	20.789869
574.173804	-2.986000	3.750500	-11.198000	24.542059	0.000544	20.784402
575.172495	-3.012100	3.749000	-11.292000	24.524324	0.000544	20.767556
576.172106	-3.000900	3.750000	-11.253000	24.517608	0.000542	20.771250
577.171289	-3.021300	3.749600	-11.328000	24.489028	0.000545	20.792361
578.176268	-3.016400	3.749800	-11.310000	24.478331	0.000542	20.778310
579.173081	-2.999800	3.748900	-11.246000	24.489423	0.000542	20.773318
580.174308	-3.006700	3.749500	-11.273000	24.487484	0.000545	20.775165
581.175193	-2.988200	3.750200	-11.206000	24.507031	0.000543	20.788613
582.173568	-3.020500	3.747500	-11.317000	24.516510	0.000544	20.794804
583.169467	-3.008600	3.747400	-11.272000	24.517898	0.000544	20.781024
584.170984	-3.025100	3.746600	-11.332000	24.527374	0.000546	20.772988
585.170700	-3.001800	3.747200	-11.248000	24.483421	0.000544	20.769666
586.170914	-2.972700	3.748600	-11.141000	24.523591	0.000544	20.786262
587.170984	-3.000100	3.747000	-11.241000	24.531697	0.000540	20.775902
588.171183	-3.007300	3.746500	-11.266000	24.539008	0.000544	20.787979
589.176162	-2.993300	3.746500	-11.213000	24.558356	0.000543	20.789849
590.170341	-2.993400	3.746000	-11.212000	24.577633	0.000544	20.787379
591.173215	-2.990000	3.746800	-11.202000	24.544377	0.000543	20.800005
592.179495	-3.011600	3.746300	-11.281000	24.513805	0.000541	20.791616
593.171843	-2.992200	3.745000	-11.204000	24.544224	0.000543	20.790368
594.172382	-2.996000	3.743900	-11.215000	24.539124	0.000542	20.782880
595.171885	-2.994400	3.744900	-11.213000	24.531038	0.000541	20.795156
596.184679	-3.008800	3.743600	-11.263000	24.508156	0.000542	20.779785
597.175402	-3.000600	3.744100	-11.234000	24.491390	0.000541	20.791413
598.182584	-3.008100	3.744800	-11.264000	24.481565	0.000543	20.778236
599.175438	-2.989000	3.744400	-11.192000	24.449103	0.000541	20.783600
600.179551	-2.996100	3.743500	-11.215000	24.508055	0.000542	20.777786
601.177231	-3.001200	3.742600	-11.231000	24.489673	0.000540	20.778784
602.180293	-2.987500	3.743800	-11.184000	24.491687	0.000541	20.767528
603.178412	-2.992200	3.743200	-11.199000	24.506014	0.000542	20.777635
604.177225	-2.990800	3.742500	-11.191000	24.533372	0.000541	20.791807
605.181347	-2.995200	3.743100	-11.211000	24.542101	0.000543	20.753149
606.180774	-2.999400	3.741500	-11.221000	24.534762	0.000540	20.792728
607.182018	-3.003500	3.740700	-11.234000	24.477801	0.000541	20.758338
608.182073	-2.994300	3.741700	-11.203000	24.516752	0.000542	20.785090
609.181142	-2.992500	3.741300	-11.195000	24.517274	0.000543	20.778975
610.177857	-2.989000	3.741800	-11.183000	24.499340	0.000542	20.787535
611.181157	-2.994700	3.741300	-11.203000	24.539112	0.000541	20.789032
612.177925	-3.001800	3.740800	-11.228000	24.527891	0.000541	20.795792
613.178342	-2.989200	3.741300	-11.183000	24.492397	0.000542	20.777724
614.187457	-2.999300	3.740500	-11.219000	24.510952	0.000541	20.792547
615.181206	-2.997900	3.739400	-11.209000	24.552114	0.000542	20.783111
616.184163	-3.005900	3.738700	-11.237000	24.557909	0.000540	20.804098
617.189944	-2.998800	3.739800	-11.214000	24.589221	0.000537	20.804697
618.190945	-2.992900	3.738900	-11.189000	24.609863	0.000539	20.787476
619.181856	-2.996500	3.737700	-11.199000	24.625380	0.000537	20.796882
620.186614	-3.008700	3.738600	-11.248000	24.593521	0.000537	20.814701
621.183125	-3.000400	3.738500	-11.216000	24.598967	0.000536	20.799776
622.185270	-2.999300	3.738000	-11.210000	24.644230	0.000536	20.779760
623.184022	-2.983900	3.737800	-11.153000	24.621726	0.000537	20.791793
624.184110	-3.023500	3.736400	-11.296000	24.633364	0.000536	20.787349
625.189725	-3.020800	3.736200	-11.285000	24.597774	0.000539	20.798580
626.185730	-2.995400	3.736400	-11.191000	24.596132	0.000536	20.779388
627.192355	-3.021200	3.736400	-11.287000	24.610234	0.000535	20.790693
628.194417	-2.997800	3.735500	-11.198000	24.629287	0.000538	20.815026
629.188318	-2.966200	3.737600	-11.085000	24.663485	0.000533	20.782012
630.191053	-2.991300	3.735700	-11.174000	24.592955	0.000536	20.781416
631.188216	-3.001000	3.736200	-11.211000	24.653688	0.000537	20.802527
632.185295	-2.971200	3.737400	-11.104000	24.644089	0.000535	20.788153
633.189510	-3.000100	3.735600	-11.206000	24.641553	0.000537	20.772806
634.189614	-2.958600	3.737100	-11.056000	24.595892	0.000536	20.813286
635.187324	-3.017700	3.735500	-11.272000	24.604972	0.000536	20.805801
636.192386	-2.990900	3.734500	-11.169000	24.630588	0.000537	20.776977
637.192333	-2.992400	3.735900	-11.179000	24.623277	0.000535	20.791452
638.192110	-2.991100	3.733000	-11.165000	24.639494	0.000535	20.790656
639.190835	-3.001400	3.733900	-11.206000	24.637184	0.000535	20.795449
640.192902	-2.983700	3.733500	-11.138000	24.680184	0.000536	20.793078
641.189509	-2.992100	3.732800	-11.167000	24.718707	0.000536	20.801390
642.193846	-2.984400	3.733400	-11.141000	24.697023	0.000534	20.789588
643.189071	-2.991900	3.732600	-11.166000	24.719681	0.000536	20.797626
644.187324	-2.993500	3.731100	-11.169000	24.695462	0.000537	20.779487
645.195593	-3.004100	3.731700	-11.209000	24.689617	0.000536	20.784052
646.188064	-2.990300	3.732400	-11.160000	24.709415	0.000537	20.801075
647.193360	-3.008800	3.732800	-11.230000	24.716527	0.000537	20.808686
648.208832	-2.998200	3.731500	-11.186000	24.681915	0.000536	20.790549
649.190634	-2.998200	3.732000	-11.189000	24.698228	0.000535	20.802651
650.191227	-2.990900	3.731700	-11.161000	24.668338	0.000535	20.801107
651.192327	-3.004100	3.729000	-11.201000	24.626954	0.000536	20.788503
652.194512	-3.012300	3.731200	-11.238000	24.635336	0.000535	20.805923
653.192106	-2.993800	3.731000	-11.169000	24.644316	0.000535	20.805925
654.187957	-2.984700	3.731600	-11.137000	24.650036	0.000535	20.798389
655.195953	-2.992700	3.729500	-11.161000	24.668912	0.000536	20.776078
656.193692	-2.999200	3.730000	-11.186000	24.681025	0.000536	20.798664
657.191680	-3.004600	3.729500	-11.205000	24.703683	0.000537	20.780624
658.196106	-3.001100	3.728500	-11.189000	24.714697	0.000538	20.792624
659.193254	-2.983600	3.730500	-11.129000	24.750010	0.000538	20.799612
660.194136	-3.004000	3.728000	-11.198000	24.728800	0.000535	20.801561
661.195546	-2.978600	3.727600	-11.102000	24.680654	0.000536	20.807775
662.194767	-3.022600	3.727500	-11.266000	24.740214	0.000535	20.804955
663.193720	-2.990500	3.728300	-11.149000	24.778238	0.000533	20.792853
664.197928	-3.004400	3.727700	-11.199000	24.768464	0.000534	20.800114
665.194397	-2.985600	3.727200	-11.127000	24.749092	0.000533	20.805330
666.190899	-2.988200	3.728500	-11.141000	24.746356	0.000535	20.809696
667.194391	-3.002000	3.726900	-11.187000	24.705598	0.000533	20.781597
668.200642	-2.999000	3.727600	-11.178000	24.693760	0.000534	20.808125
669.195233	-2.986100	3.727800	-11.131000	24.703512	0.000533	20.807005
670.197349	-3.012700	3.726200	-11.225000	24.712463	0.000533	20.810297
671.196024	-2.993000	3.725900	-11.150000	24.707139	0.000534	20.820127
672.193852	-3.015100	3.725400	-11.231000	24.739917	0.000534	20.822200
673.193051	-3.026600	3.723900	-11.270000	24.742156	0.000534	20.808326
674.192793	-3.037900	3.724700	-11.314000	24.728605	0.000533	20.813219
675.194473	-3.001700	3.725500	-11.182000	24.757278	0.000535	20.810699
676.193981	-2.994200	3.724400	-11.151000	24.718932	0.000533	20.807780
677.193830	-3.021700	3.724600	-11.253000	24.737656	0.000533	20.799543
678.195599	-3.013700	3.724100	-11.223000	24.765807	0.000534	20.804086
679.196057	-2.993400	3.724900	-11.150000	24.772524	0.000532	20.789963
680.198029	-2.999800	3.723900	-11.171000	24.793040	0.000535	20.826674
681.198689	-3.010000	3.723900	-11.208000	24.817062	0.000532	20.791512
682.195423	-3.026200	3.721900	-11.263000	24.770757	0.000535	20.816640
683.191782	-3.007200	3.722800	-11.195000	24.718638	0.000532	20.805588
684.200533	-2.991400	3.722200	-11.133000	24.727541	0.000534	20.808358
685.194865	-2.971600	3.724400	-11.067000	24.742361	0.000533	20.817067
686.204503	-3.006400	3.722200	-11.190000	24.803858	0.000533	20.807184
687.205421	-3.013300	3.722500	-11.217000	24.776655	0.000531	20.785574
688.197776	-3.005800	3.722600	-11.189000	24.765013	0.000532	20.817988
689.206241	-3.003200	3.720700	-11.174000	24.745444	0.000533	20.800720
690.201697	-2.993200	3.721600	-11.138000	24.749644	0.000532	20.830539
691.200183	-2.998400	3.722100	-11.159000	24.757229	0.000531	20.817288
692.203275	-3.004900	3.721400	-11.182000	24.820463	0.000532	20.820056
693.201803	-3.027600	3.720300	-11.263000	24.828670	0.000532	20.810275
694.209079	-2.999600	3.720800	-11.160000	24.832076	0.000533	20.839771
695.206465	-3.030800	3.720000	-11.273000	24.767247	0.000531	20.835402
696.204991	-3.019800	3.719400	-11.231000	24.732681	0.000529	20.829163
697.201394	-3.000000	3.719400	-11.158000	24.730467	0.000530	20.812243
698.206291	-2.994100	3.720500	-11.139000	24.727308	0.000528	20.821401
699.206765	-3.015000	3.717900	-11.208000	24.766797	0.000527	20.834950
700.201478	-2.989000	3.720200	-11.119000	24.748021	0.000528	20.825117
701.202990	-3.012200	3.718800	-11.201000	24.748894	0.000527	20.830735
702.202260	-2.990600	3.720900	-11.126000	24.754537	0.000530	20.813164
703.203043	-3.017400	3.718700	-11.220000	24.810338	0.000528	20.824119
704.202311	-3.009500	3.717500	-11.187000	24.835853	0.000527	20.802785
705.201422	-3.007100	3.719200	-11.183000	24.886676	0.000527	20.825343
706.206131	-3.006200	3.716400	-11.171000	24.863577	0.000527	20.812117
707.201953	-3.001900	3.717100	-11.157000	24.882177	0.000526	20.813715
708.202221	-3.015200	3.717500	-11.208000	24.878722	0.000529	20.837748
709.207079	-3.018700	3.716800	-11.219000	24.843440	0.000527	20.808976
710.205849	-3.001400	3.717400	-11.156000	24.869874	0.000528	20.832661
711.208456	-2.999500	3.716300	-11.146000	24.840358	0.000527	20.835280
712.213030	-3.003800	3.717100	-11.165000	24.817435	0.000523	20.826974
713.209060	-2.969000	3.716300	-11.033000	24.808409	0.000526	20.844468
714.207435	-2.984500	3.716600	-11.091000	24.777375	0.000525	20.831341
715.206565	-2.985900	3.716200	-11.096000	24.778644	0.000523	20.840200
716.206758	-2.982900	3.715600	-11.082000	24.731296	0.000525	20.818291
717.207632	-3.008100	3.713700	-11.171000	24.731697	0.000525	20.854727
718.209435	-3.000800	3.714400	-11.145000	24.764027	0.000525	20.838334
719.209220	-3.006100	3.714300	-11.165000	24.737540	0.000523	20.835936
720.207164	-2.991600	3.714300	-11.111000	24.787002	0.000525	20.833416
721.209353	-2.991900	3.714400	-11.112000	24.762260	0.000522	20.838932
722.214323	-2.993700	3.714900	-11.120000	24.771040	0.000523	20.836363
723.210537	-2.993700	3.712900	-11.115000	24.783772	0.000523	20.814053
724.210694	-2.986900	3.713600	-11.092000	24.791504	0.000523	20.831770
725.211924	-3.008800	3.712700	-11.169000	24.818811	0.000522	20.862492
726.211410	-2.992800	3.711800	-11.107000	24.788771	0.000523	20.841829
727.211493	-2.982200	3.712900	-11.071000	24.814581	0.000523	20.848765
728.207750	-2.993800	3.712700	-11.114000	24.807722	0.000519	20.846148
729.213652	-2.974800	3.713200	-11.044000	24.810581	0.000519	20.836216
730.219566	-2.974300	3.712000	-11.040000	24.776093	0.000518	20.848546
731.213883	-3.001000	3.712200	-11.140000	24.787383	0.000520	20.849445
732.217222	-2.986400	3.712800	-11.087000	24.835129	0.000520	20.850421
733.216614	-2.971100	3.711400	-11.026000	24.864149	0.000518	20.843510
734.214099	-3.008700	3.711400	-11.166000	24.876904	0.000519	20.846829
735.211502	-3.009700	3.711700	-11.170000	24.923377	0.000517	20.839419
736.211107	-2.986300	3.711600	-11.083000	24.931287	0.000517	20.859211
737.211299	-2.987100	3.711000	-11.084000	24.903689	0.000517	20.842892
738.214542	-3.001400	3.710000	-11.135000	24.880541	0.000516	20.877503
739.217960	-3.000200	3.710900	-11.132000	24.873704	0.000516	20.845513
740.219127	-3.016800	3.709600	-11.190000	24.894172	0.000517	20.856572
741.215494	-2.985200	3.710200	-11.075000	24.894944	0.000516	20.851657
742.215667	-3.013000	3.708900	-11.174000	24.898773	0.000517	20.836535
743.216612	-3.007000	3.708900	-11.151000	24.892384	0.000517	20.833916
744.216807	-2.984400	3.708400	-11.067000	24.895594	0.000516	20.835242
745.214226	-3.000900	3.707300	-11.125000	24.927026	0.000516	20.844029
746.216561	-3.005200	3.708000	-11.142000	24.930855	0.000516	20.853088
747.212142	-3.019100	3.708100	-11.193000	24.900598	0.000513	20.842634
748.224272	-3.002500	3.707700	-11.131000	24.868404	0.000516	20.850626
749.214835	-3.008300	3.706700	-11.150000	24.854333	0.000514	20.848357
750.216523	-3.000800	3.708300	-11.127000	24.819923	0.000515	20.850807
751.218222	-3.001600	3.707500	-11.127000	24.810548	0.000516	20.841399
752.217508	-2.995100	3.707000	-11.102000	24.843573	0.000514	20.853679
753.217373	-2.990700	3.706500	-11.083000	24.889875	0.000515	20.848941
754.219014	-2.993200	3.706800	-11.094000	24.905591	0.000514	20.843378
755.217664	-2.995100	3.706200	-11.099000	24.926004	0.000515	20.852486
756.216081	-2.995000	3.706500	-11.100000	24.949948	0.000515	20.841906
757.218965	-2.997400	3.705500	-11.106000	24.974894	0.000514	20.844185
758.215390	-2.981700	3.705100	-11.047000	24.955748	0.000514	20.873804
759.216980	-2.991800	3.706700	-11.089000	24.905925	0.000513	20.852248
760.224828	-3.018900	3.704700	-11.183000	24.864453	0.000515	20.863255
761.221565	-2.971600	3.707000	-11.015000	24.895436	0.000514	20.852151
762.219189	-3.009900	3.704200	-11.149000	24.907299	0.000513	20.871169
763.219110	-2.994100	3.705300	-11.093000	24.921474	0.000512	20.839879
764.217068	-3.003100	3.703000	-11.120000	24.927618	0.000513	20.864536
765.219947	-2.998700	3.703500	-11.104000	24.940502	0.000513	20.854235
766.218451	-3.004600	3.704000	-11.127000	24.938263	0.000510	20.870005
767.223946	-2.987700	3.704300	-11.066000	24.920416	0.000512	20.853041
768.219607	-3.010800	3.702700	-11.146000	24.920441	0.000509	20.845954
769.218948	-3.010700	3.703900	-11.150000	24.857712	0.000512	20.851274
770.225438	-3.023900	3.702500	-11.194000	24.870224	0.000510	20.868098
771.223944	-3.020100	3.702300	-11.180000	24.915354	0.000511	20.862659
772.223031	-3.000500	3.703100	-11.110000	24.885693	0.000510	20.862761
773.222581	-3.003000	3.701700	-11.116000	24.884652	0.000510	20.864561
774.223787	-3.002300	3.702400	-11.114000	24.880004	0.000510	20.863216
775.224647	-3.003600	3.702400	-11.120000	24.891073	0.000514	20.846351
776.224088	-3.001600	3.700000	-11.106000	24.911489	0.000512	20.877745
777.221653	-2.989300	3.701400	-11.064000	24.901522	0.000512	20.847828
778.224589	-2.990600	3.700700	-11.066000	24.927134	0.000510	20.885860
779.226696	-2.986000	3.701300	-11.052000	24.896034	0.000509	20.858915
780.223475	-2.996400	3.699800	-11.084000	24.898572	0.000511	20.862411
781.220953	-2.997200	3.699700	-11.088000	24.932687	0.000510	20.837384
782.229231	-3.000800	3.699900	-11.101000	24.951092	0.000510	20.860597
783.227462	-2.989500	3.700600	-11.062000	24.962457	0.000511	20.864892
784.224567	-3.017500	3.698900	-11.161000	25.000646	0.000512	20.858653
785.236947	-3.003900	3.699200	-11.111000	25.011442	0.000510	20.871860
786.228665	-3.014600	3.698200	-11.149000	24.998567	0.000509	20.862731
787.227482	-3.016700	3.698200	-11.156000	24.966893	0.000510	20.867921
788.225319	-3.001800	3.698500	-11.102000	24.966549	0.000513	20.876111
789.225534	-3.007000	3.698700	-11.121000	24.946162	0.000509	20.872243
790.227818	-2.999200	3.699200	-11.093000	24.936714	0.000511	20.866554
791.229271	-3.004300	3.698300	-11.109000	24.925827	0.000511	20.885023
792.230602	-2.996700	3.698300	-11.082000	24.965808	0.000512	20.869203
793.232245	-3.027500	3.695600	-11.188000	25.011008	0.000509	20.876166
794.231316	-3.014600	3.698000	-11.148000	25.000418	0.000511	20.868856
795.230284	-2.986900	3.698100	-11.045000	24.979359	0.000511	20.865261
796.228452	-3.014600	3.697300	-11.146000	25.005590	0.000509	20.884003
797.226446	-3.007900	3.696300	-11.117000	25.004450	0.000510	20.850619
798.230075	-2.988600	3.696700	-11.047000	25.015389	0.000510	20.881037
799.233000	-3.002000	3.695200	-11.092000	25.040921	0.000509	20.856881
800.225459	-3.001000	3.696200	-11.091000	25.038214	0.000509	20.864120
801.230668	-2.982700	3.696500	-11.025000	25.022178	0.000509	20.883110
802.233536	-3.013600	3.695700	-11.136000	24.973023	0.000510	20.892565
803.229538	-3.005300	3.695200	-11.105000	24.939359	0.000509	20.883432
804.229765	-3.005100	3.695600	-11.105000	24.962853	0.000509	20.861022
805.230824	-2.982500	3.694400	-11.017000	24.966635	0.000506	20.890894
806.232553	-3.017600	3.693300	-11.144000	25.001415	0.000508	20.876968
807.231627	-2.983700	3.694600	-11.022000	25.050591	0.000510	20.871803
808.226953	-2.993700	3.693700	-11.057000	25.070556	0.000507	20.876671
809.233601	-3.017000	3.692800	-11.140000	25.062848	0.000509	20.878890
810.227115	-3.002300	3.692900	-11.087000	25.035824	0.000507	20.884006
811.226900	-2.997900	3.693600	-11.072000	25.047856	0.000508	20.889918
812.233501	-3.014500	3.692900	-11.131000	25.053129	0.000506	20.876246
813.230135	-3.018500	3.692100	-11.143000	25.006414	0.000506	20.893838
814.233040	-3.005000	3.691900	-11.093000	24.983045	0.000507	20.905468
815.233019	-2.996500	3.692500	-11.064000	24.966360	0.000506	20.909583
816.231694	-3.007900	3.692200	-11.105000	24.975833	0.000507	20.884954
817.229615	-3.003300	3.690100	-11.081000	25.006834	0.000509	20.890941
818.232533	-2.970700	3.692100	-10.967000	25.044250	0.000508	20.926124
819.234668	-2.986600	3.691000	-11.023000	25.052480	0.000507	20.910680
820.233031	-2.978200	3.692100	-10.995000	25.065055	0.000506	20.882054
821.235094	-3.008500	3.691000	-11.103000	25.095162	0.000508	20.912747
822.230562	-3.014100	3.691100	-11.124000	25.086314	0.000506	20.898651
823.231850	-3.015300	3.689300	-11.124000	25.097221	0.000507	20.898695
824.233385	-3.016900	3.689000	-11.128000	25.120739	0.000507	20.900966
825.237868	-2.982400	3.691300	-11.008000	25.082378	0.000506	20.901338
826.234776	-2.983200	3.689300	-11.005000	25.085534	0.000506	20.891230
827.232850	-2.969200	3.689100	-10.953000	25.090032	0.000507	20.908546
828.233069	-2.994300	3.689100	-11.045000	25.114143	0.000506	20.900983
829.232790	-2.979700	3.688400	-10.988000	25.091668	0.000504	20.918249
830.234197	-3.010500	3.688100	-11.102000	25.135839	0.000504	20.907590
831.233206	-2.998900	3.688800	-11.061000	25.103175	0.000504	20.897559
832.232794	-2.996400	3.687500	-11.048000	25.047361	0.000503	20.913601
833.232016	-3.007000	3.687000	-11.086000	25.048751	0.000504	20.905040
834.233166	-3.011800	3.686500	-11.102000	25.035571	0.000504	20.923103
835.233965	-3.002100	3.687000	-11.068000	25.092624	0.000504	20.911148
836.248671	-3.006500	3.686100	-11.080000	25.065102	0.000503	20.920503
837.234089	-3.003400	3.687100	-11.073000	25.078102	0.000503	20.932604
838.234718	-3.016100	3.685200	-11.115000	25.091223	0.000503	20.913535
839.236385	-2.984200	3.686200	-11.000000	25.105668	0.000503	20.931353
840.238766	-2.985100	3.685600	-11.001000	25.079184	0.000502	20.915674
841.236855	-2.986300	3.686800	-11.009000	25.060016	0.000500	20.912080
842.234335	-3.010000	3.685400	-11.092000	25.058744	0.000501	20.889469
843.237937	-3.001100	3.684800	-11.057000	25.063666	0.000501	20.895831
844.234164	-2.992900	3.685000	-11.028000	25.043327	0.000501	20.888691
845.236291	-3.018500	3.684900	-11.121000	25.031216	0.000501	20.904508
846.234874	-3.000700	3.684200	-11.054000	25.029595	0.000501	20.900985
847.240123	-2.991600	3.683400	-11.018000	25.057888	0.000500	20.895246
848.236508	-2.997900	3.683300	-11.041000	25.045129	0.000500	20.921791
849.235293	-2.999100	3.683100	-11.044000	25.096636	0.000501	20.898108
850.237810	-3.001000	3.683400	-11.053000	25.082065	0.000499	20.890120
851.244536	-2.994100	3.683700	-11.028000	25.125317	0.000501	20.888019
852.237692	-3.006500	3.682400	-11.070000	25.109159	0.000498	20.917789
853.236195	-2.993300	3.684000	-11.026000	25.122055	0.000498	20.909398
854.238364	-3.009400	3.683400	-11.084000	25.131227	0.000498	20.895374
855.235584	-3.000900	3.681500	-11.046000	25.074865	0.000497	20.882892
856.235889	-3.023100	3.681600	-11.128000	25.056392	0.000499	20.890900
857.243542	-3.011600	3.681400	-11.086000	25.081151	0.000498	20.910063
858.244969	-3.003000	3.682000	-11.056000	25.070356	0.000497	20.910132
859.242647	-3.005400	3.680200	-11.059000	25.091461	0.000494	20.901921
860.239310	-2.989800	3.682000	-11.007000	25.057373	0.000497	20.908479
861.237235	-2.981400	3.681000	-10.973000	25.063637	0.000496	20.907180
862.245913	-3.004200	3.679900	-11.054000	25.058738	0.000495	20.903211
863.240552	-3.019700	3.681700	-11.117000	25.064774	0.000492	20.883668
864.238614	-3.009100	3.681300	-11.077000	25.062385	0.000494	20.895968
865.244410	-3.008000	3.680100	-11.069000	25.052463	0.000494	20.902128
866.244088	-3.023100	3.679500	-11.123000	25.093579	0.000493	20.913529
867.243192	-3.007400	3.680600	-11.068000	25.105687	0.000492	20.900080
868.242312	-3.013700	3.678600	-11.085000	25.071374	0.000489	20.895982
869.243629	-2.974800	3.680500	-10.948000	25.066002	0.000490	20.906710
870.246303	-3.004400	3.678700	-11.051000	25.105679	0.000490	20.910029
871.246752	-3.012900	3.678500	-11.082000	25.140530	0.000491	20.880532
872.250413	-3.023800	3.677500	-11.119000	25.142666	0.000489	20.907331
873.247248	-2.988200	3.678100	-10.990000	25.150918	0.000490	20.887167
874.249983	-3.005200	3.678000	-11.053000	25.149100	0.000488	20.889610
875.247628	-2.988100	3.677700	-10.988000	25.136573	0.000488	20.902637
876.249596	-3.005000	3.677000	-11.048000	25.155238	0.000488	20.902882
877.251952	-2.989400	3.678500	-10.996000	25.191580	0.000490	20.905702
878.248582	-3.001900	3.676800	-11.036000	25.219742	0.000489	20.889880
879.246425	-2.981400	3.676000	-10.959000	25.222949	0.000488	20.895944
880.251833	-2.994600	3.676200	-11.008000	25.248252	0.000489	20.880097
881.249590	-3.010700	3.675200	-11.064000	25.196125	0.000488	20.884662
882.251933	-2.999500	3.676300	-11.026000	25.194510	0.000488	20.894420
883.250251	-3.007500	3.675300	-11.053000	25.167367	0.000488	20.886137
884.253673	-3.029500	3.675300	-11.134000	25.174946	0.000488	20.904175
885.250663	-3.024100	3.674600	-11.111000	25.164706	0.000487	20.886784
886.246630	-3.016400	3.674300	-11.082000	25.171167	0.000489	20.897538
887.250271	-2.992200	3.674900	-10.995000	25.103403	0.000487	20.896366
888.247467	-2.976000	3.674900	-10.936000	25.115258	0.000489	20.866069
889.248528	-3.003800	3.672000	-11.029000	25.096566	0.000489	20.892821
890.251988	-2.975400	3.673600	-10.930000	25.141956	0.000487	20.891446
891.251483	-2.995700	3.673700	-11.004000	25.164426	0.000487	20.886504
892.252424	-2.988100	3.673400	-10.974000	25.111030	0.000488	20.880315
893.250537	-2.982900	3.674900	-10.961000	25.099644	0.000485	20.886429
894.257591	-2.979400	3.672700	-10.942000	25.112818	0.000487	20.857930
895.253320	-3.018500	3.673200	-11.086000	25.088108	0.000486	20.904719
896.252614	-2.973800	3.672400	-10.919000	25.088127	0.000485	20.870602
897.264814	-2.999100	3.671600	-11.011000	25.085321	0.000487	20.894809
898.257988	-3.008300	3.671500	-11.044000	25.086411	0.000484	20.903490
899.259822	-2.993800	3.671100	-10.990000	25.079301	0.000485	20.885449
900.257459	-3.020600	3.670500	-11.086000	25.102493	0.000487	20.876487
901.257150	-2.996200	3.671400	-10.999000	25.114548	0.000486	20.888114
902.256899	-3.008500	3.671500	-11.044000	25.121977	0.000486	20.884666
903.258617	-3.004500	3.671400	-11.029000	25.149300	0.000485	20.871319
904.257073	-2.996900	3.670100	-10.998000	25.145219	0.000485	20.884292
905.254594	-2.992700	3.669900	-10.982000	25.161078	0.000482	20.890728
906.253487	-3.015400	3.669900	-11.065000	25.133656	0.000484	20.856090
907.256649	-3.003000	3.670000	-11.020000	25.097460	0.000484	20.896090
908.255651	-2.994100	3.669300	-10.986000	25.113791	0.000484	20.870286
909.254181	-2.996500	3.670300	-10.997000	25.089925	0.000483	20.887104
910.253933	-3.019800	3.668100	-11.075000	25.098024	0.000482	20.873898
911.254664	-3.002200	3.669400	-11.016000	25.121715	0.000482	20.868757
912.255189	-3.012600	3.667400	-11.048000	25.182841	0.000480	20.874645
913.255584	-3.016900	3.667500	-11.064000	25.208864	0.000481	20.883227
914.256490	-3.001600	3.668200	-11.010000	25.190620	0.000479	20.894307
915.254480	-2.981600	3.667700	-10.934000	25.199539	0.000482	20.876710
916.256826	-3.010300	3.667400	-11.039000	25.263247	0.000480	20.880928
917.259674	-2.970500	3.668400	-10.896000	25.294364	0.000477	20.878031
918.258659	-2.983500	3.667700	-10.941000	25.322850	0.000479	20.872019
919.258426	-3.003600	3.666300	-11.010000	25.340619	0.000478	20.863782
920.258272	-3.005800	3.667100	-11.021000	25.292030	0.000476	20.866679
921.259059	-3.028300	3.665300	-11.098000	25.288524	0.000476	20.878331
922.260419	-3.020900	3.665700	-11.073000	25.298587	0.000475	20.875633
923.258458	-2.984300	3.665500	-10.938000	25.270131	0.000476	20.865081
924.260011	-2.994100	3.664900	-10.973000	25.215021	0.000474	20.872813
925.258578	-2.988700	3.665500	-10.954000	25.222009	0.000474	20.864656
926.257196	-2.996100	3.665700	-10.982000	25.204957	0.000473	20.865555
927.263483	-2.991900	3.664700	-10.963000	25.218653	0.000474	20.850383
928.257602	-3.011500	3.665100	-11.036000	25.205553	0.000474	20.887489
929.261489	-2.989300	3.663600	-10.950000	25.179900	0.000474	20.887814
930.258799	-2.995800	3.663800	-10.976000	25.152781	0.000470	20.855375
931.260649	-2.995700	3.664900	-10.978000	25.120639	0.000471	20.861040
932.262253	-3.009200	3.663000	-11.021000	25.124571	0.000471	20.873047
933.267819	-2.998200	3.662900	-10.981000	25.156191	0.000472	20.874918
934.264148	-2.995500	3.664000	-10.974000	25.122484	0.000470	20.870952
935.257817	-2.978000	3.663800	-10.909000	25.131581	0.000471	20.873446
936.267122	-2.997300	3.662700	-10.977000	25.197781	0.000469	20.869256
937.259291	-2.994900	3.662400	-10.967000	25.168452	0.000468	20.871580
938.265170	-3.006600	3.661700	-11.008000	25.194082	0.000468	20.869810
939.265411	-2.976400	3.662400	-10.898000	25.213794	0.000470	20.859729
940.262356	-3.007600	3.661500	-11.012000	25.248572	0.000470	20.861928
941.263352	-2.989100	3.660800	-10.942000	25.208132	0.000467	20.857837
942.263097	-3.008500	3.660800	-11.012000	25.172613	0.000471	20.844465
943.259693	-3.019800	3.660100	-11.051000	25.165109	0.000469	20.870120
944.264125	-3.004200	3.660700	-10.996000	25.134710	0.000470	20.862837
945.263910	-3.015100	3.659700	-11.033000	25.173242	0.000471	20.846518
946.261327	-2.988000	3.660300	-10.936000	25.166756	0.000469	20.844274
947.263748	-3.020400	3.658900	-11.050000	25.213562	0.000467	20.850487
948.266894	-3.008600	3.658200	-11.005000	25.250974	0.000469	20.872399
949.261549	-3.014000	3.657800	-11.024000	25.307026	0.000468	20.835745
950.264890	-2.984500	3.658700	-10.919000	25.279836	0.000469	20.857282
951.268206	-2.988900	3.657500	-10.931000	25.230594	0.000468	20.846724
952.267008	-2.980200	3.658700	-10.902000	25.262711	0.000471	20.861899
953.266682	-2.994000	3.657500	-10.950000	25.253543	0.000468	20.830410
954.269795	-2.986600	3.658600	-10.926000	25.240344	0.000468	20.841814
955.266914	-3.010000	3.657600	-11.008000	25.263883	0.000469	20.840792
956.267748	-2.986000	3.657000	-10.919000	25.285808	0.000468	20.834829
957.271594	-3.001700	3.656200	-10.974000	25.322670	0.000467	20.846236
958.266259	-2.998400	3.655700	-10.960000	25.312555	0.000468	20.839873
959.265888	-2.992400	3.656100	-10.940000	25.297147	0.000469	20.832938
960.268937	-3.001600	3.655800	-10.973000	25.273583	0.000467	20.854323
961.272021	-3.003200	3.656100	-10.979000	25.244726	0.000467	20.841946
962.265004	-3.021100	3.654000	-11.038000	25.270105	0.000467	20.849882
963.270712	-3.000700	3.655300	-10.968000	25.236626	0.000467	20.839978
964.271826	-2.966700	3.656200	-10.845000	25.245549	0.000465	20.846566
965.270327	-3.008400	3.653100	-10.989000	25.203121	0.000470	20.845695
966.266085	-2.994500	3.654100	-10.940000	25.203764	0.000466	20.845866
967.267546	-3.009100	3.653100	-10.991000	25.177565	0.000465	20.842324
968.276057	-2.989000	3.654300	-10.922000	25.195265	0.000466	20.834015
969.268849	-2.989600	3.652700	-10.920000	25.252732	0.000465	20.851407
970.276197	-3.009200	3.652300	-10.990000	25.261260	0.000465	20.843374
971.271955	-3.010800	3.651400	-10.993000	25.228473	0.000466	20.836535
972.272784	-2.969700	3.654300	-10.851000	25.212863	0.000463	20.835088
973.277545	-2.982400	3.653300	-10.894000	25.201402	0.000464	20.836857
974.277008	-3.012100	3.652500	-11.000000	25.233940	0.000465	20.838230
975.269279	-2.998300	3.652500	-10.950000	25.256881	0.000466	20.833288
976.278364	-3.036400	3.651000	-11.085000	25.255267	0.000463	20.814598
977.271637	-3.013500	3.651800	-11.003000	25.309972	0.000463	20.840124
978.269258	-2.995800	3.653000	-10.943000	25.307682	0.000465	20.832610
979.268378	-2.999400	3.651600	-10.952000	25.297216	0.000462	20.814990
980.271698	-3.011300	3.649900	-10.990000	25.318566	0.000464	20.847330
981.272634	-3.018900	3.650000	-11.018000	25.291274	0.000463	20.830835
982.273846	-3.017100	3.649200	-11.009000	25.271538	0.000461	20.828089
983.275120	-3.011300	3.649100	-10.987000	25.299896	0.000462	20.830482
984.268691	-2.998600	3.648300	-10.938000	25.324999	0.000461	20.828186
985.270825	-3.029400	3.648900	-11.053000	25.371225	0.000461	20.835246
986.272366	-3.012200	3.648400	-10.989000	25.372169	0.000460	20.830979
987.271406	-2.987500	3.649400	-10.902000	25.366053	0.000461	20.842854
988.272011	-2.988800	3.649600	-10.907000	25.370501	0.000461	20.829777
989.272034	-2.972800	3.649000	-10.847000	25.350143	0.000460	20.832095
990.276196	-2.992700	3.648500	-10.918000	25.376637	0.000459	20.815076
991.273690	-2.981800	3.647800	-10.875000	25.346711	0.000458	20.814900
992.275653	-3.013700	3.646900	-10.989000	25.359931	0.000459	20.830544
993.274070	-2.992100	3.647600	-10.913000	25.369922	0.000457	20.829196
994.275708	-2.991500	3.648000	-10.912000	25.348944	0.000456	20.827098
995.270437	-2.987300	3.646300	-10.891000	25.377225	0.000457	20.822305
996.275179	-2.998100	3.645800	-10.930000	25.351948	0.000457	20.819683
997.275614	-2.994400	3.646500	-10.918000	25.350108	0.000456	20.825423
998.274371	-3.017900	3.645300	-11.000000	25.380207	0.000456	20.822928
999.277625	-3.021200	3.644800	-11.010000	25.380029	0.000456	20.827016
1000.283683	-2.999900	3.645000	-10.933000	25.397253	0.000455	20.822027
1001.277098	-3.001700	3.643900	-10.937000	25.380872	0.000453	20.819328
1002.275917	-3.011900	3.644800	-10.977000	25.399560	0.000454	20.812963
1003.278039	-3.051200	3.643000	-11.114000	25.425110	0.000453	20.815860
1004.275014	-2.996500	3.645100	-10.922000	25.425086	0.000453	20.821051
1005.280511	-3.001800	3.644300	-10.938000	25.418549	0.000454	20.826341
1006.275348	-2.992300	3.644300	-10.904000	25.424163	0.000451	20.812539
1007.278317	-3.005000	3.643600	-10.949000	25.376073	0.000452	20.798389
1008.279317	-3.003200	3.641200	-10.934000	25.347665	0.000450	20.800685
1009.278342	-3.005600	3.643000	-10.949000	25.326887	0.000451	20.816806
1010.276999	-3.010500	3.641900	-10.963000	25.310779	0.000453	20.825288
1011.280545	-3.013400	3.641500	-10.972000	25.322063	0.000451	20.834247
1012.280120	-3.011100	3.641500	-10.962000	25.304215	0.000449	20.811585
1013.279885	-2.975200	3.642300	-10.836000	25.350222	0.000452	20.796614
1014.280638	-2.984300	3.641200	-10.866000	25.307891	0.000451	20.810061
1015.280052	-2.999100	3.641300	-10.919000	25.301505	0.000450	20.815503
1016.281291	-2.988900	3.640700	-10.881000	25.274062	0.000449	20.797433
1017.281673	-2.992200	3.640600	-10.893000	25.305577	0.000450	20.814376
1018.280903	-3.002100	3.639200	-10.925000	25.324392	0.000449	20.811456
1019.277425	-3.015900	3.639200	-10.975000	25.332492	0.000450	20.807735
1020.280788	-2.993800	3.640000	-10.897000	25.325458	0.000447	20.831018
1021.282114	-2.979800	3.639600	-10.845000	25.310789	0.000446	20.826721
1022.281150	-2.991800	3.638900	-10.886000	25.305050	0.000448	20.803415
1023.280391	-3.014200	3.637400	-10.963000	25.308205	0.000446	20.817014
1024.285402	-2.973500	3.639300	-10.821000	25.363926	0.000447	20.808003
1025.281668	-2.995500	3.638100	-10.897000	25.353537	0.000445	20.802787
1026.291154	-2.988700	3.637200	-10.870000	25.322889	0.000444	20.799990
1027.284811	-2.995300	3.636500	-10.891000	25.300894	0.000443	20.807777
1028.286946	-2.976300	3.638600	-10.828000	25.291271	0.000443	20.791951
1029.285605	-3.003300	3.637500	-10.924000	25.307525	0.000444	20.807797
1030.284334	-2.993900	3.637400	-10.888000	25.286848	0.000443	20.818804
1031.285097	-3.000100	3.636200	-10.908000	25.310784	0.000443	20.799215
1032.291307	-3.007700	3.635300	-10.934000	25.361956	0.000444	20.788481
1033.287943	-3.028400	3.634900	-11.007000	25.373464	0.000443	20.808572
1034.288988	-3.019400	3.635900	-10.977000	25.386387	0.000442	20.823918
1035.287549	-2.990800	3.635000	-10.871000	25.426275	0.000444	20.803753
1036.286912	-3.004800	3.633500	-10.917000	25.437360	0.000441	20.805876
1037.288031	-2.994300	3.634400	-10.881000	25.415612	0.000441	20.781666
1038.286481	-2.975400	3.634900	-10.813000	25.324027	0.000441	20.815830
1039.285577	-3.002300	3.633700	-10.908000	25.302677	0.000442	20.802929
1040.287541	-3.000600	3.633300	-10.901000	25.352185	0.000439	20.811387
1041.287279	-2.995800	3.633200	-10.883000	25.364411	0.000441	20.789049
1042.290393	-3.000000	3.633000	-10.898000	25.382753	0.000441	20.788501
1043.289088	-3.019000	3.631500	-10.963000	25.368784	0.000439	20.793441
1044.288457	-2.964200	3.632500	-10.766000	25.369877	0.000440	20.815875
1045.292657	-2.990400	3.632800	-10.862000	25.428356	0.000439	20.791619
1046.286022	-2.996200	3.631000	-10.877000	25.405565	0.000438	20.798605
1047.290632	-2.995600	3.631500	-10.878000	25.369875	0.000438	20.792639
1048.298112	-3.002600	3.631400	-10.903000	25.341168	0.000437	20.814549
1049.288922	-2.973700	3.631700	-10.798000	25.358042	0.000437	20.790241
1050.295770	-2.996200	3.630900	-10.878000	25.351779	0.000439	20.803393
1051.293928	-2.998200	3.630600	-10.883000	25.380310	0.000436	20.784152
1052.291537	-3.000000	3.631300	-10.893000	25.412495	0.000440	20.817891
1053.292099	-2.999200	3.629500	-10.885000	25.422831	0.000437	20.785596
1054.293951	-3.024800	3.629000	-10.976000	25.458692	0.000437	20.776088
1055.289860	-3.009800	3.629400	-10.923000	25.468680	0.000437	20.785644
1056.293240	-3.014700	3.629600	-10.941000	25.416863	0.000438	20.808053
1057.294683	-2.996100	3.629500	-10.873000	25.418354	0.000436	20.797222
1058.295987	-2.989600	3.629200	-10.848000	25.394022	0.000435	20.794601
1059.303346	-2.986900	3.628100	-10.835000	25.393001	0.000435	20.803058
1060.291002	-3.008000	3.627100	-10.910000	25.381767	0.000434	20.783717
1061.295472	-3.009200	3.627900	-10.916000	25.330866	0.000433	20.781920
1062.294827	-2.995400	3.626500	-10.862000	25.357731	0.000432	20.785661
1063.294546	-2.987500	3.627400	-10.836000	25.335136	0.000432	20.783362
1064.296991	-2.983200	3.626900	-10.819000	25.357355	0.000433	20.793345
1065.295655	-2.996800	3.626800	-10.867000	25.338491	0.000430	20.790999
1066.293555	-3.001800	3.625200	-10.882000	25.402262	0.000432	20.802401
1067.296402	-3.008400	3.625800	-10.907000	25.391800	0.000430	20.790947
1068.297197	-2.981100	3.625900	-10.807000	25.428780	0.000429	20.802475
1069.296208	-3.044800	3.624600	-11.035000	25.417496	0.000430	20.775024
1070.296503	-2.993100	3.626300	-10.853000	25.402633	0.000430	20.783333
1071.295729	-2.994300	3.624700	-10.853000	25.386976	0.000427	20.783732
1072.300198	-2.984000	3.624900	-10.815000	25.382650	0.000427	20.762318
1073.299037	-2.983400	3.624600	-10.812000	25.414317	0.000429	20.782737
1074.299560	-2.982900	3.624000	-10.809000	25.417173	0.000426	20.778492
1075.296643	-2.990600	3.624800	-10.839000	25.422367	0.000427	20.770431
1076.298687	-3.026500	3.621800	-10.960000	25.417049	0.000425	20.774100
1077.297541	-2.995100	3.623900	-10.853000	25.438525	0.000426	20.796140
1078.299117	-2.985700	3.624000	-10.819000	25.432063	0.000424	20.800556
1079.298676	-2.999000	3.622300	-10.862000	25.425430	0.000425	20.778723
1080.298642	-2.991700	3.623300	-10.839000	25.403632	0.000426	20.783861
1081.299812	-3.014900	3.621400	-10.917000	25.440193	0.000423	20.789281
1082.305449	-2.988000	3.621700	-10.821000	25.407338	0.000421	20.779048
1083.302877	-3.037000	3.619800	-10.993000	25.437237	0.000421	20.789631
1084.300662	-3.006000	3.621000	-10.883000	25.470863	0.000422	20.793526
1085.302418	-2.989900	3.620100	-10.822000	25.490793	0.000423	20.784616
1086.300011	-2.994600	3.619400	-10.838000	25.451506	0.000422	20.771717
1087.300854	-3.015900	3.618100	-10.910000	25.438013	0.000420	20.761960
1088.301741	-3.008700	3.620300	-10.892000	25.430361	0.000422	20.776563
1089.303117	-3.008900	3.619000	-10.889000	25.434512	0.000422	20.768402
1090.304930	-3.001700	3.618000	-10.859000	25.431607	0.000422	20.801047
1091.300944	-3.007200	3.617700	-10.879000	25.478454	0.000422	20.777915
1092.305133	-2.970600	3.618900	-10.749000	25.467844	0.000420	20.778640
1093.303074	-2.998800	3.618200	-10.850000	25.508131	0.000422	20.782113
1094.304373	-3.015300	3.616900	-10.905000	25.517525	0.000419	20.776848
1095.300258	-2.993100	3.618400	-10.829000	25.507466	0.000420	20.775281
1096.304544	-3.002000	3.617700	-10.859000	25.442428	0.000421	20.780619
1097.302413	-3.011100	3.615300	-10.885000	25.418873	0.000419	20.778777
1098.305492	-2.964500	3.618000	-10.724000	25.385176	0.000419	20.784770
1099.308844	-2.983300	3.617500	-10.792000	25.404338	0.000420	20.778407
1100.306067	-3.005400	3.615800	-10.866000	25.423352	0.000420	20.783275
1101.314770	-3.018000	3.614600	-10.908000	25.418680	0.000420	20.777161
1102.307142	-3.014000	3.615100	-10.895000	25.429095	0.000419	20.778136
1103.306474	-3.013900	3.614600	-10.893000	25.439956	0.000417	20.776240
1104.308075	-2.983400	3.616000	-10.787000	25.426438	0.000417	20.759820
1105.309595	-3.008100	3.613200	-10.868000	25.459941	0.000416	20.767859
1106.303201	-2.994700	3.613000	-10.819000	25.450796	0.000416	20.808936
1107.308022	-2.995500	3.613400	-10.823000	25.453956	0.000418	20.783186
1108.310331	-3.011100	3.614100	-10.880000	25.443370	0.000416	20.782039
1109.305904	-3.008000	3.612400	-10.865000	25.395555	0.000413	20.785234
1110.307643	-2.998000	3.612800	-10.830000	25.409451	0.000411	20.767893
1111.308387	-2.996900	3.613300	-10.828000	25.443026	0.000413	20.781220
1112.308390	-3.014300	3.611100	-10.884000	25.518304	0.000414	20.783320
1113.304952	-2.984000	3.612000	-10.778000	25.500238	0.000412	20.787463
1114.308117	-3.002800	3.611800	-10.845000	25.488288	0.000412	20.758867
1115.305684	-3.002500	3.611200	-10.841000	25.453971	0.000413	20.789365
1116.308871	-3.003200	3.610600	-10.842000	25.449002	0.000412	20.798126
1117.306465	-2.987600	3.610600	-10.787000	25.456955	0.000411	20.785249
1118.309934	-2.999400	3.610100	-10.828000	25.426243	0.000411	20.778117
1119.307936	-2.997800	3.610100	-10.822000	25.467669	0.000414	20.782258
1120.308835	-2.996700	3.610800	-10.819000	25.446799	0.000413	20.790698
1121.308468	-2.997700	3.610200	-10.821000	25.386015	0.000410	20.793198
1122.305439	-2.977300	3.610200	-10.747000	25.368471	0.000407	20.794075
1123.308031	-3.014800	3.610200	-10.883000	25.385720	0.000408	20.785791
1124.307686	-3.000100	3.609300	-10.828000	25.411422	0.000408	20.776037
1125.313113	-3.012000	3.608600	-10.869000	25.435806	0.000410	20.775866
1126.306639	-3.007700	3.608000	-10.851000	25.484168	0.000408	20.758049
1127.316262	-3.020100	3.608100	-10.896000	25.528579	0.000407	20.799328
1128.311036	-3.010300	3.606500	-10.855000	25.524829	0.000408	20.776596
1129.312231	-3.006500	3.607200	-10.844000	25.536390	0.000408	20.782991
1130.316206	-3.003900	3.605100	-10.829000	25.485249	0.000406	20.790903
1131.315181	-3.000400	3.606900	-10.822000	25.484184	0.000408	20.773712
1132.311460	-2.999400	3.605900	-10.815000	25.484236	0.000406	20.773764
1133.314971	-2.974700	3.606500	-10.728000	25.523082	0.000405	20.780057
1134.314951	-2.975700	3.606800	-10.732000	25.470079	0.000405	20.773298
1135.312592	-2.978200	3.605900	-10.738000	25.495329	0.000405	20.788223
1136.319694	-3.021300	3.604300	-10.889000	25.546623	0.000402	20.796112
1137.314918	-2.996000	3.605300	-10.801000	25.540984	0.000404	20.774803
1138.316602	-2.994000	3.605200	-10.793000	25.538728	0.000402	20.760208
1139.318506	-3.001000	3.604200	-10.815000	25.477921	0.000403	20.798243
1140.317528	-2.952900	3.603600	-10.641000	25.474544	0.000401	20.792007
1141.316747	-2.992000	3.603300	-10.779000	25.433767	0.000401	20.766705
1142.316418	-2.993500	3.603500	-10.787000	25.435408	0.000401	20.791588
1143.318932	-3.003500	3.603000	-10.821000	25.446499	0.000401	20.768585
1144.314895	-2.977800	3.603100	-10.729000	25.516556	0.000400	20.791521
1145.325025	-3.003900	3.602900	-10.822000	25.542702	0.000399	20.775105
1146.315701	-2.988500	3.602200	-10.765000	25.546136	0.000400	20.785666
1147.318683	-2.985300	3.601600	-10.750000	25.481679	0.000401	20.788740
1148.316819	-2.994600	3.601800	-10.786000	25.462621	0.000399	20.785250
1149.319829	-3.001500	3.601200	-10.808000	25.473657	0.000398	20.781633
1150.325605	-2.999600	3.601600	-10.802000	25.463920	0.000398	20.772803
1151.322028	-2.994400	3.600300	-10.780000	25.435221	0.000400	20.783339
1152.321949	-3.009100	3.600100	-10.832000	25.417107	0.000398	20.773211
1153.319251	-3.006600	3.599200	-10.820000	25.400731	0.000399	20.778104
1154.321866	-3.035000	3.597600	-10.917000	25.423921	0.000399	20.775311
1155.323884	-3.012800	3.598000	-10.839000	25.457079	0.000399	20.778735
1156.325875	-2.993500	3.598800	-10.771000	25.468935	0.000397	20.793961
1157.323425	-3.000800	3.598800	-10.798000	25.488396	0.000398	20.781260
1158.323332	-2.986100	3.600300	-10.750000	25.455470	0.000396	20.796560
1159.322785	-2.992500	3.597600	-10.764000	25.475381	0.000395	20.781467
1160.325104	-3.015600	3.597300	-10.847000	25.489796	0.000397	20.785511
1161.326645	-2.986800	3.596700	-10.742000	25.472353	0.000396	20.788858
1162.320867	-3.005200	3.596100	-10.805000	25.510030	0.000394	20.777382
1163.325965	-3.001800	3.596000	-10.794000	25.498630	0.000396	20.792012
1164.325754	-2.990200	3.596300	-10.754000	25.423529	0.000396	20.789142
1165.328378	-3.001800	3.595500	-10.793000	25.463791	0.000393	20.796855
1166.337355	-2.964100	3.595900	-10.657000	25.504079	0.000394	20.788475
1167.326525	-3.005000	3.594900	-10.802000	25.491981	0.000394	20.779645
1168.325541	-2.999800	3.596400	-10.788000	25.462784	0.000392	20.790628
1169.325804	-3.009400	3.595000	-10.818000	25.487488	0.000391	20.796944
1170.328334	-3.015800	3.594000	-10.838000	25.516092	0.000392	20.795797
1171.335368	-3.017100	3.594400	-10.844000	25.502652	0.000391	20.779930
1172.324918	-3.022600	3.593100	-10.859000	25.502583	0.000391	20.777490
1173.327890	-2.976700	3.594700	-10.699000	25.476938	0.000389	20.785402
1174.324998	-2.991700	3.592900	-10.748000	25.472121	0.000389	20.778193
1175.324483	-3.002700	3.593100	-10.788000	25.485764	0.000390	20.786204
1176.326819	-2.982100	3.593000	-10.713000	25.442626	0.000388	20.776550
1177.325520	-3.008400	3.592100	-10.805000	25.405699	0.000389	20.789730
1178.324259	-2.994200	3.591200	-10.752000	25.388057	0.000389	20.777706
1179.334254	-2.997400	3.592600	-10.767000	25.380357	0.000386	20.782776
1180.323974	-2.996700	3.591200	-10.761000	25.419898	0.000388	20.794505
1181.345015	-3.014600	3.591700	-10.826000	25.447590	0.000388	20.793863
1182.325974	-3.004400	3.590900	-10.788000	25.470357	0.000387	20.793017
1183.328061	-2.977800	3.590800	-10.691000	25.469168	0.000387	20.794669
1184.328198	-2.994100	3.589600	-10.747000	25.529632	0.000387	20.782843
1185.328810	-3.014000	3.588800	-10.815000	25.542704	0.000386	20.786487
1186.330464	-2.993600	3.590700	-10.749000	25.521139	0.000386	20.784271
1187.329647	-2.964300	3.590500	-10.643000	25.488489	0.000385	20.796527
1188.329582	-2.993700	3.587700	-10.740000	25.492023	0.000384	20.788696
1189.328384	-2.993600	3.588800	-10.742000	25.473784	0.000385	20.793614
1190.333115	-2.998700	3.588300	-10.759000	25.452591	0.000382	20.764272
1191.330654	-3.002400	3.587900	-10.771000	25.468648	0.000382	20.805526
1192.333538	-3.025100	3.587300	-10.851000	25.460772	0.000383	20.789083
1193.331017	-3.011900	3.587200	-10.803000	25.437688	0.000384	20.781074
1194.335861	-3.001800	3.585100	-10.761000	25.487247	0.000382	20.791487
1195.338481	-2.985800	3.587800	-10.712000	25.532926	0.000384	20.803694
1196.332302	-2.993900	3.586300	-10.736000	25.540881	0.000382	20.793665
1197.338264	-2.995000	3.585900	-10.739000	25.572767	0.000382	20.792971
1198.339382	-3.001500	3.586300	-10.763000	25.587601	0.000382	20.796014
1199.335357	-3.016100	3.584400	-10.810000	25.553388	0.000381	20.801958
1200.334107	-2.972700	3.586800	-10.661000	25.510552	0.000381	20.791657
1201.335659	-3.036000	3.584700	-10.881000	25.486722	0.000378	20.802339
1202.345898	-3.007800	3.584500	-10.780000	25.490357	0.000379	20.787023
1203.332525	-2.993600	3.584300	-10.729000	25.513221	0.000380	20.800501
1204.337590	-3.009300	3.583300	-10.783000	25.533502	0.000379	20.788151
1205.337927	-3.017200	3.584600	-10.814000	25.583104	0.000380	20.796240
1206.336347	-2.945900	3.584100	-10.558000	25.556023	0.000378	20.798914
1207.335634	-2.968800	3.584800	-10.642000	25.497677	0.000378	20.807176
1208.337716	-2.997700	3.583000	-10.739000	25.485555	0.000378	20.798322
1209.339359	-2.977000	3.583500	-10.667000	25.515628	0.000377	20.810504
1210.336935	-3.003700	3.580800	-10.755000	25.490107	0.000376	20.800997
1211.339211	-2.998000	3.583300	-10.742000	25.424650	0.000374	20.787897
1212.338267	-3.003800	3.581900	-10.759000	25.422517	0.000377	20.809463
1213.341681	-3.033700	3.580500	-10.861000	25.442951	0.000376	20.811964
1214.338066	-3.008900	3.581600	-10.776000	25.458187	0.000376	20.798340
1215.339550	-2.997700	3.581000	-10.734000	25.495118	0.000377	20.798917
1216.340494	-2.999200	3.580500	-10.737000	25.552276	0.000375	20.823126
1217.340008	-2.995400	3.579500	-10.721000	25.513066	0.000375	20.808406
1218.338673	-2.963800	3.579400	-10.608000	25.466723	0.000373	20.786998
1219.340061	-2.997000	3.580100	-10.728000	25.475571	0.000372	20.796357
1220.335982	-2.981800	3.578900	-10.670000	25.520652	0.000374	20.804644
1221.350115	-2.998900	3.579900	-10.734000	25.547965	0.000373	20.820219
1222.337233	-2.992600	3.578300	-10.707000	25.535196	0.000373	20.819249
1223.341576	-2.994200	3.578800	-10.714000	25.540389	0.000370	20.799809
1224.339841	-3.002500	3.577800	-10.742000	25.536816	0.000372	20.808549
1225.340794	-3.007900	3.576800	-10.757000	25.514455	0.000371	20.821180
1226.343254	-3.011800	3.576600	-10.771000	25.533819	0.000373	20.801746
1227.337171	-2.986200	3.577600	-10.682000	25.531033	0.000371	20.794206
1228.345452	-3.007500	3.576900	-10.756000	25.536353	0.000370	20.811877
1229.339371	-3.023200	3.575700	-10.809000	25.587794	0.000371	20.822287
1230.341397	-2.989900	3.576700	-10.693000	25.603031	0.000369	20.821943
1231.339588	-3.003100	3.575300	-10.736000	25.542130	0.000369	20.826687
1232.345297	-3.001000	3.575500	-10.729000	25.568644	0.000369	20.822020
1233.340158	-2.997600	3.575000	-10.716000	25.542232	0.000368	20.806875
1234.342851	-3.012800	3.573700	-10.765000	25.564348	0.000368	20.825767
1235.343954	-3.002600	3.574900	-10.734000	25.560725	0.000369	20.820706
1236.343972	-3.033400	3.572400	-10.836000	25.604287	0.000366	20.826997
1237.344240	-3.007800	3.573000	-10.746000	25.608966	0.000369	20.823161
1238.342793	-3.013600	3.572700	-10.766000	25.593262	0.000366	20.824933
1239.341176	-2.994100	3.574500	-10.701000	25.560019	0.000367	20.809092
1240.344558	-2.992800	3.572600	-10.691000	25.575303	0.000368	20.818751
1241.344172	-2.992500	3.573100	-10.691000	25.608450	0.000367	20.824540
1242.340203	-2.973600	3.572500	-10.623000	25.612804	0.000368	20.823223
1243.344254	-2.989200	3.572600	-10.679000	25.631291	0.000364	20.825194
1244.343644	-2.980900	3.572300	-10.648000	25.624040	0.000363	20.826446
1245.347628	-3.005300	3.571900	-10.733000	25.620738	0.000365	20.815070
1246.346234	-2.993100	3.571400	-10.688000	25.609935	0.000364	20.819393
1247.347804	-2.985800	3.572300	-10.666000	25.593957	0.000364	20.811407
1248.352163	-2.976000	3.570500	-10.624000	25.606063	0.000365	20.841582
1249.341866	-2.985800	3.571300	-10.662000	25.571277	0.000362	20.817079
1250.345325	-2.984600	3.570800	-10.657000	25.568842	0.000363	20.833125
1251.343750	-3.027100	3.568300	-10.799000	25.515716	0.000364	20.820549
1252.345787	-2.993500	3.570600	-10.687000	25.547529	0.000364	20.843014
1253.344591	-2.990900	3.569400	-10.675000	25.522854	0.000361	20.809700
1254.349299	-2.986300	3.569500	-10.659000	25.474743	0.000363	20.837724
1255.345722	-2.994300	3.568100	-10.683000	25.450517	0.000361	20.816242
1256.346456	-2.997800	3.566600	-10.691000	25.447835	0.000361	20.835834
1257.346487	-2.996000	3.567500	-10.688000	25.429645	0.000361	20.840328
1258.348538	-2.984700	3.568400	-10.650000	25.442993	0.000360	20.828601
1259.353226	-3.004700	3.567000	-10.717000	25.493420	0.000360	20.837514
1260.353392	-3.006800	3.565900	-10.721000	25.492127	0.000361	20.834793
1261.357079	-2.986400	3.566600	-10.650000	25.492278	0.000358	20.824988
1262.347419	-3.015300	3.566300	-10.753000	25.478166	0.000361	20.840213
1263.357605	-2.999000	3.566200	-10.694000	25.510002	0.000358	20.821449
1264.358036	-2.989400	3.565700	-10.658000	25.516266	0.000358	20.840068
1265.350837	-2.985400	3.566200	-10.646000	25.536198	0.000358	20.849179
1266.347842	-2.996800	3.564200	-10.680000	25.533295	0.000358	20.837254
1267.353442	-3.007700	3.563900	-10.718000	25.531311	0.000358	20.851383
1268.349124	-2.997000	3.564000	-10.680000	25.528231	0.000357	20.839756
1269.349189	-2.984100	3.563400	-10.633000	25.541050	0.000358	20.828921
1270.349321	-2.997800	3.564900	-10.686000	25.538970	0.000357	20.851014
1271.352163	-3.008900	3.563500	-10.721000	25.556739	0.000355	20.847996
1272.353214	-3.007500	3.562000	-10.712000	25.558856	0.000355	20.845381
1273.349703	-3.014700	3.563700	-10.743000	25.555977	0.000356	20.854817
1274.356058	-3.021700	3.562400	-10.762000	25.543730	0.000357	20.852000
1275.356701	-3.028600	3.561900	-10.787000	25.555533	0.000357	20.838725
1276.356274	-2.968500	3.563600	-10.578000	25.572410	0.000354	20.849035
1277.356372	-3.001200	3.562300	-10.690000	25.586824	0.000355	20.861139
1278.352597	-2.984600	3.560800	-10.626000	25.616073	0.000352	20.853532
1279.356354	-2.996700	3.560500	-10.668000	25.653073	0.000355	20.832847
1280.357853	-2.993900	3.560700	-10.659000	25.644505	0.000353	20.849845
1281.355846	-3.016100	3.560300	-10.737000	25.624060	0.000354	20.845906
1282.355217	-3.016400	3.560600	-10.739000	25.548249	0.000353	20.841366
1283.360386	-2.987200	3.560800	-10.635000	25.555933	0.000352	20.878005
1284.360301	-2.988900	3.558800	-10.637000	25.628911	0.000350	20.859787
1285.359714	-3.002300	3.557600	-10.680000	25.639029	0.000353	20.846242
1286.361231	-2.996500	3.559000	-10.664000	25.631701	0.000351	20.860218
1287.361064	-2.996000	3.558100	-10.659000	25.681943	0.000353	20.860419
1288.361535	-3.016300	3.556500	-10.726000	25.638986	0.000351	20.854733
1289.360459	-2.992200	3.557600	-10.644000	25.611283	0.000349	20.870057
1290.368521	-3.017000	3.556800	-10.730000	25.596799	0.000350	20.840339
1291.362952	-3.010400	3.556900	-10.707000	25.635586	0.000348	20.857482
1292.362227	-3.018100	3.556800	-10.733000	25.621451	0.000349	20.880268
1293.361849	-3.003400	3.556400	-10.680000	25.587015	0.000346	20.835254
1294.358702	-3.016300	3.554600	-10.721000	25.591690	0.000348	20.854173
1295.359179	-3.006100	3.555200	-10.686000	25.567192	0.000346	20.857071
1296.365899	-2.994500	3.555100	-10.644000	25.616018	0.000348	20.856321
1297.361261	-2.980600	3.554700	-10.593000	25.670559	0.000347	20.854202
1298.359431	-2.992500	3.554100	-10.634000	25.659384	0.000347	20.845348
1299.361074	-3.002700	3.554200	-10.671000	25.655956	0.000345	20.866086
1300.362522	-3.008600	3.554100	-10.691000	25.715213	0.000345	20.883877
1301.363926	-2.977100	3.553400	-10.578000	25.678024	0.000344	20.869759
1302.371605	-3.031700	3.551800	-10.767000	25.611138	0.000347	20.864696
1303.362763	-2.993600	3.553300	-10.636000	25.596925	0.000343	20.867017
1304.361302	-2.994100	3.553000	-10.637000	25.550536	0.000343	20.873060
1305.362983	-3.020300	3.552100	-10.728000	25.571335	0.000344	20.867395
1306.363491	-3.020400	3.552600	-10.729000	25.603017	0.000341	20.882616
1307.359664	-3.014200	3.552200	-10.706000	25.627693	0.000342	20.870417
1308.367306	-2.982800	3.551500	-10.591000	25.665763	0.000344	20.889685
1309.373060	-3.016400	3.551200	-10.711000	25.641486	0.000341	20.875734
1310.363490	-3.006500	3.551200	-10.675000	25.627647	0.000342	20.891706
1311.368194	-2.975500	3.552600	-10.570000	25.618828	0.000340	20.875264
1312.365682	-2.979100	3.550200	-10.575000	25.584219	0.000341	20.878437
1313.359246	-3.009100	3.550200	-10.682000	25.577162	0.000341	20.865187
1314.371363	-2.971500	3.550500	-10.549000	25.633122	0.000340	20.890092
1315.361094	-2.990200	3.549300	-10.613000	25.634193	0.000340	20.878841
1316.362978	-2.983700	3.549000	-10.588000	25.646517	0.000339	20.891691
1317.364310	-3.014900	3.549300	-10.700000	25.661701	0.000341	20.885131
1318.361959	-2.988700	3.548500	-10.604000	25.640404	0.000340	20.891716
1319.370795	-3.011300	3.548200	-10.683000	25.630099	0.000339	20.871410
1320.366216	-3.018600	3.547900	-10.709000	25.634573	0.000336	20.876378
1321.367867	-2.979600	3.547500	-10.570000	25.670082	0.000337	20.855619
1322.373656	-2.999300	3.546700	-10.637000	25.638600	0.000339	20.874732
1323.366331	-2.966700	3.547700	-10.524000	25.664272	0.000338	20.872542
1324.364930	-2.997000	3.547300	-10.630000	25.642257	0.000339	20.884569
1325.369981	-2.970000	3.546800	-10.533000	25.641760	0.000338	20.885966
1326.365411	-2.983400	3.547000	-10.581000	25.679030	0.000337	20.894001
1327.364996	-2.995100	3.545500	-10.618000	25.689145	0.000337	20.858170
1328.369239	-3.020700	3.544600	-10.707000	25.644451	0.000335	20.859274
1329.368850	-3.021600	3.544900	-10.709000	25.663561	0.000336	20.868508
1330.367554	-2.998800	3.543800	-10.627000	25.629323	0.000336	20.875372
1331.365519	-2.999600	3.544200	-10.631000	25.635506	0.000336	20.867358
1332.370233	-2.985200	3.545000	-10.582000	25.585342	0.000334	20.879091
1333.370771	-3.017100	3.541900	-10.685000	25.538605	0.000335	20.852069
1334.367965	-2.999800	3.543200	-10.628000	25.569642	0.000334	20.853842
1335.364461	-3.027700	3.542400	-10.725000	25.630274	0.000333	20.874905
1336.369510	-2.989000	3.543200	-10.590000	25.615043	0.000334	20.851075
1337.368786	-2.981700	3.543500	-10.565000	25.590522	0.000332	20.850155
1338.368068	-2.993800	3.542200	-10.604000	25.637560	0.000335	20.853775
1339.370342	-3.014700	3.540700	-10.674000	25.676226	0.000333	20.847565
1340.369120	-3.002400	3.541400	-10.632000	25.694112	0.000332	20.858891
1341.372585	-3.000200	3.541700	-10.625000	25.646635	0.000333	20.870949
1342.366111	-2.982300	3.539600	-10.555000	25.650856	0.000333	20.871395
1343.370349	-2.990500	3.541800	-10.591000	25.626014	0.000335	20.849766
1344.370531	-3.002600	3.540100	-10.628000	25.655063	0.000334	20.854284
1345.373942	-3.007300	3.538900	-10.642000	25.661305	0.000332	20.843959
1346.366425	-2.989000	3.538300	-10.576000	25.651990	0.000331	20.848828
1347.371344	-3.002300	3.539400	-10.626000	25.630619	0.000333	20.855813
1348.373179	-2.984900	3.538700	-10.562000	25.615494	0.000332	20.837778
1349.368805	-2.998700	3.537800	-10.608000	25.639896	0.000331	20.844741
1350.373439	-3.011700	3.537300	-10.651000	25.640815	0.000330	20.851828
1351.369453	-3.009700	3.536800	-10.644000	25.636989	0.000330	20.853675
1352.369853	-3.010800	3.537000	-10.649000	25.634480	0.000329	20.830768
1353.371298	-3.007000	3.536400	-10.633000	25.605756	0.000333	20.836532
1354.376070	-2.981000	3.536800	-10.542000	25.574723	0.000332	20.853728
1355.372267	-2.996000	3.535800	-10.593000	25.632345	0.000331	20.854227
1356.372661	-2.998000	3.535600	-10.599000	25.650831	0.000331	20.819690
1357.377034	-3.025000	3.535200	-10.694000	25.637760	0.000331	20.843545
1358.370538	-3.013000	3.534300	-10.648000	25.613560	0.000331	20.832042
1359.376484	-2.997300	3.534900	-10.593000	25.579419	0.000333	20.825730
1360.373670	-2.998300	3.535000	-10.598000	25.570498	0.000330	20.829098
1361.375306	-2.999100	3.534900	-10.601000	25.605157	0.000328	20.844465
1362.376997	-3.026800	3.532600	-10.691000	25.663747	0.000330	20.835506
1363.379064	-3.017000	3.534600	-10.663000	25.649309	0.000328	20.851351
1364.383101	-3.026100	3.532100	-10.688000	25.621723	0.000330	20.838344
1365.376424	-2.997200	3.533900	-10.591000	25.640110	0.000328	20.805603
1366.374833	-3.001000	3.532500	-10.600000	25.665456	0.000331	20.829162
1367.375065	-3.011600	3.533000	-10.639000	25.652903	0.000328	20.822719
1368.375391	-2.993700	3.532200	-10.573000	25.642119	0.000328	20.829431
1369.376433	-3.020500	3.531400	-10.666000	25.639582	0.000329	20.833521
1370.375501	-3.016600	3.531800	-10.652000	25.672798	0.000327	20.831321
1371.376793	-3.010000	3.531100	-10.629000	25.673911	0.000325	20.850930
1372.376269	-2.993700	3.531600	-10.571000	25.641710	0.000326	20.844667
1373.380186	-3.006300	3.531000	-10.614000	25.653386	0.000326	20.845488
1374.380056	-3.007500	3.530200	-10.616000	25.685061	0.000326	20.835577
1375.375733	-2.991500	3.529300	-10.557000	25.688116	0.000324	20.832007
1376.380091	-3.021700	3.529300	-10.663000	25.662021	0.000325	20.822394
1377.380714	-3.033200	3.528800	-10.702000	25.650018	0.000324	20.816502
1378.378782	-3.026600	3.528500	-10.679000	25.638113	0.000323	20.833943
1379.377374	-2.981600	3.528500	-10.519000	25.651054	0.000324	20.829396
1380.383325	-2.981500	3.527600	-10.516000	25.682060	0.000321	20.803166
1381.381443	-2.996200	3.528800	-10.573000	25.712220	0.000320	20.838200
1382.379798	-3.037700	3.526900	-10.713000	25.793684	0.000321	20.833731
1383.383179	-3.005100	3.527600	-10.600000	25.800986	0.000319	20.820204
1384.379512	-3.018400	3.526200	-10.643000	25.760314	0.000319	20.846204
1385.380611	-3.012500	3.526300	-10.622000	25.752662	0.000322	20.822398
1386.379516	-3.021400	3.525700	-10.652000	25.766098	0.000320	20.833522
1387.381473	-3.022000	3.525500	-10.653000	25.763044	0.000320	20.833299
1388.381102	-2.995500	3.524700	-10.557000	25.716578	0.000319	20.836413
1389.380688	-2.993500	3.524900	-10.550000	25.706091	0.000317	20.823035
1390.381430	-2.994300	3.523200	-10.548000	25.716702	0.000319	20.827054
1391.381413	-2.997100	3.524200	-10.562000	25.710882	0.000317	20.829270
1392.383888	-2.999200	3.523700	-10.568000	25.749591	0.000318	20.814571
1393.381684	-2.999600	3.523800	-10.569000	25.746558	0.000316	20.838551
1394.381393	-3.011300	3.523400	-10.609000	25.751800	0.000317	20.820109
1395.383280	-3.018800	3.522900	-10.633000	25.790701	0.000316	20.835476
1396.385069	-2.999800	3.522500	-10.566000	25.796492	0.000316	20.819957
1397.381397	-2.996000	3.522800	-10.554000	25.771619	0.000315	20.831481
1398.380141	-3.015500	3.522100	-10.620000	25.773930	0.000315	20.826216
1399.380707	-2.996400	3.521700	-10.552000	25.795690	0.000316	20.817254
1400.401258	-2.986700	3.522800	-10.521000	25.824060	0.000315	20.832476
1401.383751	-2.986200	3.521500	-10.515000	25.806099	0.000315	20.815856
1402.387517	-3.002900	3.520400	-10.571000	25.738347	0.000315	20.799958
1403.384238	-3.002400	3.521000	-10.570000	25.747041	0.000314	20.825286
1404.384944	-2.989600	3.520500	-10.524000	25.725971	0.000315	20.813132
1405.386455	-2.998900	3.519600	-10.554000	25.736455	0.000313	20.815602
1406.385613	-3.004400	3.519400	-10.572000	25.743762	0.000312	20.822466
1407.387092	-2.984400	3.519700	-10.503000	25.783216	0.000312	20.829854
1408.383461	-3.004100	3.518400	-10.569000	25.814715	0.000313	20.795588
1409.383686	-2.995800	3.518200	-10.538000	25.819235	0.000312	20.817672
1410.383788	-3.003500	3.518400	-10.567000	25.727261	0.000312	20.812056
1411.387432	-2.985200	3.517500	-10.498000	25.705299	0.000312	20.823188
1412.385736	-3.010500	3.516300	-10.585000	25.736727	0.000311	20.813978
1413.392847	-3.006200	3.517500	-10.574000	25.735483	0.000311	20.833591
1414.386541	-2.996400	3.516200	-10.535000	25.715709	0.000313	20.802350
1415.385991	-2.961500	3.517400	-10.416000	25.743487	0.000310	20.811759
1416.391526	-2.980500	3.515600	-10.477000	25.753717	0.000310	20.800698
1417.386987	-3.000800	3.514800	-10.546000	25.733690	0.000309	20.809979
1418.383842	-3.010500	3.515300	-10.581000	25.706311	0.000309	20.818988
1419.388024	-3.016000	3.513900	-10.597000	25.750885	0.000308	20.822983
1420.389359	-3.006300	3.514800	-10.566000	25.758712	0.000309	20.809983
1421.387804	-2.997800	3.513300	-10.532000	25.799008	0.000307	20.811579
1422.388825	-3.017700	3.513300	-10.602000	25.818263	0.000306	20.807212
1423.391872	-2.967500	3.514400	-10.428000	25.797888	0.000308	20.801445
1424.389361	-2.999700	3.513800	-10.538000	25.729713	0.000310	20.815468
1425.394066	-2.988500	3.513000	-10.498000	25.704493	0.000306	20.797248
1426.393059	-2.976500	3.513900	-10.458000	25.691824	0.000306	20.793059
1427.390235	-2.994900	3.511900	-10.517000	25.726757	0.000305	20.788791
1428.393179	-2.995700	3.510600	-10.516000	25.755549	0.000308	20.793529
1429.392153	-3.016400	3.510800	-10.588000	25.735600	0.000306	20.818061
1430.387400	-3.003900	3.510900	-10.545000	25.715276	0.000306	20.812347
1431.394124	-3.021700	3.510100	-10.605000	25.721938	0.000305	20.798649
1432.391958	-2.977400	3.511700	-10.454000	25.699744	0.000305	20.818557
1433.391894	-3.002500	3.509700	-10.537000	25.666300	0.000304	20.805355
1434.396671	-3.014800	3.510100	-10.580000	25.659568	0.000303	20.798119
1435.393199	-2.984600	3.510900	-10.478000	25.670821	0.000304	20.798515
1436.387141	-2.986500	3.509200	-10.479000	25.687519	0.000301	20.802485
1437.394590	-3.006300	3.507800	-10.544000	25.708266	0.000301	20.795348
1438.391659	-2.976700	3.508100	-10.442000	25.771148	0.000302	20.809198
1439.388057	-2.992100	3.508800	-10.498000	25.795169	0.000302	20.794446
1440.392390	-2.999500	3.507000	-10.518000	25.787469	0.000300	20.799039
1441.395304	-3.000400	3.507400	-10.523000	25.764039	0.000301	20.808695
1442.390689	-3.011300	3.506800	-10.558000	25.736562	0.000299	20.795794
1443.395827	-3.001200	3.506300	-10.522000	25.737031	0.000301	20.808119
1444.391705	-2.998200	3.506500	-10.512000	25.780487	0.000300	20.784913
1445.404292	-3.007900	3.506100	-10.545000	25.769429	0.000299	20.799885
1446.395732	-3.008600	3.505000	-10.544000	25.762571	0.000300	20.790151
1447.391688	-2.981400	3.505800	-10.451000	25.722946	0.000298	20.799662
1448.396598	-2.983300	3.506300	-10.459000	25.724532	0.000299	20.782288
1449.392606	-3.002000	3.504100	-10.518000	25.728333	0.000299	20.789425
1450.394059	-2.988000	3.504200	-10.470000	25.723887	0.000298	20.804874
1451.396418	-2.985700	3.505100	-10.464000	25.723041	0.000298	20.813982
1452.394520	-3.030500	3.502400	-10.613000	25.741550	0.000296	20.789425
1453.394552	-3.007200	3.502700	-10.533000	25.663557	0.000296	20.804496
1454.396747	-2.998300	3.502800	-10.502000	25.661249	0.000296	20.772306
1455.397819	-2.997200	3.503300	-10.499000	25.709027	0.000296	20.785207
1456.399160	-3.007000	3.502500	-10.532000	25.753528	0.000298	20.800508
1457.405351	-3.025500	3.501600	-10.593000	25.710472	0.000294	20.804676
1458.396193	-3.022300	3.501500	-10.581000	25.706374	0.000292	20.798664
1459.401857	-2.991300	3.501800	-10.474000	25.723517	0.000292	20.799287
1460.407438	-3.009600	3.501900	-10.538000	25.773061	0.000293	20.781247
1461.398259	-2.983700	3.500500	-10.444000	25.828782	0.000293	20.789330
1462.401348	-2.988200	3.500200	-10.459000	25.873749	0.000295	20.786612
1463.399286	-3.003100	3.500100	-10.510000	25.903636	0.000291	20.794350
1464.402990	-2.993700	3.500700	-10.478000	25.866521	0.000293	20.770816
1465.402076	-3.007300	3.500400	-10.526000	25.808590	0.000293	20.774736
1466.405565	-3.022400	3.497900	-10.571000	25.800742	0.000292	20.808578
1467.405422	-2.996500	3.498900	-10.483000	25.808368	0.000291	20.775936
1468.401573	-2.997700	3.498400	-10.487000	25.762507	0.000291	20.790561
1469.401614	-3.010700	3.498700	-10.532000	25.728202	0.000290	20.800199
1470.405359	-2.987200	3.497300	-10.447000	25.717319	0.000291	20.786424
1471.402161	-2.981500	3.498700	-10.430000	25.754788	0.000289	20.791342
1472.400942	-2.994400	3.497000	-10.470000	25.726665	0.000290	20.782535
1473.405933	-2.990900	3.496700	-10.458000	25.696280	0.000290	20.792319
1474.406787	-3.003700	3.495900	-10.499000	25.693825	0.000290	20.775627
1475.406514	-2.982400	3.496200	-10.426000	25.744734	0.000288	20.767018
1476.407494	-3.004100	3.495300	-10.500000	25.734278	0.000288	20.791604
1477.401816	-3.008800	3.496300	-10.517000	25.713260	0.000289	20.787088
1478.406667	-3.007900	3.494300	-10.509000	25.756070	0.000287	20.782672
1479.405710	-3.004500	3.494400	-10.498000	25.803030	0.000289	20.758246
1480.405894	-3.015900	3.494600	-10.538000	25.742109	0.000285	20.783348
1481.404407	-2.987700	3.495800	-10.443000	25.690932	0.000287	20.763713
1482.407175	-2.989400	3.493900	-10.444000	25.664449	0.000285	20.775046
1483.401190	-2.980400	3.493700	-10.411000	25.652351	0.000284	20.752937
1484.407261	-2.996600	3.492700	-10.465000	25.645868	0.000289	20.738839
1485.409033	-3.018900	3.491300	-10.539000	25.640753	0.000286	20.764523
1486.411937	-2.994200	3.493400	-10.458000	25.692707	0.000284	20.756486
1487.407696	-2.986200	3.492800	-10.429000	25.718227	0.000283	20.781171
1488.412510	-2.979500	3.491200	-10.401000	25.723846	0.000285	20.765952
1489.412840	-3.016300	3.491000	-10.529000	25.774232	0.000284	20.772466
1490.406936	-3.010000	3.490500	-10.506000	25.762459	0.000284	20.782452
1491.415805	-3.002200	3.489500	-10.475000	25.785145	0.000285	20.777264
1492.408516	-3.000900	3.490400	-10.474000	25.736549	0.000283	20.772073
1493.410858	-2.989400	3.490800	-10.435000	25.724286	0.000283	20.765920
1494.406902	-3.003600	3.491400	-10.485000	25.758894	0.000280	20.775552
1495.412117	-3.008900	3.489700	-10.499000	25.742597	0.000283	20.753492
1496.412981	-3.006500	3.489600	-10.490000	25.709606	0.000285	20.750700
1497.407857	-3.009700	3.489700	-10.502000	25.653879	0.000282	20.769171
1498.410265	-3.006800	3.488200	-10.487000	25.698332	0.000282	20.761188
1499.414800	-3.020600	3.487700	-10.534000	25.743901	0.000280	20.761914
1500.414659	-2.988000	3.488300	-10.422000	25.703779	0.000282	20.758124
1501.408162	-2.994600	3.487700	-10.443000	25.701668	0.000282	20.753159
1502.414215	-3.020600	3.486700	-10.531000	25.731884	0.000279	20.756008
1503.409187	-2.990000	3.488100	-10.429000	25.769451	0.000280	20.759129
1504.413340	-2.995400	3.486400	-10.442000	25.801352	0.000281	20.755137
1505.415079	-3.014200	3.485500	-10.505000	25.858269	0.000279	20.738343
1506.415509	-3.018200	3.485200	-10.518000	25.841354	0.000280	20.751223
1507.411597	-2.993000	3.485100	-10.429000	25.829578	0.000279	20.755516
1508.415115	-3.015200	3.485800	-10.509000	25.779994	0.000277	20.757391
1509.417875	-3.027900	3.484400	-10.549000	25.750336	0.000276	20.761740
1510.418186	-3.001100	3.483500	-10.453000	25.765516	0.000279	20.758969
1511.417555	-3.015000	3.483000	-10.500000	25.752823	0.000278	20.770402
1512.420578	-3.003900	3.483100	-10.461000	25.759633	0.000279	20.777242
1513.417733	-2.996700	3.483000	-10.437000	25.766964	0.000278	20.755208
1514.414763	-3.004200	3.483600	-10.465000	25.773329	0.000278	20.759705
1515.422913	-3.002700	3.482100	-10.455000	25.768433	0.000278	20.759528
1516.417144	-2.986700	3.483000	-10.402000	25.760292	0.000278	20.753722
1517.419131	-3.013100	3.481500	-10.489000	25.709753	0.000274	20.767444
1518.422270	-2.975900	3.483000	-10.363000	25.691346	0.000274	20.752274
1519.422441	-2.990200	3.481100	-10.408000	25.698505	0.000277	20.766577
1520.418655	-2.983700	3.481300	-10.386000	25.731447	0.000276	20.750827
1521.420531	-2.979500	3.480200	-10.369000	25.775725	0.000276	20.747886
1522.423402	-3.006800	3.481000	-10.466000	25.768422	0.000276	20.741025
1523.418017	-3.012500	3.480000	-10.483000	25.767009	0.000275	20.738184
1524.418748	-3.008700	3.480000	-10.469000	25.692100	0.000278	20.747816
1525.424563	-3.006000	3.479800	-10.459000	25.718339	0.000276	20.750937
1526.421466	-3.010800	3.478300	-10.471000	25.726688	0.000277	20.765013
1527.425390	-3.005900	3.478300	-10.454000	25.759534	0.000276	20.733520
1528.424392	-3.026400	3.476400	-10.520000	25.794391	0.000275	20.755257
1529.417466	-3.011700	3.478200	-10.474000	25.783510	0.000275	20.764242
1530.419772	-2.999400	3.477800	-10.430000	25.781375	0.000274	20.766839
1531.424286	-3.008400	3.477800	-10.462000	25.798220	0.000273	20.761949
1532.418906	-3.012500	3.477000	-10.472000	25.817003	0.000277	20.759479
1533.417778	-2.992200	3.477700	-10.405000	25.826764	0.000274	20.742257
1534.416781	-3.006600	3.476800	-10.453000	25.852848	0.000275	20.764192
1535.418009	-3.008600	3.476700	-10.459000	25.786814	0.000275	20.774673
1536.418655	-3.001400	3.476000	-10.432000	25.795311	0.000274	20.759500
1537.420651	-3.004600	3.475300	-10.441000	25.832097	0.000276	20.768003
1538.419101	-2.999300	3.476400	-10.425000	25.821938	0.000272	20.748789
1539.419224	-3.009500	3.475000	-10.457000	25.810504	0.000273	20.748208
1540.422412	-3.020400	3.474200	-10.493000	25.813836	0.000272	20.755349
1541.419086	-3.004200	3.473900	-10.436000	25.833312	0.000271	20.763060
1542.418677	-2.987200	3.474200	-10.377000	25.847000	0.000270	20.753577
1543.420663	-2.967200	3.474800	-10.310000	25.795818	0.000270	20.783244
1544.420486	-2.987200	3.474000	-10.377000	25.779920	0.000269	20.763955
1545.420071	-2.999800	3.473100	-10.418000	25.711596	0.000269	20.775459
1546.421395	-2.993300	3.473700	-10.396000	25.715894	0.000271	20.762232
1547.426142	-2.999300	3.472100	-10.413000	25.758104	0.000268	20.762904
1548.424999	-2.975300	3.472700	-10.331000	25.759742	0.000270	20.765498
1549.421238	-3.018500	3.471500	-10.477000	25.751619	0.000270	20.769192
1550.425622	-3.006200	3.472400	-10.438000	25.817601	0.000268	20.757235
1551.424323	-3.024600	3.469700	-10.493000	25.807886	0.000267	20.769288
1552.425487	-2.983500	3.471800	-10.357000	25.793947	0.000267	20.777571
1553.427523	-3.002000	3.471200	-10.419000	25.841125	0.000266	20.763796
1554.424263	-3.013400	3.470400	-10.457000	25.874038	0.000266	20.784058
1555.426888	-3.000900	3.469600	-10.412000	25.816404	0.000267	20.769309
1556.424261	-3.014700	3.469300	-10.459000	25.773643	0.000268	20.760969
1557.424213	-3.008500	3.470800	-10.441000	25.809616	0.000266	20.776241
1558.422756	-2.999900	3.468500	-10.404000	25.773766	0.000266	20.773421
1559.420355	-3.010700	3.467900	-10.440000	25.765688	0.000265	20.760565
1560.420598	-2.982900	3.468900	-10.346000	25.822903	0.000267	20.773467
1561.424184	-3.010900	3.468400	-10.442000	25.846602	0.000268	20.765031
1562.425428	-3.002100	3.466900	-10.407000	25.832615	0.000265	20.783223
1563.432476	-2.992200	3.467000	-10.372000	25.801905	0.000264	20.773711
1564.428749	-3.009100	3.466300	-10.430000	25.818870	0.000264	20.786011
1565.425946	-2.995900	3.466200	-10.384000	25.774524	0.000263	20.775604
1566.432262	-2.974700	3.467600	-10.313000	25.776162	0.000261	20.766344
1567.425911	-3.025800	3.465100	-10.484000	25.752383	0.000262	20.776124
1568.432745	-3.043900	3.463500	-10.541000	25.734889	0.000261	20.766613
1569.432983	-2.985200	3.465800	-10.345000	25.759087	0.000261	20.782858
1570.428551	-3.015000	3.464500	-10.445000	25.789048	0.000262	20.796832
1571.429302	-3.017400	3.464700	-10.453000	25.807605	0.000260	20.780859
1572.434404	-3.011300	3.465200	-10.434000	25.816126	0.000259	20.777565
1573.430177	-2.999400	3.463900	-10.389000	25.849410	0.000261	20.749359
1574.432341	-3.006200	3.463700	-10.412000	25.825390	0.000259	20.774069
1575.430507	-3.014500	3.463300	-10.439000	25.819694	0.000261	20.789210
1576.427960	-3.015700	3.463600	-10.445000	25.765189	0.000259	20.797996
1577.430792	-3.000800	3.464100	-10.394000	25.773340	0.000260	20.800494
1578.429287	-3.007100	3.463000	-10.413000	25.804093	0.000258	20.764055
1579.432807	-3.028000	3.462100	-10.482000	25.828441	0.000257	20.814591
1580.434821	-3.003800	3.461400	-10.396000	25.866772	0.000256	20.778655
1581.429502	-3.010700	3.460700	-10.419000	25.901055	0.000258	20.805034
1582.435080	-3.006300	3.461200	-10.405000	25.911562	0.000255	20.787140
1583.431109	-3.003400	3.460400	-10.392000	25.897850	0.000253	20.791383
1584.432199	-3.018900	3.460600	-10.447000	25.877508	0.000256	20.806984
1585.431049	-3.018900	3.460500	-10.446000	25.825387	0.000255	20.798721
1586.439023	-2.999300	3.460100	-10.377000	25.779177	0.000254	20.796874
1587.429782	-2.998000	3.459500	-10.371000	25.764572	0.000254	20.807808
1588.437086	-2.989600	3.459700	-10.342000	25.786909	0.000252	20.793736
1589.437947	-2.982600	3.459000	-10.316000	25.817394	0.000254	20.795434
1590.435554	-2.990100	3.458500	-10.340000	25.855331	0.000252	20.800352
1591.437981	-2.994500	3.458100	-10.355000	25.889266	0.000254	20.779914
1592.435513	-3.004700	3.458600	-10.390000	25.940391	0.000253	20.774851
1593.434347	-2.987800	3.457900	-10.330000	25.935276	0.000251	20.784412
1594.432963	-2.983800	3.457400	-10.315000	25.922635	0.000250	20.795420
1595.443208	-3.002900	3.456300	-10.378000	25.900030	0.000250	20.789779
1596.437811	-2.995100	3.456600	-10.352000	25.901026	0.000250	20.798841
1597.435771	-3.009500	3.455600	-10.398000	25.896183	0.000250	20.794924
1598.437407	-3.050600	3.454500	-10.537000	25.881379	0.000249	20.801389
1599.435828	-3.011100	3.455400	-10.404000	25.860713	0.000250	20.788215
1600.435190	-3.003700	3.455800	-10.379000	25.868441	0.000248	20.781280
1601.436133	-2.984900	3.455900	-10.315000	25.899251	0.000245	20.805593
1602.440040	-3.014100	3.453100	-10.407000	25.874433	0.000247	20.795359
1603.433876	-3.010800	3.452400	-10.394000	25.815956	0.000246	20.821491
1604.436925	-3.002100	3.452900	-10.366000	25.793401	0.000248	20.803102
1605.440328	-3.002100	3.453400	-10.367000	25.793253	0.000248	20.795841
1606.436831	-3.010300	3.453300	-10.395000	25.836757	0.000249	20.785013
1607.437379	-2.995200	3.454800	-10.346000	25.891583	0.000247	20.800260
1608.437386	-3.015300	3.452200	-10.409000	25.886842	0.000246	20.809248
1609.439709	-2.974300	3.452900	-10.270000	25.838078	0.000245	20.788236
1610.437804	-2.982300	3.452700	-10.296000	25.819750	0.000248	20.807284
1611.442689	-3.006500	3.451500	-10.376000	25.807876	0.000245	20.783502
1612.441948	-3.012900	3.452300	-10.401000	25.829096	0.000244	20.801025
1613.441028	-2.982100	3.451400	-10.291000	25.786786	0.000246	20.811155
1614.436877	-3.006300	3.451100	-10.374000	25.778194	0.000247	20.789723
1615.440743	-3.005700	3.450800	-10.371000	25.799112	0.000244	20.808363
1616.436831	-3.011100	3.449800	-10.387000	25.820529	0.000244	20.794316
1617.440457	-2.997900	3.449800	-10.341000	25.869618	0.000244	20.801902
1618.442092	-3.003000	3.448800	-10.356000	25.912523	0.000243	20.803753
1619.436880	-3.003300	3.448400	-10.356000	25.951950	0.000243	20.806378
1620.441557	-2.992800	3.447900	-10.317000	25.982803	0.000243	20.840694
1621.442293	-2.992400	3.449400	-10.321000	25.965267	0.000244	20.822128
1622.447453	-2.984500	3.448700	-10.292000	25.954243	0.000242	20.814372
1623.443507	-2.988700	3.449000	-10.307000	25.930370	0.000243	20.815518
1624.442781	-2.998000	3.447900	-10.336000	25.920092	0.000242	20.803771
1625.441028	-2.989300	3.446800	-10.303000	25.890210	0.000241	20.818321
1626.442661	-2.991900	3.447000	-10.312000	25.884771	0.000243	20.788201
1627.440215	-3.010700	3.446200	-10.374000	25.910808	0.000243	20.797762
1628.446644	-3.012200	3.444700	-10.375000	25.923925	0.000241	20.809043
1629.439667	-2.981000	3.446200	-10.272000	25.943800	0.000241	20.781595
1630.446105	-2.990500	3.445700	-10.304000	25.891862	0.000239	20.813342
1631.447321	-2.984700	3.444400	-10.280000	25.914964	0.000242	20.808102
1632.445269	-2.998400	3.445300	-10.330000	25.971928	0.000242	20.798474
1633.442350	-3.008600	3.443800	-10.360000	25.977694	0.000238	20.823706
1634.446066	-2.978000	3.443700	-10.254000	25.988326	0.000239	20.805940
1635.443261	-2.993600	3.443700	-10.308000	25.921484	0.000238	20.802324
1636.440150	-2.990200	3.444600	-10.299000	25.890235	0.000239	20.811708
1637.447276	-2.987200	3.444100	-10.288000	25.904997	0.000241	20.831753
1638.444623	-2.991800	3.443700	-10.302000	25.927507	0.000237	20.816435
1639.444300	-2.998700	3.443600	-10.326000	25.940624	0.000239	20.819655
1640.449714	-3.006000	3.442300	-10.346000	25.955107	0.000238	20.827567
1641.449070	-3.002200	3.441800	-10.332000	25.936433	0.000238	20.804540
1642.447123	-3.011600	3.440800	-10.362000	25.943262	0.000238	20.821832
1643.444638	-3.016400	3.440000	-10.375000	25.957900	0.000236	20.822313
1644.449148	-2.987400	3.440800	-10.278000	25.912172	0.000235	20.832323
1645.444849	-2.992800	3.441900	-10.300000	25.933017	0.000235	20.793047
1646.448811	-2.988300	3.440400	-10.281000	25.954255	0.000236	20.831453
1647.447311	-2.992400	3.439500	-10.292000	25.976265	0.000236	20.827012
1648.447897	-3.010200	3.439000	-10.351000	25.992618	0.000235	20.803613
1649.444805	-3.015900	3.438600	-10.369000	26.003025	0.000238	20.810276
1650.446702	-3.017500	3.437600	-10.371000	25.925923	0.000235	20.818163
1651.449693	-2.994500	3.439600	-10.299000	25.910947	0.000233	20.842946
1652.449151	-3.009600	3.438400	-10.347000	25.884044	0.000238	20.805963
1653.451186	-3.006500	3.438700	-10.338000	25.871078	0.000234	20.828499
1654.451090	-2.993900	3.437700	-10.291000	25.841916	0.000233	20.816274
1655.448768	-3.017100	3.437200	-10.370000	25.860677	0.000235	20.822318
1656.450101	-3.018200	3.437300	-10.374000	25.901642	0.000234	20.825064
1657.451033	-3.033200	3.436900	-10.424000	25.956193	0.000231	20.807796
1658.448870	-3.006600	3.436000	-10.330000	25.923804	0.000233	20.807973
1659.452125	-3.013400	3.436300	-10.353000	25.931208	0.000233	20.816834
1660.450134	-3.003600	3.435200	-10.317000	25.883020	0.000231	20.821529
1661.450186	-3.013000	3.435500	-10.349000	25.873604	0.000232	20.803536
1662.450690	-3.024700	3.435000	-10.388000	25.829363	0.000231	20.813621
1663.449507	-2.992000	3.435600	-10.278000	25.781220	0.000228	20.832590
1664.449331	-3.004800	3.435600	-10.323000	25.816224	0.000230	20.837880
1665.449365	-3.002500	3.433900	-10.309000	25.808027	0.000232	20.809732
1666.453343	-3.036900	3.433100	-10.425000	25.789125	0.000229	20.851910
1667.452243	-2.998500	3.434100	-10.297000	25.801750	0.000231	20.823816
1668.452940	-2.997100	3.433600	-10.289000	25.802099	0.000232	20.832701
1669.455133	-3.019200	3.433400	-10.365000	25.832460	0.000229	20.822422
1670.452509	-3.000500	3.431700	-10.296000	25.894243	0.000230	20.826165
1671.451402	-3.001600	3.431000	-10.297000	25.913823	0.000230	20.827344
1672.453428	-2.974800	3.433800	-10.214000	25.973587	0.000230	20.822900
1673.454226	-2.994900	3.430600	-10.273000	25.889703	0.000228	20.828717
1674.450603	-3.011700	3.431600	-10.333000	25.850182	0.000227	20.825525
1675.452226	-3.008100	3.430000	-10.315000	25.863271	0.000228	20.843415
1676.455175	-2.988600	3.431200	-10.254000	25.856621	0.000229	20.850011
1677.455401	-3.005700	3.431000	-10.312000	25.853039	0.000227	20.844042
1678.455111	-3.001700	3.430200	-10.296000	25.860492	0.000227	20.837305
1679.458228	-2.997600	3.430700	-10.284000	25.919840	0.000226	20.858991
1680.456137	-3.029900	3.429500	-10.390000	25.963859	0.000227	20.845369
1681.454393	-2.999100	3.429300	-10.284000	25.963638	0.000225	20.838982
1682.463393	-3.011500	3.427600	-10.321000	25.936662	0.000222	20.830373
1683.454200	-2.997800	3.428900	-10.278000	25.955540	0.000226	20.834641
1684.456271	-2.991600	3.428100	-10.254000	25.965980	0.000223	20.869309
1685.461079	-3.010400	3.427100	-10.316000	25.968886	0.000224	20.844255
1686.457488	-3.016600	3.427300	-10.338000	25.972538	0.000224	20.864044
1687.455301	-3.003800	3.426700	-10.292000	25.951920	0.000224	20.864667
1688.456840	-3.010300	3.427100	-10.315000	25.967999	0.000224	20.848579
1689.455492	-3.000300	3.427100	-10.282000	25.975550	0.000224	20.869441
1690.455565	-3.010600	3.426000	-10.313000	25.942094	0.000223	20.849106
1691.456044	-2.989700	3.425800	-10.242000	25.905206	0.000222	20.862308
1692.464306	-3.016700	3.424800	-10.330000	25.906006	0.000220	20.858844
1693.463557	-3.003400	3.425700	-10.288000	25.937329	0.000222	20.859017
1694.456911	-2.993600	3.424600	-10.251000	25.860649	0.000222	20.855005
1695.459630	-3.007500	3.423900	-10.296000	25.869695	0.000220	20.856032
1696.463498	-3.002500	3.424800	-10.282000	25.903058	0.000221	20.846875
1697.460742	-2.996600	3.424000	-10.259000	25.899135	0.000223	20.851467
1698.462399	-2.995900	3.422500	-10.253000	25.942807	0.000219	20.844133
1699.466149	-3.021300	3.421700	-10.337000	25.958385	0.000221	20.872110
1700.460410	-2.975100	3.422600	-10.181000	25.954236	0.000221	20.864149
1701.461585	-3.013300	3.423400	-10.315000	25.984818	0.000219	20.859312
1702.457283	-2.987100	3.423200	-10.224000	26.013484	0.000220	20.860611
1703.460403	-2.988800	3.421400	-10.225000	26.000717	0.000220	20.867698
1704.461853	-3.002100	3.421100	-10.270000	25.989816	0.000220	20.864334
1705.459107	-2.969100	3.423200	-10.162000	25.956012	0.000217	20.861192
1706.463370	-3.004700	3.422400	-10.282000	25.979934	0.000219	20.882853
1707.463161	-3.001300	3.420200	-10.264000	26.006617	0.000215	20.875522
1708.463592	-2.991500	3.421000	-10.233000	26.019683	0.000219	20.859727
1709.465964	-2.994100	3.420600	-10.240000	26.012530	0.000217	20.859653
1710.463181	-2.987700	3.420000	-10.217000	26.013252	0.000217	20.876499
1711.462879	-2.998400	3.419000	-10.250000	26.020187	0.000216	20.867820
1712.469054	-3.012100	3.418500	-10.296000	25.980224	0.000216	20.868447
1713.460205	-3.022500	3.419400	-10.334000	25.951410	0.000215	20.863681
1714.462060	-3.007400	3.419100	-10.281000	25.912561	0.000215	20.890083
1715.462116	-3.003300	3.417300	-10.262000	25.931838	0.000214	20.872466
1716.464657	-3.016800	3.416300	-10.304000	25.940411	0.000213	20.864010
1717.462903	-2.989500	3.418500	-10.218000	25.926083	0.000212	20.859099
1718.476288	-2.994200	3.416500	-10.228000	25.914682	0.000213	20.880361
1719.468121	-3.005100	3.417200	-10.268000	25.887233	0.000214	20.873175
1720.468754	-3.008600	3.415900	-10.276000	25.958448	0.000211	20.889241
1721.466391	-2.995100	3.416400	-10.232000	25.915277	0.000214	20.881907
1722.461811	-2.981300	3.415000	-10.181000	25.918334	0.000212	20.883556
1723.465167	-2.994300	3.415700	-10.227000	25.962428	0.000211	20.852939
1724.469673	-3.009400	3.415100	-10.277000	25.970706	0.000210	20.876901
1725.464189	-2.994700	3.414500	-10.224000	25.991668	0.000209	20.871884
1726.470250	-3.004700	3.414200	-10.258000	25.980018	0.000210	20.862076
1727.470884	-3.013100	3.413300	-10.284000	26.007866	0.000209	20.876777
1728.469977	-2.979000	3.415100	-10.172000	25.998678	0.000211	20.886985
1729.468335	-2.993700	3.413600	-10.218000	25.994479	0.000209	20.874707
1730.469190	-2.993600	3.413200	-10.216000	25.975975	0.000208	20.876505
1731.469648	-3.004600	3.412400	-10.252000	26.019221	0.000208	20.882495
1732.477467	-2.982900	3.414100	-10.183000	26.057500	0.000211	20.866903
1733.473742	-2.975100	3.413000	-10.153000	26.019845	0.000209	20.867002
1734.468577	-2.995700	3.413500	-10.224000	26.000274	0.000207	20.881003
1735.477002	-3.016700	3.411500	-10.290000	26.058074	0.000208	20.877436
1736.473921	-3.010000	3.410800	-10.266000	26.032492	0.000210	20.873070
1737.473018	-3.013800	3.411100	-10.279000	26.003606	0.000208	20.860644
1738.472076	-3.026700	3.411500	-10.323000	26.030551	0.000207	20.865905
1739.470906	-2.997300	3.410300	-10.221000	25.941660	0.000207	20.888971
1740.470890	-3.023300	3.411300	-10.312000	25.925388	0.000209	20.871202
1741.469921	-2.988600	3.411400	-10.195000	25.984063	0.000207	20.878466
1742.471136	-2.989100	3.410800	-10.194000	26.008657	0.000207	20.856236
1743.467587	-3.019100	3.408900	-10.290000	25.989430	0.000208	20.870584
1744.468954	-2.993100	3.409000	-10.203000	25.935529	0.000207	20.880441
1745.469009	-3.016000	3.408500	-10.279000	25.990825	0.000209	20.857287
1746.475113	-2.970900	3.410000	-10.129000	26.007495	0.000206	20.855069
1747.474368	-2.997900	3.407300	-10.214000	25.993985	0.000209	20.865203
1748.486842	-3.006300	3.408100	-10.244000	26.022375	0.000209	20.877130
1749.474260	-2.994500	3.407400	-10.203000	25.989216	0.000207	20.871791
1750.472589	-2.993800	3.406900	-10.199000	26.007327	0.000207	20.865804
1751.485493	-3.013600	3.406800	-10.266000	26.027768	0.000207	20.857419
1752.476024	-3.004100	3.405000	-10.228000	26.071980	0.000207	20.871020
1753.470784	-2.982400	3.406100	-10.158000	26.124037	0.000207	20.859789
1754.473271	-2.993000	3.406300	-10.194000	26.157840	0.000206	20.854401
1755.497241	-3.002800	3.405500	-10.226000	26.075009	0.000207	20.852727
1756.474071	-3.021400	3.404000	-10.284000	26.048134	0.000206	20.871717
1757.486770	-2.996300	3.405400	-10.202000	25.988769	0.000206	20.868497
1758.482291	-3.012300	3.405100	-10.255000	25.965098	0.000205	20.848509
1759.481278	-3.004400	3.403300	-10.224000	25.954464	0.000205	20.862482
1760.479994	-3.023200	3.403400	-10.287000	25.991498	0.000205	20.858437
1761.474266	-3.012600	3.402500	-10.249000	26.070360	0.000203	20.845685
1762.477079	-2.999300	3.405700	-10.214000	26.036057	0.000205	20.859109
1763.475955	-3.001800	3.403500	-10.215000	26.056773	0.000204	20.867594
1764.476193	-3.004800	3.402600	-10.223000	26.028654	0.000202	20.862103
1765.472322	-3.000600	3.401900	-10.207000	25.986426	0.000202	20.849549
1766.482099	-3.012700	3.402200	-10.249000	25.994076	0.000202	20.856285
1767.477239	-3.013800	3.402600	-10.254000	26.019089	0.000203	20.856285
1768.477928	-2.996600	3.401000	-10.191000	25.999711	0.000201	20.858153
1769.475564	-2.989800	3.401400	-10.169000	25.989681	0.000201	20.850922
1770.476319	-3.001400	3.400400	-10.205000	25.998845	0.000200	20.857757
1771.475704	-2.982700	3.400800	-10.142000	25.991741	0.000199	20.867689
1772.473510	-2.993200	3.401600	-10.180000	25.951026	0.000201	20.861872
1773.474783	-3.008000	3.399300	-10.223000	25.965012	0.000199	20.856009
1774.472782	-2.984600	3.398900	-10.143000	25.942999	0.000197	20.856653
1775.474197	-2.978700	3.399200	-10.123000	25.935804	0.000199	20.857011
1776.475122	-2.990900	3.399500	-10.166000	25.967992	0.000200	20.831977
1777.476327	-2.976700	3.399100	-10.117000	25.993801	0.000199	20.852216
1778.482007	-3.009900	3.398000	-10.227000	26.008681	0.000200	20.844407
1779.475548	-3.002200	3.398600	-10.202000	26.016782	0.000197	20.846856
1780.478329	-3.018600	3.397900	-10.256000	26.025523	0.000197	20.860853
1781.481710	-3.001700	3.397100	-10.196000	26.023164	0.000199	20.841888
1782.480323	-3.020700	3.397100	-10.260000	26.010372	0.000198	20.848477
1783.481537	-3.002700	3.396400	-10.197000	25.983869	0.000199	20.843187
1784.481279	-2.991500	3.396500	-10.161000	26.007167	0.000196	20.852843
1785.485301	-2.973500	3.397000	-10.100000	26.018543	0.000197	20.844358
1786.480780	-3.017600	3.394800	-10.243000	26.050560	0.000198	20.841439
1787.486275	-2.985700	3.395300	-10.136000	25.998471	0.000196	20.862123
1788.480983	-2.998500	3.394500	-10.178000	26.010967	0.000195	20.844333
1789.479832	-3.013900	3.394900	-10.231000	25.971098	0.000196	20.854537
1790.486442	-3.005600	3.394300	-10.202000	25.966453	0.000195	20.823793
1791.484457	-3.016700	3.393500	-10.236000	25.987641	0.000194	20.826114
1792.481669	-3.001900	3.394100	-10.188000	26.009498	0.000195	20.861823
1793.485419	-3.004600	3.392100	-10.191000	26.033095	0.000193	20.840487
1794.480517	-2.989900	3.392400	-10.141000	26.079593	0.000192	20.856384
1795.480178	-2.998200	3.392700	-10.171000	26.058780	0.000193	20.839266
1796.481982	-3.010000	3.392400	-10.210000	26.078153	0.000195	20.842610
1797.483591	-2.996500	3.391700	-10.162000	26.042931	0.000195	20.831878
1798.485148	-2.987800	3.392600	-10.135000	26.088432	0.000193	20.851041
1799.488801	-2.995400	3.391800	-10.159000	26.097250	0.000190	20.836195
1800.485053	-3.017800	3.390200	-10.230000	26.145506	0.000191	20.836793
1801.484829	-3.028000	3.390100	-10.264000	26.194055	0.000192	20.855705
1802.486867	-3.004500	3.392000	-10.189000	26.196267	0.000189	20.841332
1803.486385	-3.002700	3.389900	-10.178000	26.176945	0.000192	20.832822
1804.486341	-3.026600	3.388900	-10.256000	26.174159	0.000191	20.837135
1805.490612	-2.999200	3.390200	-10.167000	26.203542	0.000190	20.836789
1806.485222	-3.017200	3.388600	-10.223000	26.177491	0.000190	20.842853
1807.484742	-3.011300	3.389200	-10.204000	26.152334	0.000191	20.841757
1808.491758	-3.013900	3.388300	-10.211000	26.201630	0.000190	20.832023
1809.487088	-2.980700	3.390300	-10.104000	26.208510	0.000189	20.842256
1810.486813	-2.984800	3.389300	-10.115000	26.183428	0.000188	20.830328
1811.491795	-3.014300	3.387700	-10.210000	26.105269	0.000187	20.833820
1812.489662	-3.023800	3.386400	-10.239000	26.138075	0.000186	20.841180
1813.488405	-3.001800	3.388500	-10.170000	26.169223	0.000185	20.841184
1814.489445	-2.997700	3.387100	-10.152000	26.162564	0.000187	20.838760
1815.504090	-3.022800	3.387300	-10.239000	26.187921	0.000186	20.838162
1816.489625	-3.004400	3.386400	-10.173000	26.127275	0.000188	20.827483
1817.487268	-3.012000	3.385100	-10.195000	26.096799	0.000189	20.830052
1818.492320	-2.988000	3.386700	-10.119000	26.095831	0.000185	20.820070
1819.491960	-2.980700	3.384300	-10.087000	26.087784	0.000187	20.830002
1820.490961	-2.982600	3.386100	-10.098000	26.134575	0.000185	20.825335
1821.491923	-2.996000	3.384000	-10.137000	26.177417	0.000185	20.811960
1822.492387	-3.022700	3.384500	-10.229000	26.208683	0.000185	20.807342
1823.493690	-2.987900	3.383300	-10.107000	26.194129	0.000184	20.832072
1824.494346	-3.001200	3.383900	-10.155000	26.174089	0.000184	20.814306
1825.496595	-3.005900	3.383900	-10.171000	26.149076	0.000181	20.842751
1826.494981	-2.990800	3.383600	-10.119000	26.161768	0.000182	20.826580
1827.496112	-3.020700	3.382000	-10.215000	26.146647	0.000184	20.819922
1828.497062	-3.015000	3.381500	-10.195000	26.129881	0.000182	20.824412
1829.497775	-2.978300	3.384000	-10.077000	26.104895	0.000184	20.830600
1830.499934	-3.014700	3.380400	-10.190000	26.164923	0.000183	20.830225
1831.499438	-2.986600	3.382700	-10.102000	26.126307	0.000182	20.830777
1832.500257	-3.010100	3.381300	-10.178000	26.095461	0.000184	20.830130
1833.501351	-2.985900	3.382300	-10.098000	26.151017	0.000182	20.816252
1834.498228	-2.993400	3.381200	-10.120000	26.160085	0.000181	20.806872
1835.500609	-2.995000	3.380400	-10.123000	26.132638	0.000180	20.820070
1836.502995	-2.999500	3.378600	-10.133000	26.123176	0.000180	20.830951
1837.497943	-2.988600	3.380300	-10.101000	26.161423	0.000180	20.837139
1838.504982	-2.980200	3.380800	-10.075000	26.159461	0.000181	20.848444
1839.497949	-2.989100	3.379700	-10.101000	26.159835	0.000181	20.811836
1840.499597	-2.969900	3.379900	-10.037000	26.245014	0.000181	20.828205
1841.503329	-3.005800	3.376600	-10.149000	26.261976	0.000180	20.805895
1842.501073	-2.979900	3.379400	-10.069000	26.259838	0.000180	20.821765
1843.498867	-2.987100	3.377500	-10.088000	26.214961	0.000178	20.798478
1844.499817	-2.977300	3.377100	-10.054000	26.177906	0.000178	20.811977
1845.497003	-3.010200	3.377200	-10.165000	26.174209	0.000175	20.839555
1846.500713	-2.988500	3.377100	-10.091000	26.153841	0.000176	20.820038
1847.499797	-2.993000	3.376500	-10.105000	26.123739	0.000176	20.816343
1848.504781	-3.012200	3.375500	-10.167000	26.149664	0.000176	20.830065
1849.504001	-2.996900	3.376800	-10.119000	26.122319	0.000174	20.822978
1850.500761	-2.993200	3.376200	-10.105000	26.158432	0.000176	20.803315
1851.502106	-2.999700	3.375200	-10.123000	26.178571	0.000174	20.795102
1852.498949	-2.996500	3.374200	-10.110000	26.190614	0.000174	20.815264
1853.501228	-3.005000	3.375000	-10.141000	26.268689	0.000174	20.828288
1854.500703	-3.011600	3.373400	-10.158000	26.307279	0.000175	20.813491
1855.499886	-3.013600	3.373700	-10.166000	26.317039	0.000173	20.831360
1856.503325	-3.025300	3.372800	-10.202000	26.290069	0.000172	20.808997
1857.501667	-3.030300	3.373300	-10.221000	26.241224	0.000173	20.802111
1858.499910	-3.011500	3.371800	-10.153000	26.224115	0.000172	20.809574
1859.504124	-3.003800	3.373100	-10.131000	26.234143	0.000171	20.826289
1860.507370	-2.982500	3.372500	-10.058000	26.205167	0.000172	20.827517
1861.503798	-2.991800	3.372400	-10.089000	26.204100	0.000171	20.816014
1862.501243	-2.983700	3.372400	-10.061000	26.212393	0.000170	20.799217
1863.506064	-2.979600	3.371400	-10.044000	26.225461	0.000170	20.812348
1864.503722	-2.993900	3.371500	-10.093000	26.219126	0.000171	20.788439
1865.502126	-2.995700	3.371700	-10.100000	26.197347	0.000168	20.812546
1866.500743	-2.991400	3.370500	-10.081000	26.193301	0.000168	20.808955
1867.505663	-2.992300	3.370800	-10.085000	26.206734	0.000170	20.803962
1868.508275	-2.995700	3.370600	-10.096000	26.242053	0.000168	20.800099
1869.506523	-3.036600	3.367900	-10.226000	26.261004	0.000169	20.809660
1870.504437	-3.001700	3.368700	-10.111000	26.265870	0.000168	20.825929
1871.505285	-3.005600	3.369600	-10.127000	26.296365	0.000169	20.793988
1872.506016	-2.996000	3.368500	-10.092000	26.287577	0.000166	20.805071
1873.504396	-3.020900	3.368200	-10.174000	26.290933	0.000168	20.812236
1874.503729	-3.016700	3.367900	-10.159000	26.288750	0.000165	20.790128
1875.517210	-3.005400	3.367200	-10.118000	26.297095	0.000167	20.798040
1876.513825	-3.030200	3.367300	-10.202000	26.297891	0.000166	20.811168
1877.507345	-3.008100	3.365900	-10.124000	26.314355	0.000165	20.787411
1878.511537	-2.982400	3.366500	-10.040000	26.306662	0.000164	20.805758
1879.507587	-2.963600	3.367400	-9.978300	26.311105	0.000166	20.793628
1880.516906	-2.988900	3.365900	-10.059000	26.291170	0.000165	20.807733
1881.509127	-3.011400	3.365100	-10.132000	26.257650	0.000164	20.779737
1882.515885	-3.006900	3.365300	-10.118000	26.297181	0.000166	20.788643
1883.511441	-2.987000	3.365900	-10.053000	26.342129	0.000164	20.800151
1884.510233	-2.989200	3.366100	-10.060000	26.370637	0.000164	20.791818
1885.509947	-2.990800	3.365100	-10.064000	26.416919	0.000163	20.774797
1886.512083	-2.993100	3.363700	-10.066000	26.392264	0.000163	20.798856
1887.516126	-3.011900	3.362700	-10.128000	26.368261	0.000162	20.794172
1888.513132	-3.015000	3.363700	-10.141000	26.296971	0.000162	20.778475
1889.515322	-3.015000	3.361100	-10.133000	26.287333	0.000161	20.785385
1890.515936	-2.974500	3.363900	-10.005000	26.309094	0.000161	20.777382
1891.513069	-2.991400	3.363000	-10.059000	26.282471	0.000160	20.801362
1892.520070	-2.969700	3.363300	-9.986900	26.239490	0.000162	20.785195
1893.519345	-3.011400	3.362300	-10.124000	26.308872	0.000158	20.773840
1894.515353	-3.011400	3.362300	-10.124000	26.340684	0.000162	20.789215
1895.514943	-3.001700	3.361400	-10.090000	26.369885	0.000161	20.770199
1896.514334	-3.013400	3.360600	-10.125000	26.352855	0.000161	20.790542
1897.514877	-3.002300	3.360900	-10.089000	26.364872	0.000159	20.784601
1898.516275	-3.016200	3.359500	-10.131000	26.314566	0.000158	20.773873
1899.516486	-3.012100	3.360300	-10.121000	26.257751	0.000159	20.787899
1900.517394	-2.992000	3.360700	-10.054000	26.227878	0.000156	20.776371
1901.517387	-3.003700	3.358800	-10.087000	26.251892	0.000157	20.780115
1902.518633	-3.001800	3.358400	-10.080000	26.281818	0.000156	20.787429
1903.518174	-3.003200	3.359000	-10.087000	26.299128	0.000156	20.784910
1904.517504	-2.981000	3.360200	-10.015000	26.332781	0.000157	20.767997
1905.518189	-2.999100	3.359400	-10.074000	26.331316	0.000156	20.774585
1906.521158	-2.991700	3.357700	-10.043000	26.325282	0.000156	20.798392
1907.518253	-2.990900	3.357500	-10.040000	26.329355	0.000156	20.774511
1908.520431	-3.002200	3.356900	-10.077000	26.353692	0.000155	20.768623
1909.520723	-3.017700	3.356500	-10.128000	26.374725	0.000156	20.768425
1910.522307	-3.016100	3.355500	-10.120000	26.362311	0.000155	20.765906
1911.522384	-2.992900	3.356200	-10.045000	26.371299	0.000153	20.773991
1912.522088	-2.983300	3.356800	-10.014000	26.352456	0.000154	20.767382
1913.528530	-3.010800	3.355100	-10.101000	26.332321	0.000153	20.749042
1914.520197	-2.994700	3.355200	-10.047000	26.273222	0.000153	20.777368
1915.521062	-2.982700	3.355900	-10.008000	26.255145	0.000152	20.755882
1916.520949	-3.000300	3.355100	-10.065000	26.286064	0.000151	20.785057
1917.525733	-2.988900	3.355100	-10.027000	26.311369	0.000154	20.757383
1918.523346	-3.001900	3.354900	-10.071000	26.375036	0.000154	20.792920
1919.524614	-2.999100	3.353300	-10.056000	26.332825	0.000153	20.758558
1920.527471	-2.995600	3.353900	-10.046000	26.358528	0.000154	20.753094
1921.521392	-3.022600	3.354100	-10.137000	26.363816	0.000152	20.777376
1922.524955	-2.973800	3.352600	-9.968700	26.352325	0.000153	20.763456
1923.521197	-3.022900	3.351200	-10.129000	26.364587	0.000153	20.748278
1924.523429	-2.981000	3.352100	-9.991700	26.376705	0.000150	20.760458
1925.524393	-3.007100	3.350800	-10.076000	26.387655	0.000153	20.747281
1926.525342	-2.966600	3.352500	-9.944200	26.422741	0.000154	20.764054
1927.520956	-2.987000	3.351400	-10.010000	26.388844	0.000151	20.773607
1928.522603	-3.023800	3.350100	-10.129000	26.376160	0.000151	20.767023
1929.521328	-2.995500	3.349700	-10.033000	26.398825	0.000150	20.769414
1930.523172	-3.010200	3.349300	-10.081000	26.316087	0.000151	20.767340
1931.521340	-3.008100	3.348800	-10.073000	26.303475	0.000149	20.749450
1932.520734	-2.994400	3.350500	-10.031000	26.339550	0.000150	20.766264
1933.523057	-3.001000	3.349600	-10.051000	26.367709	0.000153	20.755210
1934.523246	-2.982800	3.348600	-9.987300	26.431964	0.000151	20.742502
1935.524245	-2.987800	3.349500	-10.006000	26.433002	0.000149	20.762038
1936.524941	-3.002500	3.347500	-10.050000	26.426299	0.000151	20.754353
1937.521739	-2.992300	3.349400	-10.022000	26.392726	0.000148	20.756171
1938.526076	-2.987100	3.348300	-10.000000	26.393866	0.000149	20.761585
1939.526365	-3.003700	3.346100	-10.050000	26.379061	0.000149	20.759033
1940.523923	-3.005600	3.347200	-10.060000	26.387472	0.000148	20.756580
1941.526558	-3.012300	3.348000	-10.084000	26.413468	0.000152	20.762794
1942.525369	-3.017000	3.347000	-10.097000	26.475763	0.000146	20.770405
1943.523931	-3.018700	3.345800	-10.099000	26.495219	0.000150	20.750132
1944.526816	-2.972300	3.345900	-9.944000	26.516795	0.000148	20.758543
1945.526636	-2.992900	3.345400	-10.011000	26.509088	0.000147	20.748425
1946.528996	-3.000400	3.345100	-10.036000	26.535155	0.000146	20.763722
1947.529734	-3.008000	3.345600	-10.063000	26.507637	0.000147	20.751234
1948.529488	-3.008200	3.345200	-10.062000	26.523573	0.000145	20.759192
1949.529418	-3.001300	3.343200	-10.033000	26.519795	0.000145	20.771042
1950.532438	-2.992600	3.344500	-10.008000	26.494815	0.000143	20.756364
1951.533008	-3.000200	3.343900	-10.032000	26.490016	0.000144	20.769084
1952.537887	-2.974400	3.344500	-9.946400	26.465810	0.000145	20.770358
1953.536434	-3.020400	3.342000	-10.093000	26.476053	0.000141	20.766429
1954.533111	-3.025000	3.342200	-10.109000	26.419542	0.000142	20.760838
1955.534043	-3.004200	3.342000	-10.040000	26.349417	0.000140	20.761008
1956.530811	-2.998000	3.343300	-10.022000	26.320482	0.000139	20.763697
1957.537478	-3.011200	3.340100	-10.057000	26.321598	0.000141	20.756757
1958.533710	-3.021400	3.340500	-10.092000	26.322809	0.000141	20.748491
1959.535957	-2.979300	3.341400	-9.954200	26.329090	0.000140	20.761442
1960.538413	-2.983900	3.342100	-9.971700	26.348257	0.000140	20.760316
1961.531940	-2.982600	3.341500	-9.966100	26.368519	0.000139	20.761714
1962.538208	-2.998100	3.340800	-10.015000	26.365361	0.000137	20.764704
1963.533024	-2.994200	3.341400	-10.004000	26.389939	0.000137	20.752421
1964.533924	-2.994800	3.339200	-9.999700	26.359991	0.000139	20.746504
1965.541116	-2.990300	3.340400	-9.988100	26.376081	0.000136	20.755563
1966.531785	-3.018300	3.338500	-10.076000	26.425268	0.000137	20.751894
1967.532196	-3.016100	3.337800	-10.066000	26.486619	0.000136	20.758557
1968.534144	-3.019100	3.336600	-10.072000	26.458064	0.000135	20.757831
1969.532601	-3.009600	3.337300	-10.044000	26.478817	0.000136	20.759250
1970.534723	-3.006000	3.338000	-10.033000	26.464489	0.000135	20.767608
1971.536511	-3.000200	3.337900	-10.013000	26.398718	0.000133	20.769306
1972.534594	-2.984000	3.337200	-9.957600	26.412720	0.000134	20.773422
1973.535717	-2.981800	3.336500	-9.947300	26.417737	0.000131	20.750488
1974.537430	-3.008000	3.335500	-10.032000	26.414057	0.000131	20.761489
1975.535211	-3.035900	3.335200	-10.124000	26.475687	0.000131	20.756104
1976.532430	-2.982500	3.336100	-9.948600	26.490282	0.000131	20.775990
1977.538690	-3.001300	3.334900	-10.008000	26.462077	0.000129	20.768977
1978.535935	-2.983700	3.336600	-9.954900	26.435659	0.000131	20.759019
1979.536671	-3.007600	3.333200	-10.024000	26.465876	0.000129	20.742448
1980.534877	-2.996300	3.334500	-9.990600	26.499442	0.000130	20.766231
1981.534443	-3.010800	3.333800	-10.037000	26.517339	0.000130	20.762409
1982.537574	-2.980700	3.335100	-9.939800	26.531121	0.000130	20.770099
1983.534141	-2.999100	3.333200	-9.996100	26.560236	0.000131	20.759536
1984.532688	-3.008400	3.333200	-10.027000	26.586306	0.000129	20.771043
1985.534834	-3.006800	3.331800	-10.017000	26.629696	0.000126	20.772936
1986.532003	-2.982700	3.333500	-9.941300	26.683316	0.000126	20.759985
1987.532790	-2.997000	3.332900	-9.987600	26.707792	0.000126	20.770841
1988.537811	-3.000900	3.332400	-9.999500	26.681426	0.000127	20.757136
1989.538286	-2.996100	3.332300	-9.983100	26.619319	0.000126	20.752547
1990.536569	-3.002600	3.330300	-9.999400	26.586671	0.000123	20.761927
1991.542682	-3.005100	3.331200	-10.009000	26.553977	0.000126	20.775530
1992.537863	-3.014400	3.331000	-10.040000	26.540146	0.000126	20.774903
1993.537685	-3.001200	3.329600	-9.991700	26.565174	0.000126	20.766397
1994.538278	-3.015700	3.329100	-10.039000	26.598709	0.000126	20.750795
1995.539967	-2.980900	3.330900	-9.928100	26.582426	0.000123	20.771411
1996.543652	-2.992200	3.330100	-9.963600	26.546979	0.000121	20.767547
1997.543193	-3.000800	3.330200	-9.992900	26.536848	0.000123	20.761156
1998.542729	-2.991700	3.328300	-9.956300	26.540326	0.000122	20.771291
1999.539010	-3.022100	3.327700	-10.055000	26.596675	0.000123	20.764397
2000.543233	-3.003100	3.326900	-9.989600	26.637119	0.000123	20.763329
2001.539082	-3.015600	3.326400	-10.030000	26.677509	0.000124	20.748930
2002.542283	-3.023600	3.327300	-10.059000	26.667629	0.000122	20.769345
2003.551018	-3.003400	3.325900	-9.988200	26.671251	0.000124	20.772985
2004.539933	-2.999100	3.326100	-9.974200	26.647619	0.000122	20.760608
2005.543077	-2.980300	3.326500	-9.913300	26.669913	0.000121	20.764054
2006.548675	-3.028100	3.325600	-10.069000	26.694242	0.000121	20.780452
2007.545469	-2.988000	3.325700	-9.935300	26.717475	0.000122	20.762558
2008.547893	-3.001900	3.324300	-9.978200	26.705983	0.000121	20.753849
2009.548916	-2.996000	3.325400	-9.962000	26.671582	0.000121	20.769051
2010.547403	-2.998000	3.323500	-9.962900	26.637250	0.000120	20.779582
2011.548124	-3.031800	3.323200	-10.074000	26.568037	0.000117	20.755997
2012.549118	-3.017500	3.323400	-10.027000	26.558258	0.000118	20.781256
2013.547234	-2.992200	3.322600	-9.940500	26.568287	0.000119	20.768103
2014.547565	-2.957200	3.324200	-9.829300	26.612153	0.000118	20.767155
2015.547989	-2.991900	3.322600	-9.940300	26.631745	0.000119	20.769306
2016.548126	-2.989300	3.322100	-9.929800	26.677869	0.000118	20.781536
2017.553344	-3.014700	3.322600	-10.016000	26.679805	0.000118	20.765464
2018.560008	-2.978200	3.321600	-9.891300	26.692912	0.000117	20.755407
2019.547702	-2.993000	3.321500	-9.939500	26.670347	0.000116	20.768758
2020.549938	-2.988500	3.321500	-9.924400	26.644952	0.000116	20.745124
2021.551989	-3.033700	3.321200	-10.075000	26.656152	0.000114	20.773454
2022.550442	-3.004000	3.319900	-9.971700	26.622045	0.000116	20.772831
2023.554248	-2.999800	3.320700	-9.960400	26.615839	0.000112	20.765645
2024.551311	-3.041100	3.318900	-10.092000	26.594815	0.000113	20.764424
2025.547591	-3.015200	3.319200	-10.007000	26.601144	0.000114	20.776002
2026.551878	-3.027800	3.319600	-10.050000	26.585730	0.000113	20.760981
2027.549783	-3.018700	3.317800	-10.014000	26.610679	0.000114	20.768992
2028.552175	-2.990100	3.319600	-9.925100	26.599261	0.000113	20.775057
2029.550625	-2.982300	3.319300	-9.897800	26.625453	0.000111	20.772464
2030.550280	-3.003000	3.317500	-9.961400	26.651521	0.000109	20.780178
2031.552570	-2.990800	3.318500	-9.923700	26.697119	0.000110	20.766749
2032.553998	-2.987700	3.317500	-9.910500	26.727184	0.000110	20.755723
2033.553768	-2.988900	3.315300	-9.908000	26.749202	0.000113	20.783076
2034.553421	-2.991200	3.316800	-9.920600	26.753647	0.000109	20.769053
2035.556096	-3.001800	3.316600	-9.954400	26.722795	0.000111	20.756053
2036.553846	-3.009100	3.316300	-9.978400	26.686680	0.000109	20.766212
2037.554310	-2.993900	3.316300	-9.927600	26.708794	0.000110	20.784651
2038.555035	-2.997200	3.316800	-9.940100	26.736427	0.000109	20.763594
2039.556360	-3.020200	3.313900	-10.008000	26.687828	0.000107	20.765470
2040.557770	-3.016100	3.314600	-9.996700	26.722778	0.000108	20.765993
2041.557874	-2.996400	3.315700	-9.934400	26.762119	0.000109	20.755285
2042.556904	-3.001300	3.313700	-9.943600	26.783915	0.000108	20.761078
2043.555915	-2.990000	3.312800	-9.904500	26.817968	0.000108	20.763548
2044.557728	-3.002100	3.314000	-9.947900	26.814917	0.000109	20.774231
2045.553073	-2.989600	3.312900	-9.903000	26.778731	0.000106	20.762505
2046.555041	-2.988800	3.313400	-9.902300	26.737501	0.000106	20.782692
2047.554052	-3.019900	3.310900	-9.997800	26.758949	0.000106	20.759210
2048.553813	-3.003500	3.310400	-9.941400	26.770246	0.000106	20.792381
2049.554384	-2.999600	3.312000	-9.932300	26.818324	0.000105	20.802787
2050.557281	-3.022000	3.310900	-10.004000	26.746096	0.000105	20.782324
2051.555677	-2.994700	3.311000	-9.914700	26.770246	0.000105	20.784794
2052.557318	-2.979500	3.310700	-9.863400	26.764390	0.000103	20.791708
2053.556632	-3.007800	3.310200	-9.954700	26.753867	0.000103	20.799146
2054.561191	-2.986500	3.309800	-9.883200	26.709215	0.000102	20.794083
2055.563474	-2.992700	3.309500	-9.903400	26.698244	0.000102	20.789692
2056.558875	-2.996900	3.308900	-9.916100	26.739895	0.000105	20.787944
2057.559359	-2.999500	3.308200	-9.921700	26.764817	0.000102	20.785973
2058.559969	-2.973000	3.308800	-9.836300	26.813563	0.000104	20.788517
2059.561093	-2.985600	3.307900	-9.874800	26.858588	0.000103	20.806761
2060.560025	-2.993500	3.307300	-9.898900	26.844740	0.000102	20.779087
2061.561115	-3.015800	3.307500	-9.973300	26.798480	0.000102	20.779990
2062.557789	-3.007800	3.306400	-9.943800	26.772838	0.000101	20.783132
2063.562100	-3.009200	3.307100	-9.951100	26.762015	0.000101	20.772251
2064.558355	-2.998300	3.306200	-9.912100	26.724139	0.000100	20.790120
2065.558358	-3.016700	3.305200	-9.969600	26.698080	0.000101	20.780992
2066.561640	-2.997000	3.306600	-9.908400	26.684952	0.000101	20.793872
2067.560411	-2.975800	3.306100	-9.837100	26.691850	9.915577E-5	20.785634
2068.559827	-2.996600	3.304400	-9.900400	26.673928	9.932078E-5	20.808394
2069.565067	-2.996400	3.304700	-9.900600	26.685546	9.790168E-5	20.814858
2070.563961	-2.997000	3.302800	-9.897300	26.682319	0.000101	20.793122
2071.560389	-3.025000	3.302700	-9.989100	26.721320	9.941979E-5	20.793451
2072.566614	-3.015800	3.303600	-9.961700	26.746808	9.925478E-5	20.777351
2073.561982	-2.996600	3.303600	-9.898100	26.817872	9.677960E-5	20.795220
2074.563762	-2.998200	3.302400	-9.900600	26.856369	9.885875E-5	20.795047
2075.565654	-2.982400	3.301400	-9.845800	26.880320	9.760466E-5	20.797319
2076.569006	-3.006600	3.302200	-9.926800	26.914349	9.707662E-5	20.795500
2077.565365	-2.997200	3.301100	-9.893400	26.852649	9.694461E-5	20.809799
2078.566482	-3.010400	3.300900	-9.935600	26.797224	9.780267E-5	20.793426
2079.567291	-2.994900	3.300800	-9.884500	26.768531	9.644957E-5	20.799665
2080.567285	-2.969400	3.301700	-9.803400	26.808346	9.433742E-5	20.797970
2081.566111	-2.991400	3.301000	-9.873800	26.868186	9.720863E-5	20.784644
2082.563134	-3.003700	3.300400	-9.912500	26.889008	9.529449E-5	20.807004
2083.563998	-3.006300	3.298400	-9.914000	26.891046	9.334735E-5	20.813794
2084.567903	-2.997000	3.299400	-9.887700	26.898886	9.499747E-5	20.812669
2085.564646	-2.981700	3.300600	-9.840500	26.894146	9.354536E-5	20.816911
2086.564756	-2.995600	3.299300	-9.882700	26.938200	9.410640E-5	20.812846
2087.566651	-3.012800	3.298100	-9.935700	26.925715	9.506347E-5	20.789860
2088.568362	-3.001100	3.297500	-9.895100	26.903482	9.509647E-5	20.809230
2089.566309	-2.982400	3.297000	-9.832000	26.903827	9.314933E-5	20.815266
2090.566573	-2.973900	3.298400	-9.808300	26.900305	9.443643E-5	20.813147
2091.567494	-2.982600	3.297300	-9.834100	26.878511	9.229127E-5	20.785543
2092.566663	-2.980400	3.297700	-9.827400	26.925268	9.130120E-5	20.811221
2093.565584	-2.983500	3.297200	-9.836400	26.922315	9.021212E-5	20.814891
2094.568830	-3.003100	3.295700	-9.896000	26.978177	9.163122E-5	20.816536
2095.568226	-2.990900	3.296800	-9.858300	26.980235	9.285231E-5	20.812916
2096.571436	-2.992400	3.296500	-9.863000	27.022198	9.011311E-5	20.793950
2097.570943	-3.009200	3.296000	-9.917800	27.070539	9.212626E-5	20.811271
2098.571246	-3.031700	3.293100	-9.983000	27.039742	8.859500E-5	20.804955
2099.569353	-2.992900	3.295500	-9.861600	26.947553	8.965108E-5	20.842164
2100.574708	-3.020400	3.294200	-9.948500	26.923775	8.961807E-5	20.811617
2101.572042	-3.019300	3.293100	-9.942400	26.938221	8.905703E-5	20.803858
2102.569648	-3.022800	3.294600	-9.957800	26.957307	8.899103E-5	20.824473
2103.574128	-2.989200	3.292500	-9.841000	26.962887	8.803396E-5	20.817757
2104.569009	-3.008100	3.292900	-9.904900	26.958172	9.163122E-5	20.819653
2105.572922	-3.024700	3.291200	-9.953200	26.982121	8.671386E-5	20.826192
2106.568216	-3.006000	3.291400	-9.892700	26.981850	8.654885E-5	20.818808
2107.569268	-2.988000	3.292100	-9.835400	26.974155	8.668086E-5	20.810595
2108.578854	-2.980900	3.291700	-9.811200	26.953239	8.869401E-5	20.827495
2109.577439	-2.976200	3.290800	-9.792900	26.930651	8.460171E-5	20.828489
2110.573308	-2.976700	3.289800	-9.791700	26.863917	8.671386E-5	20.809275
2111.576201	-2.985700	3.290200	-9.822500	26.861908	8.651585E-5	20.835704
2112.582756	-3.006700	3.289200	-9.887700	26.833959	8.532776E-5	20.804282
2113.575747	-2.986000	3.289400	-9.821800	26.868408	8.664786E-5	20.811894
2114.571013	-2.982600	3.290600	-9.813600	26.912540	8.545977E-5	20.832088
2115.581919	-2.985900	3.289400	-9.821200	26.915419	8.522875E-5	20.834508
2116.575303	-2.989800	3.288300	-9.829400	26.939914	8.450270E-5	20.814095
2117.577961	-2.981200	3.289100	-9.804900	26.937732	8.545977E-5	20.819962
2118.582041	-2.996500	3.287700	-9.851300	26.972403	8.344662E-5	20.834912
2119.578005	-3.007100	3.287200	-9.884300	27.007738	8.430469E-5	20.832038
2120.575835	-3.006700	3.286000	-9.879000	26.954556	8.334762E-5	20.828818
2121.582972	-3.018000	3.285400	-9.914500	26.926641	8.196151E-5	20.830620
2122.575123	-2.996800	3.286300	-9.847600	26.886781	8.248955E-5	20.811402
2123.578053	-2.997100	3.285800	-9.846800	26.890878	8.460171E-5	20.822159
2124.579260	-2.993600	3.285500	-9.834800	26.900678	8.301759E-5	20.844815
2125.580885	-2.997600	3.285100	-9.846700	26.975778	8.470071E-5	20.841624
2126.579216	-3.022900	3.283500	-9.925000	27.057719	8.417268E-5	20.845318
2127.581886	-3.005500	3.284800	-9.871800	27.029676	8.301759E-5	20.837505
2128.580612	-2.994300	3.284900	-9.835400	27.007639	8.060842E-5	20.848534
2129.576869	-3.053600	3.283600	-10.025000	27.003867	8.338062E-5	20.836206
2130.577790	-2.999500	3.283300	-9.845600	27.017614	8.196151E-5	20.824901
2131.580516	-2.997400	3.282500	-9.837400	26.977037	8.067442E-5	20.836726
2132.579782	-3.020100	3.281400	-9.908700	27.021259	8.070742E-5	20.821455
2133.580660	-2.975700	3.283900	-9.771500	27.068256	8.229154E-5	20.847854
2134.584025	-2.997200	3.282200	-9.836600	27.010985	8.034440E-5	20.838623
2135.579416	-2.985900	3.282100	-9.799200	27.032149	7.826524E-5	20.858483
2136.588331	-2.991500	3.281100	-9.814700	27.082695	7.793522E-5	20.841513
2137.585119	-2.986700	3.281300	-9.799700	27.107679	8.093844E-5	20.829182
2138.581501	-2.976400	3.280800	-9.763700	27.108478	7.757219E-5	20.847054
2139.584899	-3.000100	3.278800	-9.835500	27.115693	7.687914E-5	20.871853
2140.579661	-2.990100	3.279600	-9.805600	27.162021	7.889229E-5	20.865343
2141.587497	-2.999700	3.279400	-9.835900	27.166535	7.744018E-5	20.842383
2142.587415	-2.996600	3.278300	-9.822700	27.200875	7.859527E-5	20.847999
2143.590828	-3.019700	3.277100	-9.895000	27.208909	7.691214E-5	20.839959
2144.585920	-2.987300	3.278400	-9.792800	27.136236	7.635110E-5	20.846049
2145.587388	-3.018300	3.275200	-9.884300	27.092018	7.387592E-5	20.849467
2146.588069	-2.999800	3.276600	-9.828700	27.063136	7.483299E-5	20.843653
2147.587729	-2.973100	3.277500	-9.743400	27.109634	7.687914E-5	20.854855
2148.583779	-3.000100	3.275400	-9.825900	27.147727	7.539403E-5	20.853812
2149.583781	-3.030500	3.274400	-9.921800	27.186310	7.701115E-5	20.840936
2150.602339	-2.990300	3.275400	-9.793400	27.197522	7.245682E-5	20.868333
2151.585865	-3.013100	3.274800	-9.866900	27.268403	7.262183E-5	20.853334
2152.589587	-3.021000	3.275100	-9.892400	27.309121	7.394193E-5	20.871532
2153.588240	-3.016600	3.274500	-9.877100	27.287066	7.575706E-5	20.854088
2154.592615	-3.020900	3.274300	-9.890000	27.234443	7.196178E-5	20.859951
2155.595354	-3.006600	3.273900	-9.843000	27.212684	7.371091E-5	20.864144
2156.591770	-2.983900	3.273800	-9.767800	27.187925	7.489900E-5	20.852043
2157.591090	-2.996800	3.271700	-9.803400	27.175295	7.242382E-5	20.863521
2158.595469	-2.993600	3.272800	-9.795900	27.213057	7.143374E-5	20.869734
2159.591353	-2.986900	3.274100	-9.778800	27.185941	7.338089E-5	20.860478
2160.590398	-3.001700	3.270300	-9.815900	27.237627	7.060868E-5	20.855568
2161.594916	-3.008300	3.270700	-9.838100	27.249236	7.179677E-5	20.861554
2162.589010	-2.985600	3.272300	-9.769300	27.283647	7.182977E-5	20.863925
2163.593305	-2.998800	3.271700	-9.810200	27.248522	7.288585E-5	20.867474
2164.594064	-2.977500	3.269700	-9.734600	27.176496	7.087270E-5	20.864254
2165.594384	-3.017200	3.269000	-9.862400	27.195078	7.149975E-5	20.885788
2166.594537	-2.988200	3.270900	-9.773700	27.247875	6.866154E-5	20.881047
2167.590226	-3.024200	3.268000	-9.882900	27.321835	7.027866E-5	20.880527
2168.600193	-2.993800	3.268500	-9.784100	27.289336	7.057568E-5	20.871069
2169.597723	-2.990700	3.269000	-9.774800	27.314744	6.991563E-5	20.864386
2170.597065	-3.021500	3.267900	-9.872700	27.338734	6.938759E-5	20.865759
2171.590569	-2.986300	3.268400	-9.759800	27.359399	6.935459E-5	20.878960
2172.596254	-2.997700	3.267700	-9.794700	27.352108	6.912357E-5	20.871151
2173.593478	-3.014900	3.265700	-9.845200	27.308321	6.823251E-5	20.878313
2174.594326	-2.980200	3.267300	-9.736100	27.296988	6.991563E-5	20.850318
2175.600948	-3.017900	3.265200	-9.853400	27.293266	6.618636E-5	20.866962
2176.597506	-3.003300	3.266000	-9.807400	27.321847	6.737445E-5	20.871530
2177.589380	-3.025000	3.264000	-9.872900	27.276473	6.588934E-5	20.876622
2178.594058	-3.005200	3.265900	-9.813500	27.289101	6.460224E-5	20.897858
2179.597785	-3.009800	3.263900	-9.822500	27.273521	6.645038E-5	20.888351
2180.594178	-2.990700	3.263600	-9.758700	27.273201	6.684641E-5	20.881866
2181.596199	-2.992400	3.263800	-9.765900	27.271767	6.324914E-5	20.873785
2182.595578	-2.998500	3.262400	-9.781600	27.272783	6.450324E-5	20.890928
2183.597308	-2.995200	3.263300	-9.773700	27.316575	6.338115E-5	20.879029
2184.596090	-3.048500	3.261100	-9.940300	27.298167	6.595534E-5	20.880427
2185.597228	-2.993200	3.262400	-9.764200	27.311493	6.414021E-5	20.872020
2186.597584	-3.001400	3.262200	-9.790100	27.277603	6.555931E-5	20.868277
2187.596606	-2.998800	3.261300	-9.779800	27.290929	6.298513E-5	20.883102
2188.603146	-2.997300	3.260600	-9.772000	27.298524	6.305113E-5	20.881733
2189.600502	-3.013900	3.259200	-9.822000	27.338888	6.341416E-5	20.881086
2190.596877	-2.980700	3.260900	-9.717500	27.310984	6.050994E-5	20.886206
2191.597639	-2.990800	3.259300	-9.746800	27.270647	6.047694E-5	20.900157
2192.599239	-2.999400	3.258800	-9.773400	27.241695	6.064195E-5	20.880521
2193.598641	-2.992700	3.259100	-9.752500	27.264273	6.163203E-5	20.896591
2194.602530	-2.989800	3.259200	-9.743200	27.270823	6.341416E-5	20.889904
2195.601153	-3.030000	3.257200	-9.867800	27.266506	6.064195E-5	20.908794
2196.601029	-3.001400	3.257700	-9.776400	27.293203	6.050994E-5	20.892027
2197.602904	-3.015300	3.257500	-9.821000	27.404075	6.130200E-5	20.894505
2198.603626	-3.001500	3.255100	-9.769400	27.436248	6.097198E-5	20.895577
2199.603268	-2.974800	3.257900	-9.690500	27.434391	6.183004E-5	20.889916
2200.603432	-3.007200	3.255100	-9.787900	27.473361	5.975089E-5	20.876018
2201.601067	-3.000300	3.254200	-9.762500	27.440075	5.971789E-5	20.873351
2202.600701	-3.023900	3.253800	-9.838100	27.401055	5.833178E-5	20.886251
2203.604248	-2.990200	3.255300	-9.733400	27.406268	5.724270E-5	20.889124
2204.606083	-3.018000	3.253000	-9.816300	27.444673	5.760573E-5	20.876079
2205.605293	-3.002300	3.253800	-9.767900	27.502761	5.945387E-5	20.889475
2206.605745	-2.999400	3.253400	-9.757300	27.553166	5.998191E-5	20.882816
2207.606146	-3.002400	3.252700	-9.765100	27.625638	5.899183E-5	20.887458
2208.605171	-2.998700	3.251800	-9.750500	27.621205	5.730871E-5	20.897221
2209.603255	-3.004500	3.254000	-9.775600	27.559771	5.816677E-5	20.874290
2210.605829	-3.017200	3.251600	-9.810100	27.473680	5.740772E-5	20.881554
2211.605578	-2.999600	3.251900	-9.753300	27.481069	5.575760E-5	20.874764
2212.605240	-3.009900	3.250800	-9.783800	27.463861	5.826578E-5	20.873572
2213.611712	-3.012800	3.250300	-9.790200	27.470557	5.668166E-5	20.879361
2214.612773	-3.016500	3.249300	-9.800400	27.425021	5.767174E-5	20.872430
2215.610206	-3.001500	3.248800	-9.750100	27.427697	5.641764E-5	20.870381
2216.612277	-2.967400	3.249300	-9.640800	27.476520	5.555958E-5	20.869239
2217.617534	-3.004600	3.248200	-9.758600	27.487933	5.641764E-5	20.883566
2218.610043	-2.991800	3.248500	-9.717400	27.520283	5.572459E-5	20.854001
2219.610884	-2.993300	3.249700	-9.726100	27.569618	5.575760E-5	20.858594
2220.606992	-3.005600	3.248100	-9.761100	27.494965	5.410747E-5	20.864089
2221.607772	-3.006900	3.246200	-9.760600	27.406434	5.437149E-5	20.868431
2222.608578	-2.986300	3.246800	-9.694700	27.429709	5.506455E-5	20.869086
2223.612515	-3.001200	3.246700	-9.742500	27.458434	5.499854E-5	20.861001
2224.612517	-2.970100	3.246700	-9.642100	27.467860	5.427249E-5	20.868587
2225.616424	-2.987600	3.245600	-9.695400	27.468807	5.328241E-5	20.880444
2226.617274	-2.990800	3.244200	-9.701100	27.507804	5.585660E-5	20.874635
2227.615237	-2.972600	3.246100	-9.648800	27.540941	5.344743E-5	20.858663
2228.620191	-2.951900	3.245100	-9.578000	27.551062	5.341442E-5	20.848459
2229.612916	-2.994700	3.244000	-9.714200	27.464225	5.357944E-5	20.853077
2230.626708	-3.013000	3.243800	-9.773400	27.483502	5.275438E-5	20.841178
2231.617618	-3.023800	3.243400	-9.806100	27.549431	5.321641E-5	20.856301
2232.614666	-2.994200	3.243400	-9.710800	27.541993	5.235835E-5	20.856404
2233.620093	-3.004600	3.242600	-9.742100	27.494768	5.163229E-5	20.845874
2234.622816	-3.035500	3.242200	-9.840800	27.495514	5.262237E-5	20.870331
2235.624408	-2.996800	3.243000	-9.717900	27.515779	5.255636E-5	20.865115
2236.618699	-3.001600	3.240900	-9.726700	27.553332	5.179731E-5	20.861648
2237.620079	-2.985400	3.240000	-9.672100	27.606239	5.239135E-5	20.843759
2238.620742	-3.003700	3.240700	-9.733800	27.618618	5.278738E-5	20.822076
2239.621035	-3.010100	3.239400	-9.750300	27.603161	5.394246E-5	20.839714
2240.620070	-2.991500	3.239000	-9.687800	27.556418	5.255636E-5	20.844839
2241.619370	-3.011900	3.239100	-9.755400	27.549771	5.074123E-5	20.837677
2242.620767	-2.999500	3.239000	-9.714400	27.611852	4.994917E-5	20.830916
2243.619820	-3.002300	3.238800	-9.722900	27.592532	5.120326E-5	20.852726
2244.623762	-3.009100	3.237100	-9.739900	27.514705	5.051021E-5	20.837009
2245.623642	-3.013000	3.237000	-9.752000	27.516438	5.090624E-5	20.823107
2246.626250	-2.971800	3.237700	-9.621400	27.533928	4.955314E-5	20.830273
2247.620379	-3.012800	3.235500	-9.746700	27.518971	5.014718E-5	20.851258
2248.626113	-3.000800	3.237300	-9.714100	27.511135	4.948714E-5	20.835789
2249.627849	-2.995500	3.235300	-9.690600	27.539784	4.948714E-5	20.839009
2250.621301	-2.988500	3.235300	-9.667600	27.515975	4.849706E-5	20.846348
2251.620427	-2.995400	3.235400	-9.690100	27.566154	4.757300E-5	20.840411
2252.621341	-3.002100	3.234600	-9.710000	27.643588	4.767200E-5	20.841986
2253.621047	-2.997200	3.233600	-9.690900	27.612291	5.067522E-5	20.841788
2254.622314	-2.999000	3.233000	-9.694600	27.619461	4.879409E-5	20.843313
2255.624294	-3.019400	3.232100	-9.758300	27.577099	4.803503E-5	20.827242
2256.624635	-2.996100	3.232200	-9.683200	27.508623	4.895910E-5	20.838477
2257.626671	-3.000300	3.233200	-9.699900	27.566117	4.664893E-5	20.849382
2258.629814	-3.010700	3.231800	-9.729000	27.510414	4.777101E-5	20.820365
2259.627210	-2.974400	3.231500	-9.611200	27.485141	4.763900E-5	20.841878
2260.624459	-2.982700	3.231400	-9.637900	27.478023	4.806803E-5	20.824760
2261.626066	-2.990000	3.229800	-9.655900	27.584729	4.770501E-5	20.819272
2262.624665	-2.981700	3.230600	-9.632100	27.579570	4.496580E-5	20.816452
2263.624206	-2.995400	3.229600	-9.672800	27.549484	4.450377E-5	20.833121
2264.631083	-2.976200	3.229900	-9.611800	27.523122	4.565886E-5	20.825090
2265.631242	-3.001300	3.227600	-9.686400	27.527937	4.582387E-5	20.811443
2266.625436	-2.978800	3.228700	-9.617200	27.474334	4.539484E-5	20.814885
2267.629806	-3.002100	3.226900	-9.686900	27.455167	4.704496E-5	20.795602
2268.631861	-3.016200	3.227900	-9.735200	27.428278	4.536183E-5	20.821181
2269.630535	-3.019200	3.225700	-9.738300	27.429544	4.552685E-5	20.812498
2270.635885	-2.983400	3.226600	-9.625400	27.499792	4.351370E-5	20.803988
2271.626185	-2.982300	3.225600	-9.619200	27.475240	4.377772E-5	20.808210
2272.635519	-3.009200	3.226800	-9.709000	27.506816	4.707796E-5	20.821486
2273.632062	-2.998700	3.226200	-9.674100	27.457724	4.453677E-5	20.811925
2274.634078	-3.009400	3.224700	-9.703700	27.497714	4.407474E-5	20.817071
2275.629708	-2.999500	3.225300	-9.673800	27.595289	4.245762E-5	20.796707
2276.627349	-2.995200	3.223400	-9.653600	27.653975	4.404174E-5	20.810713
2277.630609	-2.981600	3.224000	-9.612000	27.672647	4.331568E-5	20.819070
2278.629302	-2.996400	3.223200	-9.656900	27.638228	4.117053E-5	20.819524
2279.631013	-3.001600	3.221500	-9.669100	27.642662	4.117053E-5	20.805019
2280.630144	-3.011100	3.222300	-9.701800	27.636540	4.592287E-5	20.814980
2281.631999	-2.998700	3.220700	-9.657200	27.671160	4.285365E-5	20.810936
2282.629418	-3.017100	3.221500	-9.718400	27.743973	4.150055E-5	20.803601
2283.630754	-2.981300	3.221200	-9.601900	27.776413	4.209459E-5	20.811591
2284.632757	-3.004300	3.220300	-9.674000	27.762827	4.100551E-5	20.822575
2285.636410	-3.004200	3.219600	-9.671100	27.748168	4.077450E-5	20.812564
2286.638778	-2.985500	3.219400	-9.611300	27.719053	3.932239E-5	20.798913
2287.634724	-3.003700	3.218000	-9.665400	27.685353	4.186358E-5	20.787286
2288.632631	-3.021300	3.217500	-9.720700	27.658073	4.146755E-5	20.784964
2289.634732	-3.011400	3.218400	-9.691100	27.628906	4.235861E-5	20.796868
2290.635839	-3.005600	3.217000	-9.667800	27.641531	3.945440E-5	20.791079
2291.634790	-3.018400	3.216300	-9.707200	27.633967	3.952041E-5	20.797692
2292.639818	-2.998800	3.216300	-9.643800	27.622580	3.935539E-5	20.820847
2293.635127	-2.994300	3.216900	-9.631700	27.660949	3.843133E-5	20.784066
2294.636042	-3.007800	3.216300	-9.673700	27.659437	3.777128E-5	20.793924
2295.639560	-2.990200	3.215400	-9.613900	27.656811	3.790329E-5	20.787488
2296.640320	-3.014800	3.214900	-9.691600	27.751790	3.816731E-5	20.785389
2297.642574	-3.010100	3.212700	-9.670200	27.762479	3.760626E-5	20.802310
2298.643834	-3.005600	3.215800	-9.664800	27.762455	3.711123E-5	20.802286
2299.640945	-3.024500	3.214400	-9.720700	27.774606	3.523009E-5	20.801712
2300.639240	-3.053400	3.211000	-9.803400	27.764708	3.836532E-5	20.794596
2301.645438	-2.994600	3.213400	-9.622500	27.668070	3.714423E-5	20.804508
2302.641042	-3.003200	3.213100	-9.649000	27.688996	3.575813E-5	20.799486
2303.644180	-3.004600	3.210600	-9.646100	27.684263	3.519709E-5	20.781922
2304.644380	-2.996900	3.212900	-9.627900	27.649669	3.235888E-5	20.814440
2305.643959	-3.008200	3.209000	-9.652100	27.737757	3.612116E-5	20.794027
2306.642751	-3.001900	3.209500	-9.634000	27.773541	3.490007E-5	20.775984
2307.648344	-3.020200	3.210000	-9.694100	27.840321	3.529610E-5	20.791034
2308.647760	-2.992200	3.209700	-9.603200	27.814408	3.552711E-5	20.777283
2309.644958	-2.999400	3.209000	-9.624200	27.780092	3.354697E-5	20.786845
2310.649003	-3.013600	3.208300	-9.667700	27.813196	3.674820E-5	20.777011
2311.644722	-3.007700	3.206200	-9.642400	27.897006	3.668220E-5	20.804937
2312.647027	-3.010100	3.206200	-9.650300	27.886965	3.707823E-5	20.794357
2313.656415	-3.041900	3.207600	-9.756600	27.829862	3.572513E-5	20.799474
2314.646044	-2.987400	3.206700	-9.578700	27.782825	3.364597E-5	20.791966
2315.651634	-3.002400	3.206200	-9.625600	27.779925	3.598915E-5	20.795210
2316.649590	-2.995100	3.205900	-9.600200	27.753167	3.727624E-5	20.786775
2317.651472	-2.989700	3.204300	-9.578100	27.748258	3.390999E-5	20.786577
2318.652318	-2.991200	3.206200	-9.589100	27.736037	3.490007E-5	20.776174
2319.654747	-3.004400	3.205600	-9.629600	27.724630	3.473505E-5	20.793619
2320.647469	-2.986300	3.203500	-9.565800	27.743977	3.638517E-5	20.787484
2321.646799	-2.987300	3.202700	-9.566800	27.736860	3.311794E-5	20.788383
2322.654692	-2.996000	3.202200	-9.592400	27.747800	3.216086E-5	20.781848
2323.649095	-2.994100	3.202000	-9.586500	27.832832	3.173183E-5	20.784445
2324.651798	-2.971900	3.201900	-9.514300	27.831742	3.394300E-5	20.777184
2325.650596	-3.005700	3.200200	-9.618400	27.783563	3.371198E-5	20.786070
2326.651184	-2.997100	3.200500	-9.591100	27.759509	3.450404E-5	20.775139
2327.651661	-2.991700	3.201400	-9.576400	27.702550	3.239188E-5	20.773296
2328.655476	-2.987800	3.198200	-9.554300	27.700321	3.216086E-5	20.783382
2329.646943	-2.983700	3.197100	-9.538000	27.669571	3.321694E-5	20.785629
2330.653843	-2.974800	3.198000	-9.513000	27.665453	3.288692E-5	20.773898
2331.656338	-3.001700	3.196200	-9.593200	27.669054	3.163283E-5	20.782739
2332.655993	-2.981200	3.197400	-9.530700	27.672898	3.298593E-5	20.771433
2333.655288	-2.946300	3.200500	-9.428700	27.724635	2.994970E-5	20.766122
2334.655103	-3.010000	3.195800	-9.618300	27.782494	3.331595E-5	20.766028
2335.653165	-2.987800	3.195600	-9.547300	27.802876	3.051074E-5	20.770419
2336.651849	-2.994700	3.193500	-9.561800	27.774538	2.879462E-5	20.790738
2337.656933	-2.979600	3.196100	-9.522300	27.708426	2.945467E-5	20.783003
2338.650080	-3.004100	3.193700	-9.593400	27.773178	3.120379E-5	20.770402
2339.658939	-2.980200	3.192700	-9.513700	27.803876	2.965268E-5	20.756252
2340.653820	-3.037100	3.192200	-9.694200	27.840182	2.744152E-5	20.764816
2341.653970	-2.998400	3.191900	-9.570100	27.943826	3.133580E-5	20.766712
2342.655409	-3.004200	3.191900	-9.588100	28.014957	3.008171E-5	20.765290
2343.654102	-2.966100	3.192400	-9.468100	28.041515	2.928965E-5	20.781593
2344.650957	-2.983500	3.191300	-9.520500	28.047094	2.839859E-5	20.754017
2345.655369	-2.964400	3.189500	-9.453900	27.967687	2.872861E-5	20.747107
2346.658197	-3.007800	3.188900	-9.591000	27.962735	2.889362E-5	20.762985
2347.651889	-3.018900	3.188200	-9.623800	27.957926	2.902563E-5	20.752929
2348.654641	-2.992800	3.187000	-9.537000	27.909080	2.803556E-5	20.781053
2349.650789	-2.976700	3.188300	-9.489600	27.903210	2.668246E-5	20.754756
2350.648241	-3.002700	3.187800	-9.571400	27.839515	2.750752E-5	20.762248
2351.652059	-2.987100	3.187400	-9.520500	27.767607	2.777154E-5	20.767641
2352.656379	-2.990400	3.185700	-9.525400	27.767930	2.664946E-5	20.760854
2353.652696	-2.981300	3.185000	-9.494200	27.848230	2.668246E-5	20.761535
2354.654730	-2.998500	3.185700	-9.550400	27.846615	2.971869E-5	20.740943
2355.651540	-2.992700	3.185900	-9.532100	27.809646	2.727651E-5	20.757317
2356.653000	-2.977700	3.183600	-9.478900	27.805111	2.747452E-5	20.758917
2357.660696	-2.984000	3.182600	-9.495800	27.786715	2.770554E-5	20.751309
2358.654736	-2.977800	3.182100	-9.474800	27.805488	2.691348E-5	20.764986
2359.655700	-2.973700	3.182200	-9.461400	27.831277	2.773854E-5	20.731670
2360.657917	-2.988300	3.181400	-9.505600	27.908196	2.707849E-5	20.752662
2361.657078	-2.999200	3.180600	-9.538100	27.942238	2.648445E-5	20.752311
2362.655313	-2.958700	3.179700	-9.406600	27.893469	2.499934E-5	20.743055
2363.654110	-3.010700	3.180000	-9.572700	27.858984	2.400927E-5	20.742960
2364.661665	-2.990100	3.178800	-9.504400	27.922039	2.678147E-5	20.726764
2365.654711	-2.998400	3.178600	-9.529800	27.979436	2.655045E-5	20.745183
2366.658208	-2.974700	3.179500	-9.456900	27.918171	2.598941E-5	20.744684
2367.657952	-2.997000	3.177400	-9.521300	27.952934	2.377825E-5	20.746956
2368.657105	-2.989400	3.177700	-9.498500	27.912670	2.513135E-5	20.742940
2369.656746	-3.011300	3.176100	-9.563300	27.962458	2.430629E-5	20.748481
2370.656475	-3.009300	3.175700	-9.555300	27.928069	2.176510E-5	20.741369
2371.660904	-2.967600	3.175000	-9.421300	27.942029	2.410827E-5	20.744515
2372.661757	-3.009500	3.173500	-9.549800	27.937097	2.216113E-5	20.741922
2373.661858	-3.004800	3.173000	-9.533000	27.992954	2.341522E-5	20.743142
2374.659701	-3.020800	3.173400	-9.585300	27.998611	2.397626E-5	20.756897
2375.658071	-2.974100	3.171900	-9.432700	27.976393	2.275517E-5	20.740223
2376.658093	-3.030000	3.170600	-9.606100	27.947043	2.222714E-5	20.729172
2377.656021	-2.994300	3.170300	-9.492600	27.977065	2.433929E-5	20.729993
2378.659488	-3.010100	3.170300	-9.541800	27.957755	2.186411E-5	20.753232
2379.660976	-3.003400	3.168900	-9.517300	28.033571	2.255716E-5	20.725231
2380.657887	-3.020500	3.168700	-9.570000	28.108714	2.417428E-5	20.746820
2381.662323	-3.026900	3.166000	-9.582300	28.097013	2.275517E-5	20.738359
2382.658429	-3.021500	3.167900	-9.570200	28.064189	2.334922E-5	20.742775
2383.658112	-3.013300	3.167000	-9.542600	28.065823	2.156709E-5	20.733988
2384.660367	-3.012700	3.165700	-9.535600	28.010465	2.219413E-5	20.764088
2385.659503	-2.994200	3.165500	-9.476700	27.943529	2.057701E-5	20.736541
2386.660108	-2.974800	3.165200	-9.415200	27.900635	1.985096E-5	20.755957
2387.664249	-3.009300	3.164000	-9.519400	27.919057	2.067602E-5	20.745575
2388.660287	-2.998400	3.162900	-9.482600	27.974792	2.001597E-5	20.736240
2389.661306	-3.007100	3.163100	-9.510600	28.024679	1.915791E-5	20.741411
2390.663374	-2.986300	3.161000	-9.438800	28.033948	2.133607E-5	20.731300
2391.660746	-3.000700	3.160600	-9.483200	28.017466	1.948793E-5	20.737469
2392.673664	-3.018700	3.158700	-9.534300	27.983820	2.077503E-5	20.732999
2393.666560	-2.991800	3.160900	-9.455500	27.995224	2.064302E-5	20.753488
2394.662034	-2.982500	3.159400	-9.421000	28.037324	1.912491E-5	20.724266
2395.667861	-3.010100	3.158000	-9.505400	28.009905	1.846486E-5	20.735548
2396.665132	-2.998900	3.157600	-9.468700	28.023070	2.027999E-5	20.742161
2397.662768	-2.978700	3.156800	-9.402500	28.017270	2.041200E-5	20.740116
2398.665605	-2.985400	3.156400	-9.422400	28.019301	1.846486E-5	20.735049
2399.667748	-3.005000	3.154400	-9.477900	28.068514	1.886089E-5	20.725792
2400.670131	-3.017300	3.154100	-9.516000	28.025429	1.866287E-5	20.727940
2401.673363	-2.978600	3.152300	-9.388100	28.022726	1.661672E-5	20.724745
2402.665396	-2.991400	3.152800	-9.430600	27.988957	1.816784E-5	20.735325
2403.666471	-2.974900	3.152300	-9.376900	27.957174	1.721077E-5	20.745060
2404.671893	-3.018400	3.150700	-9.509400	27.908726	1.938893E-5	20.717632
2405.671199	-2.987500	3.150700	-9.411700	27.937266	1.658372E-5	20.724547
2406.669455	-2.985100	3.150000	-9.402500	27.989383	1.846486E-5	20.736228
2407.675089	-3.011500	3.149500	-9.483900	28.046286	1.955394E-5	20.752730
2408.669586	-2.977800	3.148900	-9.375500	28.098291	1.734278E-5	20.732534
2409.671974	-3.016900	3.147000	-9.493300	28.177546	1.661672E-5	20.729342
2410.673458	-2.983100	3.148200	-9.391000	28.162274	1.681474E-5	20.714915
2411.668265	-2.989100	3.146300	-9.404100	28.110272	1.862987E-5	20.699073
2412.668661	-2.990600	3.145700	-9.406400	28.142050	1.724377E-5	20.737705
2413.669918	-2.986400	3.144700	-9.390100	28.174401	1.608868E-5	20.720011
2414.672904	-2.962000	3.145300	-9.314800	28.198518	1.569265E-5	20.725326
2415.667794	-2.979700	3.144200	-9.366700	28.114290	1.595667E-5	20.744846
2416.677612	-2.977700	3.141300	-9.352800	28.095896	1.532963E-5	20.744822
2417.673099	-3.025400	3.140200	-9.499400	28.093639	1.711176E-5	20.737808
2418.676192	-3.027400	3.140100	-9.504000	28.100139	1.371251E-5	20.721591
2419.670984	-3.005800	3.138900	-9.434100	28.054995	1.483459E-5	20.720243
2420.675346	-3.012100	3.139300	-9.454900	28.052246	1.582466E-5	20.740711
2421.673326	-2.985800	3.137700	-9.367600	28.080008	1.589067E-5	20.742579
2422.680558	-3.005600	3.137400	-9.428900	28.098951	1.410854E-5	20.757381
2423.669874	-2.999500	3.136100	-9.405800	28.071088	1.450457E-5	20.723166
2424.675910	-2.991700	3.135900	-9.381000	28.085595	1.569265E-5	20.744884
2425.678321	-2.996000	3.135300	-9.393000	28.158527	1.341549E-5	20.724894
2426.673273	-2.980100	3.134200	-9.339100	28.190480	1.519762E-5	20.725294
2427.677390	-2.988600	3.133600	-9.364500	28.248781	1.440556E-5	20.721402
2428.678480	-2.997500	3.131400	-9.385700	28.203815	1.417454E-5	20.719278
2429.677541	-2.998500	3.130600	-9.386200	28.169163	1.552764E-5	20.728490
2430.682387	-2.988200	3.130400	-9.353000	28.058358	1.437256E-5	20.742122
2431.674893	-2.999500	3.130900	-9.389500	28.073407	1.199638E-5	20.733562
2432.677550	-2.997200	3.129100	-9.377500	28.090785	1.311847E-5	20.748212
2433.677393	-3.008200	3.128000	-9.408600	28.108135	1.364650E-5	20.732011
2434.681805	-3.019100	3.127400	-9.440700	28.166690	1.245842E-5	20.739277
2435.678036	-2.973700	3.126600	-9.296900	28.152909	1.351449E-5	20.748162
2436.679724	-3.020900	3.124600	-9.437800	28.181368	1.348149E-5	20.740778
2437.678642	-2.975000	3.125100	-9.296700	28.261902	1.103931E-5	20.750261
2438.675620	-3.021900	3.124000	-9.439100	28.292738	1.407554E-5	20.721089
2439.679504	-3.012200	3.122800	-9.404700	28.369173	1.084130E-5	20.735463
2440.678021	-3.013500	3.120400	-9.401900	28.373190	1.057728E-5	20.721015
2441.678550	-2.972400	3.121800	-9.278400	28.346795	1.117132E-5	20.711981
2442.679905	-3.006600	3.119900	-9.379900	28.288087	1.232641E-5	20.723044
2443.681790	-3.008100	3.119400	-9.383000	28.280920	1.212839E-5	20.742856
2444.678620	-3.015300	3.118100	-9.400300	28.336415	1.255742E-5	20.741360
2445.675723	-3.018200	3.116400	-9.404500	28.299262	1.067629E-5	20.727658
2446.683351	-2.992000	3.117700	-9.326900	28.346701	1.176537E-5	20.724215
2447.677298	-3.005100	3.115700	-9.362700	28.383181	9.917230E-6	20.722067
2448.684505	-3.001100	3.114500	-9.345800	28.367724	8.795147E-6	20.734478
2449.679326	-2.999700	3.114000	-9.339900	28.284344	1.037926E-5	20.734449
2450.678033	-3.011200	3.112700	-9.372300	28.195883	1.136934E-5	20.737847
2451.678125	-3.003800	3.111400	-9.345500	28.158578	1.110532E-5	20.738696
2452.682093	-3.025200	3.110100	-9.407500	28.224837	1.094031E-5	20.751351
2453.677493	-2.986600	3.110900	-9.289200	28.302346	9.653210E-6	20.752575
2454.687454	-2.992000	3.109500	-9.302800	28.236861	1.034626E-5	20.743541
2455.679434	-2.997900	3.108200	-9.316800	28.222335	1.011524E-5	20.728442
2456.685484	-2.995200	3.107100	-9.304400	28.207461	1.004924E-5	20.737649
2457.684373	-2.965500	3.106100	-9.209500	28.252923	9.191176E-6	20.743591
2458.681226	-2.985200	3.104700	-9.266900	28.281277	9.389191E-6	20.721403
2459.689630	-3.011800	3.103400	-9.345900	28.380246	1.136934E-5	20.731914
2460.683961	-3.004700	3.102000	-9.320100	28.462767	9.356189E-6	20.731559
2461.681499	-3.009300	3.102200	-9.334400	28.435265	9.323186E-6	20.749858
2462.685321	-3.023500	3.099900	-9.371300	28.386888	7.640062E-6	20.737179
2463.689592	-2.992600	3.101400	-9.280800	28.394623	7.739070E-6	20.765358
2464.687381	-3.022000	3.098900	-9.363600	28.407464	7.376043E-6	20.760744
2465.690714	-2.987900	3.098600	-9.257400	28.436236	9.554203E-6	20.755103
2466.686688	-3.018300	3.095800	-9.342900	28.405678	7.970087E-6	20.742824
2467.688832	-2.983000	3.095500	-9.232900	28.364265	8.498126E-6	20.756600
2468.692415	-2.994700	3.095600	-9.269500	28.404319	8.564130E-6	20.770854
2469.687507	-3.011600	3.093900	-9.316900	28.355445	8.036092E-6	20.742977
2470.691194	-3.029500	3.092300	-9.366800	28.333214	6.352968E-6	20.742404
2471.688756	-3.017500	3.092500	-9.330900	28.295717	7.937084E-6	20.763445
2472.685989	-3.005800	3.090900	-9.289500	28.342833	6.748997E-6	20.747348
2473.688045	-2.996900	3.090300	-9.260200	28.395357	7.244033E-6	20.734327
2474.691170	-3.010200	3.087700	-9.294100	28.387499	7.211031E-6	20.743011
2475.685715	-3.039400	3.087300	-9.381800	28.333596	5.527907E-6	20.749901
2476.690985	-2.984800	3.087100	-9.213200	28.273813	5.593912E-6	20.766996
2477.686794	-2.993300	3.086500	-9.238300	28.302540	8.696140E-6	20.760357
2478.687754	-3.019800	3.085100	-9.315800	28.381185	7.046019E-6	20.758465
2479.689132	-3.013300	3.083400	-9.289800	28.384486	5.329892E-6	20.753253
2480.689710	-3.021600	3.081800	-9.311100	28.328096	7.310038E-6	20.763804
2481.690609	-2.997900	3.081900	-9.237800	28.283511	6.352968E-6	20.741197
2482.688535	-3.007000	3.080300	-9.261500	28.330283	7.706067E-6	20.738979
2483.689415	-3.012900	3.078900	-9.276200	28.356114	5.461902E-6	20.754557
2484.688958	-3.017300	3.077500	-9.284600	28.375101	7.376043E-6	20.750442
2485.688899	-2.997800	3.077100	-9.223800	28.398220	9.092169E-6	20.767083
2486.691399	-3.008600	3.077300	-9.257500	28.352494	6.682992E-6	20.743325
2487.697627	-2.959800	3.076500	-9.104400	28.288430	5.065873E-6	20.767013
2488.696328	-2.994000	3.074300	-9.203900	28.316517	5.395897E-6	20.742662
2489.694290	-3.003200	3.072000	-9.224400	28.416298	5.560909E-6	20.758260
2490.690886	-3.014400	3.072200	-9.259900	28.474042	5.527907E-6	20.757613
2491.696757	-3.014400	3.070500	-9.255500	28.506509	6.914009E-6	20.766128
2492.692709	-3.027100	3.069200	-9.289900	28.493371	6.550982E-6	20.743412
2493.695910	-3.001700	3.067100	-9.205000	28.518276	6.253960E-6	20.765649
2494.692948	-3.000100	3.065500	-9.195900	28.439428	4.570836E-6	20.745042
2495.698901	-2.999000	3.065600	-9.192500	28.463143	6.715994E-6	20.768449
2496.694406	-3.014000	3.063600	-9.232300	28.502792	4.999868E-6	20.773290
2497.697028	-3.018400	3.061800	-9.240500	28.556396	6.121951E-6	20.744770
2498.695307	-3.022100	3.061500	-9.250300	28.522174	5.989941E-6	20.772894
2499.693978	-2.981300	3.060800	-9.124600	28.494424	6.022943E-6	20.753956
2500.697352	-3.032500	3.060600	-9.280600	28.544224	8.003089E-6	20.752426
2501.697349	-2.994000	3.059100	-9.158000	28.535312	6.649990E-6	20.742028
2502.701859	-3.008900	3.056600	-9.196000	28.554317	6.154953E-6	20.782031
2503.699329	-3.012300	3.055900	-9.204300	28.566210	6.583985E-6	20.768404
2504.700036	-3.000700	3.054700	-9.164500	28.558603	8.465123E-6	20.757424
2505.701472	-3.024600	3.053400	-9.233700	28.519554	7.640062E-6	20.761246
2506.696014	-2.994700	3.052900	-9.141500	28.437500	9.455196E-6	20.762541
2507.697345	-3.007800	3.050900	-9.175500	28.391085	8.135099E-6	20.777916
2508.700513	-3.032200	3.049500	-9.245400	28.399237	6.914009E-6	20.751037
2509.701854	-3.028500	3.048600	-9.231800	28.413187	6.220958E-6	20.750860
2510.704666	-3.002400	3.047000	-9.147500	28.514371	8.762145E-6	20.764087
2511.705358	-3.008500	3.046100	-9.162800	28.567696	9.950232E-6	20.768004
2512.701516	-3.014100	3.045100	-9.177500	28.596566	1.014825E-5	20.762941
2513.703311	-3.007200	3.044300	-9.153900	28.559594	7.970087E-6	20.757948
2514.700427	-2.998500	3.041500	-9.119300	28.519815	9.026164E-6	20.766251
2515.698748	-2.996500	3.041900	-9.114500	28.545617	9.224179E-6	20.769476
2516.701622	-2.996200	3.040200	-9.107600	28.531115	7.211031E-6	20.780476
2517.705813	-3.001700	3.038400	-9.119500	28.590535	8.135099E-6	20.784842
2518.703331	-3.008100	3.037700	-9.136900	28.592517	7.310038E-6	20.771191
2519.702757	-2.975100	3.037700	-9.036700	28.626962	7.310038E-6	20.777908
2520.706273	-2.991300	3.034600	-9.076400	28.576730	6.815002E-6	20.759559
2521.705654	-3.006000	3.033700	-9.118300	28.547987	5.065873E-6	20.772811
2522.701687	-2.995100	3.032700	-9.082300	28.563425	5.527907E-6	20.770341
2523.705876	-3.017600	3.030100	-9.141500	28.543999	4.867858E-6	20.767373
2524.707175	-3.007800	3.029800	-9.112300	28.482488	6.088948E-6	20.785559
2525.705426	-3.011400	3.028700	-9.118100	28.521567	7.475050E-6	20.758058
2526.706291	-2.997700	3.027800	-9.075500	28.592111	4.768851E-6	20.795438
2527.705691	-3.035000	3.025700	-9.181900	28.644568	6.682992E-6	20.775251
2528.707346	-2.994900	3.024600	-9.056800	28.593940	6.385970E-6	20.796333
2529.702654	-2.979200	3.023600	-9.007000	28.589531	4.471829E-6	20.796159
2530.702639	-2.982200	3.023200	-9.015000	28.633683	6.881007E-6	20.795108
2531.704634	-2.977200	3.021400	-8.993800	28.655911	5.692919E-6	20.781935
2532.704165	-3.006000	3.018600	-9.072900	28.601768	5.494905E-6	20.762015
2533.706097	-3.011300	3.017400	-9.085500	28.547503	5.494905E-6	20.786074
2534.711426	-2.996900	3.016100	-9.038100	28.532113	5.329892E-6	20.778162
2535.702503	-2.983800	3.015800	-8.998100	28.570891	5.989941E-6	20.786396
2536.706492	-2.982000	3.013600	-8.985900	28.682118	5.329892E-6	20.791735
2537.707355	-2.985600	3.012200	-8.992400	28.697849	3.778778E-6	20.791459
2538.704966	-2.988500	3.011500	-8.998700	28.639995	4.999868E-6	20.817586
2539.707681	-2.981600	3.012300	-8.980500	28.605701	5.824929E-6	20.805807
2540.708874	-3.004500	3.007900	-9.036700	28.595094	4.801853E-6	20.816460
2541.712225	-3.000900	3.008100	-9.026100	28.596085	5.989941E-6	20.807501
2542.706132	-2.996900	3.006900	-9.008700	28.599008	3.910788E-6	20.802384
2543.711528	-3.010600	3.003300	-9.039500	28.591299	4.009795E-6	20.808371
2544.711046	-2.994400	3.003600	-8.993500	28.638971	3.778778E-6	20.809443
2545.716873	-3.006400	3.002100	-9.024800	28.718852	3.217737E-6	20.813088
2546.710471	-3.007400	3.000800	-9.023600	28.780037	6.352968E-6	20.808811
2547.709460	-3.008100	3.000400	-9.024500	28.794707	3.811781E-6	20.791821
2548.707507	-2.986400	2.998400	-8.953500	28.711864	5.461902E-6	20.797041
2549.708444	-3.010200	2.996900	-9.020700	28.698786	5.395897E-6	20.813265
2550.714500	-3.002000	2.995100	-8.990700	28.712453	4.867858E-6	20.807591
2551.716467	-2.993600	2.994000	-8.961700	28.737128	4.471829E-6	20.811582
2552.712902	-3.012500	2.991500	-9.010500	28.742281	4.669844E-6	20.816299
2553.721390	-3.008800	2.991200	-8.998900	28.717975	4.471829E-6	20.788497
2554.718998	-2.985100	2.989900	-8.924300	28.702416	4.372822E-6	20.817396
2555.710564	-2.997300	2.988000	-8.955500	28.706477	5.626914E-6	20.791140
2556.712750	-2.993200	2.987000	-8.939000	28.736854	5.758924E-6	20.825530
2557.713093	-3.015300	2.984500	-8.998200	28.705065	5.098875E-6	20.822908
2558.710326	-2.975000	2.985200	-8.880000	28.683038	7.013016E-6	20.804041
2559.719576	-3.017100	2.981100	-8.993400	28.751393	6.682992E-6	20.801769
2560.712330	-2.987600	2.980700	-8.904700	28.854893	5.230885E-6	20.832535
2561.719831	-3.020600	2.978400	-8.995700	28.912810	5.692919E-6	20.806007
2562.713941	-2.996200	2.977400	-8.920300	28.830610	7.343041E-6	20.822771
2563.716018	-2.985300	2.975900	-8.883000	28.806854	6.583985E-6	20.808798
2564.714589	-2.974300	2.975200	-8.847300	28.735522	6.715994E-6	20.806646
2565.716759	-2.992200	2.972100	-8.891400	28.744413	6.616987E-6	20.837411
2566.715178	-2.996900	2.973000	-8.908000	28.723328	8.432121E-6	20.835139
2567.720194	-3.009300	2.969500	-8.933800	28.755030	8.102096E-6	20.813019
2568.720659	-3.011100	2.969200	-8.939500	28.808147	8.300111E-6	20.805359
2569.715526	-3.007300	2.966200	-8.919300	28.763670	9.356189E-6	20.810817
2570.720832	-2.989400	2.966900	-8.868100	28.795826	8.861152E-6	20.818552
2571.719049	-2.982900	2.964800	-8.842300	28.769016	8.300111E-6	20.835641
2572.726854	-2.994500	2.962700	-8.870000	28.799284	8.201104E-6	20.821087
2573.717927	-2.999100	2.960700	-8.878100	28.801290	8.696140E-6	20.831168
2574.720345	-2.979500	2.960300	-8.819200	28.831557	8.894155E-6	20.824199
2575.721503	-2.976000	2.958200	-8.802800	28.807028	7.937084E-6	20.843111
2576.720290	-3.000000	2.955800	-8.866000	28.730542	6.748997E-6	20.822966
2577.722311	-2.994100	2.954500	-8.845300	28.696547	7.871079E-6	20.837087
2578.717426	-3.010500	2.953800	-8.891300	28.725777	9.257181E-6	20.829546
2579.718716	-3.001100	2.951600	-8.856700	28.696464	5.692919E-6	20.827047
2580.718229	-2.983600	2.950200	-8.801800	28.691826	7.607060E-6	20.842290
2581.721080	-2.991500	2.949900	-8.823900	28.658992	7.046019E-6	20.850469
2582.720304	-2.987400	2.947800	-8.805300	28.644472	9.026164E-6	20.842009
2583.724061	-3.012300	2.945300	-8.871200	28.680294	7.541055E-6	20.845373
2584.719900	-3.006300	2.944000	-8.849100	28.773524	7.541055E-6	20.847769
2585.720751	-3.005800	2.942200	-8.843500	28.711056	6.418973E-6	20.839374
2586.725175	-2.980200	2.942200	-8.767800	28.704192	5.758924E-6	20.856641
2587.722086	-3.019500	2.938600	-8.872300	28.691973	6.682992E-6	20.843385
2588.731104	-2.967000	2.938700	-8.717300	28.685153	8.729143E-6	20.842206
2589.722666	-2.991600	2.937100	-8.785700	28.719046	6.088948E-6	20.852637
2590.724843	-2.966600	2.935400	-8.707200	28.778672	6.550982E-6	20.849161
2591.720696	-3.011200	2.933400	-8.832200	28.827400	8.267109E-6	20.847038
2592.724851	-2.992600	2.931500	-8.771800	28.803595	6.121951E-6	20.844869
2593.722392	-2.987200	2.930400	-8.752800	28.805101	6.121951E-6	20.860136
2594.726366	-2.997300	2.928500	-8.776800	28.838561	5.263888E-6	20.853539
2595.721305	-3.004900	2.926400	-8.792100	28.869499	4.141805E-6	20.851989
2596.724506	-2.980500	2.923900	-8.713700	28.913139	4.537834E-6	20.884097
2597.731419	-3.008400	2.922300	-8.790500	28.896318	5.065873E-6	20.851981
2598.723731	-2.967500	2.921600	-8.668300	28.790763	4.372822E-6	20.851383
2599.732045	-3.007400	2.920700	-8.783100	28.833813	6.286963E-6	20.847808
2600.722939	-2.979100	2.919000	-8.695200	28.927946	4.966866E-6	20.876730
2601.725649	-2.990900	2.915100	-8.717500	28.922937	5.197883E-6	20.863149
2602.724534	-3.009100	2.913900	-8.766500	28.972505	2.854710E-6	20.856664
2603.725741	-2.972400	2.913700	-8.659200	29.022087	4.108802E-6	20.865841
2604.731175	-2.992200	2.910200	-8.707200	29.107283	4.768851E-6	20.881034
2605.725278	-3.025500	2.909400	-8.801600	29.170013	3.217737E-6	20.883553
2606.730046	-3.003300	2.908600	-8.734800	29.191732	3.679771E-6	20.859447
2607.728124	-3.028200	2.904000	-8.792600	29.165901	3.283742E-6	20.864237
2608.730527	-2.992400	2.903500	-8.687500	29.064633	5.296890E-6	20.862716
2609.728115	-2.993100	2.901900	-8.684600	28.967409	3.250739E-6	20.887564
2610.734485	-2.980500	2.901000	-8.645500	28.939000	3.679771E-6	20.858469
2611.725854	-2.988600	2.898300	-8.661300	28.937637	3.910788E-6	20.860415
2612.731634	-2.992000	2.897200	-8.667800	29.031139	3.646768E-6	20.873064
2613.730148	-3.005800	2.895000	-8.701200	29.085608	5.461902E-6	20.884798
2614.729709	-2.977800	2.893400	-8.615400	29.105388	4.438827E-6	20.888133
2615.731622	-3.016600	2.890000	-8.717300	29.057119	2.128657E-6	20.878853
2616.731437	-3.005600	2.889800	-8.684200	29.023306	4.636841E-6	20.884612
2617.726670	-2.998800	2.888400	-8.659900	29.014958	5.131878E-6	20.893270
2618.728190	-2.993500	2.885400	-8.636900	29.012908	2.425679E-6	20.865602
2619.726952	-2.980600	2.885100	-8.598200	29.008668	5.362895E-6	20.875554
2620.729825	-2.988800	2.883800	-8.617400	29.032919	5.758924E-6	20.886711
2621.729296	-3.019500	2.879900	-8.695500	29.082674	2.161659E-6	20.901754
2622.727417	-2.969600	2.877900	-8.545500	29.079846	4.636841E-6	20.892268
2623.728262	-3.001300	2.876800	-8.633000	29.108031	5.164880E-6	20.892218
2624.727720	-2.980600	2.875400	-8.569400	29.128937	2.062652E-6	20.879619
2625.728646	-2.992000	2.872300	-8.593200	29.114644	3.778778E-6	20.894614
2626.731061	-2.994200	2.870300	-8.593700	29.147685	4.834856E-6	20.880019
2627.730171	-2.972900	2.870300	-8.532000	29.203924	5.065873E-6	20.905395
2628.727367	-2.976100	2.867600	-8.533600	29.244065	3.646768E-6	20.897957
2629.734083	-3.021600	2.864700	-8.654700	29.229851	3.019722E-6	20.897858
2630.733570	-3.021000	2.863200	-8.648400	29.266178	4.240812E-6	20.889423
2631.730019	-2.993300	2.862100	-8.566500	29.266080	4.966866E-6	20.897858
2632.731027	-2.999100	2.857900	-8.570500	29.275564	3.943790E-6	20.869960
2633.732138	-3.028300	2.855800	-8.647300	29.247260	2.887713E-6	20.881738
2634.733973	-2.983600	2.854500	-8.515500	29.130545	3.052725E-6	20.895463
2635.732383	-2.985000	2.851700	-8.511400	29.097429	3.811781E-6	20.918043
2636.734346	-3.011900	2.850600	-8.584000	29.058523	2.887713E-6	20.902550
2637.728270	-3.016000	2.847900	-8.588100	29.132251	2.260666E-6	20.898605
2638.732100	-3.004300	2.846900	-8.552400	29.195430	2.491683E-6	20.880716
2639.732938	-3.003500	2.844100	-8.541400	29.138319	4.240812E-6	20.896185
2640.731161	-2.990400	2.843200	-8.501300	29.198646	2.986720E-6	20.905292
2641.735624	-3.001800	2.840300	-8.524700	29.229479	4.141805E-6	20.895113
2642.729239	-3.005200	2.838300	-8.529000	29.248226	3.976793E-6	20.895513
2643.731150	-2.996900	2.836000	-8.497600	29.207713	3.283742E-6	20.898308
2644.732715	-2.979300	2.834400	-8.443000	29.162198	3.085727E-6	20.906021
2645.733866	-2.986000	2.832600	-8.457500	29.128196	3.778778E-6	20.905424
2646.732928	-2.999300	2.828800	-8.484100	29.123589	3.019722E-6	20.898885
2647.735795	-2.988200	2.827700	-8.448000	29.192979	4.339819E-6	20.912857
2648.730002	-3.010800	2.823700	-8.500200	29.238472	2.326671E-6	20.909864
2649.737498	-3.025900	2.821800	-8.537700	29.248377	4.867858E-6	20.889028
2650.736441	-3.021100	2.817800	-8.511700	29.302856	4.438827E-6	20.893196
2651.736675	-2.958600	2.819100	-8.340100	29.305478	3.580764E-6	20.912432
2652.741342	-2.983600	2.816300	-8.401400	29.275641	2.524686E-6	20.905597
2653.734305	-2.991600	2.813100	-8.415000	29.300135	4.504832E-6	20.895195
2654.733341	-2.984600	2.810200	-8.386500	29.227352	5.032870E-6	20.914778
2655.737639	-2.990800	2.807400	-8.395300	29.218441	3.580764E-6	20.904851
2656.739859	-2.959200	2.805000	-8.298700	29.182525	5.461902E-6	20.905168
2657.742830	-3.001400	2.802700	-8.410200	29.209644	4.405824E-6	20.907365
2658.739787	-2.986200	2.800900	-8.363300	29.210458	4.603839E-6	20.886851
2659.744786	-2.966300	2.798000	-8.298700	29.280935	3.019722E-6	20.922310
2660.742028	-2.983200	2.794700	-8.335900	29.304627	3.778778E-6	20.906359
2661.739801	-2.965600	2.791800	-8.278100	29.326224	4.999868E-6	20.905366
2662.739109	-2.998500	2.788400	-8.360500	29.355908	4.999868E-6	20.892136
2663.742935	-2.996900	2.786200	-8.349300	29.311385	2.887713E-6	20.923600
2664.739683	-2.995100	2.784600	-8.339300	29.263343	2.458681E-6	20.900789
2665.740821	-2.996800	2.780100	-8.330300	29.251061	3.052725E-6	20.873241
2666.743017	-2.978600	2.778300	-8.273000	29.290905	4.207810E-6	20.895376
2667.740964	-2.997300	2.774400	-8.315200	29.255438	2.953717E-6	20.903255
2668.740350	-3.002500	2.771600	-8.320900	29.321208	4.735849E-6	20.903630
2669.740521	-2.991200	2.769500	-8.283300	29.418443	6.980014E-6	20.904430
2670.740027	-2.997200	2.765000	-8.286600	29.432532	3.943790E-6	20.906776
2671.745319	-3.001000	2.763700	-8.292800	29.432846	4.174807E-6	20.900455
2672.744451	-2.966600	2.759600	-8.185200	29.429877	3.547761E-6	20.895092
2673.748890	-3.019200	2.755800	-8.319500	29.404003	3.448754E-6	20.894618
2674.740742	-2.968800	2.755200	-8.178500	29.414745	2.689698E-6	20.885531
2675.740330	-3.026000	2.749300	-8.318500	29.467579	2.392676E-6	20.892317
2676.744954	-2.970500	2.748700	-8.163900	29.550862	5.362895E-6	20.889971
2677.744041	-3.002600	2.743800	-8.237600	29.593517	2.326671E-6	20.907839
2678.746951	-2.983700	2.740800	-8.176900	29.545267	3.316744E-6	20.891917
2679.742538	-2.979400	2.738000	-8.156500	29.501992	3.184734E-6	20.897607
2680.745630	-3.010200	2.734100	-8.229000	29.535610	4.669844E-6	20.874597
2681.741057	-3.019400	2.730100	-8.242600	29.542935	3.481756E-6	20.889567
2682.743125	-2.997600	2.726800	-8.172900	29.571235	3.316744E-6	20.888697
2683.743928	-2.999200	2.722500	-8.164500	29.609951	5.296890E-6	20.887423
2684.741629	-2.986600	2.720200	-8.123100	29.597309	4.702846E-6	20.866146
2685.749351	-3.015600	2.714600	-8.185300	29.545042	3.250739E-6	20.890268
2686.747993	-3.004500	2.711000	-8.144400	29.504246	2.392676E-6	20.879491
2687.744738	-3.014200	2.708700	-8.163800	29.468021	2.887713E-6	20.871427
2688.746202	-2.992600	2.705100	-8.094600	29.496224	3.349747E-6	20.872829
2689.757123	-3.018100	2.700100	-8.148200	29.568912	4.042798E-6	20.892045
2690.749590	-3.003400	2.695900	-8.096500	29.593419	4.042798E-6	20.869337
2691.747251	-2.984100	2.693600	-8.037100	29.606585	4.372822E-6	20.892090
2692.745147	-3.002100	2.690400	-8.075700	29.645774	4.669844E-6	20.871856
2693.744962	-2.976900	2.684700	-7.991100	29.650898	5.395897E-6	20.879866
2694.748968	-3.046300	2.679700	-8.162400	29.715253	2.425679E-6	20.874573
2695.751453	-3.010800	2.675000	-8.052500	29.749661	4.669844E-6	20.859953
2696.751039	-2.995000	2.672100	-8.001400	29.750332	5.956939E-6	20.866319
2697.752470	-2.970000	2.668100	-7.923600	29.810775	3.019722E-6	20.875105
2698.750647	-2.999100	2.663700	-7.987800	29.785753	5.362895E-6	20.876428
2699.751713	-3.003000	2.658800	-7.983400	29.779092	4.570836E-6	20.851695
2700.754539	-2.988100	2.655100	-7.931300	29.808076	3.580764E-6	20.875228
2701.749979	-3.040500	2.649100	-8.053200	29.815927	2.887713E-6	20.869395
2702.750211	-2.988500	2.644200	-7.901100	29.833993	4.768851E-6	20.878601
2703.751551	-3.004500	2.640100	-7.931100	29.805259	3.778778E-6	20.864328
2704.752921	-2.963600	2.635700	-7.808400	29.842065	5.263888E-6	20.870619
2705.750965	-3.019700	2.629500	-7.939200	29.911883	2.425679E-6	20.866105
2706.760368	-3.005600	2.624800	-7.888300	29.885502	3.118730E-6	20.865581
2707.752120	-2.987400	2.620000	-7.825800	29.865106	5.593912E-6	20.875360
2708.753025	-2.974100	2.616500	-7.781000	29.788759	5.824929E-6	20.862390
2709.755012	-3.001600	2.609500	-7.831500	29.724978	4.405824E-6	20.866360
2710.753643	-2.984000	2.603900	-7.768800	29.792374	3.778778E-6	20.868879
2711.757249	-2.985700	2.599000	-7.759300	29.833633	5.131878E-6	20.860221
2712.758240	-2.982600	2.593700	-7.735000	29.761987	4.372822E-6	20.872380
2713.751568	-2.990300	2.587800	-7.737700	29.765867	6.022943E-6	20.864439
2714.751641	-3.019800	2.581300	-7.794100	29.801338	5.296890E-6	20.869856
2715.749883	-2.979700	2.578400	-7.682600	29.773592	4.966866E-6	20.858003
2716.753802	-3.036800	2.569700	-7.802800	29.754438	4.108802E-6	20.859079
2717.755097	-3.009400	2.563500	-7.713700	29.709393	4.669844E-6	20.872932
2718.759861	-2.963100	2.560400	-7.585800	29.778029	6.352968E-6	20.855365
2719.756549	-2.984500	2.552700	-7.617600	29.856561	5.263888E-6	20.843986
2720.754618	-3.016500	2.545800	-7.678000	29.940929	6.550982E-6	20.846084
2721.758311	-3.013200	2.539600	-7.651200	29.924693	5.857931E-6	20.839669
2722.757622	-2.959500	2.535900	-7.504100	29.913588	5.263888E-6	20.865928
2723.754459	-3.011700	2.528900	-7.614300	29.787340	5.989941E-6	20.848158
2724.754982	-3.029100	2.521100	-7.635600	29.795961	5.758924E-6	20.864909
2725.758116	-3.017000	2.514600	-7.585600	29.852410	8.663138E-6	20.850232
2726.755359	-2.992700	2.510700	-7.513200	29.872209	7.013016E-6	20.861661
2727.760911	-2.992400	2.503200	-7.490000	29.881769	7.046019E-6	20.861343
2728.761031	-2.979800	2.498700	-7.444900	29.846301	5.626914E-6	20.828426
