LabVIEW Measurement	
Writer_Version	2
Reader_Version	2
Separator	Tab
Decimal_Separator	.
Multi_Headings	No
X_Columns	One
Time_Pref	Absolute
Operator	admin
Description	Clolumns are: time, Current, Voltage, Power, Battery Temp, and Chamber Temp
Date	1903/12/31
Time	19:00:00
***End_of_Header***	
	
0.000000	-0.002010	4.154900	-0.008237	30.125193	31.438730
0.203629	0.008071	4.154200	0.033712	30.125925	31.409041
1.199641	0.003607	4.154900	0.015107	30.109293	31.377399
2.184935	0.002915	4.154700	0.012252	30.114602	31.346050
3.185053	0.002712	4.152700	0.011353	30.135759	31.311473
4.195385	-0.000479	4.153800	-0.002009	30.097530	31.265583
5.251185	0.006714	4.153300	0.028052	30.116585	31.216073
6.197109	0.000780	4.153600	0.003295	30.124511	31.218860
7.186690	-0.000497	4.153100	-0.002008	30.114213	31.163482
8.186338	-0.001298	4.154000	-0.005384	30.116244	31.137650
9.211323	-0.000508	4.153600	-0.002118	30.136891	31.093391
10.183918	0.004360	4.153000	0.018105	30.122705	31.052819
11.185691	-0.001699	4.153800	-0.007017	30.116590	31.021045
12.189694	-0.002303	4.154400	-0.009500	30.116469	31.001493
13.185995	0.005163	4.153600	0.021525	30.113411	30.977905
14.188167	0.003126	4.154800	0.013127	30.100962	30.929900
15.204837	0.000935	4.154700	0.003947	30.124641	30.891596
16.184844	0.008651	4.155200	0.036076	30.125204	30.871259
17.186587	0.006180	4.154400	0.025834	30.115591	30.841484
18.185296	0.001768	4.154800	0.007334	30.092087	30.810661
19.200362	-0.000402	4.153800	-0.001496	30.117258	30.782646
20.196174	0.003374	4.155200	0.014096	30.114247	30.738932
21.194662	-0.004132	4.154300	-0.017031	30.122344	30.712552
22.201768	0.006599	4.154300	0.027537	30.103463	30.673877
23.186657	0.003844	4.154100	0.016132	30.110287	30.650991
24.187514	0.005310	4.154400	0.022191	30.127925	30.617643
25.186407	0.003449	4.154900	0.014526	30.117455	30.596175
26.195570	0.005033	4.155000	0.021034	30.129613	30.558815
27.185071	0.004526	4.155500	0.018871	30.112221	30.545831
28.197200	0.004083	4.154300	0.017058	30.112125	30.521527
29.196201	0.002849	4.154200	0.012006	30.101337	30.486534
30.185643	0.003880	4.155000	0.016237	30.113641	30.436845
31.201668	0.004580	4.155500	0.019022	30.105104	30.406668
32.183634	0.009214	4.154200	0.038400	30.111610	30.390797
33.186649	-0.001396	4.155000	-0.005706	30.103710	30.349884
34.188361	0.001943	4.154600	0.008112	30.093974	30.325476
35.196159	-0.002433	4.154400	-0.010076	30.096809	30.304098
36.184151	0.004610	4.155000	0.019277	30.091722	30.255355
37.200097	-0.002685	4.155400	-0.011071	30.088467	30.223485
38.194619	-0.001826	4.153400	-0.007494	30.087145	30.225465
39.185845	-0.003566	4.154300	-0.014785	30.086459	30.180753
40.197802	-0.002992	4.154500	-0.012329	30.090641	30.178698
41.184811	0.001418	4.153600	0.005962	30.101794	30.130780
42.186784	-0.002305	4.153900	-0.009447	30.087705	30.107152
43.185722	-0.000196	4.154100	-0.000721	30.084033	30.080731
44.196114	-0.002533	4.154800	-0.010508	30.084080	30.046287
45.186032	0.000457	4.154600	0.001963	30.090197	30.020113
46.198656	0.004844	4.153500	0.020192	30.095722	29.990779
47.194056	-0.001628	4.154300	-0.006712	30.081533	29.987965
48.186899	-0.000209	4.154500	-0.000868	30.083610	29.950411
49.197636	-0.001659	4.154100	-0.006848	30.080234	29.925017
50.199491	-0.003036	4.154400	-0.012504	30.088231	29.896685
51.186382	-0.000913	4.154700	-0.003746	30.082433	29.872169
52.185699	-0.002381	4.153900	-0.009818	30.077345	29.840657
53.185275	-0.002289	4.153500	-0.009434	30.079765	29.817754
54.189933	-0.001930	4.154900	-0.007915	30.068413	29.800161
55.210649	0.004148	4.154100	0.017371	30.057674	29.760425
56.186229	-5.870000E-5	4.154200	-0.000150	30.067946	29.737301
57.185650	-0.001532	4.154200	-0.006285	30.059504	29.725186
58.193821	0.002207	4.155000	0.009276	30.054048	29.710552
59.187099	0.005651	4.154000	0.023425	30.059429	29.654272
60.185266	-0.002557	4.155900	-0.010540	30.053802	29.639834
61.189278	0.001609	4.154800	0.006737	30.073221	29.630997
62.185733	-0.002271	4.153500	-0.009355	30.058616	29.590325
63.186519	0.000926	4.154300	0.003911	30.040440	29.567002
64.196284	0.004128	4.154000	0.017151	30.044011	29.556626
65.185702	0.001371	4.153900	0.005700	30.048683	29.511375
66.185774	-0.001354	4.154900	-0.005577	30.050466	29.497374
67.207282	-0.001320	4.154400	-0.005504	30.038601	29.498719
68.187088	0.000992	4.154100	0.004116	30.042172	29.444656
69.185232	-0.002802	4.155400	-0.011616	30.046425	29.423579
70.195942	0.003113	4.154100	0.012980	30.037301	29.395360
71.192603	0.000420	4.154900	0.001929	30.052148	29.387086
72.185438	0.002384	4.154500	0.009929	30.041922	29.358130
73.185923	-0.001767	4.154100	-0.007279	30.025556	29.311280
74.190517	-0.002799	4.154300	-0.011506	30.026825	29.307410
75.187114	0.007335	4.154700	0.030497	30.047544	29.282614
76.185387	0.003769	4.154100	0.015637	30.034505	29.269933
77.192710	0.002648	4.153000	0.011082	30.032279	29.220340
78.185403	0.005660	4.155800	0.023510	30.035409	29.223839
79.186266	0.004035	4.154700	0.016782	30.021538	29.206654
80.208819	0.006077	4.154800	0.025369	30.029168	29.184180
81.185764	0.003047	4.154500	0.012712	30.022292	29.157836
82.184658	0.002461	4.154900	0.010253	30.017058	29.134238
83.201738	0.003207	4.154600	0.013371	30.020139	29.117492
84.185675	0.004956	4.154700	0.020605	30.008348	29.102387
85.188622	-0.001790	4.153800	-0.007321	30.011038	29.064317
86.196617	0.002625	4.154000	0.010941	29.995920	29.047350
87.184780	0.004403	4.155100	0.018293	30.006437	29.037677
88.186157	0.003456	4.155000	0.014392	30.003794	29.026586
89.208507	-0.001905	4.154000	-0.007881	30.011525	28.994660
90.185154	0.007098	4.154000	0.029520	29.998803	28.955484
91.185297	0.003083	4.154000	0.012787	30.004845	28.945004
92.191515	0.005368	4.154000	0.022410	29.995011	28.919368
93.185763	0.003970	4.154800	0.016549	30.014114	28.902862
94.187865	0.003077	4.154100	0.012790	29.995596	28.898284
95.207443	0.000653	4.152900	0.002766	29.993222	28.864688
96.185323	0.002814	4.155300	0.011671	29.992682	28.834028
97.185303	0.002811	4.153900	0.011704	29.976290	28.826436
98.204064	0.001849	4.154100	0.007769	29.978980	28.821416
99.186382	0.006263	4.154300	0.026058	30.002098	28.810763
100.184352	-0.001116	4.154300	-0.004519	29.964596	28.771754
101.188641	0.003878	4.153700	0.016166	29.969438	28.749419
102.184341	-0.003968	4.154300	-0.016387	29.969633	28.735288
103.189852	-0.003870	4.154800	-0.015999	29.963662	28.707638
104.209789	0.001517	4.153800	0.006343	29.966989	28.705458
105.185550	-0.002252	4.153600	-0.009265	29.959306	28.677930
106.186424	-0.001725	4.154000	-0.007121	29.961605	28.658557
107.210467	0.004602	4.154100	0.019208	29.966374	28.643861
108.186074	-0.002777	4.154500	-0.011485	29.974447	28.627329
109.183805	4.100000E-6	4.154500	0.000132	29.954410	28.614984
110.190541	-0.000119	4.155000	-0.000387	29.942127	28.615546
111.185207	0.005596	4.154200	0.023370	29.939460	28.610671
112.184871	0.004251	4.153800	0.017804	29.942761	28.579075
113.211020	0.005179	4.154400	0.021620	29.939115	28.581670
114.186951	-0.002233	4.153600	-0.009181	29.959052	28.571872
115.185107	0.004970	4.154800	0.020767	29.945547	28.573781
116.210885	0.002651	4.153800	0.011166	29.960692	28.573146
117.186746	-0.003614	4.153600	-0.014956	29.937987	28.574662
118.187926	0.001915	4.153600	0.008048	29.936935	28.593815
119.192540	0.003582	4.154000	0.014917	29.929473	28.585610
120.188972	-0.000169	4.153900	-0.000603	29.945960	28.579338
121.186184	0.006907	4.153300	0.028804	29.919953	28.592245
122.202600	0.003355	4.155500	0.013953	29.934925	28.610540
123.185352	2.920000E-5	4.154400	0.000154	29.922104	28.605787
124.185356	0.005418	4.153400	0.022544	29.929249	28.603020
125.207730	-0.002404	4.154900	-0.009850	29.927706	28.594862
126.183570	-0.001814	4.153600	-0.007527	29.915253	28.590111
127.185011	-0.001519	4.153900	-0.006271	29.925698	28.602037
128.193389	0.002439	4.153500	0.010150	29.931032	28.622439
129.185156	-0.001687	4.153900	-0.006997	29.916130	28.613399
130.187514	0.007217	4.153500	0.030109	29.930808	28.607887
131.197839	-0.002491	4.152500	-0.010338	29.926917	28.621626
132.186795	-0.000736	4.153400	-0.003030	29.913731	28.630835
133.185675	0.001429	4.153400	0.005945	29.905556	28.631101
134.210242	0.000764	4.153800	0.003148	29.927356	28.637496
135.186721	-0.000278	4.153800	-0.001163	29.900517	28.645160
136.185540	0.000330	4.154900	0.001393	29.908858	28.628896
137.194307	0.001631	4.154200	0.006803	29.908661	28.638985
138.185507	-0.001132	4.153100	-0.004677	29.901858	28.660462
139.186941	-0.001761	4.152900	-0.007267	29.896941	28.667296
140.210330	0.004225	4.154100	0.017641	29.902077	28.662151
141.185429	0.004319	4.153500	0.018009	29.905501	28.657864
142.184270	0.002423	4.153400	0.010201	29.903152	28.677922
143.185924	0.005966	4.153300	0.024813	29.897158	28.678533
144.196671	0.001343	4.154600	0.005766	29.892727	28.679241
145.184031	0.004468	4.153400	0.018713	29.886414	28.699371
146.184106	0.004417	4.153800	0.018436	29.894657	28.696602
147.197709	0.002763	4.153800	0.011487	29.885213	28.687148
148.205139	0.004829	4.153400	0.020138	29.881517	28.706959
149.185156	0.003328	4.154100	0.013878	29.884771	28.710583
150.187062	-0.000425	4.152600	-0.001734	29.888537	28.713619
151.185408	0.001374	4.154300	0.005728	29.879361	28.730882
152.185474	0.004650	4.152600	0.019392	29.884498	28.739697
153.199411	-0.001295	4.153700	-0.005370	29.884716	28.734405
154.183659	0.003300	4.153300	0.013821	29.880899	28.743441
155.184954	0.004391	4.154300	0.018304	29.874390	28.743171
156.183222	0.003141	4.154800	0.013109	29.867465	28.740647
157.185130	-0.000575	4.155000	-0.002342	29.873239	28.749365
158.185738	-0.000719	4.154100	-0.003014	29.856675	28.755561
159.195562	-5.280000E-5	4.154100	-0.000176	29.886960	28.743999
160.185968	-0.000225	4.154300	-0.000893	29.863595	28.756242
161.193090	0.002915	4.153900	0.012149	29.873136	28.758446
162.199270	-0.000591	4.153600	-0.002441	29.877855	28.770883
163.184632	-0.000803	4.154300	-0.003326	29.878027	28.779871
164.185079	0.007307	4.153200	0.030454	29.866869	28.790742
165.186241	0.000222	4.154000	0.001039	29.864397	28.811776
166.183849	0.003070	4.153000	0.012801	29.872812	28.838931
167.192677	-0.001274	4.153700	-0.005179	29.856004	28.873164
168.188969	0.005071	4.154000	0.021058	29.874059	28.894907
169.184615	0.005897	4.152400	0.024594	29.866547	28.953132
170.207921	0.004658	4.153700	0.019456	29.877726	28.979744
171.185050	0.002176	4.152200	0.009176	29.847292	29.026779
172.185323	6.460000E-5	4.154700	0.000308	29.866666	29.079585
173.187073	0.003967	4.154300	0.016490	29.861895	29.132465
174.185563	0.000957	4.154400	0.004099	29.857196	29.195329
175.183607	0.000225	4.153900	0.001072	29.859446	29.235401
176.188726	0.003899	4.154000	0.016188	29.858075	29.295714
177.182467	0.002346	4.154300	0.009939	29.854943	29.367112
178.187297	-0.000851	4.153900	-0.003527	29.846281	29.408745
179.211419	0.002348	4.154200	0.009825	29.861303	29.480308
180.184484	-0.002569	4.153500	-0.010616	29.852325	29.546215
181.184244	-0.002085	4.154100	-0.008622	29.845572	29.613242
182.190145	-0.000829	4.153400	-0.003342	29.856581	29.672705
183.185523	-0.000587	4.153900	-0.002411	29.856336	29.729350
184.183341	-0.001312	4.153600	-0.005383	29.855332	29.782665
185.188190	-0.003446	4.153800	-0.014197	29.852541	29.838962
186.185949	0.002238	4.153600	0.009336	29.849238	29.890340
187.183886	-0.001346	4.153200	-0.005465	29.856601	29.936969
188.202364	0.001293	4.153900	0.005459	29.850337	29.991988
189.187504	-0.005428	4.152600	-0.022456	29.846251	30.034871
190.183848	3.360000E-5	4.155000	0.000174	29.841554	30.084113
191.188206	-0.002607	4.153100	-0.010700	29.843363	30.098030
192.184530	0.005331	4.154000	0.022156	29.845467	30.117378
193.191101	0.002237	4.153900	0.009362	29.845320	30.156122
194.194653	-0.001982	4.154000	-0.008137	29.841820	30.179040
195.185372	0.000871	4.154000	0.003665	29.856108	30.204698
196.186448	-0.003027	4.153900	-0.012432	29.837759	30.225243
197.209672	-0.001227	4.153300	-0.005004	29.864230	30.226758
198.184923	-0.002837	4.154400	-0.011719	29.843628	30.243584
199.183779	0.003529	4.152500	0.014658	29.839519	30.246813
200.185609	-0.000885	4.154200	-0.003599	29.838980	30.260216
201.184573	0.001904	4.153000	0.007930	29.849744	30.270242
202.185853	-0.000762	4.154000	-0.003104	29.850526	30.273592
203.186389	-0.001091	4.153900	-0.004411	29.836554	30.289708
204.183657	0.002796	4.153000	0.011669	29.854563	30.279095
205.192047	-0.001068	4.154100	-0.004412	29.845777	30.282419
206.201294	0.001597	4.153100	0.006669	29.845287	30.305408
207.184405	-0.001305	4.154500	-0.005381	29.854266	30.301176
208.185958	-0.004521	4.153500	-0.018675	29.859696	30.301468
209.185633	-0.002153	4.154900	-0.008772	29.849345	30.320469
210.183322	0.002821	4.153000	0.011715	29.849026	30.319417
211.191697	-0.001106	4.152900	-0.004610	29.852794	30.319515
212.187063	0.000165	4.153500	0.000831	29.841685	30.319415
213.184216	-0.002573	4.154600	-0.010569	29.862700	30.333085
214.183816	-0.001772	4.154100	-0.007225	29.874591	30.315991
215.203594	0.002097	4.154300	0.008765	29.858345	30.324697
216.184866	-0.002421	4.153500	-0.009909	29.864483	30.310656
217.184535	-0.001896	4.153800	-0.007789	29.853867	30.321688
218.195263	0.002710	4.153800	0.011362	29.862502	30.321516
219.184741	-0.004825	4.154000	-0.019903	29.855650	30.315400
220.192105	0.006090	4.153000	0.025453	29.866979	30.310216
221.192725	-0.004582	4.152500	-0.018934	29.849238	30.305322
222.184274	8.230000E-5	4.153000	0.000428	29.856113	30.303022
223.192998	0.006191	4.153200	0.025823	29.863379	30.297813
224.209337	-0.002435	4.152900	-0.010025	29.850874	30.318696
225.183496	0.000864	4.154100	0.003612	29.860856	30.302995
226.185989	-0.000700	4.153800	-0.002762	29.846690	30.309011
227.195979	0.001480	4.153500	0.006268	29.857968	30.298641
228.184078	-0.002932	4.153300	-0.012029	29.863497	30.297564
229.196316	0.000438	4.152600	0.001954	29.854371	30.296145
230.184036	0.001219	4.153700	0.005173	29.862173	30.301744
231.183373	0.000641	4.152900	0.002711	29.852902	30.296511
232.197259	-0.003086	4.154400	-0.012681	29.860973	30.307147
233.198391	-0.004262	4.154400	-0.017613	29.862123	30.281150
234.183599	0.001231	4.154100	0.005135	29.847883	30.284157
235.185228	-0.000758	4.154200	-0.003035	29.882183	30.279558
236.184722	-0.001811	4.152700	-0.007463	29.858891	30.272783
237.182935	0.004642	4.153900	0.019353	29.851942	30.265836
238.197590	-0.003362	4.153700	-0.013828	29.873398	30.259403
239.191967	-0.004411	4.153000	-0.018197	29.847291	30.263021
240.192667	0.002516	4.154200	0.010435	29.853604	30.254657
241.184607	0.003479	4.153400	0.014492	29.857126	30.254143
242.185042	0.002572	4.153600	0.010739	29.862971	30.254116
243.185755	-0.003740	4.153500	-0.015379	29.861454	30.265807
244.185725	0.001050	4.152700	0.004452	29.854653	30.236629
245.185593	-0.003446	4.154000	-0.014184	29.856780	30.227015
246.203267	0.001665	4.153300	0.006927	29.865880	30.237580
247.185179	0.002862	4.153000	0.011868	29.859201	30.233837
248.183869	0.004217	4.152700	0.017490	29.859517	30.227917
249.192058	0.004330	4.153000	0.017957	29.861474	30.214464
250.186291	-0.000395	4.152100	-0.001540	29.881242	30.205977
251.188967	-0.000119	4.154200	-0.000330	29.877400	30.221581
252.192204	-0.002084	4.152700	-0.008613	29.864873	30.214193
253.182210	-0.001980	4.153400	-0.008199	29.860372	30.193918
254.183861	0.003476	4.153300	0.014481	29.842167	30.178653
255.201724	0.004225	4.153800	0.017619	29.856161	30.187873
256.183048	-0.002551	4.153100	-0.010485	29.871918	30.170973
257.185866	0.001948	4.153300	0.008074	29.861934	30.171632
258.185619	0.007011	4.152400	0.029134	29.864968	30.173932
259.184672	0.002821	4.153500	0.011722	29.864919	30.182688
260.184413	0.005030	4.153900	0.020943	29.870326	30.187726
261.192192	-0.000542	4.154500	-0.002245	29.848062	30.157764
262.186056	-0.001160	4.154400	-0.004709	29.870128	30.171019
263.184057	0.002005	4.152500	0.008353	29.856453	30.143037
264.206239	0.000930	4.152300	0.003890	29.881847	30.149714
265.184866	0.002964	4.153500	0.012320	29.867584	30.126281
266.184243	0.002008	4.154000	0.008343	29.857332	30.128139
267.194160	-0.005340	4.153800	-0.022056	29.860708	30.134817
268.184136	0.002321	4.152200	0.009614	29.861516	30.114711
269.193509	-0.001039	4.152900	-0.004320	29.855228	30.120532
270.183539	0.002800	4.153500	0.011635	29.873382	30.125474
271.184306	0.001137	4.153100	0.004724	29.854396	30.121535
272.201662	-0.001508	4.154200	-0.006224	29.867927	30.100940
273.184819	-0.002691	4.153700	-0.011071	29.871328	30.087462
274.184466	-0.002041	4.154800	-0.008357	29.876073	30.081199
275.190196	-0.000280	4.154300	-0.001172	29.875706	30.073494
276.183391	0.000624	4.154200	0.002640	29.851877	30.087095
277.185246	0.001395	4.152600	0.005929	29.868636	30.082203
278.201174	0.000504	4.153700	0.002097	29.860219	30.077089
279.184011	-0.002200	4.153100	-0.009075	29.867362	30.078361
280.183600	-0.004263	4.153800	-0.017551	29.868464	30.056346
281.200460	-0.000974	4.153100	-0.004065	29.875191	30.061972
282.183382	-0.001904	4.153300	-0.007735	29.858407	30.062069
283.183381	-0.002752	4.154300	-0.011296	29.861466	30.048982
284.185627	0.003788	4.152800	0.015853	29.870275	30.059624
285.184382	0.001185	4.153000	0.005085	29.869369	30.042940
286.190302	0.006756	4.154000	0.028175	29.875755	30.043455
287.214797	0.003726	4.153100	0.015533	29.869197	30.026990
288.184739	0.003007	4.154000	0.012647	29.867387	30.022245
289.183553	0.004243	4.153100	0.017714	29.874116	30.028974
290.209198	0.004561	4.153000	0.019099	29.873992	30.011603
291.183215	0.001150	4.152900	0.004872	29.875560	30.013171
292.183202	0.003067	4.152600	0.012849	29.876980	29.987070
293.192380	0.003417	4.154500	0.014370	29.880721	30.009158
294.184162	0.003234	4.153700	0.013488	29.867902	29.996707
295.182808	0.001249	4.153100	0.005319	29.870495	29.994897
296.205757	0.001530	4.152800	0.006427	29.864206	29.995581
297.183973	-0.000798	4.153900	-0.003311	29.872697	29.975816
298.183603	-0.002647	4.152800	-0.010997	29.868147	29.983009
299.205614	-0.001253	4.153400	-0.005121	29.871010	29.970459
300.183841	-0.001389	4.152800	-0.005757	29.868416	29.975571
